sample_index,elapsed_us,device_time_ms,acc_x_g,acc_y_g,acc_z_g,gyro_x_dps,gyro_y_dps,gyro_z_dps,mag_x_ut,mag_y_ut,mag_z_ut,quat_w,quat_x,quat_y,quat_z
0,4501,1252570,0.985,0.04,-0.034,0,0.2,0,-34.8,5.8,26.8,0.165349284,0.704641865,-0.14148381,0.675344096
1,8428,1252570,0.985,0.04,-0.034,0,0.1,0,-34.8,5.8,26.8,0.165349284,0.704641865,-0.14148381,0.675344096
2,10628,1252570,0.985,0.04,-0.03,0,0,0,-34.8,5.8,26.8,0.165349284,0.704641865,-0.14148381,0.675344096
3,12908,1252570,0.988,0.04,-0.034,0,-0.1,0,-35,5.3,26.7,0.165349284,0.704641865,-0.14148381,0.675344096
4,15113,1252580,0.985,0.04,-0.038,0.1,-0.1,0,-35,5.3,26.7,0.165349284,0.704641865,-0.14148381,0.675344096
5,17279,1252580,0.985,0.04,-0.034,0.1,-0.1,0,-35,5.3,26.7,0.165349284,0.704641865,-0.141453291,0.675313578
6,19573,1252580,0.988,0.036,-0.034,0,-0.1,0,-35,5.3,26.7,0.165349284,0.704641865,-0.141453291,0.675313578
7,21990,1252580,0.985,0.04,-0.034,0,0,0,-34.9,5,26.7,0.165318766,0.704672384,-0.14148381,0.675313578
8,24764,1252590,0.988,0.04,-0.034,0,0,0,-34.9,5,26.7,0.165318766,0.704672384,-0.14148381,0.675313578
9,27052,1252590,0.985,0.04,-0.034,0,0.2,0,-34.9,5,26.7,0.165318766,0.704672384,-0.14148381,0.675313578
10,29636,1252590,0.981,0.048,-0.03,0.1,0.3,0,-34.9,5,26.7,0.165318766,0.704672384,-0.14148381,0.675313578
11,32794,1252590,0.985,0.036,-0.03,0.1,0.3,0,-35.2,4.3,26.8,0.165318766,0.704672384,-0.14148381,0.675313578
12,34510,1252600,0.985,0.04,-0.038,0.1,0.3,0,-35.2,4.3,26.8,0.165318766,0.704641865,-0.14148381,0.675313578
13,38051,1252600,0.981,0.04,-0.03,0,0.1,0,-35.2,4.3,26.8,0.165318766,0.704641865,-0.14148381,0.675313578
14,39551,1252600,0.985,0.04,-0.038,0,0.1,0,-35.2,4.3,26.8,0.165318766,0.704641865,-0.14148381,0.675313578
15,43404,1252600,0.985,0.04,-0.03,0,0,0,-35,7.3,28.2,0.165318766,0.704641865,-0.14148381,0.675313578
16,44787,1252610,0.985,0.04,-0.034,0,0,0,-35,7.3,28.2,0.165318766,0.704641865,-0.14148381,0.675313578
17,47832,1252610,0.988,0.036,-0.03,0,0,0,-35,7.3,28.2,0.165318766,0.704641865,-0.14148381,0.675313578
18,49490,1252610,0.988,0.04,-0.03,0,-0.1,0,-35,7.3,28.2,0.165318766,0.704641865,-0.14148381,0.675313578
19,52264,1252610,0.988,0.044,-0.038,0,-0.1,0,-35.1,4.8,26.4,0.165318766,0.704641865,-0.14148381,0.675313578
20,54580,1252620,0.985,0.04,-0.03,0,0,0,-35.1,4.8,26.4,0.165318766,0.704641865,-0.14148381,0.675313578
21,57144,1252620,0.985,0.04,-0.034,0,0,-0.1,-35.1,4.8,26.4,0.165318766,0.704641865,-0.14148381,0.675313578
22,60590,1252620,0.992,0.048,-0.03,0,0.1,0,-35.1,4.8,26.4,0.165318766,0.704641865,-0.14148381,0.675313578
23,62458,1252620,0.985,0.04,-0.034,0,0.1,0,-35,4.6,26.1,0.165318766,0.704641865,-0.14148381,0.675344096
24,64558,1252630,0.985,0.04,-0.034,0,0.1,0,-35,4.6,26.1,0.165318766,0.704641865,-0.14148381,0.675344096
25,67067,1252630,0.985,0.04,-0.034,0,0,0,-35,4.6,26.1,0.165318766,0.704641865,-0.14148381,0.675344096
26,69703,1252630,0.981,0.036,-0.034,0,0,0,-35,4.6,26.1,0.165318766,0.704641865,-0.14148381,0.675344096
27,73023,1252630,0.985,0.044,-0.034,0,0,0,-35,4.9,25.9,0.165318766,0.704672384,-0.14148381,0.675313578
28,75426,1252640,0.985,0.04,-0.034,0,0,0,-35,4.9,25.9,0.165318766,0.704672384,-0.14148381,0.675313578
29,77594,1252640,0.988,0.04,-0.042,0,0.1,-0.1,-35,4.9,25.9,0.165318766,0.704672384,-0.14148381,0.675313578
30,79823,1252640,0.985,0.036,-0.034,0,0.2,0,-35,4.9,25.9,0.165318766,0.704641865,-0.14148381,0.675313578
31,82139,1252640,0.985,0.04,-0.03,0,0.2,0,-34.6,5.5,25.9,0.165318766,0.704641865,-0.14148381,0.675313578
32,84501,1252650,0.985,0.04,-0.03,0,0.2,0,-34.6,5.5,25.9,0.165318766,0.704641865,-0.14148381,0.675344096
33,87176,1252650,0.985,0.044,-0.034,0,0,0,-34.6,5.5,25.9,0.165318766,0.704641865,-0.14148381,0.675344096
34,90568,1252650,0.988,0.04,-0.03,0,0,0,-34.6,5.5,25.9,0.165318766,0.704641865,-0.14148381,0.675344096
35,92104,1252650,0.988,0.04,-0.03,0,0,0,-35,7,26.9,0.165318766,0.704641865,-0.14148381,0.675344096
36,95240,1252660,0.988,0.032,-0.034,0,0,0.1,-35,7,26.9,0.165318766,0.704641865,-0.14148381,0.675344096
37,97411,1252660,0.985,0.036,-0.038,0,0,0.2,-35,7,26.9,0.165318766,0.704641865,-0.14148381,0.675344096
38,99727,1252660,0.985,0.036,-0.042,0,0,0.2,-35,7,26.9,0.165257729,0.704641865,-0.14148381,0.675344096
39,102122,1252660,0.988,0.04,-0.038,0,0,0.2,-35.2,6.4,26.8,0.165257729,0.704641865,-0.141514328,0.675344096
40,104597,1252670,0.985,0.036,-0.03,0,0,0.2,-35.2,6.4,26.8,0.165257729,0.704641865,-0.141514328,0.675344096
41,107562,1252670,0.985,0.04,-0.034,0,0,0,-35.2,6.4,26.8,0.165257729,0.704641865,-0.141514328,0.675344096
42,109805,1252670,0.985,0.04,-0.034,0,0.1,0,-35.2,6.4,26.8,0.165257729,0.704641865,-0.141514328,0.675344096
43,112471,1252670,0.988,0.04,-0.03,0,0.1,-0.1,-35.1,6.4,26.7,0.165257729,0.704641865,-0.141514328,0.675344096
44,114633,1252680,0.988,0.04,-0.03,0,0,-0.1,-35.1,6.4,26.7,0.165257729,0.704641865,-0.141514328,0.675344096
45,116961,1252680,0.988,0.04,-0.034,0,0,0,-35.1,6.4,26.7,0.165257729,0.704641865,-0.141514328,0.675344096
46,121382,1252680,0.988,0.04,-0.03,0,0.1,0,-35.1,6.4,26.7,0.165257729,0.704641865,-0.141514328,0.675344096
47,122102,1252680,0.985,0.04,-0.034,0,0.1,0,-35,7,26.6,0.165257729,0.704611347,-0.141514328,0.675344096
48,125820,1252690,0.985,0.04,-0.034,0,0.1,0,-35,7,26.6,0.165257729,0.704611347,-0.141514328,0.675374615
49,127237,1252690,0.985,0.04,-0.034,0,0,0,-35,7,26.6,0.165257729,0.704611347,-0.141514328,0.675374615
50,129726,1252690,0.985,0.04,-0.034,0.1,-0.1,0.1,-35,7,26.6,0.165257729,0.704611347,-0.141514328,0.675374615
51,132244,1252690,0.988,0.044,-0.03,0,-0.1,0,-35,6.9,26.9,0.165257729,0.704611347,-0.141514328,0.675344096
52,134552,1252700,0.985,0.04,-0.03,0,-0.1,0,-35,6.9,26.9,0.165257729,0.704611347,-0.141514328,0.675344096
53,137918,1252700,0.985,0.044,-0.034,0,0,-0.1,-35,6.9,26.9,0.165257729,0.704641865,-0.141514328,0.675344096
54,139825,1252700,0.988,0.044,-0.034,-0.1,0,-0.1,-35,6.9,26.9,0.165257729,0.704641865,-0.141514328,0.675344096
55,143267,1252700,0.981,0.04,-0.034,0,0.1,0,-34.9,5.5,26.8,0.165257729,0.704611347,-0.141514328,0.675344096
56,145548,1252710,0.988,0.044,-0.03,0,0,0,-34.9,5.5,26.8,0.165257729,0.704611347,-0.141514328,0.675344096
57,146989,1252710,0.985,0.048,-0.034,0.1,0,0,-34.9,5.5,26.8,0.165257729,0.704611347,-0.141514328,0.675344096
58,149554,1252710,0.988,0.04,-0.034,0,0,0,-34.9,5.5,26.8,0.165257729,0.704611347,-0.141514328,0.675344096
59,153021,1252710,0.981,0.04,-0.034,0,0,0,-34.7,5.8,26.7,0.165257729,0.704611347,-0.141514328,0.675344096
60,154568,1252720,0.985,0.044,-0.042,0,0,-0.1,-34.7,5.8,26.7,0.165257729,0.704611347,-0.141514328,0.675344096
61,157937,1252720,0.988,0.04,-0.026,-0.1,-0.1,0,-34.7,5.8,26.7,0.165257729,0.704641865,-0.141514328,0.675344096
62,160176,1252720,0.985,0.04,-0.038,-0.1,-0.2,0,-34.7,5.8,26.7,0.165257729,0.704641865,-0.141514328,0.675344096
63,163094,1252720,0.985,0.04,-0.03,-0.1,-0.1,0,-34.9,6.5,27,0.165257729,0.704641865,-0.141514328,0.675344096
64,166162,1252730,0.988,0.044,-0.034,0,0,0,-34.9,6.5,27,0.165257729,0.704641865,-0.141514328,0.675344096
65,168340,1252730,0.985,0.04,-0.034,0,0.1,0,-34.9,6.5,27,0.165257729,0.704641865,-0.141514328,0.675344096
66,170503,1252730,0.988,0.04,-0.034,0.1,0,0,-34.9,6.5,27,0.165257729,0.704641865,-0.141514328,0.675344096
67,172879,1252730,0.985,0.04,-0.03,0.1,0,0,-35.5,6.2,26.9,0.165257729,0.704641865,-0.141514328,0.675344096
68,175029,1252740,0.985,0.044,-0.03,0.1,0,0,-35.5,6.2,26.9,0.165257729,0.704641865,-0.141514328,0.675344096
69,176966,1252740,0.985,0.04,-0.034,0.1,0,0,-35.5,6.2,26.9,0.165257729,0.704641865,-0.14148381,0.675344096
70,179594,1252740,0.985,0.04,-0.034,0,0,0,-35.5,6.2,26.9,0.165257729,0.704641865,-0.14148381,0.675344096
71,182013,1252740,0.985,0.04,-0.034,0,0,-0.1,-35.8,6,26.7,0.165257729,0.704641865,-0.14148381,0.675344096
72,185312,1252750,0.988,0.04,-0.03,0,0,-0.1,-35.8,6,26.7,0.165257729,0.704641865,-0.14148381,0.675344096
73,187138,1252750,0.985,0.044,-0.034,0,0,0,-35.8,6,26.7,0.165257729,0.704641865,-0.14148381,0.675344096
74,189606,1252750,0.985,0.04,-0.03,0,0,0,-35.8,6,26.7,0.165257729,0.704641865,-0.14148381,0.675344096
75,192934,1252750,0.985,0.036,-0.03,0,0,0.1,-34.1,4.4,26.9,0.165257729,0.704641865,-0.141514328,0.675344096
76,194659,1252760,0.988,0.044,-0.034,0,0,0,-34.1,4.4,26.9,0.165257729,0.704641865,-0.141514328,0.675344096
77,198226,1252760,0.985,0.036,-0.03,0,0,0,-34.1,4.4,26.9,0.165257729,0.704641865,-0.141514328,0.675344096
78,199621,1252760,0.985,0.04,-0.03,0,0,0,-34.1,4.4,26.9,0.165257729,0.704641865,-0.141514328,0.675344096
79,202730,1252760,0.985,0.044,-0.026,0,0,0,-36.3,7.2,27.1,0.165257729,0.704641865,-0.141514328,0.675344096
80,205630,1252770,0.985,0.044,-0.03,0,-0.1,-0.1,-36.3,7.2,27.1,0.165257729,0.704641865,-0.141514328,0.675344096
81,207117,1252770,0.985,0.036,-0.03,0,-0.1,-0.1,-36.3,7.2,27.1,0.165257729,0.704641865,-0.141514328,0.675313578
82,210267,1252770,0.988,0.04,-0.034,0,-0.2,-0.1,-36.3,7.2,27.1,0.165257729,0.704641865,-0.141514328,0.675313578
83,212629,1252770,0.985,0.044,-0.034,0,-0.1,-0.1,-36.7,7,26.7,0.165257729,0.704672384,-0.141514328,0.675313578
84,214674,1252780,0.985,0.04,-0.038,0,0,0,-36.7,7,26.7,0.165257729,0.704672384,-0.141514328,0.675313578
85,217208,1252780,0.985,0.04,-0.026,0,0.1,0,-36.7,7,26.7,0.165257729,0.704672384,-0.14148381,0.675313578
86,219482,1252780,0.985,0.044,-0.026,0,0.1,0,-36.7,7,26.7,0.165257729,0.704641865,-0.141514328,0.675313578
87,222897,1252780,0.985,0.04,-0.038,0,0,0.1,-36.5,7.3,27.2,0.165318766,0.704641865,-0.14148381,0.675344096
88,225138,1252790,0.985,0.04,-0.026,0,0,0.1,-36.5,7.3,27.2,0.165318766,0.704641865,-0.14148381,0.675344096
89,227273,1252790,0.981,0.036,-0.034,0,0,0.1,-36.5,7.3,27.2,0.165318766,0.704641865,-0.14148381,0.675344096
90,230298,1252790,0.985,0.044,-0.03,0,0,0.1,-36.5,7.3,27.2,0.165318766,0.704641865,-0.14148381,0.675344096
91,232066,1252790,0.988,0.04,-0.038,0,-0.1,0,-36.3,7.5,27.1,0.165318766,0.704641865,-0.14148381,0.675344096
92,235552,1252800,0.985,0.04,-0.038,0,-0.2,0,-36.3,7.5,27.1,0.165318766,0.704641865,-0.14148381,0.675344096
93,237017,1252800,0.985,0.04,-0.03,-0.1,-0.1,0,-36.3,7.5,27.1,0.165318766,0.704641865,-0.14148381,0.675313578
94,240099,1252800,0.985,0.044,-0.034,0,0,0,-36.3,7.5,27.1,0.165318766,0.704641865,-0.14148381,0.675313578
95,242322,1252800,0.985,0.036,-0.034,0,0,0,-34.4,5.8,26.7,0.165318766,0.704641865,-0.14148381,0.675313578
96,245354,1252810,0.988,0.04,-0.03,0,0.1,0,-34.4,5.8,26.7,0.165318766,0.704641865,-0.14148381,0.675313578
97,246995,1252810,0.988,0.044,-0.042,0,0,0,-34.4,5.8,26.7,0.165318766,0.704641865,-0.14148381,0.675313578
98,249758,1252810,0.988,0.04,-0.03,0,0.1,0,-34.4,5.8,26.7,0.165318766,0.704641865,-0.14148381,0.675344096
99,252911,1252810,0.988,0.044,-0.034,0,0,0,-35.7,6.2,27,0.165318766,0.704641865,-0.14148381,0.675344096
100,254554,1252820,0.985,0.044,-0.026,0,0,0,-35.7,6.2,27,0.165318766,0.704641865,-0.14148381,0.675344096
101,258104,1252820,0.981,0.04,-0.03,0,0,0,-35.7,6.2,27,0.165318766,0.704641865,-0.14148381,0.675344096
102,259588,1252820,0.988,0.044,-0.026,0,0,0,-35.7,6.2,27,0.165318766,0.704641865,-0.14148381,0.675344096
103,262525,1252820,0.985,0.044,-0.03,0,0.1,0,-35,6,27,0.165318766,0.704641865,-0.14148381,0.675344096
104,265620,1252830,0.985,0.036,-0.03,0,0.2,-0.1,-35,6,27,0.165318766,0.704641865,-0.14148381,0.675344096
105,267040,1252830,0.985,0.04,-0.034,0,0.1,-0.1,-35,6,27,0.165318766,0.704641865,-0.14148381,0.675344096
106,270123,1252830,0.981,0.04,-0.034,0,0,0,-35,6,27,0.165318766,0.704641865,-0.14148381,0.675344096
107,272313,1252830,0.985,0.04,-0.022,0,0,0.1,-34.7,6.4,27.2,0.165318766,0.704641865,-0.14148381,0.675344096
108,274559,1252840,0.985,0.04,-0.022,0,0,0.1,-34.7,6.4,27.2,0.165318766,0.704641865,-0.14148381,0.675344096
109,277209,1252840,0.992,0.036,-0.034,0,0,0.2,-34.7,6.4,27.2,0.165318766,0.704641865,-0.14148381,0.675344096
110,279450,1252840,0.988,0.044,-0.03,0,0.1,0,-34.7,6.4,27.2,0.165318766,0.704641865,-0.14148381,0.675344096
111,283678,1252840,0.988,0.04,-0.034,0,0.1,0,-34.5,6.2,27.2,0.165318766,0.704641865,-0.14148381,0.675344096
112,285876,1252850,0.985,0.04,-0.03,0,0.1,0,-34.5,6.2,27.2,0.165318766,0.704611347,-0.14148381,0.675344096
113,288088,1252850,0.981,0.04,-0.03,0,0.2,0,-34.5,6.2,27.2,0.165318766,0.704611347,-0.14148381,0.675344096
114,290408,1252850,0.985,0.04,-0.034,0,0.1,0,-34.5,6.2,27.2,0.165318766,0.704611347,-0.14148381,0.675374615
115,292606,1252850,0.985,0.04,-0.03,0,0,0,-35.2,5.7,26.9,0.165318766,0.704611347,-0.14148381,0.675374615
116,294811,1252860,0.985,0.04,-0.038,0,0,0,-35.2,5.7,26.9,0.165318766,0.704611347,-0.14148381,0.675374615
117,297085,1252860,0.985,0.04,-0.03,0,0,0,-35.2,5.7,26.9,0.165318766,0.704611347,-0.14148381,0.675374615
118,299665,1252860,0.985,0.04,-0.03,0,0,0,-35.2,5.7,26.9,0.165318766,0.704611347,-0.14148381,0.675374615
119,303080,1252860,0.985,0.036,-0.034,0,0.1,0,-34.9,5.9,27.3,0.165318766,0.704611347,-0.14148381,0.675374615
120,304562,1252870,0.988,0.04,-0.03,0,0.1,-0.1,-34.9,5.9,27.3,0.165318766,0.704611347,-0.14148381,0.675374615
121,307609,1252870,0.985,0.04,-0.034,0,0,0,-34.9,5.9,27.3,0.165318766,0.704611347,-0.14148381,0.675374615
122,309768,1252870,0.985,0.036,-0.034,0,0.1,0,-34.9,5.9,27.3,0.165318766,0.704611347,-0.14148381,0.675374615
123,312807,1252870,0.985,0.04,-0.026,-0.1,0.1,0,-34.7,5.7,27.2,0.165318766,0.704611347,-0.14148381,0.675374615
124,314447,1252880,0.985,0.04,-0.038,-0.1,0,0,-34.7,5.7,27.2,0.165318766,0.704611347,-0.14148381,0.675374615
125,318091,1252880,0.985,0.04,-0.038,0,0,0,-34.7,5.7,27.2,0.165318766,0.704611347,-0.14148381,0.675374615
126,320368,1252880,0.985,0.044,-0.03,0,-0.1,0,-34.7,5.7,27.2,0.165318766,0.704611347,-0.14148381,0.675374615
127,322807,1252880,0.985,0.036,-0.034,0,0,0,-34.9,5.8,27.1,0.165318766,0.704611347,-0.14148381,0.675344096
128,325036,1252890,0.985,0.04,-0.034,0,0,0,-34.9,5.8,27.1,0.165318766,0.704611347,-0.14148381,0.675344096
129,327290,1252890,0.985,0.04,-0.034,0,0,0,-34.9,5.8,27.1,0.165318766,0.704611347,-0.14148381,0.675344096
130,329580,1252890,0.988,0.044,-0.03,0,0,0.1,-34.9,5.8,27.1,0.165318766,0.704611347,-0.14148381,0.675344096
131,332119,1252890,0.988,0.044,-0.034,0,0,0.2,-34.7,5.9,26.9,0.165318766,0.704611347,-0.141514328,0.675344096
132,334594,1252900,0.988,0.044,-0.034,0.1,0,0.2,-34.7,5.9,26.9,0.165318766,0.704611347,-0.141514328,0.675374615
133,337787,1252900,0.988,0.04,-0.026,0,0,0.2,-34.7,5.9,26.9,0.165257729,0.704611347,-0.141514328,0.675374615
134,340033,1252900,0.985,0.04,-0.038,0,0,0.1,-34.7,5.9,26.9,0.165257729,0.704611347,-0.141514328,0.675374615
135,342158,1252900,0.988,0.04,-0.03,-0.1,0,0,-36.2,6,27,0.165257729,0.704611347,-0.141514328,0.675374615
136,344683,1252910,0.985,0.04,-0.034,-0.1,0,0,-36.2,6,27,0.165318766,0.704611347,-0.141514328,0.675374615
137,346940,1252910,0.985,0.04,-0.038,-0.1,0,0,-36.2,6,27,0.165318766,0.704611347,-0.141514328,0.675374615
138,350372,1252910,0.981,0.036,-0.034,-0.1,0,0,-36.2,6,27,0.165318766,0.704611347,-0.141514328,0.675374615
139,352173,1252910,0.988,0.04,-0.034,0,0,-0.1,-33.6,6,27,0.165318766,0.704611347,-0.141514328,0.675344096
140,354488,1252920,0.985,0.044,-0.03,0,-0.2,-0.1,-33.6,6,27,0.165318766,0.704611347,-0.141514328,0.675344096
141,357352,1252920,0.985,0.036,-0.026,-0.1,-0.3,-0.1,-33.6,6,27,0.165318766,0.704611347,-0.141514328,0.675344096
142,359573,1252920,0.988,0.036,-0.034,-0.1,-0.2,0,-33.6,6,27,0.165318766,0.704641865,-0.141514328,0.675344096
143,362589,1252920,0.981,0.04,-0.034,0,-0.1,0,-33.5,6,27,0.165318766,0.704641865,-0.141514328,0.675344096
144,364639,1252930,0.985,0.04,-0.034,0,0,0,-33.5,6,27,0.165318766,0.704641865,-0.141514328,0.675344096
145,366930,1252930,0.981,0.04,-0.03,0,0.2,0,-33.5,6,27,0.165318766,0.704641865,-0.141514328,0.675344096
146,369527,1252930,0.985,0.04,-0.034,0.1,0.3,0,-33.5,6,27,0.165318766,0.704611347,-0.141514328,0.675344096
147,373031,1252930,0.988,0.044,-0.034,0.1,0.1,0,-33.9,6,26.8,0.165318766,0.704641865,-0.141514328,0.675344096
148,374943,1252940,0.985,0.044,-0.03,0.1,0.1,0,-33.9,6,26.8,0.165318766,0.704641865,-0.141514328,0.675344096
149,377296,1252940,0.988,0.04,-0.034,0,0,0,-33.9,6,26.8,0.165318766,0.704641865,-0.141514328,0.675344096
150,379597,1252940,0.988,0.044,-0.03,0,0,0,-33.9,6,26.8,0.165318766,0.704641865,-0.141514328,0.675344096
151,382616,1252940,0.992,0.04,-0.026,0,-0.1,0,-33.6,6.1,26.8,0.165318766,0.704641865,-0.141514328,0.675344096
152,384372,1252950,0.981,0.04,-0.034,0,-0.1,0,-33.6,6.1,26.8,0.165318766,0.704641865,-0.141514328,0.675344096
153,387014,1252950,0.981,0.04,-0.038,0,-0.1,0,-33.6,6.1,26.8,0.165318766,0.704641865,-0.141514328,0.675344096
154,389617,1252950,0.985,0.036,-0.03,0,0,0,-33.6,6.1,26.8,0.165318766,0.704641865,-0.141514328,0.675344096
155,393092,1252950,0.985,0.036,-0.034,0,0,0,-35.5,5.9,26.9,0.165318766,0.704641865,-0.141514328,0.675344096
156,394591,1252960,0.985,0.044,-0.03,0,0.1,0,-35.5,5.9,26.9,0.165318766,0.704641865,-0.141514328,0.675344096
157,398013,1252960,0.985,0.04,-0.03,0,0,0,-35.5,5.9,26.9,0.165318766,0.704641865,-0.141514328,0.675344096
158,399570,1252960,0.985,0.04,-0.03,0,0,0,-35.5,5.9,26.9,0.165318766,0.704641865,-0.141514328,0.675344096
159,402086,1252960,0.988,0.044,-0.034,-0.1,-0.1,0,-34.7,6.2,27.3,0.165318766,0.704641865,-0.141514328,0.675344096
160,404382,1252970,0.988,0.044,-0.03,0,-0.3,0,-34.7,6.2,27.3,0.165318766,0.704641865,-0.141514328,0.675344096
161,407933,1252970,0.988,0.04,-0.034,0,-0.3,0,-34.7,6.2,27.3,0.165318766,0.704641865,-0.141514328,0.675344096
162,409427,1252970,0.985,0.04,-0.034,0.1,-0.3,-0.1,-34.7,6.2,27.3,0.165318766,0.704641865,-0.141514328,0.675313578
163,413930,1252970,0.988,0.04,-0.034,0,-0.2,0,-34.7,6.2,26.6,0.165318766,0.704641865,-0.141514328,0.675313578
164,414408,1252980,0.985,0.044,-0.03,0,0,0,-34.7,6.2,26.6,0.165318766,0.704641865,-0.141514328,0.675313578
165,417554,1252980,0.985,0.04,-0.03,0,0,0,-34.7,6.2,26.6,0.165318766,0.704641865,-0.141514328,0.675313578
166,419874,1252980,0.988,0.04,-0.034,0,0,0,-34.7,6.2,26.6,0.165318766,0.704641865,-0.141514328,0.675313578
167,422087,1252980,0.985,0.036,-0.038,0,0,0,-34.8,6.4,27,0.165318766,0.704641865,-0.141514328,0.675313578
168,424388,1252990,0.985,0.036,-0.038,0,0,0,-34.8,6.4,27,0.165318766,0.704641865,-0.141514328,0.675313578
169,426912,1252990,0.992,0.044,-0.03,0,0,0,-34.8,6.4,27,0.165318766,0.704641865,-0.141514328,0.675313578
170,430275,1252990,0.985,0.04,-0.03,0,0,0,-34.8,6.4,27,0.165318766,0.704641865,-0.141514328,0.675313578
171,432366,1252990,0.985,0.04,-0.034,0,0.1,0,-34.9,6.2,26.7,0.165318766,0.704641865,-0.141514328,0.675313578
172,435408,1253000,0.988,0.04,-0.03,0,0,0,-34.9,6.2,26.7,0.165318766,0.704641865,-0.141514328,0.675313578
173,436897,1253000,0.988,0.04,-0.03,0,0,0,-34.9,6.2,26.7,0.165318766,0.704641865,-0.141514328,0.675313578
174,439840,1253000,0.988,0.04,-0.034,0,-0.1,-0.1,-34.9,6.2,26.7,0.165318766,0.704641865,-0.141514328,0.675313578
175,442136,1253000,0.988,0.036,-0.026,0,-0.3,-0.1,-35.1,5.8,27,0.165318766,0.704672384,-0.141514328,0.675313578
176,444478,1253010,0.985,0.044,-0.038,0.1,-0.3,0,-35.1,5.8,27,0.165318766,0.704672384,-0.141514328,0.675313578
177,447269,1253010,0.985,0.04,-0.034,0.1,-0.2,0,-35.1,5.8,27,0.165318766,0.704672384,-0.141514328,0.675313578
178,450338,1253010,0.985,0.044,-0.03,0.1,-0.1,0,-35.1,5.8,27,0.165318766,0.704672384,-0.141514328,0.675313578
179,452280,1253010,0.985,0.044,-0.03,0.1,0,0,-34.9,5.7,27.2,0.165318766,0.704672384,-0.141514328,0.675313578
180,455303,1253020,0.988,0.04,-0.03,0,0.1,0,-34.9,5.7,27.2,0.165318766,0.704672384,-0.14148381,0.675313578
181,456997,1253020,0.985,0.04,-0.034,0,0.1,0,-34.9,5.7,27.2,0.165318766,0.704672384,-0.14148381,0.675313578
182,459414,1253020,0.985,0.04,-0.034,0,0.1,0,-34.9,5.7,27.2,0.165318766,0.704672384,-0.14148381,0.675313578
183,463740,1253020,0.985,0.04,-0.034,0,0,0,-34.7,5.8,27.8,0.165318766,0.704672384,-0.141514328,0.675313578
184,466001,1253030,0.988,0.036,-0.03,-0.1,0,0,-34.7,5.8,27.8,0.165318766,0.704672384,-0.141514328,0.675313578
185,468136,1253030,0.985,0.04,-0.034,-0.1,0,0,-34.7,5.8,27.8,0.165318766,0.704672384,-0.141514328,0.675313578
186,469757,1253030,0.985,0.04,-0.026,0,-0.1,0,-34.7,5.8,27.8,0.165318766,0.704672384,-0.141514328,0.675313578
187,472295,1253030,0.988,0.044,-0.038,0,0,0,-34.8,5.9,28,0.165318766,0.704641865,-0.141514328,0.675313578
188,474442,1253040,0.988,0.04,-0.034,0,0,0,-34.8,5.9,28,0.165318766,0.704641865,-0.141514328,0.675313578
189,477963,1253040,0.992,0.04,-0.03,0,0,0,-34.8,5.9,28,0.165318766,0.704641865,-0.141514328,0.675313578
190,479724,1253040,0.985,0.04,-0.034,0,0,0,-34.8,5.9,28,0.165318766,0.704641865,-0.141514328,0.675313578
191,483528,1253040,0.985,0.044,-0.034,0.1,0,0,-35.2,6.1,28.7,0.165318766,0.704641865,-0.141514328,0.675313578
192,485172,1253050,0.985,0.04,-0.034,0.1,0.1,-0.1,-35.2,6.1,28.7,0.165318766,0.704641865,-0.141514328,0.675313578
193,487267,1253050,0.985,0.04,-0.038,0,0.2,0,-35.2,6.1,28.7,0.165318766,0.704641865,-0.141514328,0.675313578
194,490686,1253050,0.981,0.04,-0.034,0,0.3,0,-35.2,6.1,28.7,0.165318766,0.704641865,-0.141514328,0.675344096
195,492852,1253050,0.985,0.044,-0.034,0,0.2,0.1,-35,5.8,25.2,0.165318766,0.704641865,-0.141514328,0.675344096
196,495120,1253060,0.985,0.04,-0.03,0,0,0,-35,5.8,25.2,0.165318766,0.704641865,-0.141514328,0.675344096
197,497329,1253060,0.985,0.04,-0.034,0,0,-0.1,-35,5.8,25.2,0.165318766,0.704641865,-0.141514328,0.675344096
198,499588,1253060,0.981,0.04,-0.034,0,0,-0.1,-35,5.8,25.2,0.165318766,0.704641865,-0.141514328,0.675344096
199,501960,1253060,0.985,0.044,-0.034,0,0,-0.1,-34.6,5.9,27.3,0.165318766,0.704641865,-0.141514328,0.675344096
200,505621,1253070,0.985,0.044,-0.03,0,0,0,-34.6,5.9,27.3,0.165318766,0.704641865,-0.141514328,0.675344096
201,507075,1253070,0.992,0.036,-0.038,0,0,0,-34.6,5.9,27.3,0.165318766,0.704641865,-0.141514328,0.675344096
202,510172,1253070,0.985,0.044,-0.022,0,0,0.1,-34.6,5.9,27.3,0.165318766,0.704641865,-0.141514328,0.675344096
203,513217,1253070,0.988,0.04,-0.034,0,0,0,-34.6,5.5,27.1,0.165318766,0.704641865,-0.141514328,0.675344096
204,514753,1253080,0.985,0.04,-0.034,0,0,0,-34.6,5.5,27.1,0.165318766,0.704641865,-0.141514328,0.675344096
205,517952,1253080,0.981,0.044,-0.03,0,0,0,-34.6,5.5,27.1,0.165318766,0.704641865,-0.141514328,0.675344096
206,519536,1253080,0.988,0.036,-0.026,0,0,0,-34.6,5.5,27.1,0.165318766,0.704641865,-0.141514328,0.675344096
207,523119,1253080,0.988,0.04,-0.026,-0.1,0.1,-0.1,-34.5,5.9,27.2,0.165318766,0.704611347,-0.141514328,0.675344096
208,525342,1253090,0.985,0.04,-0.03,-0.1,0.1,-0.1,-34.5,5.9,27.2,0.165318766,0.704611347,-0.141514328,0.675344096
209,527263,1253090,0.985,0.04,-0.026,-0.1,0,0,-34.5,5.9,27.2,0.165318766,0.704611347,-0.141514328,0.675344096
210,529650,1253090,0.988,0.04,-0.03,-0.1,0,0,-34.5,5.9,27.2,0.165318766,0.704611347,-0.141514328,0.675344096
211,532426,1253090,0.985,0.04,-0.034,0,0,0,-34.7,5.5,26.5,0.165318766,0.704611347,-0.141514328,0.675344096
212,534535,1253100,0.985,0.04,-0.03,0,0,0,-34.7,5.5,26.5,0.165318766,0.704611347,-0.141514328,0.675344096
213,537079,1253100,0.985,0.036,-0.034,0,0,0,-34.7,5.5,26.5,0.165318766,0.704611347,-0.141514328,0.675344096
214,540215,1253100,0.985,0.04,-0.03,0,0,0,-34.7,5.5,26.5,0.165318766,0.704611347,-0.141514328,0.675344096
215,542975,1253100,0.985,0.04,-0.034,0,0,0,-34.7,6.1,26.3,0.165318766,0.704611347,-0.141514328,0.675344096
216,544469,1253110,0.985,0.04,-0.034,0,0,0,-34.7,6.1,26.3,0.165318766,0.704611347,-0.141514328,0.675344096
217,546939,1253110,0.985,0.036,-0.03,0,0,0,-34.7,6.1,26.3,0.165318766,0.704611347,-0.141514328,0.675344096
218,550314,1253110,0.988,0.044,-0.038,0,-0.1,-0.1,-34.7,6.1,26.3,0.165318766,0.704611347,-0.141514328,0.675344096
219,552459,1253110,0.988,0.04,-0.034,0.1,-0.1,-0.1,-35.6,6,26.3,0.165318766,0.704641865,-0.141514328,0.675344096
220,554863,1253120,0.985,0.044,-0.034,0.1,0,0,-35.6,6,26.3,0.165318766,0.704641865,-0.141514328,0.675344096
221,557203,1253120,0.988,0.04,-0.034,0.1,0,0,-35.6,6,26.3,0.165318766,0.704641865,-0.141514328,0.675344096
222,559921,1253120,0.985,0.04,-0.03,0,0,0,-35.6,6,26.3,0.165318766,0.704641865,-0.141514328,0.675344096
223,562769,1253120,0.985,0.04,-0.034,0,0,0,-35.2,5.9,26.3,0.165318766,0.704641865,-0.141514328,0.675344096
224,564477,1253130,0.985,0.04,-0.034,0,0.1,0,-35.2,5.9,26.3,0.165318766,0.704641865,-0.141514328,0.675344096
225,567018,1253130,0.988,0.04,-0.03,0,0.2,0.1,-35.2,5.9,26.3,0.165318766,0.704611347,-0.141514328,0.675344096
226,569577,1253130,0.985,0.048,-0.03,0,0.3,0.1,-35.2,5.9,26.3,0.165318766,0.704611347,-0.141514328,0.675344096
227,572860,1253130,0.985,0.036,-0.026,0,0.3,0.2,-35.2,5.7,26.1,0.165349284,0.704611347,-0.141514328,0.675344096
228,575059,1253140,0.985,0.036,-0.026,-0.1,0.1,0.1,-35.2,5.7,26.1,0.165349284,0.704611347,-0.141514328,0.675374615
229,577290,1253140,0.985,0.04,-0.03,-0.1,0.1,0,-35.2,5.7,26.1,0.165349284,0.704611347,-0.141514328,0.675374615
230,579533,1253140,0.985,0.044,-0.03,-0.1,0.1,0,-35.2,5.7,26.1,0.165349284,0.704611347,-0.141514328,0.675374615
231,582198,1253140,0.985,0.04,-0.026,0,0.1,0,-35.7,5.8,25.8,0.165349284,0.704611347,-0.141514328,0.675374615
232,584510,1253150,0.985,0.036,-0.034,0,0.1,0,-35.7,5.8,25.8,0.165349284,0.704611347,-0.141514328,0.675374615
233,588449,1253150,0.985,0.04,-0.026,0,0.1,0,-35.7,5.8,25.8,0.165349284,0.704611347,-0.141514328,0.675374615
234,590832,1253150,0.985,0.04,-0.038,0,0.1,0,-35.7,5.8,25.8,0.165349284,0.704580828,-0.141514328,0.675374615
235,592940,1253150,0.985,0.04,-0.034,0,0,0,-35.1,5.7,27.4,0.165349284,0.704580828,-0.141514328,0.675374615
236,595363,1253160,0.985,0.044,-0.034,0,0,0,-35.1,5.7,27.4,0.165349284,0.704580828,-0.141514328,0.675374615
237,597548,1253160,0.985,0.04,-0.034,0,-0.1,-0.1,-35.1,5.7,27.4,0.165349284,0.704611347,-0.141514328,0.675374615
238,599947,1253160,0.985,0.04,-0.03,0,-0.1,0,-35.1,5.7,27.4,0.165349284,0.704611347,-0.141514328,0.675374615
239,602963,1253160,0.985,0.044,-0.03,0,-0.2,0,-34.4,6.2,26.6,0.165349284,0.704611347,-0.141514328,0.675374615
240,604585,1253170,0.985,0.044,-0.03,0,-0.1,0.1,-34.4,6.2,26.6,0.165349284,0.704611347,-0.141514328,0.675374615
241,607364,1253170,0.988,0.044,-0.03,0,0,0,-34.4,6.2,26.6,0.165349284,0.704611347,-0.141514328,0.675374615
242,609629,1253170,0.985,0.04,-0.034,0,0.1,0,-34.4,6.2,26.6,0.165349284,0.704611347,-0.141514328,0.675374615
243,612615,1253170,0.981,0.04,-0.038,0,0.2,0,-34.5,5.6,26.5,0.165349284,0.704611347,-0.141514328,0.675374615
244,614730,1253180,0.985,0.04,-0.034,0,0.2,0,-34.5,5.6,26.5,0.165349284,0.704580828,-0.141514328,0.675374615
245,616914,1253180,0.985,0.036,-0.03,0,0.1,0,-34.5,5.6,26.5,0.165349284,0.704580828,-0.141514328,0.675374615
246,619991,1253180,0.988,0.04,-0.034,0,0.1,0,-34.5,5.6,26.5,0.165349284,0.704580828,-0.141514328,0.675374615
247,623005,1253180,0.985,0.04,-0.026,0,0.1,0,-34.5,4.6,26.5,0.165349284,0.704611347,-0.141544847,0.675374615
248,624494,1253190,0.985,0.04,-0.026,0,0.1,0,-34.5,4.6,26.5,0.165349284,0.704611347,-0.141544847,0.675374615
249,627394,1253190,0.985,0.04,-0.034,0,0.1,0,-34.5,4.6,26.5,0.165349284,0.704611347,-0.141544847,0.675374615
250,630819,1253190,0.988,0.036,-0.042,0,0,0,-34.5,4.6,26.5,0.165349284,0.704611347,-0.141544847,0.675374615
251,632230,1253190,0.985,0.04,-0.03,0,-0.1,0,-34.6,4.3,26.5,0.165349284,0.704611347,-0.141544847,0.675374615
252,635406,1253200,0.981,0.04,-0.03,0.1,-0.1,0,-34.6,4.3,26.5,0.165349284,0.704611347,-0.141544847,0.675344096
253,636959,1253200,0.985,0.04,-0.034,0.1,-0.1,0,-34.6,4.3,26.5,0.165349284,0.704611347,-0.141544847,0.675344096
254,640143,1253200,0.985,0.04,-0.034,0,0,0,-34.6,4.3,26.5,0.165349284,0.704611347,-0.141544847,0.675344096
255,643193,1253200,0.985,0.04,-0.03,0,0,0,-34.8,7.6,28,0.165349284,0.704611347,-0.141544847,0.675344096
256,644564,1253210,0.985,0.044,-0.038,0,0,-0.1,-34.8,7.6,28,0.165349284,0.704611347,-0.141544847,0.675344096
257,647581,1253210,0.992,0.04,-0.034,0,-0.1,0,-34.8,7.6,28,0.165349284,0.704611347,-0.141544847,0.675344096
258,649542,1253210,0.988,0.04,-0.038,0.1,-0.1,0,-34.8,7.6,28,0.165349284,0.704611347,-0.141544847,0.675344096
259,652780,1253210,0.985,0.036,-0.03,0.1,0,0,-35.4,4.6,25.8,0.165349284,0.704611347,-0.141544847,0.675344096
260,654758,1253220,0.985,0.036,-0.03,0,0,0,-35.4,4.6,25.8,0.165349284,0.704611347,-0.141544847,0.675344096
261,657724,1253220,0.985,0.04,-0.042,0,0.2,0,-35.4,4.6,25.8,0.165349284,0.704611347,-0.141544847,0.675344096
262,659978,1253220,0.988,0.044,-0.038,0,0.2,0,-35.4,4.6,25.8,0.165349284,0.704611347,-0.141514328,0.675344096
263,662839,1253220,0.988,0.04,-0.034,0,0.2,0,-35.3,4.8,26,0.165349284,0.704611347,-0.141514328,0.675374615
264,664551,1253230,0.988,0.04,-0.038,0,0.2,0,-35.3,4.8,26,0.165349284,0.704611347,-0.141514328,0.675374615
265,667152,1253230,0.988,0.036,-0.026,0,0.1,0,-35.3,4.8,26,0.165349284,0.704580828,-0.141514328,0.675374615
266,670661,1253230,0.985,0.036,-0.034,0,0.1,0,-35.3,4.8,26,0.165349284,0.704580828,-0.141514328,0.675374615
267,672934,1253230,0.985,0.04,-0.038,0,0,0,-35,5.3,25.8,0.165318766,0.704611347,-0.141544847,0.675374615
268,674597,1253240,0.981,0.032,-0.034,0,0,0,-35,5.3,25.8,0.165318766,0.704580828,-0.141544847,0.675374615
269,677719,1253240,0.985,0.04,-0.042,0,0,0,-35,5.3,25.8,0.165318766,0.704580828,-0.141544847,0.675374615
270,679632,1253240,0.985,0.044,-0.03,0,0,0,-35,5.3,25.8,0.165318766,0.704580828,-0.141544847,0.675374615
271,682327,1253240,0.981,0.04,-0.03,0.1,0,0,-35.1,5.8,25.8,0.165318766,0.704580828,-0.141544847,0.675374615
272,685492,1253250,0.985,0.048,-0.03,0.1,0.1,0,-35.1,5.8,25.8,0.165318766,0.704580828,-0.141544847,0.675374615
273,687062,1253250,0.988,0.048,-0.034,0.1,0.1,0,-35.1,5.8,25.8,0.165318766,0.704580828,-0.141544847,0.675374615
274,689691,1253250,0.985,0.044,-0.03,0,0.1,0,-35.1,5.8,25.8,0.165318766,0.704580828,-0.141544847,0.675374615
275,692401,1253250,0.988,0.036,-0.034,0,0.1,0,-35,6.9,27.2,0.165318766,0.704580828,-0.141544847,0.675374615
276,695629,1253260,0.985,0.04,-0.03,0,0.1,0,-35,6.9,27.2,0.165318766,0.704580828,-0.141544847,0.675374615
277,697192,1253260,0.985,0.04,-0.034,0.1,0.1,0,-35,6.9,27.2,0.165318766,0.704580828,-0.141544847,0.675374615
278,699839,1253260,0.985,0.036,-0.034,0.1,0.1,0,-35,6.9,27.2,0.165318766,0.704580828,-0.141544847,0.675405133
279,702086,1253260,0.985,0.04,-0.03,0.1,0,0,-34.9,6.5,26.9,0.165318766,0.704580828,-0.141544847,0.675405133
280,706224,1253270,0.981,0.04,-0.03,0.1,0,0.1,-34.9,6.5,26.9,0.165257729,0.704580828,-0.141544847,0.675405133
281,708411,1253270,0.985,0.04,-0.026,0,0,0.1,-34.9,6.5,26.9,0.165257729,0.704580828,-0.141544847,0.675405133
282,710385,1253270,0.985,0.04,-0.038,0,0,0,-34.9,6.5,26.9,0.165257729,0.704580828,-0.141544847,0.675405133
283,712456,1253270,0.988,0.044,-0.03,0,0.1,-0.1,-35.1,6.4,26.7,0.165257729,0.704580828,-0.141544847,0.675405133
284,714628,1253280,0.988,0.04,-0.034,0,0.1,-0.1,-35.1,6.4,26.7,0.165257729,0.704580828,-0.141544847,0.675405133
285,717965,1253280,0.988,0.04,-0.034,0,0,0,-35.1,6.4,26.7,0.165318766,0.704580828,-0.141544847,0.675405133
286,720139,1253280,0.988,0.044,-0.034,0,0,0,-35.1,6.4,26.7,0.165318766,0.704580828,-0.141544847,0.675405133
287,722483,1253280,0.985,0.044,-0.038,0,-0.1,0,-35,6.7,26.8,0.165318766,0.704580828,-0.141514328,0.675374615
288,724684,1253290,0.985,0.044,-0.038,0,-0.1,0,-35,6.7,26.8,0.165318766,0.704580828,-0.141514328,0.675374615
289,728103,1253290,0.988,0.044,-0.034,0,0,0,-35,6.7,26.8,0.165318766,0.704580828,-0.141514328,0.675374615
290,729594,1253290,0.985,0.04,-0.034,0.1,0,0,-35,6.7,26.8,0.165318766,0.704580828,-0.141514328,0.675374615
291,732024,1253290,0.985,0.04,-0.034,0.1,0.1,0.1,-34.9,6.8,26.7,0.165318766,0.704580828,-0.141514328,0.675374615
292,734821,1253300,0.992,0.04,-0.042,0,0.3,0.2,-34.9,6.8,26.7,0.165318766,0.704580828,-0.141514328,0.675405133
293,737938,1253300,0.985,0.04,-0.026,0,0.3,0.2,-34.9,6.8,26.7,0.165318766,0.704580828,-0.141514328,0.675405133
294,739892,1253300,0.985,0.04,-0.034,0,0.2,0.1,-34.9,6.8,26.7,0.165318766,0.704580828,-0.141514328,0.675405133
295,742164,1253300,0.985,0.04,-0.038,0,0.1,0,-34.9,5.1,26.9,0.165318766,0.704580828,-0.141514328,0.675405133
296,744492,1253310,0.985,0.04,-0.03,0,-0.1,0,-34.9,5.1,26.9,0.165318766,0.704580828,-0.141514328,0.675405133
297,748434,1253310,0.985,0.036,-0.03,0,-0.3,0,-34.9,5.1,26.9,0.165318766,0.704580828,-0.141544847,0.675405133
298,750485,1253310,0.985,0.04,-0.03,0,-0.3,0,-34.9,5.1,26.9,0.165318766,0.704580828,-0.141544847,0.675405133
299,752076,1253310,0.988,0.04,-0.038,0.1,-0.2,0,-35.3,6.8,26.9,0.165318766,0.704580828,-0.141544847,0.675405133
300,754900,1253320,0.992,0.036,-0.03,0.1,-0.1,0,-35.3,6.8,26.9,0.165318766,0.704580828,-0.141544847,0.675374615
301,758138,1253320,0.992,0.04,-0.026,0.1,0,0,-35.3,6.8,26.9,0.165257729,0.704580828,-0.141544847,0.675374615
302,760315,1253320,0.985,0.04,-0.026,0,0,0,-35.3,6.8,26.9,0.165257729,0.704580828,-0.141514328,0.675374615
303,762760,1253320,0.985,0.04,-0.026,0,0,0,-35.7,6.7,26.8,0.165257729,0.704580828,-0.141544847,0.675405133
304,764732,1253330,0.985,0.04,-0.034,0,0,0.1,-35.7,6.7,26.8,0.165257729,0.704580828,-0.141544847,0.675405133
305,767097,1253330,0.985,0.04,-0.034,-0.1,0,0,-35.7,6.7,26.8,0.165257729,0.704580828,-0.141544847,0.675405133
306,769580,1253330,0.985,0.044,-0.03,-0.1,0.1,0,-35.7,6.7,26.8,0.165257729,0.704580828,-0.141544847,0.675405133
307,772508,1253330,0.985,0.04,-0.034,0,0.1,0,-36.4,7,26.8,0.165318766,0.704580828,-0.141544847,0.675405133
308,775953,1253340,0.985,0.04,-0.034,0,0.2,0,-36.4,7,26.8,0.165318766,0.704580828,-0.141544847,0.675405133
309,778323,1253340,0.981,0.04,-0.03,0,0.2,0,-36.4,7,26.8,0.165318766,0.70455031,-0.141544847,0.675405133
310,779762,1253340,0.988,0.04,-0.026,0,0.1,0,-36.4,7,26.8,0.165318766,0.70455031,-0.141544847,0.675405133
311,782133,1253340,0.985,0.04,-0.03,0,0,0,-36.7,6.8,27.2,0.165318766,0.70455031,-0.141544847,0.675405133
312,784538,1253350,0.988,0.04,-0.034,0.1,0,0,-36.7,6.8,27.2,0.165318766,0.70455031,-0.141514328,0.675405133
313,787063,1253350,0.985,0.04,-0.034,0.1,0,0,-36.7,6.8,27.2,0.165318766,0.70455031,-0.141514328,0.675405133
314,790448,1253350,0.988,0.04,-0.026,0.1,0,0,-36.7,6.8,27.2,0.165318766,0.70455031,-0.141514328,0.675405133
315,792531,1253350,0.988,0.04,-0.034,0,0,0,-34,4.7,27,0.165318766,0.70455031,-0.141514328,0.675405133
316,794594,1253360,0.981,0.04,-0.034,0,0,0,-34,4.7,27,0.165318766,0.70455031,-0.141514328,0.675405133
317,797788,1253360,0.988,0.04,-0.03,0,0,0,-34,4.7,27,0.165318766,0.70455031,-0.141514328,0.675405133
318,799949,1253360,0.988,0.036,-0.034,0,0,0,-34,4.7,27,0.165318766,0.70455031,-0.141514328,0.675405133
319,802899,1253360,0.988,0.04,-0.034,0,-0.1,0,-36.2,7.3,27,0.165318766,0.70455031,-0.141514328,0.675405133
320,804926,1253370,0.985,0.04,-0.026,-0.1,-0.2,0,-36.2,7.3,27,0.165318766,0.704580828,-0.141514328,0.675405133
321,807454,1253370,0.985,0.04,-0.03,0,-0.2,0,-36.2,7.3,27,0.165318766,0.704580828,-0.141514328,0.675405133
322,809622,1253370,0.985,0.04,-0.03,0,-0.1,0,-36.2,7.3,27,0.165318766,0.704580828,-0.141544847,0.675405133
323,813355,1253370,0.981,0.04,-0.03,-0.1,0,0,-36.4,7.3,26.8,0.165318766,0.704580828,-0.141544847,0.675405133
324,815631,1253380,0.985,0.04,-0.026,0,0,0.1,-36.4,7.3,26.8,0.165318766,0.704580828,-0.141544847,0.675405133
325,818470,1253380,0.985,0.04,-0.03,0,0.1,0.1,-36.4,7.3,26.8,0.165318766,0.704580828,-0.141544847,0.675405133
326,820294,1253380,0.988,0.04,-0.038,0,0,0.2,-36.4,7.3,26.8,0.165318766,0.704580828,-0.141544847,0.675405133
327,822035,1253380,0.988,0.04,-0.03,0.1,0,0,-36.2,7.2,26.8,0.165318766,0.70455031,-0.141544847,0.675435652
328,825441,1253390,0.988,0.04,-0.03,0,0,0,-36.2,7.2,26.8,0.165257729,0.70455031,-0.141544847,0.675435652
329,826951,1253390,0.981,0.04,-0.034,0.1,0,0,-36.2,7.2,26.8,0.165257729,0.70455031,-0.141544847,0.675435652
330,829890,1253390,0.985,0.04,-0.03,0,0,0,-36.2,7.2,26.8,0.165257729,0.70455031,-0.141544847,0.675435652
331,832152,1253390,0.985,0.04,-0.03,0,0,0,-35.8,7.6,26.5,0.165257729,0.70455031,-0.141544847,0.675405133
332,834508,1253400,0.985,0.04,-0.034,-0.1,0,0,-35.8,7.6,26.5,0.165257729,0.70455031,-0.141544847,0.675405133
333,838214,1253400,0.985,0.04,-0.038,-0.1,0,0,-35.8,7.6,26.5,0.165257729,0.70455031,-0.141544847,0.675405133
334,840503,1253400,0.985,0.04,-0.038,0,0,0,-35.8,7.6,26.5,0.165257729,0.70455031,-0.141544847,0.675405133
335,842739,1253400,0.985,0.04,-0.03,0,0,-0.1,-34.5,5.8,27,0.165257729,0.70455031,-0.141544847,0.675405133
336,844965,1253410,0.988,0.044,-0.034,0.1,0,-0.1,-34.5,5.8,27,0.165257729,0.70455031,-0.141544847,0.675405133
337,847163,1253410,0.988,0.04,-0.034,0,0.1,0,-34.5,5.8,27,0.165318766,0.70455031,-0.141544847,0.675435652
338,849429,1253410,0.985,0.044,-0.034,0,0,0,-34.5,5.8,27,0.165318766,0.70455031,-0.141544847,0.675435652
339,852127,1253410,0.988,0.044,-0.03,-0.1,0,0,-35.2,6.2,27.2,0.165318766,0.70455031,-0.141544847,0.675435652
340,855488,1253420,0.985,0.04,-0.034,-0.1,0,0,-35.2,6.2,27.2,0.165318766,0.70455031,-0.141544847,0.675435652
341,856936,1253420,0.985,0.04,-0.03,0,0,0,-35.2,6.2,27.2,0.165318766,0.70455031,-0.141544847,0.675405133
342,860606,1253420,0.988,0.044,-0.03,0,0,0,-35.2,6.2,27.2,0.165318766,0.70455031,-0.141544847,0.675405133
343,863601,1253420,0.985,0.04,-0.034,0,0,0,-34.6,5.9,26.6,0.165318766,0.70455031,-0.141544847,0.675405133
344,865150,1253430,0.985,0.044,-0.034,0,0,0,-34.6,5.9,26.6,0.165318766,0.70455031,-0.141544847,0.675405133
345,868194,1253430,0.985,0.04,-0.03,0,0,0,-34.6,5.9,26.6,0.165318766,0.70455031,-0.141544847,0.675435652
346,869679,1253430,0.985,0.04,-0.03,0,0,-0.1,-34.6,5.9,26.6,0.165318766,0.70455031,-0.141544847,0.675435652
347,871995,1253430,0.981,0.036,-0.034,0,0.1,0,-34.7,5.9,26.8,0.165318766,0.70455031,-0.141544847,0.675435652
348,874616,1253440,0.981,0.036,-0.034,0,0.1,0,-34.7,5.9,26.8,0.165318766,0.70455031,-0.141514328,0.675435652
349,877386,1253440,0.981,0.04,-0.038,0,0.1,0,-34.7,5.9,26.8,0.165318766,0.70455031,-0.141514328,0.675435652
350,879640,1253440,0.988,0.044,-0.034,0,0.1,0,-34.7,5.9,26.8,0.165318766,0.70455031,-0.141514328,0.675435652
351,882636,1253440,0.985,0.04,-0.034,0,0,0,-34.3,6,26.9,0.165318766,0.70455031,-0.141514328,0.675435652
352,884446,1253450,0.985,0.044,-0.034,0,-0.1,0,-34.3,6,26.9,0.165318766,0.70455031,-0.141544847,0.675435652
353,887896,1253450,0.985,0.04,-0.034,0,-0.2,0,-34.3,6,26.9,0.165318766,0.70455031,-0.141544847,0.675435652
354,889452,1253450,0.985,0.04,-0.03,0,-0.2,0,-34.3,6,26.9,0.165318766,0.70455031,-0.141544847,0.675405133
355,892426,1253450,0.985,0.04,-0.034,0,-0.1,0,-35.6,6,26.8,0.165318766,0.70455031,-0.141544847,0.675405133
356,895437,1253460,0.985,0.036,-0.03,0,-0.1,0,-35.6,6,26.8,0.165318766,0.70455031,-0.141544847,0.675405133
357,896895,1253460,0.985,0.04,-0.03,0,0,0,-35.6,6,26.8,0.165318766,0.70455031,-0.141544847,0.675405133
358,899990,1253460,0.981,0.04,-0.038,0,0,-0.1,-35.6,6,26.8,0.165318766,0.70455031,-0.141544847,0.675405133
359,902987,1253460,0.988,0.04,-0.034,0,0.1,0,-34.3,5.7,27.2,0.165318766,0.70455031,-0.141544847,0.675405133
360,904516,1253470,0.985,0.04,-0.034,0,0.1,0.1,-34.3,5.7,27.2,0.165318766,0.70455031,-0.141544847,0.675405133
361,907697,1253470,0.988,0.048,-0.03,0,0,0.1,-34.3,5.7,27.2,0.165318766,0.70455031,-0.141544847,0.675405133
362,910452,1253470,0.985,0.036,-0.026,0,0,0,-34.3,5.7,27.2,0.165318766,0.70455031,-0.141544847,0.675405133
363,913439,1253470,0.985,0.044,-0.03,0.1,0.1,0,-34.6,5.7,27.1,0.165318766,0.70455031,-0.141544847,0.675405133
364,915057,1253480,0.985,0.044,-0.03,0.1,0.2,0,-34.6,5.7,27.1,0.165318766,0.70455031,-0.141544847,0.675435652
365,917956,1253480,0.988,0.04,-0.034,0.1,0.3,0,-34.6,5.7,27.1,0.165318766,0.70455031,-0.141544847,0.675435652
366,919457,1253480,0.985,0.04,-0.03,0,0.2,0.1,-34.6,5.7,27.1,0.165318766,0.70455031,-0.141544847,0.675435652
367,922605,1253480,0.988,0.04,-0.034,0,0.2,0.1,-34.6,5.5,26.9,0.165349284,0.704519791,-0.141514328,0.675435652
368,925476,1253490,0.985,0.036,-0.03,0,0.1,0.1,-34.6,5.5,26.9,0.165349284,0.704519791,-0.141514328,0.675435652
369,927096,1253490,0.985,0.04,-0.038,0,0.1,0.1,-34.6,5.5,26.9,0.165349284,0.704519791,-0.141514328,0.675435652
370,930091,1253490,0.985,0.044,-0.03,0,0.1,0,-34.6,5.5,26.9,0.165349284,0.704519791,-0.141514328,0.67546617
371,932345,1253490,0.985,0.044,-0.03,0,0.1,0,-34.4,5.5,27,0.165349284,0.704519791,-0.141514328,0.67546617
372,934532,1253500,0.988,0.036,-0.034,0,0.1,-0.1,-34.4,5.5,27,0.165349284,0.704519791,-0.141514328,0.67546617
373,937967,1253500,0.985,0.04,-0.034,0,0.1,-0.1,-34.4,5.5,27,0.165349284,0.704519791,-0.141514328,0.67546617
374,939427,1253500,0.985,0.044,-0.034,-0.1,0,-0.1,-34.4,5.5,27,0.165349284,0.704519791,-0.141514328,0.67546617
375,943320,1253500,0.988,0.04,-0.03,-0.1,0,-0.1,-36.2,6,27.3,0.165349284,0.704519791,-0.141514328,0.67546617
376,945670,1253510,0.985,0.036,-0.026,-0.1,-0.1,0,-36.2,6,27.3,0.165349284,0.704519791,-0.141514328,0.67546617
377,948013,1253510,0.981,0.04,-0.034,0,-0.1,0,-36.2,6,27.3,0.165349284,0.704519791,-0.141514328,0.67546617
378,950029,1253510,0.988,0.036,-0.03,0,0,0.1,-36.2,6,27.3,0.165349284,0.704519791,-0.141514328,0.67546617
379,952300,1253510,0.988,0.044,-0.034,0,0.1,0.1,-33.9,5.8,26.6,0.165349284,0.704519791,-0.141544847,0.67546617
380,954691,1253520,0.988,0.04,-0.03,0,0.1,0.1,-33.9,5.8,26.6,0.165349284,0.704519791,-0.141544847,0.67546617
381,957204,1253520,0.988,0.048,-0.034,0,0.1,0.1,-33.9,5.8,26.6,0.165349284,0.704519791,-0.141544847,0.67546617
382,960494,1253520,0.988,0.04,-0.034,0,0,0,-33.9,5.8,26.6,0.165349284,0.704519791,-0.141544847,0.67546617
383,962575,1253520,0.981,0.036,-0.038,0,0,0,-33.6,5.7,26.9,0.165349284,0.704519791,-0.141544847,0.67546617
384,964450,1253530,0.985,0.044,-0.03,0,0,0,-33.6,5.7,26.9,0.165349284,0.704519791,-0.141544847,0.67546617
385,968576,1253530,0.985,0.036,-0.03,0,0,0,-33.6,5.7,26.9,0.165349284,0.704519791,-0.141544847,0.67546617
386,970685,1253530,0.985,0.036,-0.038,0,0,0,-33.6,5.7,26.9,0.165349284,0.704519791,-0.141544847,0.67546617
387,973042,1253530,0.981,0.036,-0.034,0,0,0,-33.7,5.5,26.6,0.165318766,0.704519791,-0.141575365,0.675435652
388,975605,1253540,0.985,0.04,-0.026,0,0,0,-33.7,5.5,26.6,0.165318766,0.704519791,-0.141575365,0.675435652
389,977948,1253540,0.985,0.04,-0.034,0,-0.1,0,-33.7,5.5,26.6,0.165318766,0.704519791,-0.141575365,0.675435652
390,980101,1253540,0.988,0.04,-0.03,0,-0.1,0,-33.7,5.5,26.6,0.165318766,0.704519791,-0.141575365,0.675435652
391,982188,1253540,0.988,0.04,-0.034,0,-0.1,0,-33.6,5.5,27,0.165318766,0.704519791,-0.141575365,0.675435652
392,985759,1253550,0.985,0.04,-0.03,0,0,0.1,-33.6,5.5,27,0.165318766,0.704519791,-0.141575365,0.675435652
393,987398,1253550,0.985,0.036,-0.034,0,0,0,-33.6,5.5,27,0.165318766,0.704519791,-0.141575365,0.675435652
394,989563,1253550,0.985,0.04,-0.03,0,0,0,-33.6,5.5,27,0.165318766,0.704519791,-0.141575365,0.675435652
395,992032,1253550,0.985,0.04,-0.03,0,0,0,-35,5.7,26.8,0.165318766,0.704519791,-0.141575365,0.675435652
396,996474,1253560,0.985,0.04,-0.03,0,0,0,-35,5.7,26.8,0.165318766,0.704519791,-0.141575365,0.675435652
397,996932,1253560,0.985,0.04,-0.03,-0.1,0.1,0,-35,5.7,26.8,0.165318766,0.704519791,-0.141575365,0.675435652
398,999505,1253560,0.988,0.044,-0.03,-0.1,0.1,0,-35,5.7,26.8,0.165318766,0.704519791,-0.141575365,0.675435652
399,1002265,1253560,0.985,0.036,-0.034,-0.1,0,-0.1,-34.8,6,26.5,0.165318766,0.704519791,-0.141575365,0.675435652
400,1004608,1253570,0.985,0.04,-0.03,-0.1,0,-0.1,-34.8,6,26.5,0.165318766,0.704519791,-0.141575365,0.675435652
401,1008402,1253570,0.985,0.04,-0.026,-0.1,0,0,-34.8,6,26.5,0.165318766,0.704519791,-0.141575365,0.675435652
402,1010643,1253570,0.988,0.04,-0.03,0,0,0,-34.8,6,26.5,0.165318766,0.704519791,-0.141575365,0.675435652
403,1012897,1253570,0.988,0.044,-0.03,0,0,0,-35.1,5.8,27,0.165318766,0.704519791,-0.141575365,0.675435652
404,1015133,1253580,0.985,0.044,-0.03,0,0,0.1,-35.1,5.8,27,0.165318766,0.704519791,-0.141575365,0.675435652
405,1017291,1253580,0.988,0.044,-0.026,0,0.1,0,-35.1,5.8,27,0.165318766,0.704519791,-0.141575365,0.675435652
406,1019577,1253580,0.988,0.04,-0.038,0.1,0.1,0,-35.1,5.8,27,0.165318766,0.704519791,-0.141575365,0.675435652
407,1023264,1253580,0.985,0.04,-0.03,0.1,0.1,0,-34.9,5.8,27.2,0.165349284,0.704519791,-0.141544847,0.675435652
408,1025567,1253590,0.985,0.04,-0.026,0.1,0.1,0,-34.9,5.8,27.2,0.165349284,0.704519791,-0.141544847,0.67546617
409,1027093,1253590,0.981,0.04,-0.034,0,0.2,0,-34.9,5.8,27.2,0.165349284,0.704519791,-0.141544847,0.67546617
410,1030248,1253590,0.981,0.04,-0.038,0,0.2,0,-34.9,5.8,27.2,0.165349284,0.704489273,-0.141544847,0.67546617
411,1032039,1253590,0.981,0.04,-0.026,0,0.3,0,-35,6.2,26.9,0.165349284,0.704489273,-0.141544847,0.67546617
412,1035219,1253600,0.985,0.04,-0.03,0,0.2,0,-35,6.2,26.9,0.165349284,0.704489273,-0.141544847,0.67546617
413,1037363,1253600,0.988,0.036,-0.03,0,0.1,0,-35,6.2,26.9,0.165349284,0.704489273,-0.141544847,0.67546617
414,1040463,1253600,0.985,0.04,-0.034,0,0,0,-35,6.2,26.9,0.165349284,0.704489273,-0.141544847,0.67546617
415,1042174,1253600,0.985,0.04,-0.03,0,-0.1,0,-34.9,5.9,26.5,0.165349284,0.704489273,-0.141544847,0.67546617
416,1044460,1253610,0.985,0.036,-0.034,0,-0.2,0,-34.9,5.9,26.5,0.165349284,0.704489273,-0.141544847,0.67546617
417,1046980,1253610,0.988,0.04,-0.034,0,-0.1,0,-34.9,5.9,26.5,0.165349284,0.704489273,-0.141544847,0.67546617
418,1050393,1253610,0.988,0.044,-0.034,0,0,0,-34.9,5.9,26.5,0.165349284,0.704489273,-0.141544847,0.67546617
419,1052678,1253610,0.981,0.044,-0.03,0,0.1,0.1,-35,6.2,28,0.165349284,0.704489273,-0.141544847,0.67546617
420,1054464,1253620,0.988,0.04,-0.03,0,0.1,0,-35,6.2,28,0.165349284,0.704489273,-0.141544847,0.67546617
421,1057469,1253620,0.988,0.036,-0.034,0,0,0,-35,6.2,28,0.165349284,0.704489273,-0.141544847,0.67546617
422,1060446,1253620,0.988,0.04,-0.03,0,0,0,-35,6.2,28,0.165349284,0.704489273,-0.141544847,0.67546617
423,1062600,1253620,0.985,0.036,-0.03,0,0,-0.1,-34.7,6,28.7,0.165349284,0.704489273,-0.141544847,0.67546617
424,1064524,1253630,0.988,0.036,-0.026,0,0,-0.1,-34.7,6,28.7,0.165349284,0.704489273,-0.141544847,0.67546617
425,1067065,1253630,0.985,0.04,-0.03,0,0,0,-34.7,6,28.7,0.165349284,0.704489273,-0.141544847,0.67546617
426,1070424,1253630,0.988,0.044,-0.034,0,0,0,-34.7,6,28.7,0.165349284,0.704489273,-0.141544847,0.67546617
427,1072213,1253630,0.985,0.04,-0.03,0,-0.1,0,-34.8,5.7,29,0.165318766,0.704489273,-0.141575365,0.675496689
428,1074406,1253640,0.985,0.04,-0.03,0,-0.1,0,-34.8,5.7,29,0.165318766,0.704489273,-0.141575365,0.675496689
429,1077920,1253640,0.985,0.04,-0.034,0,0,0,-34.8,5.7,29,0.165318766,0.704489273,-0.141575365,0.675496689
430,1079413,1253640,0.988,0.044,-0.034,0,0,0,-34.8,5.7,29,0.165318766,0.704489273,-0.141575365,0.675496689
431,1083002,1253640,0.992,0.04,-0.03,0,0,0,-34.9,6,29.2,0.165318766,0.704489273,-0.141575365,0.675496689
432,1084579,1253650,0.985,0.044,-0.034,0.1,-0.1,0,-34.9,6,29.2,0.165318766,0.704489273,-0.141575365,0.675496689
433,1087046,1253650,0.988,0.04,-0.038,0.1,-0.2,0,-34.9,6,29.2,0.165318766,0.704489273,-0.141575365,0.67546617
434,1089895,1253650,0.988,0.036,-0.034,0.1,-0.1,0,-34.9,6,29.2,0.165318766,0.704489273,-0.141575365,0.67546617
435,1092342,1253650,0.988,0.04,-0.038,0,0,0,-34.9,5.8,25.1,0.165318766,0.704489273,-0.141575365,0.67546617
436,1095498,1253660,0.985,0.036,-0.038,0,0,-0.1,-34.9,5.8,25.1,0.165318766,0.704489273,-0.141544847,0.67546617
437,1097690,1253660,0.985,0.04,-0.042,0,0,-0.1,-34.9,5.8,25.1,0.165318766,0.704489273,-0.141544847,0.67546617
438,1099902,1253660,0.981,0.036,-0.034,0,0,0,-34.9,5.8,25.1,0.165318766,0.704489273,-0.141544847,0.67546617
439,1102475,1253660,0.985,0.04,-0.026,0,0,0,-35,5.7,27.4,0.165318766,0.704489273,-0.141544847,0.67546617
440,1104401,1253670,0.981,0.04,-0.03,0,0,0,-35,5.7,27.4,0.165318766,0.704489273,-0.141544847,0.67546617
441,1107007,1253670,0.985,0.04,-0.038,0,0,0,-35,5.7,27.4,0.165318766,0.704489273,-0.141544847,0.67546617
442,1110481,1253670,0.988,0.04,-0.034,0,0,0,-35,5.7,27.4,0.165318766,0.704489273,-0.141544847,0.67546617
443,1112574,1253670,0.988,0.04,-0.034,0,0,0,-35.3,5.9,27.2,0.165318766,0.704489273,-0.141544847,0.67546617
444,1115138,1253680,0.985,0.04,-0.03,0,0.1,0,-35.3,5.9,27.2,0.165318766,0.704489273,-0.141544847,0.675496689
445,1117401,1253680,0.985,0.04,-0.026,0,0.1,0,-35.3,5.9,27.2,0.165318766,0.704489273,-0.141544847,0.675496689
446,1119481,1253680,0.985,0.04,-0.03,-0.1,0.1,0,-35.3,5.9,27.2,0.165318766,0.704489273,-0.141544847,0.675496689
447,1123078,1253680,0.985,0.036,-0.03,0,0.1,0,-35,6.1,26.4,0.165318766,0.704458754,-0.141544847,0.675496689
448,1125432,1253690,0.988,0.04,-0.034,0,0.1,0,-35,6.1,26.4,0.165318766,0.704458754,-0.141544847,0.675496689
449,1127012,1253690,0.981,0.04,-0.026,0,0.1,0,-35,6.1,26.4,0.165318766,0.704458754,-0.141544847,0.675527207
450,1129478,1253690,0.985,0.036,-0.026,0,0,0.1,-35,6.1,26.4,0.165318766,0.704458754,-0.141544847,0.675527207
451,1132948,1253690,0.985,0.04,-0.038,0,0,0,-35.2,5.9,25.7,0.165318766,0.704458754,-0.141544847,0.675527207
452,1134579,1253700,0.981,0.04,-0.022,0.1,0.1,0,-35.2,5.9,25.7,0.165318766,0.704458754,-0.141544847,0.675527207
453,1137177,1253700,0.985,0.036,-0.026,0.1,0.1,-0.1,-35.2,5.9,25.7,0.165318766,0.704458754,-0.141544847,0.675527207
454,1140535,1253700,0.985,0.036,-0.034,0.1,0.2,0,-35.2,5.9,25.7,0.165318766,0.704458754,-0.141544847,0.675527207
455,1142330,1253700,0.985,0.036,-0.03,0.1,0.2,0,-34.9,5.9,27,0.165318766,0.704458754,-0.141544847,0.675527207
456,1144597,1253710,0.988,0.044,-0.034,0,0.2,0.1,-34.9,5.9,27,0.165318766,0.704428236,-0.141544847,0.675527207
457,1147316,1253710,0.985,0.04,-0.034,0,0.1,0.1,-34.9,5.9,27,0.165318766,0.704428236,-0.141544847,0.675527207
458,1150618,1253710,0.988,0.04,-0.034,0,0,0.1,-34.9,5.9,27,0.165318766,0.704428236,-0.141544847,0.675527207
459,1152135,1253710,0.988,0.036,-0.038,0,0,0,-34.8,5.7,27,0.165318766,0.704428236,-0.141544847,0.675527207
460,1154447,1253720,0.988,0.04,-0.03,0,0,0,-34.8,5.7,27,0.165318766,0.704428236,-0.141544847,0.675527207
461,1157028,1253720,0.985,0.044,-0.034,0,0,0,-34.8,5.7,27,0.165318766,0.704428236,-0.141544847,0.675527207
462,1160472,1253720,0.985,0.04,-0.034,0,0,0,-34.8,5.7,27,0.165318766,0.704428236,-0.141544847,0.675527207
463,1162577,1253720,0.981,0.04,-0.03,0,0.1,0,-35.1,6,27,0.165318766,0.704428236,-0.141544847,0.675527207
464,1165057,1253730,0.985,0.04,-0.03,0,0.2,0,-35.1,6,27,0.165318766,0.704428236,-0.141544847,0.675527207
465,1168624,1253730,0.985,0.036,-0.03,0,0.1,0,-35.1,6,27,0.165318766,0.704428236,-0.141544847,0.675557726
466,1170352,1253730,0.985,0.04,-0.034,0,0.1,0,-35.1,6,27,0.165318766,0.704428236,-0.141544847,0.675557726
467,1171970,1253730,0.985,0.04,-0.042,0,0,0,-34.9,5.8,26.9,0.165257729,0.704428236,-0.141544847,0.675557726
468,1174698,1253740,0.992,0.04,-0.03,0,0,0,-34.9,5.8,26.9,0.165257729,0.704428236,-0.141544847,0.675557726
469,1177430,1253740,0.985,0.04,-0.03,0,0,0,-34.9,5.8,26.9,0.165257729,0.704428236,-0.141575365,0.675557726
470,1179568,1253740,0.985,0.04,-0.034,0,0,0,-34.9,5.8,26.9,0.165257729,0.704428236,-0.141575365,0.675557726
471,1182633,1253740,0.988,0.04,-0.034,0,0,0,-34.7,6.1,27,0.165257729,0.704428236,-0.141575365,0.675557726
472,1184943,1253750,0.985,0.036,-0.03,0,0,0,-34.7,6.1,27,0.165257729,0.704428236,-0.141575365,0.675557726
473,1187047,1253750,0.988,0.04,-0.034,0,-0.1,-0.1,-34.7,6.1,27,0.165257729,0.704428236,-0.141575365,0.675557726
474,1189446,1253750,0.977,0.044,-0.038,0,-0.1,-0.1,-34.7,6.1,27,0.165257729,0.704428236,-0.141575365,0.675557726
475,1193017,1253750,0.985,0.036,-0.03,0,-0.1,0,-34.9,6.3,28.1,0.165257729,0.704428236,-0.141575365,0.675557726
476,1194746,1253760,0.981,0.044,-0.03,0,0,0,-34.9,6.3,28.1,0.165257729,0.704428236,-0.141575365,0.675557726
477,1197897,1253760,0.985,0.04,-0.03,0,0,0,-34.9,6.3,28.1,0.165257729,0.704428236,-0.141575365,0.675557726
478,1200870,1253760,0.985,0.044,-0.038,0,0,0,-34.9,6.3,28.1,0.165257729,0.704428236,-0.141575365,0.675557726
479,1203048,1253760,0.985,0.04,-0.038,0,0.1,0,-34.8,5.2,25.9,0.165257729,0.704428236,-0.141575365,0.675557726
480,1205309,1253770,0.985,0.044,-0.034,0,0.1,0,-34.8,5.2,25.9,0.165257729,0.704428236,-0.141544847,0.675557726
481,1206857,1253770,0.985,0.04,-0.042,0,0.1,0,-34.8,5.2,25.9,0.165257729,0.704428236,-0.141544847,0.675557726
482,1209641,1253770,0.988,0.04,-0.034,0,0.1,0,-34.8,5.2,25.9,0.165257729,0.704428236,-0.141544847,0.675557726
483,1213460,1253770,0.988,0.044,-0.034,0.1,0,0,-34.8,4,25.5,0.165257729,0.704428236,-0.141544847,0.675557726
484,1215092,1253780,0.985,0.044,-0.026,0.1,0,-0.1,-34.8,4,25.5,0.165257729,0.704428236,-0.141544847,0.675557726
485,1218001,1253780,-0.509,-0.201,0.076,0,0,0,-34.8,4,25.5,0.165257729,0.704428236,-0.141544847,0.675557726
486,1220219,1253780,3.754,-1.463,-5.457,-1.6,5.7,-0.6,-34.8,4,25.5,0.165349284,0.70433668,-0.141544847,0.675649281
487,1223175,1253780,0.113,-1.849,-1.999,-16,169.6,-14.7,-35.5,3.3,25.6,0.166325877,0.701803644,-0.140934477,0.678151799
488,1225507,1253790,-1.503,0.225,-7.012,-16,169.6,-14.7,-35.5,3.3,25.6,0.167332987,0.699270608,-0.140324107,0.680623798
489,1227704,1253790,-1.503,0.225,-7.012,-16,169.6,-14.7,-35.5,3.3,25.6,0.167332987,0.699270608,-0.140324107,0.680623798
490,1229926,1253790,3.634,6.606,-3.246,119.5,297.6,-42.8,-35.5,3.3,25.6,0.167973876,0.691396832,-0.134983367,0.689565722
491,1232211,1253790,3.641,6.846,6.339,213.4,186.6,-45.7,-37,4.8,25,0.165990173,0.689474166,-0.130375072,0.692831202
492,1234488,1253800,6.64,-5.772,7.865,187.8,3.7,-34.6,-37,4.8,25,0.163701285,0.69020661,-0.127018036,0.69328898
493,1236985,1253800,6.64,-5.772,7.865,187.8,3.7,-34.6,-37,4.8,25,0.163701285,0.69020661,-0.127018036,0.69328898
494,1240486,1253800,6.64,-5.772,7.865,187.8,3.7,-34.6,-37,4.8,25,0.163701285,0.69020661,-0.127018036,0.69328898
495,1241987,1253800,6.64,-5.772,7.865,187.8,3.7,-34.6,-37,4.8,25,0.163701285,0.69020661,-0.127018036,0.69328898
496,1245750,1253810,-0.529,-4.355,1.925,-114.3,112.1,22.1,-37,8.1,27.1,0.167638173,0.69307535,-0.134464553,0.688039796
497,1247984,1253810,1.76,0.845,3.625,-78.1,160.6,12.9,-37,8.1,27.1,0.169103061,0.690328684,-0.135227515,0.690298166
498,1250219,1253810,0.454,-0.718,0.015,-55.3,69.6,4.5,-37,8.1,27.1,0.170079653,0.689077425,-0.135868404,0.691183203
499,1252490,1253810,0.454,-0.718,0.015,-55.3,69.6,4.5,-37,8.1,27.1,0.170079653,0.689077425,-0.135868404,0.691183203
500,1254631,1253820,-0.6,0.166,-1.077,12.1,-43.1,-9.9,-36.2,5.9,27.5,0.170201727,0.690176092,-0.136082034,0.690023499
501,1256971,1253820,-0.6,0.166,-1.077,12.1,-43.1,-9.9,-36.2,5.9,27.5,0.170201727,0.690176092,-0.136082034,0.690023499
502,1259578,1253820,-0.6,0.166,-1.077,12.1,-43.1,-9.9,-36.2,5.9,27.5,0.170201727,0.690176092,-0.136082034,0.690023499
503,1263726,1253820,-0.6,0.166,-1.077,12.1,-43.1,-9.9,-36.2,5.9,27.5,0.170201727,0.690176092,-0.136082034,0.690023499
504,1266034,1253830,0.42,-0.087,0.14,33.6,98.9,-6,-37.1,6.3,27.1,0.169408246,0.686056093,-0.131931516,0.69512009
505,1268248,1253830,1.27,-0.392,1.14,6.9,39.5,-1.4,-37.1,6.3,27.1,0.169438765,0.685476241,-0.13165685,0.695699942
506,1269728,1253830,1.27,-0.392,1.14,6.9,39.5,-1.4,-37.1,6.3,27.1,0.169438765,0.685476241,-0.13165685,0.695699942
507,1271930,1253830,2.304,-0.155,0.194,-33.7,-139.2,5.2,-36.1,6.8,27.5,0.169560839,0.688131352,-0.133274331,0.692770165
508,1274712,1253840,2.304,-0.155,0.194,-33.7,-139.2,5.2,-36.1,6.8,27.5,0.169560839,0.688131352,-0.133274331,0.692770165
509,1277998,1253840,2.304,-0.155,0.194,-33.7,-139.2,5.2,-36.1,6.8,27.5,0.169560839,0.688131352,-0.133274331,0.692770165
510,1279471,1253840,0.251,0.288,-1.488,4.8,-26.8,1.7,-36.1,6.8,27.5,0.169042024,0.692983795,-0.135319071,0.687612537
511,1282069,1253840,0.48,-0.255,-0.859,17.5,66.3,0,-36.5,8.1,27.2,0.168980987,0.692068239,-0.134830775,0.688680685
512,1285448,1253850,0.75,-0.292,-0.276,16.8,97.3,0,-36.5,8.1,27.2,0.169011505,0.690664388,-0.134220405,0.69020661
513,1286976,1253850,1.202,-0.13,-0.095,6.4,66.1,1.8,-36.5,8.1,27.2,0.169072542,0.689687796,-0.133884701,0.691213721
514,1289546,1253850,1.514,0.036,0.289,-2.9,5.1,4.2,-36.5,8.1,27.2,0.169072542,0.689565722,-0.133976257,0.691305277
515,1292947,1253850,1.261,-0.055,0.266,-6.2,-49,5.9,-36.2,6.3,27.4,0.16891995,0.690267647,-0.134342479,0.690572832
516,1294450,1253860,0.938,0.018,0.198,-5.2,-70.2,6.6,-36.2,6.3,27.4,0.16870632,0.691305277,-0.134769738,0.689504685
517,1297029,1253860,0.736,0.161,0.184,-2.7,-53.9,6.3,-36.2,6.3,27.4,0.168492691,0.692068239,-0.135105441,0.688711203
518,1300476,1253860,0.751,0.102,0.117,0,-18,5.5,-36.2,6.3,27.4,0.168340098,0.692342906,-0.135258034,0.688467055
519,1302700,1253860,0.876,0.026,0.102,1.6,12.3,4.5,-36.6,6.3,27.3,0.168279061,0.692129276,-0.135258034,0.688680685
520,1304939,1253870,0.993,0.017,0.133,1,22.4,3.9,-36.6,6.3,27.3,0.168279061,0.691793573,-0.135227515,0.689016388
521,1307190,1253870,1.118,0.123,0.321,-1.3,14,3.6,-36.6,6.3,27.3,0.168279061,0.691579943,-0.135258034,0.689260537
522,1310322,1253870,1.141,0.138,0.356,-3,-1.6,3.6,-36.6,6.3,27.3,0.168279061,0.691579943,-0.13534959,0.689230018
523,1313290,1253870,1.153,0.114,0.285,-3.1,-14,3.5,-36.7,6.6,27.5,0.168187506,0.691763054,-0.135502182,0.689016388
524,1314770,1253880,1.133,0.095,0.164,-2.4,-18.1,3.5,-36.7,6.6,27.5,0.168156987,0.692007202,-0.135685293,0.68877224
525,1317124,1253880,1.039,0.103,-0.051,-1.7,-14.7,3.5,-36.7,6.6,27.5,0.16809595,0.692220832,-0.135807367,0.688528092
526,1319480,1253880,0.992,0.103,-0.148,-0.9,-7.4,3.6,-36.7,6.6,27.5,0.168034913,0.692312387,-0.135898923,0.688436537
527,1322796,1253880,0.938,0.099,-0.217,0.8,5.2,3.7,-36.8,6.5,27.3,0.168034913,0.692190313,-0.135868404,0.688558611
528,1324423,1253890,0.922,0.119,-0.189,0.8,5.2,3.7,-36.8,6.5,27.3,0.167973876,0.692098758,-0.135898923,0.688680685
529,1326961,1253890,0.946,0.139,-0.174,1.3,6.8,3.5,-36.8,6.5,27.3,0.167912839,0.692007202,-0.135898923,0.688802759
530,1330409,1253890,0.969,0.139,-0.155,1.3,5.1,3.4,-36.8,6.5,27.3,0.167851802,0.691915647,-0.135898923,0.688894314
531,1331928,1253890,0.992,0.111,-0.152,0.8,0.9,3.2,-36.6,6.6,27.2,0.167821284,0.691885128,-0.135929441,0.688924833
532,1334358,1253900,1.012,0.068,-0.094,-0.3,-3.6,3.1,-36.6,6.6,27.2,0.167760247,0.691946165,-0.136020997,0.688863796
533,1337131,1253900,1.016,0.087,-0.008,-2.1,-7.5,2.9,-36.6,6.6,27.2,0.167729728,0.692037721,-0.136112552,0.688741722
534,1339415,1253900,1.016,0.095,0.042,-3.4,-9.5,2.9,-36.6,6.6,27.2,0.16769921,0.692159795,-0.136234626,0.688619648
535,1341920,1253900,1.02,0.099,0.089,-3.7,-10.1,2.8,-35.6,5.2,27.6,0.167668691,0.692281869,-0.136387219,0.688467055
536,1346172,1253910,1.02,0.111,0.121,-3.3,-9.5,2.7,-35.6,5.2,27.6,0.167668691,0.692373424,-0.136509293,0.688314463
537,1348391,1253910,1.008,0.103,0.141,-2.6,-8.4,2.5,-35.6,5.2,27.6,0.167638173,0.692526017,-0.136600848,0.688192389
538,1350375,1253910,0.993,0.076,0.137,-2.3,-7.2,2.3,-35.6,5.2,27.6,0.167607654,0.692617573,-0.136722922,0.688070315
539,1351990,1253910,0.965,0.045,0.064,-2.6,-6.1,2.3,-36.7,8,27.4,0.167607654,0.69267861,-0.136814478,0.687978759
540,1354522,1253920,0.946,0.053,0.045,-3.3,-5.5,2.2,-36.7,8,27.4,0.167607654,0.692739647,-0.136906034,0.687917722
541,1358013,1253920,0.93,0.053,0.03,-3.9,-5.2,2.2,-36.7,8,27.4,0.167607654,0.692800684,-0.137028108,0.687826167
542,1359516,1253920,0.918,0.017,0.026,-4.1,-5.5,2,-36.7,8,27.4,0.167638173,0.692861721,-0.137150182,0.687734611
543,1363470,1253920,0.918,0.025,0.03,-4.2,-6.1,2,-37.4,7.6,27.5,0.167638173,0.692953276,-0.137272256,0.687643056
544,1365794,1253930,0.938,0.029,0.025,-4.6,-7.3,2,-37.4,7.6,27.5,0.167668691,0.693014313,-0.13739433,0.687520981
545,1367321,1253930,0.946,0.029,0.021,-5.1,-9,2.1,-37.4,7.6,27.5,0.167668691,0.693136387,-0.137516404,0.687368389
546,1369619,1253930,0.95,0.009,0.029,-5.5,-10.8,2.2,-37.4,7.6,27.5,0.16769921,0.693258461,-0.137699515,0.687185278
547,1373081,1253930,0.954,0.009,0.056,-6.5,-12.3,2.1,-38,7.6,27.5,0.167729728,0.693380535,-0.137882626,0.687032685
548,1375396,1253940,0.954,0.009,0.056,-6.5,-12.3,2.1,-38,7.6,27.5,0.167760247,0.693533128,-0.138035218,0.686849574
549,1377591,1253940,0.942,-0.017,0.025,-7,-11.9,2,-38,7.6,27.5,0.167790765,0.69368572,-0.138218329,0.686635945
550,1379899,1253940,0.942,-0.021,0.033,-7.1,-11.1,1.9,-38,7.6,27.5,0.167821284,0.693838313,-0.13840144,0.686452834
551,1381878,1253940,0.93,0.002,0.053,-6.9,-10.4,1.7,-37.8,7.7,27.6,0.167882321,0.693960387,-0.138584552,0.686300241
552,1385356,1253950,0.965,0.017,0.091,-6.4,-10,1.5,-37.8,7.7,27.6,0.167912839,0.694082461,-0.138737144,0.68611713
553,1387169,1253950,0.981,-0.009,0.138,-5.6,-10.3,1.3,-37.8,7.7,27.6,0.167943358,0.694204535,-0.138889737,0.685964537
554,1389578,1253950,0.996,-0.006,0.149,-5,-11.4,1.2,-37.8,7.7,27.6,0.167973876,0.694357128,-0.139011811,0.685781426
555,1393674,1253950,1.008,0.021,0.164,-4.5,-13.1,1,-34.7,5.3,27.7,0.168004395,0.694540239,-0.139133885,0.685567797
556,1395892,1253960,1.012,0.041,0.192,-4.1,-14.6,0.9,-34.7,5.3,27.7,0.168004395,0.69472335,-0.139286477,0.685323649
557,1397398,1253960,1.001,0.045,0.184,-3.3,-15.5,0.8,-34.7,5.3,27.7,0.167973876,0.694936979,-0.139378033,0.685079501
558,1399614,1253960,1.004,0.041,0.172,-2.4,-15.7,0.7,-34.7,5.3,27.7,0.167973876,0.695181127,-0.139500107,0.684835353
559,1402253,1253960,0.989,0.049,0.177,-1.9,-15.4,0.7,-36.7,6.8,27.2,0.167943358,0.695394757,-0.139591662,0.684560686
560,1404411,1253970,0.942,0.029,0.139,-1.6,-15.4,0.7,-36.7,6.8,27.2,0.167912839,0.695608386,-0.139683218,0.684377575
561,1408584,1253970,0.922,0.029,0.046,-1.5,-16.2,0.8,-36.7,6.8,27.2,0.167851802,0.695852535,-0.139774773,0.684133427
562,1410799,1253970,0.95,0.021,0.037,-1.4,-17.5,0.9,-36.7,6.8,27.2,0.167821284,0.696096683,-0.139866329,0.68385876
563,1412638,1253970,0.899,0.014,0.129,-1.4,-18.2,1,-36.5,6.9,27.6,0.167760247,0.696371349,-0.139988403,0.683584094
564,1415370,1253980,0.856,0.01,0.071,-1.2,-17.6,1.2,-36.5,6.9,27.6,0.167729728,0.696615497,-0.140079958,0.683309427
565,1417640,1253980,0.86,0.018,0.028,-0.7,-16.2,1.1,-36.5,6.9,27.6,0.167668691,0.696859645,-0.140171514,0.683065279
566,1420025,1253980,0.856,0.034,0.024,-0.1,-14.9,1.3,-36.5,6.9,27.6,0.167607654,0.697073275,-0.14026307,0.68285165
567,1422266,1253980,0.872,0.026,0.031,0.6,-14.6,1.3,-36.1,6.9,27.1,0.167516099,0.697286905,-0.140324107,0.68263802
568,1424545,1253990,0.891,0.029,0.019,1.2,-15.6,1.1,-36.1,6.9,27.1,0.167455061,0.697531053,-0.140385144,0.682393872
569,1427151,1253990,0.918,0.041,0,1.5,-17.8,0.9,-36.1,6.9,27.1,0.167332987,0.697805719,-0.140415662,0.682119205
570,1431220,1253990,0.95,0.045,-0.009,1.7,-20.3,0.5,-36.1,6.9,27.1,0.167210913,0.698110904,-0.140476699,0.681844539
571,1433122,1253990,1.004,0.052,-0.038,2,-22.5,0.2,-35.2,7,27.3,0.167149876,0.698446608,-0.140537736,0.681478317
572,1434742,1254000,1.031,0.056,-0.075,2.5,-23.9,0,-35.2,7,27.3,0.167027802,0.69881283,-0.140598773,0.681142613
573,1437003,1254000,1.058,0.051,-0.099,2.9,-24.2,-0.3,-35.2,7,27.3,0.166905728,0.699179052,-0.140629292,0.680776391
574,1439616,1254000,1.105,0.063,-0.124,3.3,-23.8,-0.4,-35.2,7,27.3,0.166814173,0.699545274,-0.14065981,0.680410169
575,1443332,1254000,1.109,0.063,-0.171,3.5,-22.8,-0.5,-35.2,7,27.3,0.166692099,0.699911496,-0.140690329,0.680074465
576,1444939,1254010,1.109,0.059,-0.218,3.7,-21.4,-0.3,-35.2,7,27.3,0.166570025,0.7002472,-0.140690329,0.67976928
577,1448761,1254010,1.105,0.062,-0.261,3.7,-19.5,0,-35.2,7,27.3,0.166447951,0.700552385,-0.140720847,0.679464095
578,1450327,1254010,1.077,0.051,-0.299,3.4,-17.4,0.1,-35.2,7,27.3,0.166356395,0.700796533,-0.140720847,0.679219947
579,1451852,1254010,1.066,0.047,-0.322,2.9,-15.1,0.1,-35,5.8,27,0.166234321,0.701040681,-0.140751366,0.679006317
580,1454684,1254020,1.05,0.043,-0.338,2.5,-12.8,0.3,-35,5.8,27,0.166173284,0.701254311,-0.140751366,0.678823206
581,1457763,1254020,1.035,0.043,-0.357,2.1,-10.9,0.2,-35,5.8,27,0.166081729,0.701406903,-0.140751366,0.678640095
582,1459621,1254020,1.031,0.047,-0.364,1.9,-9.4,0.2,-35,5.8,27,0.166020692,0.701559496,-0.140781884,0.678518021
583,1463218,1254020,1.027,0.051,-0.364,1.8,-8.2,0.1,-34.5,6,26.7,0.165990173,0.70168157,-0.140781884,0.678395947
584,1465438,1254030,1.027,0.055,-0.356,1.6,-7.2,0,-34.5,6,26.7,0.165929136,0.701803644,-0.140781884,0.678273873
585,1467146,1254030,1.031,0.059,-0.349,1.6,-6.3,0,-34.5,6,26.7,0.165868099,0.701895199,-0.140781884,0.678182318
586,1470807,1254030,1.031,0.067,-0.321,1.5,-5.3,0,-34.5,6,26.7,0.16583758,0.701986755,-0.140781884,0.678121281
587,1472885,1254030,1.046,0.079,-0.287,1.5,-4.3,0,-34.5,6,26.9,0.165807062,0.702047792,-0.140781884,0.678060244
588,1474649,1254040,1.054,0.083,-0.252,1.5,-3.1,0,-34.5,6,26.9,0.165776543,0.702108829,-0.140751366,0.677999207
589,1478071,1254040,1.05,0.083,-0.22,1.5,-1.8,0,-34.5,6,26.9,0.165746025,0.702139348,-0.140751366,0.677999207
590,1480492,1254040,1.047,0.083,-0.197,1.3,-0.6,0.1,-34.5,6,26.9,0.165715506,0.702169866,-0.140720847,0.677968688
591,1482714,1254040,1.054,0.083,-0.169,1.1,0.4,0.1,-34.6,5.8,26.8,0.165684988,0.702139348,-0.140720847,0.677999207
592,1485027,1254050,1.035,0.083,-0.11,0.8,1.5,0,-34.6,5.8,26.8,0.165684988,0.702139348,-0.140690329,0.678029725
593,1487182,1254050,1.023,0.071,-0.09,0.2,2.6,0,-34.6,5.8,26.8,0.165684988,0.702108829,-0.140690329,0.678060244
594,1489422,1254050,1.012,0.064,-0.066,-0.3,3.6,0,-34.6,5.8,26.8,0.165715506,0.702047792,-0.14065981,0.678121281
595,1493095,1254050,0.988,0.056,-0.026,-0.9,4.6,0,-34.6,5.8,26.8,0.165746025,0.701956236,-0.14065981,0.678182318
596,1494528,1254060,0.969,0.048,-0.01,-1.5,5.4,0,-34.6,5.8,26.8,0.165776543,0.701895199,-0.14065981,0.678273873
597,1497798,1254060,0.957,0.045,0.009,-1.9,5.9,0,-34.6,5.8,26.8,0.16583758,0.701773125,-0.140690329,0.67833491
598,1499466,1254060,0.95,0.041,0.017,-2.3,6.2,0,-34.6,5.8,26.8,0.165898618,0.70168157,-0.140690329,0.678426466
599,1502374,1254060,0.938,0.033,0.025,-2.5,6.1,0,-33.5,5.8,27,0.165929136,0.701590014,-0.140690329,0.678518021
600,1505593,1254070,0.938,0.029,0.033,-2.6,5.8,0,-33.5,5.8,27,0.165990173,0.701498459,-0.140720847,0.678609577
601,1507788,1254070,0.942,0.025,0.037,-2.6,5.1,0.1,-33.5,5.8,27,0.16605121,0.701406903,-0.140751366,0.678670614
602,1509528,1254070,0.954,0.025,0.048,-2.4,4.1,0,-33.5,5.8,27,0.166112247,0.701315348,-0.140781884,0.678731651
603,1513000,1254070,0.965,0.021,0.056,-2.3,3.2,0,-33.6,5.8,26.7,0.166142766,0.701284829,-0.140781884,0.678762169
604,1515024,1254080,0.973,0.017,0.056,-2,2.3,0,-33.6,5.8,26.7,0.166173284,0.701223792,-0.140812403,0.678792688
605,1517398,1254080,0.981,0.021,0.063,-1.7,1.8,0,-33.6,5.8,26.7,0.166234321,0.701193274,-0.140842921,0.678823206
606,1519716,1254080,0.985,0.025,0.063,-1.4,1.3,0,-33.6,5.8,26.7,0.166234321,0.701162755,-0.140842921,0.678853725
607,1522386,1254080,0.989,0.025,0.063,-1,0.9,0,-33.9,6,27,0.166234321,0.7010712,-0.140842921,0.67894528
608,1525470,1254090,0.989,0.025,0.063,-0.7,0.7,0.1,-33.9,6,27,0.166295358,0.701040681,-0.140842921,0.678975799
609,1526947,1254090,0.977,0.033,0.048,-0.3,0.7,0.1,-33.9,6,27,0.166295358,0.701040681,-0.140842921,0.678975799
610,1529579,1254090,0.961,0.033,0.048,-0.1,0.7,0,-33.9,6,27,0.166295358,0.701010163,-0.140842921,0.678975799
611,1532189,1254090,0.954,0.037,0.037,0.1,0.9,0,-34,5.7,27,0.166295358,0.701010163,-0.140842921,0.679006317
612,1535338,1254100,0.95,0.041,0.033,0.5,0.7,-0.1,-34,5.7,27,0.166295358,0.701010163,-0.140842921,0.679006317
613,1537549,1254100,0.942,0.037,0.025,0.8,0.3,-0.1,-34,5.7,27,0.166295358,0.701010163,-0.140842921,0.679006317
614,1540009,1254100,0.946,0.037,0.021,0.9,-0.3,0,-34,5.7,27,0.166234321,0.701010163,-0.140812403,0.679006317
615,1542139,1254100,0.946,0.049,0.021,0.9,-1.1,0,-34,5.7,27,0.166234321,0.701010163,-0.140812403,0.679006317
616,1544557,1254110,0.969,0.048,0.009,0.9,-2,0,-34,5.7,27,0.166234321,0.7010712,-0.140812403,0.678975799
617,1547478,1254110,0.981,0.044,-0.006,0.9,-2.7,0,-34,5.7,27,0.166203803,0.701101718,-0.140812403,0.67894528
618,1549585,1254110,0.988,0.044,-0.014,0.8,-3.3,0,-34,5.7,27,0.166173284,0.701162755,-0.140812403,0.678884243
619,1553189,1254110,0.992,0.04,-0.018,0.7,-3.7,0,-34.2,5.9,27.3,0.166173284,0.701223792,-0.140812403,0.678823206
620,1554625,1254120,1.004,0.048,-0.042,0.6,-4,0,-34.2,5.9,27.3,0.166142766,0.701284829,-0.140812403,0.678762169
621,1557009,1254120,1.008,0.036,-0.046,0.5,-4.1,0,-34.2,5.9,27.3,0.166112247,0.701345866,-0.140812403,0.678701132
622,1559859,1254120,1.008,0.048,-0.05,0.5,-4,0,-34.2,5.9,27.3,0.166112247,0.701406903,-0.140812403,0.678640095
623,1563288,1254120,1.004,0.04,-0.062,0.4,-3.7,0,-33.9,6,27.3,0.166081729,0.70146794,-0.140812403,0.678579058
624,1564333,1254130,1.004,0.044,-0.066,0.5,-3.4,0,-33.9,6,27.3,0.16605121,0.701498459,-0.140842921,0.67854854
625,1567052,1254130,1,0.048,-0.077,0.4,-3.1,0,-33.9,6,27.3,0.16605121,0.701559496,-0.140842921,0.678487503
626,1570049,1254130,0.996,0.044,-0.077,0.4,-2.6,0,-33.9,6,27.3,0.166020692,0.701590014,-0.140842921,0.678456984
627,1572328,1254130,0.988,0.04,-0.093,0.3,-2,0,-34,5.6,27.2,0.165990173,0.701773125,-0.140842921,0.678273873
628,1575010,1254140,0.984,0.036,-0.093,0.1,-1.5,0.1,-34,5.6,27.2,0.165990173,0.701803644,-0.140842921,0.678273873
629,1576892,1254140,0.984,0.036,-0.097,0.1,-1.3,0.1,-34,5.6,27.2,0.165990173,0.701803644,-0.140842921,0.678243355
630,1579721,1254140,0.984,0.036,-0.093,0.1,-1.3,0.2,-34,5.6,27.2,0.165959655,0.701834162,-0.140842921,0.678212836
631,1581999,1254140,0.988,0.032,-0.093,0.2,-1.4,0.1,-33.9,5.8,27.3,0.165959655,0.701864681,-0.140842921,0.678212836
632,1585228,1254150,0.988,0.036,-0.089,0.3,-1.4,0.1,-33.9,5.8,27.3,0.165929136,0.701864681,-0.140842921,0.678182318
633,1587267,1254150,0.992,0.036,-0.085,0.3,-1.3,0,-33.9,5.8,27.3,0.165929136,0.701895199,-0.140842921,0.678151799
634,1590377,1254150,1,0.04,-0.085,0.4,-1.2,0,-33.9,5.8,27.3,0.165929136,0.701925718,-0.140842921,0.678151799
635,1592658,1254150,1.004,0.048,-0.074,0.4,-1.1,0,-33.9,5.8,27.3,0.165898618,0.701925718,-0.140842921,0.678121281
636,1594716,1254160,1.008,0.048,-0.07,0.4,-0.8,-0.1,-33.9,5.8,27.3,0.165898618,0.701956236,-0.140842921,0.678121281
637,1597898,1254160,1.012,0.048,-0.07,0.4,-0.6,0,-33.9,5.8,27.3,0.165898618,0.701956236,-0.140842921,0.678121281
638,1599523,1254160,1.008,0.052,-0.058,0.2,-0.3,0,-33.9,5.8,27.3,0.165898618,0.701956236,-0.140842921,0.678121281
639,1602316,1254160,1.004,0.056,-0.05,0.1,0,0,-35,6,27.1,0.165898618,0.701956236,-0.140842921,0.678121281
640,1604616,1254170,1.004,0.056,-0.042,0,0.4,0,-35,6,27.1,0.165898618,0.701956236,-0.140842921,0.678121281
641,1607686,1254170,0.985,0.048,-0.034,0,1,0,-35,6,27.1,0.165898618,0.701956236,-0.140842921,0.678121281
642,1610783,1254170,0.977,0.048,-0.034,-0.1,1.5,0.1,-35,6,27.1,0.165898618,0.701925718,-0.140842921,0.678151799
643,1612954,1254170,0.969,0.037,-0.033,-0.3,1.6,0.1,-34.9,6.2,27.3,0.165898618,0.701895199,-0.140842921,0.678182318
644,1614402,1254180,0.961,0.041,-0.021,-0.4,1.6,0.1,-34.9,6.2,27.3,0.165929136,0.701864681,-0.140842921,0.678212836
645,1617345,1254180,0.961,0.037,-0.013,-0.5,1.5,0.1,-34.9,6.2,27.3,0.165929136,0.701834162,-0.140842921,0.678212836
646,1620454,1254180,0.965,0.037,-0.018,-0.6,1.4,0.1,-34.9,6.2,27.3,0.165929136,0.701803644,-0.140842921,0.678243355
647,1622731,1254180,0.977,0.033,-0.014,-0.6,1.1,0.1,-34.8,6,27.8,0.165959655,0.701773125,-0.140903958,0.678273873
648,1625672,1254190,0.981,0.025,-0.01,-0.6,0.7,0,-34.8,6,27.8,0.165959655,0.701773125,-0.140903958,0.678273873
649,1627939,1254190,0.985,0.032,-0.01,-0.4,0.2,0,-34.8,6,27.8,0.165959655,0.701773125,-0.140903958,0.678273873
650,1630115,1254190,0.988,0.032,-0.007,-0.3,-0.1,0.1,-34.8,6,27.8,0.165959655,0.701773125,-0.140903958,0.678273873
651,1632388,1254190,0.992,0.04,-0.003,-0.1,-0.4,0,-34.8,6,28.4,0.165959655,0.701773125,-0.140934477,0.678273873
652,1634634,1254200,0.992,0.036,-0.007,-0.1,-0.4,0,-34.8,6,28.4,0.165959655,0.701773125,-0.140934477,0.678273873
653,1636886,1254200,0.992,0.04,-0.003,0,-0.3,0,-34.8,6,28.4,0.165959655,0.701773125,-0.140934477,0.678273873
654,1639681,1254200,0.989,0.04,-0.007,0.1,-0.1,-0.1,-34.8,6,28.4,0.165959655,0.701803644,-0.140934477,0.678243355
655,1641884,1254200,0.985,0.04,-0.002,0.1,0,0,-34.8,6,28.4,0.165959655,0.701803644,-0.140934477,0.678243355
656,1645908,1254210,0.977,0.044,-0.014,0.1,0,0,-34.8,6,28.4,0.165959655,0.701803644,-0.140903958,0.678273873
657,1648162,1254210,0.977,0.044,-0.01,0.2,0.1,0,-34.8,6,28.4,0.165959655,0.701803644,-0.140903958,0.678273873
658,1650523,1254210,0.973,0.044,-0.01,0.2,0.1,-0.1,-34.8,6,28.4,0.165959655,0.701803644,-0.140903958,0.678273873
659,1652608,1254210,0.973,0.04,-0.022,0.1,0.1,-0.1,-34.8,5.7,28,0.165959655,0.701803644,-0.140903958,0.678273873
660,1654896,1254220,0.969,0.04,-0.022,0,0,-0.1,-34.8,5.7,28,0.165959655,0.701803644,-0.140903958,0.678273873
661,1657111,1254220,0.973,0.033,-0.026,0,-0.3,-0.1,-34.8,5.7,28,0.165959655,0.701803644,-0.140903958,0.678273873
662,1660906,1254220,0.977,0.04,-0.034,0,-0.5,-0.1,-34.8,5.7,28,0.165959655,0.701803644,-0.140903958,0.678243355
663,1663122,1254220,0.981,0.04,-0.03,0,-0.7,0,-34.8,6.2,28.5,0.165959655,0.701803644,-0.140903958,0.678243355
664,1664599,1254230,0.985,0.032,-0.038,0,-0.9,0,-34.8,6.2,28.5,0.165959655,0.701834162,-0.140903958,0.678212836
665,1667688,1254230,0.992,0.04,-0.038,0.1,-1,0.1,-34.8,6.2,28.5,0.165959655,0.701834162,-0.140903958,0.678212836
666,1669831,1254230,1,0.04,-0.038,0.1,-1,0.1,-34.8,6.2,28.5,0.165929136,0.701864681,-0.140903958,0.678182318
667,1673016,1254230,1,0.044,-0.046,0.1,-0.9,0.1,-35,6,28.3,0.165898618,0.701925718,-0.140934477,0.678121281
668,1675172,1254240,1,0.044,-0.046,0.1,-0.7,0,-35,6,28.3,0.165898618,0.701956236,-0.140934477,0.678121281
669,1678110,1254240,0.996,0.048,-0.038,0,-0.6,0,-35,6,28.3,0.165898618,0.701956236,-0.140934477,0.678090762
670,1679739,1254240,0.996,0.044,-0.038,0.1,-0.3,0.1,-35,6,28.3,0.165898618,0.701956236,-0.140934477,0.678090762
671,1683355,1254240,0.992,0.044,-0.038,0,0,0.1,-34.8,6,28.1,0.165898618,0.701956236,-0.140934477,0.678090762
672,1684667,1254250,0.988,0.048,-0.038,0,0.1,0,-34.8,6,28.1,0.165898618,0.701956236,-0.140934477,0.678090762
673,1687768,1254250,0.981,0.036,-0.034,0,0.1,-0.1,-34.8,6,28.1,0.165898618,0.701956236,-0.140934477,0.678090762
674,1689430,1254250,0.973,0.036,-0.041,0,0.1,0,-34.8,6,28.1,0.165898618,0.701956236,-0.140934477,0.678121281
675,1691990,1254250,0.969,0.037,-0.037,-0.1,0.1,0,-34.8,6,28.1,0.165898618,0.701956236,-0.140934477,0.678121281
676,1695568,1254260,0.977,0.036,-0.037,0,0,0.1,-34.8,6,28.1,0.165898618,0.701956236,-0.140964995,0.678121281
677,1697732,1254260,0.977,0.04,-0.041,0,0,0.2,-34.8,6,28.1,0.165898618,0.701956236,-0.140964995,0.678121281
678,1699715,1254260,0.985,0.036,-0.034,0.1,-0.3,0,-34.8,6,28.1,0.165898618,0.701956236,-0.140964995,0.678121281
679,1702923,1254260,0.988,0.04,-0.034,0.1,-0.4,0,-35.2,6,26.7,0.165868099,0.701956236,-0.140964995,0.678090762
680,1705187,1254270,1,0.04,-0.038,0.1,-0.5,0,-35.2,6,26.7,0.165868099,0.701956236,-0.140964995,0.678090762
681,1707449,1254270,0.992,0.04,-0.034,0.1,-0.6,0,-35.2,6,26.7,0.165868099,0.701986755,-0.140964995,0.678090762
682,1709721,1254270,0.996,0.04,-0.03,0,-0.5,0,-35.2,6,26.7,0.165868099,0.701986755,-0.140964995,0.678060244
683,1712670,1254270,0.992,0.044,-0.03,0,-0.5,0,-35.4,6,26.3,0.165868099,0.701986755,-0.140964995,0.678060244
684,1714769,1254280,0.996,0.044,-0.03,0,-0.4,0,-35.4,6,26.3,0.165868099,0.701986755,-0.140964995,0.678060244
685,1717971,1254280,0.985,0.044,-0.034,0,-0.3,0,-35.4,6,26.3,0.165868099,0.702017273,-0.140964995,0.678060244
686,1719522,1254280,0.985,0.044,-0.034,0,0,0,-35.4,6,26.3,0.165868099,0.702017273,-0.140964995,0.678060244
687,1722728,1254280,0.981,0.04,-0.03,0,0.2,0,-35.5,6.3,26,0.165868099,0.702047792,-0.140934477,0.677999207
688,1724574,1254290,0.977,0.04,-0.026,-0.1,0.4,0,-35.5,6.3,26,0.165868099,0.702047792,-0.140934477,0.677999207
689,1726971,1254290,0.977,0.04,-0.034,-0.1,0.2,0,-35.5,6.3,26,0.165868099,0.702047792,-0.140964995,0.678029725
690,1729828,1254290,0.977,0.036,-0.026,-0.1,0.1,0,-35.5,6.3,26,0.165898618,0.702047792,-0.140964995,0.678029725
691,1733682,1254290,0.981,0.036,-0.03,-0.1,-0.1,0,-35.2,6,25.7,0.165898618,0.702047792,-0.140964995,0.678029725
692,1735830,1254300,0.981,0.036,-0.03,-0.1,-0.1,0,-35.2,6,25.7,0.165898618,0.702047792,-0.140964995,0.677999207
693,1738135,1254300,0.985,0.036,-0.026,-0.1,-0.1,0,-35.2,6,25.7,0.165898618,0.702047792,-0.140964995,0.677999207
694,1740393,1254300,0.988,0.04,-0.022,0,-0.1,0,-35.2,6,25.7,0.165898618,0.702047792,-0.140964995,0.677999207
695,1742629,1254300,0.992,0.044,-0.022,0.1,-0.1,0,-35.2,6,25.7,0.165898618,0.702047792,-0.140964995,0.677999207
696,1744757,1254310,0.988,0.04,-0.03,0.1,-0.1,0,-35.2,6,25.7,0.165898618,0.702047792,-0.140964995,0.677999207
697,1748709,1254310,0.996,0.04,-0.019,0.1,0,-0.1,-35.2,6,25.7,0.165898618,0.702047792,-0.140964995,0.677999207
698,1750849,1254310,0.988,0.044,-0.03,0,0.2,-0.1,-35.2,6,25.7,0.165898618,0.702047792,-0.140964995,0.677999207
699,1752297,1254310,0.985,0.044,-0.026,0,0.3,0,-34.8,6,27.2,0.165898618,0.702047792,-0.140964995,0.677999207
700,1755383,1254320,0.981,0.044,-0.03,0,0.3,0,-34.8,6,27.2,0.165898618,0.702047792,-0.140964995,0.678029725
701,1756988,1254320,0.977,0.04,-0.026,0,0.2,0,-34.8,6,27.2,0.165898618,0.702047792,-0.140964995,0.678029725
702,1759763,1254320,0.977,0.04,-0.026,0,0.2,0,-34.8,6,27.2,0.165898618,0.702017273,-0.140964995,0.678029725
703,1763752,1254320,0.977,0.044,-0.026,-0.1,0.2,0,-34.7,5.9,27.5,0.165898618,0.702017273,-0.140964995,0.678029725
704,1764576,1254330,0.981,0.032,-0.03,0,0.1,-0.1,-34.7,5.9,27.5,0.165898618,0.702017273,-0.140934477,0.678029725
705,1768220,1254330,0.981,0.036,-0.034,0,0,-0.1,-34.7,5.9,27.5,0.165898618,0.702017273,-0.140934477,0.678029725
706,1769821,1254330,0.985,0.036,-0.034,0,0,0,-34.7,5.9,27.5,0.165898618,0.702017273,-0.140934477,0.678029725
707,1771904,1254330,0.985,0.04,-0.03,0,-0.1,0,-34.8,5.7,27.1,0.165868099,0.70207831,-0.140964995,0.677968688
708,1774953,1254340,0.988,0.036,-0.026,0,-0.2,0,-34.8,5.7,27.1,0.165868099,0.70207831,-0.140964995,0.677968688
709,1777323,1254340,0.988,0.036,-0.034,0,-0.4,0,-34.8,5.7,27.1,0.165868099,0.70207831,-0.140995514,0.677968688
710,1779588,1254340,0.996,0.044,-0.034,0,-0.5,0,-34.8,5.7,27.1,0.165868099,0.70207831,-0.140995514,0.677968688
711,1783203,1254340,0.992,0.04,-0.03,0,-0.6,0.1,-34.9,5.4,27.2,0.16583758,0.702108829,-0.140995514,0.677968688
712,1785472,1254350,0.992,0.04,-0.026,0,-0.5,0,-34.9,5.4,27.2,0.16583758,0.702108829,-0.140995514,0.677938169
713,1787683,1254350,0.988,0.044,-0.034,0,-0.4,0,-34.9,5.4,27.2,0.16583758,0.702108829,-0.140995514,0.677938169
714,1789634,1254350,0.985,0.044,-0.034,0,-0.3,0,-34.9,5.4,27.2,0.16583758,0.702108829,-0.140995514,0.677938169
715,1793071,1254350,0.981,0.04,-0.026,0,0,0,-34.9,5.4,27.2,0.16583758,0.702108829,-0.140995514,0.677938169
716,1794721,1254360,0.985,0.04,-0.03,0,0.1,0,-34.9,5.4,27.2,0.16583758,0.702108829,-0.140995514,0.677938169
717,1797168,1254360,0.981,0.044,-0.03,0,0.1,0,-34.9,5.4,27.2,0.16583758,0.702108829,-0.140995514,0.677938169
718,1799773,1254360,0.981,0.036,-0.026,0,0.1,0,-34.9,5.4,27.2,0.16583758,0.702108829,-0.140995514,0.677938169
719,1801978,1254360,0.981,0.04,-0.034,-0.1,0.1,0,-34.7,4.7,26,0.165868099,0.702108829,-0.140995514,0.677938169
720,1805061,1254370,0.977,0.044,-0.034,-0.1,0.1,0,-34.7,4.7,26,0.165868099,0.702108829,-0.140995514,0.677938169
721,1807050,1254370,0.981,0.04,-0.03,0,0.1,0,-34.7,4.7,26,0.165868099,0.702108829,-0.140995514,0.677938169
722,1809455,1254370,0.988,0.04,-0.034,0,0,0,-34.7,4.7,26,0.165868099,0.702108829,-0.140995514,0.677938169
723,1813576,1254370,0.988,0.04,-0.03,0,0,0,-35.1,4.5,25.8,0.165868099,0.702108829,-0.140995514,0.677938169
724,1814219,1254380,0.992,0.04,-0.03,0,-0.2,-0.1,-35.1,4.5,25.8,0.165868099,0.702108829,-0.140995514,0.677938169
725,1817414,1254380,0.988,0.036,-0.03,0,-0.3,-0.1,-35.1,4.5,25.8,0.165868099,0.702108829,-0.140995514,0.677938169
726,1819615,1254380,0.988,0.044,-0.034,0,-0.2,-0.1,-35.1,4.5,25.8,0.165868099,0.702108829,-0.140995514,0.677938169
727,1822343,1254380,0.988,0.04,-0.03,0.1,-0.1,0,-35.1,4.2,26,0.16583758,0.702169866,-0.140995514,0.677877132
728,1824417,1254390,0.988,0.04,-0.03,0.1,-0.2,0,-35.1,4.2,26,0.16583758,0.702169866,-0.140995514,0.677877132
729,1827956,1254390,0.985,0.04,-0.03,0.1,-0.1,0.1,-35.1,4.2,26,0.16583758,0.702169866,-0.140995514,0.677877132
730,1829828,1254390,0.985,0.04,-0.038,0,0,0.1,-35.1,4.2,26,0.16583758,0.702169866,-0.140995514,0.677877132
731,1831957,1254390,0.988,0.036,-0.03,0,0,0,-34.9,4.3,26.2,0.16583758,0.702169866,-0.140995514,0.677877132
732,1835406,1254400,0.988,0.032,-0.03,0,0,0,-34.9,4.3,26.2,0.16583758,0.702169866,-0.140995514,0.677877132
733,1837553,1254400,0.985,0.04,-0.03,0,0,0,-34.9,4.3,26.2,0.16583758,0.702169866,-0.140995514,0.677877132
734,1839844,1254400,0.985,0.04,-0.03,0,0,0,-34.9,4.3,26.2,0.16583758,0.702169866,-0.140995514,0.677877132
735,1842044,1254400,0.985,0.04,-0.034,0,0,0,-34.9,4.3,26.2,0.16583758,0.702169866,-0.140995514,0.677877132
736,1844785,1254410,0.985,0.04,-0.03,0,0,0,-34.9,4.3,26.2,0.16583758,0.702169866,-0.140995514,0.677877132
737,1847094,1254410,0.977,0.04,-0.03,0,0,-0.1,-34.9,4.3,26.2,0.16583758,0.702169866,-0.140995514,0.677877132
738,1850390,1254410,0.985,0.032,-0.026,0,-0.1,-0.1,-34.9,4.3,26.2,0.16583758,0.702169866,-0.140995514,0.677877132
739,1851989,1254410,0.988,0.036,-0.026,0,0,-0.1,-34.6,5.7,27,0.16583758,0.702169866,-0.140995514,0.677877132
740,1854656,1254420,0.985,0.04,-0.034,0,0,-0.1,-34.6,5.7,27,0.16583758,0.702169866,-0.140995514,0.677877132
741,1857068,1254420,0.988,0.044,-0.022,0,0,0,-34.6,5.7,27,0.16583758,0.702169866,-0.140995514,0.677877132
742,1861231,1254420,0.981,0.044,-0.03,0,0,0,-34.6,5.7,27,0.16583758,0.702169866,-0.140995514,0.677877132
743,1863191,1254420,0.988,0.04,-0.026,0,0,0,-34.6,6.5,27.2,0.16583758,0.702169866,-0.140995514,0.677877132
744,1864942,1254430,0.992,0.04,-0.022,0,0,0,-34.6,6.5,27.2,0.16583758,0.702169866,-0.140995514,0.677877132
745,1867294,1254430,0.992,0.04,-0.03,0,0,0,-34.6,6.5,27.2,0.16583758,0.702169866,-0.140995514,0.677877132
746,1869469,1254430,0.988,0.04,-0.03,0,-0.1,0,-34.6,6.5,27.2,0.16583758,0.702169866,-0.140995514,0.677877132
747,1872399,1254430,0.985,0.04,-0.034,0,-0.1,-0.1,-34.9,6.8,26.7,0.16583758,0.702200385,-0.140995514,0.677846614
748,1874748,1254440,0.981,0.036,-0.03,0,-0.1,0,-34.9,6.8,26.7,0.16583758,0.702200385,-0.140995514,0.677846614
749,1876983,1254440,0.985,0.04,-0.03,0,-0.1,0,-34.9,6.8,26.7,0.16583758,0.702200385,-0.141026032,0.677846614
750,1879738,1254440,0.985,0.04,-0.03,0,-0.1,0,-34.9,6.8,26.7,0.16583758,0.702200385,-0.141026032,0.677846614
751,1881953,1254440,0.985,0.036,-0.03,0,-0.1,0.1,-34.9,6.8,26.7,0.16583758,0.702200385,-0.141026032,0.677846614
752,1884619,1254450,0.985,0.036,-0.03,0,0,0.2,-34.9,6.8,26.7,0.16583758,0.702200385,-0.141026032,0.677846614
753,1887025,1254450,0.985,0.04,-0.034,0,0,0.1,-34.9,6.8,26.7,0.16583758,0.702200385,-0.141026032,0.677846614
754,1890165,1254450,0.981,0.04,-0.026,0,0,0.1,-34.9,6.8,26.7,0.16583758,0.702230903,-0.141026032,0.677846614
755,1891869,1254450,0.981,0.048,-0.03,0,-0.1,0.1,-34.9,6.8,26.7,0.16583758,0.702230903,-0.141026032,0.677816095
756,1894783,1254460,0.985,0.036,-0.03,0.1,-0.1,0.1,-34.9,6.8,26.7,0.165807062,0.702230903,-0.141026032,0.677816095
757,1896893,1254460,0.985,0.036,-0.03,0,0,0,-34.9,6.8,26.7,0.165807062,0.702230903,-0.141026032,0.677816095
758,1899538,1254460,0.988,0.04,-0.038,0,0,0,-34.9,6.8,26.7,0.165807062,0.702230903,-0.141026032,0.677816095
759,1901981,1254460,0.988,0.04,-0.026,0,-0.1,0,-34.9,5.6,26.9,0.165807062,0.702230903,-0.141026032,0.677816095
760,1904472,1254470,0.985,0.044,-0.026,0.1,-0.1,0,-34.9,5.6,26.9,0.165807062,0.702230903,-0.141026032,0.677816095
761,1907800,1254470,0.988,0.04,-0.038,0.1,-0.1,0,-34.9,5.6,26.9,0.165807062,0.702230903,-0.141026032,0.677816095
762,1909453,1254470,0.985,0.04,-0.034,0.1,0,0,-34.9,5.6,26.9,0.165807062,0.702230903,-0.141026032,0.677816095
763,1912470,1254470,0.985,0.04,-0.03,0.1,0,0.1,-34.9,5.6,26.9,0.165807062,0.702230903,-0.141026032,0.677816095
764,1915451,1254480,0.988,0.044,-0.022,0.1,0,0.1,-34.9,5.6,26.9,0.165807062,0.702230903,-0.141026032,0.677816095
765,1917104,1254480,0.985,0.044,-0.034,0,0,0,-34.9,5.6,26.9,0.165807062,0.702230903,-0.141026032,0.677816095
766,1920319,1254480,0.981,0.04,-0.03,0,0,-0.1,-34.9,5.6,26.9,0.165807062,0.702230903,-0.141026032,0.677816095
767,1923017,1254480,0.988,0.04,-0.038,0,-0.1,-0.1,-34.9,5.6,26.9,0.165807062,0.702261422,-0.140995514,0.677785577
768,1924665,1254490,0.985,0.04,-0.038,0,-0.1,0,-34.9,5.6,26.9,0.165807062,0.702261422,-0.140995514,0.677785577
769,1927467,1254490,0.981,0.044,-0.03,0,0,0,-34.9,5.6,26.9,0.165807062,0.702261422,-0.141026032,0.677785577
770,1930423,1254490,0.985,0.036,-0.034,-0.1,0,0.1,-34.9,5.6,26.9,0.165807062,0.702261422,-0.141026032,0.677785577
771,1932123,1254490,0.988,0.036,-0.026,-0.1,0,0.1,-34.9,5.6,26.9,0.165807062,0.702261422,-0.141026032,0.677785577
772,1935920,1254500,0.985,0.04,-0.026,-0.1,-0.2,0,-34.9,5.6,26.9,0.165807062,0.70229194,-0.141026032,0.677755058
773,1937486,1254500,0.981,0.04,-0.03,0,-0.3,0,-34.9,5.6,26.9,0.165807062,0.70229194,-0.141026032,0.677755058
774,1939669,1254500,0.988,0.04,-0.03,0,-0.3,0,-34.9,5.6,26.9,0.165807062,0.70229194,-0.141026032,0.677755058
775,1942254,1254500,0.992,0.04,-0.038,0,-0.3,-0.1,-34.9,5.6,26.9,0.165807062,0.70229194,-0.141026032,0.677755058
776,1945570,1254510,0.988,0.04,-0.026,0,-0.2,0,-34.9,5.6,26.9,0.165807062,0.70229194,-0.141026032,0.677755058
777,1947767,1254510,0.988,0.04,-0.026,0.1,-0.1,0,-34.9,5.6,26.9,0.165807062,0.70229194,-0.141026032,0.677755058
778,1949482,1254510,0.985,0.036,-0.03,0.1,0,0,-34.9,5.6,26.9,0.165807062,0.70229194,-0.141026032,0.677755058
779,1952185,1254510,0.985,0.04,-0.03,0.1,0,0,-34.5,4.4,26.8,0.165807062,0.70229194,-0.141026032,0.677755058
780,1955605,1254520,0.977,0.04,-0.03,0,0,0,-34.5,4.4,26.8,0.165807062,0.70229194,-0.141026032,0.677755058
781,1957225,1254520,0.985,0.04,-0.03,0,0,0.1,-34.5,4.4,26.8,0.165807062,0.70229194,-0.141026032,0.677755058
782,1959562,1254520,0.985,0.04,-0.03,0,0,0,-34.5,4.4,26.8,0.165807062,0.70229194,-0.141026032,0.677755058
783,1963931,1254520,0.985,0.036,-0.03,0,0,0,-34.5,4.4,26.8,0.165807062,0.70229194,-0.141026032,0.677755058
784,1964847,1254530,0.981,0.04,-0.03,0,0,0.1,-34.5,4.4,26.8,0.165807062,0.70229194,-0.141026032,0.677755058
785,1967149,1254530,0.985,0.044,-0.026,0,0,0,-34.5,4.4,26.8,0.165807062,0.70229194,-0.141026032,0.677755058
786,1969882,1254530,0.985,0.04,-0.03,0,-0.1,0,-34.5,4.4,26.8,0.165807062,0.70229194,-0.141026032,0.677755058
787,1973440,1254530,0.988,0.04,-0.034,0,-0.1,-0.1,-34.5,4.4,26.8,0.165807062,0.702352977,-0.141026032,0.677694021
788,1975651,1254540,0.988,0.04,-0.034,0,-0.1,-0.1,-34.5,4.4,26.8,0.165807062,0.702352977,-0.141026032,0.677694021
789,1977988,1254540,0.988,0.04,-0.022,0,-0.1,-0.1,-34.5,4.4,26.8,0.165807062,0.702352977,-0.141026032,0.677694021
790,1980114,1254540,0.992,0.036,-0.03,0,0,0,-34.5,4.4,26.8,0.165807062,0.702352977,-0.141026032,0.677694021
791,1982391,1254540,0.985,0.044,-0.026,0,0,0,-34.5,4.4,26.8,0.165807062,0.702352977,-0.141026032,0.677694021
792,1984561,1254550,0.988,0.04,-0.026,0,0,0,-34.5,4.4,26.8,0.165807062,0.702352977,-0.141026032,0.677694021
793,1988601,1254550,0.988,0.04,-0.034,0,0,-0.1,-34.5,4.4,26.8,0.165807062,0.702352977,-0.141026032,0.677694021
794,1991228,1254550,0.988,0.036,-0.03,0,0,-0.1,-34.5,4.4,26.8,0.165807062,0.702352977,-0.141026032,0.677694021
795,1992197,1254550,0.981,0.04,-0.03,0,0,0,-34.5,4.4,26.8,0.165807062,0.702352977,-0.141026032,0.677694021
796,1994393,1254560,0.981,0.04,-0.038,0,0,0,-34.5,4.4,26.8,0.165807062,0.702352977,-0.141026032,0.677694021
797,1998508,1254560,0.985,0.04,-0.03,0,-0.1,0.1,-34.5,4.4,26.8,0.165807062,0.702352977,-0.141026032,0.677694021
798,2000767,1254560,0.985,0.036,-0.038,0,0,0.2,-34.5,4.4,26.8,0.165807062,0.702352977,-0.141026032,0.677694021
799,2003034,1254560,0.981,0.032,-0.03,0,0,0.2,-34.3,5.5,26.9,0.165776543,0.702352977,-0.141056551,0.677694021
800,2006331,1254570,0.985,0.036,-0.03,0,0,0.2,-34.3,5.5,26.9,0.165776543,0.702352977,-0.141056551,0.677694021
801,2008588,1254570,0.985,0.036,-0.03,0,0,0,-34.3,5.5,26.9,0.165776543,0.702352977,-0.141056551,0.677694021
802,2010859,1254570,0.985,0.036,-0.034,0,0,0,-34.3,5.5,26.9,0.165776543,0.702352977,-0.141056551,0.677694021
803,2012545,1254570,0.992,0.036,-0.03,0,0,0,-34.3,5.5,26.9,0.165776543,0.702352977,-0.141056551,0.677694021
804,2014620,1254580,0.988,0.044,-0.034,0,0,0,-34.3,5.5,26.9,0.165776543,0.702352977,-0.141056551,0.677694021
805,2017273,1254580,0.992,0.048,-0.034,0,-0.1,0,-34.3,5.5,26.9,0.165776543,0.702352977,-0.141056551,0.677694021
806,2020538,1254580,0.992,0.04,-0.022,0,-0.2,0,-34.3,5.5,26.9,0.165776543,0.702352977,-0.141056551,0.677694021
807,2022002,1254580,0.988,0.044,-0.03,0,-0.1,0,-34.7,6,27,0.165776543,0.702414014,-0.141056551,0.677632984
808,2024630,1254590,0.985,0.04,-0.034,0,-0.1,0,-34.7,6,27,0.165776543,0.702414014,-0.141056551,0.677632984
809,2026871,1254590,0.985,0.04,-0.03,0,0,0,-34.7,6,27,0.165776543,0.702414014,-0.141056551,0.677632984
810,2029568,1254590,0.985,0.04,-0.034,0,0,0,-34.7,6,27,0.165776543,0.702414014,-0.141056551,0.677632984
811,2033000,1254590,0.981,0.04,-0.03,0,0,0,-34.2,6,27.4,0.165776543,0.702414014,-0.141056551,0.677632984
812,2035136,1254600,0.981,0.044,-0.03,0,0.1,-0.1,-34.2,6,27.4,0.165807062,0.702414014,-0.141026032,0.677632984
813,2037206,1254600,0.985,0.036,-0.034,0,0.1,-0.1,-34.2,6,27.4,0.165807062,0.702414014,-0.141026032,0.677632984
814,2040181,1254600,0.985,0.036,-0.03,0,0.1,-0.1,-34.2,6,27.4,0.165807062,0.702414014,-0.141026032,0.677632984
815,2041946,1254600,0.988,0.04,-0.03,0,0,0,-34.4,6.1,27.1,0.165807062,0.702414014,-0.141026032,0.677632984
816,2045472,1254610,0.985,0.04,-0.03,0,0,0,-34.4,6.1,27.1,0.165807062,0.702414014,-0.141026032,0.677632984
817,2047102,1254610,0.985,0.04,-0.034,0,-0.1,0,-34.4,6.1,27.1,0.165807062,0.702414014,-0.141026032,0.677632984
818,2049677,1254610,0.988,0.04,-0.03,0,-0.1,0,-34.4,6.1,27.1,0.165807062,0.702414014,-0.141026032,0.677632984
819,2052429,1254610,0.992,0.04,-0.026,0,-0.2,0,-35,5.8,26.9,0.165807062,0.702414014,-0.141026032,0.677632984
820,2054678,1254620,0.988,0.044,-0.03,0,-0.3,0,-35,5.8,26.9,0.165807062,0.702414014,-0.141026032,0.677632984
821,2058579,1254620,0.988,0.04,-0.034,0.1,-0.3,0,-35,5.8,26.9,0.165807062,0.702414014,-0.141026032,0.677632984
822,2060826,1254620,0.988,0.04,-0.03,0.1,-0.2,0,-35,5.8,26.9,0.165776543,0.702414014,-0.141026032,0.677632984
823,2063024,1254620,0.985,0.044,-0.03,0.1,-0.2,0,-34.5,5.5,26.9,0.165776543,0.702444533,-0.141026032,0.677602466
824,2065322,1254630,0.985,0.036,-0.034,0,-0.2,0,-34.5,5.5,26.9,0.165776543,0.702444533,-0.141026032,0.677602466
825,2067602,1254630,0.988,0.04,-0.034,0,-0.1,0,-34.5,5.5,26.9,0.165776543,0.702444533,-0.141026032,0.677602466
826,2069796,1254630,0.985,0.036,-0.034,0,0,0,-34.5,5.5,26.9,0.165776543,0.702444533,-0.141056551,0.677602466
827,2071923,1254630,0.985,0.036,-0.03,0,0,0,-34.4,5.6,27.2,0.165746025,0.70250557,-0.141056551,0.677541429
828,2075089,1254640,0.988,0.044,-0.026,0,0,0,-34.4,5.6,27.2,0.165746025,0.70250557,-0.141056551,0.677541429
829,2078264,1254640,0.988,0.04,-0.026,0,0,-0.1,-34.4,5.6,27.2,0.165746025,0.70250557,-0.141056551,0.677541429
830,2079513,1254640,0.985,0.036,-0.026,0,-0.2,-0.1,-34.4,5.6,27.2,0.165746025,0.70250557,-0.141056551,0.677541429
831,2082811,1254640,0.988,0.036,-0.026,0,-0.2,-0.1,-34.4,5.4,26.7,0.165746025,0.70250557,-0.141056551,0.677541429
832,2085058,1254650,0.988,0.04,-0.026,0,-0.2,-0.1,-34.4,5.4,26.7,0.165746025,0.70250557,-0.141056551,0.677541429
833,2087300,1254650,0.985,0.036,-0.03,0,-0.1,-0.1,-34.4,5.4,26.7,0.165776543,0.70250557,-0.141056551,0.67751091
834,2089425,1254650,0.985,0.04,-0.034,0,-0.1,0,-34.4,5.4,26.7,0.165746025,0.70250557,-0.141056551,0.67751091
835,2093302,1254650,0.988,0.044,-0.03,0.1,-0.1,0,-34.2,5.8,27.3,0.165746025,0.702536088,-0.141056551,0.67751091
836,2095410,1254660,0.985,0.036,-0.034,0.1,-0.1,0,-34.2,5.8,27.3,0.165746025,0.702536088,-0.141056551,0.67751091
837,2096939,1254660,0.981,0.04,-0.026,0,-0.1,0,-34.2,5.8,27.3,0.165746025,0.702536088,-0.141056551,0.67751091
838,2099719,1254660,0.985,0.04,-0.026,0,0,0,-34.2,5.8,27.3,0.165746025,0.702536088,-0.141056551,0.67751091
839,2102979,1254660,0.985,0.04,-0.03,0,0,0,-36.5,6,27.1,0.165746025,0.702536088,-0.141056551,0.67751091
840,2105103,1254670,0.988,0.036,-0.03,0,0.1,0,-36.5,6,27.1,0.165746025,0.702536088,-0.141056551,0.67751091
841,2106910,1254670,0.985,0.04,-0.034,0,0.1,-0.1,-36.5,6,27.1,0.165746025,0.702536088,-0.141056551,0.67751091
842,2110433,1254670,0.985,0.04,-0.03,-0.1,0,0,-36.5,6,27.1,0.165746025,0.702536088,-0.141056551,0.67751091
843,2113638,1254670,0.981,0.036,-0.026,0,0,0.1,-33.9,5.9,26.8,0.165746025,0.702536088,-0.141056551,0.67751091
844,2114470,1254680,0.985,0.036,-0.026,0,-0.1,0,-33.9,5.9,26.8,0.165746025,0.702536088,-0.141056551,0.67751091
845,2117898,1254680,0.985,0.04,-0.03,0.1,-0.1,-0.1,-33.9,5.9,26.8,0.165746025,0.702536088,-0.141056551,0.67751091
846,2120036,1254680,0.985,0.044,-0.034,0,0,0,-33.9,5.9,26.8,0.165746025,0.702536088,-0.141056551,0.67751091
847,2122914,1254680,0.988,0.044,-0.034,0,0,0,-33.7,5.7,26.8,0.165746025,0.702566607,-0.141087069,0.677480392
848,2124778,1254690,0.988,0.044,-0.034,0,0,0,-33.7,5.7,26.8,0.165746025,0.702566607,-0.141087069,0.677480392
849,2127327,1254690,0.988,0.04,-0.034,0,-0.1,0,-33.7,5.7,26.8,0.165746025,0.702566607,-0.141087069,0.677480392
850,2129498,1254690,0.992,0.044,-0.03,0,-0.1,-0.1,-33.7,5.7,26.8,0.165746025,0.702566607,-0.141087069,0.677480392
851,2132951,1254690,0.985,0.04,-0.034,0,-0.1,0,-33.8,5.7,27.2,0.165746025,0.702566607,-0.141087069,0.677480392
852,2134543,1254700,0.985,0.044,-0.03,0,-0.1,0,-33.8,5.7,27.2,0.165746025,0.702566607,-0.141087069,0.677480392
853,2136964,1254700,0.985,0.036,-0.03,0,-0.1,0,-33.8,5.7,27.2,0.165746025,0.702566607,-0.141087069,0.677480392
854,2139645,1254700,0.981,0.036,-0.034,0,0,0,-33.8,5.7,27.2,0.165746025,0.702566607,-0.141087069,0.677480392
855,2142032,1254700,0.988,0.036,-0.034,0,0,0,-33.9,5.6,26.9,0.165746025,0.702566607,-0.141087069,0.677480392
856,2145904,1254710,0.985,0.04,-0.034,0,0,0,-33.9,5.6,26.9,0.165746025,0.702566607,-0.141087069,0.677449873
857,2147479,1254710,0.985,0.04,-0.026,0,0,-0.1,-33.9,5.6,26.9,0.165746025,0.702566607,-0.141087069,0.677449873
858,2149580,1254710,0.988,0.036,-0.034,0,0,0,-33.9,5.6,26.9,0.165746025,0.702566607,-0.141087069,0.677449873
859,2153414,1254710,0.992,0.036,-0.03,0,0,0,-35,6,26.8,0.165746025,0.702566607,-0.141087069,0.677449873
860,2155500,1254720,0.988,0.04,-0.03,0,0,0,-35,6,26.8,0.165746025,0.702566607,-0.141087069,0.677480392
861,2157063,1254720,0.985,0.036,-0.03,0,0.1,0,-35,6,26.8,0.165746025,0.702566607,-0.141087069,0.677480392
862,2159563,1254720,0.988,0.036,-0.034,0,0.1,0,-35,6,26.8,0.165746025,0.702566607,-0.141087069,0.677480392
863,2163254,1254720,0.981,0.036,-0.026,0.1,0.1,0,-35,6,27,0.165746025,0.702566607,-0.141087069,0.677480392
864,2165461,1254730,0.985,0.036,-0.03,0.1,0.1,0,-35,6,27,0.165746025,0.702566607,-0.141087069,0.677480392
865,2167222,1254730,0.988,0.044,-0.03,0.1,0.1,0,-35,6,27,0.165715506,0.702566607,-0.141087069,0.677480392
866,2170014,1254730,0.985,0.036,-0.026,0,0,-0.1,-35,6,27,0.165746025,0.702566607,-0.141087069,0.677480392
867,2173006,1254730,0.985,0.04,-0.03,0,0,0,-34.7,6,26.9,0.165715506,0.702597125,-0.141117588,0.677449873
868,2175195,1254740,0.985,0.036,-0.03,0,0,0,-34.7,6,26.9,0.165715506,0.702566607,-0.141117588,0.677449873
869,2177273,1254740,0.985,0.04,-0.034,0,0.2,0,-34.7,6,26.9,0.165715506,0.702566607,-0.141117588,0.677480392
870,2179485,1254740,0.985,0.044,-0.03,0,0.3,0,-34.7,6,26.9,0.165715506,0.702566607,-0.141117588,0.677480392
871,2182203,1254740,0.985,0.04,-0.034,0,0.2,0,-34.8,5.9,27.1,0.165715506,0.702566607,-0.141117588,0.677480392
872,2185597,1254750,0.985,0.04,-0.026,0,0.1,0,-34.8,5.9,27.1,0.165715506,0.702566607,-0.141117588,0.677480392
873,2187902,1254750,0.985,0.044,-0.034,0,0,0,-34.8,5.9,27.1,0.165715506,0.702566607,-0.141117588,0.677480392
874,2190910,1254750,0.988,0.044,-0.03,0,0,-0.1,-34.8,5.9,27.1,0.165715506,0.702566607,-0.141117588,0.677480392
875,2193020,1254750,0.985,0.044,-0.026,0,0,0,-34.7,6.2,27,0.165715506,0.702566607,-0.141117588,0.677480392
876,2195352,1254760,0.985,0.04,-0.03,0.1,0,0,-34.7,6.2,27,0.165715506,0.702566607,-0.141087069,0.677480392
877,2197394,1254760,0.985,0.04,-0.034,0.1,0,-0.1,-34.7,6.2,27,0.165715506,0.702566607,-0.141087069,0.677480392
878,2199935,1254760,0.985,0.044,-0.03,0.1,0,-0.1,-34.7,6.2,27,0.165715506,0.702566607,-0.141087069,0.677480392
879,2202026,1254760,0.985,0.04,-0.034,0,-0.1,-0.1,-34.9,6,26.9,0.165715506,0.702566607,-0.141087069,0.677480392
880,2204517,1254770,0.985,0.044,-0.026,0,0,-0.1,-34.9,6,26.9,0.165715506,0.702566607,-0.141087069,0.677480392
881,2207142,1254770,0.988,0.04,-0.03,0,0,-0.1,-34.9,6,26.9,0.165715506,0.702566607,-0.141087069,0.677480392
882,2209570,1254770,0.988,0.04,-0.034,0,0,0,-34.9,6,26.9,0.165715506,0.702566607,-0.141087069,0.677480392
883,2212380,1254770,0.985,0.04,-0.03,-0.1,-0.1,0,-35,5.8,27.3,0.165715506,0.702566607,-0.141087069,0.677480392
884,2215207,1254780,0.985,0.044,-0.034,-0.1,-0.1,0,-35,5.8,27.3,0.165715506,0.702566607,-0.141087069,0.677480392
885,2217424,1254780,0.985,0.04,-0.026,-0.1,-0.2,0,-35,5.8,27.3,0.165715506,0.702566607,-0.141087069,0.677480392
886,2219775,1254780,0.985,0.04,-0.034,0,-0.2,0,-35,5.8,27.3,0.165715506,0.702566607,-0.141087069,0.677449873
887,2222027,1254780,0.985,0.036,-0.034,0,0,0,-34.9,5.9,27.9,0.165715506,0.702658162,-0.141087069,0.677388836
888,2224690,1254790,0.985,0.036,-0.026,0,0,0,-34.9,5.9,27.9,0.165715506,0.702658162,-0.141087069,0.677388836
889,2226870,1254790,0.985,0.044,-0.03,0,0,0,-34.9,5.9,27.9,0.165715506,0.702658162,-0.141087069,0.677388836
890,2231006,1254790,0.985,0.04,-0.034,0,0,0.2,-34.9,5.9,27.9,0.165715506,0.702658162,-0.141117588,0.677388836
891,2233293,1254790,0.988,0.044,-0.03,0,0,0.2,-34.8,5.5,28.5,0.165715506,0.702658162,-0.141117588,0.677388836
892,2235543,1254800,0.981,0.04,-0.034,-0.1,0,0.2,-34.8,5.5,28.5,0.165715506,0.702658162,-0.141117588,0.677388836
893,2237802,1254800,0.985,0.04,-0.03,-0.1,0,0.1,-34.8,5.5,28.5,0.165715506,0.702658162,-0.141117588,0.677388836
894,2240035,1254800,0.992,0.04,-0.03,0,0,0,-34.8,5.5,28.5,0.165715506,0.702627644,-0.141117588,0.677388836
895,2242250,1254800,0.988,0.036,-0.034,0,0.1,0,-35,5.7,28.6,0.165715506,0.702627644,-0.141117588,0.677388836
896,2244581,1254810,0.985,0.04,-0.038,0,0.1,0.1,-35,5.7,28.6,0.165715506,0.702627644,-0.141117588,0.677388836
897,2247026,1254810,0.988,0.036,-0.03,0,0,0,-35,5.7,28.6,0.165715506,0.702627644,-0.141117588,0.677388836
898,2249475,1254810,0.985,0.044,-0.03,0,0,0,-35,5.7,28.6,0.165715506,0.702627644,-0.141117588,0.677388836
899,2253506,1254810,0.988,0.04,-0.034,0.1,-0.1,0,-34.9,5.7,25,0.165715506,0.702627644,-0.141117588,0.677388836
900,2255904,1254820,0.988,0.044,-0.03,0.1,-0.1,0,-34.9,5.7,25,0.165715506,0.702658162,-0.141117588,0.677388836
901,2258025,1254820,0.992,0.04,-0.03,0.1,0,0,-34.9,5.7,25,0.165684988,0.702658162,-0.141117588,0.677388836
902,2260349,1254820,0.985,0.036,-0.026,0,0,0,-34.9,5.7,25,0.165684988,0.702658162,-0.141117588,0.677388836
903,2262426,1254820,0.988,0.04,-0.026,0,0,0,-35,5.7,27.1,0.165684988,0.702658162,-0.141117588,0.677388836
904,2264795,1254830,0.981,0.04,-0.034,0,0.1,-0.1,-35,5.7,27.1,0.165684988,0.702658162,-0.141117588,0.677388836
905,2267013,1254830,0.988,0.036,-0.034,0,0,0,-35,5.7,27.1,0.165715506,0.702627644,-0.141117588,0.677388836
906,2269445,1254830,0.985,0.044,-0.03,0,0,0,-35,5.7,27.1,0.165715506,0.702627644,-0.141117588,0.677388836
907,2272950,1254830,0.985,0.044,-0.034,0,0,0,-35.1,6.1,27.3,0.165684988,0.702688681,-0.141117588,0.677358318
908,2275305,1254840,0.985,0.044,-0.034,0,0,0,-35.1,6.1,27.3,0.165684988,0.702688681,-0.141117588,0.677358318
909,2277507,1254840,0.988,0.04,-0.034,0,0,0,-35.1,6.1,27.3,0.165684988,0.702688681,-0.141117588,0.677358318
910,2279677,1254840,0.988,0.044,-0.034,0,0,0,-35.1,6.1,27.3,0.165684988,0.702688681,-0.141117588,0.677358318
911,2281912,1254840,0.988,0.044,-0.03,0,-0.1,-0.1,-35,6,26.6,0.165684988,0.702688681,-0.141117588,0.677327799
912,2284459,1254850,0.988,0.04,-0.034,0,0,-0.2,-35,6,26.6,0.165684988,0.702688681,-0.141117588,0.677327799
913,2287883,1254850,0.985,0.036,-0.034,0,0,-0.1,-35,6,26.6,0.165684988,0.702688681,-0.141117588,0.677327799
914,2289369,1254850,0.988,0.036,-0.03,0,0,-0.1,-35,6,26.6,0.165684988,0.702688681,-0.141117588,0.677327799
915,2291900,1254850,0.985,0.044,-0.03,0,0,0,-34.9,6,25.7,0.165684988,0.702688681,-0.141117588,0.677327799
916,2295433,1254860,0.985,0.04,-0.026,-0.1,0,0,-34.9,6,25.7,0.165684988,0.702688681,-0.141117588,0.677327799
917,2296876,1254860,0.981,0.04,-0.034,-0.1,0,0,-34.9,6,25.7,0.165684988,0.702688681,-0.141117588,0.677358318
918,2299424,1254860,0.985,0.044,-0.038,0,0,0,-34.9,6,25.7,0.165684988,0.702688681,-0.141117588,0.677358318
919,2302982,1254860,0.985,0.04,-0.034,0,0,0,-35,5.7,26.7,0.165684988,0.702688681,-0.141117588,0.677358318
920,2304493,1254870,0.985,0.044,-0.026,0,0,0,-35,5.7,26.7,0.165684988,0.702688681,-0.141117588,0.677327799
921,2306874,1254870,0.981,0.036,-0.026,0,-0.1,0,-35,5.7,26.7,0.165684988,0.702688681,-0.141117588,0.677327799
922,2310386,1254870,0.988,0.036,-0.03,0,-0.1,0,-35,5.7,26.7,0.165684988,0.702688681,-0.141117588,0.677327799
923,2313419,1254870,0.985,0.036,-0.034,0,-0.1,-0.1,-34.9,5.5,26.7,0.165684988,0.702719199,-0.141117588,0.677327799
924,2315060,1254880,0.985,0.04,-0.03,0,-0.2,-0.2,-34.9,5.5,26.7,0.165684988,0.702719199,-0.141117588,0.677327799
925,2317340,1254880,0.985,0.04,-0.026,0,-0.3,-0.1,-34.9,5.5,26.7,0.165684988,0.702719199,-0.141117588,0.677327799
926,2319439,1254880,0.988,0.04,-0.03,0,-0.3,0,-34.9,5.5,26.7,0.165684988,0.702719199,-0.141117588,0.677327799
927,2322769,1254880,0.985,0.04,-0.03,0.1,0,0.2,-34.9,5.8,26.6,0.165654469,0.702749718,-0.141148106,0.677297281
928,2325013,1254890,0.988,0.04,-0.03,0.1,0,0.2,-34.9,5.8,26.6,0.165654469,0.702749718,-0.141148106,0.677297281
929,2327152,1254890,0.985,0.044,-0.03,0,0,0.2,-34.9,5.8,26.6,0.165654469,0.702749718,-0.141148106,0.677297281
930,2329406,1254890,0.988,0.04,-0.034,0,0.2,0.2,-34.9,5.8,26.6,0.165654469,0.702749718,-0.141148106,0.677297281
931,2332748,1254890,0.981,0.04,-0.038,0,0.3,0,-35,5.7,26.9,0.165654469,0.702749718,-0.141148106,0.677297281
932,2334351,1254900,0.981,0.04,-0.038,-0.1,0.2,0,-35,5.7,26.9,0.165654469,0.702749718,-0.141148106,0.677297281
933,2337193,1254900,0.988,0.036,-0.03,-0.1,0.1,0,-35,5.7,26.9,0.165654469,0.702749718,-0.141148106,0.677297281
934,2340538,1254900,0.985,0.036,-0.034,-0.1,0,0,-35,5.7,26.9,0.165654469,0.702749718,-0.141148106,0.677297281
935,2342772,1254900,0.985,0.044,-0.03,-0.1,0,0.1,-34.8,5.8,26.6,0.165654469,0.702749718,-0.141178625,0.677297281
936,2344411,1254910,0.985,0.04,-0.034,0,-0.1,0.2,-34.8,5.8,26.6,0.165654469,0.702749718,-0.141178625,0.677297281
937,2347208,1254910,0.988,0.044,-0.026,0,0,0.1,-34.8,5.8,26.6,0.165654469,0.702749718,-0.141178625,0.677297281
938,2350558,1254910,0.985,0.04,-0.034,0,0,0.1,-34.8,5.8,26.6,0.165654469,0.702749718,-0.141178625,0.677297281
939,2352762,1254910,0.988,0.044,-0.03,0,0,0,-35,6.1,27.7,0.165654469,0.702749718,-0.141178625,0.677297281
940,2354674,1254920,0.985,0.04,-0.03,0,0,0,-35,6.1,27.7,0.165654469,0.702719199,-0.141178625,0.677297281
941,2358074,1254920,0.988,0.04,-0.03,0,0,0,-35,6.1,27.7,0.165654469,0.702749718,-0.141178625,0.677297281
942,2360347,1254920,0.985,0.04,-0.034,0,0,-0.1,-35,6.1,27.7,0.165654469,0.702719199,-0.141178625,0.677297281
943,2362593,1254920,0.988,0.036,-0.03,0,0,-0.1,-35,5.3,26,0.165654469,0.702719199,-0.141178625,0.677297281
944,2364716,1254930,0.985,0.04,-0.034,0,0.1,0,-35,5.3,26,0.165654469,0.702719199,-0.141178625,0.677297281
945,2368695,1254930,0.985,0.04,-0.03,0,0.1,0,-35,5.3,26,0.165654469,0.702719199,-0.141178625,0.677297281
946,2370835,1254930,0.985,0.04,-0.034,0,0,0,-35,5.3,26,0.165654469,0.702719199,-0.141178625,0.677297281
947,2373206,1254930,0.985,0.036,-0.026,0,0,-0.1,-34.8,4.6,26.6,0.165623951,0.702780236,-0.141178625,0.677236244
948,2375250,1254940,0.981,0.04,-0.034,0,0,-0.1,-34.8,4.6,26.6,0.165623951,0.702780236,-0.141178625,0.677236244
949,2377046,1254940,0.985,0.044,-0.034,0,0.1,0,-34.8,4.6,26.6,0.165623951,0.702780236,-0.141178625,0.677236244
950,2379326,1254940,0.985,0.04,-0.03,0.1,0,0,-34.8,4.6,26.6,0.165623951,0.702780236,-0.141178625,0.677236244
951,2383579,1254940,0.988,0.04,-0.03,0.1,0,0,-34.9,4.2,26,0.165623951,0.702780236,-0.141178625,0.677266762
952,2385722,1254950,0.988,0.04,-0.03,0,-0.1,0,-34.9,4.2,26,0.165623951,0.702780236,-0.141178625,0.677236244
953,2387251,1254950,0.988,0.04,-0.038,0,-0.1,0,-34.9,4.2,26,0.165623951,0.702780236,-0.141178625,0.677236244
954,2389574,1254950,0.985,0.036,-0.03,0,-0.1,0,-34.9,4.2,26,0.165623951,0.702780236,-0.141178625,0.677236244
955,2391877,1254950,0.985,0.044,-0.034,0,0,-0.1,-35.1,3.7,26.4,0.165623951,0.702780236,-0.141178625,0.677236244
956,2394420,1254960,0.988,0.04,-0.034,0,0,-0.1,-35.1,3.7,26.4,0.165623951,0.702780236,-0.141178625,0.677236244
957,2397427,1254960,0.981,0.036,-0.03,0,0.1,-0.1,-35.1,3.7,26.4,0.165623951,0.702780236,-0.141178625,0.677236244
958,2399624,1254960,0.985,0.044,-0.026,0,0.2,0,-35.1,3.7,26.4,0.165623951,0.702780236,-0.141178625,0.677266762
959,2403015,1254960,0.985,0.044,-0.038,0,0.2,0,-34.9,7.6,27.8,0.165623951,0.702780236,-0.141178625,0.677266762
960,2404498,1254970,0.985,0.036,-0.03,-0.1,0.2,0,-34.9,7.6,27.8,0.165654469,0.702780236,-0.141178625,0.677266762
961,2407355,1254970,0.981,0.044,-0.034,-0.1,0.2,0,-34.9,7.6,27.8,0.165654469,0.702780236,-0.141178625,0.677266762
962,2409502,1254970,0.988,0.044,-0.03,0,0.1,0,-34.9,7.6,27.8,0.165654469,0.702780236,-0.141178625,0.677266762
963,2412385,1254970,0.985,0.04,-0.03,0,0.1,0,-35,5.3,25.9,0.165654469,0.702780236,-0.141178625,0.677266762
964,2415290,1254980,0.985,0.04,-0.026,0,0.1,0,-35,5.3,25.9,0.165654469,0.702780236,-0.141178625,0.677266762
965,2416875,1254980,0.988,0.044,-0.03,0,0,0,-35,5.3,25.9,0.165654469,0.702780236,-0.141178625,0.677266762
966,2419755,1254980,0.985,0.036,-0.03,0,-0.1,0,-35,5.3,25.9,0.165654469,0.702780236,-0.141178625,0.677266762
967,2423047,1254980,0.985,0.04,-0.034,0,-0.1,0,-34.7,5.6,26.4,0.165623951,0.702810755,-0.141178625,0.677236244
968,2425378,1254990,0.985,0.04,-0.034,0,-0.1,0,-34.7,5.6,26.4,0.165623951,0.702810755,-0.141178625,0.677236244
969,2427730,1254990,0.985,0.04,-0.034,0,0,0,-34.7,5.6,26.4,0.165623951,0.702810755,-0.141178625,0.677236244
970,2429912,1254990,0.985,0.04,-0.03,0,0,0,-34.7,5.6,26.4,0.165623951,0.702810755,-0.141209143,0.677236244
971,2431940,1254990,0.981,0.044,-0.022,0,0.1,-0.1,-34.8,6.2,26,0.165623951,0.702810755,-0.141178625,0.677236244
972,2435294,1255000,0.985,0.04,-0.03,0,0.2,-0.1,-34.8,6.2,26,0.165654469,0.702780236,-0.141178625,0.677236244
973,2436927,1255000,0.985,0.04,-0.026,0,0.2,0,-34.8,6.2,26,0.165654469,0.702780236,-0.141178625,0.677236244
974,2439899,1255000,0.985,0.044,-0.03,0.1,0.2,0,-34.8,6.2,26,0.165654469,0.702780236,-0.141178625,0.677236244
975,2442050,1255000,0.985,0.04,-0.034,0.1,0,-0.1,-34.8,7,26,0.165654469,0.702780236,-0.141178625,0.677266762
976,2445061,1255010,0.985,0.036,-0.026,0,0,-0.1,-34.8,7,26,0.165654469,0.702780236,-0.141178625,0.677266762
977,2447876,1255010,0.985,0.04,-0.03,0,-0.1,0,-34.8,7,26,0.165654469,0.702780236,-0.141178625,0.677236244
978,2450092,1255010,0.985,0.04,-0.026,0,-0.1,0,-34.8,7,26,0.165654469,0.702780236,-0.141178625,0.677236244
979,2452875,1255010,0.985,0.036,-0.034,0,-0.1,0,-34.9,6.1,26.9,0.165654469,0.702780236,-0.141178625,0.677236244
980,2454426,1255020,0.985,0.036,-0.038,0,-0.1,0,-34.9,6.1,26.9,0.165654469,0.702810755,-0.141178625,0.677236244
981,2457070,1255020,0.988,0.04,-0.034,0,-0.1,0,-34.9,6.1,26.9,0.165623951,0.702810755,-0.141178625,0.677236244
982,2460170,1255020,0.988,0.044,-0.034,0,0,0.1,-34.9,6.1,26.9,0.165623951,0.702810755,-0.141178625,0.677236244
983,2463519,1255020,0.985,0.044,-0.026,0,0,0,-35.1,6.3,27.2,0.165623951,0.702810755,-0.141178625,0.677236244
984,2464862,1255030,0.988,0.04,-0.034,0,0.1,0,-35.1,6.3,27.2,0.165623951,0.702780236,-0.141178625,0.677236244
985,2467918,1255030,0.985,0.036,-0.026,0,0.4,0,-35.1,6.3,27.2,0.165654469,0.702780236,-0.141178625,0.677236244
986,2469409,1255030,0.985,0.044,-0.03,0,0.6,0,-35.1,6.3,27.2,0.165654469,0.702780236,-0.141178625,0.677266762
987,2472412,1255030,0.981,0.036,-0.034,-0.1,0.4,0,-34.7,6.8,27,0.165654469,0.702810755,-0.141178625,0.677236244
988,2475406,1255040,0.985,0.04,-0.03,-0.1,0.4,0,-34.7,6.8,27,0.165654469,0.702810755,-0.141178625,0.677236244
989,2476936,1255040,0.988,0.04,-0.026,-0.1,0.2,0,-34.7,6.8,27,0.165654469,0.702780236,-0.141178625,0.677236244
990,2479669,1255040,0.988,0.04,-0.034,0,0.1,0,-34.7,6.8,27,0.165654469,0.702780236,-0.141178625,0.677236244
991,2483313,1255040,0.985,0.044,-0.03,0,0,0,-34.7,6.6,27.1,0.165654469,0.702780236,-0.141178625,0.677236244
992,2484838,1255050,0.988,0.036,-0.03,0,0.1,0,-34.7,6.6,27.1,0.165654469,0.702780236,-0.141178625,0.677236244
993,2488532,1255050,0.985,0.036,-0.038,0,0.1,0,-34.7,6.6,27.1,0.165654469,0.702780236,-0.141178625,0.677236244
994,2490163,1255050,0.985,0.04,-0.03,0,0.2,0,-34.7,6.6,27.1,0.165654469,0.702780236,-0.141178625,0.677266762
995,2493097,1255050,0.988,0.044,-0.03,0,0.1,0,-35,6.5,27,0.165654469,0.702780236,-0.141178625,0.677266762
996,2494599,1255060,0.988,0.044,-0.026,0,0.1,0,-35,6.5,27,0.165654469,0.702780236,-0.141178625,0.677266762
997,2497631,1255060,0.985,0.04,-0.034,0,0.1,0,-35,6.5,27,0.165654469,0.702780236,-0.141178625,0.677266762
998,2499866,1255060,0.981,0.036,-0.026,0.1,0.1,0,-35,6.5,27,0.165654469,0.702780236,-0.141178625,0.677266762
999,2503689,1255060,0.985,0.04,-0.03,0,0,0,-35,4.9,27,0.165654469,0.702780236,-0.141178625,0.677266762
1000,2505820,1255070,0.988,0.036,-0.034,0,0,0.1,-35,4.9,27,0.165654469,0.702780236,-0.141178625,0.677266762
1001,2507531,1255070,0.985,0.036,-0.038,-0.1,0,0.1,-35,4.9,27,0.165654469,0.702780236,-0.141178625,0.677266762
1002,2509571,1255070,0.985,0.04,-0.03,-0.1,0,0,-35,4.9,27,0.165654469,0.702780236,-0.141178625,0.677266762
1003,2512367,1255070,0.981,0.04,-0.03,0,0,0,-35.4,6.8,26.8,0.165654469,0.702780236,-0.141178625,0.677266762
1004,2514432,1255080,0.981,0.04,-0.026,0,-0.1,0,-35.4,6.8,26.8,0.165654469,0.702780236,-0.141178625,0.677266762
1005,2517523,1255080,0.985,0.036,-0.034,0,-0.1,0,-35.4,6.8,26.8,0.165654469,0.702780236,-0.141178625,0.677266762
1006,2519798,1255080,0.985,0.04,-0.03,0,-0.1,0,-35.4,6.8,26.8,0.165654469,0.702780236,-0.141209143,0.677266762
1007,2522019,1255080,0.988,0.044,-0.03,0,0,0,-35.8,6.6,27,0.165623951,0.702810755,-0.141209143,0.677205725
1008,2524792,1255090,0.988,0.036,-0.03,0,0,-0.1,-35.8,6.6,27,0.165623951,0.702810755,-0.141209143,0.677205725
1009,2528717,1255090,0.988,0.044,-0.03,0,0,-0.1,-35.8,6.6,27,0.165623951,0.702810755,-0.141209143,0.677205725
1010,2531155,1255090,0.985,0.04,-0.03,-0.1,0,-0.1,-35.8,6.6,27,0.165654469,0.702810755,-0.141209143,0.677205725
1011,2533184,1255090,0.985,0.036,-0.03,0,0,-0.1,-37.1,6.7,27,0.165654469,0.702810755,-0.141209143,0.677205725
1012,2535565,1255100,0.985,0.044,-0.03,0,0,-0.1,-37.1,6.7,27,0.165654469,0.702810755,-0.141209143,0.677205725
1013,2537885,1255100,0.981,0.04,-0.034,0,-0.1,0,-37.1,6.7,27,0.165654469,0.702810755,-0.141209143,0.677205725
1014,2539977,1255100,0.981,0.04,-0.03,0,-0.2,0,-37.1,6.7,27,0.165654469,0.702810755,-0.141209143,0.677205725
1015,2542173,1255100,0.985,0.044,-0.03,0,-0.2,0.1,-37.2,6.5,27.2,0.165654469,0.702810755,-0.141209143,0.677205725
1016,2545628,1255110,0.985,0.04,-0.026,0,-0.1,0,-37.2,6.5,27.2,0.165654469,0.702810755,-0.141209143,0.677205725
1017,2548002,1255110,0.988,0.04,-0.034,0,0,0,-37.2,6.5,27.2,0.165654469,0.702810755,-0.141209143,0.677205725
1018,2550116,1255110,0.988,0.04,-0.026,0,-0.1,0,-37.2,6.5,27.2,0.165654469,0.702841273,-0.141209143,0.677205725
1019,2552191,1255110,0.985,0.04,-0.034,0,-0.2,0,-33.8,4.8,27,0.165654469,0.702841273,-0.141209143,0.677205725
1020,2556350,1255120,0.985,0.036,-0.034,0,-0.3,-0.1,-33.8,4.8,27,0.165654469,0.702841273,-0.141209143,0.677205725
1021,2556995,1255120,0.985,0.04,-0.022,0,-0.2,-0.1,-33.8,4.8,27,0.165654469,0.702841273,-0.141209143,0.677175207
1022,2559848,1255120,0.988,0.04,-0.03,0,-0.1,-0.1,-33.8,4.8,27,0.165654469,0.702841273,-0.141209143,0.677175207
1023,2563698,1255120,0.988,0.04,-0.03,0,-0.1,0,-36.5,6.9,27.1,0.165654469,0.702841273,-0.141209143,0.677175207
1024,2564582,1255130,0.985,0.04,-0.038,0,0,0,-36.5,6.9,27.1,0.165654469,0.702841273,-0.141209143,0.677175207
1025,2567198,1255130,0.985,0.044,-0.034,0,0,0,-36.5,6.9,27.1,0.165654469,0.702841273,-0.141209143,0.677175207
1026,2570595,1255130,0.985,0.036,-0.03,0,0.2,0,-36.5,6.9,27.1,0.165654469,0.702841273,-0.141209143,0.677175207
1027,2572154,1255130,0.981,0.04,-0.034,0,0.2,0,-36,6.9,27,0.165623951,0.70290231,-0.141239662,0.677144688
1028,2574502,1255140,0.981,0.04,-0.034,0,0.1,0,-36,6.9,27,0.165623951,0.70290231,-0.141239662,0.677144688
1029,2578549,1255140,0.985,0.04,-0.034,0,0,0,-36,6.9,27,0.165623951,0.70290231,-0.141239662,0.677144688
1030,2580858,1255140,0.988,0.04,-0.034,0,-0.3,0,-36,6.9,27,0.165623951,0.70290231,-0.141239662,0.67711417
1031,2582546,1255140,0.985,0.044,-0.03,0.1,-0.4,0,-35.3,7.4,27,0.165623951,0.70290231,-0.141239662,0.67711417
1032,2584721,1255150,0.985,0.04,-0.034,0.1,-0.5,0,-35.3,7.4,27,0.165623951,0.70290231,-0.141239662,0.67711417
1033,2587843,1255150,0.985,0.04,-0.03,0.1,-0.4,0,-35.3,7.4,27,0.165623951,0.702932829,-0.141239662,0.67711417
1034,2590072,1255150,0.988,0.036,-0.03,0,-0.3,0,-35.3,7.4,27,0.165623951,0.702932829,-0.141239662,0.67711417
1035,2592341,1255150,0.988,0.04,-0.03,0,-0.1,-0.1,-34.9,7.1,27,0.165623951,0.702932829,-0.141239662,0.67711417
1036,2594733,1255160,0.988,0.044,-0.026,0,-0.1,-0.1,-34.9,7.1,27,0.165623951,0.702932829,-0.141239662,0.677083651
1037,2597108,1255160,0.985,0.036,-0.034,0,0,-0.1,-34.9,7.1,27,0.165623951,0.702932829,-0.141239662,0.677083651
1038,2600722,1255160,0.981,0.04,-0.03,0,0.1,0,-34.9,7.1,27,0.165623951,0.702932829,-0.141239662,0.677083651
1039,2602899,1255160,0.985,0.04,-0.026,0,0.3,0,-34.7,6,26.6,0.165623951,0.702932829,-0.141239662,0.67711417
1040,2605014,1255170,0.985,0.036,-0.034,0,0.4,0,-34.7,6,26.6,0.165623951,0.702932829,-0.141239662,0.67711417
1041,2606883,1255170,0.981,0.044,-0.034,0,0.4,0,-34.7,6,26.6,0.165623951,0.70290231,-0.141239662,0.67711417
1042,2609592,1255170,0.981,0.04,-0.026,0,0.2,0,-34.7,6,26.6,0.165623951,0.70290231,-0.141239662,0.67711417
1043,2613467,1255170,0.985,0.04,-0.03,0,0,0,-35.5,6,26.8,0.165623951,0.70290231,-0.141239662,0.67711417
1044,2614282,1255180,0.988,0.036,-0.026,0,-0.2,0,-35.5,6,26.8,0.165623951,0.70290231,-0.141239662,0.67711417
1045,2617284,1255180,0.985,0.04,-0.034,0,-0.2,0,-35.5,6,26.8,0.165623951,0.70290231,-0.141239662,0.67711417
1046,2619390,1255180,0.985,0.036,-0.03,0,0,0,-35.5,6,26.8,0.165623951,0.70290231,-0.141239662,0.67711417
1047,2621955,1255180,0.988,0.044,-0.034,0,0,0,-35.6,5.5,27,0.165593432,0.702932829,-0.14127018,0.677083651
1048,2624478,1255190,0.988,0.044,-0.034,0,0,0,-35.6,5.5,27,0.165593432,0.702932829,-0.14127018,0.677083651
1049,2627841,1255190,0.988,0.04,-0.034,0,0,0,-35.6,5.5,27,0.165593432,0.702932829,-0.14127018,0.677083651
1050,2629669,1255190,0.988,0.04,-0.038,0,-0.1,-0.1,-35.6,5.5,27,0.165593432,0.702932829,-0.14127018,0.677083651
1051,2633063,1255190,0.992,0.044,-0.03,0,-0.1,-0.1,-35.2,5.8,27,0.165593432,0.702963347,-0.14127018,0.677083651
1052,2634727,1255200,0.988,0.04,-0.034,-0.1,-0.1,0,-35.2,5.8,27,0.165593432,0.702963347,-0.14127018,0.677083651
1053,2638118,1255200,0.985,0.044,-0.034,-0.1,0,0,-35.2,5.8,27,0.165593432,0.702963347,-0.14127018,0.677083651
1054,2640389,1255200,0.985,0.036,-0.03,-0.1,0,0,-35.2,5.8,27,0.165593432,0.702963347,-0.14127018,0.677083651
1055,2642578,1255200,0.985,0.04,-0.03,0,0,0,-35,5.3,26.7,0.165593432,0.702963347,-0.14127018,0.677083651
1056,2644717,1255210,0.985,0.044,-0.034,0,0,0,-35,5.3,26.7,0.165593432,0.702963347,-0.14127018,0.677083651
1057,2647834,1255210,0.985,0.04,-0.03,0,0,0,-35,5.3,26.7,0.165593432,0.702963347,-0.14127018,0.677083651
1058,2649859,1255210,0.985,0.036,-0.034,0,0,0,-35,5.3,26.7,0.165593432,0.702963347,-0.14127018,0.677083651
1059,2652132,1255210,0.985,0.04,-0.026,0,-0.1,0,-35.8,6,26.9,0.165593432,0.702963347,-0.14127018,0.677053133
1060,2655990,1255220,0.988,0.044,-0.026,0,-0.1,-0.1,-35.8,6,26.9,0.165593432,0.702963347,-0.14127018,0.677053133
1061,2658266,1255220,0.988,0.036,-0.026,0,0,0,-35.8,6,26.9,0.165593432,0.702963347,-0.14127018,0.677053133
1062,2660611,1255220,0.988,0.04,-0.03,0,0,0,-35.8,6,26.9,0.165593432,0.702963347,-0.14127018,0.677053133
1063,2662548,1255220,0.985,0.036,-0.03,0,0,0.1,-33.8,6,27.5,0.165593432,0.702963347,-0.14127018,0.677053133
1064,2664649,1255230,0.981,0.04,-0.03,0,0,0.2,-33.8,6,27.5,0.165593432,0.702963347,-0.14127018,0.677053133
1065,2668107,1255230,0.985,0.036,-0.03,0,0,0.1,-33.8,6,27.5,0.165593432,0.702963347,-0.14127018,0.677053133
1066,2670191,1255230,0.988,0.04,-0.034,-0.1,0,0,-33.8,6,27.5,0.165593432,0.702963347,-0.14127018,0.677053133
1067,2673255,1255230,0.992,0.036,-0.03,-0.1,0,0,-33.8,5.9,27.2,0.165562914,0.702993866,-0.141300699,0.677022614
1068,2676134,1255240,0.985,0.04,-0.03,-0.1,0,-0.1,-33.8,5.9,27.2,0.165562914,0.702993866,-0.141300699,0.677022614
1069,2678383,1255240,0.981,0.04,-0.03,0,0,-0.1,-33.8,5.9,27.2,0.165562914,0.702993866,-0.141300699,0.677022614
1070,2680740,1255240,0.985,0.04,-0.03,0,0,0,-33.8,5.9,27.2,0.165562914,0.702993866,-0.141300699,0.677022614
1071,2682730,1255240,0.988,0.036,-0.034,0.1,0,0,-33.9,6.1,27.2,0.165562914,0.702993866,-0.141300699,0.677022614
1072,2684976,1255250,0.988,0.04,-0.03,0.1,-0.1,0,-33.9,6.1,27.2,0.165562914,0.702993866,-0.141300699,0.677022614
1073,2687251,1255250,0.988,0.04,-0.034,0,-0.1,0,-33.9,6.1,27.2,0.165562914,0.702993866,-0.141300699,0.677022614
1074,2689467,1255250,0.985,0.04,-0.026,0,-0.1,0,-33.9,6.1,27.2,0.165562914,0.702993866,-0.141300699,0.677022614
1075,2692151,1255250,0.988,0.04,-0.026,0,0,0.1,-33.9,5.8,27.2,0.165562914,0.702993866,-0.141300699,0.677022614
1076,2696234,1255260,0.981,0.04,-0.034,0,0,0,-33.9,5.8,27.2,0.165562914,0.702993866,-0.141300699,0.677022614
1077,2698286,1255260,0.985,0.04,-0.03,0.1,0.1,0,-33.9,5.8,27.2,0.165562914,0.702993866,-0.141300699,0.677022614
1078,2700350,1255260,0.985,0.036,-0.03,0.1,0,0,-33.9,5.8,27.2,0.165562914,0.702993866,-0.141300699,0.677022614
1079,2702556,1255260,0.985,0.04,-0.03,0,0,0,-35.8,6,26.9,0.165562914,0.702993866,-0.141300699,0.677022614
1080,2705576,1255270,0.988,0.036,-0.03,0,-0.1,0,-35.8,6,26.9,0.165562914,0.702993866,-0.141300699,0.677022614
1081,2707810,1255270,0.985,0.04,-0.03,-0.1,-0.1,0,-35.8,6,26.9,0.165562914,0.702993866,-0.141300699,0.677022614
1082,2709892,1255270,0.985,0.036,-0.03,-0.1,-0.3,0,-35.8,6,26.9,0.165562914,0.703024384,-0.141300699,0.677022614
1083,2713743,1255270,0.988,0.04,-0.026,0,-0.3,0,-34.2,5.7,27.2,0.165562914,0.703024384,-0.141300699,0.676992096
1084,2715293,1255280,0.985,0.036,-0.034,0,-0.2,0,-34.2,5.7,27.2,0.165562914,0.703024384,-0.141300699,0.676992096
1085,2717411,1255280,0.985,0.036,-0.026,0.1,0,0,-34.2,5.7,27.2,0.165562914,0.703024384,-0.141300699,0.676992096
1086,2720463,1255280,0.985,0.04,-0.03,0.1,0,0,-34.2,5.7,27.2,0.165562914,0.703024384,-0.141300699,0.676992096
1087,2721924,1255280,0.988,0.036,-0.034,0.1,0.1,0,-34,6.1,27.2,0.165532395,0.703024384,-0.141331217,0.676992096
1088,2725644,1255290,0.985,0.036,-0.034,0,0.1,0,-34,6.1,27.2,0.165532395,0.703024384,-0.141331217,0.676992096
1089,2727186,1255290,0.985,0.036,-0.03,0,0,0,-34,6.1,27.2,0.165532395,0.703024384,-0.141331217,0.676992096
1090,2729340,1255290,0.988,0.04,-0.03,0.1,0,0,-34,6.1,27.2,0.165532395,0.703024384,-0.141331217,0.676992096
1091,2732039,1255290,0.981,0.044,-0.03,0.1,-0.1,-0.1,-34.2,6.2,27.3,0.165532395,0.703024384,-0.141331217,0.676992096
1092,2735392,1255300,0.985,0.04,-0.034,0,-0.1,-0.1,-34.2,6.2,27.3,0.165532395,0.703024384,-0.141331217,0.676992096
1093,2736979,1255300,0.988,0.04,-0.034,0,-0.2,-0.1,-34.2,6.2,27.3,0.165532395,0.703054903,-0.141331217,0.676992096
1094,2740752,1255300,0.985,0.04,-0.038,0,-0.1,-0.1,-34.2,6.2,27.3,0.165532395,0.703054903,-0.141331217,0.676992096
