sample_index,elapsed_us,device_time_ms,acc_x_g,acc_y_g,acc_z_g,gyro_x_dps,gyro_y_dps,gyro_z_dps,mag_x_ut,mag_y_ut,mag_z_ut,quat_w,quat_x,quat_y,quat_z
0,4049,1118120,0.988,-0.112,0.154,-0.8,-0.4,-1.2,-5.1,23,-20.9,0.266609699,-0.632862331,-0.15848262,-0.709402753
1,6307,1118120,0.984,-0.116,0.146,-0.9,-0.3,-1.3,-5.1,23,-20.9,0.26657918,-0.632862331,-0.158513138,-0.709402753
2,8867,1118130,0.977,-0.112,0.146,-1.1,-0.1,-1.4,-5.1,23,-20.9,0.266548662,-0.632862331,-0.158513138,-0.709402753
3,13241,1118130,0.981,-0.112,0.15,-1.2,0,-1.4,-5.1,23,-20.9,0.266518143,-0.632862331,-0.158513138,-0.709433271
4,15418,1118130,0.981,-0.112,0.15,-1.5,-0.1,-1.2,-4.9,22.6,-20.8,0.266457106,-0.632862331,-0.158513138,-0.709433271
5,17514,1118130,0.977,-0.116,0.146,-1.6,-0.2,-1.3,-4.9,22.6,-20.8,0.266426588,-0.63289285,-0.15848262,-0.709433271
6,19816,1118140,0.977,-0.116,0.15,-1.8,-0.4,-1.3,-4.9,22.6,-20.8,0.266365551,-0.63289285,-0.15848262,-0.709433271
7,21796,1118140,0.977,-0.112,0.15,-1.9,-0.4,-1.3,-4.9,22.6,-20.8,0.266335032,-0.632923368,-0.15848262,-0.70946379
8,25028,1118140,0.977,-0.116,0.146,-2,-0.6,-1.2,-5,22.5,-20.9,0.266273995,-0.632923368,-0.158421583,-0.70946379
9,27295,1118140,0.977,-0.116,0.146,-2,-0.6,-1.2,-5,22.5,-20.9,0.266273995,-0.632923368,-0.158421583,-0.70946379
10,29398,1118150,0.973,-0.108,0.15,-2,-0.8,-1.2,-5,22.5,-20.9,0.26618244,-0.632953887,-0.158421583,-0.70946379
11,33006,1118150,0.969,-0.112,0.146,-2,-1,-1.2,-5,22.5,-20.9,0.266090884,-0.632984405,-0.158421583,-0.70946379
12,34323,1118150,0.973,-0.112,0.154,-1.8,-1.2,-1.1,-5.2,23.2,-19.5,0.266060366,-0.633014924,-0.158421583,-0.70946379
13,36557,1118150,0.973,-0.108,0.146,-1.7,-1.4,-1.1,-5.2,23.2,-19.5,0.266029847,-0.633045442,-0.158421583,-0.70946379
14,39778,1118160,0.969,-0.108,0.15,-1.6,-1.4,-1,-5.2,23.2,-19.5,0.26596881,-0.633075961,-0.158421583,-0.70946379
15,41283,1118160,0.973,-0.1,0.154,-1.4,-1.5,-1.1,-5.2,23.2,-19.5,0.265938292,-0.633106479,-0.158421583,-0.709433271
16,44979,1118160,0.973,-0.1,0.154,-1.4,-1.5,-1.1,-5.2,23.2,-19.5,0.265938292,-0.633106479,-0.158421583,-0.709433271
17,46354,1118160,0.973,-0.1,0.146,-1.3,-1.4,-0.9,-5.2,22.7,-21.6,0.265846736,-0.633106479,-0.158421583,-0.70946379
18,49305,1118170,0.977,-0.097,0.15,-1.2,-1.3,-1,-5.2,22.7,-21.6,0.265785699,-0.633136998,-0.158421583,-0.709433271
19,52503,1118170,0.981,-0.104,0.15,-1.2,-1.2,-1.1,-5.2,22.7,-21.6,0.265755181,-0.633167516,-0.158421583,-0.709433271
20,54766,1118170,0.977,-0.097,0.15,-1.1,-1.1,-1.1,-5.3,22.6,-21.6,0.265724662,-0.633198035,-0.15848262,-0.709433271
21,56900,1118170,0.985,-0.101,0.15,-1,-1,-1.2,-5.3,22.6,-21.6,0.265694143,-0.633198035,-0.15848262,-0.709433271
22,59049,1118180,0.981,-0.097,0.15,-0.9,-1,-1.2,-5.3,22.6,-21.6,0.265663625,-0.633228553,-0.15848262,-0.709433271
23,62105,1118180,0.981,-0.097,0.15,-0.8,-1,-1.4,-5.3,22.6,-21.6,0.265602588,-0.633228553,-0.15848262,-0.709433271
24,64844,1118180,0.981,-0.093,0.15,-0.8,-1,-1.5,-5.3,21.9,-21.5,0.265572069,-0.633259072,-0.158513138,-0.709433271
25,67338,1118180,0.985,-0.097,0.154,-0.8,-1,-1.5,-5.3,21.9,-21.5,0.265541551,-0.633259072,-0.158513138,-0.709433271
26,69354,1118190,0.985,-0.097,0.15,-0.9,-0.9,-1.5,-5.3,21.9,-21.5,0.265480514,-0.63328959,-0.158543657,-0.709433271
27,73273,1118190,0.981,-0.097,0.15,-0.9,-0.7,-1.5,-5.3,21.9,-21.5,0.265449995,-0.63328959,-0.158543657,-0.709433271
28,75766,1118190,0.981,-0.101,0.146,-0.9,-0.4,-1.5,-4.9,22.2,-21.4,0.265419477,-0.633320109,-0.158574175,-0.709433271
29,77873,1118190,0.981,-0.101,0.146,-0.9,-0.4,-1.5,-4.9,22.2,-21.4,0.265419477,-0.633320109,-0.158574175,-0.709433271
30,80088,1118200,0.984,-0.101,0.142,-1.1,0,-1.5,-4.9,22.2,-21.4,0.265327921,-0.633320109,-0.158574175,-0.70946379
31,82410,1118200,0.984,-0.104,0.146,-1.3,0.2,-1.6,-4.9,22.2,-21.4,0.265297403,-0.633320109,-0.158574175,-0.70946379
32,84901,1118200,0.981,-0.104,0.146,-1.3,0.3,-1.7,-4.9,24.1,-20,0.265236366,-0.633320109,-0.158574175,-0.709494308
33,86943,1118200,0.984,-0.108,0.142,-1.6,0.1,-1.8,-4.9,24.1,-20,0.265205847,-0.633320109,-0.158574175,-0.709494308
34,89113,1118210,0.988,-0.108,0.146,-1.7,0,-1.8,-4.9,24.1,-20,0.26514481,-0.633320109,-0.158574175,-0.709524827
35,92368,1118210,0.988,-0.108,0.146,-1.9,0,-1.8,-4.9,24.1,-20,0.265083773,-0.633320109,-0.158574175,-0.709555345
36,93798,1118210,0.988,-0.108,0.146,-1.9,0,-1.8,-4.9,24.1,-20,0.265083773,-0.633320109,-0.158574175,-0.709555345
37,97680,1118210,0.988,-0.112,0.142,-2.4,0.1,-1.9,-5.2,23,-21.2,0.264900662,-0.633350627,-0.158604694,-0.709555345
38,99965,1118220,0.988,-0.112,0.138,-2.5,0.2,-2,-5.2,23,-21.2,0.264839625,-0.633350627,-0.158574175,-0.709585864
39,102374,1118220,0.984,-0.116,0.146,-2.7,0.2,-2,-5.2,23,-21.2,0.264778588,-0.633350627,-0.158574175,-0.709616382
40,104061,1118220,0.988,-0.116,0.142,-2.8,0.1,-1.9,-5.2,23.2,-21.5,0.264717551,-0.633350627,-0.158543657,-0.709646901
41,107811,1118220,0.992,-0.116,0.154,-3,0,-1.9,-5.2,23.2,-21.5,0.264625996,-0.633381146,-0.158513138,-0.709677419
42,110200,1118230,0.988,-0.112,0.15,-3.1,0,-2,-5.2,23.2,-21.5,0.264564959,-0.633381146,-0.158513138,-0.709677419
43,112164,1118230,0.984,-0.12,0.15,-3.3,-0.1,-2,-5.2,23.2,-21.5,0.264473403,-0.633411664,-0.15848262,-0.709707938
44,114320,1118230,0.988,-0.116,0.154,-3.4,-0.2,-2.1,-5.3,23.6,-21.2,0.264381848,-0.633411664,-0.158421583,-0.709738456
45,116738,1118230,0.992,-0.12,0.15,-3.4,-0.3,-2.2,-5.3,23.6,-21.2,0.264320811,-0.633442183,-0.158421583,-0.709738456
46,118989,1118240,0.988,-0.116,0.154,-3.4,-0.5,-2.3,-5.3,23.6,-21.2,0.264229255,-0.633442183,-0.158421583,-0.709768975
47,121842,1118240,0.988,-0.112,0.158,-3.3,-0.6,-2.2,-5.3,23.6,-21.2,0.2641377,-0.633472701,-0.158391064,-0.709768975
48,123775,1118240,0.988,-0.108,0.158,-3.3,-0.7,-2.1,-5.1,24.1,-21.3,0.264046144,-0.63350322,-0.158391064,-0.709799493
49,127503,1118240,0.988,-0.108,0.158,-3.3,-0.7,-2.1,-5.1,24.1,-21.3,0.264046144,-0.63350322,-0.158391064,-0.709799493
50,130513,1118250,0.985,-0.116,0.162,-3.3,-0.8,-1.9,-5.1,24.1,-21.3,0.263893551,-0.633564257,-0.158360546,-0.709830012
51,132481,1118250,0.988,-0.116,0.154,-3.2,-0.8,-1.9,-5.1,24.1,-21.3,0.263832514,-0.633564257,-0.158330027,-0.709830012
52,134180,1118250,0.988,-0.105,0.154,-3.1,-0.8,-2,-4.9,23.1,-20.7,0.263740959,-0.633594775,-0.158330027,-0.709830012
53,136335,1118250,0.985,-0.112,0.158,-3,-0.7,-2,-4.9,23.1,-20.7,0.263679922,-0.633625294,-0.158299509,-0.70986053
54,140047,1118260,0.985,-0.108,0.158,-2.8,-0.6,-2.1,-4.9,23.1,-20.7,0.263588366,-0.633625294,-0.158299509,-0.70986053
55,141746,1118260,0.988,-0.108,0.158,-2.7,-0.4,-2.1,-4.9,23.1,-20.7,0.263527329,-0.633655812,-0.15826899,-0.709891049
56,143817,1118260,0.988,-0.108,0.158,-2.7,-0.4,-2.1,-4.9,23.1,-20.7,0.263527329,-0.633655812,-0.15826899,-0.709891049
57,147200,1118260,0.977,-0.108,0.154,-2.4,-0.4,-2.1,-4.9,23.4,-21,0.263405255,-0.633564257,-0.15826899,-0.710013123
58,149350,1118270,0.985,-0.108,0.154,-2.2,-0.5,-2,-4.9,23.4,-21,0.263344218,-0.633564257,-0.15826899,-0.710013123
59,151539,1118270,0.985,-0.104,0.154,-1.9,-0.4,-2,-4.9,23.4,-21,0.263283181,-0.633594775,-0.15826899,-0.710043641
60,154788,1118270,0.981,-0.108,0.146,-1.7,-0.3,-2,-5.4,23.3,-20.9,0.263222144,-0.633594775,-0.15826899,-0.710043641
61,156352,1118270,0.985,-0.104,0.15,-1.5,-0.1,-2,-5.4,23.3,-20.9,0.263161107,-0.633594775,-0.15826899,-0.71007416
62,160672,1118280,0.988,-0.105,0.15,-1.4,0,-2.2,-5.4,23.3,-20.9,0.26310007,-0.633594775,-0.15826899,-0.71007416
63,163473,1118280,0.985,-0.104,0.15,-1.2,0,-2.3,-5.4,23.3,-20.9,0.263069552,-0.633594775,-0.158299509,-0.710104678
64,163884,1118280,0.992,-0.105,0.146,-1.1,0.1,-2.4,-5.3,23.5,-20.7,0.263008515,-0.633594775,-0.158299509,-0.710104678
65,166513,1118280,0.988,-0.108,0.15,-1,0.3,-2.4,-5.3,23.5,-20.7,0.262947478,-0.633594775,-0.158330027,-0.710135197
66,170786,1118290,0.988,-0.108,0.15,-1,0.5,-2.3,-5.3,23.5,-20.7,0.262916959,-0.633594775,-0.158330027,-0.710165716
67,173156,1118290,0.992,-0.109,0.142,-1.1,0.6,-2.3,-5.3,23.5,-20.7,0.262855922,-0.633564257,-0.158360546,-0.710196234
68,175357,1118290,0.992,-0.108,0.15,-1.3,0.7,-2.2,-5.2,23.4,-20.6,0.262794885,-0.633564257,-0.158360546,-0.710226753
69,177314,1118290,0.992,-0.108,0.15,-1.3,0.7,-2.2,-5.2,23.4,-20.6,0.262794885,-0.633564257,-0.158360546,-0.710226753
70,179303,1118300,0.992,-0.109,0.138,-1.6,0.7,-2.2,-5.2,23.4,-20.6,0.26270333,-0.633533738,-0.158360546,-0.71028779
71,181593,1118300,0.988,-0.108,0.146,-1.7,0.8,-2.1,-5.2,23.4,-20.6,0.262642293,-0.633533738,-0.158360546,-0.710318308
72,183800,1118300,0.996,-0.112,0.146,-2,0.8,-1.9,-5.3,22.5,-20.6,0.262581256,-0.633533738,-0.158330027,-0.710348827
73,186887,1118300,0.988,-0.112,0.15,-2.2,0.8,-1.8,-5.3,22.5,-20.6,0.262520219,-0.63350322,-0.158330027,-0.710379345
74,189289,1118310,0.992,-0.109,0.146,-2.4,0.6,-1.8,-5.3,22.5,-20.6,0.262459181,-0.63350322,-0.158330027,-0.710379345
75,191440,1118310,0.988,-0.112,0.146,-2.4,0.5,-1.8,-5.3,22.5,-20.6,0.262398144,-0.63350322,-0.158299509,-0.710409864
76,194450,1118310,0.988,-0.112,0.146,-2.4,0.5,-1.8,-5.3,22.5,-20.6,0.262398144,-0.63350322,-0.158299509,-0.710409864
77,196671,1118310,0.992,-0.112,0.146,-2.5,0.4,-1.7,-5.8,23.5,-20.8,0.262306589,-0.633533738,-0.158238472,-0.710440382
78,199801,1118320,0.988,-0.116,0.15,-2.7,0.5,-1.7,-5.8,23.5,-20.8,0.262245552,-0.633533738,-0.158207953,-0.710470901
79,201313,1118320,0.988,-0.116,0.15,-2.8,0.4,-1.7,-5.8,23.5,-20.8,0.262184515,-0.633533738,-0.158207953,-0.710501419
80,204184,1118320,0.984,-0.116,0.15,-3,0.2,-1.7,-6,23.5,-20.4,0.262092959,-0.633564257,-0.158177435,-0.710531938
81,207298,1118320,0.988,-0.116,0.154,-3.1,0.1,-1.6,-6,23.5,-20.4,0.262031922,-0.633564257,-0.158146916,-0.710531938
82,210458,1118330,0.988,-0.112,0.158,-3.3,0,-1.5,-6,23.5,-20.4,0.261970885,-0.633564257,-0.158116398,-0.710562456
83,212430,1118330,0.985,-0.104,0.15,-3.4,0,-1.2,-6,23.5,-20.4,0.261909848,-0.633594775,-0.158085879,-0.710592975
84,214892,1118330,0.985,-0.112,0.154,-3.6,0,-1.2,-6.5,23.9,-20.6,0.261818293,-0.633594775,-0.158055361,-0.710592975
85,216940,1118330,0.984,-0.112,0.146,-3.6,0.1,-1.2,-6.5,23.9,-20.6,0.261757256,-0.633625294,-0.157994324,-0.710623493
86,219252,1118340,0.981,-0.112,0.154,-3.6,0.3,-1.2,-6.5,23.9,-20.6,0.261696219,-0.633625294,-0.157963805,-0.710654012
87,223113,1118340,0.985,-0.12,0.158,-3.6,0.4,-1.4,-6.5,23.9,-20.6,0.261604663,-0.633655812,-0.157933287,-0.71068453
88,225337,1118340,0.985,-0.112,0.154,-3.3,0.6,-1.6,-7,23.6,-20.5,0.261543626,-0.633655812,-0.15787225,-0.710715049
89,227457,1118340,0.985,-0.112,0.154,-3.3,0.6,-1.6,-7,23.6,-20.5,0.261543626,-0.633655812,-0.15787225,-0.710715049
90,228859,1118350,0.981,-0.116,0.158,-2.9,0.9,-1.7,-7,23.6,-20.5,0.261421552,-0.633655812,-0.157841731,-0.710776086
91,231882,1118350,0.981,-0.12,0.162,-2.7,0.9,-1.8,-7,23.6,-20.5,0.261360515,-0.633625294,-0.157811213,-0.710806604
92,234121,1118350,0.981,-0.12,0.158,-2.7,0.9,-1.8,-4.6,22.5,-20.4,0.261299478,-0.633625294,-0.157780694,-0.710837123
93,237196,1118350,0.977,-0.128,0.158,-2.6,0.9,-1.8,-4.6,22.5,-20.4,0.261238441,-0.633625294,-0.157750175,-0.710867641
94,240327,1118360,0.981,-0.124,0.162,-2.4,1,-1.8,-4.6,22.5,-20.4,0.261177404,-0.633625294,-0.157750175,-0.71089816
95,242524,1118360,0.977,-0.124,0.162,-2.3,0.9,-1.8,-4.6,22.5,-20.4,0.261116367,-0.633594775,-0.157719657,-0.710928678
96,243872,1118360,0.977,-0.124,0.162,-2.3,0.9,-1.8,-4.6,22.5,-20.4,0.261116367,-0.633594775,-0.157719657,-0.710928678
97,246808,1118360,0.984,-0.124,0.158,-2,0.8,-1.8,-6.3,24,-20.8,0.261177404,-0.63350322,-0.157506027,-0.711050752
98,249938,1118370,0.981,-0.124,0.158,-2,0.7,-1.8,-6.3,24,-20.8,0.261146886,-0.63350322,-0.15744499,-0.711081271
99,251464,1118370,0.981,-0.124,0.154,-2,0.6,-1.7,-6.3,24,-20.8,0.261085849,-0.63350322,-0.15744499,-0.711111789
100,254367,1118370,0.981,-0.124,0.162,-2,0.6,-1.8,-6.1,24,-20.6,0.261024812,-0.63350322,-0.15744499,-0.711111789
101,256566,1118370,0.981,-0.124,0.158,-1.8,0.6,-1.7,-6.1,24,-20.6,0.260963775,-0.63350322,-0.15744499,-0.711142308
102,259772,1118380,0.981,-0.124,0.166,-1.6,0.5,-1.5,-6.1,24,-20.6,0.260933256,-0.633472701,-0.15744499,-0.711172826
103,262719,1118380,0.977,-0.124,0.166,-1.2,0.4,-1.4,-6.1,24,-20.6,0.260902738,-0.633472701,-0.15744499,-0.711203345
104,264060,1118380,0.981,-0.116,0.166,-1.1,0.3,-1.4,-6,23.8,-20.6,0.2608417,-0.633472701,-0.15744499,-0.711203345
105,267222,1118380,0.981,-0.12,0.162,-0.9,0.1,-1.5,-6,23.8,-20.6,0.260811182,-0.633472701,-0.15744499,-0.711233863
106,270317,1118390,0.985,-0.116,0.162,-0.7,0.1,-1.5,-6,23.8,-20.6,0.260780663,-0.633472701,-0.15744499,-0.711233863
107,272571,1118390,0.981,-0.116,0.154,-0.5,0,-1.3,-6,23.8,-20.6,0.260750145,-0.633472701,-0.15744499,-0.711233863
108,274815,1118390,0.981,-0.116,0.158,-0.3,0,-1.2,-5.7,23.8,-20.6,0.260719626,-0.633472701,-0.15744499,-0.711264382
109,276942,1118390,0.981,-0.116,0.158,-0.3,0,-1.2,-5.7,23.8,-20.6,0.260719626,-0.633472701,-0.15744499,-0.711264382
110,279146,1118400,0.985,-0.112,0.158,0,0,-0.8,-5.7,23.8,-20.6,0.260689108,-0.633472701,-0.157506027,-0.711264382
111,281524,1118400,0.985,-0.108,0.154,0.1,0,-0.8,-5.7,23.8,-20.6,0.260689108,-0.633442183,-0.157506027,-0.711264382
112,283993,1118400,0.985,-0.108,0.154,0.2,-0.1,-0.7,-4.9,23.4,-20.5,0.260689108,-0.633442183,-0.157536546,-0.711264382
113,286247,1118400,0.981,-0.1,0.15,0.4,-0.1,-0.6,-4.9,23.4,-20.5,0.260689108,-0.633442183,-0.157536546,-0.711264382
114,290700,1118410,0.985,-0.104,0.158,0.5,0,-0.5,-4.9,23.4,-20.5,0.260689108,-0.633442183,-0.157567064,-0.711264382
115,292939,1118410,0.985,-0.104,0.154,0.6,0,-0.3,-4.9,23.4,-20.5,0.260689108,-0.633442183,-0.157567064,-0.711264382
116,295024,1118410,0.985,-0.104,0.154,0.6,0,-0.3,-4.9,23.4,-20.5,0.260689108,-0.633442183,-0.157567064,-0.711264382
117,297308,1118410,0.992,-0.101,0.154,0.6,0.2,0,-5.4,23.5,-20.2,0.260689108,-0.633350627,-0.157597583,-0.711355937
118,299444,1118420,0.985,-0.101,0.158,0.5,0.3,0,-5.4,23.5,-20.2,0.260719626,-0.633320109,-0.157597583,-0.711355937
119,301624,1118420,0.985,-0.097,0.158,0.4,0.3,0,-5.4,23.5,-20.2,0.260719626,-0.633320109,-0.157628101,-0.711355937
120,304770,1118420,0.981,-0.097,0.154,0.4,0.4,0.2,-5.1,23.1,-20.7,0.260719626,-0.633320109,-0.157628101,-0.711355937
121,307857,1118420,0.985,-0.101,0.15,0.3,0.5,0.3,-5.1,23.1,-20.7,0.260750145,-0.633320109,-0.157628101,-0.711355937
122,309977,1118430,0.981,-0.097,0.154,0.4,0.6,0.5,-5.1,23.1,-20.7,0.260750145,-0.63328959,-0.157597583,-0.711355937
123,311414,1118430,0.981,-0.1,0.154,0.3,0.6,0.7,-5.1,23.1,-20.7,0.260780663,-0.63328959,-0.157597583,-0.711386456
124,314692,1118430,0.985,-0.101,0.15,0.3,0.6,0.8,-5.4,23.3,-20.2,0.260811182,-0.63328959,-0.157597583,-0.711386456
125,316619,1118430,0.981,-0.097,0.146,0.2,0.6,0.9,-5.4,23.3,-20.2,0.260811182,-0.633259072,-0.157567064,-0.711386456
126,320643,1118440,0.981,-0.097,0.15,0.1,0.6,1,-5.4,23.3,-20.2,0.2608417,-0.633259072,-0.157567064,-0.711386456
127,323069,1118440,0.977,-0.104,0.154,0,0.8,1,-5.4,23.3,-20.2,0.260872219,-0.633259072,-0.157536546,-0.711386456
128,325395,1118440,0.981,-0.097,0.154,0,0.9,1,-4.8,23.5,-20.3,0.260872219,-0.633228553,-0.157536546,-0.711386456
129,327613,1118440,0.981,-0.097,0.154,0,0.9,1,-4.8,23.5,-20.3,0.260872219,-0.633228553,-0.157536546,-0.711386456
130,329922,1118450,0.973,-0.1,0.15,0,1,1.2,-4.8,23.5,-20.3,0.260933256,-0.633228553,-0.15744499,-0.711416974
131,331860,1118450,0.977,-0.096,0.154,0,1.1,1.3,-4.8,23.5,-20.3,0.260933256,-0.633198035,-0.15744499,-0.711416974
132,334131,1118450,0.973,-0.1,0.158,-0.1,1.1,1.4,-5.3,23.2,-20.5,0.260963775,-0.633198035,-0.157414472,-0.711416974
133,336350,1118450,0.981,-0.104,0.158,-0.2,1.1,1.3,-5.3,23.2,-20.5,0.260994293,-0.633198035,-0.157383953,-0.711447493
134,340327,1118460,0.973,-0.1,0.162,-0.4,1.2,1.1,-5.3,23.2,-20.5,0.260994293,-0.633167516,-0.157353435,-0.711447493
135,342477,1118460,0.973,-0.096,0.158,-0.4,1.2,1,-5.3,23.2,-20.5,0.261024812,-0.633167516,-0.157322916,-0.711447493
136,344405,1118460,0.973,-0.096,0.158,-0.4,1.2,1,-5.3,23.2,-20.5,0.261024812,-0.633167516,-0.157322916,-0.711447493
137,346652,1118460,0.977,-0.104,0.166,-0.4,1.2,1.1,-4.9,23.3,-20.2,0.261024812,-0.633014924,-0.157292398,-0.711600085
138,348903,1118470,0.977,-0.104,0.162,-0.5,1.2,1.2,-4.9,23.3,-20.2,0.26105533,-0.633014924,-0.157261879,-0.711600085
139,351834,1118470,0.973,-0.104,0.158,-0.6,1.3,1.3,-4.9,23.3,-20.2,0.261085849,-0.632984405,-0.157231361,-0.711600085
140,354134,1118470,0.977,-0.104,0.162,-0.6,1.4,1.2,-5.5,23,-20.1,0.261085849,-0.632984405,-0.157200842,-0.711630604
141,357615,1118470,0.977,-0.108,0.166,-0.7,1.4,1.2,-5.5,23,-20.1,0.261085849,-0.632953887,-0.157170324,-0.711630604
142,359812,1118480,0.977,-0.112,0.162,-0.7,1.4,1.2,-5.5,23,-20.1,0.261116367,-0.632953887,-0.157139805,-0.711661122
143,362968,1118480,0.977,-0.112,0.158,-0.7,1.5,1.1,-5.5,23,-20.1,0.261116367,-0.632923368,-0.157078768,-0.711661122
144,364857,1118480,0.973,-0.112,0.162,-0.8,1.5,1.1,-5.1,22.8,-20.7,0.261146886,-0.632923368,-0.15704825,-0.711691641
145,367151,1118480,0.977,-0.112,0.162,-0.8,1.4,1,-5.1,22.8,-20.7,0.261146886,-0.63289285,-0.157017731,-0.711722159
146,369304,1118490,0.973,-0.104,0.162,-0.9,1.5,0.9,-5.1,22.8,-20.7,0.261146886,-0.63289285,-0.156987213,-0.711722159
147,373287,1118490,0.977,-0.112,0.158,-0.9,1.6,0.9,-5.1,22.8,-20.7,0.261146886,-0.632862331,-0.156956694,-0.711752678
148,375231,1118490,0.981,-0.116,0.158,-0.9,1.7,1,-5.3,23,-20.4,0.261177404,-0.632862331,-0.156895657,-0.711783197
149,377544,1118490,0.981,-0.116,0.158,-0.9,1.7,1,-5.3,23,-20.4,0.261177404,-0.632862331,-0.156895657,-0.711783197
150,379831,1118500,0.977,-0.108,0.158,-0.6,1.7,0.9,-5.3,23,-20.4,0.261207923,-0.632801294,-0.15683462,-0.711813715
151,381191,1118500,0.984,-0.116,0.154,-0.5,1.5,0.8,-5.3,23,-20.4,0.261207923,-0.632801294,-0.156804102,-0.711844234
152,384154,1118500,0.981,-0.112,0.154,-0.4,1.4,0.7,-5.7,23.1,-20.6,0.261207923,-0.632770775,-0.156773583,-0.711844234
153,387358,1118500,0.981,-0.108,0.158,-0.4,1.4,0.7,-5.7,23.1,-20.6,0.261238441,-0.632770775,-0.156743065,-0.711874752
154,389411,1118510,0.985,-0.112,0.162,-0.3,1.3,0.7,-5.7,23.1,-20.6,0.261238441,-0.632740257,-0.156743065,-0.711874752
155,391637,1118510,0.981,-0.112,0.162,-0.1,1.2,0.7,-5.7,23.1,-20.6,0.261238441,-0.632740257,-0.156712546,-0.711905271
156,394809,1118510,0.981,-0.112,0.162,-0.1,1.2,0.7,-5.7,23.1,-20.6,0.261238441,-0.632740257,-0.156712546,-0.711905271
157,396245,1118510,0.988,-0.104,0.158,0,0.8,0.8,-4.3,23,-20.2,0.261329997,-0.632618183,-0.156620991,-0.711966308
158,399793,1118520,0.981,-0.108,0.162,0,0.6,0.9,-4.3,23,-20.2,0.261360515,-0.632618183,-0.156620991,-0.711966308
159,401861,1118520,0.988,-0.104,0.158,-0.1,0.5,0.9,-4.3,23,-20.2,0.261360515,-0.632618183,-0.156590472,-0.711966308
160,404172,1118520,0.985,-0.108,0.158,-0.1,0.5,1,-4.6,23.2,-20.1,0.261391034,-0.632618183,-0.156559954,-0.711966308
161,406373,1118520,0.988,-0.108,0.158,-0.1,0.4,1.1,-4.6,23.2,-20.1,0.261391034,-0.632618183,-0.156559954,-0.711966308
162,409645,1118530,0.985,-0.1,0.162,-0.2,0.3,1.2,-4.6,23.2,-20.1,0.261421552,-0.632618183,-0.156529435,-0.711966308
163,411786,1118530,0.988,-0.101,0.158,-0.2,0.1,1.2,-4.6,23.2,-20.1,0.261452071,-0.632618183,-0.156468398,-0.711966308
164,414178,1118530,0.985,-0.097,0.158,-0.2,0,1.2,-4.5,23.1,-20.3,0.261452071,-0.632618183,-0.156468398,-0.711966308
165,417848,1118530,0.985,-0.101,0.154,-0.2,0,1.2,-4.5,23.1,-20.3,0.261482589,-0.632618183,-0.156468398,-0.711966308
166,420149,1118540,0.981,-0.093,0.154,-0.2,0,1.3,-4.5,23.1,-20.3,0.261482589,-0.632618183,-0.15643788,-0.711966308
167,422359,1118540,0.989,-0.093,0.162,-0.1,-0.1,1.5,-4.5,23.1,-20.3,0.261513108,-0.632648701,-0.156407361,-0.711905271
168,424653,1118540,0.985,-0.093,0.158,0,-0.2,1.5,-4.6,23.2,-20.1,0.261543626,-0.632648701,-0.156407361,-0.711905271
169,426679,1118540,0.985,-0.093,0.158,0,-0.2,1.5,-4.6,23.2,-20.1,0.261543626,-0.632648701,-0.156407361,-0.711905271
170,428898,1118550,0.981,-0.085,0.154,0.1,0,1.6,-4.6,23.2,-20.1,0.261574145,-0.632648701,-0.156346324,-0.711905271
171,432504,1118550,0.985,-0.085,0.158,0,0.2,1.6,-4.6,23.2,-20.1,0.261604663,-0.63267922,-0.156315806,-0.711905271
172,433896,1118550,0.985,-0.085,0.154,0,0.2,1.6,-6.1,23.1,-20.3,0.261635182,-0.63267922,-0.156315806,-0.711905271
173,436758,1118550,0.981,-0.081,0.15,-0.2,0.3,1.7,-6.1,23.1,-20.3,0.2616657,-0.63267922,-0.156285287,-0.711874752
174,440274,1118560,0.985,-0.081,0.154,-0.3,0.4,1.8,-6.1,23.1,-20.3,0.261696219,-0.63267922,-0.156254769,-0.711874752
175,442391,1118560,0.981,-0.077,0.15,-0.4,0.6,1.9,-6.1,23.1,-20.3,0.261726737,-0.63267922,-0.156193731,-0.711874752
176,444363,1118560,0.981,-0.077,0.15,-0.4,0.6,1.9,-6.1,23.1,-20.3,0.261726737,-0.63267922,-0.156193731,-0.711874752
177,447385,1118560,0.985,-0.085,0.15,-0.7,1.2,1.9,-4.3,23.3,-20.8,0.261513108,-0.632557146,-0.15643788,-0.711996826
178,448730,1118570,0.988,-0.081,0.146,-0.7,1.5,1.9,-4.3,23.3,-20.8,0.261513108,-0.632557146,-0.156376843,-0.712027345
179,452392,1118570,0.988,-0.081,0.142,-0.8,1.8,2,-4.3,23.3,-20.8,0.261543626,-0.632526627,-0.156346324,-0.712027345
180,453859,1118570,0.985,-0.081,0.142,-0.9,2,2.1,-4.3,22.8,-20,0.261574145,-0.632526627,-0.156285287,-0.712057863
181,456880,1118570,0.981,-0.085,0.142,-1,2.2,2.1,-4.3,22.8,-20,0.261604663,-0.632496109,-0.15622425,-0.712088382
182,459266,1118580,0.985,-0.085,0.142,-1,2.3,2,-4.3,22.8,-20,0.261635182,-0.63246559,-0.156163213,-0.7121189
183,461517,1118580,0.981,-0.089,0.142,-0.9,2.4,1.9,-4.3,22.8,-20,0.2616657,-0.632435072,-0.156102176,-0.7121189
184,463877,1118580,0.985,-0.085,0.138,-0.8,2.5,1.9,-3.9,23.3,-20.8,0.261696219,-0.632404553,-0.156041139,-0.712149419
185,466231,1118580,0.985,-0.085,0.142,-0.7,2.5,2,-3.9,23.3,-20.8,0.261726737,-0.632374035,-0.15601062,-0.712179937
186,469918,1118590,0.985,-0.085,0.138,-0.7,2.4,2,-3.9,23.3,-20.8,0.261757256,-0.632374035,-0.155949583,-0.712210456
187,472113,1118590,0.981,-0.085,0.142,-0.8,2.4,2.1,-3.9,23.3,-20.8,0.261787774,-0.632343516,-0.155888546,-0.712240974
188,474232,1118590,0.984,-0.089,0.138,-0.9,2.3,2.3,-4.2,23.4,-20.5,0.261818293,-0.632312998,-0.155827509,-0.712240974
189,476471,1118590,0.984,-0.089,0.138,-0.9,2.3,2.3,-4.2,23.4,-20.5,0.261818293,-0.632312998,-0.155827509,-0.712240974
190,479467,1118600,0.985,-0.085,0.138,-1.1,2,2.4,-4.2,23.4,-20.5,0.26187933,-0.632282479,-0.155705435,-0.712302011
191,481436,1118600,0.985,-0.085,0.138,-1.2,1.8,2.4,-4.2,23.4,-20.5,0.26187933,-0.632251961,-0.155644398,-0.712302011
192,483775,1118600,0.985,-0.085,0.142,-1.4,1.6,2.5,-5.1,23.3,-20.5,0.261909848,-0.632251961,-0.155583361,-0.71233253
193,487017,1118600,0.985,-0.085,0.146,-1.5,1.3,2.6,-5.1,23.3,-20.5,0.261940367,-0.632251961,-0.155491806,-0.71233253
194,488950,1118610,0.981,-0.081,0.146,-1.7,1,2.7,-5.1,23.3,-20.5,0.261970885,-0.632251961,-0.155430769,-0.71233253
195,493141,1118610,0.988,-0.077,0.134,-1.9,0.8,2.9,-5.1,23.3,-20.5,0.261970885,-0.632251961,-0.155339213,-0.71233253
196,495391,1118610,0.988,-0.077,0.134,-1.9,0.8,2.9,-5.1,23.3,-20.5,0.261970885,-0.632251961,-0.155339213,-0.71233253
197,497544,1118610,0.988,-0.077,0.142,-2.3,0.5,3,-5.2,23.6,-20.6,0.2616657,-0.632343516,-0.15561388,-0.71233253
198,499797,1118620,0.996,-0.073,0.142,-2.2,0.3,3,-5.2,23.6,-20.6,0.2616657,-0.632343516,-0.155491806,-0.71233253
199,502209,1118620,0.996,-0.066,0.138,-2.2,0.2,3,-5.2,23.6,-20.6,0.261696219,-0.632374035,-0.155461287,-0.71233253
200,504096,1118620,0.992,-0.073,0.13,-2.1,0.1,2.9,-5,23.4,-20.6,0.261696219,-0.632374035,-0.155369732,-0.71233253
201,507290,1118620,1,-0.074,0.134,-2.1,0.3,2.9,-5,23.4,-20.6,0.261726737,-0.632404553,-0.155308695,-0.712302011
202,508747,1118630,0.996,-0.07,0.13,-2.1,0.5,2.8,-5,23.4,-20.6,0.261757256,-0.632404553,-0.155217139,-0.712302011
203,511718,1118630,1,-0.066,0.134,-2.2,0.8,2.9,-5,23.4,-20.6,0.261757256,-0.632435072,-0.155156102,-0.712302011
204,514932,1118630,1,-0.066,0.13,-2.2,1.1,2.9,-5.3,23.3,-20.5,0.261787774,-0.632435072,-0.155064547,-0.71233253
205,516426,1118630,1.004,-0.066,0.13,-2.3,1.5,2.8,-5.3,23.3,-20.5,0.261787774,-0.632435072,-0.154972991,-0.71233253
206,519759,1118640,1,-0.066,0.134,-2.6,1.7,2.7,-5.3,23.3,-20.5,0.261818293,-0.632435072,-0.154881436,-0.712363048
207,523465,1118640,1.004,-0.062,0.13,-3,1.8,2.5,-5.3,23.3,-20.5,0.261818293,-0.632435072,-0.15478988,-0.712363048
208,523687,1118640,1,-0.066,0.13,-3.3,1.8,2.3,-5.3,23.1,-20.1,0.261818293,-0.632435072,-0.154698325,-0.712393567
209,526869,1118640,1,-0.066,0.13,-3.3,1.8,2.3,-5.3,23.1,-20.1,0.261818293,-0.632435072,-0.154698325,-0.712393567
210,529287,1118650,0.996,-0.07,0.134,-4.3,1.7,2.1,-5.3,23.1,-20.1,0.261787774,-0.632435072,-0.154484695,-0.712454604
211,531525,1118650,1,-0.07,0.134,-4.8,1.6,2,-5.3,23.1,-20.1,0.261757256,-0.632435072,-0.154393139,-0.712485122
212,534316,1118650,1.004,-0.066,0.13,-5.4,1.7,2,-5,23.2,-21,0.261696219,-0.632435072,-0.154271065,-0.712515641
213,536661,1118650,1,-0.07,0.122,-6,1.7,2,-5,23.2,-21,0.2616657,-0.63246559,-0.154118473,-0.712546159
214,540883,1118660,0.992,-0.066,0.134,-6.7,1.8,1.9,-5,23.2,-21,0.261604663,-0.63246559,-0.153996399,-0.712576678
215,541234,1118660,1,-0.07,0.13,-7.5,1.9,1.8,-5,23.2,-21,0.261543626,-0.632496109,-0.153843806,-0.712607196
216,544703,1118660,1,-0.07,0.13,-7.5,1.9,1.8,-5,23.2,-21,0.261543626,-0.632496109,-0.153843806,-0.712607196
217,546483,1118660,0.996,-0.07,0.126,-9.2,2.1,1.8,-5.2,23.4,-19.7,0.260994293,-0.63267922,-0.153904843,-0.712668233
218,548754,1118670,0.996,-0.066,0.134,-10.1,2.1,1.9,-5.2,23.4,-19.7,0.260872219,-0.632709738,-0.153721732,-0.712698752
219,552679,1118670,0.996,-0.07,0.134,-10.8,1.9,1.9,-5.2,23.4,-19.7,0.260780663,-0.632740257,-0.153508103,-0.712759789
220,555086,1118670,1,-0.066,0.134,-11.4,1.8,1.8,-4.9,22.9,-19.1,0.260658589,-0.632770775,-0.153294473,-0.712820826
221,557841,1118670,0.996,-0.062,0.134,-11.9,1.5,1.8,-4.9,22.9,-19.1,0.260505997,-0.632831812,-0.153080844,-0.712851344
222,560123,1118680,0.996,-0.062,0.13,-12.3,1.3,1.7,-4.9,22.9,-19.1,0.260383923,-0.63289285,-0.152836695,-0.712912381
223,562341,1118680,0.996,-0.07,0.138,-12.6,1.1,1.7,-4.9,22.9,-19.1,0.26023133,-0.632953887,-0.152623066,-0.712973418
224,564722,1118680,1,-0.062,0.134,-12.7,1,1.8,-5.1,23.1,-19,0.260078738,-0.633014924,-0.152409436,-0.713003937
225,566784,1118680,1,-0.05,0.13,-12.9,0.8,1.9,-5.1,23.1,-19,0.259956664,-0.633075961,-0.152165288,-0.713034455
226,569187,1118690,1,-0.05,0.13,-12.9,0.6,2,-5.1,23.1,-19,0.259804071,-0.633136998,-0.15192114,-0.713095492
227,573200,1118690,1,-0.042,0.134,-13,0.5,2.2,-5.1,23.1,-19,0.259651479,-0.633228553,-0.151707511,-0.713126011
228,575482,1118690,1,-0.034,0.134,-13,0.3,2.4,-5,23.3,-18.4,0.259529405,-0.63328959,-0.151463363,-0.713156529
229,577736,1118690,1,-0.034,0.134,-13,0.3,2.4,-5,23.3,-18.4,0.259529405,-0.63328959,-0.151463363,-0.713156529
230,579892,1118700,1.004,-0.031,0.134,-13,0,2.9,-5,23.3,-18.4,0.259254738,-0.633442183,-0.150975066,-0.713217566
231,581857,1118700,0.996,-0.023,0.13,-13,0,3.2,-5,23.3,-18.4,0.259102145,-0.633533738,-0.150730918,-0.713248085
232,584181,1118700,0.996,-0.019,0.134,-13.1,0,3.5,-5,23.6,-22.1,0.258980071,-0.633625294,-0.150456252,-0.713278603
233,586436,1118700,0.996,-0.019,0.122,-13.1,0.1,3.9,-5,23.6,-22.1,0.258857997,-0.633716849,-0.150212104,-0.713278603
234,588912,1118710,1,-0.011,0.122,-13.1,0.2,4,-5,23.6,-22.1,0.258766442,-0.633777886,-0.149937437,-0.713309122
235,591274,1118710,0.996,-0.007,0.126,-13,0.1,4,-5,23.6,-22.1,0.258644368,-0.633869442,-0.149693289,-0.71333964
236,595723,1118710,0.996,-0.007,0.126,-13,0.1,4,-5,23.6,-22.1,0.258644368,-0.633869442,-0.149693289,-0.71333964
237,597767,1118710,0.996,0,0.13,-12.6,-0.2,3.9,-5.2,23.4,-19.6,0.257301553,-0.634083071,-0.15048677,-0.713461715
238,600075,1118720,0.993,0.008,0.126,-12.5,-0.1,3.9,-5.2,23.4,-19.6,0.257179479,-0.634174627,-0.150242622,-0.713492233
239,601373,1118720,0.993,0.012,0.126,-12.6,0.1,4,-5.2,23.4,-19.6,0.257057405,-0.634235664,-0.149967956,-0.713522752
240,604438,1118720,0.993,0.008,0.126,-13,0.5,4.1,-5.1,23.6,-20,0.25696585,-0.634327219,-0.149723807,-0.713522752
241,607732,1118720,1,0.011,0.126,-13.7,1.1,4.1,-5.1,23.6,-20,0.256843776,-0.634388256,-0.149449141,-0.713583789
242,609750,1118730,0.996,0.011,0.122,-14.5,1.6,4.1,-5.1,23.6,-20,0.256691183,-0.634479812,-0.149143956,-0.713614307
243,612763,1118730,0.996,0.011,0.122,-15.6,2.1,4.1,-5.1,23.6,-20,0.256538591,-0.634540849,-0.148838771,-0.713675344
244,615058,1118730,0.996,0.011,0.118,-16.7,2.4,4.1,-5.1,23.6,-20.6,0.256385998,-0.634601886,-0.148503067,-0.713736381
245,617025,1118730,0.996,0.011,0.122,-17.7,2.8,4,-5.1,23.6,-20.6,0.256233406,-0.634662923,-0.148136845,-0.713827937
246,620123,1118740,0.996,0.011,0.118,-18.8,3.1,4,-5.1,23.6,-20.6,0.256019776,-0.634754479,-0.147770623,-0.713888974
247,623128,1118740,0.996,0.008,0.118,-19.8,3.6,3.9,-5.1,23.6,-20.6,0.255836665,-0.634815516,-0.147404401,-0.713980529
248,624606,1118740,0.993,0.008,0.118,-21.1,4.2,3.9,-4.9,23.7,-20.9,0.255623035,-0.634876553,-0.146977142,-0.714102603
249,627498,1118740,0.993,0.008,0.118,-21.1,4.2,3.9,-4.9,23.7,-20.9,0.255623035,-0.634876553,-0.146977142,-0.714102603
250,628911,1118750,0.996,0.004,0.114,-23.9,5.3,3.7,-4.9,23.7,-20.9,0.255134739,-0.634998627,-0.146092105,-0.714346751
251,632329,1118750,0.996,0,0.118,-25.3,5.6,3.6,-4.9,23.7,-20.9,0.254860073,-0.635059664,-0.145634327,-0.714468825
252,633842,1118750,1,0.004,0.118,-26.8,6,3.5,-5.1,24,-19.9,0.254554888,-0.635120701,-0.145115513,-0.714621418
253,636856,1118750,0.996,-0.003,0.114,-28.2,6.4,3.4,-5.1,24,-19.9,0.254219184,-0.635212256,-0.144596698,-0.714804529
254,640263,1118760,0.996,-0.011,0.118,-29.6,6.9,3.1,-5.1,24,-19.9,0.25388348,-0.635273293,-0.144047365,-0.714957121
255,641470,1118760,1,-0.015,0.122,-31.1,7.2,3,-5.1,24,-19.9,0.253517258,-0.63533433,-0.143498032,-0.715140233
256,644690,1118760,1,-0.015,0.122,-31.1,7.2,3,-5.1,24,-19.9,0.253517258,-0.63533433,-0.143498032,-0.715140233
257,646195,1118760,1,-0.023,0.122,-34,7.6,2.4,-5.1,23.7,-20.1,0.251380963,-0.635578478,-0.143864254,-0.71559801
258,649715,1118770,1,-0.031,0.126,-35.3,7.8,2.2,-5.1,23.7,-20.1,0.250953703,-0.635670034,-0.143223365,-0.71581164
259,653292,1118770,1.004,-0.031,0.134,-36.5,8,1.9,-5.1,23.7,-20.1,0.250465407,-0.635731071,-0.142582476,-0.716025269
260,654926,1118770,1,-0.042,0.126,-37.7,8.2,1.7,-4.9,23.8,-20,0.250038148,-0.635822626,-0.141911069,-0.716238899
261,656269,1118770,1,-0.046,0.13,-38.9,8.3,1.3,-4.9,23.8,-20,0.249549852,-0.635914182,-0.141239662,-0.716483047
262,660290,1118780,0.996,-0.05,0.134,-39.9,8.3,1.1,-4.9,23.8,-20,0.249031037,-0.636005737,-0.140568255,-0.716696677
263,662387,1118780,1,-0.054,0.134,-40.8,8.2,1,-4.9,23.8,-20,0.248512223,-0.636097293,-0.139866329,-0.716940825
264,664923,1118780,0.996,-0.058,0.142,-41.7,8.1,1,-5.1,23.7,-19.9,0.247962889,-0.636188849,-0.139164403,-0.717184973
265,666898,1118780,0.996,-0.058,0.146,-42.5,7.9,0.8,-5.1,23.7,-19.9,0.247413556,-0.636310923,-0.138431959,-0.717398602
266,668948,1118790,0.996,-0.062,0.142,-43.2,7.7,0.5,-5.1,23.7,-19.9,0.246864223,-0.636432997,-0.137699515,-0.71764275
267,673270,1118790,0.989,-0.065,0.146,-43.9,7.4,0.1,-5.1,23.7,-19.9,0.246253853,-0.636555071,-0.136936552,-0.717886898
268,674792,1118790,0.981,-0.065,0.146,-44.5,7.1,0,-5,24,-19.7,0.245674001,-0.636677145,-0.136234626,-0.718100528
269,676280,1118790,0.981,-0.065,0.146,-44.5,7.1,0,-5,24,-19.7,0.245674001,-0.636677145,-0.136234626,-0.718100528
270,679358,1118800,0.981,-0.069,0.154,-45.5,6.4,-0.4,-5,24,-19.7,0.244422742,-0.636951811,-0.134769738,-0.718558306
271,682535,1118800,0.973,-0.073,0.15,-45.9,6.2,-0.6,-5,24,-19.7,0.243812372,-0.637104404,-0.134006775,-0.718802454
272,683893,1118800,0.973,-0.077,0.154,-46.2,6.1,-0.9,-4.7,24.5,-18.9,0.243171484,-0.637226478,-0.133274331,-0.719016083
273,687533,1118800,0.969,-0.081,0.15,-46.4,6.2,-1.2,-4.7,24.5,-18.9,0.242500076,-0.63737907,-0.132541887,-0.719229713
274,689904,1118810,0.965,-0.081,0.142,-46.6,6.3,-1.5,-4.7,24.5,-18.9,0.241859188,-0.637531663,-0.131778924,-0.719473861
275,692006,1118810,0.961,-0.088,0.15,-46.8,6.4,-1.9,-4.7,24.5,-18.9,0.24118778,-0.637653737,-0.13104648,-0.719718009
276,694082,1118810,0.961,-0.088,0.15,-46.8,6.4,-1.9,-4.7,24.5,-18.9,0.24118778,-0.637653737,-0.13104648,-0.719718009
277,697411,1118810,0.961,-0.085,0.146,-47.1,6.5,-2.7,-5,23.9,-19.9,0.239692373,-0.637897885,-0.129764702,-0.720236824
278,699447,1118820,0.953,-0.1,0.143,-47.2,6.6,-3.2,-5,23.9,-19.9,0.238990448,-0.638050478,-0.129032258,-0.720480972
279,701681,1118820,0.957,-0.096,0.143,-47.4,6.6,-3.6,-5,23.9,-19.9,0.238288522,-0.638172552,-0.128299814,-0.72072512
280,704059,1118820,0.953,-0.096,0.143,-47.6,6.6,-4,-4.9,24.1,-19.3,0.237586596,-0.638294626,-0.12756737,-0.720969268
281,706453,1118820,0.953,-0.104,0.139,-47.7,6.5,-4.2,-4.9,24.1,-19.3,0.236854152,-0.638447218,-0.126834925,-0.721213416
282,708842,1118830,0.949,-0.104,0.143,-47.9,6.5,-4.4,-4.9,24.1,-19.3,0.236152226,-0.638569292,-0.126133,-0.721457564
283,711900,1118830,0.949,-0.108,0.143,-48.1,6.5,-4.5,-4.9,24.1,-19.3,0.235419782,-0.638691366,-0.125400555,-0.721701712
284,714182,1118830,0.945,-0.112,0.135,-48.4,6.4,-4.7,-5,23.6,-19.4,0.234687338,-0.638843959,-0.124668111,-0.72194586
285,716450,1118830,0.949,-0.112,0.139,-48.7,6.3,-4.9,-5,23.6,-19.4,0.233954894,-0.638966033,-0.123935667,-0.722190008
286,720545,1118840,0.945,-0.112,0.139,-49.1,6.2,-5.1,-5,23.6,-19.4,0.233191931,-0.639118625,-0.123203223,-0.722434156
287,722697,1118840,0.945,-0.116,0.139,-49.5,6.1,-5.3,-5,23.6,-19.4,0.232428968,-0.639240699,-0.122470779,-0.722678304
288,724971,1118840,0.945,-0.12,0.135,-49.8,6,-5.4,-4.8,23.9,-19.3,0.231666005,-0.639393292,-0.121677297,-0.722922452
289,726439,1118840,0.945,-0.12,0.135,-49.8,6,-5.4,-4.8,23.9,-19.3,0.231666005,-0.639393292,-0.121677297,-0.722922452
290,729802,1118850,0.945,-0.119,0.139,-50.2,5.8,-5.4,-4.8,23.9,-19.3,0.23014008,-0.639698477,-0.120212409,-0.723410749
291,731792,1118850,0.945,-0.12,0.135,-50.4,5.9,-5.5,-4.8,23.9,-19.3,0.229377117,-0.639820551,-0.119479965,-0.723624378
292,734202,1118850,0.941,-0.123,0.143,-50.8,6,-5.6,-4.8,25.9,-17.2,0.228583636,-0.639973144,-0.118717002,-0.723899045
293,736342,1118850,0.941,-0.127,0.143,-51.1,5.9,-5.8,-4.8,25.9,-17.2,0.227759636,-0.640125736,-0.117954039,-0.724143193
294,740123,1118860,0.941,-0.135,0.139,-51.4,5.9,-6,-4.8,25.9,-17.2,0.226996673,-0.640278329,-0.117221595,-0.724387341
295,742377,1118860,0.945,-0.135,0.143,-51.5,6,-6.2,-4.8,25.9,-17.2,0.226172674,-0.640400403,-0.116458632,-0.724631489
296,744720,1118860,0.945,-0.135,0.143,-51.5,6,-6.2,-4.8,25.9,-17.2,0.226172674,-0.640400403,-0.116458632,-0.724631489
297,746207,1118860,0.949,-0.143,0.143,-51.6,6.3,-6.6,-4.7,24.7,-19.8,0.22461623,-0.640736106,-0.114841151,-0.725089267
298,748738,1118870,0.941,-0.143,0.139,-51.7,6.6,-6.8,-4.7,24.7,-19.8,0.223822748,-0.640888699,-0.114108707,-0.725333415
299,752482,1118870,0.945,-0.155,0.139,-51.9,6.8,-7,-4.7,24.7,-19.8,0.222998749,-0.641010773,-0.113345744,-0.725608081
300,754473,1118870,0.945,-0.162,0.135,-52.1,6.9,-7.3,-4.5,25.3,-19.2,0.22214423,-0.641132847,-0.1126133,-0.725852229
301,756572,1118870,0.949,-0.166,0.135,-52.5,7,-7.6,-4.5,25.3,-19.2,0.221320231,-0.641254921,-0.111850337,-0.726126896
302,760540,1118880,0.949,-0.174,0.139,-53,7,-7.8,-4.5,25.3,-19.2,0.220465712,-0.641376995,-0.111087374,-0.726401563
303,763008,1118880,0.949,-0.186,0.143,-53.4,7.2,-8,-4.5,25.3,-19.2,0.219611194,-0.641499069,-0.110293893,-0.726645711
304,764967,1118880,0.953,-0.198,0.135,-53.7,7.3,-8.1,-4.7,25.6,-19.3,0.218756676,-0.641590625,-0.109530931,-0.726920377
305,767618,1118880,0.953,-0.198,0.135,-54.1,7.3,-8.3,-4.7,25.6,-19.3,0.217871639,-0.641743217,-0.108767968,-0.727195044
306,769291,1118890,0.957,-0.202,0.135,-54.4,7.3,-8.6,-4.7,25.6,-19.3,0.216986602,-0.641865291,-0.107974487,-0.72746971
307,772705,1118890,0.957,-0.217,0.131,-54.7,7.2,-8.8,-4.7,25.6,-19.3,0.216101566,-0.641987365,-0.107211524,-0.727744377
308,774144,1118890,0.961,-0.225,0.135,-54.9,7,-9,-5,26,-18.9,0.215216529,-0.642109439,-0.106418043,-0.728019044
309,776266,1118890,0.961,-0.229,0.127,-55.2,6.7,-9.2,-5,26,-18.9,0.214300974,-0.642231513,-0.10565508,-0.728263192
310,780168,1118900,0.964,-0.233,0.135,-55.4,6.5,-9.6,-5,26,-18.9,0.213385418,-0.642384106,-0.104861599,-0.728537858
311,782571,1118900,0.961,-0.245,0.135,-55.5,6.4,-9.8,-5,26,-18.9,0.212469863,-0.64250618,-0.104098636,-0.728812525
312,784307,1118900,0.961,-0.253,0.139,-55.4,6.1,-10.1,-5.2,26.2,-17.4,0.211554308,-0.642628254,-0.103335673,-0.729056673
313,786828,1118900,0.968,-0.261,0.135,-55.2,5.9,-10.3,-5.2,26.2,-17.4,0.210608234,-0.642780847,-0.10257271,-0.729331339
314,788929,1118910,0.968,-0.261,0.139,-54.9,5.4,-10.4,-5.2,26.2,-17.4,0.209692679,-0.642933439,-0.101809748,-0.729575488
315,792818,1118910,0.961,-0.268,0.143,-54.8,5.1,-10.5,-5.2,26.2,-17.4,0.208777123,-0.643055513,-0.101046785,-0.729819636
316,794286,1118910,0.961,-0.268,0.143,-54.8,5.1,-10.5,-5.2,26.2,-17.4,0.208777123,-0.643055513,-0.101046785,-0.729819636
317,798094,1118910,0.968,-0.28,0.143,-54.6,4.4,-10.5,-5.3,26.1,-17.4,0.207312235,-0.643513291,-0.0990936003,-0.730094302
318,800405,1118920,0.96,-0.28,0.143,-54.4,4,-10.6,-5.3,26.1,-17.4,0.20639668,-0.643665883,-0.098361156,-0.73033845
319,803296,1118920,0.957,-0.284,0.139,-54.2,3.6,-10.6,-5.3,26.1,-17.4,0.205450606,-0.643818476,-0.0976287118,-0.73055208
320,805151,1118920,0.957,-0.288,0.143,-53.9,3.3,-10.7,-5.3,26,-17.4,0.204535051,-0.644001587,-0.0968962676,-0.730765709
321,807702,1118920,0.953,-0.288,0.139,-53.4,3,-10.7,-5.3,26,-17.4,0.203619495,-0.64415418,-0.0961943419,-0.73094882
322,809835,1118930,0.957,-0.299,0.143,-52.9,2.7,-10.8,-5.3,26,-17.4,0.20270394,-0.644337291,-0.0954924162,-0.73116245
323,811788,1118930,0.953,-0.299,0.147,-52.4,2.5,-10.8,-5.3,26,-17.4,0.201818903,-0.644489883,-0.0947904904,-0.731345561
324,816040,1118930,0.953,-0.303,0.151,-51.8,2.4,-10.8,-5.1,26.7,-16.9,0.200903348,-0.644672994,-0.0941190832,-0.731528672
325,816558,1118930,0.949,-0.307,0.147,-51,2.5,-10.8,-5.1,26.7,-16.9,0.200018311,-0.644825587,-0.0934171575,-0.731711783
326,818737,1118940,0.941,-0.303,0.143,-50.3,2.7,-10.7,-5.1,26.7,-16.9,0.199163793,-0.644978179,-0.0927762688,-0.731894894
327,821791,1118940,0.941,-0.303,0.143,-49.5,2.8,-10.6,-5.1,26.7,-16.9,0.198278756,-0.645130772,-0.0921048616,-0.732108524
328,824087,1118940,0.945,-0.311,0.143,-48.7,3,-10.6,-5,26.5,-17,0.197424238,-0.645252846,-0.0914639729,-0.732291635
329,827379,1118940,0.941,-0.311,0.139,-47.7,3.3,-10.6,-5,26.5,-17,0.196600238,-0.645405438,-0.0908536027,-0.732474746
330,829494,1118950,0.937,-0.315,0.139,-46.6,3.6,-10.6,-5,26.5,-17,0.195776238,-0.645496994,-0.0902432325,-0.732657857
331,831651,1118950,0.945,-0.319,0.131,-45.4,4,-10.7,-5,26.5,-17,0.194982757,-0.645619068,-0.0896328623,-0.732840968
332,834761,1118950,0.945,-0.323,0.139,-44.1,4.4,-10.8,-5.3,26.4,-16.3,0.194189276,-0.645710623,-0.0890835292,-0.733054598
333,836633,1118950,0.945,-0.331,0.128,-42.9,4.9,-10.9,-5.3,26.4,-16.3,0.193426313,-0.645802179,-0.088473159,-0.733237709
334,840856,1118960,0.956,-0.335,0.127,-41.7,5.4,-11,-5.3,26.4,-16.3,0.19266335,-0.645863216,-0.0879848628,-0.733451338
335,843058,1118960,0.956,-0.342,0.123,-40.3,5.9,-11,-5.3,26.4,-16.3,0.191930906,-0.645924253,-0.0874660482,-0.733664968
336,845281,1118960,0.956,-0.342,0.123,-40.3,5.9,-11,-5.3,26.4,-16.3,0.191930906,-0.645924253,-0.0874660482,-0.733664968
337,847483,1118960,0.968,-0.354,0.112,-37.5,6.7,-11.2,-5.3,26.6,-16.6,0.191991943,-0.646412549,-0.0847193823,-0.733542894
338,849742,1118970,0.976,-0.362,0.107,-36.2,7,-11.2,-5.3,26.6,-16.6,0.191320536,-0.646412549,-0.0842616047,-0.733756523
339,851772,1118970,0.983,-0.37,0.107,-35.1,7.3,-11.2,-5.3,26.6,-16.6,0.190649129,-0.646443068,-0.0838343455,-0.733970153
340,853911,1118970,0.999,-0.382,0.103,-34.1,7.5,-11.1,-5.3,26.5,-16.4,0.19000824,-0.646443068,-0.0834070864,-0.734183782
341,857115,1118970,1.007,-0.394,0.107,-33.3,7.7,-11,-5.3,26.5,-16.4,0.189367351,-0.646443068,-0.0830103458,-0.734397412
342,859167,1118980,1.018,-0.402,0.111,-32.5,7.9,-10.7,-5.3,26.5,-16.4,0.188756981,-0.646412549,-0.0826136052,-0.734611042
343,862116,1118980,1.022,-0.41,0.103,-31.9,8,-10.5,-5.3,26.5,-16.4,0.188146611,-0.646412549,-0.0822168645,-0.734824671
344,863801,1118980,1.038,-0.426,0.106,-31.5,8,-10.3,-5.7,26.8,-16.4,0.187566759,-0.646382031,-0.0818201239,-0.735038301
345,866614,1118980,1.038,-0.438,0.114,-31.3,8,-10.1,-5.7,26.8,-16.4,0.186956389,-0.646351512,-0.0814233833,-0.73525193
346,869858,1118990,1.046,-0.446,0.114,-31.3,7.8,-9.7,-5.7,26.8,-16.4,0.186376537,-0.646351512,-0.0810266427,-0.735435041
347,871876,1118990,1.053,-0.469,0.122,-31.7,7.4,-9.4,-5.7,26.8,-16.4,0.185766167,-0.646351512,-0.0805993835,-0.735648671
348,874806,1118990,1.054,-0.469,0.126,-32.4,6.9,-9,-5.9,27,-16.1,0.185216834,-0.646351512,-0.0801721244,-0.735831782
349,877578,1118990,1.054,-0.469,0.126,-32.4,6.9,-9,-5.9,27,-16.1,0.185216834,-0.646351512,-0.0801721244,-0.735831782
350,879833,1119000,1.053,-0.496,0.138,-34.2,5.5,-7.8,-5.9,27,-16.1,0.183996094,-0.646412549,-0.0792870876,-0.736198004
351,881215,1119000,1.05,-0.52,0.138,-35.1,4.9,-6.7,-5.9,27,-16.1,0.183416242,-0.646443068,-0.0787987915,-0.736350597
352,884130,1119000,1.034,-0.535,0.142,-35.9,4.3,-5.8,-5,26,-15.9,0.182805872,-0.646504105,-0.0782799768,-0.736503189
353,886443,1119000,1.026,-0.551,0.146,-36.6,3.9,-4.7,-5,26,-15.9,0.18222602,-0.64659566,-0.0777306436,-0.736625263
354,889585,1119010,1.018,-0.562,0.158,-36.9,3.7,-3.7,-5,26,-15.9,0.181646168,-0.646656697,-0.0771813105,-0.736747337
355,892543,1119010,0.999,-0.597,0.158,-37.1,3.6,-2.9,-5,26,-15.9,0.181096835,-0.646748253,-0.0766319773,-0.736869411
356,893980,1119010,0.995,-0.609,0.155,-36.7,3.5,-2.4,-6.2,27.4,-15.6,0.180547502,-0.646839808,-0.0760521256,-0.736991485
357,897023,1119010,0.979,-0.632,0.163,-36.1,3.8,-2,-6.2,27.4,-15.6,0.179998169,-0.646900845,-0.0754722739,-0.737113559
358,900127,1119020,0.975,-0.663,0.159,-34.9,4.5,-1.9,-6.2,27.4,-15.6,0.179479354,-0.646961882,-0.0749229408,-0.737266152
359,901453,1119020,0.963,-0.671,0.163,-33.3,5.7,-1.8,-6.2,27.4,-15.6,0.178991058,-0.647022919,-0.0744041261,-0.737388226
360,904632,1119020,0.94,-0.69,0.167,-31.3,7.2,-2,-7,27.5,-15.7,0.17853328,-0.647022919,-0.0738853114,-0.737571337
361,906330,1119020,0.936,-0.705,0.172,-29.1,8.7,-2.3,-7,27.5,-15.7,0.178106021,-0.646992401,-0.0734275338,-0.737754448
362,908987,1119030,0.924,-0.74,0.168,-26.6,10.2,-2.9,-7,27.5,-15.7,0.177678762,-0.646900845,-0.0730002747,-0.737937559
363,911938,1119030,0.924,-0.752,0.164,-23.9,11.4,-3.6,-7,27.5,-15.7,0.17731254,-0.64680929,-0.0726340526,-0.738151189
364,915178,1119030,0.92,-0.764,0.164,-20.7,12.5,-4.9,-6.5,27.6,-15.3,0.176946318,-0.646687216,-0.0723288675,-0.738395337
365,916575,1119030,0.897,-0.771,0.165,-17,13.6,-6.8,-6.5,27.6,-15.3,0.176641133,-0.646534623,-0.0720847194,-0.738639485
366,919600,1119040,0.865,-0.806,0.169,-12.7,14.6,-8.7,-6.5,27.6,-15.3,0.176335948,-0.646320994,-0.0719321268,-0.738883633
367,922770,1119040,0.857,-0.817,0.165,-7.8,15,-9.8,-6.5,27.6,-15.3,0.1760918,-0.646076846,-0.0718710898,-0.7391583
368,924118,1119040,0.861,-0.829,0.173,-2.5,14.3,-9.8,-6.5,27.7,-15.4,0.175908689,-0.645863216,-0.0719321268,-0.739402448
369,927276,1119040,0.861,-0.829,0.173,-2.5,14.3,-9.8,-6.5,27.7,-15.4,0.175908689,-0.645863216,-0.0719321268,-0.739402448
370,930286,1119050,0.869,-0.849,0.181,8.2,10.7,-8,-6.5,27.7,-15.4,0.175817133,-0.645405438,-0.0722678304,-0.73976867
371,932645,1119050,0.904,-0.849,0.176,13.7,8.3,-7,-6.5,27.7,-15.4,0.175908689,-0.645222327,-0.0725730155,-0.739890744
372,934295,1119050,0.896,-0.853,0.173,19.6,6,-6,-5,26.2,-15.6,0.1760918,-0.645039216,-0.0729392376,-0.739982299
373,936442,1119050,0.885,-0.861,0.181,25.7,4,-4.8,-5,26.2,-15.6,0.176396985,-0.644856105,-0.0733970153,-0.740012818
374,939698,1119060,0.916,-0.869,0.168,25.7,4,-4.8,-5,26.2,-15.6,0.17670217,-0.644672994,-0.0738853114,-0.740043336
375,941394,1119060,0.959,-0.882,0.171,32.2,2.1,-2.8,-5,26.2,-15.6,0.17709891,-0.644520402,-0.0744346446,-0.740043336
376,946026,1119060,0.994,-0.851,0.19,45.7,-2.9,4.1,-5.7,27.6,-15.6,0.177800836,-0.644398328,-0.0751060518,-0.739890744
377,946352,1119060,0.998,-0.835,0.194,45.7,-2.9,4.1,-5.7,27.6,-15.6,0.178502762,-0.644276254,-0.075777459,-0.73976867
378,950360,1119070,1.006,-0.824,0.194,52.7,-5.2,8.2,-5.7,27.6,-15.6,0.179387799,-0.64415418,-0.0765709403,-0.739585559
379,952643,1119070,1.022,-0.808,0.198,59.3,-6.5,11.9,-5.7,27.6,-15.6,0.18039491,-0.644062624,-0.0773644215,-0.739341411
380,955029,1119070,1.033,-0.773,0.209,65.1,-7.1,15,-5.6,27.1,-16.2,0.181524094,-0.64394055,-0.0782189398,-0.739066744
381,956878,1119070,1.033,-0.769,0.205,69.8,-7.6,17.6,-5.6,27.1,-16.2,0.182775353,-0.643818476,-0.0791650136,-0.738761559
382,958883,1119080,1.045,-0.762,0.209,73.1,-8,20.2,-5.6,27.1,-16.2,0.184118168,-0.643696402,-0.0800805689,-0.738456374
383,962317,1119080,1.049,-0.754,0.205,75.1,-8,22.9,-5.6,27.1,-16.2,0.185552538,-0.643543809,-0.0809961241,-0.738090152
384,964156,1119080,1.057,-0.742,0.212,76.1,-8,25.9,-4.9,27,-16.4,0.187017426,-0.643421735,-0.0818811609,-0.737754448
385,966444,1119080,1.065,-0.731,0.216,76.6,-7.7,28.8,-4.9,27,-16.4,0.188543352,-0.643299661,-0.0827661977,-0.737388226
386,968892,1119090,1.061,-0.715,0.216,77.2,-7.5,31.6,-4.9,27,-16.4,0.190130314,-0.643147069,-0.0835901975,-0.737022004
387,973394,1119090,1.042,-0.707,0.22,77.9,-7.2,34,-4.9,27,-16.4,0.191747795,-0.642994476,-0.0843836787,-0.736625263
388,973726,1119090,1.038,-0.703,0.224,78.7,-6.9,36.3,-4.8,27.2,-16.5,0.193426313,-0.642841884,-0.0851771599,-0.736228523
389,978215,1119090,1.038,-0.703,0.224,78.7,-6.9,36.3,-4.8,27.2,-16.5,0.193426313,-0.642841884,-0.0851771599,-0.736228523
390,980364,1119100,1.038,-0.703,0.224,80.2,-6,39.8,-4.8,27.2,-16.5,0.196905423,-0.64250618,-0.0867030854,-0.735404523
391,981913,1119100,1.018,-0.695,0.225,80.7,-5.4,40.7,-4.8,27.2,-16.5,0.198675497,-0.642323069,-0.0874355296,-0.735007782
392,984113,1119100,1.014,-0.695,0.229,80.7,-4.6,41.1,-4.7,26.3,-16.7,0.200415052,-0.642139958,-0.0881679739,-0.734611042
393,987726,1119100,1.01,-0.691,0.221,80.4,-3.5,41.3,-4.7,26.3,-16.7,0.202246162,-0.641926328,-0.0889004181,-0.734214301
394,989901,1119110,0.999,-0.691,0.217,79.5,-2.3,41.4,-4.7,26.3,-16.7,0.204016236,-0.64168218,-0.0896023438,-0.733848079
395,991728,1119110,0.979,-0.71,0.206,78.2,-1,41.6,-4.7,26.3,-16.7,0.205755791,-0.641438032,-0.090273751,-0.733512375
396,994122,1119110,0.971,-0.721,0.202,74.7,1.5,42.7,-4.9,26,-17.1,0.207495346,-0.641163366,-0.0908841212,-0.733176672
397,996724,1119110,0.963,-0.729,0.198,74.7,1.5,42.7,-4.9,26,-17.1,0.209204382,-0.640888699,-0.0914639729,-0.732871487
398,999043,1119120,0.959,-0.76,0.163,73.6,2.9,42.9,-4.9,26,-17.1,0.210943937,-0.640583514,-0.0920438246,-0.732566301
399,1001655,1119120,0.967,-0.757,0.155,73.5,4.3,42.8,-4.9,26,-17.1,0.212683493,-0.64024781,-0.0925931578,-0.732261116
400,1004235,1119120,0.959,-0.757,0.14,74.6,5.7,42.3,-4.4,25.8,-17.4,0.214392529,-0.639912107,-0.0931730094,-0.73198645
401,1006263,1119120,0.955,-0.764,0.132,77,6.9,41.8,-4.4,25.8,-17.4,0.216162603,-0.639515366,-0.0937833796,-0.731742302
402,1008879,1119130,0.931,-0.768,0.101,80.4,8,41.5,-4.4,25.8,-17.4,0.217963195,-0.639088107,-0.0944547868,-0.731498154
403,1011234,1119130,0.923,-0.768,0.097,84.7,8.8,41.7,-4.4,25.8,-17.4,0.219824824,-0.638630329,-0.0951567125,-0.731254006
404,1015471,1119130,0.916,-0.772,0.078,89,9.3,42.5,-4.3,25.7,-17.8,0.221778008,-0.638142033,-0.0959501938,-0.730979339
405,1017637,1119130,0.912,-0.776,0.062,93.6,9,43.6,-4.3,25.7,-17.8,0.22379223,-0.637623218,-0.0967741935,-0.730704672
406,1019821,1119140,0.915,-0.784,0.043,98.1,8,45.2,-4.3,25.7,-17.8,0.225898007,-0.637134922,-0.0976897488,-0.730368969
407,1023717,1119140,0.915,-0.78,0.043,102.5,6.5,47.1,-4.3,25.7,-17.8,0.228064821,-0.636616108,-0.0986358226,-0.730033265
408,1023717,1119140,0.911,-0.78,0.035,106.6,5.1,49.3,-3.5,25.4,-18.5,0.23035371,-0.636097293,-0.0996124149,-0.729606006
409,1027275,1119140,0.911,-0.78,0.035,106.6,5.1,49.3,-3.5,25.4,-18.5,0.23035371,-0.636097293,-0.0996124149,-0.729606006
410,1028731,1119150,0.939,-0.753,0.054,114.5,3.1,55,-3.5,25.4,-18.5,0.235206153,-0.635090182,-0.101657155,-0.728659932
411,1032175,1119150,0.947,-0.745,0.062,117.8,2.5,58.9,-3.5,25.4,-18.5,0.237769707,-0.634571368,-0.102725303,-0.728141118
412,1033739,1119150,0.947,-0.741,0.066,120.4,2.1,63.4,-3.8,25.4,-18.8,0.240455336,-0.634052553,-0.103762932,-0.727530747
413,1037514,1119150,0.967,-0.714,0.089,122.2,1.9,68.2,-3.8,25.4,-18.8,0.243232521,-0.633533738,-0.104739525,-0.726950896
414,1039150,1119160,0.978,-0.699,0.1,123.8,2,72.7,-3.8,25.4,-18.8,0.24610126,-0.632984405,-0.105685598,-0.726310007
415,1042314,1119160,0.99,-0.679,0.108,125.5,2,76.6,-3.8,25.4,-18.8,0.249061556,-0.63246559,-0.106601154,-0.7256386
416,1044300,1119160,1.002,-0.656,0.104,130,1,82.8,-3.1,25.1,-19,0.252143925,-0.631916257,-0.107516709,-0.724906156
417,1046638,1119160,0.994,-0.636,0.112,130,1,82.8,-3.1,25.1,-19,0.255256813,-0.631397443,-0.108432264,-0.724143193
418,1048898,1119170,1.002,-0.625,0.115,132.4,0.3,85.7,-3.1,25.1,-19,0.258430738,-0.630848109,-0.109347819,-0.723349712
419,1052921,1119170,1.01,-0.613,0.119,134.6,0,89,-3.1,25.1,-19,0.261696219,-0.630298776,-0.110232856,-0.722525712
420,1054702,1119170,1.026,-0.586,0.111,136.8,-0.2,92.3,-2.8,24.7,-19,0.265022736,-0.629718925,-0.111117893,-0.721671194
421,1057019,1119170,1.034,-0.567,0.103,139.4,-0.6,95.3,-2.8,24.7,-19,0.268440809,-0.629169591,-0.11200293,-0.720755638
422,1058994,1119180,1.037,-0.555,0.099,142.5,-1,97.7,-2.8,24.7,-19,0.271919919,-0.62858974,-0.112887967,-0.719809565
423,1062145,1119180,1.045,-0.54,0.083,145.9,-1.2,99.6,-2.8,24.7,-19,0.275490585,-0.627979369,-0.11383404,-0.718832972
424,1064937,1119180,1.049,-0.548,0.024,149.2,-0.9,101.7,-2.1,23.8,-19.7,0.279122288,-0.627338481,-0.114810633,-0.71785638
425,1066654,1119180,1.053,-0.536,0.001,152.3,0.1,103.9,-2.1,23.8,-19.7,0.282845546,-0.626667074,-0.115756706,-0.716818751
426,1069051,1119190,1.072,-0.521,-0.022,155.5,2.2,106.6,-2.1,23.8,-19.7,0.286629841,-0.625934629,-0.11670278,-0.71581164
427,1071853,1119190,1.158,-0.405,-0.04,158.9,5.5,109.6,-2.1,23.8,-19.7,0.29053621,-0.62511063,-0.117679373,-0.71477401
428,1074178,1119190,1.197,-0.359,-0.048,162.3,10.5,113.2,-1.8,23.7,-20.5,0.294534135,-0.624225593,-0.118594928,-0.7137669
429,1076522,1119190,1.197,-0.359,-0.048,162.3,10.5,113.2,-1.8,23.7,-20.5,0.294534135,-0.624225593,-0.118594928,-0.7137669
430,1079646,1119200,1.08,-0.478,-0.085,160.7,27,126.9,-1.8,23.7,-20.5,0.302896207,-0.622058779,-0.119998779,-0.711905271
431,1081541,1119200,0.97,-0.594,-0.095,152.5,38.9,137.9,-1.8,23.7,-20.5,0.307199316,-0.62080752,-0.120212409,-0.711142308
432,1085075,1119200,0.994,-0.559,-0.072,141.4,51.3,148.6,-1.8,23.6,-21.2,0.311563463,-0.619434187,-0.120090335,-0.710470901
433,1086795,1119200,0.915,-0.589,-0.05,131.1,61.4,155.3,-1.8,23.6,-21.2,0.315897092,-0.617999817,-0.119602039,-0.709891049
434,1090114,1119210,0.88,-0.612,-0.026,123.6,67.9,156.3,-1.8,23.6,-21.2,0.320139164,-0.616473891,-0.118930631,-0.709402753
435,1092549,1119210,0.795,-0.668,0.025,118.6,70.9,152.9,-1.8,23.6,-21.2,0.324289682,-0.614947966,-0.118198187,-0.708975494
436,1093956,1119210,0.795,-0.668,0.025,118.6,70.9,152.9,-1.8,23.6,-21.2,0.324289682,-0.614947966,-0.118198187,-0.708975494
437,1098069,1119210,0.771,-0.668,0.081,111.7,67.8,143.1,0.5,23,-21.2,0.33231605,-0.612598041,-0.116367077,-0.707602161
438,1100071,1119220,0.764,-0.589,0.163,109.9,61.7,138,0.5,23,-21.2,0.336069826,-0.611194189,-0.115756706,-0.707144383
439,1102212,1119220,0.768,-0.558,0.182,109.6,53.4,133.2,0.5,23,-21.2,0.339732047,-0.609881893,-0.11526841,-0.70659505
440,1104600,1119220,0.741,-0.589,0.187,110.1,44.2,130.3,1.1,22.6,-21.7,0.343333232,-0.60872219,-0.114902188,-0.705923643
441,1106723,1119220,0.729,-0.596,0.183,110,35.4,131.4,1.1,22.6,-21.7,0.346903897,-0.607654042,-0.114597003,-0.705130161
442,1108923,1119230,0.792,-0.547,0.154,110,27,136.3,1.1,22.6,-21.7,0.350505081,-0.606738487,-0.114291818,-0.704184088
443,1112783,1119230,0.784,-0.543,0.123,112.1,18.6,142.7,1.1,22.6,-21.7,0.354228339,-0.605945006,-0.113956114,-0.703054903
444,1115732,1119230,0.795,-0.528,0.08,118.5,10.3,148.4,1.5,21.9,-22.2,0.35810419,-0.60524308,-0.113742485,-0.701742607
445,1117618,1119230,0.881,-0.49,0.035,130.1,2.3,152.4,1.5,21.9,-22.2,0.362163152,-0.604571673,-0.113711966,-0.7002472
446,1119722,1119240,0.994,-0.426,-0.037,146.8,-4.8,154.8,1.5,21.9,-22.2,0.366435743,-0.603869747,-0.113956114,-0.6985992
447,1123506,1119240,1.053,-0.388,-0.069,167.2,-10.4,156.1,1.5,21.9,-22.2,0.370983001,-0.603076266,-0.114505448,-0.696798608
448,1123776,1119240,1.111,-0.346,-0.098,189.6,-13.3,156.9,2.5,21.6,-22.8,0.375835444,-0.602099673,-0.115451521,-0.694845424
449,1127267,1119240,1.111,-0.346,-0.098,189.6,-13.3,156.9,2.5,21.6,-22.8,0.375835444,-0.602099673,-0.115451521,-0.694845424
450,1129251,1119250,1.142,-0.308,-0.173,231.6,-10.6,159.1,2.5,21.6,-22.8,0.386394848,-0.599597156,-0.118198187,-0.690786462
451,1131424,1119250,1.111,-0.304,-0.188,247.4,-7.3,161,2.5,21.6,-22.8,0.392010254,-0.598010193,-0.119876705,-0.688680685
452,1134793,1119250,1.111,-0.253,-0.188,259,-4.9,162.9,1.4,20.2,-23.4,0.39783929,-0.596301157,-0.121677297,-0.686513871
453,1136902,1119250,1.322,-0.124,-0.176,266.6,-4.6,164,1.4,20.2,-23.4,0.403729362,-0.594470046,-0.123569445,-0.684316538
454,1138996,1119260,1.299,-0.186,-0.172,269.6,-5.7,163.5,1.4,20.2,-23.4,0.409649953,-0.592608417,-0.125522629,-0.682058168
455,1142805,1119260,1.233,-0.157,-0.128,266.2,-5.2,161.2,1.4,20.2,-23.4,0.415478988,-0.590716269,-0.127445296,-0.679799799
456,1144809,1119260,1.253,-0.106,-0.054,256.5,-0.2,158.8,2.6,19.4,-24,0.421124912,-0.588824122,-0.129184851,-0.677632984
457,1147050,1119260,1.159,-0.136,-0.044,241.4,10.1,158.2,2.6,19.4,-24,0.426587725,-0.586901456,-0.130649739,-0.675618763
458,1149108,1119270,1.112,-0.158,-0.024,222.2,24.7,161,2.6,19.4,-24,0.431867428,-0.584917753,-0.131626331,-0.673787652
459,1152356,1119270,0.924,-0.272,-0.024,198.9,41.7,166.6,2.6,19.4,-24,0.436964019,-0.582903531,-0.132023072,-0.672170171
460,1154680,1119270,0.489,-0.582,-0.09,173,58.7,172.8,3.4,19.1,-24.8,0.441877499,-0.580889309,-0.131809442,-0.67076632
461,1156778,1119270,0.286,-0.708,-0.148,149,70.2,177,3.4,19.1,-24.8,0.446546831,-0.578905606,-0.13104648,-0.669515061
462,1158922,1119280,0.379,-0.651,-0.174,133.5,69.1,176.6,3.4,19.1,-24.8,0.451002533,-0.577105014,-0.130100406,-0.668263802
463,1162856,1119280,0.43,-0.66,-0.19,132,49.8,169.8,3.4,19.1,-24.8,0.455275124,-0.57554857,-0.12939848,-0.666829432
464,1165666,1119280,0.762,-0.657,-0.173,143.6,14.1,157.5,4,18.1,-24.7,0.459395123,-0.574358348,-0.129367962,-0.66502884
465,1166311,1119280,0.997,-0.626,-0.122,161.1,-29.7,142.6,4,18.1,-24.7,0.463362529,-0.573564867,-0.13022248,-0.66277047
466,1168942,1119290,1.181,-0.597,-0.071,176.3,-70.3,129.6,4,18.1,-24.7,0.467268899,-0.573168126,-0.131839961,-0.660084841
467,1172196,1119290,1.263,-0.575,-0.069,184.5,-98.2,121.9,4,18.1,-24.7,0.471053194,-0.573046052,-0.133976257,-0.657063509
468,1174479,1119290,1.263,-0.532,-0.077,185.7,-108.3,122.3,3.7,17.2,-25.3,0.47480697,-0.573046052,-0.136234626,-0.653889584
469,1177671,1119290,1.263,-0.532,-0.077,185.7,-108.3,122.3,3.7,17.2,-25.3,0.47480697,-0.573046052,-0.136234626,-0.653889584
470,1179747,1119300,1.353,-0.42,-0.047,179.6,-79,148.4,3.7,17.2,-25.3,0.482772301,-0.572649312,-0.139744255,-0.64763329
471,1181216,1119300,1.412,-0.327,-0.017,176.7,-49.7,171,3.7,17.2,-25.3,0.487228004,-0.572008423,-0.140629292,-0.644672994
472,1185567,1119300,1.444,-0.32,-0.022,173.4,-17.5,197.2,3.8,16.1,-25.9,0.492110965,-0.571001312,-0.140812403,-0.641804254
473,1187280,1119300,1.424,-0.257,-0.018,168.5,13.9,224.7,3.8,16.1,-25.9,0.497390667,-0.569658498,-0.140202033,-0.63902707
474,1189815,1119310,1.425,-0.148,-0.029,162.5,42.5,251.8,3.8,16.1,-25.9,0.503036592,-0.568071535,-0.138889737,-0.636310923
475,1191636,1119310,1.588,-0.128,-0.087,155.8,67.1,277.9,3.8,16.1,-25.9,0.50901822,-0.566240425,-0.136844996,-0.633625294
476,1195572,1119310,1.649,-0.337,-0.237,146.8,88.9,302.5,5,15.6,-25.4,0.515274514,-0.56428724,-0.134159368,-0.630909146
477,1198381,1119310,1.611,-0.293,-0.213,134.1,110.9,321.6,5,15.6,-25.4,0.521652882,-0.562181463,-0.130802332,-0.628223518
478,1198828,1119320,1.267,-0.216,-0.183,120.8,134.5,327.9,5,15.6,-25.4,0.528000732,-0.559862056,-0.126895962,-0.625782037
479,1201271,1119320,1.123,-0.175,-0.145,113.1,157.8,319.2,5,15.6,-25.4,0.534165471,-0.557267983,-0.122714927,-0.623706778
480,1205434,1119320,1.049,-0.185,-0.12,114.9,175,301.7,6.5,14.8,-24.7,0.540116581,-0.554338206,-0.118564409,-0.621997742
481,1206985,1119320,1.021,-0.263,-0.127,122.5,180.7,285.8,6.5,14.8,-24.7,0.545945616,-0.551164281,-0.114627522,-0.620471816
482,1209760,1119330,1.005,-0.439,-0.178,129.2,173.7,276.9,6.5,14.8,-24.7,0.551652577,-0.547959838,-0.110995819,-0.618915372
483,1211442,1119330,0.989,-0.556,-0.22,130.6,156,273.4,6.5,14.8,-24.7,0.557267983,-0.544907987,-0.107608264,-0.617145299
484,1215524,1119330,1.024,-0.631,-0.217,128.6,132,271.4,7.5,13.9,-24,0.562761315,-0.542191839,-0.104495376,-0.615100558
485,1218394,1119330,1.067,-0.615,-0.151,129,106.7,268.7,7.5,13.9,-24,0.568102054,-0.539780877,-0.101718192,-0.612750633
486,1218756,1119340,1.169,-0.687,-0.129,134.9,83.4,265.7,7.5,13.9,-24,0.573442793,-0.537583544,-0.0993682669,-0.610126041
487,1223529,1119340,1.285,-0.811,-0.171,143.5,61.8,262.6,7.5,13.9,-24,0.578722495,-0.535508286,-0.0974150822,-0.607257302
488,1223837,1119340,1.384,-0.78,0.007,149.8,39.8,257.3,8.5,12.9,-24.3,0.583971679,-0.533616138,-0.0958891568,-0.604144414
489,1227956,1119340,1.384,-0.78,0.007,149.8,39.8,257.3,8.5,12.9,-24.3,0.583971679,-0.533616138,-0.0958891568,-0.604144414
490,1230226,1119350,2.468,0.362,1.762,161.9,-4.7,239.7,8.5,12.9,-24.3,0.594073305,-0.530411695,-0.0942106388,-0.597338786
491,1232469,1119350,3.086,0.851,2.388,172.5,-19.4,234.6,8.5,12.9,-24.3,0.599078341,-0.528916288,-0.0939970092,-0.593707083
492,1234771,1119350,3.886,1.129,2.803,178.7,-23.2,236.3,8.3,11.6,-28,0.604144414,-0.527359844,-0.0939054537,-0.589953307
493,1236721,1119350,5.467,1.775,2.929,173.6,-16.7,242.8,8.3,11.6,-28,0.609210486,-0.525772881,-0.0935697501,-0.58619953
494,1239056,1119360,5.507,2.177,2.207,159.6,-6.5,250.8,8.3,11.6,-28,0.614215522,-0.524216437,-0.0928067873,-0.582445753
495,1242247,1119360,4.606,2.502,0.908,147.3,-4,258.8,8.3,11.6,-28,0.61915952,-0.522812586,-0.091769158,-0.57863094
496,1244271,1119360,1.947,3.916,-1.863,155.6,-18.8,261.6,8.5,10.9,-26,0.624195074,-0.521469771,-0.0910061953,-0.574571978
497,1248347,1119360,0.968,4.332,-3.279,206.2,-52.4,247.4,8.5,10.9,-26,0.629535813,-0.519791253,-0.0914944914,-0.570177313
498,1250531,1119370,1.051,3.888,-4.219,303.4,-97.5,206.2,8.5,10.9,-26,0.63533433,-0.517227699,-0.0942411573,-0.565599536
499,1252804,1119370,1.002,3.404,-4.323,427.8,-139.6,143.5,8.5,10.9,-26,0.641590625,-0.513290811,-0.099856563,-0.561113315
500,1254923,1119370,1.025,3.454,-2.949,560.4,-163.6,77.6,7.7,8.9,-26.6,0.648426771,-0.50758385,-0.108127079,-0.556932279
501,1257241,1119370,0.984,3.67,-2.052,699.4,-163.8,20.3,7.7,8.9,-26.6,0.655934324,-0.499649037,-0.118686483,-0.553117466
502,1259299,1119380,0.53,4.17,-1.234,840.5,-142.4,-29.5,7.7,8.9,-26.6,0.664265877,-0.489181188,-0.131168554,-0.549729911
503,1261617,1119380,-0.128,4.79,-0.679,950.8,-102.9,-80.8,7.7,8.9,-26.6,0.672994171,-0.476302377,-0.144901883,-0.546952727
504,1263955,1119380,-1.249,5.526,-1.122,988.9,-41.9,-143.2,7.5,3.8,-27.1,0.681264687,-0.46171453,-0.158787805,-0.545365764
505,1266274,1119380,-1.766,6.079,-1.591,940.3,41.6,-223.1,7.5,3.8,-27.1,0.688100833,-0.44636372,-0.17157506,-0.545701468
506,1269980,1119390,-1.811,6.725,-1.583,824.1,138.5,-317.5,7.5,3.8,-27.1,0.692709128,-0.431073946,-0.182348094,-0.548631245
507,1272198,1119390,-0.584,6.072,-0.509,660.7,232.3,-406.9,7.5,3.8,-27.1,0.694875942,-0.416608173,-0.190557573,-0.554277169
508,1274393,1119390,0.233,5.67,0.016,445.5,304,-463.5,8.3,1.8,-27.7,0.69450972,-0.404217658,-0.19553209,-0.562120426
509,1276522,1119390,0.233,5.67,0.016,445.5,304,-463.5,8.3,1.8,-27.7,0.69450972,-0.404217658,-0.19553209,-0.562120426
510,1279803,1119400,0.003,3.568,0.005,-201.1,330.7,-410.8,8.3,1.8,-27.7,0.686056093,-0.392742698,-0.192449721,-0.581347087
511,1281789,1119400,0.026,2.351,-0.172,-589,282.1,-313.4,8.3,1.8,-27.7,0.678151799,-0.396618549,-0.183416242,-0.590807825
512,1284025,1119400,0.122,1.865,-0.248,-938.3,203.8,-206.4,10,6.8,-28.5,0.668019654,-0.406964324,-0.170049135,-0.599291971
513,1287241,1119400,0.315,1.486,-0.317,-1197.6,110.4,-123.5,10,6.8,-28.5,0.655964843,-0.422345653,-0.153813288,-0.606311228
514,1289277,1119410,0.595,1.121,-0.408,-1355.5,16.9,-83.2,10,6.8,-28.5,0.642139958,-0.441084017,-0.1363567,-0.611926634
515,1291544,1119410,1.345,0.443,-0.671,-1435.1,-66.1,-85.8,10,6.8,-28.5,0.626667074,-0.461592456,-0.118869594,-0.616473891
516,1294717,1119410,1.94,0.077,-0.83,-1471.7,-135.1,-119.8,9.5,12.5,-26.5,0.60954619,-0.482985931,-0.102084414,-0.620227668
517,1296753,1119410,2.68,-0.335,-1.051,-1497.5,-191.4,-167.3,9.5,12.5,-26.5,0.590746788,-0.504837184,-0.0860316782,-0.623432112
518,1299035,1119420,4.212,-1.702,-2.087,-1533.3,-238.8,-209.8,9.5,12.5,-26.5,0.57023835,-0.527146214,-0.0705587939,-0.626026185
519,1302926,1119420,5.3,-2.996,-3.123,-1589,-280.7,-230.6,9.5,12.5,-26.5,0.548020875,-0.550065615,-0.0549638356,-0.627735221
520,1305181,1119420,6.139,-5.133,-4.141,-1661.7,-317.7,-215.5,8.2,19.3,-23.4,0.52436903,-0.573656423,-0.0385448775,-0.628040407
521,1307395,1119420,6.216,-6.973,-4.593,-1730,-350.6,-149.9,8.2,19.3,-23.4,0.499984741,-0.59767449,-0.0207220679,-0.626361888
522,1308871,1119430,4.726,-8.128,-2.958,-1751.1,-379.6,-26.3,8.2,19.3,-23.4,0.47624134,-0.621478927,-0.00125125889,-0.621997742
523,1311706,1119430,3.188,-8.093,-2.088,-1667.6,-392.8,141.6,8.2,19.3,-23.4,0.455214087,-0.64372692,0.019165624,-0.614825892
524,1314975,1119430,1.861,-7.919,-1.366,-1438.4,-363.4,316.2,7.9,24.2,-19.9,0.439161351,-0.66237373,0.0392773217,-0.605639821
525,1317316,1119430,0.934,-7.168,-0.567,-1074.3,-274,449.5,7.9,24.2,-19.9,0.429639576,-0.6756798,0.0573442793,-0.59624012
526,1319287,1119440,-0.429,-5.496,0.311,-642.9,-136.5,508.3,7.9,24.2,-19.9,0.426892911,-0.682729575,0.0718710898,-0.588549455
527,1323040,1119440,-0.89,-4.666,0.542,-232.9,12,484.1,7.9,24.2,-19.9,0.429578539,-0.683950316,0.0822168645,-0.583819086
528,1324646,1119440,-1.152,-3.864,0.667,92.5,141.1,392.6,10.1,23.8,-19.6,0.435682241,-0.680562761,0.0882290109,-0.582384716
529,1326736,1119440,-1.152,-3.864,0.667,92.5,141.1,392.6,10.1,23.8,-19.6,0.435682241,-0.680562761,0.0882290109,-0.582384716
530,1328965,1119450,-1.489,-2.23,0.349,428.8,304.3,140.9,10.1,23.8,-19.6,0.450666829,-0.665669729,0.090029603,-0.587878048
531,1332175,1119450,-1.563,-1.874,0.197,472.1,342.6,46.2,10.1,23.8,-19.6,0.45741142,-0.656483657,0.0879848628,-0.593279824
532,1334161,1119450,-1.507,-1.52,0.085,467.1,352.1,-5,11.2,22.7,-19.2,0.463332011,-0.647236549,0.0853907895,-0.599230934
533,1337355,1119450,-0.978,-1.527,-0.233,435.2,327.3,-16.8,11.2,22.7,-19.2,0.468611713,-0.638538774,0.0827661977,-0.604785302
534,1339692,1119460,-0.689,-1.372,-0.293,393.3,264.3,-3.2,11.2,22.7,-19.2,0.473525193,-0.631000702,0.0802331614,-0.609179968
535,1341673,1119460,-0.265,-0.953,-0.259,356.8,168.4,18.8,11.2,22.7,-19.2,0.478377636,-0.625019074,0.0774864956,-0.611926634
536,1344032,1119460,0.455,-0.814,-0.468,334,54.2,38.3,11.7,22.1,-20.4,0.483352153,-0.620715964,0.0741294595,-0.61281167
537,1346421,1119460,0.913,-0.576,-0.567,322.7,-57.2,52.1,11.7,22.1,-20.4,0.488509781,-0.617969298,0.0699179052,-0.611987671
538,1350623,1119470,1.077,-0.485,-0.598,315.2,-146.7,63.7,11.7,22.1,-20.4,0.493820002,-0.616473891,0.0650044252,-0.609790338
539,1352257,1119470,1.214,-0.557,-0.479,305.3,-201.4,78.1,11.7,22.1,-20.4,0.499221778,-0.615741447,0.0598162786,-0.606646931
540,1354290,1119470,1.206,-0.767,-0.334,294.7,-220.1,96.5,11.2,21.3,-21.2,0.504745628,-0.61528367,0.054811243,-0.603015229
541,1356539,1119470,1.187,-0.708,-0.286,289.4,-210.4,114.5,11.2,21.3,-21.2,0.510361034,-0.614703818,0.0502029481,-0.599230934
542,1359777,1119480,1.058,-0.92,-0.233,294.8,-184.6,123.8,11.2,21.3,-21.2,0.516129032,-0.613696707,0.0459303568,-0.595690786
543,1361868,1119480,1.154,-0.616,-0.004,311,-152.9,115.5,11.2,21.3,-21.2,0.521927549,-0.612018189,0.041749321,-0.592638936
544,1363776,1119480,1.471,0.067,0.356,330.4,-122.6,87.2,11.2,19.7,-22.3,0.527542955,-0.609759819,0.0372325816,-0.59028901
545,1367615,1119480,1.624,0.268,0.474,341.8,-97,46.5,11.2,19.7,-22.3,0.53276162,-0.607013153,0.03234962,-0.588732566
546,1370005,1119490,1.651,0.225,0.478,333.7,-76.1,9.9,11.2,19.7,-22.3,0.537339396,-0.604083377,0.0272835475,-0.587817011
547,1373405,1119490,1.467,0.189,0.399,302.1,-57.3,-7.5,11.2,19.7,-22.3,0.541245766,-0.601275674,0.022644734,-0.587328715
548,1373713,1119490,1.204,0.028,0.247,254.3,-38.3,-1.4,10.8,18.6,-23.1,0.544572283,-0.598742637,0.0189214759,-0.586962493
549,1377950,1119490,1.204,0.028,0.247,254.3,-38.3,-1.4,10.8,18.6,-23.1,0.544572283,-0.598742637,0.0189214759,-0.586962493
550,1380217,1119500,0.849,0.237,0.117,172.5,-6,41.3,10.8,18.6,-23.1,0.550309763,-0.594531083,0.014557329,-0.586016419
551,1382199,1119500,0.715,0.231,0.013,157.8,1,49,10.8,18.6,-23.1,0.552995392,-0.592608417,0.0131839961,-0.585467086
552,1383842,1119500,0.669,0.282,0.03,158.8,-1,39.2,10.7,17.3,-22.3,0.555528428,-0.590685751,0.0116580706,-0.585039827
553,1386869,1119500,0.63,0.346,0.062,167.9,-11.6,19.2,10.7,17.3,-22.3,0.55793939,-0.588793603,0.00961333048,-0.584704123
554,1389297,1119510,0.591,0.389,0.105,178.3,-27,0.5,10.7,17.3,-22.3,0.560258797,-0.586962493,0.00701925718,-0.584368419
555,1391518,1119510,0.506,0.375,0.138,184,-42.1,-11.1,10.7,17.3,-22.3,0.56245613,-0.585253456,0.00399792474,-0.584002197
556,1393954,1119510,0.424,0.354,0.187,180.4,-52.2,-15.8,10.4,16.2,-24.9,0.564561907,-0.583697012,0.000854518265,-0.583513901
557,1397653,1119510,0.369,0.308,0.243,165.4,-55,-16.3,10.4,16.2,-24.9,0.566454054,-0.582354198,-0.00210577715,-0.582995087
558,1399910,1119520,0.385,0.222,0.364,140.7,-50.8,-14.8,10.4,16.2,-24.9,0.568041017,-0.581255531,-0.00469985046,-0.582567827
559,1401950,1119520,0.417,0.195,0.434,110.9,-42.6,-12.5,10.4,16.2,-24.9,0.569292276,-0.580431532,-0.00680562761,-0.582140568
560,1404105,1119520,0.448,0.112,0.477,80.3,-33.6,-10,10.5,14.9,-25.1,0.570177313,-0.57985168,-0.0083620716,-0.581835383
561,1406412,1119520,0.491,0.053,0.507,52.4,-25.6,-7.4,10.5,14.9,-25.1,0.570757164,-0.579515976,-0.00946073794,-0.581591235
562,1408881,1119530,0.503,0.01,0.542,28.3,-18.4,-5.1,10.5,14.9,-25.1,0.571031831,-0.579393902,-0.0101016266,-0.581408124
563,1412950,1119530,0.46,0.066,0.551,8.7,-11.7,-3.1,10.5,14.9,-25.1,0.571092868,-0.579454939,-0.0104068117,-0.581316568
564,1415677,1119530,0.448,0.117,0.543,-6.4,-4.9,-1.2,10.3,15.1,-25.1,0.571001312,-0.579577013,-0.0104068117,-0.581255531
565,1417953,1119530,0.425,0.113,0.512,-17.3,2,0.6,10.3,15.1,-25.1,0.570787683,-0.579790643,-0.0101321451,-0.58128605
566,1420368,1119540,0.421,0.136,0.458,-23.6,9.3,1.8,10.3,15.1,-25.1,0.570513016,-0.579943236,-0.00970488601,-0.581377606
567,1422585,1119540,0.409,0.148,0.438,-24.2,16.8,1.5,10.3,15.1,-25.1,0.57023835,-0.580034791,-0.00915555284,-0.581591235
568,1424838,1119540,0.397,0.175,0.419,-18.1,25.1,0,10.3,15.1,-25,0.569994201,-0.579943236,-0.00863673818,-0.58189642
569,1426820,1119540,0.397,0.175,0.419,-18.1,25.1,0,10.3,15.1,-25,0.569994201,-0.579943236,-0.00863673818,-0.58189642
570,1429004,1119550,0.299,0.247,0.323,10.1,44.3,-7.4,10.3,15.1,-25,0.569933164,-0.578905606,-0.00781273843,-0.582995087
571,1431584,1119550,0.174,0.268,0.235,27.9,54.1,-15.1,10.3,15.1,-25,0.570116276,-0.577867977,-0.00769066439,-0.583910642
572,1435051,1119550,0.03,0.376,0.233,47.1,62.1,-26.1,10.5,17.6,-23.7,0.570390942,-0.576464125,-0.00787377544,-0.585009308
573,1437315,1119550,-0.411,0.325,0.16,68.3,65.7,-38.7,10.5,17.6,-23.7,0.570757164,-0.574785607,-0.00839259011,-0.586291086
574,1439304,1119560,-0.403,0.333,0.222,89.5,60.1,-52.2,10.5,17.6,-23.7,0.571214942,-0.572862941,-0.00946073794,-0.587694937
575,1441561,1119560,-0.376,0.278,0.288,106.9,40,-68.3,10.5,17.6,-23.7,0.571703238,-0.571001312,-0.0111697745,-0.589007233
576,1445061,1119560,-0.054,0.269,0.439,115.5,2.7,-89.9,10.3,15.9,-24.5,0.571977905,-0.569505905,-0.0137333293,-0.590136418
577,1446606,1119560,0.156,0.278,0.494,111.5,-48.5,-118.6,10.3,15.9,-24.5,0.571825312,-0.568712424,-0.0172734764,-0.590990936
578,1448892,1119570,0.386,0.262,0.513,91.4,-106.1,-151.6,10.3,15.9,-24.5,0.570940275,-0.568865017,-0.0216071047,-0.591509751
579,1451712,1119570,0.519,0.268,0.506,54.5,-160.4,-183.3,10.3,15.9,-24.5,0.569170202,-0.570177313,-0.0266121403,-0.591784417
580,1454800,1119570,0.936,0.096,0.475,3.9,-203.7,-207.9,9.5,16.7,-25.1,0.566393017,-0.572618793,-0.0317697684,-0.591814936
581,1456341,1119570,1.014,0.017,0.419,-54.2,-231.8,-222.2,9.5,16.7,-25.1,0.562669759,-0.576097903,-0.0367442854,-0.591692862
582,1459479,1119580,1.142,-0.075,0.39,-111.8,-243.9,-226.2,9.5,16.7,-25.1,0.55815302,-0.580431532,-0.0411084323,-0.591448714
583,1461585,1119580,1.216,-0.135,0.341,-162.2,-241.7,-222.5,9.5,16.7,-25.1,0.552995392,-0.585314493,-0.0448011719,-0.591235084
584,1465554,1119580,1.36,-0.325,0.288,-201.7,-229,-214.8,8.2,18,-25.1,0.547379986,-0.590472121,-0.0477004303,-0.591082492
585,1467002,1119580,1.383,-0.372,0.253,-230.3,-210.3,-206.1,8.2,18,-25.1,0.541520432,-0.595690786,-0.049897763,-0.591051973
586,1469123,1119590,1.41,-0.416,0.233,-249.9,-189,-198.4,8.2,18,-25.1,0.535508286,-0.600848415,-0.0514847255,-0.591204566
587,1473004,1119590,1.452,-0.597,0.17,-262.9,-167.4,-192.5,8.2,18,-25.1,0.529374065,-0.60585345,-0.0525223548,-0.591509751
588,1474510,1119590,1.474,-0.707,0.114,-272.2,-146.6,-188.4,7.4,19.5,-24.5,0.523148289,-0.610644856,-0.0532242805,-0.592059084
589,1476622,1119590,1.474,-0.707,0.114,-272.2,-146.6,-188.4,7.4,19.5,-24.5,0.523148289,-0.610644856,-0.0532242805,-0.592059084
590,1480641,1119600,1.548,-0.861,0.004,-283.5,-109.9,-187.1,7.4,19.5,-24.5,0.510483108,-0.619617298,-0.0536515397,-0.593737602
591,1482868,1119600,1.59,-0.983,-0.062,-283.2,-93.7,-189.2,7.4,19.5,-24.5,0.504074221,-0.623767815,-0.0535905026,-0.594897305
592,1485648,1119600,1.609,-1.031,-0.086,-276.1,-78.2,-191.3,5.9,20.3,-23.4,0.497726371,-0.627582629,-0.0534684286,-0.59624012
593,1487518,1119600,1.593,-1.07,-0.117,-261.2,-63,-191.3,5.9,20.3,-23.4,0.491592151,-0.631000702,-0.0533768731,-0.597735527
594,1489631,1119610,1.573,-1.105,-0.152,-239.2,-48.9,-187.5,5.9,20.3,-23.4,0.485763115,-0.633960997,-0.0533463546,-0.599353008
595,1491629,1119610,1.518,-1.147,-0.182,-211.2,-36.3,-179.1,5.9,20.3,-23.4,0.480452895,-0.636463515,-0.0534379101,-0.600970489
596,1494724,1119610,1.471,-1.138,-0.181,-178.8,-25.1,-166.5,5.7,20.7,-23.1,0.475753044,-0.638447218,-0.0536820582,-0.60258797
597,1496262,1119610,1.436,-1.126,-0.181,-143.1,-15,-151.2,5.7,20.7,-23.1,0.471755119,-0.639942625,-0.0540482803,-0.604113895
598,1499244,1119620,1.32,-0.995,-0.147,-106.2,-5.5,-135.5,5.7,20.7,-23.1,0.46845912,-0.640949736,-0.0545976135,-0.605548265
599,1502541,1119620,1.211,-0.93,-0.122,-70.4,3.5,-120.6,5.7,20.7,-23.1,0.465895566,-0.641468551,-0.0553300577,-0.606891079
600,1503903,1119620,1.125,-0.909,-0.12,-38.5,11.7,-106.9,4.9,21.5,-23,0.463942381,-0.641590625,-0.0561845759,-0.608203375
601,1507960,1119620,1.059,-0.881,-0.111,-13,18.3,-94,4.9,21.5,-23,0.46253853,-0.641346477,-0.0571611682,-0.609424116
602,1509792,1119630,0.981,-0.829,-0.102,4.6,22,-81.8,4.9,21.5,-23,0.461531419,-0.640919218,-0.0581377606,-0.610553301
603,1511274,1119630,0.946,-0.808,-0.098,16.1,22.5,-72.1,4.9,21.5,-23,0.460829493,-0.640369884,-0.0591143529,-0.611560411
604,1515287,1119630,0.918,-0.784,-0.085,24,20.3,-66.9,5.2,21.2,-22.8,0.460310678,-0.639759514,-0.0601825007,-0.612506485
605,1517894,1119630,0.895,-0.753,-0.069,31.3,16.5,-67.5,5.2,21.2,-22.8,0.459852901,-0.639149144,-0.0613727226,-0.613361003
606,1520027,1119640,0.864,-0.674,-0.03,39.3,12.4,-74.1,5.2,21.2,-22.8,0.459425642,-0.638477737,-0.0628070925,-0.614215522
607,1521866,1119640,0.845,-0.646,-0.018,48.3,8.7,-85.4,5.2,21.2,-22.8,0.458967864,-0.637745293,-0.0645466475,-0.615131077
608,1524056,1119640,0.837,-0.611,-0.014,57.6,6,-99.2,4.2,20.9,-23.6,0.458449049,-0.636951811,-0.0666524247,-0.616138188
609,1527377,1119640,0.837,-0.611,-0.014,57.6,6,-99.2,4.2,20.9,-23.6,0.458449049,-0.636951811,-0.0666524247,-0.616138188
610,1529274,1119650,0.846,-0.509,0.055,73,2.4,-126.4,4.2,20.9,-23.6,0.457167272,-0.635120701,-0.0718100528,-0.618396558
611,1532411,1119650,0.85,-0.482,0.087,77.8,1.3,-136.8,4.2,20.9,-23.6,0.456404309,-0.63411359,-0.0747398297,-0.619678335
612,1533864,1119650,0.843,-0.446,0.114,80.2,0.7,-144,4.2,19.9,-23.2,0.455549791,-0.633045442,-0.0778221992,-0.620960112
613,1536967,1119650,0.855,-0.384,0.157,80.1,0.8,-147.6,4.2,19.9,-23.2,0.454664754,-0.631977294,-0.0809350871,-0.622302927
614,1540276,1119660,0.855,-0.356,0.176,77.7,1.3,-147.9,4.2,19.9,-23.2,0.45371868,-0.630939665,-0.0840174566,-0.623645741
615,1542633,1119660,0.855,-0.329,0.204,72.8,2.3,-145,4.2,19.9,-23.2,0.452742088,-0.629871517,-0.086977752,-0.624988556
616,1545070,1119660,0.848,-0.281,0.243,65.5,3.5,-139.8,3.3,20.8,-23.2,0.451734977,-0.628955962,-0.0897549364,-0.626300851
617,1547781,1119660,0.848,-0.262,0.262,56.5,4.8,-132.9,3.3,20.8,-23.2,0.450727866,-0.628070925,-0.0922879727,-0.62755211
618,1549287,1119670,0.84,-0.242,0.274,46.1,6.2,-125.4,3.3,20.8,-23.2,0.4496292,-0.627277444,-0.0945768609,-0.628772851
619,1551587,1119670,0.84,-0.23,0.278,34.9,7.4,-118.3,3.3,20.8,-23.2,0.448500015,-0.626575518,-0.096621601,-0.629963073
620,1554806,1119670,0.821,-0.203,0.294,23.4,8.2,-112.3,2.3,20.9,-23.1,0.447309793,-0.625965148,-0.0983916746,-0.631122776
621,1556566,1119670,0.809,-0.191,0.294,12.3,8.6,-108,2.3,20.9,-23.1,0.445997497,-0.62550737,-0.0999481185,-0.632282479
622,1560073,1119680,0.805,-0.183,0.302,1.9,8.5,-106.1,2.3,20.9,-23.1,0.444593646,-0.625141148,-0.10135197,-0.633411664
623,1561499,1119680,0.802,-0.175,0.298,-7.2,7.8,-106.3,2.3,20.9,-23.1,0.443037202,-0.624866482,-0.102603229,-0.634571368
624,1564062,1119680,0.79,-0.167,0.287,-15.2,6.6,-108.7,1.7,21.3,-23.7,0.441328166,-0.62468337,-0.103823969,-0.635731071
625,1566845,1119680,0.79,-0.163,0.283,-21.6,5.1,-113,1.7,21.3,-23.7,0.439466536,-0.624561296,-0.105014191,-0.636951811
626,1570404,1119690,0.79,-0.159,0.279,-26.5,3.4,-118.5,1.7,21.3,-23.7,0.437482833,-0.624500259,-0.106234931,-0.63820307
627,1572704,1119690,0.798,-0.155,0.263,-29.8,1.7,-124.8,1.7,21.3,-23.7,0.435316019,-0.624469741,-0.10748619,-0.639484848
628,1574791,1119690,0.805,-0.148,0.263,-31.8,0.1,-131.4,1,21.2,-23.5,0.433057649,-0.624439222,-0.108829005,-0.640797143
629,1577138,1119690,0.805,-0.148,0.263,-31.8,0.1,-131.4,1,21.2,-23.5,0.433057649,-0.624439222,-0.108829005,-0.640797143
630,1579202,1119700,0.825,-0.148,0.247,-33.1,-2.8,-144.5,1,21.2,-23.5,0.428205206,-0.624439222,-0.111819819,-0.643543809
631,1581791,1119700,0.848,-0.149,0.231,-33,-4.1,-150.1,1,21.2,-23.5,0.425611133,-0.624439222,-0.1134373,-0.644978179
632,1585398,1119700,0.86,-0.149,0.223,-32.7,-5.5,-155.1,2.7,19.8,-23.4,0.422986541,-0.624439222,-0.115115818,-0.646412549
633,1587424,1119700,0.883,-0.149,0.215,-32.6,-6.7,-159.3,2.7,19.8,-23.4,0.420270394,-0.624439222,-0.11691641,-0.647877438
634,1588931,1119710,0.899,-0.15,0.203,-32.7,-7.8,-163.1,2.7,19.8,-23.4,0.41749321,-0.624439222,-0.11874752,-0.649342326
635,1593119,1119710,0.942,-0.158,0.174,-33.1,-8.7,-166.3,2.7,19.8,-23.4,0.414654988,-0.624408704,-0.120609149,-0.650807215
636,1594901,1119710,0.942,-0.158,0.174,-33.1,-8.7,-166.3,2.7,19.8,-23.4,0.414654988,-0.624408704,-0.120609149,-0.650807215
637,1596478,1119710,1,-0.175,0.134,-34.3,-9.8,-171.5,0.1,21,-23.4,0.408429212,-0.623981445,-0.125125889,-0.654316843
638,1599348,1119720,1.07,-0.2,0.098,-35.3,-10,-173.6,0.1,21,-23.4,0.405438398,-0.623950926,-0.127079073,-0.65581225
639,1602523,1119720,1.105,-0.208,0.077,-36.7,-9.2,-175.7,0.1,21,-23.4,0.402386547,-0.623920408,-0.129032258,-0.657338176
640,1604207,1119720,1.136,-0.225,0.069,-39.1,-7.1,-178,-0.1,21.2,-23.2,0.399273659,-0.623859371,-0.130954924,-0.658925138
641,1606216,1119720,1.155,-0.237,0.057,-42.1,-3.1,-180.8,-0.1,21.2,-23.2,0.396099734,-0.623767815,-0.132847072,-0.660542619
642,1609112,1119730,1.167,-0.26,0.065,-44.7,2,-183.5,-0.1,21.2,-23.2,0.392834254,-0.623584704,-0.134678182,-0.662282174
643,1612421,1119730,1.159,-0.276,0.065,-45.9,7.4,-185.5,-0.1,21.2,-23.2,0.389538255,-0.623310038,-0.136478774,-0.664113285
644,1614655,1119730,1.155,-0.288,0.065,-45.1,11.6,-185.5,-0.7,21.1,-23.1,0.386272774,-0.622974334,-0.138248848,-0.665974914
645,1617039,1119730,1.128,-0.295,0.069,-42.8,13.8,-182.7,-0.7,21.1,-23.1,0.383068331,-0.622577593,-0.139988403,-0.667836543
646,1618930,1119740,1.108,-0.287,0.077,-40.1,13.8,-176.4,-0.7,21.1,-23.1,0.379985961,-0.622150334,-0.141666921,-0.669606616
647,1623158,1119740,1.081,-0.274,0.094,-37.7,11.7,-166.7,-0.7,21.1,-23.1,0.377086703,-0.621784112,-0.143284402,-0.671254616
648,1623607,1119740,1.066,-0.262,0.102,-36,8.4,-154.3,-0.8,21.8,-23,0.374370556,-0.621478927,-0.14474929,-0.672750023
649,1628289,1119740,1.066,-0.262,0.102,-36,8.4,-154.3,-0.8,21.8,-23,0.374370556,-0.621478927,-0.14474929,-0.672750023
650,1630484,1119750,0.98,-0.269,0.123,-35.3,2.1,-128.1,-0.8,21.8,-23,0.369457076,-0.621082186,-0.147343364,-0.675252541
651,1632723,1119750,0.953,-0.28,0.12,-35.5,1,-117.6,-0.8,21.8,-23,0.367259743,-0.620990631,-0.148411512,-0.676351207
652,1634977,1119750,0.929,-0.279,0.124,-35.3,2.2,-110.2,0,21.3,-22.9,0.365153966,-0.620868557,-0.149357585,-0.677358318
653,1637223,1119750,0.91,-0.291,0.14,-33.8,5.5,-106.4,0,21.3,-22.9,0.363139744,-0.620715964,-0.150242622,-0.678395947
654,1639349,1119760,0.898,-0.283,0.16,-30.9,10.3,-105.7,0,21.3,-22.9,0.36118656,-0.620441298,-0.151158177,-0.679464095
655,1641541,1119760,0.879,-0.271,0.18,-27.3,15.2,-107.9,0,21.3,-22.9,0.359263894,-0.620075076,-0.152073733,-0.680623798
656,1643727,1119760,0.879,-0.263,0.211,-24,18.3,-112.1,-1.1,21.4,-23,0.357341227,-0.619617298,-0.153080844,-0.68181402
657,1646207,1119760,0.895,-0.271,0.215,-22.2,18.2,-117.7,-1.1,21.4,-23,0.355327006,-0.619129002,-0.154210028,-0.683065279
658,1650657,1119770,0.91,-0.286,0.222,-22.3,14.3,-123.9,-1.1,21.4,-23,0.353251747,-0.618671224,-0.155430769,-0.684286019
659,1652958,1119770,0.918,-0.279,0.222,-24.4,7.2,-130.2,-1.1,21.4,-23,0.350993377,-0.618305002,-0.156773583,-0.685476241
660,1655246,1119770,0.949,-0.272,0.21,-27.5,-1.4,-136.3,-1,21.1,-22.8,0.348582415,-0.618060854,-0.158207953,-0.686574908
661,1657233,1119770,0.988,-0.28,0.205,-31.5,-10.2,-141.8,-1,21.1,-22.8,0.345988342,-0.617969298,-0.159733879,-0.687643056
662,1658721,1119780,1.039,-0.277,0.196,-35.9,-18,-146.2,-1,21.1,-22.8,0.343241676,-0.617999817,-0.161290323,-0.688619648
663,1661208,1119780,1.082,-0.297,0.192,-40.8,-23.9,-148.8,-1,21.1,-22.8,0.340372936,-0.618121891,-0.162877285,-0.689535203
664,1664707,1119780,1.172,-0.283,0.202,-45.8,-27.2,-149.7,-1.6,21.1,-22.7,0.337382122,-0.61833552,-0.164403211,-0.690450758
665,1666352,1119780,1.203,-0.252,0.209,-50,-28,-149.2,-1.6,21.1,-22.7,0.33436079,-0.618610187,-0.165868099,-0.691335795
666,1669961,1119790,1.219,-0.218,0.204,-52.8,-26.7,-148,-1.6,21.1,-22.7,0.331339457,-0.618854335,-0.16727195,-0.69225135
667,1673372,1119790,1.27,-0.168,0.184,-54.7,-24.8,-145.7,-1.6,21.1,-22.7,0.328287606,-0.619098483,-0.168584246,-0.693166906
668,1673671,1119790,1.289,-0.141,0.168,-57.1,-23.2,-142.2,-1.8,21.7,-22.5,0.325296793,-0.619312113,-0.169804987,-0.694082461
669,1676624,1119790,1.289,-0.141,0.168,-57.1,-23.2,-142.2,-1.8,21.7,-22.5,0.325296793,-0.619312113,-0.169804987,-0.694082461
670,1680108,1119800,1.274,-0.109,0.164,-64.8,-23.7,-130.7,-1.8,21.7,-22.5,0.319345683,-0.619891964,-0.171849727,-0.695791498
671,1681379,1119800,1.243,-0.077,0.176,-69.4,-26.1,-123.6,-1.8,21.7,-22.5,0.316446425,-0.620319224,-0.172643208,-0.69655446
672,1684769,1119800,1.242,-0.113,0.165,-73.9,-29.9,-116.6,-3.2,21.5,-22.3,0.313547166,-0.620838038,-0.173314615,-0.697256386
673,1686303,1119800,1.238,-0.113,0.173,-77.8,-34.7,-110.4,-3.2,21.5,-22.3,0.310678426,-0.621478927,-0.173863948,-0.697805719
674,1689552,1119810,1.231,-0.112,0.185,-80.5,-39.8,-105.7,-3.2,21.5,-22.3,0.307840205,-0.62224189,-0.174352245,-0.698294015
675,1691865,1119810,1.235,-0.101,0.224,-81.2,-43.8,-103.3,-3.2,21.5,-22.3,0.304971465,-0.623035371,-0.174810022,-0.698690756
676,1694035,1119810,1.235,-0.081,0.235,-79.3,-45.7,-104,-3.4,21.3,-21.8,0.302133244,-0.623889889,-0.175298318,-0.699087497
677,1698012,1119810,1.231,-0.124,0.247,-75.3,-45.2,-107.3,-3.4,21.3,-21.8,0.299295022,-0.624652852,-0.175908689,-0.699453719
678,1699867,1119820,1.231,-0.202,0.232,-69.3,-42.2,-111.8,-3.4,21.3,-21.8,0.29648732,-0.625324259,-0.176671651,-0.699880978
679,1701391,1119820,1.231,-0.19,0.232,-61,-36.5,-115.1,-3.4,21.3,-21.8,0.293740654,-0.625812555,-0.17752617,-0.700338755
680,1705387,1119820,1.219,-0.147,0.24,-50,-27.9,-116.3,-4.1,21.8,-21.7,0.291177099,-0.62611774,-0.17853328,-0.700888089
681,1707639,1119820,1.192,-0.127,0.252,-37,-16.9,-115.4,-4.1,21.8,-21.7,0.288857692,-0.626148259,-0.179662465,-0.701559496
682,1709891,1119830,1.13,-0.063,0.269,-24.3,-4.9,-113.4,-4.1,21.8,-21.7,0.286751915,-0.625934629,-0.180852687,-0.70229194
683,1711329,1119830,1.11,-0.024,0.261,-15,6.1,-110.8,-4.1,21.8,-21.7,0.284859767,-0.62550737,-0.182103946,-0.70311594
684,1714949,1119830,1.064,-0.004,0.258,-11.1,14.2,-108.3,-4.4,21.6,-21.9,0.283120212,-0.624927519,-0.183324686,-0.704031495
685,1716384,1119830,1.052,-0.004,0.242,-13.5,18.3,-106.3,-4.4,21.6,-21.9,0.281380657,-0.62428663,-0.184453871,-0.704977569
686,1719752,1119840,1.004,-0.066,0.165,-21.2,18.6,-105.1,-4.4,21.6,-21.9,0.279549547,-0.623706778,-0.185430464,-0.70598468
687,1722981,1119840,0.996,-0.089,0.134,-32.1,16.5,-104,-4.4,21.6,-21.9,0.277565844,-0.623218482,-0.186254463,-0.706961272
688,1724797,1119840,0.969,-0.093,0.103,-43,13.4,-102.8,-4.5,21.8,-21.8,0.275429548,-0.62285226,-0.186925871,-0.707937864
689,1727241,1119840,0.969,-0.093,0.103,-43,13.4,-102.8,-4.5,21.8,-21.8,0.275429548,-0.62285226,-0.186925871,-0.707937864
690,1729297,1119850,0.956,-0.155,0.025,-58.3,7.1,-100.4,-4.5,21.8,-21.8,0.27088229,-0.622425001,-0.187841426,-0.709830012
691,1731438,1119850,0.976,-0.183,0.017,-61.5,4.6,-100.7,-4.5,21.8,-21.8,0.268532365,-0.622302927,-0.188238166,-0.710745567
692,1734082,1119850,0.98,-0.195,0.009,-61.6,2.7,-102.8,-6.2,21.6,-21.5,0.266090884,-0.622211371,-0.188665426,-0.711630604
693,1738571,1119850,1.057,-0.282,-0.011,-58.4,1,-106.6,-6.2,21.6,-21.5,0.263649403,-0.622058779,-0.18918424,-0.712515641
694,1738796,1119860,1.053,-0.282,-0.003,-51.6,-0.6,-110.7,-6.2,21.6,-21.5,0.261238441,-0.621936705,-0.189886166,-0.71333964
695,1743056,1119860,1.042,-0.251,0.024,-41.3,-2.2,-113.9,-6.2,21.6,-21.5,0.258888516,-0.621723075,-0.190801721,-0.714133122
696,1744944,1119860,1.042,-0.231,0.071,-28.9,-3.4,-114.5,-4.7,21.7,-21.2,0.256691183,-0.621478927,-0.191930906,-0.714835047
697,1746480,1119860,1.035,-0.192,0.087,-17.1,-4.1,-111.5,-4.7,21.7,-21.2,0.25470748,-0.621143223,-0.193212683,-0.715475936
698,1748957,1119870,1.027,-0.152,0.106,-8.4,-4.4,-105.2,-4.7,21.7,-21.2,0.252906888,-0.620838038,-0.194524979,-0.716055788
699,1752514,1119870,1.012,-0.101,0.122,-3.9,-4,-97.3,-4.7,21.7,-21.2,0.251319926,-0.620502335,-0.195806757,-0.716544084
700,1753949,1119870,0.989,-0.046,0.138,-3.8,-3.2,-89.6,-5.2,21.4,-21.3,0.249855037,-0.62019715,-0.19696646,-0.717001862
701,1757498,1119870,0.996,-0.054,0.134,-8,-2.7,-83,-5.2,21.4,-21.3,0.248451186,-0.619922483,-0.197973571,-0.717459639
702,1759409,1119880,1.02,-0.066,0.118,-15.5,-2.9,-77.5,-5.2,21.4,-21.3,0.246986297,-0.619708853,-0.198797571,-0.717886898
703,1761574,1119880,1.047,-0.09,0.113,-24.4,-3.7,-73.3,-5.2,21.4,-21.3,0.24549089,-0.619586779,-0.199438459,-0.718344676
704,1764175,1119880,1.063,-0.047,0.113,-32.1,-4.5,-70.6,-5.5,21.8,-21.1,0.243934446,-0.619525742,-0.199896237,-0.718802454
705,1766293,1119880,1.039,-0.008,0.117,-37.2,-4.8,-69.2,-5.5,21.8,-21.1,0.242316965,-0.619495224,-0.200292978,-0.719260231
706,1770074,1119890,1.02,0.015,0.122,-39.9,-5,-68.2,-5.5,21.8,-21.1,0.240699484,-0.619464705,-0.200598163,-0.719718009
707,1772134,1119890,1.036,0.023,0.125,-42.2,-5.9,-67.5,-5.5,21.8,-21.1,0.239051485,-0.619495224,-0.200872829,-0.720175787
708,1773586,1119890,1.063,0.01,0.121,-46,-8.3,-66.6,-5.8,21.5,-20.8,0.237342448,-0.619586779,-0.201116977,-0.720633564
709,1777905,1119890,1.063,0.01,0.121,-46,-8.3,-66.6,-5.8,21.5,-20.8,0.237342448,-0.619586779,-0.201116977,-0.720633564
710,1780093,1119900,1.09,0.01,0.12,-58.8,-16.7,-64.6,-5.8,21.5,-20.8,0.23361919,-0.620044557,-0.20126957,-0.721396527
711,1781458,1119900,1.09,0.01,0.12,-65.5,-19.8,-63.5,-5.8,21.5,-20.8,0.231666005,-0.620410779,-0.201208533,-0.721732231
712,1785709,1119900,1.086,0.006,0.12,-71.1,-21,-62.4,-7.3,22.1,-20.5,0.229651784,-0.62080752,-0.201025422,-0.722067934
713,1787917,1119900,1.082,-0.001,0.121,-75.7,-19.9,-61,-7.3,22.1,-20.5,0.227576525,-0.621234779,-0.200750755,-0.722434156
714,1789402,1119910,1.09,-0.02,0.116,-79.8,-17.3,-58.9,-7.3,22.1,-20.5,0.225470748,-0.621662038,-0.200384533,-0.722830897
715,1791542,1119910,1.094,-0.071,0.117,-83.3,-13.6,-56.1,-7.3,22.1,-20.5,0.223395489,-0.62202826,-0.199896237,-0.723288675
716,1795122,1119910,1.094,-0.071,0.117,-83.3,-13.6,-56.1,-7.3,22.1,-20.5,0.223395489,-0.62202826,-0.199896237,-0.723288675
717,1796750,1119910,1.07,-0.09,0.117,-88.3,-4.4,-48.7,-7,22.1,-20.7,0.219367046,-0.62285226,-0.198583941,-0.724173711
718,1799213,1119920,1.055,-0.09,0.129,-88.7,0.9,-44.5,-7,22.1,-20.7,0.217474899,-0.623065889,-0.19779046,-0.724784082
719,1802283,1119920,1.02,-0.097,0.13,-87.8,6.5,-40,-7,22.1,-20.7,0.215674306,-0.623187963,-0.196905423,-0.725455489
720,1804555,1119920,1,-0.101,0.122,-86.4,11.7,-35.5,-7,22.2,-20.1,0.21396527,-0.623279519,-0.195959349,-0.726157414
721,1806764,1119920,0.992,-0.105,0.13,-85.4,16,-31.8,-7,22.2,-20.1,0.212378307,-0.623279519,-0.194982757,-0.726889859
722,1809206,1119930,0.93,-0.072,0.127,-85.2,18.8,-29.1,-7,22.2,-20.1,0.210852382,-0.623249001,-0.193945128,-0.727622303
723,1811582,1119930,0.906,-0.076,0.12,-85.9,20,-27.6,-7,22.2,-20.1,0.209326456,-0.623218482,-0.192846461,-0.728385266
724,1813969,1119930,0.914,-0.092,0.112,-88,19.4,-27,-7.1,22.4,-20,0.207770013,-0.623187963,-0.191747795,-0.729148228
725,1817824,1119930,0.894,-0.095,0.109,-91.5,16.9,-27,-7.1,22.4,-20,0.206152532,-0.623218482,-0.190557573,-0.729880673
726,1819836,1119940,0.89,-0.123,0.085,-96,12.8,-27.7,-7.1,22.4,-20,0.204474013,-0.623310038,-0.189367351,-0.730582598
727,1821937,1119940,0.914,-0.151,0.061,-100.9,7.9,-29.1,-7.1,22.4,-20,0.202673421,-0.623523667,-0.188116092,-0.731223487
728,1824188,1119940,0.941,-0.186,0.057,-104.7,2.7,-30.9,-7.3,22.7,-19.6,0.200750755,-0.623828852,-0.186834315,-0.731833857
729,1826448,1119940,0.941,-0.186,0.057,-104.7,2.7,-30.9,-7.3,22.7,-19.6,0.200750755,-0.623828852,-0.186834315,-0.731833857
730,1829618,1119950,0.972,-0.241,0.076,-106,-5.2,-32.4,-7.3,22.7,-19.6,0.196783349,-0.624591815,-0.184362316,-0.732871487
731,1832239,1119950,0.945,-0.229,0.096,-102.9,-7,-30,-7.3,22.7,-19.6,0.194891202,-0.625019074,-0.183141575,-0.733329264
732,1833870,1119950,0.937,-0.233,0.096,-98.6,-7.3,-25.6,-7.3,22.7,-19.6,0.193090609,-0.625446333,-0.181951353,-0.733726005
733,1837830,1119950,0.949,-0.245,0.096,-94.1,-6.2,-20,-7.3,22.7,-19.6,0.191473128,-0.625873592,-0.180761132,-0.734092227
734,1840056,1119960,0.949,-0.245,0.096,-90.2,-4.1,-14.5,-7.3,22.7,-19.6,0.189977721,-0.626239814,-0.179509873,-0.734458449
735,1842462,1119960,0.984,-0.265,0.084,-86.5,-1.4,-9.9,-7.3,22.7,-19.6,0.188634907,-0.626606037,-0.178258614,-0.734824671
736,1844339,1119960,0.984,-0.265,0.084,-86.5,-1.4,-9.9,-7.3,22.7,-19.6,0.188634907,-0.626606037,-0.178258614,-0.734824671
737,1846643,1119960,0.988,-0.261,0.084,-77.4,5.9,-2.5,-7.6,23.4,-18.6,0.186681722,-0.627307962,-0.175389874,-0.735404523
738,1848905,1119970,0.957,-0.225,0.104,-70.9,10.4,1.1,-7.6,23.4,-18.6,0.185766167,-0.627430036,-0.174199652,-0.735801263
739,1852245,1119970,0.918,-0.182,0.116,-63.8,14.8,5.3,-7.6,23.4,-18.6,0.185033723,-0.627491073,-0.173039949,-0.736228523
740,1854379,1119970,0.894,-0.158,0.12,-57.6,18.1,9.5,-7.8,23.4,-18.2,0.18448439,-0.627460555,-0.171910764,-0.736655782
741,1856734,1119970,0.883,-0.13,0.124,-53.8,19.4,12.9,-7.8,23.4,-18.2,0.184026612,-0.627399518,-0.170781579,-0.737083041
742,1858862,1119980,0.867,-0.118,0.117,-52.5,18.5,14.9,-7.8,23.4,-18.2,0.183599353,-0.627368999,-0.169652394,-0.737449263
743,1861499,1119980,0.828,-0.079,0.118,-53.2,15.9,15.5,-7.8,23.4,-18.2,0.183202612,-0.627399518,-0.168523209,-0.737815485
744,1865280,1119980,0.918,-0.151,0.089,-55.7,12,14.6,-8,23.3,-17.7,0.182714316,-0.627460555,-0.167394024,-0.73812067
745,1867613,1119980,0.953,-0.19,0.088,-59.1,7.5,13,-8,23.3,-17.7,0.182134465,-0.627643666,-0.166234321,-0.738395337
746,1869622,1119990,0.937,-0.19,0.092,-61.8,3.7,11.8,-8,23.3,-17.7,0.181493576,-0.627857295,-0.165044099,-0.738608966
747,1872580,1119990,0.937,-0.182,0.104,-62.1,1.7,12,-8,23.3,-17.7,0.180852687,-0.628131962,-0.163884396,-0.738822596
748,1874933,1119990,0.933,-0.194,0.108,-59.9,2.1,13.8,-7.7,23.4,-16.7,0.180242317,-0.62837611,-0.162724693,-0.739005707
749,1877124,1119990,0.933,-0.194,0.108,-59.9,2.1,13.8,-7.7,23.4,-16.7,0.180242317,-0.62837611,-0.162724693,-0.739005707
750,1879945,1120000,0.925,-0.197,0.112,-53.4,5.3,18.8,-7.7,23.4,-16.7,0.179326762,-0.628772851,-0.160374767,-0.739371929
751,1882072,1120000,0.925,-0.209,0.12,-50.8,6.9,21.1,-7.7,23.4,-16.7,0.179021577,-0.628955962,-0.159276101,-0.73955504
752,1884740,1120000,0.933,-0.209,0.112,-48.8,8.1,23.2,-7.7,23.4,-16.7,0.17874691,-0.629078036,-0.158146916,-0.73976867
753,1886842,1120000,0.925,-0.213,0.112,-47.1,8.9,25.2,-7.7,23.4,-16.7,0.17853328,-0.62920011,-0.156987213,-0.739951781
754,1888757,1120010,0.921,-0.217,0.108,-45.5,9.6,27.3,-7.7,23.4,-16.7,0.178380688,-0.629322184,-0.155858028,-0.740134892
755,1891732,1120010,0.902,-0.209,0.113,-43.7,10.2,29.4,-7.7,23.4,-16.7,0.178289132,-0.629444258,-0.154698325,-0.740287484
756,1894966,1120010,0.902,-0.209,0.113,-43.7,10.2,29.4,-7.7,23.4,-16.7,0.178289132,-0.629444258,-0.154698325,-0.740287484
757,1896753,1120010,0.906,-0.224,0.109,-40.3,10.8,33.2,-7.4,24,-17.2,0.17874691,-0.629871517,-0.151860103,-0.740409558
758,1899734,1120020,0.902,-0.232,0.116,-38.9,11,35,-7.4,24,-17.2,0.178807947,-0.629963073,-0.1507004,-0.740531632
759,1901823,1120020,0.894,-0.224,0.121,-37.4,11.1,36.7,-7.4,24,-17.2,0.178930021,-0.630054628,-0.149540696,-0.740684225
760,1904614,1120020,0.898,-0.228,0.12,-35.8,11.2,38.3,-7,24.3,-16.9,0.179082614,-0.630146184,-0.148380993,-0.740806299
761,1906293,1120020,0.894,-0.22,0.124,-34.2,11.1,39.9,-7,24.3,-16.9,0.179296243,-0.630237739,-0.147251808,-0.740897855
762,1909338,1120030,0.898,-0.216,0.132,-32.8,10.8,41.3,-7,24.3,-16.9,0.179540391,-0.630298776,-0.146092105,-0.74098941
763,1912589,1120030,0.89,-0.216,0.132,-31.8,10.3,42.7,-7,24.3,-16.9,0.179845576,-0.630390332,-0.14496292,-0.741080966
764,1913967,1120030,0.906,-0.22,0.136,-31.2,9.9,44,-7,24.4,-17.2,0.180150761,-0.630512406,-0.143772698,-0.741142003
765,1917223,1120030,0.906,-0.232,0.136,-30.8,9.6,45,-7,24.4,-17.2,0.180486465,-0.630603961,-0.142643513,-0.741172521
766,1918833,1120040,0.91,-0.244,0.148,-30.5,9.1,45.7,-7,24.4,-17.2,0.180822169,-0.630726035,-0.14148381,-0.741233558
767,1923139,1120040,0.906,-0.244,0.152,-29.7,8.8,46.3,-7,24.4,-17.2,0.181188391,-0.630848109,-0.140324107,-0.741264077
768,1924831,1120040,0.898,-0.232,0.156,-28.3,8.4,46.9,-6.9,24.8,-16.9,0.181585131,-0.630970183,-0.139194922,-0.741264077
769,1927608,1120040,0.898,-0.232,0.156,-28.3,8.4,46.9,-6.9,24.8,-16.9,0.181585131,-0.630970183,-0.139194922,-0.741264077
770,1929008,1120050,0.902,-0.22,0.171,-25.1,7.2,47.9,-6.9,24.8,-16.9,0.182470168,-0.631214331,-0.136997589,-0.741264077
771,1932328,1120050,0.918,-0.22,0.171,-24.3,6.5,48.1,-6.9,24.8,-16.9,0.182927946,-0.631336406,-0.135898923,-0.741233558
772,1934452,1120050,0.922,-0.209,0.175,-23.9,5.7,48.1,-6.9,24.8,-16.9,0.183385723,-0.631488998,-0.134830775,-0.741172521
773,1937720,1120050,0.93,-0.205,0.175,-24,4.9,47.8,-6.9,24.8,-16.9,0.183812983,-0.631641591,-0.133762627,-0.741142003
774,1939934,1120060,0.937,-0.205,0.174,-24.4,4.3,47.8,-6.9,24.8,-16.9,0.184301279,-0.631824702,-0.132694479,-0.741080966
775,1942007,1120060,0.937,-0.201,0.178,-25,4,47.7,-6.9,24.8,-16.9,0.184728538,-0.631977294,-0.131595813,-0.741019929
776,1944091,1120060,0.937,-0.201,0.178,-25,4,47.7,-6.9,24.8,-16.9,0.184728538,-0.631977294,-0.131595813,-0.741019929
777,1948034,1120060,0.961,-0.194,0.182,-26.2,3.9,47.5,-6.5,25.2,-17.6,0.18652913,-0.63246559,-0.128299814,-0.740714743
778,1949764,1120070,0.957,-0.198,0.182,-26.6,3.8,47.2,-6.5,25.2,-17.6,0.186925871,-0.632648701,-0.127170629,-0.740653706
779,1951911,1120070,0.961,-0.186,0.182,-26.6,3.8,46.9,-6.5,25.2,-17.6,0.18735313,-0.632831812,-0.126102481,-0.740592669
780,1954089,1120070,0.965,-0.182,0.193,-26.1,3.6,46.6,-6.7,25,-17.7,0.187719352,-0.633014924,-0.125003815,-0.740531632
781,1957489,1120070,0.957,-0.178,0.186,-25.3,3.4,46.1,-6.7,25,-17.7,0.188146611,-0.633167516,-0.123966185,-0.740440077
782,1959930,1120080,0.965,-0.182,0.19,-24.4,3,45.5,-6.7,25,-17.7,0.188543352,-0.633350627,-0.122928556,-0.74037904
783,1961687,1120080,0.969,-0.174,0.186,-23.7,2.5,44.7,-6.7,25,-17.7,0.188970611,-0.633533738,-0.121921445,-0.740287484
784,1964447,1120080,0.981,-0.167,0.185,-23.2,1.8,43.7,-6.3,25,-18.4,0.189336833,-0.633716849,-0.120914335,-0.740195929
785,1967531,1120080,0.981,-0.159,0.193,-22.8,1,42.6,-6.3,25,-18.4,0.189733573,-0.63389996,-0.119968261,-0.740104373
786,1970185,1120090,0.985,-0.159,0.189,-22.5,0.3,41.5,-6.3,25,-18.4,0.190069277,-0.634083071,-0.119022187,-0.739982299
787,1973822,1120090,0.992,-0.151,0.185,-22.6,-0.1,40.5,-6.3,25,-18.4,0.190435499,-0.634296701,-0.118106632,-0.739860225
788,1973822,1120090,0.996,-0.151,0.177,-22.9,-0.4,39.4,-5.9,25.4,-19.1,0.190740684,-0.634510331,-0.117191076,-0.73976867
789,1978346,1120090,0.996,-0.151,0.177,-22.9,-0.4,39.4,-5.9,25.4,-19.1,0.190740684,-0.634510331,-0.117191076,-0.73976867
790,1980415,1120100,1,-0.144,0.181,-23.9,-0.9,37.2,-5.9,25.4,-19.1,0.191290017,-0.634907071,-0.115329447,-0.73955504
791,1982694,1120100,1.008,-0.148,0.177,-24.4,-1.3,36,-5.9,25.4,-19.1,0.191534165,-0.635120701,-0.114474929,-0.739432966
792,1984837,1120100,1.008,-0.144,0.177,-24.9,-1.8,34.8,-5.9,25.4,-19.1,0.191747795,-0.635364849,-0.113620411,-0.739310892
793,1986391,1120100,1.012,-0.148,0.177,-25.1,-2.3,33.7,-5.9,25.4,-19.1,0.191930906,-0.635578478,-0.112735374,-0.739219337
794,1988968,1120110,1.012,-0.148,0.173,-25.3,-2.8,32.7,-5.9,25.4,-19.1,0.192114017,-0.635822626,-0.111880856,-0.739097262
795,1991803,1120110,1.008,-0.156,0.173,-25.3,-3.2,32,-5.9,25.4,-19.1,0.19226661,-0.636036256,-0.111056856,-0.738975188
796,1994049,1120110,1.008,-0.156,0.173,-25.3,-3.2,32,-5.9,25.4,-19.1,0.19226661,-0.636036256,-0.111056856,-0.738975188
797,1996423,1120110,1.004,-0.159,0.177,-25.4,-4,30.6,-5.6,25.9,-17.7,0.192754906,-0.636585589,-0.109164708,-0.738670003
798,1998847,1120120,1.004,-0.155,0.177,-25.5,-4.5,30.2,-5.6,25.9,-17.7,0.19287698,-0.636829737,-0.108340709,-0.738547929
799,2003414,1120120,1.004,-0.163,0.177,-25.8,-5.1,29.8,-5.6,25.9,-17.7,0.192968535,-0.637104404,-0.107516709,-0.738425855
800,2004004,1120120,1.004,-0.163,0.181,-26,-5.7,29.4,-5.3,25.9,-17.5,0.193090609,-0.63737907,-0.106723228,-0.738273263
801,2006590,1120120,1,-0.159,0.185,-26.3,-6.3,29,-5.3,25.9,-17.5,0.193151646,-0.637653737,-0.105929746,-0.73812067
802,2008869,1120130,1,-0.171,0.181,-26.5,-6.8,28.5,-5.3,25.9,-17.5,0.193243202,-0.637928404,-0.105136265,-0.737968078
803,2012796,1120130,1,-0.167,0.185,-26.8,-7.3,28,-5.3,25.9,-17.5,0.193304239,-0.638233589,-0.104342784,-0.737815485
804,2015035,1120130,0.996,-0.175,0.185,-27,-7.7,27.7,-5.4,26,-17.4,0.193365276,-0.638538774,-0.103549303,-0.737632374
805,2016895,1120130,0.996,-0.171,0.185,-27.2,-7.9,27.5,-5.4,26,-17.4,0.193395795,-0.638843959,-0.102755821,-0.737479781
806,2019155,1120140,0.985,-0.175,0.189,-27.4,-7.9,27.5,-5.4,26,-17.4,0.193456832,-0.639149144,-0.10196234,-0.737327189
807,2022391,1120140,0.992,-0.171,0.189,-27.4,-7.8,27.6,-5.4,26,-17.4,0.19348735,-0.639454329,-0.101168859,-0.737144078
808,2024277,1120140,0.988,-0.171,0.185,-27.4,-7.6,28,-5.3,25.8,-17.3,0.193548387,-0.639759514,-0.100375378,-0.736991485
809,2026723,1120140,0.988,-0.171,0.185,-27.4,-7.6,28,-5.3,25.8,-17.3,0.193548387,-0.639759514,-0.100375378,-0.736991485
810,2029100,1120150,0.973,-0.163,0.189,-27.6,-7.2,28.4,-5.3,25.8,-17.3,0.193639943,-0.640339366,-0.0987273782,-0.736655782
811,2031324,1120150,0.977,-0.163,0.189,-27.8,-7.2,28.3,-5.3,25.8,-17.3,0.19370098,-0.640644551,-0.0979338969,-0.736503189
812,2035278,1120150,0.973,-0.159,0.189,-28.2,-7.2,27.9,-5.3,25.8,-17.3,0.193731498,-0.640919218,-0.0971098972,-0.736350597
813,2036777,1120150,0.969,-0.155,0.186,-28.6,-7.3,27.4,-5.3,25.8,-17.3,0.193762017,-0.641224403,-0.0962858974,-0.736167486
814,2040352,1120160,0.973,-0.159,0.185,-29,-7.5,26.7,-5.3,25.8,-17.3,0.193762017,-0.641529588,-0.0954924162,-0.736014893
815,2041718,1120160,0.969,-0.155,0.182,-29.4,-7.5,26,-5.3,25.8,-17.3,0.193762017,-0.641834773,-0.0946989349,-0.7358623
816,2043907,1120160,0.969,-0.155,0.182,-29.4,-7.5,26,-5.3,25.8,-17.3,0.193762017,-0.641834773,-0.0946989349,-0.7358623
817,2047522,1120160,0.973,-0.163,0.182,-29.7,-7.5,25.3,-4.7,26,-17.6,0.194006165,-0.64229255,-0.0927762688,-0.735648671
818,2049943,1120170,0.977,-0.159,0.178,-30,-7.6,24.5,-4.7,26,-17.6,0.193945128,-0.642597736,-0.0919827876,-0.735496078
819,2051961,1120170,0.973,-0.155,0.174,-30,-7.6,23.7,-4.7,26,-17.6,0.193884091,-0.642902921,-0.0911893063,-0.735343486
820,2054802,1120170,0.981,-0.151,0.17,-29.7,-7.7,23,-5.1,25.6,-17.6,0.193823054,-0.643177587,-0.0904263436,-0.735190893
821,2056424,1120170,0.981,-0.159,0.17,-29.4,-7.6,22.5,-5.1,25.6,-17.6,0.193762017,-0.643482772,-0.0896633808,-0.735038301
822,2058908,1120180,0.984,-0.159,0.162,-28.9,-7.4,22,-5.1,25.6,-17.6,0.19370098,-0.643757439,-0.0889309366,-0.734916227
823,2061240,1120180,0.98,-0.167,0.162,-28.3,-7.1,21.6,-5.1,25.6,-17.6,0.193639943,-0.644032105,-0.0881984924,-0.734763634
824,2065690,1120180,0.984,-0.155,0.158,-27.7,-6.7,21.1,-5.1,25.5,-16.9,0.193578906,-0.644306772,-0.0874965667,-0.73464156
825,2067908,1120180,0.98,-0.155,0.158,-27,-6.4,20.6,-5.1,25.5,-16.9,0.193517869,-0.644581439,-0.0867946409,-0.734519486
826,2070031,1120190,0.981,-0.151,0.162,-26.2,-6.2,20,-5.1,25.5,-16.9,0.193456832,-0.644825587,-0.0861232337,-0.734397412
827,2072042,1120190,0.977,-0.147,0.154,-25.6,-5.9,19.4,-5.1,25.5,-16.9,0.193395795,-0.645039216,-0.0854518265,-0.734275338
828,2073613,1120190,0.984,-0.151,0.154,-24.8,-5.7,18.7,-5,25.9,-17.4,0.193334758,-0.645283364,-0.0848109378,-0.734153264
829,2076631,1120190,0.984,-0.151,0.154,-24.8,-5.7,18.7,-5,25.9,-17.4,0.193334758,-0.645283364,-0.0848109378,-0.734153264
830,2079646,1120200,0.98,-0.147,0.146,-23.8,-5.3,17.2,-5,25.9,-17.4,0.193212683,-0.645741142,-0.0835901975,-0.733939634
831,2081436,1120200,0.98,-0.155,0.146,-23.2,-5.2,16.3,-5,25.9,-17.4,0.193121128,-0.645924253,-0.0830103458,-0.733848079
832,2085208,1120200,0.984,-0.155,0.146,-22.4,-5.1,15.4,-5,25.9,-17.4,0.193029572,-0.646137883,-0.0824610126,-0.733756523
833,2087924,1120200,0.98,-0.155,0.146,-21.5,-4.9,14.5,-5,25.9,-17.4,0.192968535,-0.646351512,-0.0819421979,-0.733664968
834,2089560,1120210,0.984,-0.159,0.142,-20.8,-4.8,13.5,-5,25.9,-17.4,0.19287698,-0.646534623,-0.0814233833,-0.733573412
835,2091304,1120210,0.98,-0.163,0.146,-20,-4.6,12.5,-5,25.9,-17.4,0.192785424,-0.646717734,-0.0809350871,-0.733481857
836,2093788,1120210,0.98,-0.163,0.146,-20,-4.6,12.5,-5,25.9,-17.4,0.192785424,-0.646717734,-0.0809350871,-0.733481857
837,2096770,1120210,0.984,-0.171,0.154,-18.5,-4.6,10.6,-4.9,26.8,-16.4,0.192907498,-0.64720603,-0.0796838282,-0.733146153
838,2099871,1120220,0.98,-0.175,0.146,-18.1,-4.8,9.8,-4.9,26.8,-16.4,0.192815943,-0.647389142,-0.0792870876,-0.733085116
839,2101588,1120220,0.984,-0.183,0.15,-17.8,-5,8.8,-4.9,26.8,-16.4,0.192693869,-0.647541734,-0.078890347,-0.732993561
840,2105307,1120220,0.984,-0.183,0.158,-17.7,-5.1,7.8,-4.6,26.7,-16.6,0.192541276,-0.647724845,-0.0785241249,-0.732932524
841,2106716,1120220,0.98,-0.186,0.154,-17.6,-5.4,6.8,-4.6,26.7,-16.6,0.192419202,-0.647877438,-0.0781579028,-0.732840968
842,2110616,1120230,0.976,-0.19,0.158,-17.7,-5.6,5.9,-4.6,26.7,-16.6,0.192236091,-0.648060549,-0.0778221992,-0.732779931
843,2111846,1120230,0.976,-0.194,0.162,-18,-5.9,5.2,-4.6,26.7,-16.6,0.19205298,-0.64824366,-0.0774864956,-0.732688375
844,2114270,1120230,0.976,-0.194,0.158,-18.4,-6.2,4.5,-4.9,27,-16.2,0.191869869,-0.648426771,-0.077150792,-0.732627338
845,2118382,1120230,0.98,-0.194,0.158,-18.9,-6.4,3.8,-4.9,27,-16.2,0.191625721,-0.648609882,-0.0768150884,-0.732535783
846,2118734,1120240,0.98,-0.194,0.158,-19.4,-6.7,3.4,-4.9,27,-16.2,0.191412091,-0.648823511,-0.0764793847,-0.732474746
847,2123108,1120240,0.973,-0.198,0.166,-20,-6.8,2.9,-4.9,27,-16.2,0.191167943,-0.649006623,-0.0761436811,-0.73238319
848,2125311,1120240,0.977,-0.194,0.17,-20.4,-6.9,2.6,-4.4,27.3,-16.3,0.190893277,-0.649220252,-0.075777459,-0.732322153
849,2126872,1120240,0.969,-0.194,0.162,-20.7,-6.8,2.4,-4.4,27.3,-16.3,0.190649129,-0.649403363,-0.0754722739,-0.732230598
850,2129253,1120250,0.977,-0.194,0.166,-21.1,-6.5,2.3,-4.4,27.3,-16.3,0.190374462,-0.649616993,-0.0751365703,-0.732169561
851,2131436,1120250,0.977,-0.19,0.17,-21.2,-6.1,2,-4.4,27.3,-16.3,0.190099796,-0.649800104,-0.0748008667,-0.732108524
852,2134795,1120250,0.977,-0.194,0.166,-21.1,-5.8,1.5,-4.4,27.3,-16.3,0.18979461,-0.649983215,-0.0744651631,-0.732047487
853,2136523,1120250,0.977,-0.19,0.17,-20.8,-5.6,0.9,-4.4,27.3,-16.3,0.189519944,-0.650166326,-0.0741294595,-0.732016968
854,2139308,1120260,0.98,-0.182,0.166,-20.3,-5.4,0.4,-4.4,27.3,-16.3,0.189214759,-0.650318918,-0.0738242744,-0.731955931
855,2141762,1120260,0.973,-0.19,0.166,-19.9,-5.2,-0.2,-4.4,27.3,-16.3,0.188940092,-0.650502029,-0.0735190893,-0.731925413
856,2143848,1120260,0.973,-0.19,0.166,-19.9,-5.2,-0.2,-4.4,27.3,-16.3,0.188940092,-0.650502029,-0.0735190893,-0.731925413
857,2147910,1120260,0.977,-0.178,0.166,-18.9,-5.3,-1.5,-5,27,-15.5,0.189153722,-0.650502029,-0.0720847194,-0.73198645
858,2149779,1120270,0.977,-0.182,0.17,-18.5,-5.4,-2,-5,27,-15.5,0.188848537,-0.650685141,-0.0718405713,-0.731955931
859,2151375,1120270,0.98,-0.182,0.162,-18.3,-5.4,-2.5,-5,27,-15.5,0.188543352,-0.650837733,-0.0715964232,-0.731894894
860,2153709,1120270,0.977,-0.178,0.166,-18,-5.3,-3,-4.7,27,-15.5,0.188238166,-0.650990326,-0.0713827937,-0.731864376
861,2157326,1120270,0.98,-0.171,0.162,-17.6,-5.3,-3.5,-4.7,27,-15.5,0.187902463,-0.651142918,-0.0711691641,-0.731833857
862,2160065,1120280,0.977,-0.175,0.162,-17.2,-5.1,-4,-4.7,27,-15.5,0.187597278,-0.651295511,-0.0709555345,-0.731803339
863,2161618,1120280,0.973,-0.178,0.162,-16.7,-5,-4.4,-4.7,27,-15.5,0.187292093,-0.651417585,-0.0707724235,-0.73177282
864,2163764,1120280,0.973,-0.178,0.158,-16.3,-4.8,-4.9,-5,27.1,-15.5,0.186956389,-0.651570177,-0.0706198309,-0.73177282
865,2167735,1120280,0.977,-0.175,0.162,-16,-4.6,-5.4,-5,27.1,-15.5,0.186651204,-0.651692251,-0.0704672384,-0.731742302
866,2170476,1120290,0.973,-0.178,0.154,-15.5,-4.4,-5.8,-5,27.1,-15.5,0.1863155,-0.651814325,-0.0703146458,-0.731711783
867,2173363,1120290,0.976,-0.182,0.154,-15.2,-4.3,-6.2,-5,27.1,-15.5,0.185979797,-0.651936399,-0.0701620533,-0.731711783
868,2173673,1120290,0.973,-0.186,0.158,-14.9,-4.3,-6.6,-5.1,27.6,-15.3,0.185674612,-0.652058473,-0.0700399792,-0.731711783
869,2177539,1120290,0.973,-0.186,0.154,-14.5,-4,-7,-5.1,27.6,-15.3,0.185338908,-0.652180548,-0.0699179052,-0.731681265
870,2179731,1120300,0.969,-0.186,0.158,-14.2,-3.9,-7.4,-5.1,27.6,-15.3,0.185003204,-0.652272103,-0.0698263497,-0.731681265
871,2181791,1120300,0.969,-0.19,0.154,-13.9,-3.8,-7.8,-5.1,27.6,-15.3,0.184698019,-0.652394177,-0.0697347942,-0.731681265
872,2184136,1120300,0.969,-0.19,0.15,-13.6,-3.9,-8,-5.1,27.6,-15.3,0.184362316,-0.652485733,-0.0696432386,-0.731681265
873,2188421,1120300,0.969,-0.194,0.15,-13.3,-4,-8.3,-5.1,27.6,-15.3,0.184026612,-0.652607807,-0.0695516831,-0.731681265
874,2188800,1120310,0.973,-0.194,0.15,-13,-4.1,-8.3,-5.1,27.6,-15.3,0.183690909,-0.652699362,-0.0694906461,-0.731681265
875,2191224,1120310,0.969,-0.194,0.154,-12.8,-4.1,-8.2,-5.1,27.6,-15.3,0.183385723,-0.652821436,-0.0694296091,-0.731650746
876,2195566,1120310,0.969,-0.194,0.154,-12.8,-4.1,-8.2,-5.1,27.6,-15.3,0.183385723,-0.652821436,-0.0694296091,-0.731650746
877,2197595,1120310,0.965,-0.198,0.15,-11.9,-4.2,-8.2,-5.4,27.1,-15.3,0.183416242,-0.652912992,-0.0685445723,-0.731650746
878,2200455,1120320,0.973,-0.198,0.154,-11.5,-4.3,-8.2,-5.4,27.1,-15.3,0.183111057,-0.653035066,-0.0684530168,-0.731620228
879,2202279,1120320,0.969,-0.198,0.162,-11.1,-4.5,-8.3,-5.4,27.1,-15.3,0.18283639,-0.653126621,-0.0684530168,-0.731620228
880,2203965,1120320,0.973,-0.198,0.158,-10.6,-4.5,-8.3,-5.5,27.5,-15.3,0.182531205,-0.653218177,-0.0684224982,-0.731589709
881,2206690,1120320,0.969,-0.198,0.162,-10.1,-4.3,-8.4,-5.5,27.5,-15.3,0.182256539,-0.653309732,-0.0683919797,-0.731589709
882,2210031,1120330,0.973,-0.202,0.17,-9.6,-4,-8.3,-5.5,27.5,-15.3,0.181981872,-0.653431806,-0.0683919797,-0.731589709
883,2212107,1120330,0.965,-0.202,0.17,-8.9,-3.8,-8.3,-5.5,27.5,-15.3,0.181707205,-0.653492843,-0.0683614612,-0.731559191
884,2215608,1120330,0.973,-0.206,0.17,-8.3,-3.7,-8.2,-6.1,27.7,-15.2,0.181463057,-0.653584399,-0.0683614612,-0.731559191
885,2217788,1120330,0.969,-0.206,0.17,-7.6,-3.7,-8.2,-6.1,27.7,-15.2,0.181188391,-0.653675954,-0.0683919797,-0.731559191
886,2220142,1120340,0.969,-0.21,0.17,-7.1,-3.5,-8.2,-6.1,27.7,-15.2,0.180974761,-0.653736991,-0.0683919797,-0.731528672
887,2222417,1120340,0.973,-0.202,0.174,-6.6,-3.4,-8.2,-6.1,27.7,-15.2,0.180730613,-0.653798029,-0.0684224982,-0.731528672
888,2224302,1120340,0.969,-0.206,0.166,-6.3,-3.2,-8.2,-6.4,27.6,-15,0.180516984,-0.653859066,-0.0684530168,-0.731528672
889,2226541,1120340,0.976,-0.206,0.166,-6.2,-3.2,-8.4,-6.4,27.6,-15,0.180272835,-0.653920103,-0.0684530168,-0.731528672
890,2228898,1120350,0.98,-0.206,0.166,-6.3,-3.2,-8.5,-6.4,27.6,-15,0.180059206,-0.65398114,-0.0685140538,-0.731528672
891,2231350,1120350,0.98,-0.21,0.166,-6.4,-3.1,-8.5,-6.4,27.6,-15,0.179815058,-0.654072695,-0.0685445723,-0.731528672
892,2233741,1120350,0.98,-0.21,0.174,-6.3,-3.2,-8.3,-6.4,27.6,-15,0.17957091,-0.654133732,-0.0685750908,-0.731528672
893,2238179,1120350,0.984,-0.206,0.174,-6.2,-3.1,-8,-6.4,27.6,-15,0.17935728,-0.654194769,-0.0686056093,-0.731528672
894,2240388,1120360,0.984,-0.202,0.17,-6,-3,-7.6,-6.4,27.6,-15,0.179143651,-0.654255806,-0.0686361278,-0.731498154
895,2242568,1120360,0.984,-0.198,0.174,-5.7,-2.9,-7.2,-6.4,27.6,-15,0.178930021,-0.654316843,-0.0686666463,-0.731498154
896,2244925,1120360,0.984,-0.198,0.174,-5.7,-2.9,-7.2,-6.4,27.6,-15,0.178930021,-0.654316843,-0.0686666463,-0.731498154
897,2246744,1120360,0.992,-0.194,0.17,-5.3,-2.5,-6.7,-6.2,27.8,-15.3,0.179143651,-0.654164251,-0.0680562761,-0.731650746
898,2249158,1120370,0.992,-0.198,0.17,-5.1,-2.4,-6.6,-6.2,27.8,-15.3,0.178930021,-0.654194769,-0.0680867946,-0.731650746
899,2251360,1120370,0.996,-0.194,0.166,-5,-2.2,-6.4,-6.2,27.8,-15.3,0.178777429,-0.654255806,-0.0681173132,-0.731650746
900,2253837,1120370,0.996,-0.191,0.166,-4.9,-2.1,-6.2,-6.5,28,-14.9,0.178624836,-0.654286325,-0.0681173132,-0.731650746
901,2256267,1120370,0.996,-0.194,0.166,-4.7,-2.1,-6,-6.5,28,-14.9,0.178441725,-0.654347362,-0.0681478317,-0.731650746
902,2260698,1120380,1,-0.191,0.165,-4.5,-2.2,-5.8,-6.5,28,-14.9,0.178289132,-0.65437788,-0.0681478317,-0.731650746
903,2262742,1120380,0.996,-0.191,0.169,-4.1,-2.3,-5.4,-6.5,28,-14.9,0.17813654,-0.654438917,-0.0681783502,-0.731650746
904,2265085,1120380,0.996,-0.191,0.166,-3.7,-2.3,-4.9,-6.4,27.9,-15.1,0.177953429,-0.654469436,-0.0682088687,-0.731620228
905,2267307,1120380,0.996,-0.187,0.166,-3.2,-2.2,-4.4,-6.4,27.9,-15.1,0.177861873,-0.654499954,-0.0682088687,-0.731620228
906,2269258,1120390,0.992,-0.187,0.17,-2.7,-1.9,-4,-6.4,27.9,-15.1,0.177770318,-0.654560991,-0.0682393872,-0.731620228
907,2273174,1120390,0.992,-0.183,0.166,-2.3,-1.7,-3.8,-6.4,27.9,-15.1,0.177678762,-0.65459151,-0.0682699057,-0.731589709
908,2275552,1120390,0.988,-0.19,0.158,-1.9,-1.5,-3.6,-6,28,-15.6,0.177587207,-0.654622028,-0.0683004242,-0.731589709
909,2277739,1120390,0.988,-0.19,0.158,-1.9,-1.5,-3.6,-6,28,-15.6,0.177587207,-0.654622028,-0.0683004242,-0.731589709
910,2279939,1120400,0.992,-0.187,0.162,-1.1,-1.5,-3.5,-6,28,-15.6,0.177434614,-0.654652547,-0.0683614612,-0.731589709
911,2282107,1120400,0.992,-0.198,0.166,-0.8,-1.5,-3.3,-6,28,-15.6,0.177343059,-0.654683065,-0.0683919797,-0.731589709
912,2284260,1120400,0.984,-0.19,0.162,-0.4,-1.6,-3.2,-6,28,-15.6,0.177282022,-0.654713584,-0.0684530168,-0.731559191
913,2286449,1120400,0.98,-0.19,0.154,0,-1.7,-3,-6,28,-15.6,0.177251503,-0.654713584,-0.0685140538,-0.731559191
914,2289589,1120410,0.984,-0.194,0.158,0.4,-1.7,-2.7,-6,28,-15.6,0.177190466,-0.654744102,-0.0685445723,-0.731528672
915,2291699,1120410,0.976,-0.19,0.154,0.8,-1.7,-2.3,-6,28,-15.6,0.177190466,-0.654774621,-0.0686056093,-0.731528672
916,2293924,1120410,0.976,-0.19,0.154,0.8,-1.7,-2.3,-6,28,-15.6,0.177190466,-0.654774621,-0.0686056093,-0.731528672
917,2297059,1120410,0.976,-0.194,0.154,1.5,-1.2,-1.6,-5.7,26.9,-15.3,0.177709281,-0.654622028,-0.0681173132,-0.731559191
918,2299245,1120420,0.98,-0.194,0.154,1.6,-1,-1.4,-5.7,26.9,-15.3,0.177709281,-0.654652547,-0.0681478317,-0.731559191
919,2301530,1120420,0.976,-0.198,0.15,1.6,-1,-1.2,-5.7,26.9,-15.3,0.177709281,-0.654652547,-0.0682088687,-0.731528672
920,2304693,1120420,0.973,-0.198,0.162,1.6,-1.2,-1,-5.7,26.9,-15.3,0.177709281,-0.654652547,-0.0682393872,-0.731528672
921,2306677,1120420,0.969,-0.198,0.154,2,-1.2,-0.8,-5.7,26.9,-15.3,0.177739799,-0.654683065,-0.0683004242,-0.731498154
922,2308940,1120430,0.965,-0.198,0.158,2.4,-1.2,-0.5,-5.7,26.9,-15.3,0.177770318,-0.654683065,-0.0683614612,-0.731498154
923,2311988,1120430,0.965,-0.206,0.158,2.9,-1.2,-0.1,-5.7,26.9,-15.3,0.177800836,-0.654683065,-0.0684224982,-0.731437117
924,2315251,1120430,0.965,-0.198,0.158,3.4,-1.1,0.1,-5.7,26.9,-15.3,0.177831355,-0.654683065,-0.0684530168,-0.731437117
925,2317555,1120430,0.965,-0.194,0.158,3.8,-1,0.4,-5.7,26.9,-15.3,0.177892392,-0.654713584,-0.0685140538,-0.731406598
926,2319226,1120440,0.961,-0.202,0.154,4.2,-0.8,0.6,-5.7,26.9,-15.3,0.177953429,-0.654683065,-0.0685750908,-0.731406598
927,2322980,1120440,0.961,-0.21,0.158,4.5,-0.7,0.8,-5.7,26.9,-15.3,0.178044984,-0.654683065,-0.0686361278,-0.73137608
928,2325252,1120440,0.965,-0.206,0.158,4.7,-0.4,1.1,-5.7,26.9,-15.3,0.17813654,-0.654683065,-0.0686971648,-0.731345561
929,2327370,1120440,0.965,-0.206,0.158,4.7,-0.4,1.1,-5.7,26.9,-15.3,0.17813654,-0.654683065,-0.0686971648,-0.731345561
930,2329208,1120450,0.961,-0.21,0.158,5.2,-0.2,1.8,-5.7,26.9,-15.3,0.178350169,-0.654652547,-0.0688192389,-0.731315043
931,2331288,1120450,0.957,-0.206,0.155,5.5,-0.2,2,-5.7,26.9,-15.3,0.178441725,-0.654652547,-0.0688802759,-0.731315043
932,2334214,1120450,0.953,-0.205,0.159,5.8,-0.2,2.3,-5.7,26.9,-15.3,0.178563799,-0.654622028,-0.0689413129,-0.731284524
933,2337322,1120450,0.961,-0.21,0.158,5.9,-0.3,2.5,-5.7,26.9,-15.3,0.178685873,-0.654622028,-0.0690023499,-0.731254006
934,2338827,1120460,0.961,-0.206,0.158,6.1,-0.3,2.9,-5.7,26.9,-15.3,0.178838466,-0.65459151,-0.0690633869,-0.731223487
935,2342917,1120460,0.957,-0.206,0.155,6.3,-0.2,3.1,-5.7,26.9,-15.3,0.178930021,-0.65459151,-0.069124424,-0.731192969
936,2344213,1120460,0.957,-0.206,0.155,6.3,-0.2,3.1,-5.7,26.9,-15.3,0.178930021,-0.65459151,-0.069124424,-0.731192969
937,2347339,1120460,0.953,-0.205,0.159,6.7,-0.1,3.6,-5.6,27,-15.1,0.179845576,-0.654408399,-0.0685750908,-0.731192969
938,2348838,1120470,0.957,-0.202,0.158,7.1,-0.3,3.8,-5.6,27,-15.1,0.180028687,-0.65437788,-0.0686361278,-0.73116245
939,2352961,1120470,0.961,-0.202,0.154,7.4,-0.5,4,-5.6,27,-15.1,0.18018128,-0.65437788,-0.0686971648,-0.731131932
940,2354341,1120470,0.965,-0.194,0.154,7.8,-0.7,4.4,-5.6,27,-15.1,0.180364391,-0.654347362,-0.0687887204,-0.731101413
941,2356522,1120470,0.969,-0.198,0.154,8.2,-0.6,4.8,-5.6,27,-15.1,0.180578021,-0.654347362,-0.0688497574,-0.731040376
942,2360671,1120480,0.973,-0.194,0.15,8.6,-0.7,5.2,-5.6,27,-15.1,0.180761132,-0.654316843,-0.0689107944,-0.731009857
943,2362737,1120480,0.973,-0.194,0.154,9,-0.8,5.6,-5.6,27,-15.1,0.18100528,-0.654316843,-0.0689413129,-0.73094882
944,2364840,1120480,0.976,-0.19,0.158,9.5,-0.9,5.9,-5.6,27,-15.1,0.181218909,-0.654316843,-0.0690328684,-0.730918302
945,2366469,1120480,0.98,-0.19,0.158,10,-1,6.3,-5.6,27,-15.1,0.181463057,-0.654286325,-0.069124424,-0.730857265
946,2368838,1120490,0.976,-0.186,0.158,10.5,-1,6.7,-5.6,27,-15.1,0.181707205,-0.654286325,-0.069185461,-0.730796228
947,2373346,1120490,0.98,-0.182,0.158,10.9,-1,7.1,-5.6,27,-15.1,0.181981872,-0.654255806,-0.0692770165,-0.730735191
948,2375379,1120490,0.984,-0.179,0.162,11.4,-1.1,7.4,-5.6,27,-15.1,0.182256539,-0.654255806,-0.0693380535,-0.730674154
949,2376794,1120490,0.984,-0.179,0.162,11.4,-1.1,7.4,-5.6,27,-15.1,0.182256539,-0.654255806,-0.0693380535,-0.730674154
950,2379203,1120500,0.984,-0.175,0.162,12.3,-1,8.1,-5.6,27,-15.1,0.18283639,-0.654194769,-0.0695211646,-0.73055208
951,2381405,1120500,0.984,-0.171,0.162,12.8,-0.9,8.5,-5.6,27,-15.1,0.183172094,-0.654164251,-0.0696127201,-0.730491043
952,2383763,1120500,0.988,-0.163,0.162,13.2,-0.8,8.9,-5.6,27,-15.1,0.183507797,-0.654164251,-0.0697042756,-0.730399487
953,2387597,1120500,0.98,-0.171,0.154,13.6,-0.8,9.2,-5.6,27,-15.1,0.183812983,-0.654133732,-0.0697958312,-0.73033845
954,2390012,1120510,0.98,-0.171,0.162,13.9,-0.8,9.3,-5.6,27,-15.1,0.184209723,-0.654103214,-0.0698873867,-0.730277413
955,2391755,1120510,0.98,-0.167,0.162,14.3,-0.8,9.5,-5.6,27,-15.1,0.184545427,-0.654072695,-0.0699789422,-0.730185858
956,2394540,1120510,0.98,-0.167,0.162,14.3,-0.8,9.5,-5.6,27,-15.1,0.184545427,-0.654072695,-0.0699789422,-0.730185858
957,2397571,1120510,0.977,-0.159,0.158,14.9,-0.7,10,-6,26.9,-15.6,0.185522019,-0.653828547,-0.0699179052,-0.730155339
958,2399944,1120520,0.977,-0.155,0.158,15.2,-0.7,10.2,-6,26.9,-15.6,0.185888241,-0.653798029,-0.0700399792,-0.730094302
959,2401524,1120520,0.977,-0.159,0.158,15.4,-0.6,10.5,-6,26.9,-15.6,0.186284982,-0.65376751,-0.0701315348,-0.730002747
960,2404622,1120520,0.977,-0.163,0.15,15.5,-0.5,10.7,-6,26.9,-15.6,0.186681722,-0.653736991,-0.0702230903,-0.72994171
961,2407600,1120520,0.977,-0.155,0.154,15.5,-0.4,11,-6,26.9,-15.6,0.187078463,-0.653706473,-0.0703146458,-0.729850154
962,2409628,1120530,0.969,-0.155,0.154,15.6,-0.3,11.2,-6,26.9,-15.6,0.187475204,-0.653645436,-0.0704062014,-0.729789117
963,2412257,1120530,0.977,-0.147,0.158,15.7,-0.2,11.5,-6,26.9,-15.6,0.187871944,-0.653614917,-0.0704977569,-0.729697562
964,2413971,1120530,0.969,-0.155,0.154,15.8,-0.1,11.7,-6,26.9,-15.6,0.188299203,-0.65355388,-0.0705893124,-0.729636525
965,2416757,1120530,0.973,-0.159,0.15,15.9,0,11.9,-6,26.9,-15.6,0.188695944,-0.653523362,-0.0706808679,-0.729544969
966,2419881,1120540,0.969,-0.155,0.146,16,0,12,-6,26.9,-15.6,0.189123203,-0.653462325,-0.070741905,-0.729483932
967,2423326,1120540,0.965,-0.159,0.15,16.2,0,12.2,-6,26.9,-15.6,0.189550462,-0.653431806,-0.0708334605,-0.729392376
968,2425702,1120540,0.969,-0.163,0.15,16.3,0,12.3,-6,26.9,-15.6,0.19000824,-0.653370769,-0.0708944975,-0.729331339
969,2427895,1120540,0.969,-0.163,0.15,16.3,0,12.3,-6,26.9,-15.6,0.19000824,-0.653370769,-0.0708944975,-0.729331339
970,2430235,1120550,0.961,-0.163,0.147,16.2,0.4,12.3,-6,26.9,-15.6,0.190862758,-0.653279214,-0.0710776086,-0.729178747
971,2432324,1120550,0.961,-0.163,0.15,16.1,0.6,12.2,-6,26.9,-15.6,0.191290017,-0.653218177,-0.0711691641,-0.72911771
972,2433851,1120550,0.961,-0.163,0.147,16,0.6,12.1,-6,26.9,-15.6,0.191717277,-0.65315714,-0.0712607196,-0.729056673
973,2436798,1120550,0.961,-0.17,0.154,16,0.5,12.1,-6,26.9,-15.6,0.192114017,-0.653096103,-0.0713217566,-0.728995636
974,2440221,1120560,0.957,-0.167,0.151,16,0.4,12.2,-6,26.9,-15.6,0.192541276,-0.653035066,-0.0713827937,-0.72890408
975,2442185,1120560,0.961,-0.178,0.151,16,0.3,12.2,-6,26.9,-15.6,0.192968535,-0.652974029,-0.0714743492,-0.728843043
976,2443691,1120560,0.961,-0.178,0.151,16,0.3,12.2,-6,26.9,-15.6,0.192968535,-0.652974029,-0.0714743492,-0.728843043
977,2446506,1120560,0.957,-0.174,0.158,16,-0.1,12,-5.3,26.9,-15.7,0.194006165,-0.652790918,-0.0714438307,-0.728751488
978,2450242,1120570,0.961,-0.178,0.154,16,-0.3,11.8,-5.3,26.9,-15.7,0.194433424,-0.652729881,-0.0715353862,-0.728659932
979,2451561,1120570,0.961,-0.178,0.151,15.9,-0.5,11.6,-5.3,26.9,-15.7,0.194830164,-0.652699362,-0.0716269417,-0.728598895
980,2454586,1120570,0.957,-0.178,0.158,15.9,-0.7,11.5,-5.3,26.9,-15.7,0.195257424,-0.652668844,-0.0717184973,-0.72850734
981,2456756,1120570,0.957,-0.174,0.154,16,-0.9,11.3,-5.3,26.9,-15.7,0.195654164,-0.652638325,-0.0718100528,-0.728415784
982,2458781,1120580,0.957,-0.174,0.158,16.3,-1.3,11.2,-5.3,26.9,-15.7,0.196050905,-0.652607807,-0.0719321268,-0.728324229
983,2462074,1120580,0.953,-0.174,0.158,16.5,-1.7,11.1,-5.3,26.9,-15.7,0.196478164,-0.652577288,-0.0720236824,-0.728232673
984,2464985,1120580,0.961,-0.174,0.158,16.6,-2,11,-5.3,26.9,-15.7,0.196874905,-0.65254677,-0.0721457564,-0.728110599
985,2466407,1120580,0.957,-0.17,0.158,16.6,-2.3,10.8,-5.3,26.9,-15.7,0.197271645,-0.65254677,-0.0722678304,-0.728019044
986,2469532,1120590,0.957,-0.17,0.158,16.6,-2.4,10.7,-5.3,26.9,-15.7,0.197698904,-0.652516251,-0.072359386,-0.72789697
987,2472535,1120590,0.957,-0.17,0.154,16.7,-2.7,10.4,-5.3,26.9,-15.7,0.198095645,-0.652516251,-0.0725119785,-0.727805414
988,2473850,1120590,0.957,-0.166,0.158,16.9,-3,10.3,-5.3,26.9,-15.7,0.198461867,-0.652485733,-0.0726645711,-0.72768334
989,2477055,1120590,0.957,-0.166,0.158,16.9,-3,10.3,-5.3,26.9,-15.7,0.198461867,-0.652485733,-0.0726645711,-0.72768334
990,2479789,1120600,0.953,-0.163,0.155,17,-3.4,10,-5.3,26.9,-15.7,0.199285867,-0.652485733,-0.0729392376,-0.727439192
991,2481394,1120600,0.957,-0.163,0.158,17.1,-3.6,9.8,-5.3,26.9,-15.7,0.199682608,-0.652485733,-0.0730918302,-0.727317118
992,2484964,1120600,0.957,-0.163,0.154,17.2,-3.8,9.6,-5.3,26.9,-15.7,0.200079348,-0.652485733,-0.0732444227,-0.727195044
993,2486645,1120600,0.957,-0.159,0.158,17.4,-4,9.5,-5.3,26.9,-15.7,0.200476089,-0.652485733,-0.0733970153,-0.72707297
994,2488680,1120610,0.957,-0.159,0.158,17.5,-4.1,9.5,-5.3,26.9,-15.7,0.200872829,-0.652485733,-0.0735496078,-0.726950896
995,2491596,1120610,0.953,-0.155,0.158,17.7,-4.3,9.3,-5.3,26.9,-15.7,0.20126957,-0.652516251,-0.0737327189,-0.726798303
996,2494764,1120610,0.953,-0.155,0.158,17.7,-4.3,9.3,-5.3,26.9,-15.7,0.20126957,-0.652516251,-0.0737327189,-0.726798303
997,2496218,1120610,0.949,-0.155,0.155,17.9,-4.8,9.1,-4.6,26.5,-15.9,0.202215644,-0.652211066,-0.0739463485,-0.726798303
998,2499325,1120620,0.953,-0.151,0.147,18,-5,9,-4.6,26.5,-15.9,0.202612384,-0.652211066,-0.074098941,-0.726645711
999,2501635,1120620,0.949,-0.147,0.151,18.3,-5.2,8.9,-4.6,26.5,-15.9,0.202978607,-0.652241585,-0.0743125706,-0.726493118
1000,2503886,1120620,0.949,-0.151,0.151,18.5,-5.4,8.7,-4.6,26.7,-16.3,0.203344829,-0.652241585,-0.0744956816,-0.726371044
1001,2507774,1120620,0.949,-0.151,0.147,18.7,-5.7,8.5,-4.6,26.7,-16.3,0.203772088,-0.652272103,-0.0747093112,-0.726218451
1002,2509806,1120630,0.945,-0.147,0.147,19.1,-5.7,8.2,-4.6,26.7,-16.3,0.204168828,-0.652302622,-0.0748924223,-0.726065859
1003,2512105,1120630,0.945,-0.147,0.147,19.4,-5.4,7.9,-4.6,26.7,-16.3,0.204565569,-0.652302622,-0.0751365703,-0.725913266
1004,2514198,1120630,0.945,-0.155,0.143,19.6,-5.3,7.5,-4.8,26.8,-16.1,0.20496231,-0.652302622,-0.0753501999,-0.725760674
1005,2517795,1120630,0.945,-0.159,0.143,19.6,-5.1,7.2,-4.8,26.8,-16.1,0.205298013,-0.65233314,-0.075594348,-0.7256386
1006,2520070,1120640,0.945,-0.155,0.147,19.6,-5.1,6.9,-4.8,26.8,-16.1,0.205725272,-0.65233314,-0.075777459,-0.725486007
1007,2522301,1120640,0.945,-0.162,0.143,19.4,-4.9,6.6,-4.8,26.8,-16.1,0.206091494,-0.65233314,-0.0760521256,-0.725363933
