sample_index,elapsed_us,device_time_ms,acc_x_g,acc_y_g,acc_z_g,gyro_x_dps,gyro_y_dps,gyro_z_dps,mag_x_ut,mag_y_ut,mag_z_ut,quat_w,quat_x,quat_y,quat_z
0,4501,1252570,-0.698,-0.463,0.571,-0.2,0.3,-1.2,4.2,-8.1,-22.6,0.521561327,0.165471358,0.434949797,-0.715079196
1,8428,1252570,-0.698,-0.459,0.571,-0.3,0.3,-1.2,4.2,-8.1,-22.6,0.521530808,0.165471358,0.434949797,-0.715109714
2,10628,1252570,-0.694,-0.455,0.574,-0.5,0.5,-1.2,3.7,-7.9,-22.9,0.521530808,0.16544084,0.434980316,-0.715109714
3,12908,1252570,-0.698,-0.455,0.582,-0.5,0.6,-1.1,3.7,-7.9,-22.9,0.52150029,0.16544084,0.435010834,-0.715109714
4,15113,1252580,-0.694,-0.455,0.574,-0.5,0.7,-1.1,3.7,-7.9,-22.9,0.521469771,0.16544084,0.435010834,-0.715109714
5,17279,1252580,-0.694,-0.459,0.574,-0.6,0.7,-1,3.7,-7.9,-22.9,0.521439253,0.16544084,0.435041353,-0.715109714
6,19573,1252580,-0.69,-0.455,0.578,-0.6,0.9,-1,3.1,-8.1,-23,0.521439253,0.16544084,0.435071871,-0.715109714
7,21990,1252580,-0.69,-0.455,0.574,-0.8,1,-0.9,3.1,-8.1,-23,0.521408734,0.16544084,0.43510239,-0.715109714
8,24764,1252590,-0.69,-0.463,0.574,-0.9,1.1,-0.9,3.1,-8.1,-23,0.521378216,0.16544084,0.435132908,-0.715109714
9,27052,1252590,-0.69,-0.455,0.574,-1.1,1.1,-1,3.1,-8.1,-23,0.521378216,0.165410321,0.435163427,-0.715109714
10,29636,1252590,-0.694,-0.455,0.57,-1.3,1.2,-1.1,5.5,-9.5,-22.9,0.521347697,0.165410321,0.435193945,-0.715109714
11,32794,1252590,-0.69,-0.455,0.57,-1.4,1.2,-1.2,5.5,-9.5,-22.9,0.521317179,0.165410321,0.435254982,-0.715109714
12,34510,1252600,-0.694,-0.455,0.57,-1.4,1.2,-1.2,5.5,-9.5,-22.9,0.52128666,0.165410321,0.435285501,-0.715109714
13,38051,1252600,-0.69,-0.455,0.57,-1.3,1.2,-1.3,5.5,-9.5,-22.9,0.521256142,0.165379803,0.435316019,-0.715109714
14,39551,1252600,-0.694,-0.455,0.57,-1.3,1.2,-1.2,2.7,-7.5,-23.1,0.521225623,0.165349284,0.435377056,-0.715109714
15,43404,1252600,-0.694,-0.455,0.57,-1.3,1.2,-1.2,2.7,-7.5,-23.1,0.521195105,0.165318766,0.435407575,-0.715109714
16,44787,1252610,-0.694,-0.455,0.567,-1.4,1.3,-1.1,2.7,-7.5,-23.1,0.521164586,0.165318766,0.435438093,-0.715109714
17,47832,1252610,-0.69,-0.447,0.574,-1.4,1.4,-1.1,2.7,-7.5,-23.1,0.521134068,0.165318766,0.43549913,-0.715109714
18,49490,1252610,-0.694,-0.451,0.57,-1.5,1.3,-1.2,2.5,-7.5,-23,0.521103549,0.165318766,0.435529649,-0.715109714
19,52264,1252610,-0.69,-0.451,0.57,-1.5,1.3,-1.2,2.5,-7.5,-23,0.521073031,0.165257729,0.435590686,-0.715079196
20,54580,1252620,-0.694,-0.443,0.57,-1.5,1.3,-1.1,2.5,-7.5,-23,0.521073031,0.165257729,0.435621204,-0.715079196
21,57144,1252620,-0.69,-0.451,0.574,-1.5,1.3,-1,2.5,-7.5,-23,0.521042512,0.165257729,0.435651723,-0.715079196
22,60590,1252620,-0.694,-0.451,0.57,-1.4,1.2,-0.9,3,-7.6,-22.6,0.521011994,0.165257729,0.43571276,-0.715079196
23,62458,1252620,-0.69,-0.451,0.57,-1.4,1.3,-0.9,3,-7.6,-22.6,0.520981475,0.165257729,0.435743278,-0.715079196
24,64558,1252630,-0.69,-0.455,0.578,-1.3,1.4,-1,3,-7.6,-22.6,0.520981475,0.165257729,0.435804315,-0.715048677
25,67067,1252630,-0.69,-0.451,0.578,-1.4,1.5,-1,3,-7.6,-22.6,0.520950957,0.165257729,0.435834834,-0.715048677
26,69703,1252630,-0.694,-0.459,0.578,-1.4,1.6,-1.1,3.3,-7.3,-22.7,0.520920438,0.165257729,0.435865352,-0.715048677
27,73023,1252630,-0.694,-0.459,0.574,-1.4,1.7,-1.2,3.3,-7.3,-22.7,0.52088992,0.165257729,0.435926389,-0.715048677
28,75426,1252640,-0.694,-0.455,0.574,-1.4,1.7,-1.2,3.3,-7.3,-22.7,0.520859401,0.165257729,0.435987426,-0.715018159
29,77594,1252640,-0.698,-0.459,0.571,-1.4,1.7,-1,3.3,-7.3,-22.7,0.520828883,0.165257729,0.436017945,-0.715018159
30,79823,1252640,-0.698,-0.455,0.574,-1.4,1.7,-1,5.1,-9.2,-22.8,0.520798364,0.165257729,0.436078982,-0.715018159
31,82139,1252640,-0.698,-0.451,0.578,-1.3,1.7,-1.1,5.1,-9.2,-22.8,0.520767846,0.165257729,0.4361095,-0.715018159
32,84501,1252650,-0.702,-0.459,0.579,-1.1,1.5,-1.1,5.1,-9.2,-22.8,0.520737327,0.165257729,0.436140019,-0.715018159
33,87176,1252650,-0.698,-0.455,0.574,-1,1.4,-1.2,5.1,-9.2,-22.8,0.520706809,0.165257729,0.436201056,-0.715018159
34,90568,1252650,-0.698,-0.455,0.571,-1.1,1.3,-1.4,5,-8.1,-22.7,0.520706809,0.165257729,0.436170537,-0.715018159
35,92104,1252650,-0.698,-0.455,0.574,-1.1,1.3,-1.4,5,-8.1,-22.7,0.52067629,0.165257729,0.436201056,-0.715018159
36,95240,1252660,-0.698,-0.451,0.574,-1.1,1.4,-1.5,5,-8.1,-22.7,0.520645772,0.165257729,0.436231574,-0.715018159
37,97411,1252660,-0.694,-0.451,0.574,-1.1,1.5,-1.5,5,-8.1,-22.7,0.520615253,0.165257729,0.436292611,-0.715018159
38,99727,1252660,-0.702,-0.455,0.575,-1.1,1.4,-1.5,5.2,-7.6,-23,0.520584735,0.165257729,0.43632313,-0.715018159
39,102122,1252660,-0.698,-0.455,0.574,-0.9,1.4,-1.7,5.2,-7.6,-23,0.520493179,0.165257729,0.436353648,-0.715018159
40,104597,1252670,-0.698,-0.459,0.582,-0.8,1.3,-1.7,5.2,-7.6,-23,0.520493179,0.16522721,0.436384167,-0.715048677
41,107562,1252670,-0.698,-0.451,0.578,-0.8,1.2,-1.8,5.2,-7.6,-23,0.520462661,0.16522721,0.436445204,-0.715048677
42,109805,1252670,-0.694,-0.455,0.578,-1,1.1,-2,5.3,-7.5,-23,0.520432142,0.16522721,0.436475723,-0.715048677
43,112471,1252670,-0.694,-0.451,0.578,-0.9,1,-2.2,5.3,-7.5,-23,0.520371105,0.165196692,0.436506241,-0.715079196
44,114633,1252680,-0.694,-0.447,0.574,-0.9,1,-2.3,5.3,-7.5,-23,0.520340587,0.165196692,0.43653676,-0.715079196
45,116961,1252680,-0.694,-0.443,0.57,-0.8,1.2,-2.3,5.3,-7.5,-23,0.52027955,0.165166173,0.436567278,-0.715109714
46,121382,1252680,-0.698,-0.451,0.571,-0.9,1.2,-2.4,5.7,-7.7,-23.1,0.520249031,0.165166173,0.436597797,-0.715109714
47,122102,1252680,-0.698,-0.443,0.574,-0.8,1.1,-2.4,5.7,-7.7,-23.1,0.520187994,0.165135655,0.436658834,-0.715140233
48,125820,1252690,-0.698,-0.447,0.578,-0.8,1,-2.6,5.7,-7.7,-23.1,0.520157476,0.165135655,0.436689352,-0.715140233
49,127237,1252690,-0.694,-0.447,0.578,-0.6,1,-2.6,5.7,-7.7,-23.1,0.520096438,0.165105136,0.436719871,-0.715170751
50,129726,1252690,-0.694,-0.447,0.574,-0.5,1,-2.7,4.5,-8.2,-23,0.520035401,0.165105136,0.436750389,-0.71520127
51,132244,1252690,-0.694,-0.451,0.574,-0.5,0.8,-2.7,4.5,-8.2,-23,0.520004883,0.165074618,0.436780908,-0.71520127
52,134552,1252700,-0.694,-0.451,0.574,-0.4,0.8,-2.8,4.5,-8.2,-23,0.519943846,0.165044099,0.436811426,-0.715231788
53,137918,1252700,-0.69,-0.451,0.574,-0.3,0.8,-2.9,4.5,-8.2,-23,0.519882809,0.165044099,0.436811426,-0.715262307
54,139825,1252700,-0.694,-0.451,0.57,-0.5,0.9,-2.9,4.5,-8.7,-22.8,0.519882809,0.165044099,0.436750389,-0.715323344
55,143267,1252700,-0.698,-0.451,0.574,-0.5,0.9,-2.9,4.5,-8.7,-22.8,0.51985229,0.165013581,0.436780908,-0.715353862
56,145548,1252710,-0.702,-0.447,0.578,-0.6,0.9,-3.1,4.5,-8.7,-22.8,0.519791253,0.164983062,0.436811426,-0.715353862
57,146989,1252710,-0.698,-0.455,0.578,-0.7,1,-3.1,4.5,-8.7,-22.8,0.519730216,0.164983062,0.436841945,-0.715384381
58,149554,1252710,-0.702,-0.451,0.582,-0.7,1.1,-3.1,4.5,-8.7,-22.8,0.519669179,0.164952544,0.436872463,-0.715414899
59,153021,1252710,-0.698,-0.451,0.578,-0.7,1.1,-3.2,4.5,-8.7,-22.8,0.519608142,0.164922025,0.436902982,-0.715445418
60,154568,1252720,-0.698,-0.447,0.574,-0.5,1,-3.1,4.5,-8.7,-22.8,0.519547105,0.164922025,0.4369335,-0.715475936
61,157937,1252720,-0.698,-0.451,0.582,-0.5,1,-3.2,4.5,-8.7,-22.8,0.519486068,0.164891507,0.436964019,-0.715506455
62,160176,1252720,-0.698,-0.455,0.574,-0.4,0.9,-3.2,4.5,-8.7,-22.8,0.519425031,0.164860988,0.436994537,-0.715536973
63,163094,1252720,-0.694,-0.455,0.574,-0.5,0.9,-3.2,4.5,-8.7,-22.8,0.519394513,0.16483047,0.437025056,-0.715567492
64,166162,1252730,-0.698,-0.455,0.578,-0.4,0.9,-3.2,4.5,-8.7,-22.8,0.519333476,0.16483047,0.437055574,-0.71559801
65,168340,1252730,-0.698,-0.459,0.578,-0.3,0.9,-3.2,4.5,-8.7,-22.8,0.519272439,0.164799951,0.437086093,-0.715628529
66,170503,1252730,-0.702,-0.459,0.579,-0.2,0.9,-3.1,4.5,-8.7,-22.8,0.519211402,0.164769433,0.437116611,-0.715659047
67,172879,1252730,-0.702,-0.463,0.579,-0.2,0.9,-3.2,4.5,-8.7,-22.8,0.519150365,0.164769433,0.43714713,-0.715689566
68,175029,1252740,-0.698,-0.459,0.582,-0.2,0.9,-3.1,4.5,-8.7,-22.8,0.519089328,0.164738914,0.437177648,-0.715720084
69,176966,1252740,-0.702,-0.463,0.586,-0.1,0.9,-3.1,4.5,-8.7,-22.8,0.519028291,0.164738914,0.437177648,-0.715750603
70,179594,1252740,-0.698,-0.467,0.59,0,0.8,-3.1,5,-6.6,-21.5,0.518967254,0.164708396,0.437208167,-0.715781121
71,182013,1252740,-0.706,-0.467,0.583,0,0.9,-3.1,5,-6.6,-21.5,0.518906217,0.164708396,0.437238685,-0.71581164
72,185312,1252750,-0.706,-0.463,0.575,0.1,0.7,-3,5,-6.6,-21.5,0.518875698,0.164677877,0.437238685,-0.71581164
73,187138,1252750,-0.706,-0.455,0.579,0.2,0.7,-2.9,5,-6.6,-21.5,0.518814661,0.164677877,0.437269204,-0.715872677
74,189606,1252750,-0.706,-0.451,0.579,0.2,0.6,-2.6,5,-6.6,-21.5,0.518784143,0.164647359,0.437208167,-0.715903195
75,192934,1252750,-0.706,-0.451,0.579,0.2,0.6,-2.6,5,-6.6,-21.5,0.518723106,0.164647359,0.437238685,-0.715933714
76,194659,1252760,-0.706,-0.459,0.586,0,0.6,-2.5,5,-6.6,-21.5,0.518692587,0.16461684,0.437238685,-0.715964232
77,198226,1252760,-0.702,-0.455,0.586,-0.1,0.4,-2.4,5,-6.6,-21.5,0.518662069,0.16461684,0.437269204,-0.715994751
78,199621,1252760,-0.706,-0.455,0.586,-0.3,0.3,-2.3,5,-6.6,-21.5,0.518601032,0.164586322,0.437269204,-0.716025269
79,202730,1252760,-0.698,-0.459,0.582,-0.4,0.3,-2.3,5,-6.6,-21.5,0.518570513,0.164555803,0.437299722,-0.716025269
80,205630,1252770,-0.698,-0.463,0.586,-0.5,0.4,-2.2,5,-6.6,-21.5,0.518539995,0.164555803,0.437330241,-0.716055788
81,207117,1252770,-0.702,-0.467,0.582,-0.5,0.4,-2.1,5,-6.6,-21.5,0.518509476,0.164525285,0.437330241,-0.716086306
82,210267,1252770,-0.698,-0.467,0.586,-0.6,0.4,-2.1,5,-6.6,-21.5,0.518448439,0.164494766,0.437360759,-0.716086306
83,212629,1252770,-0.702,-0.467,0.582,-0.7,0.3,-2,5,-6.6,-21.5,0.51841792,0.164464248,0.437391278,-0.716116825
84,214674,1252780,-0.698,-0.463,0.575,-0.6,0.3,-1.8,5,-6.6,-21.5,0.518387402,0.164464248,0.437421796,-0.716116825
85,217208,1252780,-0.698,-0.467,0.575,-0.5,0.2,-1.8,5,-6.6,-21.5,0.518356883,0.164433729,0.437421796,-0.716147343
86,219482,1252780,-0.702,-0.467,0.575,-0.6,0.3,-1.7,5,-6.6,-21.5,0.518356883,0.164433729,0.437452315,-0.716147343
87,222897,1252780,-0.706,-0.467,0.575,-0.6,0.3,-1.7,5,-6.6,-21.5,0.518326365,0.164403211,0.437482833,-0.716147343
88,225138,1252790,-0.702,-0.467,0.582,-0.6,0.3,-1.7,5,-6.6,-21.5,0.518295846,0.164372692,0.437482833,-0.716177862
89,227273,1252790,-0.702,-0.463,0.575,-0.5,0.3,-1.7,5,-6.6,-21.5,0.518265328,0.164372692,0.437513352,-0.716177862
90,230298,1252790,-0.698,-0.459,0.578,-0.4,0.3,-1.6,4.8,-8.1,-22.7,0.518234809,0.164342174,0.437513352,-0.71620838
91,232066,1252790,-0.698,-0.463,0.578,-0.2,0.4,-1.5,4.8,-8.1,-22.7,0.518204291,0.164342174,0.43754387,-0.71620838
92,235552,1252800,-0.702,-0.459,0.575,-0.2,0.4,-1.6,4.8,-8.1,-22.7,0.518173772,0.164281137,0.43754387,-0.716238899
93,237017,1252800,-0.702,-0.447,0.578,-0.2,0.4,-1.7,4.8,-8.1,-22.7,0.518143254,0.164281137,0.437574389,-0.716238899
94,240099,1252800,-0.702,-0.455,0.575,-0.2,0.2,-1.5,4.7,-7.9,-22.8,0.518173772,0.164342174,0.437452315,-0.716269417
95,242322,1252800,-0.702,-0.451,0.578,-0.2,0.2,-1.5,4.7,-7.9,-22.8,0.518143254,0.164342174,0.437482833,-0.716299936
96,245354,1252810,-0.702,-0.447,0.575,-0.1,0.2,-1.3,4.7,-7.9,-22.8,0.518143254,0.164281137,0.437482833,-0.716299936
97,246995,1252810,-0.702,-0.447,0.575,-0.1,0.1,-1.3,4.7,-7.9,-22.8,0.518112735,0.164281137,0.437482833,-0.716299936
98,249758,1252810,-0.698,-0.439,0.574,-0.1,0.2,-1.2,4.9,-8,-22.4,0.518082217,0.164281137,0.437513352,-0.716330454
99,252911,1252810,-0.698,-0.443,0.567,-0.3,0.3,-1.2,4.9,-8,-22.4,0.518082217,0.164281137,0.437513352,-0.716330454
100,254554,1252820,-0.694,-0.439,0.567,-0.6,0.2,-1.2,4.9,-8,-22.4,0.518051698,0.164281137,0.43754387,-0.716330454
101,258104,1252820,-0.698,-0.439,0.567,-0.9,0.1,-1.2,4.9,-8,-22.4,0.51802118,0.164250618,0.43754387,-0.716330454
102,259588,1252820,-0.698,-0.443,0.571,-1.2,0.1,-1.2,4.8,-8.1,-21.7,0.51802118,0.164220099,0.437574389,-0.716360973
103,262525,1252820,-0.702,-0.443,0.571,-1.4,0.1,-1.1,4.8,-8.1,-21.7,0.517990661,0.164220099,0.437604907,-0.716330454
104,265620,1252830,-0.706,-0.439,0.575,-1.7,0.1,-1.1,4.8,-8.1,-21.7,0.517990661,0.164189581,0.437635426,-0.716330454
105,267040,1252830,-0.702,-0.443,0.571,-1.9,0.2,-1.2,4.8,-8.1,-21.7,0.517990661,0.164159062,0.437696463,-0.716330454
106,270123,1252830,-0.702,-0.443,0.571,-2.1,0.1,-1.2,4.8,-8.1,-21.7,0.517960143,0.164128544,0.437726981,-0.716330454
107,272313,1252830,-0.702,-0.451,0.575,-2.2,0.1,-1.2,4.8,-8.1,-21.7,0.517960143,0.164067507,0.4377575,-0.716330454
108,274559,1252840,-0.702,-0.447,0.578,-2.4,0,-1.3,4.8,-8.1,-21.7,0.517929624,0.164036988,0.437818537,-0.716299936
109,277209,1252840,-0.706,-0.447,0.575,-2.3,0,-1.3,4.8,-8.1,-21.7,0.517929624,0.16400647,0.437849055,-0.716299936
110,279450,1252840,-0.702,-0.451,0.575,-2.1,-0.1,-1.3,4.8,-8.4,-21.8,0.517899106,0.163945433,0.437879574,-0.716299936
111,283678,1252840,-0.698,-0.455,0.571,-1.8,-0.2,-1.3,4.8,-8.4,-21.8,0.517899106,0.163914914,0.437910092,-0.716299936
112,285876,1252850,-0.702,-0.459,0.567,-1.5,-0.4,-1.3,4.8,-8.4,-21.8,0.517899106,0.163884396,0.437940611,-0.716299936
113,288088,1252850,-0.698,-0.459,0.575,-1.3,-0.4,-1.3,4.8,-8.4,-21.8,0.517868587,0.163853877,0.437971129,-0.716299936
114,290408,1252850,-0.698,-0.459,0.575,-0.6,-0.4,-1.1,4.8,-8.2,-21.6,0.517899106,0.163884396,0.437910092,-0.716299936
115,292606,1252850,-0.698,-0.459,0.578,-0.6,-0.4,-1.1,4.8,-8.2,-21.6,0.517899106,0.163884396,0.437910092,-0.716299936
116,294811,1252860,-0.702,-0.459,0.582,-0.2,-0.5,-1,4.8,-8.2,-21.6,0.517899106,0.163853877,0.437910092,-0.716330454
117,297085,1252860,-0.706,-0.459,0.583,0,-0.6,-1.2,4.8,-8.2,-21.6,0.517868587,0.163823359,0.437910092,-0.716330454
118,299665,1252860,-0.702,-0.459,0.582,0.2,-0.8,-1.3,4.5,-8.5,-22,0.517868587,0.16379284,0.437910092,-0.716360973
119,303080,1252860,-0.702,-0.459,0.59,0.4,-0.9,-1.4,4.5,-8.5,-22,0.517838069,0.16379284,0.437910092,-0.716391491
120,304562,1252870,-0.702,-0.459,0.586,0.8,-1,-1.4,4.5,-8.5,-22,0.517838069,0.163762322,0.437879574,-0.716391491
121,307609,1252870,-0.694,-0.471,0.582,1,-1.1,-1.2,4.5,-8.5,-22,0.51780755,0.163731803,0.437849055,-0.71642201
122,309768,1252870,-0.694,-0.459,0.574,1.3,-1.4,-1.1,4.7,-8.4,-22.5,0.51780755,0.163731803,0.437818537,-0.716452528
123,312807,1252870,-0.694,-0.467,0.574,1.6,-1.7,-1.1,4.7,-8.4,-22.5,0.51780755,0.163701285,0.437788018,-0.716513565
124,314447,1252880,-0.694,-0.467,0.574,1.9,-2,-1.2,4.7,-8.4,-22.5,0.51780755,0.163670766,0.437726981,-0.716544084
125,318091,1252880,-0.702,-0.467,0.579,2,-2.2,-1.2,4.7,-8.4,-22.5,0.517777032,0.163670766,0.437665944,-0.716574602
126,320368,1252880,-0.698,-0.471,0.578,2.2,-2.2,-1.2,4.7,-8.4,-22.5,0.517777032,0.163640248,0.437635426,-0.71663564
127,322807,1252880,-0.69,-0.467,0.578,2.3,-2.2,-1.1,4.7,-8.4,-22.5,0.517777032,0.163609729,0.437574389,-0.716666158
128,325036,1252890,-0.69,-0.467,0.574,2.5,-2.2,-0.9,4.7,-8.4,-22.5,0.517777032,0.163609729,0.437513352,-0.716727195
129,327290,1252890,-0.686,-0.459,0.582,2.5,-2.2,-0.8,4.7,-8.4,-22.5,0.517777032,0.163579211,0.437452315,-0.716757714
130,329580,1252890,-0.69,-0.463,0.582,2.5,-2.3,-0.6,4.8,-8.2,-23.4,0.517777032,0.163579211,0.437391278,-0.716788232
131,332119,1252890,-0.686,-0.463,0.586,2.5,-2.5,-0.6,4.8,-8.2,-23.4,0.517777032,0.163548692,0.437299722,-0.716849269
132,334594,1252900,-0.686,-0.463,0.586,2.4,-2.5,-0.4,4.8,-8.2,-23.4,0.51780755,0.163548692,0.437238685,-0.716879788
133,337787,1252900,-0.686,-0.463,0.582,2.2,-2.3,-0.3,4.8,-8.2,-23.4,0.51780755,0.163518174,0.437177648,-0.716910306
134,340033,1252900,-0.69,-0.455,0.582,1.4,-2.2,-0.1,4.6,-8.2,-24.1,0.517838069,0.1633961,0.436994537,-0.71703238
135,342158,1252900,-0.69,-0.455,0.582,1.4,-2.2,-0.1,4.6,-8.2,-24.1,0.517868587,0.163365581,0.4369335,-0.71703238
136,344683,1252910,-0.686,-0.455,0.578,1.2,-2.1,0,4.6,-8.2,-24.1,0.517868587,0.163365581,0.436902982,-0.717062899
137,346940,1252910,-0.69,-0.459,0.582,1.1,-2,0,4.6,-8.2,-24.1,0.517899106,0.163304544,0.436872463,-0.717093417
138,350372,1252910,-0.682,-0.459,0.582,1,-2,0.1,4.4,-8,-23.9,0.517899106,0.163304544,0.436811426,-0.717093417
139,352173,1252910,-0.686,-0.455,0.578,0.9,-1.9,0.3,4.4,-8,-23.9,0.517929624,0.163304544,0.436780908,-0.717093417
140,354488,1252920,-0.682,-0.451,0.582,0.7,-1.9,0.5,4.4,-8,-23.9,0.517960143,0.163274026,0.436750389,-0.717123936
141,357352,1252920,-0.682,-0.455,0.582,0.5,-1.8,0.6,4.4,-8,-23.9,0.517990661,0.163274026,0.436719871,-0.717123936
142,359573,1252920,-0.686,-0.459,0.578,0.3,-1.7,0.7,4.3,-8.1,-23.6,0.51802118,0.163243507,0.436689352,-0.717123936
143,362589,1252920,-0.686,-0.455,0.582,0,-1.5,0.8,4.3,-8.1,-23.6,0.51802118,0.163243507,0.436658834,-0.717123936
144,364639,1252930,-0.682,-0.459,0.582,0,-1.3,1,4.3,-8.1,-23.6,0.518051698,0.163212989,0.436658834,-0.717123936
145,366930,1252930,-0.686,-0.459,0.582,-0.2,-1.3,1.1,4.3,-8.1,-23.6,0.518112735,0.163212989,0.436628315,-0.717093417
146,369527,1252930,-0.682,-0.455,0.59,-0.2,-1.4,1.3,4.3,-8.1,-23.6,0.518143254,0.16318247,0.436628315,-0.717093417
147,373031,1252930,-0.686,-0.455,0.586,-0.2,-1.4,1.3,4.3,-8.1,-23.6,0.518173772,0.16318247,0.436597797,-0.717062899
148,374943,1252940,-0.686,-0.451,0.582,-0.3,-1.3,1.2,4.3,-8.1,-23.6,0.518204291,0.16318247,0.436597797,-0.717062899
149,377296,1252940,-0.686,-0.451,0.586,-0.4,-1,1.1,4.3,-8.1,-23.6,0.518234809,0.163151952,0.436567278,-0.717062899
150,379597,1252940,-0.69,-0.451,0.586,-0.5,-0.9,1,5.1,-8.4,-22.8,0.518265328,0.163151952,0.436567278,-0.71703238
151,382616,1252940,-0.686,-0.447,0.582,-0.6,-0.9,0.9,5.1,-8.4,-22.8,0.518295846,0.163121433,0.436567278,-0.71703238
152,384372,1252950,-0.686,-0.447,0.586,-0.7,-0.9,0.8,5.1,-8.4,-22.8,0.518295846,0.163121433,0.436567278,-0.717001862
153,387014,1252950,-0.686,-0.451,0.586,-0.6,-0.9,0.6,5.1,-8.4,-22.8,0.518326365,0.163090915,0.436567278,-0.717001862
154,389617,1252950,-0.694,-0.451,0.582,-0.5,-0.9,0.5,5.1,-8.3,-22.9,0.518478957,0.163090915,0.436292611,-0.717062899
155,393092,1252950,-0.686,-0.451,0.574,-0.5,-0.9,0.5,5.1,-8.3,-22.9,0.518478957,0.163060396,0.436292611,-0.717062899
156,394591,1252960,-0.69,-0.459,0.582,-0.5,-1,0.5,5.1,-8.3,-22.9,0.518509476,0.163060396,0.436292611,-0.717062899
157,398013,1252960,-0.69,-0.459,0.582,-0.5,-1,0.5,5.1,-8.3,-22.9,0.518539995,0.163029878,0.436292611,-0.71703238
158,399570,1252960,-0.694,-0.459,0.578,-0.4,-1,0.3,5.3,-8.4,-22.6,0.518539995,0.163029878,0.436262093,-0.71703238
159,402086,1252960,-0.686,-0.463,0.586,-0.2,-1,0.2,5.3,-8.4,-22.6,0.518570513,0.162999359,0.436262093,-0.71703238
160,404382,1252970,-0.69,-0.463,0.586,0,-0.9,0.1,5.3,-8.4,-22.6,0.518570513,0.162999359,0.436262093,-0.71703238
161,407933,1252970,-0.694,-0.467,0.582,0.2,-0.8,0,5.3,-8.4,-22.6,0.518570513,0.162968841,0.436231574,-0.71703238
162,409427,1252970,-0.694,-0.471,0.586,0.5,-0.7,0,5,-8.5,-23.1,0.518570513,0.162968841,0.436231574,-0.717062899
163,413930,1252970,-0.69,-0.471,0.582,0.7,-0.6,0,5,-8.5,-23.1,0.518601032,0.162968841,0.436201056,-0.717062899
164,414408,1252980,-0.698,-0.467,0.586,1,-0.6,0,5,-8.5,-23.1,0.518601032,0.162968841,0.436170537,-0.717062899
165,417554,1252980,-0.69,-0.471,0.582,1.2,-0.6,-0.1,5,-8.5,-23.1,0.518601032,0.162968841,0.436140019,-0.717093417
166,419874,1252980,-0.69,-0.475,0.586,1.4,-0.6,-0.2,5,-8.5,-23.1,0.518570513,0.162968841,0.4361095,-0.717123936
167,422087,1252980,-0.694,-0.467,0.582,1.7,-0.5,-0.3,5,-8.5,-23.1,0.518570513,0.162999359,0.436078982,-0.717123936
168,424388,1252990,-0.69,-0.471,0.582,2.1,-0.4,-0.4,5,-8.5,-23.1,0.518570513,0.162999359,0.436017945,-0.717154454
169,426912,1252990,-0.69,-0.471,0.582,2.3,-0.5,-0.4,5,-8.5,-23.1,0.518570513,0.162999359,0.436017945,-0.717184973
170,430275,1252990,-0.69,-0.475,0.582,2.5,-0.5,-0.4,6.3,-7.9,-23.1,0.518539995,0.163029878,0.435956908,-0.717215491
171,432366,1252990,-0.682,-0.467,0.586,2.8,-0.6,-0.3,6.3,-7.9,-23.1,0.518539995,0.163060396,0.435926389,-0.71724601
172,435408,1253000,-0.686,-0.475,0.586,3,-0.6,-0.3,6.3,-7.9,-23.1,0.518539995,0.163060396,0.435865352,-0.717276528
173,436897,1253000,-0.682,-0.475,0.586,3.1,-0.9,-0.2,6.3,-7.9,-23.1,0.518509476,0.163090915,0.435804315,-0.717337565
174,439840,1253000,-0.686,-0.475,0.582,3.3,-1.1,-0.2,6.3,-7.7,-23,0.518478957,0.162938322,0.43571276,-0.717459639
175,442136,1253000,-0.686,-0.475,0.582,3.3,-1.1,-0.2,6.3,-7.7,-23,0.518478957,0.162968841,0.435621204,-0.717490158
176,444478,1253010,-0.683,-0.479,0.586,3.4,-0.9,-0.1,6.3,-7.7,-23,0.518478957,0.162968841,0.435560167,-0.717520676
177,447269,1253010,-0.682,-0.471,0.586,3.4,-0.8,0,6.3,-7.7,-23,0.518478957,0.162999359,0.43549913,-0.717551195
178,450338,1253010,-0.69,-0.471,0.582,3.5,-0.7,0.1,6.3,-7.9,-23,0.518478957,0.163029878,0.435438093,-0.717581713
179,452280,1253010,-0.682,-0.471,0.582,3.5,-0.6,0.1,6.3,-7.9,-23,0.518478957,0.163060396,0.435377056,-0.71764275
180,455303,1253020,-0.686,-0.463,0.582,3.6,-0.6,0.2,6.3,-7.9,-23,0.518478957,0.163090915,0.435316019,-0.717673269
181,456997,1253020,-0.682,-0.455,0.586,3.5,-0.6,0.3,6.3,-7.9,-23,0.518478957,0.163121433,0.435254982,-0.717703787
182,459414,1253020,-0.686,-0.455,0.582,3.4,-0.7,0.5,6.2,-7.8,-22.7,0.518478957,0.163151952,0.435193945,-0.717734306
183,463740,1253020,-0.682,-0.459,0.578,3.1,-0.7,0.5,6.2,-7.8,-22.7,0.518478957,0.16318247,0.435132908,-0.717764824
184,466001,1253030,-0.682,-0.463,0.582,2.8,-0.7,0.4,6.2,-7.8,-22.7,0.518478957,0.163212989,0.435071871,-0.717764824
185,468136,1253030,-0.682,-0.459,0.57,2.7,-0.6,0.4,6.2,-7.8,-22.7,0.518478957,0.163243507,0.435010834,-0.717795343
186,469757,1253030,-0.682,-0.463,0.578,2.7,-0.6,0.4,6.2,-7.8,-22.7,0.518478957,0.163274026,0.434949797,-0.717825861
187,472295,1253030,-0.686,-0.463,0.578,2.5,-0.6,0.5,6.2,-7.8,-22.7,0.518478957,0.163304544,0.434919279,-0.71785638
188,474442,1253040,-0.69,-0.463,0.582,2.5,-0.6,0.4,6.2,-7.8,-22.7,0.518478957,0.163304544,0.434858242,-0.71785638
189,477963,1253040,-0.686,-0.467,0.582,2.5,-0.7,0.4,6.2,-7.8,-22.7,0.518509476,0.163304544,0.434827723,-0.717886898
190,479724,1253040,-0.69,-0.471,0.582,2.7,-0.8,0.4,4.5,-8.5,-23,0.518509476,0.163365581,0.434766686,-0.717917417
191,483528,1253040,-0.69,-0.471,0.582,3,-0.8,0.4,4.5,-8.5,-23,0.518509476,0.1633961,0.434705649,-0.717947935
192,485172,1253050,-0.69,-0.467,0.582,3.2,-0.6,0.3,4.5,-8.5,-23,0.518509476,0.163426618,0.434644612,-0.717978454
193,487267,1253050,-0.69,-0.475,0.582,3.4,-0.6,0.1,4.5,-8.5,-23,0.518509476,0.163457137,0.434583575,-0.718008972
194,490686,1253050,-0.691,-0.483,0.586,4.1,-0.6,-0.1,3.3,-8.4,-22.9,0.518448439,0.163365581,0.434522538,-0.718100528
195,492852,1253050,-0.691,-0.483,0.586,4.1,-0.6,-0.1,3.3,-8.4,-22.9,0.518448439,0.1633961,0.434430982,-0.718131046
196,495120,1253060,-0.686,-0.479,0.586,4.6,-0.7,0,3.3,-8.4,-22.9,0.518448439,0.163426618,0.434369945,-0.718192083
197,497329,1253060,-0.687,-0.487,0.586,5,-0.6,0,3.3,-8.4,-22.9,0.51841792,0.163487655,0.43427839,-0.718222602
198,499588,1253060,-0.69,-0.479,0.582,5.5,-0.6,-0.3,2.2,-8.6,-23.2,0.51841792,0.163518174,0.434186834,-0.718283639
199,501960,1253060,-0.691,-0.491,0.582,5.9,-0.5,-0.6,2.2,-8.6,-23.2,0.518387402,0.163579211,0.43406476,-0.718344676
200,505621,1253070,-0.683,-0.487,0.59,6.4,-0.5,-0.8,2.2,-8.6,-23.2,0.518356883,0.163640248,0.433973205,-0.718436232
201,507075,1253070,-0.687,-0.495,0.582,7,-0.5,-1,2.2,-8.6,-23.2,0.518326365,0.163701285,0.433881649,-0.718497269
202,510172,1253070,-0.683,-0.483,0.582,7.6,-0.5,-1.1,1.7,-8.6,-23,0.518265328,0.163762322,0.433759575,-0.718588824
203,513217,1253070,-0.679,-0.483,0.578,8.1,-0.5,-1.3,1.7,-8.6,-23,0.518234809,0.163853877,0.433606983,-0.71868038
204,514753,1253080,-0.687,-0.483,0.582,8.5,-0.4,-1.5,1.7,-8.6,-23,0.518173772,0.163914914,0.433484909,-0.718802454
205,517952,1253080,-0.682,-0.475,0.582,8.7,-0.3,-1.6,1.7,-8.6,-23,0.518112735,0.16400647,0.433332316,-0.718894009
206,519536,1253080,-0.682,-0.471,0.582,8.9,-0.2,-1.9,1.7,-8.6,-23,0.518051698,0.164067507,0.433210242,-0.719016083
207,523119,1253080,-0.682,-0.463,0.586,9,0,-2.1,1.7,-8.6,-23,0.517990661,0.164159062,0.433088168,-0.719107639
208,525342,1253090,-0.682,-0.463,0.582,9,0.1,-2.2,1.7,-8.6,-23,0.517929624,0.164250618,0.432935575,-0.719229713
209,527263,1253090,-0.682,-0.455,0.582,9,0.2,-2.2,1.7,-8.6,-23,0.517868587,0.164281137,0.432813501,-0.719321268
210,529650,1253090,-0.686,-0.455,0.582,8.8,0.3,-2.4,2.9,-7.8,-23,0.517777032,0.164403211,0.432691427,-0.719443342
211,532426,1253090,-0.686,-0.451,0.578,8.6,0.3,-2.6,2.9,-7.8,-23,0.517715995,0.164494766,0.432569353,-0.719565416
212,534535,1253100,-0.682,-0.459,0.582,8.4,0.3,-2.7,2.9,-7.8,-23,0.517624439,0.164555803,0.432447279,-0.719656972
213,537079,1253100,-0.682,-0.455,0.578,8.1,0.2,-2.9,2.9,-7.8,-23,0.517563402,0.16461684,0.432325205,-0.719779046
214,540215,1253100,-0.678,-0.463,0.582,7.3,0.3,-3.2,3.3,-7.4,-23,0.517471847,0.164647359,0.432203131,-0.71990112
215,542975,1253100,-0.678,-0.467,0.578,7.3,0.3,-3.2,3.3,-7.4,-23,0.51741081,0.164708396,0.432081057,-0.719992676
216,544469,1253110,-0.678,-0.467,0.574,7,0.5,-3.3,3.3,-7.4,-23,0.517319254,0.164769433,0.431989502,-0.72011475
217,546939,1253110,-0.678,-0.467,0.578,6.7,0.8,-3.5,3.3,-7.4,-23,0.517227699,0.16483047,0.431928465,-0.720206305
218,550314,1253110,-0.683,-0.479,0.582,6.5,0.9,-3.8,4.5,-7.2,-22.8,0.517136143,0.164860988,0.431836909,-0.720297861
219,552459,1253110,-0.683,-0.479,0.582,6.4,1,-4.1,4.5,-7.2,-22.8,0.517044588,0.164922025,0.431775872,-0.720419935
220,554863,1253120,-0.683,-0.479,0.578,6.4,1,-4.5,4.5,-7.2,-22.8,0.516922514,0.164983062,0.431684317,-0.72051149
221,557203,1253120,-0.675,-0.483,0.578,6.5,1.1,-4.9,4.5,-7.2,-22.8,0.516830958,0.165013581,0.43162328,-0.720633564
222,559921,1253120,-0.675,-0.483,0.586,6.7,1.3,-5.3,5.7,-7.4,-23.1,0.516708884,0.165074618,0.431531724,-0.720755638
223,562769,1253120,-0.675,-0.483,0.59,7.1,1.4,-5.6,5.7,-7.4,-23.1,0.516556291,0.165105136,0.431470687,-0.720877712
224,564477,1253130,-0.675,-0.487,0.59,7.5,1.6,-5.8,5.7,-7.4,-23.1,0.516434217,0.165166173,0.431379131,-0.720999786
225,567018,1253130,-0.675,-0.499,0.594,8.1,1.9,-6,5.7,-7.4,-23.1,0.516281625,0.16522721,0.431318094,-0.721152379
226,569577,1253130,-0.671,-0.503,0.597,8.7,2,-6.3,5.7,-7.4,-23.1,0.516129032,0.165318766,0.431226539,-0.721304971
227,572860,1253130,-0.675,-0.499,0.594,9.5,2.3,-6.7,5.7,-7.4,-23.1,0.51597644,0.165379803,0.431104465,-0.721457564
228,575059,1253140,-0.675,-0.507,0.597,10.5,2.4,-6.9,5.7,-7.4,-23.1,0.515793329,0.165471358,0.431012909,-0.721640675
229,577290,1253140,-0.671,-0.507,0.601,11.5,2.5,-7.2,5.7,-7.4,-23.1,0.515610218,0.165593432,0.430860317,-0.721793268
230,579533,1253140,-0.671,-0.507,0.597,12.5,2.6,-7.5,4.8,-8,-22.5,0.515427107,0.165684988,0.430738243,-0.722006897
231,582198,1253140,-0.671,-0.507,0.597,13.3,2.7,-7.8,4.8,-8,-22.5,0.515243995,0.165807062,0.43058565,-0.722190008
232,584510,1253150,-0.667,-0.507,0.605,14.1,2.7,-8,4.8,-8,-22.5,0.515030366,0.165929136,0.430433058,-0.722403638
233,588449,1253150,-0.667,-0.507,0.597,15,2.9,-8.2,4.8,-8,-22.5,0.514816736,0.166081729,0.430249947,-0.722647786
234,590832,1253150,-0.659,-0.495,0.597,16.6,3.2,-8.5,4.9,-7.8,-22.8,0.514481033,0.165898618,0.430127873,-0.723014008
235,592940,1253150,-0.659,-0.495,0.597,16.6,3.2,-8.5,4.9,-7.8,-22.8,0.514236885,0.16605121,0.429914243,-0.723258156
236,595363,1253160,-0.655,-0.495,0.597,17.4,3.1,-8.7,4.9,-7.8,-22.8,0.514023255,0.166234321,0.429700613,-0.723502304
237,597548,1253160,-0.655,-0.495,0.601,17.9,3.2,-8.8,4.9,-7.8,-22.8,0.513779107,0.166386914,0.429486984,-0.723746452
238,599947,1253160,-0.655,-0.499,0.601,18.4,3.3,-9,4.5,-8.3,-22.7,0.513534959,0.166570025,0.429273354,-0.724021119
239,602963,1253160,-0.659,-0.495,0.605,18.8,3.6,-9.2,4.5,-8.3,-22.7,0.513290811,0.166753136,0.429059725,-0.724295785
240,604585,1253170,-0.659,-0.495,0.601,19.1,4.1,-9.5,4.5,-8.3,-22.7,0.513016144,0.166936247,0.428846095,-0.724570452
241,607364,1253170,-0.659,-0.491,0.609,19.4,4.6,-9.7,4.5,-8.3,-22.7,0.512771996,0.167149876,0.428601947,-0.724845119
242,609629,1253170,-0.659,-0.495,0.605,19.7,5,-9.8,5,-8.8,-22.6,0.51249733,0.167363506,0.428388318,-0.725119785
243,612615,1253170,-0.659,-0.499,0.605,20.1,5.3,-9.9,5,-8.8,-22.6,0.512192145,0.167577136,0.428174688,-0.725394452
244,614730,1253180,-0.655,-0.499,0.609,20.3,5.6,-10.1,5,-8.8,-22.6,0.511917478,0.167790765,0.427961058,-0.725669118
245,616914,1253180,-0.655,-0.495,0.605,20.4,6,-10.3,5,-8.8,-22.6,0.511612293,0.168004395,0.42771691,-0.725943785
246,619991,1253180,-0.651,-0.495,0.605,20.5,6.2,-10.5,4.9,-7.7,-22.5,0.511307108,0.168248543,0.427503281,-0.72624897
247,623005,1253180,-0.655,-0.491,0.605,20.5,6.4,-10.7,4.9,-7.7,-22.5,0.511001923,0.168492691,0.427289651,-0.726523637
248,624494,1253190,-0.651,-0.495,0.605,20.7,6.7,-11,4.9,-7.7,-22.5,0.510696738,0.16870632,0.427076022,-0.726828822
249,627394,1253190,-0.651,-0.495,0.609,20.7,7,-11.3,4.9,-7.7,-22.5,0.510361034,0.168950468,0.426862392,-0.727103488
250,630819,1253190,-0.655,-0.495,0.609,20.8,7.3,-11.6,5.2,-10.2,-22.4,0.510055849,0.169164098,0.426679281,-0.727408673
251,632230,1253190,-0.651,-0.499,0.609,21,7.6,-12,5.2,-10.2,-22.4,0.509689627,0.169438765,0.426465651,-0.727713858
252,635406,1253200,-0.651,-0.503,0.605,21.3,8,-12.3,5.2,-10.2,-22.4,0.509353923,0.169682913,0.426252022,-0.728019044
253,636959,1253200,-0.643,-0.503,0.601,21.5,8.4,-12.7,5.2,-10.2,-22.4,0.508987701,0.169927061,0.426068911,-0.728324229
254,640143,1253200,-0.647,-0.503,0.601,21.8,9.2,-13.4,5.2,-10.9,-22.4,0.508407849,0.169560839,0.425916318,-0.72890408
255,643193,1253200,-0.647,-0.511,0.597,21.8,9.2,-13.4,5.2,-10.9,-22.4,0.508041627,0.169804987,0.425702689,-0.729239784
256,644564,1253210,-0.643,-0.499,0.6,22.1,9.6,-13.8,5.2,-10.9,-22.4,0.507644887,0.170079653,0.425519578,-0.729575488
257,647581,1253210,-0.647,-0.495,0.601,22.5,10.1,-14.3,5.2,-10.9,-22.4,0.507217627,0.17035432,0.425336467,-0.729880673
258,649542,1253210,-0.647,-0.499,0.601,23,10.6,-14.8,5.2,-10.9,-22.3,0.506820887,0.170659505,0.425122837,-0.730216376
259,652780,1253210,-0.655,-0.483,0.593,23.3,11,-15.3,5.2,-10.9,-22.3,0.506363109,0.170934172,0.424939726,-0.730582598
260,654758,1253220,-0.647,-0.476,0.601,23.6,11.3,-15.8,5.2,-10.9,-22.3,0.50593585,0.171239357,0.424756615,-0.730918302
261,657724,1253220,-0.651,-0.472,0.593,23.6,11.6,-16.2,5.2,-10.9,-22.3,0.505478072,0.171544542,0.424542985,-0.731284524
262,659978,1253220,-0.647,-0.476,0.601,23.8,11.9,-16.7,5.4,-10.6,-22.5,0.504989776,0.171819208,0.424359874,-0.731650746
263,662839,1253220,-0.651,-0.468,0.597,23.9,12.4,-17.2,5.4,-10.6,-22.5,0.504531999,0.172093875,0.424176763,-0.732016968
264,664551,1253230,-0.643,-0.468,0.6,24,12.9,-17.5,5.4,-10.6,-22.5,0.504043703,0.172460097,0.424024171,-0.73238319
265,667152,1253230,-0.643,-0.468,0.6,24,13.3,-18,5.4,-10.6,-22.5,0.503524888,0.172765282,0.42384106,-0.732749413
266,670661,1253230,-0.647,-0.472,0.597,24,13.8,-18.5,5.5,-7.9,-20.7,0.503006073,0.173070467,0.423688467,-0.733115635
267,672934,1253230,-0.643,-0.476,0.6,24,14.2,-19,5.5,-7.9,-20.7,0.502487259,0.173375652,0.423535875,-0.733481857
268,674597,1253240,-0.643,-0.476,0.597,23.9,14.5,-19.3,5.5,-7.9,-20.7,0.501937925,0.173711356,0.423383282,-0.733878597
269,677719,1253240,-0.647,-0.476,0.597,23.9,14.8,-19.5,5.5,-7.9,-20.7,0.501419111,0.174016541,0.423230689,-0.734244819
270,679632,1253240,-0.647,-0.48,0.597,23.9,15.3,-19.9,5.4,-9.1,-23.5,0.500869778,0.174352245,0.423078097,-0.73464156
271,682327,1253240,-0.647,-0.476,0.601,24.1,15.8,-20.5,5.4,-9.1,-23.5,0.500289926,0.174687948,0.422956023,-0.735007782
272,685492,1253250,-0.651,-0.472,0.608,24.3,16.4,-21,5.4,-9.1,-23.5,0.499710074,0.175023652,0.422833949,-0.735404523
273,687062,1253250,-0.655,-0.472,0.605,24.6,16.8,-21.5,5.4,-9.1,-23.5,0.499099704,0.175359355,0.422681356,-0.735801263
274,689691,1253250,-0.651,-0.472,0.605,25.3,17.3,-22.2,5.8,-8.6,-23.3,0.498428297,0.175359355,0.422498245,-0.736381115
275,692401,1253250,-0.643,-0.476,0.597,25.3,17.3,-22.2,5.8,-8.6,-23.3,0.497817927,0.175695059,0.422345653,-0.736808374
276,695629,1253260,-0.643,-0.468,0.6,25.6,17.5,-22.6,5.8,-8.6,-23.3,0.497177038,0.176061281,0.422223579,-0.737205115
277,697192,1253260,-0.642,-0.46,0.604,25.9,17.7,-23,5.8,-8.6,-23.3,0.496536149,0.176396985,0.422101505,-0.737632374
278,699839,1253260,-0.646,-0.452,0.597,26.2,17.9,-23.5,5.6,-8.4,-23.2,0.49589526,0.176763207,0.421948912,-0.738059633
279,702086,1253260,-0.646,-0.448,0.597,26.4,18.3,-24,5.6,-8.4,-23.2,0.495254372,0.177129429,0.421826838,-0.738486892
280,706224,1253270,-0.646,-0.444,0.604,26.7,18.6,-24.4,5.6,-8.4,-23.2,0.494582965,0.177495651,0.421704764,-0.73894467
281,708411,1253270,-0.646,-0.44,0.6,26.9,19.1,-24.7,5.6,-8.4,-23.2,0.493881039,0.177861873,0.421552171,-0.739371929
282,710385,1253270,-0.646,-0.437,0.604,27.1,19.3,-25,5.8,-8.5,-23.4,0.493209632,0.178228095,0.421430097,-0.739829707
283,712456,1253270,-0.65,-0.444,0.593,27.5,19.5,-25.3,5.8,-8.5,-23.4,0.492507706,0.178594317,0.421277505,-0.740256966
284,714628,1253280,-0.65,-0.444,0.589,27.9,19.6,-25.6,5.8,-8.5,-23.4,0.49180578,0.178991058,0.421155431,-0.740714743
285,717965,1253280,-0.646,-0.433,0.596,28.2,19.8,-25.9,5.8,-8.5,-23.4,0.491103854,0.179387799,0.421002838,-0.741172521
286,720139,1253280,-0.65,-0.436,0.593,28.4,19.9,-26.2,6,-9.8,-21.9,0.49037141,0.179754021,0.420850246,-0.741630299
287,722483,1253280,-0.646,-0.433,0.589,28.5,20,-26.6,6,-9.8,-21.9,0.489638966,0.180150761,0.420728172,-0.742118595
288,724684,1253290,-0.65,-0.433,0.597,28.7,20.3,-26.9,6,-9.8,-21.9,0.488906522,0.180547502,0.420575579,-0.742576373
289,728103,1253290,-0.642,-0.437,0.589,28.9,20.6,-27.3,6,-9.8,-21.9,0.488174078,0.180883206,0.420392468,-0.743064669
290,729594,1253290,-0.642,-0.433,0.581,29.2,20.7,-27.7,6.5,-10,-21.5,0.487411115,0.181310465,0.420300913,-0.743552965
291,732024,1253290,-0.638,-0.433,0.581,29.5,20.9,-28,6.5,-10,-21.5,0.486648152,0.181707205,0.42014832,-0.744041261
292,734821,1253300,-0.646,-0.433,0.577,29.8,21.2,-28.2,6.5,-10,-21.5,0.485885189,0.182103946,0.419995727,-0.744529557
293,737938,1253300,-0.654,-0.425,0.577,30,21.5,-28.4,6.5,-10,-21.5,0.485091708,0.182531205,0.419843135,-0.745017853
294,739892,1253300,-0.662,-0.42,0.589,30.6,22.1,-28.8,6,-10.1,-20.2,0.484328745,0.18283639,0.419598987,-0.745567186
295,742164,1253300,-0.662,-0.42,0.589,30.6,22.1,-28.8,6,-10.1,-20.2,0.483535264,0.183294168,0.419446394,-0.746055483
296,744492,1253310,-0.674,-0.412,0.589,30.7,22.7,-29,6,-10.1,-20.2,0.482741783,0.183721427,0.419293802,-0.746543779
297,748434,1253310,-0.673,-0.408,0.593,31,23.2,-29,6,-10.1,-20.2,0.481917783,0.184179205,0.419171728,-0.747062593
298,750485,1253310,-0.673,-0.408,0.593,31.1,23.5,-29.2,6.5,-9.7,-19.3,0.481093783,0.184606464,0.419019135,-0.74755089
299,752076,1253310,-0.677,-0.404,0.593,31.2,23.6,-29.4,6.5,-9.7,-19.3,0.480269784,0.185064241,0.418866543,-0.748039186
300,754900,1253320,-0.681,-0.404,0.597,31.2,23.7,-29.5,6.5,-9.7,-19.3,0.479445784,0.185491501,0.418744469,-0.748558
301,758138,1253320,-0.685,-0.404,0.601,31.2,23.8,-29.7,6.5,-9.7,-19.3,0.478621784,0.185949278,0.418591876,-0.749046297
302,760315,1253320,-0.685,-0.4,0.597,31.2,24.1,-29.9,6.3,-10.1,-18.6,0.477767266,0.186376537,0.418439283,-0.749534593
303,762760,1253320,-0.689,-0.396,0.598,31.4,24.3,-30.2,6.3,-10.1,-18.6,0.476943266,0.186834315,0.418317209,-0.750053407
304,764732,1253330,-0.697,-0.392,0.606,31.5,24.4,-30.5,6.3,-10.1,-18.6,0.476088748,0.187292093,0.418195135,-0.750541704
305,767097,1253330,-0.701,-0.388,0.61,31.5,24.6,-30.9,6.3,-10.1,-18.6,0.47523423,0.187719352,0.418042543,-0.751060518
306,769580,1253330,-0.705,-0.384,0.61,31.4,24.8,-31.1,7,-10.2,-23.6,0.474349193,0.188177129,0.417920469,-0.751579333
307,772508,1253330,-0.709,-0.384,0.606,31.2,25,-31.4,7,-10.2,-23.6,0.473494675,0.188634907,0.417798395,-0.752067629
308,775953,1253340,-0.713,-0.376,0.606,31.2,25.2,-31.6,7,-10.2,-23.6,0.472609638,0.189092685,0.417676321,-0.752586444
309,778323,1253340,-0.712,-0.368,0.602,31.2,25.3,-31.9,7,-10.2,-23.6,0.471724601,0.189519944,0.417554247,-0.753105258
310,779762,1253340,-0.716,-0.368,0.606,31.2,25.4,-32.2,7.4,-10,-20.6,0.470839564,0.189977721,0.417432173,-0.753593554
311,782133,1253340,-0.716,-0.364,0.61,31.1,25.4,-32.5,7.4,-10,-20.6,0.469924009,0.190404981,0.417310099,-0.754112369
312,784538,1253350,-0.72,-0.368,0.614,30.9,25.5,-32.8,7.4,-10,-20.6,0.469038972,0.190862758,0.417218543,-0.754631184
313,787063,1253350,-0.72,-0.368,0.61,30.7,25.7,-33.1,7.4,-10,-20.6,0.468123417,0.191290017,0.417096469,-0.755149998
314,790448,1253350,-0.72,-0.368,0.614,30.4,26,-33.6,7.2,-10.2,-21.1,0.46745201,0.192083499,0.41666921,-0.755607776
315,792531,1253350,-0.721,-0.376,0.61,30.4,26,-33.6,7.2,-10.2,-21.1,0.466536454,0.192510758,0.416577654,-0.756126591
316,794594,1253360,-0.72,-0.368,0.61,30.3,26.2,-33.8,7.2,-10.2,-21.1,0.465620899,0.192938017,0.416486099,-0.756614887
317,797788,1253360,-0.724,-0.376,0.61,30.1,26.3,-34,7.2,-10.2,-21.1,0.464674825,0.193365276,0.416394543,-0.757133702
318,799949,1253360,-0.72,-0.372,0.606,29.9,26.4,-34.3,7.8,-10.5,-22.1,0.46375927,0.193823054,0.416302988,-0.757621998
319,802899,1253360,-0.728,-0.372,0.606,29.8,26.5,-34.4,7.8,-10.5,-22.1,0.462813196,0.194250313,0.416211432,-0.758140812
320,804926,1253370,-0.732,-0.368,0.602,29.9,26.6,-34.4,7.8,-10.5,-22.1,0.461867122,0.194677572,0.416150395,-0.758659627
321,807454,1253370,-0.732,-0.364,0.606,30.1,26.8,-34.3,7.8,-10.5,-22.1,0.460921049,0.195104831,0.41605884,-0.759147923
322,809622,1253370,-0.732,-0.364,0.606,30.3,26.8,-34.3,7.9,-10.6,-22.9,0.459974975,0.19553209,0.415967284,-0.759666738
323,813355,1253370,-0.744,-0.356,0.614,30.4,26.9,-34.3,7.9,-10.6,-22.9,0.459028901,0.195989868,0.415875729,-0.760155034
324,815631,1253380,-0.748,-0.359,0.611,30.6,26.9,-34.2,7.9,-10.6,-22.9,0.458113346,0.196417127,0.415784173,-0.760673849
325,818470,1253380,-0.744,-0.352,0.626,30.9,26.9,-34.1,7.9,-10.6,-22.9,0.457167272,0.196874905,0.415692618,-0.761192663
326,820294,1253380,-0.744,-0.352,0.634,31.3,26.9,-33.9,8,-10.7,-20.9,0.456221198,0.197332682,0.415601062,-0.76168096
327,822035,1253380,-0.748,-0.356,0.626,31.7,26.9,-33.8,8,-10.7,-20.9,0.455275124,0.19779046,0.415478988,-0.762199774
328,825441,1253390,-0.748,-0.359,0.634,32.2,26.9,-33.6,8,-10.7,-20.9,0.454329051,0.198248238,0.415356914,-0.76268807
329,826951,1253390,-0.752,-0.363,0.638,32.7,26.9,-33.5,8,-10.7,-20.9,0.453382977,0.198706015,0.41523484,-0.763206885
330,829890,1253390,-0.764,-0.355,0.642,33.4,26.7,-33.4,7.7,-10.3,-20.5,0.452436903,0.199194311,0.415082247,-0.7637257
331,832152,1253390,-0.772,-0.351,0.635,34.1,26.7,-33.4,7.7,-10.3,-20.5,0.451490829,0.199652089,0.414899136,-0.764244514
332,834508,1253400,-0.779,-0.347,0.631,34.9,26.7,-33.4,7.7,-10.3,-20.5,0.450544755,0.200140385,0.414746544,-0.764793847
333,838214,1253400,-0.783,-0.343,0.639,35.5,26.7,-33.4,7.7,-10.3,-20.5,0.449568163,0.2006592,0.414532914,-0.765312662
334,840503,1253400,-0.799,-0.327,0.624,36.8,26.4,-33.6,8.1,-10.6,-20.7,0.448927274,0.201605274,0.413953063,-0.76577044
335,842739,1253400,-0.807,-0.319,0.628,36.8,26.4,-33.6,8.1,-10.6,-20.7,0.447950682,0.20209357,0.413739433,-0.766319773
336,844965,1253410,-0.803,-0.315,0.628,37.4,26.1,-33.8,8.1,-10.6,-20.7,0.44697409,0.202612384,0.413525803,-0.766869106
337,847163,1253410,-0.819,-0.303,0.624,37.9,25.8,-34.1,8.1,-10.6,-20.7,0.446028016,0.203100681,0.413281655,-0.767448958
338,849429,1253410,-0.822,-0.295,0.616,38.2,25.6,-34.5,8.4,-10.6,-20,0.445020905,0.203588977,0.413037507,-0.767998291
339,852127,1253410,-0.834,-0.283,0.621,38.4,25.4,-35.2,8.4,-10.6,-20,0.444044313,0.204077273,0.412793359,-0.768578143
340,855488,1253420,-0.842,-0.279,0.625,38.4,25.5,-35.9,8.4,-10.6,-20,0.443037202,0.204535051,0.41257973,-0.769157994
341,856936,1253420,-0.861,-0.247,0.637,38.4,25.7,-36.6,8.4,-10.6,-20,0.442030091,0.205023347,0.412335582,-0.769737846
342,860606,1253420,-0.869,-0.235,0.633,38.3,25.9,-37.1,8.7,-11,-20.1,0.440992462,0.205481124,0.412091433,-0.770348216
343,863601,1253420,-0.885,-0.215,0.637,38.1,26.2,-37.5,8.7,-11,-20.1,0.439924314,0.20596942,0.411877804,-0.770928068
344,865150,1253430,-0.9,-0.203,0.649,37.6,26.5,-37.8,8.7,-11,-20.1,0.438917203,0.206427198,0.411664174,-0.77150792
345,868194,1253430,-0.92,-0.171,0.654,36.9,26.7,-38,8.7,-11,-20.1,0.437849055,0.206884976,0.411481063,-0.772087771
346,869679,1253430,-0.935,-0.166,0.658,35.8,26.8,-38.2,8,-11.1,-20.1,0.436811426,0.207342753,0.411297952,-0.772637104
347,871995,1253430,-0.943,-0.155,0.662,34.5,26.8,-38.1,8,-11.1,-20.1,0.435773797,0.207770013,0.41114536,-0.773186438
348,874616,1253440,-0.951,-0.143,0.662,33.1,26.5,-37.9,8,-11.1,-20.1,0.434736167,0.208197272,0.411023286,-0.773735771
349,877386,1253440,-0.943,-0.143,0.67,31.7,26,-37.6,8,-11.1,-20.1,0.433729057,0.208594012,0.410901212,-0.774254585
350,879640,1253440,-0.951,-0.139,0.674,30.2,25.3,-37.2,10.8,-10.8,-19.9,0.432721946,0.208990753,0.410809656,-0.7747734
351,882636,1253440,-0.947,-0.143,0.686,28.8,24.5,-36.6,10.8,-10.8,-19.9,0.431775872,0.209356975,0.410718101,-0.775261696
352,884446,1253450,-0.963,-0.146,0.682,27.4,23.7,-35.9,10.8,-10.8,-19.9,0.430829798,0.209692679,0.410626545,-0.775719474
353,887896,1253450,-0.959,-0.158,0.69,26.1,22.8,-35.2,10.8,-10.8,-19.9,0.429883724,0.209997864,0.410565508,-0.776177252
354,889452,1253450,-0.963,-0.158,0.702,24.9,22,-34.4,10.6,-11.5,-19.8,0.428998688,0.210303049,0.410504471,-0.776635029
355,892426,1253450,-0.967,-0.158,0.71,23.9,21.4,-33.7,10.6,-11.5,-19.8,0.428113651,0.210577715,0.410443434,-0.777062288
356,895437,1253460,-0.982,-0.142,0.737,23.2,20.8,-33,10.6,-11.5,-19.8,0.427259133,0.210852382,0.410412915,-0.777489547
357,896895,1253460,-0.986,-0.13,0.749,22.8,20.1,-32.2,10.6,-11.5,-19.8,0.426435133,0.211127049,0.410351878,-0.777886288
358,899990,1253460,-0.998,-0.118,0.765,22.7,19.4,-31.3,11.4,-11,-20,0.425641652,0.211371197,0.410290841,-0.778313547
359,902987,1253460,-0.997,-0.106,0.777,22.8,18.7,-30.2,11.4,-11,-20,0.42484817,0.211645863,0.410229804,-0.778710288
360,904516,1253470,-1.013,-0.09,0.789,23,18.1,-29,11.4,-11,-20,0.424085208,0.21192053,0.410138249,-0.779107028
361,907697,1253470,-1.021,-0.078,0.793,23.5,17.3,-27.6,11.4,-11,-20,0.423352763,0.212134159,0.410016175,-0.779473251
362,910452,1253470,-1.028,-0.07,0.797,24.4,16.3,-26,10.9,-11,-20,0.422650838,0.212439344,0.409863582,-0.779869991
363,913439,1253470,-1.036,-0.066,0.801,25.7,14.8,-24.2,10.9,-11,-20,0.421979431,0.212714011,0.409680471,-0.780236213
364,915057,1253480,-1.044,-0.05,0.797,27.1,13.4,-22.1,10.9,-11,-20,0.421338542,0.212988678,0.409436323,-0.780632954
365,917956,1253480,-1.048,-0.046,0.797,28.5,11.9,-20.1,10.9,-11,-20,0.42075869,0.213293863,0.409161657,-0.781029695
366,919457,1253480,-1.052,-0.05,0.798,29.8,10.5,-18.5,9.1,-11.4,-19.7,0.420209357,0.213568529,0.408825953,-0.781395917
367,922605,1253480,-1.052,-0.042,0.801,30.9,9.2,-17.1,9.1,-11.4,-19.7,0.419690542,0.213873714,0.408490249,-0.781792657
368,925476,1253490,-1.06,-0.034,0.798,31.7,8,-16.1,9.1,-11.4,-19.7,0.419202246,0.214148381,0.408093509,-0.782189398
369,927096,1253490,-1.067,-0.026,0.794,32.2,7.2,-15.1,9.1,-11.4,-19.7,0.418744469,0.214423048,0.40766625,-0.782586138
370,930091,1253490,-1.075,-0.014,0.786,32.5,6.7,-14.4,10.9,-11.3,-19.4,0.418286691,0.214697714,0.40723899,-0.782982879
371,932345,1253490,-1.087,0.009,0.779,32.8,6.3,-13.9,10.9,-11.3,-19.4,0.417828913,0.215002899,0.406811731,-0.783349101
372,934532,1253500,-1.091,0.025,0.775,33.2,5.9,-13.7,10.9,-11.3,-19.4,0.417371136,0.215277566,0.406353954,-0.783745842
373,937967,1253500,-1.098,0.045,0.775,33.6,5.6,-13.7,10.9,-11.3,-19.4,0.416943876,0.215552232,0.405896176,-0.784142582
374,939427,1253500,-1.109,0.096,0.752,33.8,5.2,-13.7,11.1,-11.4,-19.3,0.416486099,0.215826899,0.405438398,-0.784539323
375,943320,1253500,-1.117,0.124,0.748,34,4.9,-13.8,11.1,-11.4,-19.3,0.41605884,0.216101566,0.404950102,-0.784966582
376,945670,1253510,-1.129,0.148,0.74,34.5,4.4,-14,11.1,-11.4,-19.3,0.415601062,0.216376232,0.404461806,-0.785363323
377,948013,1253510,-1.14,0.171,0.737,35.4,3.7,-14.2,11.1,-11.4,-19.3,0.415173803,0.21662038,0.40397351,-0.785790582
378,950029,1253510,-1.151,0.211,0.745,36.5,2.9,-14.4,10.6,-11.4,-18.9,0.414716025,0.216895047,0.403424177,-0.786217841
379,952300,1253510,-1.159,0.227,0.741,37.7,2.1,-14.3,10.6,-11.4,-18.9,0.414288766,0.217139195,0.402874844,-0.786675619
380,954691,1253520,-1.167,0.239,0.737,38.7,1.4,-14.1,10.6,-11.4,-18.9,0.413830988,0.217383343,0.402294992,-0.787133396
381,957204,1253520,-1.171,0.243,0.733,39.4,0.7,-13.6,10.6,-11.4,-18.9,0.413403729,0.217627491,0.401684622,-0.787591174
382,960494,1253520,-1.175,0.266,0.714,39.7,-0.2,-12.9,10.3,-11.7,-19.1,0.413006989,0.217871639,0.401043733,-0.78807947
383,962575,1253520,-1.182,0.271,0.718,39.6,-1.3,-12.1,10.3,-11.7,-19.1,0.41257973,0.218115787,0.400433363,-0.788537248
384,964450,1253530,-1.194,0.271,0.726,39.4,-2.5,-11.3,10.3,-11.7,-19.1,0.412244026,0.218329417,0.399761956,-0.788995025
385,968576,1253530,-1.206,0.271,0.723,39.3,-3.5,-10.5,10.3,-11.7,-19.1,0.411908322,0.218512528,0.399121067,-0.789452803
386,970685,1253530,-1.194,0.306,0.738,39.2,-4.3,-9.4,10.7,-12,-18.8,0.411603137,0.218726157,0.39844966,-0.789910581
387,973042,1253530,-1.194,0.287,0.738,39,-5.3,-8.4,10.7,-12,-18.8,0.411328471,0.218909268,0.397778253,-0.79033784
388,975605,1253540,-1.198,0.302,0.718,38.3,-6.7,-8,10.7,-12,-18.8,0.411053804,0.219061861,0.397076327,-0.790765099
389,977948,1253540,-1.202,0.318,0.715,37.7,-8.4,-8.4,10.7,-12,-18.8,0.410809656,0.219183935,0.39640492,-0.791222877
390,980101,1253540,-1.205,0.326,0.73,37,-10.3,-9.3,7.7,-12.1,-19,0.410534989,0.219244972,0.395702994,-0.791680654
391,982188,1253540,-1.209,0.338,0.726,36.7,-11.8,-10,7.7,-12.1,-19,0.410290841,0.219275491,0.395001068,-0.792138432
392,985759,1253550,-1.213,0.346,0.726,36.3,-13.1,-9.9,7.7,-12.1,-19,0.410077212,0.219306009,0.394329661,-0.79259621
393,987398,1253550,-1.225,0.358,0.719,35.7,-14.3,-9.4,7.7,-12.1,-19,0.409863582,0.219306009,0.393627735,-0.793053987
394,989563,1253550,-1.228,0.374,0.723,34.9,-15.6,-8.5,7.3,-12,-18.5,0.409680471,0.219275491,0.39292581,-0.793511765
395,992032,1253550,-1.232,0.382,0.719,33.9,-17.1,-7.8,7.3,-12,-18.5,0.409527879,0.219214454,0.392193365,-0.793939024
396,996474,1253560,-1.236,0.39,0.723,33,-18.5,-7.4,7.3,-12,-18.5,0.409405805,0.219122898,0.39149144,-0.794396802
397,996932,1253560,-1.236,0.405,0.719,32.1,-20,-7.4,7.3,-12,-18.5,0.409283731,0.218970305,0.390789514,-0.794824061
398,999505,1253560,-1.236,0.409,0.707,31,-21.3,-7.5,6.6,-12.4,-18.8,0.409192175,0.218817713,0.390118107,-0.79525132
399,1002265,1253560,-1.236,0.413,0.711,29.7,-22.6,-7.6,6.6,-12.4,-18.8,0.40910062,0.218634602,0.389416181,-0.795678579
400,1004608,1253570,-1.236,0.413,0.696,28.2,-23.6,-7.6,6.6,-12.4,-18.8,0.409039583,0.218420972,0.388775292,-0.796105838
401,1008402,1253570,-1.236,0.421,0.68,26.4,-24.7,-7.7,6.6,-12.4,-18.8,0.408978545,0.218146306,0.388134404,-0.796533097
402,1010643,1253570,-1.244,0.425,0.668,24.3,-25.6,-8,7,-12.3,-18.7,0.408948027,0.217841121,0.387493515,-0.796929838
403,1012897,1253570,-1.24,0.425,0.657,22,-26.4,-8.5,7,-12.3,-18.7,0.408917508,0.217505417,0.386913663,-0.79729606
404,1015133,1253580,-1.244,0.425,0.645,19.4,-27.1,-9,7,-12.3,-18.7,0.40888699,0.217139195,0.386394848,-0.797692801
405,1017291,1253580,-1.236,0.433,0.617,16.7,-27.6,-9.7,7,-12.3,-18.7,0.40888699,0.216742454,0.385906552,-0.798028504
406,1019577,1253580,-1.24,0.441,0.602,14.4,-28,-10.4,10.8,-14.1,-18.4,0.408856471,0.216284677,0.385448775,-0.798394726
407,1023264,1253580,-1.244,0.464,0.586,12.6,-28.5,-11.4,10.8,-14.1,-18.4,0.408856471,0.215796381,0.385021516,-0.79873043
408,1025567,1253590,-1.287,0.528,0.556,11,-29.3,-12.9,10.8,-14.1,-18.4,0.408825953,0.215277566,0.384624775,-0.799066134
409,1027093,1253590,-1.306,0.56,0.553,8.4,-30,-15.5,10.8,-14.1,-18.4,0.408764916,0.214697714,0.384289071,-0.799432356
410,1030248,1253590,-1.321,0.604,0.557,4.1,-30.8,-19.7,8.8,-11.2,-18.4,0.408642842,0.214026307,0.384044923,-0.799798578
411,1032039,1253590,-1.317,0.647,0.56,-1.8,-31.7,-26.2,8.8,-11.2,-18.4,0.408459731,0.213232826,0.383892331,-0.8001648
412,1035219,1253600,-1.32,0.686,0.533,-8.8,-33.1,-34.2,8.8,-11.2,-18.4,0.408185064,0.212286752,0.383922849,-0.800531022
413,1037363,1253600,-1.332,0.698,0.502,-15.8,-34.9,-42.4,8.8,-11.2,-18.4,0.407818842,0.211157567,0.384075442,-0.800927763
414,1040463,1253600,-1.336,0.71,0.494,-22.6,-36.5,-48.7,9.9,-11.1,-18.7,0.407361064,0.209936827,0.384380627,-0.801355022
415,1042174,1253600,-1.336,0.722,0.486,-28.8,-37.6,-52.3,9.9,-11.1,-18.7,0.406903287,0.208594012,0.384777367,-0.801751762
416,1044460,1253610,-1.332,0.706,0.483,-34.1,-37.8,-53,9.9,-11.1,-18.7,0.406445509,0.207190161,0.385296182,-0.802117985
417,1046980,1253610,-1.344,0.659,0.503,-37.6,-37.6,-51.4,9.9,-11.1,-18.7,0.406048769,0.205755791,0.385845515,-0.80242317
418,1050393,1253610,-1.353,0.632,0.487,-39.8,-37.2,-48.2,10.2,-10.8,-18.7,0.405682546,0.204321421,0.386425367,-0.802667318
419,1052678,1253610,-1.346,0.561,0.483,-41.2,-36.9,-45,10.2,-10.8,-18.7,0.405377361,0.202948088,0.387035737,-0.802880947
420,1054464,1253620,-1.35,0.533,0.472,-42.3,-37.1,-43.4,10.2,-10.8,-18.7,0.405133213,0.201544237,0.387646107,-0.803064058
421,1057469,1253620,-1.351,0.486,0.476,-42.9,-37.8,-44.4,10.2,-10.8,-18.7,0.404858547,0.200140385,0.388256478,-0.803277688
422,1060446,1253620,-1.364,0.451,0.472,-42.6,-39,-47.2,10.6,-10.7,-18.5,0.404553362,0.198675497,0.388866848,-0.803491317
423,1062600,1253620,-1.369,0.361,0.473,-41.2,-40.4,-50.7,10.6,-10.7,-18.5,0.40418714,0.19718009,0.389446699,-0.803765984
424,1064524,1253630,-1.374,0.322,0.469,-38.5,-42,-54.2,10.6,-10.7,-18.5,0.40375988,0.195623646,0.389965514,-0.804101688
425,1067065,1253630,-1.374,0.29,0.469,-34.8,-43.8,-57.2,10.6,-10.7,-18.5,0.403271584,0.194067202,0.39045381,-0.804498428
426,1070424,1253630,-1.382,0.267,0.47,-30.3,-45.4,-60.2,9.1,-11.9,-18.6,0.402722251,0.192480239,0.390850551,-0.804956206
427,1072213,1253630,-1.383,0.255,0.438,-25.6,-47,-63.5,9.1,-11.9,-18.6,0.402111881,0.190893277,0.391094699,-0.805505539
428,1074406,1253640,-1.395,0.248,0.419,-20.7,-48.7,-67.4,9.1,-11.9,-18.6,0.401440474,0.189275796,0.391369366,-0.806115909
429,1077920,1253640,-1.407,0.26,0.404,-15.6,-50.4,-71.9,9.1,-11.9,-18.6,0.400677511,0.187627796,0.39149144,-0.806817835
430,1079413,1253640,-1.411,0.26,0.392,-10.4,-52.2,-76.5,8.9,-12.2,-18.5,0.399792474,0.185979797,0.391521958,-0.807611316
431,1083002,1253640,-1.403,0.263,0.349,-4.3,-54,-80.7,8.9,-12.2,-18.5,0.3988464,0.184301279,0.391460921,-0.808496353
432,1084579,1253650,-1.403,0.252,0.337,2.9,-55.7,-84.5,8.9,-12.2,-18.5,0.39783929,0.182622761,0.391247291,-0.809472945
433,1087046,1253650,-1.403,0.248,0.322,11.5,-57.6,-87.6,8.9,-12.2,-18.5,0.396740623,0.180944243,0.390911588,-0.810571612
434,1089895,1253650,-1.412,0.228,0.302,21.1,-59.7,-89.9,8.9,-12,-18.5,0.395550401,0.179296243,0.390362255,-0.811761834
435,1092342,1253650,-1.412,0.216,0.283,31.4,-61.9,-91.4,8.9,-12,-18.5,0.394360179,0.177709281,0.38962981,-0.813043611
436,1095498,1253660,-1.408,0.204,0.263,41.5,-64.3,-92.6,8.9,-12,-18.5,0.393047884,0.176122318,0.388683737,-0.814447462
437,1097690,1253660,-1.408,0.193,0.252,50.9,-66.9,-93.6,8.9,-12,-18.5,0.391796625,0.174596393,0.38758507,-0.815942869
438,1099902,1253660,-1.405,0.177,0.24,59,-69.4,-95.1,9,-13.4,-18.5,0.39045381,0.173039949,0.386303293,-0.817499313
439,1102475,1253660,-1.405,0.177,0.24,66,-71.8,-97.2,9,-13.4,-18.5,0.389080477,0.171514023,0.384868923,-0.819147313
440,1104401,1253670,-1.393,0.176,0.244,72.2,-73.8,-100.2,9,-13.4,-18.5,0.387646107,0.169957579,0.383281961,-0.820886868
441,1107007,1253670,-1.393,0.176,0.244,72.2,-73.8,-100.2,9,-13.4,-18.5,0.387646107,0.169957579,0.383281961,-0.820886868
442,1110481,1253670,-1.393,0.176,0.244,72.2,-73.8,-100.2,9,-13.4,-18.5,0.387646107,0.169957579,0.383281961,-0.820886868
443,1112574,1253670,-1.357,0.176,0.344,88.7,-78.9,-111.9,8.5,-14.5,-18.3,0.382824183,0.165196692,0.378063295,-0.826532792
444,1115138,1253680,-1.34,0.187,0.375,93.2,-80.5,-116.3,8.5,-14.5,-18.3,0.381054109,0.163579211,0.376110111,-0.828577532
445,1117401,1253680,-1.332,0.199,0.402,96.9,-82,-120.9,8.5,-14.5,-18.3,0.37919248,0.161900693,0.374095889,-0.830652791
446,1119481,1253680,-1.328,0.219,0.464,99.8,-83.5,-125.3,8.6,-10.4,-17.2,0.377269814,0.160191656,0.372051149,-0.832789087
447,1123078,1253680,-1.323,0.226,0.488,102,-84.8,-129.6,8.6,-10.4,-17.2,0.375225074,0.158421583,0.369945372,-0.834986419
448,1125432,1253690,-1.319,0.226,0.527,104,-85.9,-134.3,8.6,-10.4,-17.2,0.373119297,0.156620991,0.367809076,-0.83721427
449,1127012,1253690,-1.299,0.214,0.6,106.3,-86.7,-139.6,8.6,-10.4,-17.2,0.370891446,0.15478988,0.365642262,-0.83947264
450,1129478,1253690,-1.291,0.218,0.639,108.9,-87.2,-145.6,9,-13.6,-19.1,0.36854152,0.152928251,0.363414411,-0.841822565
451,1132948,1253690,-1.279,0.206,0.666,111.3,-87.4,-151.9,9,-13.6,-19.1,0.366069521,0.151005585,0.36118656,-0.844203009
452,1134579,1253700,-1.267,0.21,0.681,113.1,-87.7,-158.4,9,-13.6,-19.1,0.363475448,0.149021882,0.358897671,-0.84664449
453,1137177,1253700,-1.239,0.197,0.724,113.8,-88.1,-165,9,-13.6,-19.1,0.360759301,0.14700766,0.356639302,-0.849116489
454,1140535,1253700,-1.223,0.181,0.735,113.6,-88.7,-171.7,8.9,-13.1,-18.8,0.357890561,0.144932402,0.354380932,-0.851619007
455,1142330,1253700,-1.203,0.181,0.754,112.8,-89.5,-178.7,8.9,-13.1,-18.8,0.354899747,0.142765587,0.352153081,-0.854182562
456,1144597,1253710,-1.172,0.184,0.749,111.5,-90.2,-186.4,8.9,-13.1,-18.8,0.35175634,0.140507218,0.349955748,-0.856746117
457,1147316,1253710,-1.108,0.206,0.712,109.2,-90.7,-194.8,8.9,-13.1,-18.8,0.348460341,0.138157292,0.347788934,-0.85934019
458,1150618,1253710,-1.076,0.221,0.676,106.1,-91.2,-203.8,9.4,-12.8,-18.7,0.34501175,0.135715812,0.345713675,-0.861964782
459,1152135,1253710,-1.036,0.244,0.64,102.1,-92,-213.3,9.4,-12.8,-18.7,0.341380047,0.133121738,0.343729972,-0.864589373
460,1154447,1253720,-0.949,0.304,0.52,98,-93.4,-223.3,9.4,-12.8,-18.7,0.337595752,0.130405591,0.341837825,-0.867244484
461,1157028,1253720,-0.901,0.338,0.46,94.2,-95.3,-233.3,9.4,-12.8,-18.7,0.333597827,0.12756737,0.340006714,-0.869930113
462,1160472,1253720,-0.837,0.36,0.396,91.5,-97.9,-243,9.8,-12.2,-18.3,0.32944731,0.124576556,0.338236641,-0.87264626
463,1162577,1253720,-0.75,0.386,0.339,90.1,-101.4,-251.8,9.8,-12.2,-18.3,0.325174718,0.121433149,0.336466567,-0.875362407
464,1165057,1253730,-0.572,0.39,0.244,90.6,-106,-258.9,9.8,-12.2,-18.3,0.320749535,0.11813715,0.334665975,-0.878139592
465,1168624,1253730,-0.501,0.364,0.223,93,-111.4,-263.8,9.8,-12.2,-18.3,0.316263314,0.114719077,0.332773827,-0.880916776
466,1170352,1253730,-0.434,0.324,0.233,96.9,-116.6,-266.1,10.3,-13.1,-16.2,0.311746574,0.111209449,0.330759606,-0.883754997
467,1171970,1253730,-0.387,0.291,0.236,101.1,-121.2,-266.3,10.3,-13.1,-16.2,0.307229835,0.107638783,0.328592792,-0.8865627
468,1174698,1253740,-0.325,0.148,0.321,104.3,-124.5,-265.2,10.3,-13.1,-16.2,0.302743614,0.104037599,0.326395459,-0.889339885
469,1177430,1253740,-0.263,0.045,0.307,106.1,-126.6,-263.8,10.3,-13.1,-16.2,0.298287912,0.100405896,0.324076052,-0.892117069
470,1179568,1253740,-0.209,-0.026,0.287,107.4,-128.4,-263.9,10.7,-12.7,-17.6,0.293801691,0.0967131565,0.321726127,-0.894863735
471,1182633,1253740,-0.166,-0.11,0.294,109.7,-130.7,-266.5,10.7,-12.7,-17.6,0.289284951,0.0929898984,0.319284646,-0.897579882
472,1184943,1253750,-0.057,-0.262,0.346,113.8,-133.6,-271.2,10.7,-12.7,-17.6,0.284646138,0.0892056032,0.31675161,-0.900357067
473,1187047,1253750,0.008,-0.33,0.387,119.8,-135.7,-275,10.7,-12.7,-17.6,0.279946287,0.0853907895,0.3140965,-0.903134251
474,1189446,1253750,0.083,-0.391,0.452,128.2,-136.3,-275.4,11.3,-12.4,-17.7,0.275215918,0.0816064943,0.31122776,-0.905911435
475,1193017,1253750,-0.08,-1.145,0.767,139.5,-134.6,-271.4,11.3,-12.4,-17.7,0.270516068,0.0779137547,0.30814539,-0.908719138
476,1194746,1253760,0.247,-0.712,0.843,153.5,-131,-265.1,11.3,-12.4,-17.7,0.265877255,0.0744346446,0.304788354,-0.911496323
477,1197897,1253760,0.337,-0.789,0.829,170.4,-130.4,-267.4,11.3,-12.4,-17.7,0.261116367,0.0710470901,0.301065096,-0.914365062
478,1200870,1253760,0.437,-0.772,0.826,190.8,-135.6,-285.2,11.9,-12.9,-16.9,0.256019776,0.06756798,0.296914579,-0.917447432
479,1203048,1253760,0.605,-0.704,0.962,212.9,-146.3,-317.4,11.9,-12.9,-16.9,0.250282296,0.0637836848,0.292275765,-0.920773949
480,1205309,1253770,0.605,-0.704,0.962,212.9,-146.3,-317.4,11.9,-12.9,-16.9,0.250282296,0.0637836848,0.292275765,-0.920773949
481,1206857,1253770,0.605,-0.704,0.962,212.9,-146.3,-317.4,11.9,-12.9,-16.9,0.250282296,0.0637836848,0.292275765,-0.920773949
482,1209641,1253770,1.024,-0.399,1.122,254.8,-168.8,-406.8,12.4,-12.8,-16.3,0.229346599,0.0506302072,0.276314585,-0.931913205
483,1213460,1253770,1.377,-0.156,1.159,257.9,-172.4,-427.7,12.4,-12.8,-16.3,0.221381268,0.0458388012,0.270638142,-0.935728019
484,1215092,1253780,1.577,-0.039,1.157,256.3,-176.3,-446.8,12.4,-12.8,-16.3,0.213049715,0.0408032472,0.264992218,-0.939512314
485,1218001,1253780,1.781,0.074,1.132,249.4,-181.1,-464.7,12.4,-12.8,-16.3,0.204321421,0.035584582,0.259437849,-0.943205054
486,1220219,1253780,1.813,-0.136,0.331,237.6,-187.2,-481.5,14.2,-13,-16.8,0.195287942,0.0300302133,0.254066591,-0.946775719
487,1223175,1253780,3.557,-3.251,-0.956,229.8,-202.7,-494.1,14.2,-13,-16.8,0.186040834,0.0241096225,0.248756371,-0.950193793
488,1225507,1253790,5.282,-7.046,2.762,258.5,-237.6,-486.6,14.2,-13,-16.8,0.177068392,0.0175786615,0.242652669,-0.953642384
489,1227704,1253790,6.37,-8.224,7.502,376.6,-293.4,-421.9,14.2,-13,-16.8,0.169682913,0.0107119968,0.23383282,-0.957274087
490,1229926,1253790,8.009,-8.263,6.083,576,-374.8,-276.2,15,-13.2,-14,0.165684988,0.00360118412,0.220435194,-0.961210974
491,1232211,1253790,7.978,-8.27,1.198,695.2,-490.2,-98.5,15,-13.2,-14,0.165898618,-0.00460829493,0.204046754,-0.96478164
492,1234488,1253800,8.033,-4.844,1.08,577.3,-623.5,25.6,15,-13.2,-14,0.169225135,-0.0155339213,0.189611499,-0.967009491
493,1236985,1253800,8.159,2.76,2.832,216.2,-693.2,46.8,15,-13.2,-14,0.173131504,-0.0291756951,0.182500687,-0.967375713
494,1240486,1253800,8.222,7.277,1.887,-188.6,-612.8,-11.3,12.6,-13.7,-14.6,0.175206763,-0.0428479873,0.184118168,-0.966185492
495,1241987,1253800,8.199,6.253,0.512,-461.9,-371.5,-99.2,12.6,-13.7,-14.6,0.174169134,-0.0528275399,0.192327647,-0.964293344
496,1245750,1253810,7.608,5.397,-0.695,-562.7,-56.2,-148,12.6,-13.7,-14.6,0.170628986,-0.0567949461,0.203772088,-0.962340159
497,1247984,1253810,4.076,5.248,-1.624,-558,235.3,-114.4,12.6,-13.7,-14.6,0.166447951,-0.0544145024,0.21622364,-0.96047853
498,1250219,1253810,4.076,5.248,-1.624,-558,235.3,-114.4,12.6,-13.7,-14.6,0.166447951,-0.0544145024,0.21622364,-0.96047853
499,1252490,1253810,-4.391,6.387,-3.526,-512.2,604.7,78.7,13.5,-11.8,-15.2,0.161473434,-0.0356456191,0.241798151,-0.956114383
500,1254631,1253820,-7.665,6.874,-3.947,-504.6,704.4,98.4,13.5,-11.8,-15.2,0.159398175,-0.0221869564,0.254829554,-0.953489792
501,1256971,1253820,-8.035,6.203,2.106,-476.1,774.7,42.8,13.5,-11.8,-15.2,0.155735954,-0.00747703482,0.26740318,-0.9508652
502,1259578,1253820,-8.074,4.42,2.124,-401.2,807.5,-48.1,16,-9.9,-14.9,0.149906919,0.00759910886,0.278420362,-0.948637349
503,1263726,1253820,-7.584,2.114,0.228,-290.2,747.5,-110.1,16,-9.9,-14.9,0.143131809,0.0214239937,0.286843471,-0.946958831
504,1266034,1253830,-4.099,0.142,-0.995,-186,562.6,-83,16,-9.9,-14.9,0.137913144,0.0319528794,0.292458876,-0.945707572
505,1268248,1253830,0.976,-2.308,-1.46,-121.5,290.3,41.9,16,-9.9,-14.9,0.137058626,0.0378429518,0.295815912,-0.944578387
506,1269728,1253830,2.824,-3.039,-1.921,-94.9,34.5,219.6,16.9,-10.2,-17.2,0.141422773,0.0397045808,0.297677541,-0.943266091
507,1271930,1253830,1.703,-5.563,-1.138,-71.8,-130.8,386.9,16.9,-10.2,-17.2,0.150303659,0.0393078402,0.298409986,-0.941679128
508,1274712,1253840,1.842,-4.014,-1.755,-32.5,-194.9,485.7,16.9,-10.2,-17.2,0.161564989,0.0383312479,0.298013245,-0.94000061
509,1277998,1253840,0.14,-4.007,-1.678,22.7,-184.2,488.7,16.9,-10.2,-17.2,0.172765282,0.0378124332,0.296456801,-0.938474685
510,1279471,1253840,-0.241,-3.435,-1.104,78.5,-132.9,399,15.9,-10.8,-16.2,0.181707205,0.0379650258,0.29401532,-0.937589648
511,1282069,1253840,-0.51,-2.78,-0.735,116.7,-70.9,261.6,15.9,-10.8,-16.2,0.187414167,0.0386669515,0.291116062,-0.9373455
512,1285448,1253850,-0.652,-1.975,-0.581,126.7,-23.8,124.6,15.9,-10.8,-16.2,0.19000824,0.0394909513,0.288308359,-0.937650685
513,1286976,1253850,-0.584,-0.632,-0.579,112.9,-9.2,18,15.9,-10.8,-16.2,0.190343944,0.0398876919,0.285958434,-0.938291574
514,1289546,1253850,-0.482,-0.222,-0.439,93.6,-27.3,-50.8,15.5,-11.6,-16.7,0.18939787,0.0393993957,0.283974731,-0.939085055
515,1292947,1253850,-0.342,0.038,-0.221,85.4,-61.9,-88.2,15.5,-11.6,-16.7,0.187902463,0.0379345073,0.282021546,-0.940031129
516,1294450,1253860,-0.166,-0.2,0.56,92.1,-92.4,-99.9,15.5,-11.6,-16.7,0.186346019,0.0357982116,0.279854732,-0.941099277
517,1297029,1253860,-0.147,-0.64,0.927,108,-106.4,-87.3,15.5,-11.6,-16.7,0.18509476,0.0334788049,0.277260659,-0.942167425
518,1300476,1253860,-0.191,-1.197,1.079,127.7,-105.2,-53.2,15.5,-11.7,-16.8,0.184545427,0.0315256203,0.274239326,-0.943235572
519,1302700,1253860,-0.303,-1.796,1.064,150.6,-99.4,-8.1,15.5,-11.7,-16.8,0.18488113,0.0300302133,0.270760216,-0.944242683
520,1304939,1253870,-0.453,-2.445,0.925,176.8,-97.6,30.4,15.5,-11.7,-16.8,0.185949278,0.028931547,0.266701254,-0.945219275
521,1307190,1253870,-0.399,-2.367,0.982,205,-100.4,46.4,15.5,-11.7,-16.8,0.18735313,0.0279549547,0.262031922,-0.946256905
522,1310322,1253870,-0.34,-2.11,0.917,230.1,-104.2,33.6,15.3,-12.5,-16.4,0.188512833,0.0269478439,0.256813257,-0.947477645
523,1313290,1253870,-0.356,-1.764,0.753,245.9,-106.9,1.7,15.3,-12.5,-16.4,0.189001129,0.025757622,0.251289407,-0.948912015
524,1314770,1253880,-0.265,-1.031,0.811,248.5,-109.3,-32.1,15.3,-12.5,-16.4,0.1887875,0.0243537706,0.24570452,-0.950437941
525,1317124,1253880,-0.172,-0.73,0.917,239.9,-111,-55,15.3,-12.5,-16.4,0.188116092,0.0227057711,0.240302744,-0.951994385
526,1319480,1253880,-0.053,-0.52,1.046,226.1,-111,-64.5,14.2,-13.1,-14.9,0.187231056,0.0209967345,0.235175634,-0.953489792
527,1322796,1253880,0.04,-0.385,1.156,211.1,-108.9,-64.9,14.2,-13.1,-14.9,0.186346019,0.019287698,0.23035371,-0.954863124
528,1324423,1253890,0.113,-0.303,1.357,195.2,-104.6,-60.8,14.2,-13.1,-14.9,0.185522019,0.0175786615,0.225898007,-0.956144902
529,1326961,1253890,0.097,-0.338,1.416,176.9,-97.7,-55,14.2,-13.1,-14.9,0.184789575,0.015991699,0.221808527,-0.957274087
530,1330409,1253890,0.089,-0.409,1.471,156.1,-87.8,-49.2,14.5,-14,-14.4,0.184118168,0.014557329,0.218207343,-0.958250679
531,1331928,1253890,-0.06,-0.606,1.46,134.5,-75.7,-44.3,14.5,-14,-14.4,0.183507797,0.0133060701,0.215124973,-0.959074679
532,1334358,1253900,-0.121,-0.648,1.474,114.6,-62.9,-41.3,14.5,-14,-14.4,0.182927946,0.0122379223,0.212469863,-0.959807123
533,1337131,1253900,-0.118,-0.726,1.478,97.7,-51.1,-40.9,14.5,-14,-14.4,0.182256539,0.011383404,0.210242012,-0.960417493
534,1339415,1253900,-0.15,-0.683,1.31,83,-41.9,-44.4,14,-14,-14.2,0.181524094,0.0106204413,0.208349864,-0.960997345
535,1341920,1253900,-0.17,-0.694,1.299,70,-35.2,-50.7,14,-14,-14.2,0.180578021,0.00991851558,0.206732383,-0.96151616
536,1346172,1253910,-0.17,-0.674,1.252,57.7,-29.9,-56.2,14,-14,-14.2,0.179540391,0.00927762688,0.205420087,-0.962004456
537,1348391,1253910,-0.114,-0.652,1.22,46.1,-25,-56.8,14,-14,-14.2,0.178441725,0.00866725669,0.204382458,-0.962431715
538,1350375,1253910,-0.038,-0.623,1.186,34.9,-21.1,-52.8,14.4,-14,-14.1,0.177434614,0.00811792352,0.203558458,-0.962797937
539,1351990,1253910,0.088,-0.563,1.112,24.9,-18.2,-47.4,14.4,-14,-14.1,0.17648854,0.00762962737,0.202978607,-0.963103122
540,1354522,1253920,0.128,-0.536,1.076,15.7,-16.2,-43.7,14.4,-14,-14.1,0.175664541,0.00714133122,0.202581866,-0.96334727
541,1358013,1253920,0.164,-0.509,1.048,6.4,-14.2,-42.4,14.4,-14,-14.1,0.174810022,0.00668355358,0.202368236,-0.963530381
542,1359516,1253920,0.208,-0.456,0.984,-3.6,-11.6,-42.6,14.6,-13.8,-14.4,0.173986023,0.00625629444,0.202429273,-0.963682974
543,1363470,1253920,0.22,-0.428,0.964,-14.1,-8.4,-43.6,14.6,-13.8,-14.4,0.173070467,0.00582903531,0.20270394,-0.963774529
544,1365794,1253930,0.229,-0.397,0.94,-24.4,-5,-44.8,14.6,-13.8,-14.4,0.17218543,0.00543229469,0.203222755,-0.963835566
545,1367321,1253930,0.229,-0.37,0.92,-33.7,-1.9,-46.1,14.6,-13.8,-14.4,0.171208838,0.00506607257,0.20392468,-0.963866085
546,1369619,1253930,0.219,-0.279,0.94,-41.6,0.6,-47,12.6,-13.6,-14.6,0.170232246,0.00469985046,0.204809717,-0.963866085
547,1373081,1253930,0.203,-0.251,0.936,-48,2.8,-47.4,12.6,-13.6,-14.6,0.169225135,0.00436414686,0.205816828,-0.963805048
548,1375396,1253940,0.168,-0.219,0.922,-53.1,4.7,-47.3,12.6,-13.6,-14.6,0.168187506,0.00405896176,0.206976531,-0.963744011
549,1377591,1253940,0.135,-0.222,0.821,-57.2,7.4,-47.3,12.6,-13.6,-14.6,0.167180395,0.00378429518,0.208197272,-0.963652455
550,1379899,1253940,0.192,-0.085,1.303,-59.7,13.1,-48.1,16.3,-13.5,-15.1,0.166112247,0.00363170263,0.209509568,-0.9635609
551,1381878,1253940,0.155,-0.096,1.113,-61.7,20.8,-49.1,16.3,-13.5,-15.1,0.165013581,0.00363170263,0.2108829,-0.963469344
552,1385356,1253950,0.174,-0.101,1.077,-62.7,25.2,-49.1,16.3,-13.5,-15.1,0.163853877,0.00369273965,0.21231727,-0.96334727
553,1387169,1253950,0.17,-0.117,1.081,-63.4,23.2,-47.1,16.3,-13.5,-15.1,0.162755211,0.00375377667,0.213721122,-0.963225196
554,1389578,1253950,0.201,-0.176,1.085,-62.7,16.4,-43.2,16.5,-13.7,-15.2,0.161778619,0.00366222114,0.215063936,-0.963072604
555,1393674,1253950,0.224,-0.212,1.08,-61.6,10.6,-38.3,16.5,-13.7,-15.2,0.1609241,0.00350962859,0.216437269,-0.962920011
556,1395892,1253960,0.255,-0.264,1.072,-60.7,8.2,-33.5,16.5,-13.7,-15.2,0.160191656,0.00329599902,0.217749565,-0.9627369
557,1397398,1253960,0.297,-0.367,1.012,-60.1,8.5,-29.5,16.5,-13.7,-15.2,0.159520249,0.00311288797,0.219031343,-0.962553789
558,1399614,1253960,0.304,-0.403,0.985,-59.8,10.2,-26.2,16.6,-12.8,-15.3,0.158940397,0.00302133244,0.220343638,-0.962370678
559,1402253,1253960,0.308,-0.426,0.954,-59.8,12.1,-23.1,16.6,-12.8,-15.3,0.158391064,0.00292977691,0.221625416,-0.962157048
560,1404411,1253970,0.323,-0.454,0.91,-60.1,13.6,-20.2,16.6,-12.8,-15.3,0.157902768,0.00292977691,0.222937712,-0.9619129
561,1408584,1253970,0.366,-0.495,0.882,-60.4,14.6,-17.4,16.6,-12.8,-15.3,0.15744499,0.00292977691,0.224280526,-0.961699271
562,1410799,1253970,0.385,-0.527,0.819,-60.1,15.1,-14.4,16.7,-12.7,-15.5,0.157109287,0.00299081393,0.225592822,-0.961455123
563,1412638,1253970,0.408,-0.551,0.744,-58.6,14.9,-10.4,16.7,-12.7,-15.5,0.156804102,0.00305185095,0.226874599,-0.961180456
564,1415370,1253980,0.455,-0.58,0.704,-56,13.8,-5.3,16.7,-12.7,-15.5,0.156620991,0.00311288797,0.22809534,-0.960936308
565,1417640,1253980,0.573,-0.649,0.752,-52.4,12.1,0.6,16.7,-12.7,-15.5,0.156590472,0.00320444349,0.229224525,-0.960661641
566,1420025,1253980,0.62,-0.693,0.778,-48.5,10.3,7.2,14.9,-12.6,-15.4,0.156682028,0.00329599902,0.230292673,-0.960386975
567,1422266,1253980,0.663,-0.749,0.777,-44.7,9.2,14.4,14.9,-12.6,-15.4,0.156956694,0.00338755455,0.231238746,-0.960112308
568,1424545,1253990,0.706,-0.809,0.768,-41.2,8.9,22.3,14.9,-12.6,-15.4,0.157383953,0.0035401471,0.232154302,-0.959837642
569,1427151,1253990,0.819,-0.941,0.762,-38.1,8.8,31.1,14.9,-12.6,-15.4,0.157994324,0.00375377667,0.232978301,-0.959532456
570,1431220,1253990,0.874,-1.006,0.776,-35.3,8.6,40.7,13.8,-12.9,-15.6,0.158787805,0.00402844325,0.233741264,-0.959227271
571,1433122,1253990,0.912,-1.058,0.787,-32.9,8.7,50.7,13.8,-12.9,-15.6,0.159825434,0.00436414686,0.23444319,-0.958861049
572,1434742,1254000,0.956,-1.098,0.79,-31.1,9.5,61.1,13.8,-12.9,-15.6,0.161046175,0.00476088748,0.235114597,-0.958494827
573,1437003,1254000,0.979,-1.094,0.793,-30.3,11.3,71.5,13.8,-12.9,-15.6,0.162480544,0.00524918363,0.235786004,-0.958098086
574,1439616,1254000,1.008,-1.068,0.804,-30.7,14,81.2,13.9,-12.8,-15.6,0.164128544,0.00585955382,0.23648793,-0.957640309
575,1443332,1254000,1.02,-1.032,0.815,-32,17.1,89.5,13.9,-12.8,-15.6,0.165898618,0.00656147954,0.237189856,-0.957152013
576,1444939,1254010,1.038,-0.915,0.857,-33.7,20.6,96.2,13.9,-12.8,-15.6,0.167821284,0.00738547929,0.237952818,-0.95660268
577,1448761,1254010,1.039,-0.84,0.877,-35.5,24.3,101.4,13.9,-12.8,-15.6,0.169804987,0.00827051607,0.238776818,-0.956053346
578,1450327,1254010,1.037,-0.773,0.9,-36.7,27.9,105.9,12.7,-12.9,-15.6,0.171880245,0.00927762688,0.239631336,-0.955473495
579,1451852,1254010,1.03,-0.71,0.927,-37.1,31.4,110.3,12.7,-12.9,-15.6,0.174016541,0.0103762932,0.240455336,-0.954832606
580,1454684,1254020,1.004,-0.615,0.959,-36.7,34.8,114.7,12.7,-12.9,-15.6,0.176244392,0.0115665151,0.241370891,-0.954191717
581,1457763,1254020,0.98,-0.579,0.971,-35.6,37.9,119.5,12.7,-12.9,-15.6,0.17853328,0.0128482925,0.24222541,-0.953550829
582,1459621,1254020,0.953,-0.563,0.984,-33.9,40.7,124.4,11.4,-13.1,-15.7,0.180883206,0.0142216254,0.243049409,-0.952848903
583,1463218,1254020,0.905,-0.554,0.993,-31.9,43.4,129.5,11.4,-13.1,-15.7,0.183385723,0.0156865139,0.243842891,-0.952177496
584,1465438,1254030,0.885,-0.569,0.986,-29.8,45.9,134.1,11.4,-13.1,-15.7,0.185949278,0.0172124393,0.244605853,-0.951445051
585,1467146,1254030,0.849,-0.588,0.983,-27.4,48.2,138.2,11.4,-13.1,-15.7,0.18857387,0.0188604389,0.245307779,-0.950712607
586,1470807,1254030,0.821,-0.611,0.96,-24.8,50.6,141.6,14.9,-14.2,-15.8,0.19122898,0.0205694754,0.245979186,-0.949980163
587,1472885,1254030,0.769,-0.653,0.93,-21.9,52.7,144.6,14.9,-14.2,-15.8,0.193975646,0.0223395489,0.246589557,-0.9492172
588,1474649,1254040,0.736,-0.68,0.927,-18.6,54.7,147,14.9,-14.2,-15.8,0.196722312,0.0241706595,0.24713889,-0.948484756
589,1478071,1254040,0.708,-0.703,0.92,-15.1,56.6,148.8,14.9,-14.2,-15.8,0.199499496,0.0260933256,0.247596667,-0.947721793
590,1480492,1254040,0.688,-0.714,0.913,-11.6,58.5,150.1,12.4,-12.5,-15.8,0.202307199,0.0280770287,0.248023927,-0.946958831
591,1482714,1254040,0.64,-0.737,0.895,-8.4,60.2,151.1,12.4,-12.5,-15.8,0.205114902,0.0300912503,0.24835963,-0.946195868
592,1485027,1254050,0.624,-0.74,0.888,-5.5,61.6,151.7,12.4,-12.5,-15.8,0.207892087,0.032166509,0.248664815,-0.945432905
593,1487182,1254050,0.604,-0.744,0.876,-2.5,62.9,152.2,12.4,-12.5,-15.8,0.210699789,0.0342722861,0.248878445,-0.944700461
594,1489422,1254050,0.572,-0.747,0.854,0.6,64.2,152.7,11,-13.2,-15.5,0.213507492,0.0364085818,0.249061556,-0.943937498
595,1493095,1254050,0.556,-0.747,0.831,4.2,65.1,153.3,11,-13.2,-15.5,0.216315195,0.0386059145,0.249153111,-0.943174535
596,1494528,1254060,0.548,-0.743,0.819,7.5,65.7,153.9,11,-13.2,-15.5,0.21909238,0.0408642842,0.249153111,-0.942442091
597,1497798,1254060,0.54,-0.735,0.796,10.3,66.1,154.4,11,-13.2,-15.5,0.221900082,0.0430921354,0.249122593,-0.941679128
598,1499466,1254060,0.517,-0.718,0.758,12,66.4,154.9,11.5,-13.1,-15.4,0.224707785,0.0453810236,0.249061556,-0.940946684
599,1502374,1254060,0.509,-0.71,0.742,12.8,66.7,155.2,11.5,-13.1,-15.4,0.227515488,0.0476393933,0.24897,-0.940183721
600,1505593,1254070,0.497,-0.702,0.735,12.7,67.2,155.3,11.5,-13.1,-15.4,0.230323191,0.0499282815,0.248878445,-0.93939024
601,1507788,1254070,0.485,-0.694,0.711,12,67.5,155,11.5,-13.1,-15.4,0.233130894,0.0522171697,0.248786889,-0.938596759
602,1509528,1254070,0.465,-0.678,0.685,11.1,67.9,154.5,12.3,-13.4,-15.2,0.235908078,0.0544755394,0.248725852,-0.937803278
603,1513000,1254070,0.461,-0.678,0.673,10.2,68.1,154,12.3,-13.4,-15.2,0.238685263,0.0567949461,0.248695334,-0.936979278
604,1515024,1254080,0.453,-0.678,0.662,8.9,68.3,153.6,12.3,-13.4,-15.2,0.241431928,0.0590533158,0.248664815,-0.93612476
605,1517398,1254080,0.449,-0.67,0.654,7.1,68.3,153.3,12.3,-13.4,-15.2,0.244178594,0.0613116855,0.248695334,-0.935270241
606,1519716,1254080,0.441,-0.681,0.646,4.8,68.3,153.3,11.4,-15.7,-15.3,0.246955779,0.0635700552,0.248756371,-0.934385205
607,1522386,1254080,0.441,-0.678,0.638,1.9,68.3,153.4,11.4,-15.7,-15.3,0.249702445,0.0658284249,0.248847926,-0.933469649
608,1525470,1254090,0.437,-0.677,0.627,-1.3,68.3,153.7,11.4,-15.7,-15.3,0.252418592,0.0680257576,0.249031037,-0.932523576
609,1526947,1254090,0.433,-0.67,0.615,-5.5,68.1,154,11.4,-15.7,-15.3,0.255226295,0.0702230903,0.249305704,-0.931516465
610,1529579,1254090,0.406,-0.649,0.612,-10.6,68,154.3,11.2,-14,-15.2,0.258003479,0.072359386,0.249641408,-0.930509354
611,1532189,1254090,0.374,-0.629,0.613,-16.7,68.1,154.6,11.2,-14,-15.2,0.260811182,0.0745262001,0.250129704,-0.929410688
612,1535338,1254100,0.347,-0.613,0.617,-23.2,68.3,154.7,11.2,-14,-15.2,0.263588366,0.0766319773,0.250740074,-0.928281503
613,1537549,1254100,0.268,-0.599,0.643,-29.1,68.6,154.6,11.2,-14,-15.2,0.266396069,0.0787072359,0.251472518,-0.927121799
614,1540009,1254100,0.224,-0.59,0.663,-33.9,68.6,154.5,10.7,-14.3,-15.5,0.269203772,0.0807214576,0.252265999,-0.925901059
615,1542139,1254100,0.189,-0.589,0.676,-37.4,68.3,154.4,10.7,-14.3,-15.5,0.272011475,0.0827356792,0.253151036,-0.924680319
616,1544557,1254110,0.137,-0.588,0.705,-39.9,68,154.5,10.7,-14.3,-15.5,0.274819178,0.0847193823,0.25409711,-0.923398541
617,1547478,1254110,0.074,-0.579,0.73,-42.4,67.6,154.9,10.7,-14.3,-15.5,0.277657399,0.0867030854,0.255073702,-0.922116764
618,1549585,1254110,0.034,-0.578,0.747,-45.3,67.1,155.6,10.4,-14.7,-15.7,0.280495621,0.0886257515,0.256080813,-0.920773949
619,1553189,1254110,-0.008,-0.577,0.767,-48.9,66.4,156.4,10.4,-14.7,-15.7,0.28336436,0.0905484176,0.257179479,-0.919400616
620,1554625,1254120,-0.044,-0.576,0.788,-52.8,65.7,157.1,10.4,-14.7,-15.7,0.2862331,0.0923795282,0.258278146,-0.917996765
621,1557009,1254120,-0.111,-0.59,0.825,-56.1,64.8,157.3,10.4,-14.7,-15.7,0.289132359,0.0942716758,0.259529405,-0.916562395
622,1559859,1254120,-0.135,-0.593,0.841,-58.4,63.9,157.2,9.8,-14.9,-15.4,0.292031617,0.0960722678,0.260780663,-0.915097507
623,1563288,1254120,-0.163,-0.608,0.854,-59.5,62.8,156.9,9.8,-14.9,-15.4,0.294930876,0.0978118229,0.262031922,-0.913632618
624,1564333,1254130,-0.203,-0.623,0.878,-59.8,61.8,157,9.8,-14.9,-15.4,0.297830134,0.0995818964,0.263283181,-0.912137211
625,1567052,1254130,-0.215,-0.642,0.886,-59.3,60.8,157.3,9.8,-14.9,-15.4,0.300759911,0.101290933,0.26453444,-0.910641804
626,1570049,1254130,-0.215,-0.642,0.886,-59.3,60.8,157.3,9.8,-14.9,-15.4,0.300759911,0.101290933,0.26453444,-0.910641804
627,1572328,1254130,-0.215,-0.642,0.886,-59.3,60.8,157.3,9.8,-14.9,-15.4,0.300759911,0.101290933,0.26453444,-0.910641804
628,1575010,1254140,-0.255,-0.657,0.884,-56.4,57.7,157.7,9.2,-14.9,-15.6,0.309488205,0.106387524,0.268044069,-0.906094546
629,1576892,1254140,-0.267,-0.653,0.876,-55.8,56.5,157,9.2,-14.9,-15.6,0.312387463,0.108066042,0.269173254,-0.904568621
630,1579721,1254140,-0.267,-0.653,0.876,-55.8,56.5,157,9.2,-14.9,-15.6,0.312387463,0.108066042,0.269173254,-0.904568621
631,1581999,1254140,-0.279,-0.653,0.853,-54.8,54.3,154,9,-17.5,-15.7,0.318124943,0.111301004,0.271340068,-0.90151677
632,1585228,1254150,-0.287,-0.633,0.841,-53.6,53.3,151.9,9,-17.5,-15.7,0.320932646,0.112857448,0.272408216,-0.900021363
633,1587267,1254150,-0.298,-0.617,0.838,-52,52.2,149.4,9,-17.5,-15.7,0.323679312,0.114413892,0.273415326,-0.898525956
634,1590377,1254150,-0.306,-0.601,0.83,-50,51.2,146.9,8.5,-17.9,-16,0.32636494,0.115939817,0.274391919,-0.897061068
635,1592658,1254150,-0.306,-0.574,0.83,-48,50.4,144.3,8.5,-17.9,-16,0.329020051,0.117465743,0.275337992,-0.895596179
636,1594716,1254160,-0.325,-0.51,0.811,-46.5,49.9,141.6,8.5,-17.9,-16,0.331614124,0.118930631,0.276223029,-0.894161809
637,1597898,1254160,-0.332,-0.483,0.799,-45.3,49.4,138.9,8.5,-17.9,-16,0.334116642,0.120426038,0.277108066,-0.892757958
638,1599523,1254160,-0.344,-0.463,0.803,-44.2,48.9,136.1,8.4,-17.9,-16.4,0.336588641,0.121860408,0.277962584,-0.891354106
639,1602316,1254160,-0.363,-0.423,0.812,-42.6,48.6,133.3,8.4,-17.9,-16.4,0.338999603,0.123294778,0.278817103,-0.889980773
640,1604616,1254170,-0.379,-0.415,0.812,-40.1,48.4,130.6,8.4,-17.9,-16.4,0.341349528,0.124759667,0.279580065,-0.888637959
641,1607686,1254170,-0.394,-0.395,0.82,-37.2,48.3,128.1,8.4,-17.9,-16.4,0.343638417,0.126194037,0.28031251,-0.887325663
642,1610783,1254170,-0.41,-0.383,0.832,-35.1,48.1,125.9,7.5,-17.8,-16.2,0.345896786,0.127628407,0.281014435,-0.886043886
643,1612954,1254170,-0.453,-0.338,0.829,-34,47.8,123.9,7.5,-17.8,-16.2,0.348094119,0.129062777,0.281685842,-0.884762108
644,1614402,1254180,-0.484,-0.31,0.83,-34.3,47.7,122.1,7.5,-17.8,-16.2,0.350230415,0.130466628,0.28235725,-0.883480331
645,1617345,1254180,-0.511,-0.282,0.831,-35.9,47.8,120.1,7.5,-17.8,-16.2,0.35236671,0.131839961,0.283089694,-0.882198553
646,1620454,1254180,-0.535,-0.254,0.839,-38.1,47.9,117.8,7.5,-14.3,-14.9,0.354441969,0.133213294,0.283852657,-0.880916776
647,1622731,1254180,-0.594,-0.217,0.856,-40.6,47.9,115.2,7.5,-14.3,-14.9,0.356486709,0.13452559,0.284646138,-0.879634999
648,1625672,1254190,-0.625,-0.197,0.865,-42.6,47.9,112.6,7.5,-14.3,-14.9,0.358470412,0.135807367,0.285531175,-0.878353221
649,1627939,1254190,-0.649,-0.181,0.873,-44,47.9,110.1,7.5,-14.3,-14.9,0.360393078,0.137089145,0.286416211,-0.877071444
650,1630115,1254190,-0.676,-0.164,0.878,-44.8,47.7,107.9,7.5,-14.4,-17.9,0.362315744,0.138309885,0.287331767,-0.875789666
651,1632388,1254190,-0.708,-0.171,0.882,-45.5,47.2,106,7.5,-14.4,-17.9,0.364177374,0.139530625,0.288247322,-0.874507889
652,1634634,1254200,-0.724,-0.171,0.895,-46.3,46.6,104.6,7.5,-14.4,-17.9,0.366008484,0.140690329,0.289193396,-0.87325663
653,1636886,1254200,-0.732,-0.183,0.891,-47.2,45.9,103.5,7.5,-14.4,-17.9,0.367839595,0.141819514,0.29013947,-0.871974853
654,1639681,1254200,-0.752,-0.21,0.892,-48,45.4,102.5,7.4,-14.4,-18.2,0.369609668,0.142979217,0.291085543,-0.870723594
655,1641884,1254200,-0.764,-0.198,0.931,-48.5,44.9,101.4,7.4,-14.4,-18.2,0.371440779,0.144077883,0.292062136,-0.869441816
656,1645908,1254210,-0.772,-0.217,0.916,-49.3,44.4,100.2,7.4,-14.4,-18.2,0.373210852,0.14517655,0.293038728,-0.868160039
657,1648162,1254210,-0.776,-0.209,0.9,-50.7,43.9,98.7,7.4,-14.4,-18.2,0.374950407,0.146214179,0.294045839,-0.86690878
658,1650523,1254210,-0.792,-0.205,0.9,-52.9,43.5,96.7,7.3,-14.1,-18.2,0.376689962,0.14722129,0.295083468,-0.865627003
659,1652608,1254210,-0.8,-0.197,0.893,-55.5,43.2,94.5,7.3,-14.1,-18.2,0.37836848,0.148197882,0.296182134,-0.864345225
660,1654896,1254220,-0.811,-0.185,0.893,-58,43.1,92,7.3,-14.1,-18.2,0.38001648,0.149113437,0.297341838,-0.863063448
661,1657111,1254220,-0.819,-0.177,0.889,-60.2,42.9,89.6,7.3,-14.1,-18.2,0.381603442,0.149998474,0.29853206,-0.861781671
662,1660906,1254220,-0.843,-0.168,0.886,-61.7,42.8,87.4,7.1,-13.6,-18.2,0.383190405,0.150883511,0.299783319,-0.860530412
663,1663122,1254220,-0.855,-0.152,0.879,-62.8,42.6,85.4,7.1,-13.6,-18.2,0.38471633,0.151707511,0.301034577,-0.859248634
664,1664599,1254230,-0.866,-0.148,0.875,-64,42.3,83.8,7.1,-13.6,-18.2,0.386211737,0.152500992,0.302316355,-0.857997375
665,1667688,1254230,-0.882,-0.128,0.852,-66,41.8,82.2,7.1,-13.6,-18.2,0.387707144,0.153294473,0.303628651,-0.856715598
666,1669831,1254230,-0.894,-0.124,0.84,-69.2,41.4,80.5,6.6,-15.5,-17.3,0.389141514,0.153996399,0.305001984,-0.855433821
667,1673016,1254230,-0.906,-0.108,0.833,-73.5,41.1,78.8,6.6,-15.5,-17.3,0.390606403,0.154667806,0.306436354,-0.854121525
668,1675172,1254240,-0.922,-0.104,0.814,-78.3,41,77,6.6,-15.5,-17.3,0.392040773,0.155278176,0.307992798,-0.852809229
669,1678110,1254240,-0.945,-0.087,0.771,-83.5,41,75,6.6,-15.5,-17.3,0.393444624,0.155827509,0.309640797,-0.851466414
670,1679739,1254240,-0.953,-0.083,0.76,-88.9,40.8,72.7,6.5,-15,-16.3,0.394817957,0.156315806,0.311410871,-0.850093081
671,1683355,1254240,-0.965,-0.071,0.748,-94.6,40.5,69.9,6.5,-15,-16.3,0.396160772,0.156743065,0.3132725,-0.848719749
672,1684667,1254250,-0.969,-0.052,0.737,-100.6,40.1,66.8,6.5,-15,-16.3,0.397442549,0.157078768,0.315256203,-0.847315897
673,1687768,1254250,-0.988,-0.028,0.737,-106.3,39.6,63.3,6.5,-15,-16.3,0.398724326,0.157322916,0.317331462,-0.845881527
674,1689430,1254250,-1,-0.027,0.741,-111.2,39.2,59.8,6.9,-14.8,-17.3,0.399945067,0.15744499,0.319528794,-0.844447157
675,1691990,1254250,-0.996,-0.02,0.761,-114.6,38.8,56.3,6.9,-14.8,-17.3,0.40110477,0.157597583,0.321787164,-0.843043306
676,1695568,1254260,-1.004,-0.023,0.761,-116.7,38.4,53.2,6.9,-14.8,-17.3,0.402203436,0.15765862,0.324076052,-0.841608936
677,1697732,1254260,-0.996,-0.035,0.773,-117.8,38,50.3,6.9,-14.8,-17.3,0.403271584,0.15765862,0.326395459,-0.840205084
678,1699715,1254260,-0.996,-0.043,0.777,-118.8,37.5,47.8,7,-14.4,-16.6,0.404278695,0.15765862,0.328745384,-0.838801233
679,1702923,1254260,-0.992,-0.051,0.78,-120.3,37,45.3,7,-14.4,-16.6,0.405255287,0.157597583,0.331125828,-0.837397382
680,1705187,1254270,-1.001,-0.063,0.777,-122.3,36.5,42.7,7,-14.4,-16.6,0.406201361,0.15744499,0.33353679,-0.836024049
681,1707449,1254270,-1.001,-0.067,0.785,-124.5,36.2,39.8,7,-14.4,-16.6,0.407086398,0.157322916,0.335978271,-0.834620197
682,1709721,1254270,-1.005,-0.063,0.781,-126.5,35.9,36.8,7,-13.9,-16.4,0.407910398,0.157139805,0.338480789,-0.833246864
683,1712670,1254270,-1.005,-0.063,0.785,-128.2,35.8,33.5,7,-13.9,-16.4,0.40867336,0.156895657,0.341013825,-0.831873531
684,1714769,1254280,-1.005,-0.066,0.789,-129.1,35.6,30.1,7,-13.9,-16.4,0.409436323,0.156620991,0.34357738,-0.830500198
685,1717971,1254280,-1.009,-0.07,0.785,-129.6,35.4,27,7,-13.9,-16.4,0.410077212,0.156285287,0.346140934,-0.829187902
686,1719522,1254280,-1.013,-0.07,0.777,-129.3,35.1,24.1,6.9,-13.6,-21.4,0.410687582,0.155949583,0.348704489,-0.827845088
687,1722728,1254280,-1.025,-0.082,0.777,-128.7,34.7,21.6,6.9,-13.6,-21.4,0.411267434,0.155583361,0.351268044,-0.826563311
688,1724574,1254290,-1.025,-0.09,0.777,-127.5,34.3,19.3,6.9,-13.6,-21.4,0.411786248,0.155217139,0.353831599,-0.825281533
689,1726971,1254290,-1.029,-0.093,0.778,-125.8,33.7,17.1,6.9,-13.6,-21.4,0.412244026,0.154820399,0.356334117,-0.824060793
690,1729828,1254290,-1.029,-0.097,0.778,-123.7,32.9,15,6.7,-13.1,-19.2,0.412671285,0.154423658,0.358806116,-0.822840052
691,1733682,1254290,-1.029,-0.093,0.766,-121.6,32.1,13.3,6.7,-13.1,-19.2,0.413068026,0.153996399,0.361217078,-0.821649831
692,1735830,1254300,-1.029,-0.093,0.742,-119.6,31.3,11.8,6.7,-13.1,-19.2,0.413434248,0.153599658,0.363597522,-0.820490127
693,1738135,1254300,-1.029,-0.09,0.738,-118,30.6,10.7,6.7,-13.1,-19.2,0.41380047,0.153141881,0.365977966,-0.819360942
694,1740393,1254300,-1.029,-0.093,0.719,-116.6,30.1,9.7,6.8,-12.9,-19.1,0.414105655,0.152714621,0.368297372,-0.818231758
695,1742629,1254300,-1.025,-0.094,0.719,-115.1,29.8,8.8,6.8,-12.9,-19.1,0.41441084,0.152287362,0.370586261,-0.817133091
696,1744757,1254310,-1.025,-0.094,0.719,-113.3,29.5,7.8,6.8,-12.9,-19.1,0.414685507,0.151860103,0.37284463,-0.816034425
697,1748709,1254310,-1.013,-0.098,0.722,-111.3,29.2,6.8,6.8,-12.9,-19.1,0.414929655,0.151402326,0.375072481,-0.814966277
698,1750849,1254310,-1.005,-0.102,0.73,-109.5,28.6,5.9,7.1,-12,-20.8,0.415173803,0.150975066,0.377239296,-0.813928648
699,1752297,1254310,-0.998,-0.126,0.742,-108,27.7,5.2,7.1,-12,-20.8,0.415387432,0.150547807,0.379375591,-0.812891018
700,1755383,1254320,-0.994,-0.134,0.749,-106.9,26.9,4.9,7.1,-12,-20.8,0.415601062,0.15009003,0.381542405,-0.811883908
701,1756988,1254320,-0.994,-0.137,0.761,-106.1,26.3,5,7.1,-12,-20.8,0.415814692,0.149632252,0.383617664,-0.810846278
702,1759763,1254320,-0.986,-0.142,0.773,-105.4,26,5.4,7.6,-11.7,-21.7,0.416028321,0.149174474,0.385723441,-0.809839167
703,1763752,1254320,-0.982,-0.149,0.8,-104.7,25.8,5.9,7.6,-11.7,-21.7,0.416272469,0.148747215,0.387768181,-0.808801538
704,1764576,1254330,-0.974,-0.146,0.808,-104,25.6,6.4,7.6,-11.7,-21.7,0.416486099,0.148289438,0.389812922,-0.807794427
705,1768220,1254330,-0.97,-0.142,0.811,-103.1,25.4,7.1,7.6,-11.7,-21.7,0.416730247,0.147862178,0.391857662,-0.806756798
706,1769821,1254330,-0.962,-0.142,0.815,-102.1,25.1,7.7,7.6,-11.2,-21.1,0.417004913,0.147465438,0.393841365,-0.805719169
707,1771904,1254330,-0.954,-0.13,0.815,-100.9,24.6,8.4,7.6,-11.2,-21.1,0.417249062,0.147038179,0.395825068,-0.804712058
708,1774953,1254340,-0.95,-0.131,0.826,-99.6,23.8,9.1,7.6,-11.2,-21.1,0.417523728,0.146641438,0.397747734,-0.803674429
709,1777323,1254340,-0.942,-0.123,0.822,-98.2,22.8,9.7,7.6,-11.2,-21.1,0.417798395,0.146214179,0.3996704,-0.802667318
710,1779588,1254340,-0.938,-0.123,0.842,-96.6,22,10.1,8,-10.4,-21.1,0.41810358,0.145817438,0.401532029,-0.801660207
711,1783203,1254340,-0.934,-0.127,0.845,-94.8,21.3,10.3,8,-10.4,-21.1,0.418408765,0.145420698,0.403332621,-0.800653096
712,1785472,1254350,-0.934,-0.131,0.853,-92.5,20.6,10.6,8,-10.4,-21.1,0.41871395,0.145023957,0.405102695,-0.799676504
713,1787683,1254350,-0.934,-0.139,0.849,-89.9,20.1,11,8,-10.4,-21.1,0.418988617,0.144657735,0.406811731,-0.79873043
714,1789634,1254350,-0.918,-0.151,0.861,-87.2,19.5,11.6,7.9,-10.3,-21.3,0.419293802,0.144291513,0.408490249,-0.797784356
715,1793071,1254350,-0.91,-0.155,0.868,-84.5,18.7,12.2,7.9,-10.3,-21.3,0.419598987,0.143955809,0.410077212,-0.796838282
716,1794721,1254360,-0.914,-0.163,0.865,-82,17.8,12.9,7.9,-10.3,-21.3,0.41993469,0.143620106,0.411633656,-0.795953246
717,1797168,1254360,-0.906,-0.155,0.872,-79.7,16.9,13.6,7.9,-10.3,-21.3,0.420270394,0.14331492,0.413129063,-0.79503769
718,1799773,1254360,-0.886,-0.156,0.864,-77.8,16.5,14,8,-9.5,-21.3,0.420606098,0.143009735,0.414593951,-0.794152654
719,1801978,1254360,-0.878,-0.144,0.86,-76.6,16.6,14,8,-9.5,-21.3,0.420941801,0.142735069,0.416028321,-0.793298135
720,1805061,1254370,-0.878,-0.136,0.848,-75.8,17,13.2,8,-9.5,-21.3,0.421246986,0.142429884,0.417462691,-0.792413099
721,1807050,1254370,-0.874,-0.132,0.84,-75.5,17.6,11.7,8,-9.5,-21.3,0.421521653,0.142155217,0.418897061,-0.79155858
722,1809455,1254370,-0.87,-0.132,0.836,-74.9,18.3,9.9,8.4,-9.3,-21.8,0.421765801,0.141880551,0.420331431,-0.790734581
723,1813576,1254370,-0.866,-0.129,0.828,-74,18.8,8,8.4,-9.3,-21.8,0.421948912,0.141605884,0.421735282,-0.789910581
724,1814219,1254380,-0.862,-0.129,0.836,-72.4,19.1,6.7,8.4,-9.3,-21.8,0.422132023,0.141331217,0.423139134,-0.789147618
725,1817414,1254380,-0.859,-0.133,0.82,-70.4,19.2,6.1,8.4,-9.3,-21.8,0.422254097,0.141056551,0.424512467,-0.788354137
726,1819615,1254380,-0.851,-0.133,0.82,-68,19.1,6,7.3,-9.2,-21.7,0.42240669,0.140812403,0.425855281,-0.787621693
727,1822343,1254380,-0.843,-0.141,0.816,-65.4,19,6,7.3,-9.2,-21.7,0.422528764,0.140598773,0.427137059,-0.786889248
728,1824417,1254390,-0.835,-0.149,0.816,-62.9,18.9,6.1,7.3,-9.2,-21.7,0.422650838,0.140415662,0.428357799,-0.786187323
729,1827956,1254390,-0.827,-0.169,0.8,-60.6,18.8,6.1,7.3,-9.2,-21.7,0.422772912,0.140232551,0.429548021,-0.785515915
730,1829828,1254390,-0.824,-0.181,0.8,-58.2,18.8,6.2,9.6,-9.4,-21.7,0.422864467,0.140079958,0.430707724,-0.784844508
731,1831957,1254390,-0.82,-0.181,0.792,-55.9,18.8,6.2,9.6,-9.4,-21.7,0.422956023,0.139927366,0.431836909,-0.784203619
732,1835406,1254400,-0.816,-0.204,0.78,-53.7,18.8,6.3,9.6,-9.4,-21.7,0.423078097,0.13983581,0.432905057,-0.783593249
733,1837553,1254400,-0.816,-0.204,0.772,-51.6,18.8,6.1,9.6,-9.4,-21.7,0.423139134,0.139713736,0.433942686,-0.782982879
734,1839844,1254400,-0.816,-0.208,0.772,-49.7,19,6.1,9.4,-8.4,-21.8,0.423230689,0.139652699,0.434949797,-0.782403027
735,1842044,1254400,-0.804,-0.209,0.772,-47.7,19.1,6.1,9.4,-8.4,-21.8,0.423291726,0.139591662,0.435926389,-0.781823176
736,1844785,1254410,-0.804,-0.209,0.772,-45.5,19,6.2,9.4,-8.4,-21.8,0.423352763,0.139561144,0.436841945,-0.781273843
737,1847094,1254410,-0.797,-0.217,0.764,-43.3,18.8,6.7,9.4,-8.4,-21.8,0.4234138,0.139530625,0.437726981,-0.780755028
738,1850390,1254410,-0.773,-0.241,0.736,-40.7,18.6,7.4,9.5,-8.4,-22,0.423505356,0.139561144,0.4385815,-0.780236213
739,1851989,1254410,-0.762,-0.253,0.712,-37.4,18.2,8.4,9.5,-8.4,-22,0.423566393,0.139591662,0.439374981,-0.779747917
740,1854656,1254420,-0.796,-0.217,0.791,-33.2,17.6,10,9.5,-8.4,-22,0.423688467,0.139683218,0.440046388,-0.779290139
741,1857068,1254420,-0.773,-0.249,0.744,-29,17.3,11.4,9.5,-8.4,-22,0.423810541,0.13983581,0.440687277,-0.778832362
742,1861231,1254420,-0.781,-0.233,0.764,-26,17.3,12,9.7,-8.4,-21.9,0.423902097,0.139988403,0.44123661,-0.778435621
743,1863191,1254420,-0.773,-0.237,0.759,-24.1,17.4,11.6,9.7,-8.4,-21.9,0.424024171,0.140171514,0.441785943,-0.778038881
744,1864942,1254430,-0.769,-0.257,0.763,-22.2,17,11.4,9.7,-8.4,-21.9,0.424115726,0.140385144,0.442274239,-0.77764214
745,1867294,1254430,-0.766,-0.268,0.767,-19.4,16.7,11.5,9.7,-8.4,-21.9,0.424207282,0.140598773,0.442732017,-0.777306436
746,1869469,1254430,-0.758,-0.28,0.767,-16,16.7,12,7.6,-8.3,-22.1,0.424298837,0.140842921,0.443128758,-0.777001251
747,1872399,1254430,-0.75,-0.304,0.767,-11.9,16.6,12.7,7.6,-8.3,-22.1,0.424390393,0.141148106,0.443433943,-0.776696066
748,1874748,1254440,-0.746,-0.308,0.775,-7.6,16.3,13.4,7.6,-8.3,-22.1,0.424481948,0.14148381,0.443678091,-0.776451918
749,1876983,1254440,-0.743,-0.324,0.771,-3.2,15.8,14.2,7.6,-8.3,-22.1,0.424573504,0.141819514,0.443830683,-0.776238289
750,1879738,1254440,-0.739,-0.332,0.771,1.1,15.4,15,9.9,-8.2,-22.5,0.424695578,0.142277291,0.443922239,-0.776055177
751,1881953,1254440,-0.735,-0.348,0.774,5.6,15.2,15.8,9.9,-8.2,-22.5,0.424787133,0.142735069,0.443922239,-0.775933103
752,1884619,1254450,-0.731,-0.36,0.778,10.3,15,16.5,9.9,-8.2,-22.5,0.424878689,0.143253883,0.443830683,-0.775841548
753,1887025,1254450,-0.727,-0.364,0.77,15.1,14.7,17.1,9.9,-8.2,-22.5,0.425000763,0.143772698,0.443647572,-0.775780511
754,1890165,1254450,-0.724,-0.379,0.77,19.8,14.4,17.6,9.9,-8.4,-22.2,0.425092318,0.144383068,0.443403424,-0.775749992
755,1891869,1254450,-0.712,-0.392,0.778,24.5,14.1,17.9,9.9,-8.4,-22.2,0.425183874,0.145023957,0.443037202,-0.775780511
756,1894783,1254460,-0.716,-0.399,0.77,29,13.7,18,9.9,-8.4,-22.2,0.42527543,0.145725883,0.442640461,-0.775841548
757,1896893,1254460,-0.716,-0.403,0.77,33.5,13.4,18.2,9.9,-8.4,-22.2,0.425336467,0.146427808,0.442121647,-0.775963622
758,1899538,1254460,-0.708,-0.407,0.762,37.9,13.1,18.2,10.5,-8,-22,0.425397504,0.147190771,0.441541795,-0.776116214
759,1901981,1254460,-0.7,-0.415,0.75,42.1,12.9,18.3,10.5,-8,-22,0.425458541,0.147953734,0.440900906,-0.776299326
760,1904472,1254470,-0.701,-0.415,0.738,45.8,12.6,18.3,10.5,-8,-22,0.425489059,0.148777734,0.440168462,-0.776543474
761,1907800,1254470,-0.701,-0.415,0.735,48.9,12.5,18.2,10.5,-8,-22,0.425519578,0.149632252,0.439405499,-0.776787622
762,1909453,1254470,-0.693,-0.412,0.719,51.8,12.5,18.2,9.8,-8.6,-22,0.425519578,0.15048677,0.4385815,-0.777092807
763,1912470,1254470,-0.693,-0.42,0.711,54.6,12.6,18.2,9.8,-8.6,-22,0.425550096,0.151402326,0.437726981,-0.777397992
764,1915451,1254480,-0.697,-0.416,0.703,57.5,12.6,18.3,9.8,-8.6,-22,0.425550096,0.152317881,0.436811426,-0.777733695
765,1917104,1254480,-0.689,-0.416,0.699,60.3,12.7,18.4,9.8,-8.6,-22,0.425519578,0.153263955,0.435834834,-0.778099918
766,1920319,1254480,-0.689,-0.416,0.68,62.9,12.7,18.7,9.3,-8.9,-21.8,0.425519578,0.154240547,0.434827723,-0.77846614
767,1923017,1254480,-0.685,-0.416,0.672,65.3,12.7,18.8,9.3,-8.9,-21.8,0.425489059,0.155247658,0.433759575,-0.77886288
768,1924665,1254490,-0.685,-0.42,0.664,67,12.8,19,9.3,-8.9,-21.8,0.425458541,0.156254769,0.432660909,-0.779290139
769,1927467,1254490,-0.689,-0.412,0.648,68,13,19.2,9.3,-8.9,-21.8,0.425458541,0.157292398,0.431562243,-0.779717399
770,1930423,1254490,-0.693,-0.396,0.641,68.5,13.3,19.4,7.6,-9,-21.6,0.425428022,0.158360546,0.430463576,-0.780114139
771,1932123,1254490,-0.693,-0.396,0.637,68.7,13.6,19.6,7.6,-9,-21.6,0.425397504,0.159398175,0.42936491,-0.780541398
772,1935920,1254500,-0.697,-0.388,0.625,68.8,13.8,19.7,7.6,-9,-21.6,0.425336467,0.160466323,0.428205206,-0.780938139
773,1937486,1254500,-0.693,-0.376,0.621,68.8,13.9,19.9,7.6,-9,-21.6,0.425305948,0.161534471,0.427137059,-0.781365398
774,1939669,1254500,-0.693,-0.376,0.621,68.8,13.9,19.9,7.6,-9,-21.6,0.425305948,0.161534471,0.427137059,-0.781365398
775,1942254,1254500,-0.689,-0.369,0.613,68.4,13.7,20.5,6.2,-9.6,-21.5,0.425611133,0.164128544,0.424420911,-0.782128361
776,1945570,1254510,-0.685,-0.365,0.609,67.8,13.6,20.8,6.2,-9.6,-21.5,0.425611133,0.165196692,0.423322245,-0.782525101
777,1947767,1254510,-0.689,-0.357,0.597,67,13.8,21.1,6.2,-9.6,-21.5,0.425580615,0.166234321,0.422223579,-0.782891324
778,1949482,1254510,-0.689,-0.361,0.597,65.8,13.9,21.5,6.1,-9.6,-21.3,0.425580615,0.167302469,0.421155431,-0.783227027
779,1952185,1254510,-0.689,-0.357,0.59,64.2,14,21.7,6.1,-9.6,-21.3,0.425611133,0.168340098,0.420117801,-0.783562731
780,1955605,1254520,-0.689,-0.357,0.59,62.3,14.3,21.7,6.1,-9.6,-21.3,0.425611133,0.169347209,0.419080172,-0.783898434
781,1957225,1254520,-0.693,-0.357,0.59,60.1,14.6,21.7,6.1,-9.6,-21.3,0.425611133,0.17035432,0.41810358,-0.784173101
782,1959562,1254520,-0.689,-0.361,0.59,57.8,14.7,21.8,5.7,-9.8,-21.3,0.425641652,0.171361431,0.417188025,-0.784447768
783,1963931,1254520,-0.685,-0.365,0.593,55.5,14.8,21.8,5.7,-9.8,-21.3,0.42567217,0.172307505,0.416302988,-0.784691916
784,1964847,1254530,-0.689,-0.369,0.597,53.4,14.9,21.8,5.7,-9.8,-21.3,0.425733207,0.173253578,0.415417951,-0.784936064
785,1967149,1254530,-0.685,-0.392,0.597,51.3,15.1,21.7,5.7,-9.8,-21.3,0.425763726,0.174199652,0.414593951,-0.785119175
786,1969882,1254530,-0.685,-0.396,0.601,49.4,15.4,21.5,10.2,-11.9,-20.9,0.425794244,0.175115207,0.413830988,-0.785332804
787,1973440,1254530,-0.681,-0.404,0.605,47.7,15.7,21.2,10.2,-11.9,-20.9,0.425855281,0.176000244,0.413068026,-0.785485397
788,1975651,1254540,-0.686,-0.428,0.605,46.2,16,20.9,10.2,-11.9,-20.9,0.4258858,0.176915799,0.412335582,-0.785637989
789,1977988,1254540,-0.682,-0.436,0.613,44.9,16.1,20.3,10.2,-11.9,-20.9,0.425916318,0.177800836,0.411633656,-0.785790582
790,1980114,1254540,-0.686,-0.443,0.617,43.9,16.2,19.8,8.5,-8.9,-20.5,0.425916318,0.178655354,0.410962249,-0.785943175
791,1982391,1254540,-0.682,-0.455,0.617,43.3,16.2,19.3,8.5,-8.9,-20.5,0.425946837,0.179509873,0.410290841,-0.786095767
792,1984561,1254550,-0.682,-0.467,0.617,42.9,16.2,18.9,8.5,-8.9,-20.5,0.425946837,0.180364391,0.409649953,-0.78624836
793,1988601,1254550,-0.678,-0.475,0.621,42.8,16.2,18.5,8.5,-8.9,-20.5,0.425946837,0.181218909,0.408978545,-0.786370434
794,1991228,1254550,-0.674,-0.483,0.617,42.7,16.4,18.1,9.4,-9.2,-20.5,0.426099429,0.182317576,0.408185064,-0.786461989
795,1992197,1254550,-0.674,-0.483,0.617,42.8,16.5,17.9,9.4,-9.2,-20.5,0.426099429,0.183172094,0.407544176,-0.786614582
796,1994393,1254560,-0.667,-0.487,0.621,43,16.5,17.8,9.4,-9.2,-20.5,0.426068911,0.184026612,0.406872768,-0.786767174
797,1998508,1254560,-0.671,-0.499,0.625,43.2,16.6,17.7,9.4,-9.2,-20.5,0.426068911,0.184850612,0.40623188,-0.786919767
798,2000767,1254560,-0.671,-0.495,0.621,43.6,16.7,17.7,10.1,-9.2,-20.2,0.426038392,0.18570513,0.405560472,-0.787072359
799,2003034,1254560,-0.667,-0.495,0.621,44.2,16.8,17.5,10.1,-9.2,-20.2,0.426007874,0.186559648,0.404889065,-0.787224952
800,2006331,1254570,-0.667,-0.507,0.613,45.1,16.8,17.4,10.1,-9.2,-20.2,0.425977355,0.187444685,0.40418714,-0.787408063
801,2008588,1254570,-0.667,-0.507,0.605,46,16.8,17.3,10.1,-9.2,-20.2,0.425946837,0.188299203,0.403485214,-0.787560656
802,2010859,1254570,-0.667,-0.511,0.605,46.8,16.8,17.3,10.4,-9.5,-20,0.4258858,0.18918424,0.40275277,-0.787743767
803,2012545,1254570,-0.659,-0.519,0.601,47.5,16.7,17.1,10.4,-9.5,-20,0.425855281,0.190069277,0.402020325,-0.787926878
804,2014620,1254580,-0.659,-0.519,0.597,48,16.8,17,10.4,-9.5,-20,0.425794244,0.190954314,0.401287881,-0.788140507
805,2017273,1254580,-0.655,-0.515,0.589,48.6,16.8,16.7,10.4,-9.5,-20,0.425733207,0.191839351,0.400555437,-0.788323618
806,2020538,1254580,-0.651,-0.519,0.585,49.2,16.9,16.5,8.8,-11.3,-20,0.42567217,0.192724387,0.399792474,-0.788537248
807,2022002,1254580,-0.651,-0.519,0.577,49.7,17.1,16.1,8.8,-11.3,-20,0.425580615,0.193578906,0.399029511,-0.788750877
808,2024630,1254590,-0.647,-0.511,0.569,50.1,17.1,15.8,8.8,-11.3,-20,0.425489059,0.194524979,0.39823603,-0.788964507
809,2026871,1254590,-0.647,-0.511,0.558,50.1,17.1,15.5,8.8,-11.3,-20,0.425397504,0.195410016,0.397473067,-0.789178137
810,2029568,1254590,-0.647,-0.503,0.546,50,17.2,15.2,8.9,-11.2,-20.2,0.425305948,0.196295053,0.396710105,-0.789391766
811,2033000,1254590,-0.651,-0.488,0.542,49.5,17.2,15,8.9,-11.2,-20.2,0.425183874,0.197210608,0.395947142,-0.789605396
812,2035136,1254600,-0.647,-0.476,0.534,49,17.1,14.9,8.9,-11.2,-20.2,0.425092318,0.198065126,0.395184179,-0.789819025
813,2037206,1254600,-0.651,-0.464,0.538,48.5,17.2,14.6,8.9,-11.2,-20.2,0.424970244,0.198950163,0.394451735,-0.790032655
814,2040181,1254600,-0.647,-0.444,0.534,47.9,17.2,14.4,9,-12,-19.8,0.424726096,0.199865719,0.394085513,-0.79012421
815,2041946,1254600,-0.643,-0.437,0.526,47.2,17.3,14.1,9,-12,-19.8,0.424634541,0.200720237,0.393383587,-0.790307321
816,2045472,1254610,-0.638,-0.429,0.526,46.2,17.2,14,9,-12,-19.8,0.424512467,0.201574755,0.392681661,-0.790490432
817,2047102,1254610,-0.638,-0.425,0.518,44.9,17.2,13.8,9,-12,-19.8,0.424420911,0.202368236,0.392010254,-0.790673544
818,2049677,1254610,-0.642,-0.417,0.518,43.3,17.2,13.7,8.8,-12.2,-19.9,0.424298837,0.203222755,0.391369366,-0.790856655
819,2052429,1254610,-0.642,-0.409,0.514,41.4,17.2,13.4,8.8,-12.2,-19.9,0.424207282,0.204016236,0.390728477,-0.791009247
820,2054678,1254620,-0.642,-0.401,0.503,39.2,17.3,13,8.8,-12.2,-19.9,0.424115726,0.204779199,0.390179144,-0.791131321
821,2058579,1254620,-0.642,-0.401,0.506,36.6,17.3,12.5,8.8,-12.2,-19.9,0.424024171,0.205542161,0.38962981,-0.791253395
822,2060826,1254620,-0.638,-0.39,0.502,33.9,17.4,12,9,-13.7,-19.5,0.423932615,0.206244087,0.389141514,-0.791344951
823,2063024,1254620,-0.642,-0.39,0.506,31.2,17.4,11.5,9,-13.7,-19.5,0.42384106,0.206946013,0.388744774,-0.791436506
824,2065322,1254630,-0.642,-0.39,0.506,28.8,17.3,11.2,9,-13.7,-19.5,0.423749504,0.207586901,0.388348033,-0.791497543
825,2067602,1254630,-0.638,-0.39,0.502,26.4,17.3,10.8,9,-13.7,-19.5,0.423688467,0.20822779,0.387981811,-0.79155858
826,2069796,1254630,-0.63,-0.402,0.498,24.1,17.4,10.3,8.8,-10.7,-18.7,0.423596912,0.20883816,0.387707144,-0.79155858
827,2071923,1254630,-0.63,-0.406,0.51,21.9,17.3,9.9,8.8,-10.7,-18.7,0.423505356,0.209448531,0.387432478,-0.791589099
828,2075089,1254640,-0.63,-0.421,0.514,19.7,17.2,9.3,8.8,-10.7,-18.7,0.423444319,0.209997864,0.38718833,-0.791589099
829,2078264,1254640,-0.627,-0.437,0.526,17.7,17.1,8.7,8.8,-10.7,-18.7,0.423383282,0.210516678,0.387005219,-0.791589099
830,2079513,1254640,-0.627,-0.449,0.534,16,17.1,8.1,8.8,-10.7,-18.7,0.423291726,0.211035493,0.386852626,-0.79155858
831,2082811,1254640,-0.623,-0.465,0.533,14.8,17.2,7.4,8.8,-10.7,-18.7,0.423200171,0.211554308,0.386730552,-0.791528062
832,2085058,1254650,-0.623,-0.48,0.537,14,17.4,6.9,8.8,-10.7,-18.7,0.423108615,0.212042604,0.386608478,-0.791497543
833,2087300,1254650,-0.627,-0.496,0.538,13.3,17.5,6.4,8.8,-10.7,-18.7,0.42301706,0.212500381,0.386516923,-0.791497543
834,2089425,1254650,-0.628,-0.5,0.538,12.6,17.6,5.9,8.8,-10.7,-18.7,0.422711875,0.212866604,0.386822108,-0.791405988
835,2093302,1254650,-0.628,-0.5,0.538,11.8,17.4,5.3,8.8,-10.7,-18.7,0.422620319,0.213324381,0.386761071,-0.791375469
836,2095410,1254660,-0.632,-0.504,0.542,11.2,17.2,4.6,8.8,-10.7,-18.7,0.422498245,0.21375164,0.386700034,-0.791344951
837,2096939,1254660,-0.635,-0.488,0.538,10.6,17.1,3.9,8.8,-10.7,-18.7,0.422345653,0.2141789,0.386638997,-0.791314432
838,2099719,1254660,-0.643,-0.484,0.538,10.1,17.1,3.4,8.8,-10.7,-18.7,0.422223579,0.214606159,0.386608478,-0.791283914
839,2102979,1254660,-0.643,-0.476,0.542,9.7,16.9,2.9,8.8,-10.7,-18.7,0.422101505,0.215033418,0.38657796,-0.791253395
840,2105103,1254670,-0.643,-0.468,0.538,9.5,16.8,2.6,8.8,-10.7,-18.7,0.421948912,0.215430158,0.38657796,-0.791222877
841,2106910,1254670,-0.643,-0.452,0.538,9.3,16.7,2.1,8.8,-10.7,-18.7,0.421796319,0.215826899,0.386547441,-0.791222877
842,2110433,1254670,-0.647,-0.444,0.534,9,16.6,1.7,8.8,-10.7,-18.7,0.421643727,0.216193121,0.386547441,-0.791192358
843,2113638,1254670,-0.646,-0.433,0.534,8.5,16.6,1.4,8.8,-10.7,-18.7,0.421491134,0.216589862,0.386547441,-0.791192358
844,2114470,1254680,-0.638,-0.429,0.534,8,16.5,0.9,8.8,-10.7,-18.7,0.421338542,0.216956084,0.386547441,-0.79116184
845,2117898,1254680,-0.638,-0.425,0.526,7.4,16.3,0.5,8.8,-10.7,-18.7,0.421185949,0.217291787,0.38657796,-0.791131321
846,2120036,1254680,-0.646,-0.417,0.526,6.5,16.1,0,9.5,-11.9,-17.9,0.421002838,0.217627491,0.386608478,-0.791131321
847,2122914,1254680,-0.638,-0.413,0.526,5.5,15.8,-0.7,9.5,-11.9,-17.9,0.420819727,0.217963195,0.386669515,-0.791100803
848,2124778,1254690,-0.642,-0.405,0.518,4.4,15.5,-1.2,9.5,-11.9,-17.9,0.420667135,0.21826838,0.386730552,-0.791070284
849,2127327,1254690,-0.642,-0.401,0.518,3.2,15.3,-1.5,9.5,-11.9,-17.9,0.420484024,0.218543046,0.386822108,-0.791039766
850,2129498,1254690,-0.65,-0.397,0.518,1.8,15.1,-1.7,9.5,-11.8,-20.3,0.420331431,0.218787194,0.386944182,-0.791009247
851,2132951,1254690,-0.654,-0.385,0.522,0.5,15,-1.8,9.5,-11.8,-20.3,0.42014832,0.219061861,0.387066256,-0.79094821
852,2134543,1254700,-0.657,-0.373,0.515,-0.6,14.8,-1.9,9.5,-11.8,-20.3,0.419995727,0.219275491,0.387249367,-0.790887173
853,2136964,1254700,-0.657,-0.37,0.522,-1.5,14.6,-1.7,9.5,-11.8,-20.3,0.419843135,0.219519639,0.387401959,-0.790826136
854,2139645,1254700,-0.653,-0.358,0.518,-2.2,14.3,-1.7,9.5,-12.2,-20.3,0.419751579,0.220038453,0.387737663,-0.790581988
855,2142032,1254700,-0.653,-0.362,0.522,-3,14.1,-1.5,9.5,-12.2,-20.3,0.419598987,0.220252083,0.387920774,-0.790490432
856,2145904,1254710,-0.645,-0.37,0.526,-3.8,13.6,-1.2,9.5,-12.2,-20.3,0.419476913,0.220435194,0.388134404,-0.790398877
857,2147479,1254710,-0.646,-0.382,0.522,-4.9,13.2,-0.9,9.5,-12.2,-20.3,0.419385357,0.220618305,0.388317515,-0.790307321
858,2149580,1254710,-0.646,-0.386,0.522,-6.1,12.7,-0.9,9.3,-11.8,-20.1,0.419293802,0.220770898,0.388561663,-0.790215766
859,2153414,1254710,-0.646,-0.405,0.522,-7.7,12.3,-0.9,9.3,-11.8,-20.1,0.419202246,0.220892972,0.388805811,-0.790093692
860,2155500,1254720,-0.654,-0.409,0.526,-9.4,12.1,-1.1,9.3,-11.8,-20.1,0.419141209,0.221015046,0.389080477,-0.789971618
861,2157063,1254720,-0.654,-0.413,0.526,-11.4,12,-1.4,9.3,-11.8,-20.1,0.419049654,0.221106601,0.389416181,-0.789819025
862,2159563,1254720,-0.654,-0.421,0.526,-13.6,11.8,-1.7,9.3,-11.8,-20.1,0.418988617,0.221167638,0.389751885,-0.789666433
863,2163254,1254720,-0.67,-0.412,0.531,-15.8,11.6,-2.1,9.3,-11.8,-20.1,0.41892758,0.221198157,0.390148625,-0.789483322
864,2165461,1254730,-0.674,-0.405,0.539,-18,11.4,-2.4,9.3,-11.8,-20.1,0.418866543,0.221228675,0.390575884,-0.789300211
865,2167222,1254730,-0.674,-0.401,0.535,-19.7,11.2,-2.6,9.3,-11.8,-20.1,0.418836024,0.221228675,0.391033662,-0.7891171
866,2170014,1254730,-0.674,-0.401,0.535,-21.1,10.8,-2.5,9.8,-12.3,-17.8,0.418805506,0.221198157,0.39149144,-0.78890347
867,2173006,1254730,-0.681,-0.385,0.546,-22,10.4,-2.4,9.8,-12.3,-17.8,0.418774987,0.22113712,0.391979736,-0.78868984
868,2175195,1254740,-0.677,-0.385,0.554,-22.7,10.1,-2.2,9.8,-12.3,-17.8,0.418744469,0.221106601,0.39249855,-0.788445692
869,2177273,1254740,-0.681,-0.396,0.547,-23.3,9.6,-2.1,9.8,-12.3,-17.8,0.418744469,0.221015046,0.392986847,-0.788232063
870,2179485,1254740,-0.677,-0.393,0.546,-23.9,9.1,-2.2,9.8,-12.2,-17.4,0.418744469,0.22092349,0.393505661,-0.787987915
871,2182203,1254740,-0.682,-0.4,0.547,-24.5,8.6,-2.3,9.8,-12.2,-17.4,0.418744469,0.220862453,0.393993957,-0.787774285
872,2185597,1254750,-0.682,-0.404,0.554,-25.3,8,-2.6,9.8,-12.2,-17.4,0.418744469,0.220740379,0.394512772,-0.787530137
873,2187902,1254750,-0.682,-0.404,0.558,-26,7.5,-2.8,9.8,-12.2,-17.4,0.418774987,0.220587786,0.395062105,-0.787285989
874,2190910,1254750,-0.686,-0.416,0.562,-26.6,7.2,-3.1,9.6,-11.7,-16.9,0.418836024,0.220709861,0.395611438,-0.786950285
875,2193020,1254750,-0.69,-0.428,0.566,-26.9,6.9,-3.4,9.6,-11.7,-16.9,0.418866543,0.220557268,0.396160772,-0.786736656
876,2195352,1254760,-0.69,-0.432,0.566,-26.8,6.5,-3.5,9.6,-11.7,-16.9,0.418866543,0.220374157,0.396679586,-0.786492508
877,2197394,1254760,-0.69,-0.436,0.57,-26.5,6.1,-3.6,9.6,-11.7,-16.9,0.418866543,0.220221564,0.397228919,-0.786278878
878,2199935,1254760,-0.69,-0.443,0.574,-26,5.8,-3.5,10.2,-12.2,-16.8,0.418897061,0.220038453,0.397747734,-0.78603473
879,2202026,1254760,-0.69,-0.447,0.582,-25.5,5.5,-3.6,10.2,-12.2,-16.8,0.418897061,0.219885861,0.39823603,-0.7858211
880,2204517,1254770,-0.69,-0.451,0.586,-25.1,5.2,-3.6,10.2,-12.2,-16.8,0.41892758,0.21970275,0.398754845,-0.785607471
881,2207142,1254770,-0.686,-0.463,0.594,-24.4,4.8,-3.6,10.2,-12.2,-16.8,0.41892758,0.219519639,0.399212622,-0.78542436
882,2209570,1254770,-0.69,-0.467,0.594,-23.6,4.5,-3.5,10.2,-12.2,-16.8,0.41892758,0.219367046,0.3996704,-0.78521073
883,2212380,1254770,-0.694,-0.467,0.594,-22.7,4.3,-3.3,10.2,-12.2,-16.8,0.418958098,0.219183935,0.400128178,-0.785027619
884,2215207,1254780,-0.694,-0.459,0.598,-21.8,3.9,-3.2,10.2,-12.2,-16.8,0.418958098,0.219031343,0.400555437,-0.784844508
885,2217424,1254780,-0.706,-0.463,0.602,-20.9,3.5,-3,10.2,-12.2,-16.8,0.418988617,0.21887875,0.400952177,-0.784691916
886,2219775,1254780,-0.702,-0.455,0.602,-20.1,3,-2.9,10,-11.4,-19.9,0.418988617,0.218726157,0.401348918,-0.784508805
887,2222027,1254780,-0.706,-0.459,0.598,-19.1,2.5,-2.7,10,-11.4,-19.9,0.419019135,0.218573565,0.40171514,-0.784356212
888,2224690,1254790,-0.714,-0.451,0.606,-18.2,2.1,-2.4,10,-11.4,-19.9,0.419049654,0.218420972,0.402050844,-0.784203619
889,2226870,1254790,-0.71,-0.435,0.602,-17.4,1.7,-2.1,10,-11.4,-19.9,0.419080172,0.21826838,0.402386547,-0.784081545
890,2231006,1254790,-0.713,-0.435,0.606,-16.8,1.3,-1.9,9.9,-11.5,-20.5,0.419110691,0.218115787,0.402691733,-0.783928953
891,2233293,1254790,-0.717,-0.423,0.61,-16.3,0.9,-1.5,9.9,-11.5,-20.5,0.419171728,0.217963195,0.402996918,-0.783806879
892,2235543,1254800,-0.717,-0.415,0.61,-16.1,0.5,-1,9.9,-11.5,-20.5,0.419202246,0.217810602,0.403271584,-0.783654286
893,2237802,1254800,-0.717,-0.396,0.606,-16,0.1,-0.6,9.9,-11.5,-20.5,0.419263283,0.217688528,0.403546251,-0.783532212
894,2240035,1254800,-0.721,-0.384,0.602,-16.2,-0.2,-0.2,9.6,-11.4,-21.3,0.419476913,0.217688528,0.403637806,-0.78337962
895,2242250,1254800,-0.721,-0.384,0.602,-16.7,-0.7,0.2,9.6,-11.4,-21.3,0.419568468,0.217535936,0.403942991,-0.783227027
896,2244581,1254810,-0.721,-0.376,0.606,-17.3,-1.1,0.7,9.6,-11.4,-21.3,0.419660024,0.217352824,0.404217658,-0.783074435
897,2247026,1254810,-0.72,-0.368,0.61,-18.1,-1.4,1,9.6,-11.4,-21.3,0.419782098,0.217169713,0.404492325,-0.782891324
898,2249475,1254810,-0.721,-0.376,0.61,-18.9,-1.6,1.3,10.3,-11.4,-21.5,0.419904172,0.216986602,0.404766991,-0.782738731
899,2253506,1254810,-0.72,-0.372,0.606,-19.6,-1.9,1.6,10.3,-11.4,-21.5,0.420056764,0.216772973,0.405133213,-0.78255562
900,2255904,1254820,-0.717,-0.38,0.618,-20.3,-2.2,1.9,10.3,-11.4,-21.5,0.420209357,0.216559343,0.405438398,-0.782372509
901,2258025,1254820,-0.717,-0.384,0.614,-21,-2.4,2.3,10.3,-11.4,-21.5,0.42036195,0.216345714,0.405774102,-0.782158879
902,2260349,1254820,-0.721,-0.388,0.618,-21.7,-2.7,2.5,10.3,-11.4,-21.5,0.420545061,0.216132084,0.406109806,-0.781975768
903,2262426,1254820,-0.721,-0.392,0.622,-22.4,-2.9,2.7,10.3,-11.4,-21.5,0.420728172,0.215887936,0.406445509,-0.781762139
904,2264795,1254830,-0.721,-0.399,0.626,-23.3,-3.1,2.8,10.3,-11.4,-21.5,0.420911283,0.215643788,0.406781213,-0.781548509
905,2267013,1254830,-0.725,-0.399,0.618,-24,-3.4,3,10.3,-11.4,-21.5,0.421094394,0.21539964,0.407147435,-0.781304361
906,2269445,1254830,-0.721,-0.399,0.618,-24.5,-3.6,3.1,10,-11.6,-19.9,0.421308023,0.215155492,0.407513657,-0.781090732
907,2272950,1254830,-0.729,-0.403,0.63,-24.8,-3.9,3.2,10,-11.6,-19.9,0.421521653,0.214880825,0.407910398,-0.780846583
908,2275305,1254840,-0.725,-0.403,0.626,-24.9,-4.2,3.2,10,-11.6,-19.9,0.421704764,0.214606159,0.40827662,-0.780602435
909,2277507,1254840,-0.725,-0.407,0.63,-24.7,-4.5,3.5,10,-11.6,-19.9,0.421918394,0.214331492,0.408642842,-0.780388806
910,2279677,1254840,-0.725,-0.407,0.638,-24.4,-4.9,3.7,10.2,-11.3,-19.8,0.422162542,0.214056825,0.408978545,-0.780144658
911,2281912,1254840,-0.725,-0.411,0.638,-24.1,-5.3,4,10.2,-11.3,-19.8,0.422345653,0.213782159,0.409314249,-0.779931028
912,2284459,1254850,-0.721,-0.411,0.637,-23.8,-5.6,4.2,10.2,-11.3,-19.8,0.422620319,0.213507492,0.409649953,-0.77968688
913,2287883,1254850,-0.721,-0.415,0.637,-23.5,-5.8,4.4,10.2,-11.3,-19.8,0.422864467,0.213232826,0.409985656,-0.779473251
914,2289369,1254850,-0.717,-0.419,0.637,-23.2,-6.1,4.5,10.1,-11.3,-19.9,0.423444319,0.213232826,0.40971099,-0.779290139
915,2291900,1254850,-0.713,-0.419,0.641,-22.6,-6.5,4.6,10.1,-11.3,-19.9,0.423688467,0.212958159,0.410016175,-0.77907651
916,2295433,1254860,-0.713,-0.423,0.637,-22,-6.9,4.7,10.1,-11.3,-19.9,0.423932615,0.212683493,0.410290841,-0.77886288
917,2296876,1254860,-0.709,-0.423,0.633,-21.5,-7.2,4.7,10.1,-11.3,-19.9,0.424176763,0.212408826,0.410565508,-0.778679769
918,2299424,1254860,-0.709,-0.419,0.641,-21,-7.3,4.9,10,-11.2,-20.3,0.424420911,0.212134159,0.410840175,-0.77846614
919,2302982,1254860,-0.713,-0.419,0.645,-20.6,-7.5,5,10,-11.2,-20.3,0.424665059,0.211859493,0.411114841,-0.778283029
920,2304493,1254870,-0.709,-0.423,0.641,-20.2,-7.6,5.2,10,-11.2,-20.3,0.424909207,0.211584826,0.411358989,-0.778069399
921,2306874,1254870,-0.709,-0.423,0.637,-19.8,-7.7,5.3,10,-11.2,-20.3,0.425183874,0.21131016,0.411603137,-0.777886288
922,2310386,1254870,-0.701,-0.419,0.641,-19.2,-7.7,5.3,10,-11.2,-20.3,0.425428022,0.211035493,0.411816767,-0.777703177
923,2313419,1254870,-0.701,-0.419,0.645,-18.7,-7.8,5.4,10,-11.2,-20.3,0.42567217,0.210791345,0.412030396,-0.777520066
924,2315060,1254880,-0.705,-0.415,0.645,-18.1,-7.8,5.6,10,-11.2,-20.3,0.425916318,0.210547197,0.412244026,-0.777336955
925,2317340,1254880,-0.709,-0.415,0.649,-17.3,-8,5.9,10,-11.2,-20.3,0.426190985,0.210303049,0.412427137,-0.777153844
926,2319439,1254880,-0.701,-0.419,0.645,-16.7,-8.2,6.2,11.4,-10.8,-20,0.426435133,0.210058901,0.41257973,-0.777001251
927,2322769,1254880,-0.705,-0.423,0.641,-16.1,-8.3,6.6,11.4,-10.8,-20,0.426709799,0.209814753,0.412793359,-0.77681814
928,2325013,1254890,-0.701,-0.423,0.645,-15.6,-8.5,6.9,11.4,-10.8,-20,0.426953948,0.209601123,0.412945952,-0.776665548
929,2327152,1254890,-0.705,-0.427,0.645,-15,-8.5,7.2,11.4,-10.8,-20,0.427228614,0.209387494,0.413068026,-0.776482437
930,2329406,1254890,-0.705,-0.427,0.649,-14.3,-8.6,7.5,11.5,-11,-20,0.427503281,0.209173864,0.413220618,-0.776329844
931,2332748,1254890,-0.701,-0.431,0.645,-13.7,-8.7,7.9,11.5,-11,-20,0.427777947,0.208960234,0.413312174,-0.776177252
932,2334351,1254900,-0.701,-0.435,0.645,-13,-8.8,8.1,11.5,-11,-20,0.428052614,0.208746605,0.413434248,-0.776024659
933,2337193,1254900,-0.701,-0.431,0.641,-12.4,-8.9,8.4,11.5,-11,-20,0.42832728,0.208563494,0.413525803,-0.775872066
934,2340538,1254900,-0.705,-0.431,0.645,-11.8,-8.9,8.6,11.1,-10.9,-20.1,0.429303873,0.208563494,0.41215247,-0.776055177
935,2342772,1254900,-0.705,-0.431,0.645,-11.3,-9,8.9,11.1,-10.9,-20.1,0.429578539,0.208380383,0.412213507,-0.775933103
936,2344411,1254910,-0.701,-0.431,0.645,-10.8,-9,9.3,11.1,-10.9,-20.1,0.429853206,0.20822779,0.412274545,-0.775780511
937,2347208,1254910,-0.705,-0.431,0.645,-10.4,-9.1,9.8,11.1,-10.9,-20.1,0.430158391,0.208044679,0.412305063,-0.775627918
938,2350558,1254910,-0.705,-0.427,0.645,-9.9,-9.2,10.2,11.6,-10.6,-20.3,0.430463576,0.207892087,0.4123661,-0.775505844
939,2352762,1254910,-0.705,-0.435,0.649,-9.5,-9.3,10.6,11.6,-10.6,-20.3,0.430768761,0.207739494,0.4123661,-0.775353252
940,2354674,1254920,-0.701,-0.431,0.645,-9,-9.3,10.9,11.6,-10.6,-20.3,0.431073946,0.207586901,0.412396619,-0.775200659
941,2358074,1254920,-0.705,-0.435,0.649,-8.7,-9.2,11.2,11.6,-10.6,-20.3,0.431379131,0.207464827,0.412396619,-0.775078585
942,2360347,1254920,-0.705,-0.431,0.649,-8.5,-9,11.5,11.6,-10.6,-20.3,0.431714835,0.207342753,0.412396619,-0.774925993
943,2362593,1254920,-0.705,-0.435,0.645,-8.5,-8.9,11.9,11.6,-10.6,-20.3,0.43202002,0.207220679,0.412427137,-0.7747734
944,2364716,1254930,-0.709,-0.427,0.645,-8.4,-9,12.3,11.6,-10.6,-20.3,0.432355724,0.207098605,0.412427137,-0.774620808
945,2368695,1254930,-0.709,-0.435,0.641,-8.3,-9.2,12.5,11.6,-10.6,-20.3,0.432691427,0.206976531,0.412427137,-0.774468215
946,2370835,1254930,-0.709,-0.435,0.633,-8.1,-9.4,12.9,9.5,-10.5,-20.2,0.433027131,0.206854457,0.412396619,-0.774315622
947,2373206,1254930,-0.705,-0.435,0.633,-7.9,-9.6,13.2,9.5,-10.5,-20.2,0.433393353,0.206732383,0.412396619,-0.77416303
948,2375250,1254940,-0.705,-0.435,0.637,-7.8,-9.6,13.6,9.5,-10.5,-20.2,0.433729057,0.206610309,0.4123661,-0.774010437
949,2377046,1254940,-0.709,-0.435,0.633,-7.7,-9.4,14,9.5,-10.5,-20.2,0.43406476,0.206518754,0.412335582,-0.773857845
950,2379326,1254940,-0.705,-0.435,0.629,-7.7,-9.2,14.2,9,-10.6,-20.1,0.434430982,0.20639668,0.412335582,-0.773674734
951,2383579,1254940,-0.709,-0.431,0.633,-7.5,-9.2,14.4,9,-10.6,-20.1,0.434797205,0.206274606,0.412305063,-0.773522141
952,2385722,1254950,-0.709,-0.439,0.633,-7.4,-9.3,14.7,9,-10.6,-20.1,0.435163427,0.206213569,0.412274545,-0.773369549
953,2387251,1254950,-0.709,-0.439,0.637,-7.3,-9.4,15,9,-10.6,-20.1,0.435529649,0.206122013,0.412244026,-0.773186438
954,2389574,1254950,-0.702,-0.447,0.629,-7.1,-9.4,15.2,8.2,-11,-20,0.436445204,0.206274606,0.411175878,-0.773186438
955,2391877,1254950,-0.702,-0.447,0.629,-6.8,-9.3,15.4,8.2,-11,-20,0.436811426,0.206213569,0.41114536,-0.773033845
956,2394420,1254960,-0.702,-0.443,0.629,-6.5,-9.3,15.6,8.2,-11,-20,0.437177648,0.206122013,0.411084323,-0.772881252
957,2397427,1254960,-0.706,-0.451,0.625,-6.2,-9.4,15.7,8.2,-11,-20,0.437574389,0.206060976,0.411023286,-0.772698141
958,2399624,1254960,-0.702,-0.451,0.629,-6,-9.5,15.7,6.8,-10.6,-20.5,0.437940611,0.20596942,0.410962249,-0.772545549
959,2403015,1254960,-0.694,-0.447,0.625,-5.6,-9.4,15.9,6.8,-10.6,-20.5,0.438337352,0.205908383,0.410901212,-0.772392956
960,2404498,1254970,-0.69,-0.455,0.625,-5.3,-9.3,16.1,6.8,-10.6,-20.5,0.438703574,0.205847346,0.410840175,-0.772209845
961,2407355,1254970,-0.698,-0.455,0.625,-5,-9.2,16.4,6.8,-10.6,-20.5,0.439100314,0.205786309,0.410748619,-0.772057253
962,2409502,1254970,-0.694,-0.455,0.621,-4.9,-9,16.5,6.8,-10.6,-20.5,0.439466536,0.205725272,0.410687582,-0.77190466
963,2412385,1254970,-0.694,-0.447,0.625,-4.7,-9,16.7,6.8,-10.6,-20.5,0.439863277,0.205694754,0.410596026,-0.771721549
964,2415290,1254980,-0.69,-0.447,0.621,-4.6,-8.7,16.8,6.8,-10.6,-20.5,0.440229499,0.205633717,0.410504471,-0.771568957
965,2416875,1254980,-0.69,-0.439,0.621,-4.5,-8.5,17,6.8,-10.6,-20.5,0.44062624,0.205603198,0.410443434,-0.771416364
966,2419755,1254980,-0.686,-0.44,0.621,-4.4,-8.4,17.1,7.6,-10.4,-20.1,0.44102298,0.20557268,0.410351878,-0.771233253
967,2423047,1254980,-0.69,-0.435,0.613,-4.3,-8.3,17.3,7.6,-10.4,-20.1,0.441389203,0.205542161,0.410260323,-0.77108066
968,2425378,1254990,-0.682,-0.432,0.613,-4.1,-8.3,17.5,7.6,-10.4,-20.1,0.441785943,0.205542161,0.410168767,-0.770897549
969,2427730,1254990,-0.682,-0.44,0.613,-4.1,-8.2,17.7,7.6,-10.4,-20.1,0.442182684,0.205511643,0.410077212,-0.770714438
970,2429912,1254990,-0.682,-0.436,0.609,-4.1,-8.2,17.9,6.9,-10.3,-20.4,0.442579424,0.205481124,0.409985656,-0.770561846
971,2431940,1254990,-0.682,-0.436,0.605,-4.2,-8.1,18,6.9,-10.3,-20.4,0.442976165,0.205481124,0.409894101,-0.770378735
972,2435294,1255000,-0.686,-0.44,0.601,-4.3,-8.1,18.1,6.9,-10.3,-20.4,0.443372906,0.205450606,0.409833064,-0.770195624
973,2436927,1255000,-0.686,-0.432,0.601,-4.4,-8.1,18.2,6.9,-10.3,-20.4,0.443769646,0.205450606,0.409741508,-0.770012513
974,2439899,1255000,-0.682,-0.44,0.594,-4.7,-7.9,18.2,7.9,-10.7,-20.6,0.444257942,0.205450606,0.409436323,-0.769890439
975,2442050,1255000,-0.686,-0.44,0.598,-4.9,-7.7,18.1,7.9,-10.7,-20.6,0.444654683,0.205420087,0.409375286,-0.769707327
976,2445061,1255010,-0.678,-0.432,0.601,-5.1,-7.6,18.1,7.9,-10.7,-20.6,0.445051424,0.205420087,0.409314249,-0.769524216
977,2447876,1255010,-0.678,-0.436,0.597,-5.3,-7.5,18,7.9,-10.7,-20.6,0.445448164,0.205389569,0.409253212,-0.769310587
978,2450092,1255010,-0.682,-0.428,0.594,-5.6,-7.4,17.9,8.5,-10.3,-20.3,0.445844905,0.20535905,0.409192175,-0.769127476
979,2452875,1255010,-0.682,-0.428,0.59,-6,-7.1,17.9,8.5,-10.3,-20.3,0.446241646,0.20535905,0.409131138,-0.768944365
980,2454426,1255020,-0.682,-0.428,0.59,-6.4,-6.9,17.8,8.5,-10.3,-20.3,0.446607868,0.205298013,0.40910062,-0.768730735
981,2457070,1255020,-0.682,-0.424,0.59,-6.6,-6.8,17.6,8.5,-10.3,-20.3,0.447004608,0.205298013,0.409070101,-0.768547624
982,2460170,1255020,-0.678,-0.428,0.589,-6.7,-6.7,17.5,8.5,-10.3,-20.3,0.447401349,0.205298013,0.409039583,-0.768333995
983,2463519,1255020,-0.678,-0.424,0.589,-6.8,-6.7,17.3,8.5,-10.3,-20.3,0.447737053,0.205267495,0.409009064,-0.768120365
984,2464862,1255030,-0.678,-0.424,0.589,-6.8,-6.6,17.2,8.5,-10.3,-20.3,0.448133793,0.205236976,0.408978545,-0.767937254
985,2467918,1255030,-0.678,-0.424,0.586,-6.8,-6.6,17,8.5,-10.3,-20.3,0.448530534,0.205206458,0.408948027,-0.767723624
986,2469409,1255030,-0.678,-0.428,0.586,-6.8,-6.5,16.9,8.5,-10.2,-20.3,0.448896756,0.205175939,0.408917508,-0.767540513
987,2472412,1255030,-0.682,-0.428,0.586,-6.9,-6.4,16.8,8.5,-10.2,-20.3,0.449262978,0.205145421,0.408917508,-0.767326884
988,2475406,1255040,-0.674,-0.432,0.578,-6.8,-6.3,16.8,8.5,-10.2,-20.3,0.4496292,0.205145421,0.40888699,-0.767143773
989,2476936,1255040,-0.678,-0.436,0.578,-6.8,-6.3,16.7,8.5,-10.2,-20.3,0.449995422,0.205114902,0.408856471,-0.766960662
990,2479669,1255040,-0.674,-0.436,0.578,-6.7,-6.2,16.6,8.5,-9.6,-20.5,0.450361644,0.205084384,0.408825953,-0.766747032
991,2483313,1255040,-0.674,-0.432,0.574,-6.7,-6.2,16.5,8.5,-9.6,-20.5,0.450727866,0.205053865,0.408825953,-0.766563921
992,2484838,1255050,-0.67,-0.436,0.57,-6.7,-6.2,16.5,8.5,-9.6,-20.5,0.451094089,0.205053865,0.408795434,-0.766350291
993,2488532,1255050,-0.67,-0.44,0.574,-6.7,-6.2,16.5,8.5,-9.6,-20.5,0.451460311,0.205023347,0.408764916,-0.76616718
994,2490163,1255050,-0.67,-0.436,0.57,-6.7,-6,16.4,8.9,-9.9,-20.4,0.451826533,0.204992828,0.408734397,-0.765984069
995,2493097,1255050,-0.67,-0.436,0.57,-6.7,-5.9,16.3,8.9,-9.9,-20.4,0.452162236,0.20496231,0.408734397,-0.76577044
996,2494599,1255060,-0.67,-0.432,0.574,-6.8,-5.6,16.4,8.9,-9.9,-20.4,0.452528459,0.20496231,0.40867336,-0.765587329
997,2497631,1255060,-0.662,-0.432,0.566,-7,-5.4,16.3,8.9,-9.9,-20.4,0.452864162,0.204931791,0.40867336,-0.765373699
998,2499866,1255060,-0.662,-0.428,0.566,-7,-5.4,16.2,8.5,-10.1,-20.4,0.453230384,0.204931791,0.40867336,-0.765190588
999,2503689,1255060,-0.662,-0.432,0.566,-7,-5.4,16.1,8.5,-10.1,-20.4,0.453566088,0.204901273,0.40867336,-0.764976959
1000,2505820,1255070,-0.662,-0.428,0.566,-7,-5.4,16,8.5,-10.1,-20.4,0.45393231,0.204870754,0.40867336,-0.764793847
1001,2507531,1255070,-0.662,-0.42,0.566,-7.1,-5.3,15.8,8.5,-10.1,-20.4,0.454268014,0.204870754,0.40867336,-0.764580218
1002,2509571,1255070,-0.658,-0.421,0.566,-7.3,-5.2,15.7,8.3,-10.3,-20.6,0.454603717,0.204840236,0.40867336,-0.764397107
1003,2512367,1255070,-0.658,-0.425,0.566,-7.5,-5.1,15.5,8.3,-10.3,-20.6,0.454939421,0.204809717,0.40867336,-0.764213996
1004,2514432,1255080,-0.658,-0.421,0.566,-7.7,-4.9,15.4,8.3,-10.3,-20.6,0.455275124,0.204809717,0.40867336,-0.764000366
1005,2517523,1255080,-0.662,-0.424,0.562,-8,-4.8,15.3,8.3,-10.3,-20.6,0.455610828,0.204779199,0.40867336,-0.763786737
1006,2519798,1255080,-0.662,-0.424,0.566,-8.3,-4.6,15.1,8.4,-12.1,-20.9,0.455946532,0.20474868,0.408734397,-0.763603626
1007,2522019,1255080,-0.658,-0.421,0.566,-8.7,-4.4,15,8.4,-12.1,-20.9,0.456282235,0.204718162,0.408764916,-0.763389996
1008,2524792,1255090,-0.662,-0.424,0.566,-9,-4.2,14.9,8.4,-12.1,-20.9,0.456617939,0.204687643,0.408795434,-0.763176366
1009,2528717,1255090,-0.666,-0.424,0.566,-9.3,-4.1,14.8,8.4,-12.1,-20.9,0.456923124,0.204657125,0.408856471,-0.762962737
1010,2531155,1255090,-0.67,-0.432,0.57,-9.7,-4.1,14.7,8.3,-12.8,-20.7,0.457258827,0.204626606,0.408917508,-0.762749107
1011,2533184,1255090,-0.67,-0.432,0.566,-10.1,-4,14.5,8.3,-12.8,-20.7,0.457594531,0.204596088,0.408978545,-0.762535478
1012,2535565,1255100,-0.67,-0.432,0.566,-10.6,-3.9,14.2,8.3,-12.8,-20.7,0.457899716,0.204535051,0.409039583,-0.76229133
1013,2537885,1255100,-0.674,-0.436,0.562,-11,-3.7,14,8.3,-12.8,-20.7,0.45823542,0.204504532,0.409131138,-0.7620777
1014,2539977,1255100,-0.666,-0.436,0.566,-11.4,-3.6,13.7,8.1,-13.1,-20.5,0.458510086,0.204412976,0.409283731,-0.761864071
1015,2542173,1255100,-0.666,-0.436,0.566,-11.8,-3.5,13.5,8.1,-13.1,-20.5,0.458815271,0.204321421,0.409375286,-0.761619922
