sample_index,elapsed_us,device_time_ms,acc_x_g,acc_y_g,acc_z_g,gyro_x_dps,gyro_y_dps,gyro_z_dps,mag_x_ut,mag_y_ut,mag_z_ut,quat_w,quat_x,quat_y,quat_z
0,6210,1532030,0.936,0.296,0.145,1.7,-0.4,0.5,-11.6,-34.6,7.6,0.666982025,-0.142765587,-0.639271218,-0.354991302
1,7669,1532030,0.936,0.3,0.145,1.3,-0.2,0.6,-11.6,-34.6,7.6,0.666982025,-0.142735069,-0.639301737,-0.354960784
2,10562,1532030,0.936,0.296,0.141,1,0,0.7,-11.6,-34.6,7.6,0.666982025,-0.142735069,-0.639301737,-0.354930265
3,13667,1532030,0.936,0.3,0.137,0.6,0,0.7,-11.6,-34.6,7.6,0.667012543,-0.142735069,-0.639301737,-0.354899747
4,15030,1532040,0.936,0.3,0.137,0.3,0,0.7,-11.2,-34.9,7.4,0.667012543,-0.142735069,-0.639301737,-0.354899747
5,18512,1532040,0.936,0.3,0.137,0,0.1,0.6,-11.2,-34.9,7.4,0.667012543,-0.142765587,-0.639301737,-0.354869228
6,21496,1532040,0.94,0.3,0.137,-0.2,0,0.7,-11.2,-34.9,7.4,0.667012543,-0.142765587,-0.639301737,-0.354869228
7,22806,1532040,0.944,0.3,0.137,-0.4,0,0.7,-11.2,-34.9,7.4,0.667043062,-0.142796106,-0.639301737,-0.354869228
8,26246,1532050,0.944,0.3,0.137,-0.4,0,0.7,-11.2,-34.9,7.4,0.667043062,-0.142796106,-0.639301737,-0.354869228
9,27654,1532050,0.94,0.296,0.141,-0.9,0,0.7,-9.5,-36,7.2,0.666829432,-0.142460402,-0.639393292,-0.355174413
10,30839,1532050,0.944,0.292,0.137,-1.2,0.2,0.5,-9.5,-36,7.2,0.666829432,-0.142460402,-0.639393292,-0.355174413
11,33859,1532050,0.948,0.296,0.145,-1.4,0.2,0.2,-9.5,-36,7.2,0.666859951,-0.142490921,-0.639362774,-0.355174413
12,35110,1532060,0.948,0.292,0.141,-1.7,0.2,0,-11.4,-35,7.6,0.666829432,-0.142521439,-0.639362774,-0.355204932
13,38368,1532060,0.948,0.292,0.141,-1.7,0.2,0,-11.4,-35,7.6,0.666829432,-0.142521439,-0.639362774,-0.355204932
14,41368,1532060,0.956,0.288,0.141,-2.1,0.2,-0.5,-11.4,-35,7.6,0.666829432,-0.142551958,-0.639332255,-0.355296487
15,43742,1532060,0.96,0.288,0.144,-2.3,0.3,-0.7,-11.4,-35,7.6,0.666829432,-0.142582476,-0.639301737,-0.355327006
16,45852,1532070,0.964,0.28,0.14,-2.6,0.4,-0.7,-11.7,-35,7.4,0.666798914,-0.142612995,-0.639271218,-0.355388043
17,48831,1532070,0.96,0.28,0.14,-2.7,0.5,-0.7,-11.7,-35,7.4,0.666798914,-0.142643513,-0.639240699,-0.355418561
18,51163,1532070,0.964,0.276,0.14,-2.7,0.5,-0.7,-11.7,-35,7.4,0.666798914,-0.142643513,-0.639210181,-0.355479598
19,52657,1532070,0.964,0.276,0.136,-2.6,0.5,-0.6,-11.7,-35,7.4,0.666798914,-0.142674032,-0.639179662,-0.355540635
20,56644,1532080,0.968,0.272,0.136,-2.5,0.5,-0.6,-11.5,-34.9,7.3,0.666798914,-0.14270455,-0.639179662,-0.355571154
21,59011,1532080,0.972,0.268,0.132,-2.3,0.5,-0.6,-11.5,-34.9,7.3,0.666798914,-0.142735069,-0.639149144,-0.355632191
22,61444,1532080,0.976,0.276,0.132,-2,0.5,-0.6,-11.5,-34.9,7.3,0.666768395,-0.142735069,-0.639118625,-0.355662709
23,63555,1532080,0.968,0.272,0.136,-1.7,0.5,-0.6,-11.5,-34.9,7.3,0.666768395,-0.142765587,-0.639088107,-0.355693228
24,65499,1532090,0.972,0.272,0.136,-1.5,0.4,-0.5,-11.3,-35.1,7.1,0.666768395,-0.142765587,-0.639088107,-0.355723746
25,69107,1532090,0.972,0.268,0.132,-1.3,0.3,-0.4,-11.3,-35.1,7.1,0.666768395,-0.142765587,-0.639057588,-0.355754265
26,71230,1532090,0.968,0.276,0.132,-1.2,0.2,-0.4,-11.3,-35.1,7.1,0.666768395,-0.142796106,-0.639057588,-0.355784783
27,73601,1532090,0.968,0.272,0.136,-1.2,0.1,-0.3,-11.3,-35.1,7.1,0.666768395,-0.142796106,-0.639057588,-0.355815302
28,76143,1532100,0.968,0.272,0.136,-1.2,0.1,-0.3,-11.3,-35.1,7.1,0.666768395,-0.142796106,-0.639057588,-0.355815302
29,77677,1532100,0.964,0.272,0.136,-1.3,-0.2,-0.2,-9.9,-35.9,7.2,0.66667684,-0.142796106,-0.639118625,-0.35584582
30,80345,1532100,0.968,0.28,0.132,-1.3,-0.5,-0.2,-9.9,-35.9,7.2,0.666646321,-0.142796106,-0.639118625,-0.355876339
31,82404,1532100,0.96,0.28,0.136,-1.4,-0.8,0,-9.9,-35.9,7.2,0.666646321,-0.142857143,-0.639118625,-0.355876339
32,84924,1532110,0.96,0.284,0.136,-1.5,-1.1,0,-11.1,-33.8,7.6,0.666615802,-0.142887661,-0.639118625,-0.355906858
33,87312,1532110,0.956,0.28,0.14,-1.5,-1.4,0,-11.1,-33.8,7.6,0.666585284,-0.14291818,-0.639149144,-0.355906858
34,89798,1532110,0.952,0.288,0.137,-1.4,-1.7,0.1,-11.1,-33.8,7.6,0.666554765,-0.142948698,-0.639149144,-0.355937376
35,92525,1532110,0.952,0.292,0.141,-1.2,-1.9,0.1,-11.1,-33.8,7.6,0.666524247,-0.142979217,-0.639179662,-0.355937376
36,96736,1532120,0.948,0.292,0.137,-1,-1.9,0.3,-10.8,-34.2,7.6,0.666493728,-0.143040254,-0.639179662,-0.355937376
37,98857,1532120,0.94,0.292,0.141,-0.6,-1.8,0.6,-10.8,-34.2,7.6,0.666493728,-0.143070772,-0.639210181,-0.355937376
38,101269,1532120,0.944,0.3,0.141,-0.2,-1.9,0.9,-10.8,-34.2,7.6,0.66646321,-0.143101291,-0.639240699,-0.355906858
39,103542,1532120,0.936,0.304,0.141,0.1,-2.1,1.1,-10.8,-34.2,7.6,0.666432691,-0.143131809,-0.639271218,-0.355906858
40,105083,1532130,0.94,0.304,0.141,0.4,-2.2,1.2,-10.8,-33.8,7.5,0.666432691,-0.143162328,-0.639301737,-0.355876339
41,109064,1532130,0.936,0.304,0.145,0.6,-2.2,1.3,-10.8,-33.8,7.5,0.666402173,-0.143192846,-0.639332255,-0.355815302
42,111433,1532130,0.936,0.312,0.149,0.8,-2.1,1.3,-10.8,-33.8,7.5,0.666371654,-0.143192846,-0.639362774,-0.355784783
43,113788,1532130,0.936,0.308,0.141,0.9,-2,1.4,-10.8,-33.8,7.5,0.666371654,-0.143223365,-0.639393292,-0.355754265
44,116042,1532140,0.936,0.312,0.145,0.9,-1.8,1.3,-10.6,-34.1,7.5,0.666371654,-0.143253883,-0.639423811,-0.355723746
45,117884,1532140,0.936,0.308,0.145,1,-1.5,1,-10.6,-34.1,7.5,0.666341136,-0.143253883,-0.639454329,-0.355662709
46,120211,1532140,0.936,0.316,0.149,1,-1.3,0.9,-10.6,-34.1,7.5,0.666341136,-0.143253883,-0.639484848,-0.355632191
47,122765,1532140,0.936,0.308,0.149,0.9,-1,0.7,-10.6,-34.1,7.5,0.666341136,-0.143253883,-0.639484848,-0.355601672
48,125091,1532150,0.936,0.308,0.149,0.9,-1,0.7,-10.6,-34.1,7.5,0.666341136,-0.143253883,-0.639484848,-0.355601672
49,127348,1532150,0.94,0.308,0.149,0.8,-0.6,0.2,-10.3,-35.8,7.1,0.666188543,-0.142857143,-0.639576403,-0.355906858
50,131781,1532150,0.944,0.304,0.141,0.6,-0.4,0,-10.3,-35.8,7.1,0.666188543,-0.142857143,-0.639606922,-0.355906858
51,132480,1532150,0.94,0.304,0.145,0.3,-0.3,-0.3,-10.3,-35.8,7.1,0.666188543,-0.142796106,-0.639606922,-0.355906858
52,135125,1532160,0.944,0.304,0.145,0.1,-0.3,-0.4,-10.6,-34.7,6.9,0.666158025,-0.142796106,-0.639606922,-0.355906858
53,137495,1532160,0.948,0.304,0.149,-0.2,-0.3,-0.6,-10.6,-34.7,6.9,0.666158025,-0.142796106,-0.639606922,-0.355906858
54,142007,1532160,0.944,0.3,0.141,-0.6,-0.2,-0.7,-10.6,-34.7,6.9,0.666158025,-0.142796106,-0.639606922,-0.355937376
55,142429,1532160,0.944,0.3,0.141,-1.2,-0.2,-0.7,-10.6,-34.7,6.9,0.666127506,-0.142796106,-0.639606922,-0.355937376
56,144914,1532170,0.952,0.292,0.148,-1.7,-0.2,-0.7,-10.7,-34.6,7.6,0.666127506,-0.142857143,-0.639606922,-0.355998413
57,149440,1532170,0.952,0.296,0.141,-2.3,-0.3,-0.5,-10.7,-34.6,7.6,0.666096988,-0.142887661,-0.639606922,-0.356028932
58,149934,1532170,0.952,0.292,0.145,-2.9,-0.5,-0.5,-10.7,-34.6,7.6,0.666066469,-0.14291818,-0.639576403,-0.356089969
59,152297,1532170,0.952,0.288,0.141,-3.3,-0.5,-0.5,-10.7,-34.6,7.6,0.666066469,-0.142979217,-0.639576403,-0.356120487
60,156480,1532180,0.956,0.288,0.141,-3.8,-0.6,-0.6,-10.4,-34.7,7.6,0.666035951,-0.143009735,-0.639545885,-0.356181524
61,158700,1532180,0.96,0.288,0.14,-4.3,-0.6,-0.5,-10.4,-34.7,7.6,0.666005432,-0.143070772,-0.639515366,-0.35627308
62,160702,1532180,0.96,0.288,0.14,-4.7,-0.7,-0.3,-10.4,-34.7,7.6,0.665974914,-0.143162328,-0.639484848,-0.356334117
63,164102,1532180,0.96,0.292,0.141,-5,-0.7,-0.1,-10.4,-34.7,7.6,0.665944395,-0.143223365,-0.639484848,-0.356395154
64,167110,1532190,0.96,0.288,0.137,-5.3,-0.8,0,-10.4,-34.6,7.5,0.665913877,-0.14331492,-0.639454329,-0.356486709
65,167529,1532190,0.96,0.284,0.144,-5.5,-0.9,0.1,-10.4,-34.6,7.5,0.665883358,-0.143406476,-0.639423811,-0.356547746
66,170128,1532190,0.964,0.28,0.136,-5.7,-0.9,0.2,-10.4,-34.6,7.5,0.66585284,-0.143498032,-0.639393292,-0.356608783
67,172275,1532190,0.964,0.284,0.136,-5.9,-0.8,0.3,-10.4,-34.6,7.5,0.665822321,-0.143589587,-0.639332255,-0.356700339
68,176501,1532200,0.964,0.284,0.136,-5.9,-0.8,0.3,-10.4,-34.6,7.5,0.665822321,-0.143589587,-0.639332255,-0.356700339
69,178537,1532200,0.964,0.284,0.133,-6.4,-0.8,0.5,-10.1,-35.8,7.3,0.665669729,-0.143650624,-0.639362774,-0.356975005
70,180445,1532200,0.964,0.28,0.136,-6.5,-0.8,0.5,-10.1,-35.8,7.3,0.66563921,-0.14374218,-0.639332255,-0.357036042
71,183597,1532200,0.964,0.28,0.14,-6.6,-0.9,0.3,-10.1,-35.8,7.3,0.665608692,-0.143864254,-0.639271218,-0.357127598
72,185547,1532210,0.964,0.28,0.14,-6.6,-1.1,0.2,-10.3,-35,7.5,0.665578173,-0.143955809,-0.639240699,-0.357219153
73,187833,1532210,0.964,0.28,0.132,-6.7,-1.1,0.1,-10.3,-35,7.5,0.665517136,-0.144077883,-0.639210181,-0.357310709
74,190936,1532210,0.96,0.276,0.136,-6.6,-1.1,0,-10.3,-35,7.5,0.665486618,-0.144169439,-0.639179662,-0.357402264
75,192325,1532210,0.968,0.28,0.136,-6.4,-1.1,-0.1,-10.3,-35,7.5,0.665456099,-0.144291513,-0.639149144,-0.35749382
76,195271,1532220,0.968,0.28,0.132,-6.1,-1.1,-0.3,-10.5,-35.2,7.7,0.665425581,-0.144383068,-0.639118625,-0.357585376
77,198805,1532220,0.964,0.276,0.136,-5.8,-1.2,-0.4,-10.5,-35.2,7.7,0.665364544,-0.144474624,-0.639088107,-0.357646413
78,200108,1532220,0.96,0.284,0.14,-5.4,-1.2,-0.4,-10.5,-35.2,7.7,0.665334025,-0.144535661,-0.639057588,-0.357737968
79,203307,1532220,0.964,0.284,0.14,-5.2,-1.1,-0.6,-10.5,-35.2,7.7,0.665303507,-0.144627216,-0.63902707,-0.357829524
80,206073,1532230,0.964,0.288,0.14,-5,-1,-0.7,-10.5,-34.7,7.4,0.665272988,-0.144688253,-0.63902707,-0.357890561
81,207543,1532230,0.96,0.284,0.136,-5,-1,-0.8,-10.5,-34.7,7.4,0.66524247,-0.14474929,-0.638996551,-0.357982116
82,210476,1532230,0.96,0.276,0.136,-4.9,-1,-0.8,-10.5,-34.7,7.4,0.665181433,-0.144840846,-0.638966033,-0.358043153
83,213697,1532230,0.96,0.284,0.136,-4.9,-0.9,-0.8,-10.5,-34.7,7.4,0.665150914,-0.144901883,-0.638966033,-0.358134709
84,216174,1532240,0.96,0.284,0.136,-4.9,-0.9,-0.7,-10.3,-34.7,7.3,0.665120396,-0.14496292,-0.638935514,-0.358195746
85,217680,1532240,0.96,0.288,0.137,-4.9,-0.8,-0.7,-10.3,-34.7,7.3,0.665089877,-0.145023957,-0.638904996,-0.358287301
86,221837,1532240,0.96,0.284,0.14,-4.8,-0.6,-0.7,-10.3,-34.7,7.3,0.66502884,-0.145115513,-0.638874477,-0.358348338
87,224073,1532240,0.956,0.292,0.137,-4.7,-0.6,-0.8,-10.3,-34.7,7.3,0.66502884,-0.14517655,-0.638843959,-0.358439894
88,226311,1532250,0.956,0.292,0.137,-4.7,-0.6,-0.8,-10.3,-34.7,7.3,0.66502884,-0.14517655,-0.638843959,-0.358439894
89,228590,1532250,0.956,0.288,0.141,-4.6,-0.6,-1,-10.4,-35.8,7.2,0.664754173,-0.14496292,-0.638966033,-0.358806116
90,230491,1532250,0.956,0.288,0.141,-4.6,-0.8,-1,-10.4,-35.8,7.2,0.664723655,-0.145023957,-0.638966033,-0.358897671
91,232834,1532250,0.952,0.292,0.145,-4.5,-0.8,-0.9,-10.4,-35.8,7.2,0.664693136,-0.145084994,-0.638935514,-0.358958708
92,236316,1532260,0.952,0.288,0.141,-4.6,-0.9,-0.7,-10.6,-35.2,7.7,0.664632099,-0.145146031,-0.638904996,-0.359050264
93,237786,1532260,0.956,0.292,0.141,-4.7,-0.9,-0.5,-10.6,-35.2,7.7,0.664601581,-0.145207068,-0.638904996,-0.359111301
94,239842,1532260,0.952,0.292,0.145,-4.7,-0.9,-0.3,-10.6,-35.2,7.7,0.664571062,-0.145298624,-0.638874477,-0.359172338
95,243133,1532260,0.956,0.296,0.141,-4.7,-0.8,-0.1,-10.6,-35.2,7.7,0.664540544,-0.145359661,-0.638843959,-0.359233375
96,245146,1532270,0.952,0.3,0.149,-4.7,-0.6,0,-10.6,-34.8,7.5,0.664540544,-0.145420698,-0.63881344,-0.359324931
97,248050,1532270,0.948,0.296,0.145,-4.8,-0.5,0,-10.6,-34.8,7.5,0.664510025,-0.145512253,-0.638782922,-0.359385968
98,249976,1532270,0.952,0.296,0.149,-4.8,-0.7,0.1,-10.6,-34.8,7.5,0.664479507,-0.14557329,-0.638752403,-0.359447005
99,253718,1532270,0.952,0.296,0.149,-4.7,-0.9,0.2,-10.6,-34.8,7.5,0.664448988,-0.145664846,-0.638721885,-0.359508042
100,256206,1532280,0.952,0.296,0.145,-4.6,-1,0.1,-10.1,-35,7.6,0.66441847,-0.145725883,-0.638721885,-0.359569079
101,257913,1532280,0.948,0.292,0.149,-4.5,-1.1,0,-10.1,-35,7.6,0.664387951,-0.145817438,-0.638691366,-0.359630116
102,260313,1532280,0.948,0.296,0.149,-4.6,-1.1,-0.1,-10.1,-35,7.6,0.664357433,-0.145878475,-0.638691366,-0.359691153
103,263444,1532280,0.948,0.292,0.149,-4.6,-1.3,-0.2,-10.1,-35,7.6,0.664326914,-0.145970031,-0.638660848,-0.35975219
104,265597,1532290,0.944,0.296,0.149,-4.7,-1.3,-0.3,-10.4,-35.1,7.3,0.664296396,-0.146031068,-0.638630329,-0.359813227
105,267709,1532290,0.944,0.292,0.145,-4.9,-1.2,-0.2,-10.4,-35.1,7.3,0.664265877,-0.146122623,-0.638630329,-0.359843745
106,271896,1532290,0.948,0.292,0.141,-5.1,-1.1,-0.2,-10.4,-35.1,7.3,0.664235359,-0.146214179,-0.638599811,-0.359965819
107,272307,1532290,0.94,0.292,0.145,-5.3,-1,0,-10.4,-35.1,7.3,0.66420484,-0.146275216,-0.638569292,-0.360026856
108,275526,1532300,0.94,0.292,0.145,-5.3,-1,0,-10.4,-35.1,7.3,0.66420484,-0.146275216,-0.638569292,-0.360026856
109,277652,1532300,0.948,0.292,0.141,-5.8,-1,0.1,-10.2,-35.5,7.2,0.663991211,-0.146122623,-0.638569292,-0.360454115
110,279804,1532300,0.952,0.296,0.141,-6,-1,0.4,-10.2,-35.5,7.2,0.663960692,-0.146214179,-0.638538774,-0.360545671
111,283107,1532300,0.948,0.292,0.141,-6.2,-1,0.6,-10.2,-35.5,7.2,0.663930174,-0.146336253,-0.638508255,-0.360606708
112,284871,1532310,0.948,0.292,0.141,-6.3,-1.2,0.9,-10.4,-35.4,7.3,0.663899655,-0.146458327,-0.638447218,-0.360667745
113,287338,1532310,0.952,0.292,0.141,-6.1,-1.2,1,-10.4,-35.4,7.3,0.663899655,-0.146549883,-0.6384167,-0.360728782
114,291476,1532310,0.956,0.3,0.141,-6.1,-1.2,1,-10.4,-35.4,7.3,0.663869137,-0.146671957,-0.638386181,-0.360820338
115,293592,1532310,0.96,0.3,0.145,-6.1,-1.2,1.1,-10.4,-35.4,7.3,0.663838618,-0.146794031,-0.638355663,-0.360881375
116,296134,1532320,0.956,0.296,0.148,-6.1,-1.3,1.2,-10.4,-35.4,6.9,0.6638081,-0.146916105,-0.638325144,-0.360942412
117,297936,1532320,0.96,0.296,0.137,-6.3,-1.2,1.3,-10.4,-35.4,6.9,0.663777581,-0.147038179,-0.638294626,-0.361003449
118,300100,1532320,0.96,0.3,0.145,-6.5,-1.2,1.4,-10.4,-35.4,6.9,0.663747063,-0.147160253,-0.638264107,-0.361064486
119,302544,1532320,0.964,0.3,0.144,-6.6,-1.1,1.3,-10.4,-35.4,6.9,0.663716544,-0.147282327,-0.63820307,-0.361125523
120,304848,1532330,0.968,0.3,0.14,-6.5,-1,1.2,-10.2,-35.4,7,0.663686026,-0.147404401,-0.638172552,-0.361217078
121,308474,1532330,0.964,0.3,0.148,-6.6,-0.9,1.1,-10.2,-35.4,7,0.663655507,-0.147526475,-0.638111515,-0.361278115
122,309981,1532330,0.964,0.3,0.148,-6.6,-0.9,1,-10.2,-35.4,7,0.663655507,-0.14761803,-0.638080996,-0.361339152
123,312553,1532330,0.964,0.296,0.144,-6.8,-1,0.7,-10.2,-35.4,7,0.663624989,-0.147740104,-0.638050478,-0.361430708
124,314966,1532340,0.964,0.296,0.148,-6.9,-1.2,0.6,-10.4,-35.3,7.2,0.663563952,-0.147862178,-0.637989441,-0.361522263
125,318365,1532340,0.964,0.296,0.148,-6.9,-1.2,0.4,-10.4,-35.3,7.2,0.663533433,-0.147984252,-0.637958922,-0.361613819
126,319881,1532340,0.964,0.292,0.148,-6.9,-1.3,0.1,-10.4,-35.3,7.2,0.663502915,-0.148106326,-0.637928404,-0.361705374
127,323925,1532340,0.96,0.292,0.148,-6.9,-1.2,0,-10.4,-35.3,7.2,0.663472396,-0.148197882,-0.637897885,-0.36179693
128,326226,1532350,0.96,0.292,0.148,-6.9,-1.2,0,-10.4,-35.3,7.2,0.663472396,-0.148197882,-0.637897885,-0.36179693
129,328077,1532350,0.968,0.292,0.148,-7.2,-1,-0.2,-10.5,-35.3,7.1,0.663319803,-0.148228401,-0.637836848,-0.362163152
130,331506,1532350,0.964,0.284,0.148,-7.4,-1,-0.3,-10.5,-35.3,7.1,0.663258766,-0.148319956,-0.63780633,-0.362254707
131,333576,1532350,0.964,0.288,0.148,-7.7,-1,-0.4,-10.5,-35.3,7.1,0.663228248,-0.14844203,-0.637745293,-0.362376782
132,335625,1532360,0.96,0.284,0.152,-7.8,-1.1,-0.6,-10.2,-35.4,6.8,0.663167211,-0.148564104,-0.637684256,-0.362498856
133,337866,1532360,0.96,0.284,0.148,-7.9,-1.1,-0.8,-10.2,-35.4,6.8,0.663136692,-0.14865566,-0.637684256,-0.362590411
134,340128,1532360,0.956,0.28,0.152,-8,-1,-1,-10.2,-35.4,6.8,0.663075655,-0.148777734,-0.637623218,-0.362712485
135,342615,1532360,0.96,0.28,0.156,-8,-1,-1.1,-10.2,-35.4,6.8,0.663014618,-0.148899808,-0.6375927,-0.362865078
136,344912,1532370,0.956,0.276,0.148,-8,-1.1,-1.1,-10.4,-35.6,6.7,0.6629841,-0.148991363,-0.637531663,-0.362987152
137,349371,1532370,0.956,0.28,0.152,-8.1,-1.2,-1.1,-10.4,-35.6,6.7,0.662923063,-0.149113437,-0.637501144,-0.363109226
138,351660,1532370,0.948,0.276,0.152,-8,-1.3,-1,-10.4,-35.6,6.7,0.662862026,-0.149235511,-0.637440107,-0.3632313
139,353897,1532370,0.948,0.28,0.152,-8.1,-1.4,-1,-10.4,-35.6,6.7,0.662831507,-0.149327067,-0.637409589,-0.363353374
140,356070,1532380,0.948,0.276,0.152,-8.1,-1.4,-1,-10.3,-35.8,7,0.66277047,-0.149449141,-0.63737907,-0.363475448
141,357653,1532380,0.948,0.276,0.152,-8.2,-1.5,-0.9,-10.3,-35.8,7,0.662709433,-0.149571215,-0.637318033,-0.363597522
142,360180,1532380,0.944,0.268,0.152,-8.3,-1.7,-0.9,-10.3,-35.8,7,0.662648396,-0.149693289,-0.637287515,-0.363719596
143,363515,1532380,0.944,0.28,0.148,-8.4,-1.7,-0.8,-10.3,-35.8,7,0.662587359,-0.149815363,-0.637256996,-0.36384167
144,365592,1532390,0.94,0.276,0.148,-8.5,-1.7,-0.8,-10.4,-35.6,6.6,0.662526322,-0.149937437,-0.637226478,-0.363963744
145,367748,1532390,0.933,0.277,0.149,-8.6,-1.6,-0.5,-10.4,-35.6,6.6,0.662465285,-0.150059511,-0.637165441,-0.364085818
146,370959,1532390,0.936,0.276,0.156,-8.6,-1.4,-0.3,-10.4,-35.6,6.6,0.662434767,-0.150212104,-0.637134922,-0.364207892
147,372975,1532390,0.94,0.284,0.156,-8.6,-1.3,-0.1,-10.4,-35.6,6.6,0.66237373,-0.150334178,-0.637073885,-0.364329966
148,375292,1532400,0.94,0.284,0.156,-8.6,-1.3,-0.1,-10.4,-35.6,6.6,0.66237373,-0.150334178,-0.637073885,-0.364329966
149,378542,1532400,0.944,0.28,0.152,-8.6,-1,0.3,-10.2,-35.5,6.7,0.662282174,-0.15048677,-0.636951811,-0.36466567
150,380608,1532400,0.94,0.288,0.153,-8.5,-0.8,0.3,-10.2,-35.5,6.7,0.662251656,-0.150608844,-0.636890774,-0.364787744
151,382929,1532400,0.944,0.288,0.152,-8.3,-0.5,0.4,-10.2,-35.5,6.7,0.662221137,-0.150730918,-0.636829737,-0.364909818
152,385029,1532410,0.944,0.292,0.153,-8.2,-0.4,0.5,-10.5,-35,6.6,0.662190619,-0.150883511,-0.6367687,-0.365001373
153,388429,1532410,0.948,0.292,0.152,-8,-0.2,0.6,-10.5,-35,6.6,0.6621601,-0.151005585,-0.636707663,-0.365092929
154,390552,1532410,0.952,0.296,0.149,-8,-0.1,0.7,-10.5,-35,6.6,0.662129582,-0.151127659,-0.636646626,-0.365215003
155,392785,1532410,0.96,0.296,0.152,-8,-0.1,0.7,-10.5,-35,6.6,0.662099063,-0.151249733,-0.636585589,-0.365306558
156,395832,1532420,0.96,0.3,0.152,-8,0,0.6,-10.6,-36.1,6.3,0.662099063,-0.151371807,-0.636524552,-0.365398114
157,397304,1532420,0.96,0.3,0.152,-8,0,0.5,-10.6,-36.1,6.3,0.662068545,-0.151493881,-0.636432997,-0.365520188
158,400171,1532420,0.964,0.3,0.152,-8.1,0,0.3,-10.6,-36.1,6.3,0.662038026,-0.151585437,-0.63637196,-0.365611744
159,403378,1532420,0.968,0.3,0.152,-8.2,0.1,0,-10.6,-36.1,6.3,0.662007508,-0.151738029,-0.636310923,-0.365703299
160,405429,1532430,0.972,0.3,0.152,-8.4,0.2,-0.2,-10.2,-35.3,6.3,0.662007508,-0.151860103,-0.636249886,-0.365855892
161,407801,1532430,0.975,0.303,0.152,-8.7,0.2,-0.5,-10.2,-35.3,6.3,0.661976989,-0.151982177,-0.63615833,-0.365977966
162,410046,1532430,0.968,0.296,0.156,-9,0.2,-0.9,-10.2,-35.3,6.3,0.661915952,-0.152104251,-0.636097293,-0.366130558
163,412442,1532430,0.975,0.299,0.156,-9.2,0,-1.3,-10.2,-35.3,6.3,0.661885434,-0.152195807,-0.636036256,-0.366283151
164,414688,1532440,0.968,0.3,0.156,-9.4,-0.2,-1.8,-10.2,-35.5,6.4,0.661854915,-0.152317881,-0.6359447,-0.366435743
165,418399,1532440,0.964,0.296,0.16,-9.6,-0.6,-2.5,-10.2,-35.5,6.4,0.661793878,-0.152439955,-0.635883663,-0.366588336
166,420471,1532440,0.96,0.288,0.164,-10,-0.9,-3.3,-10.2,-35.5,6.4,0.661702322,-0.15253151,-0.635853145,-0.366771447
167,422702,1532440,0.956,0.284,0.168,-10.5,-1.3,-4,-10.2,-35.5,6.4,0.661610767,-0.152653584,-0.635792108,-0.366985076
168,425922,1532450,0.956,0.284,0.168,-10.5,-1.3,-4,-10.2,-35.5,6.4,0.661610767,-0.152653584,-0.635792108,-0.366985076
169,427977,1532450,0.94,0.272,0.172,-11.6,-2.4,-4.9,-10.3,-35.1,6.5,0.661397137,-0.152714621,-0.635670034,-0.367564928
170,430211,1532450,0.936,0.276,0.18,-12.2,-3,-5.3,-10.3,-35.1,6.5,0.661275063,-0.152836695,-0.635639515,-0.367778558
171,433381,1532450,0.928,0.268,0.176,-12.6,-3.5,-5.7,-10.3,-35.1,6.5,0.661122471,-0.152989288,-0.635608997,-0.368022706
172,435406,1532460,0.925,0.272,0.176,-13.1,-4,-6,-10.2,-35.9,6.3,0.660969878,-0.153111362,-0.635578478,-0.368297372
173,437741,1532460,0.913,0.257,0.188,-13.3,-4.5,-6.2,-10.2,-35.9,6.3,0.660817286,-0.153263955,-0.63554796,-0.36854152
174,439862,1532460,0.905,0.265,0.184,-13.4,-4.8,-6.3,-10.2,-35.9,6.3,0.660664693,-0.153416547,-0.63554796,-0.368816187
175,442700,1532460,0.905,0.261,0.192,-13.3,-5,-6.3,-10.2,-35.9,6.3,0.660512101,-0.153538621,-0.635517441,-0.369060335
176,445856,1532470,0.901,0.253,0.192,-13.2,-5.2,-6.1,-10.2,-36.6,6.4,0.66032899,-0.153691214,-0.635517441,-0.369335002
177,447337,1532470,0.893,0.253,0.192,-13.1,-5.1,-5.9,-10.2,-36.6,6.4,0.660176397,-0.153843806,-0.635517441,-0.36957915
178,451252,1532470,0.897,0.257,0.192,-12.8,-4.9,-5.7,-10.2,-36.6,6.4,0.660023804,-0.153996399,-0.635486923,-0.369823298
179,453236,1532470,0.901,0.253,0.192,-12.3,-4.6,-5.4,-10.2,-36.6,6.4,0.659871212,-0.154118473,-0.635486923,-0.370067446
180,456461,1532480,0.901,0.253,0.192,-11.8,-4.2,-5.1,-10.3,-35.9,6.2,0.659718619,-0.154271065,-0.635456404,-0.370281075
181,458497,1532480,0.901,0.257,0.192,-11.2,-3.8,-4.9,-10.3,-35.9,6.2,0.659596545,-0.154393139,-0.635456404,-0.370494705
182,461828,1532480,0.901,0.261,0.192,-10.7,-3.6,-4.6,-10.3,-35.9,6.2,0.659474471,-0.154515213,-0.635425886,-0.370708335
183,463331,1532480,0.913,0.26,0.192,-10.1,-3.3,-4.3,-10.3,-35.9,6.2,0.659352397,-0.154637288,-0.635395367,-0.370891446
184,464945,1532490,0.913,0.26,0.188,-9.5,-3,-4,-10.1,-36,6.2,0.659230323,-0.154728843,-0.635395367,-0.371074557
185,468614,1532490,0.917,0.26,0.192,-9,-2.7,-3.6,-10.1,-36,6.2,0.659138768,-0.154820399,-0.635364849,-0.371227149
186,469969,1532490,0.921,0.268,0.188,-8.4,-2.6,-3.3,-10.1,-36,6.2,0.659047212,-0.154942473,-0.63533433,-0.371379742
187,474287,1532490,0.925,0.28,0.184,-8,-2.6,-3,-10.1,-36,6.2,0.658955657,-0.155034028,-0.63533433,-0.371532334
188,475872,1532500,0.925,0.28,0.184,-8,-2.6,-3,-10.1,-36,6.2,0.658955657,-0.155034028,-0.63533433,-0.371532334
189,477589,1532500,0.932,0.292,0.184,-7.2,-2.6,-2.4,-10.1,-35,6.2,0.65889462,-0.155125584,-0.635151219,-0.371898556
190,479841,1532500,0.936,0.296,0.184,-7,-2.6,-2.1,-10.1,-35,6.2,0.658833583,-0.155217139,-0.635151219,-0.372020631
191,482354,1532500,0.948,0.307,0.184,-6.8,-2.8,-1.8,-10.1,-35,6.2,0.658742027,-0.155308695,-0.635120701,-0.372142705
192,485908,1532510,0.952,0.311,0.188,-6.7,-3,-1.5,-10.2,-36.1,6.3,0.65868099,-0.15540025,-0.635120701,-0.37223426
193,487952,1532510,0.952,0.315,0.18,-6.8,-3.3,-1.3,-10.2,-36.1,6.3,0.658589434,-0.155491806,-0.635120701,-0.372325816
194,490400,1532510,0.96,0.331,0.184,-6.7,-3.6,-1,-10.2,-36.1,6.3,0.658497879,-0.155644398,-0.635120701,-0.37244789
195,492522,1532510,0.964,0.334,0.184,-6.7,-3.8,-0.9,-10.2,-36.1,6.3,0.658406323,-0.155735954,-0.635120701,-0.372539445
196,495980,1532520,0.96,0.335,0.184,-6.7,-4.2,-0.9,-10.1,-36.2,6.1,0.658345286,-0.155858028,-0.635151219,-0.372631001
197,497723,1532520,0.964,0.342,0.184,-6.7,-4.5,-1.1,-10.1,-36.2,6.1,0.658223212,-0.155980102,-0.635151219,-0.372722556
198,499980,1532520,0.967,0.346,0.192,-6.8,-4.9,-1.4,-10.1,-36.2,6.1,0.658131657,-0.156102176,-0.635181738,-0.372814112
199,503551,1532520,0.964,0.35,0.188,-6.9,-5.3,-2,-10.1,-36.2,6.1,0.658009583,-0.15622425,-0.635212256,-0.372936186
200,504975,1532530,0.967,0.354,0.192,-6.9,-5.7,-2.6,-9.9,-36.5,6.2,0.657887509,-0.156315806,-0.635242775,-0.373027741
201,507940,1532530,0.967,0.354,0.196,-6.9,-6.1,-3.1,-9.9,-36.5,6.2,0.657765435,-0.15643788,-0.635273293,-0.373149815
202,510348,1532530,0.96,0.362,0.196,-7.1,-6.6,-3.8,-9.9,-36.5,6.2,0.657612842,-0.156529435,-0.63533433,-0.373302408
203,512637,1532530,0.96,0.362,0.2,-7.5,-7,-4.5,-9.9,-36.5,6.2,0.65746025,-0.156651509,-0.635395367,-0.373424482
204,515435,1532540,0.952,0.362,0.2,-8,-7.4,-5.2,-10.2,-36.5,5.8,0.657277139,-0.156743065,-0.635456404,-0.373607593
205,518483,1532540,0.944,0.366,0.2,-8.6,-7.7,-6,-10.2,-36.5,5.8,0.657094028,-0.15683462,-0.635517441,-0.373790704
206,520496,1532540,0.944,0.366,0.2,-9.2,-7.7,-6.7,-10.2,-36.5,5.8,0.656880398,-0.156956694,-0.635578478,-0.373973815
207,523339,1532540,0.94,0.37,0.204,-9.8,-7.6,-7.4,-10.2,-36.5,5.8,0.656697287,-0.15704825,-0.635608997,-0.374187445
208,525436,1532550,0.94,0.37,0.204,-9.8,-7.6,-7.4,-10.2,-36.5,5.8,0.656697287,-0.15704825,-0.635608997,-0.374187445
209,527609,1532550,0.924,0.374,0.213,-10.3,-7.6,-8.4,-9.9,-34.9,6.6,0.656270028,-0.156895657,-0.635639515,-0.374980926
210,531950,1532550,0.917,0.378,0.209,-10.3,-7.7,-8.7,-9.9,-34.9,6.6,0.656056398,-0.156987213,-0.635700552,-0.375225074
211,532280,1532550,0.913,0.382,0.217,-10,-8,-8.9,-9.9,-34.9,6.6,0.65581225,-0.157078768,-0.635761589,-0.375469222
212,534722,1532560,0.909,0.386,0.213,-9.4,-8.2,-9,-9.8,-36.2,5.8,0.655598621,-0.157139805,-0.635853145,-0.375682852
213,539399,1532560,0.901,0.39,0.213,-8.8,-8.5,-9,-9.8,-36.2,5.8,0.655384991,-0.157200842,-0.635914182,-0.375927
214,539895,1532560,0.901,0.398,0.213,-8.2,-8.7,-8.9,-9.8,-36.2,5.8,0.655171361,-0.157292398,-0.636005737,-0.376110111
215,542342,1532560,0.901,0.401,0.217,-7.6,-8.9,-8.7,-9.8,-36.2,5.8,0.654927213,-0.157353435,-0.636097293,-0.37632374
216,546671,1532570,0.901,0.405,0.221,-7.2,-9,-8.4,-9.3,-36,5.5,0.654713584,-0.157414472,-0.636188849,-0.376506851
217,548065,1532570,0.893,0.406,0.217,-6.8,-9,-8.3,-9.3,-36,5.5,0.654499954,-0.15744499,-0.636310923,-0.376689962
218,550454,1532570,0.893,0.413,0.218,-6.6,-8.8,-8.1,-9.3,-36,5.5,0.654286325,-0.157506027,-0.636402478,-0.376873074
219,552724,1532570,0.897,0.417,0.225,-6.5,-8.6,-8,-9.3,-36,5.5,0.654072695,-0.157567064,-0.636494034,-0.377056185
220,554865,1532580,0.893,0.425,0.214,-6.7,-8.3,-8.1,-9.7,-36.1,5.7,0.653859066,-0.157628101,-0.636585589,-0.377239296
221,557926,1532580,0.893,0.425,0.214,-7,-8.1,-8.1,-9.7,-36.1,5.7,0.653675954,-0.157689138,-0.636677145,-0.377422407
222,560251,1532580,0.893,0.421,0.21,-7.8,-8,-8.2,-9.7,-36.1,5.7,0.653462325,-0.157750175,-0.6367687,-0.377605518
223,562772,1532580,0.889,0.429,0.214,-8.6,-8,-8.4,-9.7,-36.1,5.7,0.653248695,-0.157811213,-0.636829737,-0.377819147
224,566530,1532590,0.889,0.429,0.21,-9.5,-8,-8.6,-9.2,-36.4,5.8,0.653035066,-0.157902768,-0.636890774,-0.378063295
225,568862,1532590,0.897,0.437,0.21,-10.4,-8,-8.8,-9.2,-36.4,5.8,0.652821436,-0.157994324,-0.636951811,-0.378307443
226,571044,1532590,0.897,0.437,0.206,-11.5,-8.2,-8.9,-9.2,-36.4,5.8,0.652577288,-0.158085879,-0.637012848,-0.378551592
227,572952,1532590,0.897,0.441,0.206,-12.9,-8.5,-8.8,-9.2,-36.4,5.8,0.65233314,-0.158238472,-0.637043367,-0.378856777
228,575170,1532600,0.897,0.441,0.206,-12.9,-8.5,-8.8,-9.2,-36.4,5.8,0.65233314,-0.158238472,-0.637043367,-0.378856777
229,577818,1532600,0.897,0.445,0.206,-16.1,-9.5,-8.2,-9.9,-35,6.7,0.651661733,-0.157292398,-0.636921293,-0.38062685
230,580556,1532600,0.901,0.441,0.198,-17.9,-10,-8,-9.9,-35,6.7,0.651387066,-0.157506027,-0.636951811,-0.380932035
231,582781,1532600,0.901,0.445,0.198,-19.7,-10.4,-7.6,-9.9,-35,6.7,0.6511124,-0.157780694,-0.636951811,-0.381298257
232,585022,1532610,0.905,0.445,0.198,-21.6,-10.7,-7.2,-9.8,-36.6,5.2,0.650837733,-0.158085879,-0.636951811,-0.38166448
233,587566,1532610,0.901,0.449,0.194,-23.5,-11,-6.8,-9.8,-36.6,5.2,0.650532548,-0.158391064,-0.636951811,-0.382030702
234,589760,1532610,0.905,0.449,0.19,-25.2,-11.2,-6.4,-9.8,-36.6,5.2,0.650227363,-0.158757286,-0.636921293,-0.382457961
235,594387,1532610,0.905,0.445,0.186,-26.8,-11.4,-6,-9.8,-36.6,5.2,0.649952696,-0.159154027,-0.636860256,-0.382854701
236,596493,1532620,0.909,0.445,0.19,-28.5,-11.7,-5.8,-9.7,-36.3,4.9,0.649616993,-0.159581286,-0.636829737,-0.383281961
237,598654,1532620,0.913,0.445,0.182,-30.3,-12,-5.7,-9.7,-36.3,4.9,0.649311808,-0.160039064,-0.6367687,-0.383770257
238,600421,1532620,0.905,0.441,0.182,-32.1,-12.4,-5.7,-9.7,-36.3,4.9,0.648976104,-0.160496841,-0.636677145,-0.384258553
239,602744,1532620,0.913,0.441,0.174,-33.9,-12.8,-5.7,-9.7,-36.3,4.9,0.6486404,-0.161015656,-0.636616108,-0.384746849
240,605085,1532630,0.921,0.433,0.17,-35.6,-13.2,-5.8,-9.3,-36.3,4.6,0.648274178,-0.161564989,-0.636524552,-0.385296182
241,607483,1532630,0.921,0.429,0.17,-37.2,-13.4,-6,-9.3,-36.3,4.6,0.647907956,-0.162114322,-0.636402478,-0.385845515
242,609784,1532630,0.924,0.429,0.166,-38.7,-13.6,-6.2,-9.3,-36.3,4.6,0.647511216,-0.162694174,-0.636310923,-0.386425367
243,613413,1532630,0.921,0.426,0.166,-40.1,-13.8,-6.2,-9.3,-36.3,4.6,0.647144993,-0.163274026,-0.636188849,-0.387005219
244,615474,1532640,0.928,0.418,0.162,-41.5,-13.9,-6.4,-9.3,-36.5,4.8,0.646748253,-0.163884396,-0.636036256,-0.387646107
245,617734,1532640,0.928,0.414,0.154,-42.9,-13.7,-6.8,-9.3,-36.5,4.8,0.646320994,-0.164525285,-0.635914182,-0.388286996
246,620213,1532640,0.936,0.41,0.162,-44.3,-13.5,-7.2,-9.3,-36.5,4.8,0.645924253,-0.165166173,-0.635731071,-0.388958403
247,622428,1532640,0.936,0.398,0.154,-45.4,-13.3,-7.5,-9.3,-36.5,4.8,0.645496994,-0.165807062,-0.635578478,-0.38962981
248,626832,1532650,0.936,0.398,0.154,-45.4,-13.3,-7.5,-9.3,-36.5,4.8,0.645496994,-0.165807062,-0.635578478,-0.38962981
249,629052,1532650,0.94,0.398,0.162,-46.9,-12.9,-7.9,-9.3,-35.4,6.4,0.644215217,-0.165868099,-0.635364849,-0.39210181
250,631348,1532650,0.94,0.398,0.158,-47.2,-12.7,-8.1,-9.3,-35.4,6.4,0.643818476,-0.166508988,-0.635151219,-0.392834254
251,633643,1532650,0.94,0.402,0.158,-47.2,-12.7,-8.1,-9.3,-35.4,6.4,0.643391217,-0.167180395,-0.634968108,-0.39353618
252,635892,1532660,0.94,0.402,0.15,-47.1,-12.7,-8,-9.1,-36.6,3.9,0.642963958,-0.167821284,-0.634754479,-0.394268624
253,637957,1532660,0.94,0.406,0.162,-47.1,-13,-7.6,-9.1,-36.6,3.9,0.642536699,-0.168492691,-0.634571368,-0.39497055
254,640223,1532660,0.944,0.402,0.162,-47.1,-13.3,-7.2,-9.1,-36.6,3.9,0.642139958,-0.169164098,-0.634388256,-0.395672475
255,642641,1532660,0.944,0.402,0.162,-47.1,-13.6,-6.8,-9.1,-36.6,3.9,0.641712699,-0.169866024,-0.634174627,-0.396374401
256,644911,1532670,0.944,0.406,0.158,-46.8,-13.7,-6.5,-9,-36.7,4,0.64128544,-0.170537431,-0.633991516,-0.397076327
257,647203,1532670,0.94,0.406,0.162,-46.4,-13.7,-6.4,-9,-36.7,4,0.64085818,-0.171239357,-0.633777886,-0.397747734
258,650895,1532670,0.94,0.414,0.166,-45.9,-13.6,-6.3,-9,-36.7,4,0.64046144,-0.171910764,-0.633625294,-0.398419141
259,652955,1532670,0.936,0.414,0.166,-45.2,-13.5,-6.1,-9,-36.7,4,0.640034181,-0.172551653,-0.633442183,-0.399090548
260,655182,1532680,0.932,0.41,0.158,-44.6,-13.4,-5.9,-9,-36.5,3.7,0.63963744,-0.17322306,-0.633259072,-0.399731437
261,659130,1532680,0.932,0.418,0.166,-44.2,-13.3,-5.8,-9,-36.5,3.7,0.639240699,-0.173863948,-0.633075961,-0.400372326
262,661419,1532680,0.932,0.418,0.158,-43.8,-13,-5.8,-9,-36.5,3.7,0.63881344,-0.174504837,-0.63289285,-0.401013215
263,663639,1532680,0.932,0.418,0.162,-43.7,-12.7,-5.8,-9,-36.5,3.7,0.638447218,-0.175145726,-0.632740257,-0.401654103
264,665914,1532690,0.928,0.422,0.158,-43.5,-12.5,-5.7,-9.1,-36.4,3.6,0.638050478,-0.175786615,-0.632526627,-0.402294992
265,667970,1532690,0.928,0.414,0.158,-43.4,-12.4,-5.6,-9.1,-36.4,3.6,0.637653737,-0.176427503,-0.632343516,-0.402905362
266,670226,1532690,0.924,0.422,0.162,-43.2,-12.4,-5.3,-9.1,-36.4,3.6,0.637256996,-0.177068392,-0.632160405,-0.403546251
267,672747,1532690,0.928,0.422,0.158,-42.8,-12.7,-5,-9.1,-36.4,3.6,0.636890774,-0.177709281,-0.631977294,-0.404156621
268,674834,1532700,0.928,0.422,0.158,-42.8,-12.7,-5,-9.1,-36.4,3.6,0.636890774,-0.177709281,-0.631977294,-0.404156621
269,677202,1532700,0.928,0.414,0.17,-41.3,-13.9,-4.1,-9,-35.7,5,0.635486923,-0.177343059,-0.631916257,-0.406598102
270,681594,1532700,0.932,0.41,0.174,-40.3,-14.8,-3.5,-9,-35.7,5,0.635090182,-0.177953429,-0.631763665,-0.407147435
271,683921,1532700,0.932,0.402,0.181,-38.9,-16.1,-2.6,-9,-35.7,5,0.634693442,-0.178624836,-0.631672109,-0.40766625
272,686117,1532710,0.948,0.397,0.189,-37,-17.4,-1.7,-8.8,-37.2,2.9,0.634296701,-0.179265725,-0.631580554,-0.408124027
273,688349,1532710,0.948,0.405,0.197,-34.8,-18.8,-0.6,-8.8,-37.2,2.9,0.63389996,-0.179906613,-0.631519517,-0.408551286
274,690495,1532710,0.956,0.397,0.204,-32.2,-20.2,0.5,-8.8,-37.2,2.9,0.63350322,-0.180547502,-0.631519517,-0.408917508
275,692731,1532710,0.959,0.397,0.212,-29.4,-21.6,2.1,-8.8,-37.2,2.9,0.633106479,-0.181157872,-0.631550035,-0.409192175
276,695257,1532720,0.983,0.4,0.22,-26.9,-22.7,3.8,-8.7,-36.9,2.6,0.632709738,-0.181798761,-0.631611072,-0.409436323
277,698088,1532720,0.991,0.396,0.231,-24.5,-23.5,5.4,-8.7,-36.9,2.6,0.632343516,-0.18243965,-0.631702628,-0.409588916
278,701075,1532720,0.991,0.4,0.227,-22.6,-23.8,6.7,-8.7,-36.9,2.6,0.631977294,-0.18305002,-0.631794183,-0.40971099
279,702759,1532720,1.006,0.408,0.235,-21.2,-23.5,7.4,-8.7,-36.9,2.6,0.631641591,-0.18366039,-0.631885739,-0.409802545
280,705008,1532730,1.006,0.412,0.239,-20.2,-22.7,7.7,-8.8,-36.8,2.7,0.631305887,-0.184240242,-0.632007813,-0.409894101
281,707375,1532730,1.002,0.416,0.235,-19.9,-21.5,7.4,-8.8,-36.8,2.7,0.631000702,-0.184789575,-0.632099368,-0.409985656
282,709753,1532730,0.998,0.416,0.227,-20.4,-20.1,6.7,-8.8,-36.8,2.7,0.630695517,-0.185369427,-0.632160405,-0.410077212
283,712935,1532730,0.979,0.42,0.2,-21.6,-18.5,5.5,-8.8,-36.8,2.7,0.63042085,-0.18591876,-0.632190924,-0.410229804
284,715196,1532740,0.967,0.417,0.181,-23.3,-16.7,4.1,-8.7,-37,2.6,0.630115665,-0.186437574,-0.632190924,-0.410443434
285,718430,1532740,0.944,0.418,0.154,-25.1,-14.8,2.6,-8.7,-37,2.6,0.629840999,-0.186956389,-0.632160405,-0.410687582
286,719901,1532740,0.917,0.41,0.131,-26.9,-12.9,0.8,-8.7,-37,2.6,0.629566332,-0.187444685,-0.632099368,-0.410992767
287,722837,1532740,0.901,0.403,0.123,-28.2,-10.9,-1.1,-8.7,-37,2.6,0.629291665,-0.187902463,-0.632007813,-0.411358989
288,725262,1532750,0.901,0.403,0.123,-28.2,-10.9,-1.1,-8.7,-37,2.6,0.629291665,-0.187902463,-0.632007813,-0.411358989
289,728387,1532750,0.866,0.392,0.104,-28.6,-6.5,-5.4,-8.7,-36.2,4.5,0.628620258,-0.188329722,-0.631794183,-0.412518693
290,730036,1532750,0.851,0.369,0.096,-28,-4.3,-7.3,-8.7,-36.2,4.5,0.62837611,-0.188634907,-0.631641591,-0.41297647
291,732916,1532750,0.851,0.357,0.085,-27.3,-2.5,-9.1,-8.7,-36.2,4.5,0.628131962,-0.188909574,-0.63145848,-0.413464766
292,735217,1532760,0.851,0.337,0.084,-26.9,-1.4,-10.5,-8.9,-37,2.2,0.627918332,-0.189153722,-0.631275369,-0.413983581
293,738364,1532760,0.858,0.306,0.096,-27,-1.1,-11.2,-8.9,-37,2.2,0.627674184,-0.189367351,-0.631092257,-0.414502396
294,739994,1532760,0.866,0.286,0.095,-27.9,-1.5,-11.2,-8.9,-37,2.2,0.627460555,-0.189611499,-0.630909146,-0.41502121
295,743012,1532760,0.882,0.266,0.102,-29.5,-2.5,-10.9,-8.9,-37,2.2,0.627185888,-0.189886166,-0.630726035,-0.415570544
296,745262,1532770,0.894,0.25,0.106,-31.9,-3.9,-10.4,-8.5,-37.2,1.9,0.626911222,-0.19022187,-0.630512406,-0.416150395
297,748497,1532770,0.921,0.206,0.125,-34.6,-5.5,-9.6,-8.5,-37.2,1.9,0.626606037,-0.19061861,-0.630329295,-0.416730247
298,750035,1532770,0.937,0.187,0.128,-37.4,-7,-8.7,-8.5,-37.2,1.9,0.626270333,-0.191076388,-0.630115665,-0.417340617
299,753011,1532770,0.956,0.175,0.127,-39.9,-8.5,-7.6,-8.5,-37.2,1.9,0.625904111,-0.191595202,-0.629871517,-0.417950987
300,755315,1532780,0.968,0.159,0.127,-41.8,-9.6,-6.8,-8.5,-37,1.9,0.625537889,-0.192144536,-0.629688406,-0.418591876
301,758619,1532780,0.999,0.127,0.126,-42.8,-10.6,-6,-8.5,-37,1.9,0.625171667,-0.192754906,-0.629474776,-0.419202246
302,760047,1532780,1.007,0.119,0.126,-42.7,-11.3,-5.4,-8.5,-37,1.9,0.624774926,-0.193365276,-0.629261147,-0.419812616
303,763418,1532780,1.015,0.111,0.126,-41.5,-12.1,-4.7,-8.5,-37,1.9,0.624378185,-0.193975646,-0.629047517,-0.420392468
304,765302,1532790,1.034,0.099,0.113,-39.3,-12.6,-4,-8.6,-36.8,1.7,0.624011963,-0.194555498,-0.628864406,-0.420941801
305,768632,1532790,1.038,0.095,0.098,-36.1,-13,-3.5,-8.6,-36.8,1.7,0.623645741,-0.19513535,-0.628742332,-0.421430097
306,770062,1532790,1.035,0.096,0.086,-32.3,-13.2,-3.4,-8.6,-36.8,1.7,0.623310038,-0.195654164,-0.628620258,-0.421887875
307,773343,1532790,1.031,0.096,0.07,-28.1,-13,-3.5,-8.6,-36.8,1.7,0.622974334,-0.196111942,-0.628559221,-0.422254097
308,775384,1532800,1.031,0.096,0.07,-28.1,-13,-3.5,-8.6,-36.8,1.7,0.622974334,-0.196111942,-0.628559221,-0.422254097
309,778786,1532800,1.023,0.089,0.023,-20.7,-11.3,-4.7,-8.3,-36.7,3.6,0.622486038,-0.197119053,-0.628528703,-0.422559282
310,780301,1532800,1.019,0.085,0.004,-17.8,-9.9,-5.8,-8.3,-36.7,3.6,0.622211371,-0.197363201,-0.628528703,-0.422833949
311,782539,1532800,1.019,0.062,-0.015,-15.7,-8.4,-7.3,-8.3,-36.7,3.6,0.621967223,-0.197546312,-0.628528703,-0.423139134
312,785934,1532810,1.023,0.054,-0.023,-14.2,-7,-9,-8.2,-37.1,1.9,0.621723075,-0.197698904,-0.628528703,-0.4234138
313,787337,1532810,1.023,0.039,-0.039,-13.1,-5.8,-10.8,-8.2,-37.1,1.9,0.621478927,-0.197759941,-0.628528703,-0.423718986
314,790753,1532810,1.023,0.023,-0.043,-12.6,-4.8,-12.7,-8.2,-37.1,1.9,0.621265297,-0.197820978,-0.628528703,-0.424054689
315,792172,1532810,1.043,-0.023,-0.052,-12.7,-4.2,-14.5,-8.2,-37.1,1.9,0.620990631,-0.197820978,-0.628528703,-0.424390393
316,795132,1532820,1.055,-0.047,-0.052,-13.4,-4.4,-15.9,-8.3,-37.2,1.9,0.620746483,-0.197820978,-0.628528703,-0.424787133
317,797222,1532820,1.055,-0.074,-0.056,-15,-5.1,-17.1,-8.3,-37.2,1.9,0.620441298,-0.197851497,-0.628528703,-0.425183874
318,799982,1532820,1.074,-0.133,-0.046,-17.4,-6.3,-17.8,-8.3,-37.2,1.9,0.620105594,-0.197882015,-0.628528703,-0.425641652
319,803124,1532820,1.086,-0.165,-0.039,-20.8,-7.7,-18,-8.3,-37.2,1.9,0.619739372,-0.198004089,-0.628528703,-0.426129948
320,805879,1532830,1.098,-0.189,-0.031,-24.8,-9.3,-17.8,-8.1,-37,1.6,0.619342631,-0.198187201,-0.628498184,-0.426679281
321,807248,1532830,1.106,-0.224,-0.028,-29.3,-11.2,-17,-8.1,-37,1.6,0.618915372,-0.198431349,-0.628467666,-0.427259133
322,810430,1532830,1.113,-0.28,-0.013,-33.8,-13.4,-15.7,-8.1,-37,1.6,0.618427076,-0.198797571,-0.62837611,-0.427900021
323,813548,1532830,1.113,-0.295,-0.001,-37.9,-15.6,-13.8,-8.1,-37,1.6,0.617908261,-0.199285867,-0.628315073,-0.42854091
324,815728,1532840,1.11,-0.315,0.005,-40.8,-17.8,-11.2,-7.3,-36.9,1.3,0.617389447,-0.1998352,-0.628223518,-0.42915128
325,818405,1532840,1.098,-0.343,0.013,-42.1,-19.8,-8,-7.3,-36.9,1.3,0.616870632,-0.200476089,-0.628131962,-0.42976165
326,819870,1532840,1.09,-0.35,0.009,-41,-21.5,-4.3,-7.3,-36.9,1.3,0.616351817,-0.201178014,-0.628040407,-0.430280465
327,822741,1532840,1.082,-0.346,0.021,-37.4,-22.6,0,-7.3,-36.9,1.3,0.615863521,-0.201910459,-0.628009888,-0.430707724
328,826195,1532850,1.059,-0.33,0.022,-22.3,-23.2,9.9,-7.9,-37.3,2.6,0.615558336,-0.202551347,-0.628040407,-0.430768761
329,828331,1532850,1.055,-0.315,0.01,-22.3,-23.2,9.9,-7.9,-37.3,2.6,0.615222633,-0.203192236,-0.628101444,-0.430829798
330,830361,1532850,1.047,-0.299,0,-11.3,-22.7,15.3,-7.9,-37.3,2.6,0.615009003,-0.203772088,-0.628254036,-0.430677206
331,832613,1532850,1.031,-0.286,-0.012,1.1,-21.8,20.6,-7.9,-37.3,2.6,0.614917447,-0.204260384,-0.628467666,-0.430310984
332,836599,1532860,1.02,-0.251,-0.038,14.1,-20.5,25.4,-8.1,-37.3,1.6,0.614917447,-0.204596088,-0.628742332,-0.429670095
333,838912,1532860,1.012,-0.235,-0.058,26.8,-18.8,29.5,-8.1,-37.3,1.6,0.61507004,-0.204840236,-0.629139073,-0.428815577
334,841139,1532860,1.004,-0.226,-0.081,38.4,-16.8,32.4,-8.1,-37.3,1.6,0.615314188,-0.204901273,-0.629566332,-0.427777947
335,843595,1532860,1.008,-0.21,-0.1,48.3,-14.3,34,-8.1,-37.3,1.6,0.615649892,-0.204870754,-0.630054628,-0.426587725
336,845684,1532870,1.001,-0.198,-0.147,56.6,-11.5,34.6,-8.4,-37,1.9,0.616046632,-0.204687643,-0.630573443,-0.425305948
337,847572,1532870,1.001,-0.194,-0.159,63.1,-8.3,34.2,-8.4,-37,1.9,0.616534928,-0.204382458,-0.631122776,-0.423932615
338,851681,1532870,1.001,-0.193,-0.178,68,-5.1,32.7,-8.4,-37,1.9,0.617084262,-0.203985717,-0.631672109,-0.422528764
339,853789,1532870,1.009,-0.193,-0.194,71.4,-2,30.6,-8.4,-37,1.9,0.617633595,-0.203436384,-0.632221442,-0.421124912
340,855511,1532880,1.013,-0.197,-0.225,73.6,0.6,28.2,-8.5,-37.2,2.1,0.618243965,-0.202856532,-0.632770775,-0.419721061
341,857850,1532880,1.017,-0.216,-0.241,74.8,2.8,25.7,-8.5,-37.2,2.1,0.618854335,-0.202154607,-0.63328959,-0.418378246
342,859804,1532880,1.021,-0.224,-0.246,75.5,4.1,23.4,-8.5,-37.2,2.1,0.619464705,-0.201391644,-0.633838923,-0.417035432
343,863051,1532880,1.04,-0.244,-0.258,76.1,4.8,21.7,-8.5,-37.2,2.1,0.620044557,-0.2006592,-0.634357738,-0.415692618
344,865368,1532890,1.052,-0.252,-0.258,76.9,4.8,21,-8.7,-37,2.7,0.620654927,-0.199865719,-0.634907071,-0.414380322
345,867550,1532890,1.064,-0.267,-0.266,78,4,21.2,-8.7,-37,2.7,0.621234779,-0.199072237,-0.635456404,-0.413006989
346,869939,1532890,1.079,-0.279,-0.263,79.6,2.5,22.3,-8.7,-37,2.7,0.621814631,-0.198278756,-0.636036256,-0.411603137
347,872560,1532890,1.111,-0.292,-0.264,81.4,0.6,24.2,-8.7,-37,2.7,0.622394482,-0.197485275,-0.636646626,-0.410168767
348,876864,1532900,1.126,-0.304,-0.252,86.2,-3.7,30.2,-8.7,-36.9,3.9,0.622974334,-0.196783349,-0.637348552,-0.408520768
349,877237,1532900,1.138,-0.312,-0.249,86.2,-3.7,30.2,-8.7,-36.9,3.9,0.623554186,-0.196050905,-0.638050478,-0.406903287
350,880470,1532900,1.173,-0.32,-0.245,89.4,-5.5,33.9,-8.7,-36.9,3.9,0.624164556,-0.195348979,-0.638752403,-0.405163732
351,882919,1532900,1.181,-0.32,-0.242,93.3,-6.8,38,-8.7,-36.9,3.9,0.624805445,-0.194677572,-0.639515366,-0.403332621
352,885128,1532910,1.193,-0.32,-0.238,98.1,-7.4,42.1,-8.6,-36.3,4,0.62550737,-0.194006165,-0.640308847,-0.401348918
353,888741,1532910,1.196,-0.313,-0.234,103.9,-7.1,46.4,-8.6,-36.3,4,0.626239814,-0.193273721,-0.641102329,-0.399243141
354,890976,1532910,1.2,-0.289,-0.234,111,-5.8,50.9,-8.6,-36.3,4,0.627063814,-0.192541276,-0.641926328,-0.396954253
355,892982,1532910,1.204,-0.27,-0.238,119.6,-3.8,55.2,-8.6,-36.3,4,0.627979369,-0.191717277,-0.642780847,-0.394512772
356,896235,1532920,1.193,-0.242,-0.237,129.6,-1.1,59.3,-9.1,-36.3,4.4,0.629016999,-0.190771203,-0.643665883,-0.391857662
357,898084,1532920,1.177,-0.187,-0.244,141,2.1,63.1,-9.1,-36.3,4.4,0.630176702,-0.189672536,-0.644581439,-0.38901944
358,900371,1532920,1.173,-0.155,-0.247,153.6,5.8,66.6,-9.1,-36.3,4.4,0.63145848,-0.188482315,-0.645496994,-0.385967589
359,902678,1532920,1.165,-0.12,-0.255,167.3,9.8,69.8,-9.1,-36.3,4.4,0.632862331,-0.187078463,-0.646504105,-0.382702109
360,905313,1532930,1.161,-0.084,-0.27,181.5,13.8,72.7,-9.4,-35.9,5.3,0.634418775,-0.185460982,-0.647541734,-0.379161962
361,907910,1532930,1.142,-0.017,-0.292,195.9,17.6,75.3,-9.4,-35.9,5.3,0.636066774,-0.18366039,-0.648609882,-0.375438704
362,910108,1532930,1.142,0.022,-0.303,210,21.1,77.8,-9.4,-35.9,5.3,0.637836848,-0.181676687,-0.649708548,-0.371471297
363,912611,1532930,1.138,0.049,-0.319,223.3,24.3,79.9,-9.4,-35.9,5.3,0.639698477,-0.179509873,-0.650837733,-0.367259743
364,915008,1532940,1.138,0.113,-0.353,235.3,27.2,81.6,-9.8,-35.4,6.6,0.641651662,-0.177159948,-0.652027955,-0.362895596
365,919393,1532940,1.142,0.136,-0.365,245.6,30,82.6,-9.8,-35.4,6.6,0.643696402,-0.17465743,-0.653218177,-0.358348338
366,919787,1532940,1.138,0.156,-0.384,253.9,32.7,83.1,-9.8,-35.4,6.6,0.645741142,-0.172002319,-0.654408399,-0.353679006
367,922420,1532940,1.142,0.176,-0.395,260,35.2,83.1,-9.8,-35.4,6.6,0.647877438,-0.169255654,-0.655598621,-0.348918119
368,926670,1532950,1.154,0.208,-0.419,266.4,39.7,81.5,-10.7,-34.9,8,0.650013733,-0.166356395,-0.656758324,-0.344096194
369,929340,1532950,1.15,0.212,-0.426,266.4,39.7,81.5,-10.7,-34.9,8,0.652150029,-0.163457137,-0.657887509,-0.33927427
370,929791,1532950,1.15,0.216,-0.434,267.1,41.4,79.9,-10.7,-34.9,8,0.654286325,-0.160496841,-0.658986175,-0.334421827
371,932306,1532950,1.15,0.212,-0.438,266.2,42.6,78.1,-10.7,-34.9,8,0.656392102,-0.157506027,-0.660023804,-0.329630421
372,936728,1532960,1.154,0.204,-0.45,263.8,43.2,76.4,-11,-34.2,8.9,0.65846736,-0.154515213,-0.661030915,-0.324869533
373,939002,1532960,1.146,0.189,-0.45,260,43.1,75.2,-11,-34.2,8.9,0.660481582,-0.151554918,-0.661976989,-0.320200201
374,941137,1532960,1.138,0.173,-0.458,255.1,42.5,74.4,-11,-34.2,8.9,0.662434767,-0.14865566,-0.662892544,-0.315561388
375,943433,1532960,1.127,0.134,-0.462,249.2,42,74.2,-11,-34.2,8.9,0.664357433,-0.145817438,-0.663747063,-0.31101413
376,944929,1532970,1.131,0.118,-0.459,242.5,41.4,74.4,-11.6,-33.9,10.4,0.666219062,-0.143101291,-0.664540544,-0.306558428
377,947856,1532970,1.138,0.091,-0.459,235.3,41,75,-11.6,-33.9,10.4,0.668050172,-0.140507218,-0.665272988,-0.302163762
378,951380,1532970,1.135,0.071,-0.463,227.8,40.7,75.9,-11.6,-33.9,10.4,0.669850764,-0.1380047,-0.665944395,-0.297891171
379,953738,1532970,1.142,0.024,-0.464,220.1,40.3,77.1,-11.6,-33.9,10.4,0.67159032,-0.135654775,-0.666554765,-0.293679617
380,956015,1532980,1.15,0.004,-0.468,212.5,40.2,78.8,-11.9,-32.9,11.6,0.673299356,-0.133426923,-0.66707358,-0.289529099
381,958114,1532980,1.158,-0.01,-0.472,205.3,40.3,81.3,-11.9,-32.9,11.6,0.674977874,-0.131321146,-0.667531358,-0.285470138
382,960281,1532980,1.174,-0.046,-0.477,198.9,40.7,84.6,-11.9,-32.9,11.6,0.676656392,-0.129367962,-0.667928098,-0.281441694
383,963495,1532980,1.186,-0.058,-0.473,193.9,41.1,88.4,-11.9,-32.9,11.6,0.67833491,-0.127536851,-0.668263802,-0.277413251
384,966344,1532990,1.201,-0.07,-0.47,190.5,41.3,92.6,-12.8,-32.1,12.3,0.680043947,-0.125827815,-0.668538469,-0.273384808
385,969139,1532990,1.217,-0.082,-0.466,188.9,41.3,97.1,-12.8,-32.1,12.3,0.681722465,-0.124179815,-0.668782617,-0.269295328
386,970079,1532990,1.252,-0.094,-0.467,189.2,40.8,101.7,-12.8,-32.1,12.3,0.683431501,-0.122623371,-0.668996246,-0.26514481
387,972502,1532990,1.268,-0.098,-0.471,191.2,39.9,106.6,-12.8,-32.1,12.3,0.685140538,-0.121097446,-0.669209876,-0.2608417
388,974777,1533000,1.299,-0.102,-0.472,199.8,37.6,116.7,-13.1,-31.3,13.3,0.686849574,-0.119602039,-0.669454024,-0.256294443
389,978368,1533000,1.318,-0.103,-0.472,199.8,37.6,116.7,-13.1,-31.3,13.3,0.688589129,-0.118076113,-0.669698172,-0.251716666
390,979839,1533000,1.342,-0.083,-0.469,206.1,36.5,121.8,-13.1,-31.3,13.3,0.690298166,-0.116580706,-0.669972839,-0.246955779
391,983675,1533000,1.357,-0.068,-0.481,213.4,35.6,126.4,-13.1,-31.3,13.3,0.692037721,-0.115024262,-0.670247505,-0.24201178
392,985877,1533010,1.369,-0.06,-0.492,221.6,34.6,130.4,-13.5,-30.5,14.2,0.693777276,-0.113376263,-0.67055269,-0.236884671
393,987197,1533010,1.385,-0.02,-0.512,230.3,33.8,133.6,-13.5,-30.5,14.2,0.695516831,-0.111667226,-0.670888394,-0.23157445
394,990199,1533010,1.393,0.002,-0.516,239.3,32.9,136.1,-13.5,-30.5,14.2,0.697256386,-0.109866634,-0.671254616,-0.226081118
395,993402,1533010,1.412,0.033,-0.519,248.2,32.1,138,-13.5,-30.5,14.2,0.698995941,-0.107943968,-0.671651357,-0.220435194
396,994747,1533020,1.42,0.085,-0.542,256.9,31.4,139.2,-14.4,-29.3,15.8,0.700704978,-0.105929746,-0.672048097,-0.214606159
397,997755,1533020,1.42,0.116,-0.562,265.3,30.6,139.6,-14.4,-29.3,15.8,0.702414014,-0.103762932,-0.672505875,-0.208655049
398,1000845,1533020,1.42,0.132,-0.573,280.5,28.9,138.7,-14.4,-29.3,15.8,0.704092532,-0.101382488,-0.672994171,-0.202459792
399,1002949,1533020,1.42,0.16,-0.577,287.3,28,137.5,-14.4,-29.3,15.8,0.705740532,-0.0988494522,-0.673512986,-0.196203497
400,1005218,1533030,1.416,0.222,-0.58,294.1,26.9,135.7,-14.9,-28.3,16,0.707327494,-0.0961943419,-0.674062319,-0.189825129
401,1008438,1533030,1.408,0.258,-0.575,301,26,133.6,-14.9,-28.3,16,0.708883938,-0.0934171575,-0.674611652,-0.183385723
402,1010518,1533030,1.397,0.289,-0.579,307.5,25.1,131.4,-14.9,-28.3,16,0.710379345,-0.0904873806,-0.675160985,-0.176885281
403,1012798,1533030,1.353,0.345,-0.573,313.1,24.4,129.4,-14.9,-28.3,16,0.711844234,-0.0874355296,-0.675710318,-0.170293283
404,1015918,1533040,1.326,0.369,-0.573,317.9,24.1,127.6,-15.1,-26.7,17.9,0.713248085,-0.0842921232,-0.676259651,-0.163670766
405,1017419,1533040,1.314,0.392,-0.564,321.7,24.1,125.8,-15.1,-26.7,17.9,0.714621418,-0.0810571612,-0.676747948,-0.157017731
406,1020510,1533040,1.295,0.412,-0.556,324.7,24.5,123.6,-15.1,-26.7,17.9,0.715964232,-0.0777306436,-0.677266762,-0.150334178
407,1022262,1533040,1.267,0.459,-0.523,327,25.6,120.7,-15.1,-26.7,17.9,0.717276528,-0.0743125706,-0.67772454,-0.143650624
408,1025544,1533050,1.244,0.471,-0.511,328.3,27.6,117.3,-16.2,-25.2,17.9,0.718558306,-0.0708334605,-0.678090762,-0.136997589
409,1027507,1533050,1.228,0.49,-0.491,328.4,30.7,113.3,-16.2,-25.2,17.9,0.719840083,-0.0672627949,-0.678395947,-0.130405591
410,1030889,1533050,1.193,0.502,-0.459,327.1,34.8,109.3,-16.2,-25.2,17.9,0.721152379,-0.0636310923,-0.678609577,-0.123905148
411,1033881,1533050,1.169,0.506,-0.443,324.5,39.8,105.2,-16.2,-25.2,17.9,0.722434156,-0.0599688711,-0.678701132,-0.117496261
412,1035939,1533060,1.142,0.514,-0.415,321.1,45.5,101,-16.5,-24.2,19.5,0.723776971,-0.05630665,-0.678640095,-0.11117893
413,1039010,1533060,1.11,0.514,-0.391,316.9,51.8,96.8,-16.5,-24.2,19.5,0.725150304,-0.0525833918,-0.678456984,-0.10504471
414,1040460,1533060,1.083,0.506,-0.363,312.1,58.2,92.4,-16.5,-24.2,19.5,0.726554155,-0.0488601337,-0.678121281,-0.0990020447
415,1043386,1533060,1.063,0.498,-0.343,306.8,64.4,87.8,-16.5,-24.2,19.5,0.728019044,-0.0451979125,-0.677663503,-0.0931424909
416,1044887,1533070,1.032,0.494,-0.323,301.8,70.2,83.3,-17.1,-22.2,21.3,0.729514451,-0.0414746544,-0.677053133,-0.0874355296
417,1047881,1533070,1.001,0.486,-0.303,297.4,75.4,79,-17.1,-22.2,21.3,0.731009857,-0.0377819147,-0.676351207,-0.0818506424
418,1051092,1533070,1.016,0.474,-0.268,294,79.7,75.4,-17.1,-22.2,21.3,0.732566301,-0.0340586566,-0.675527207,-0.0763573107
419,1053458,1533070,1.008,0.466,-0.26,291.8,82.7,72.5,-17.1,-22.2,21.3,0.734092227,-0.0302743614,-0.674611652,-0.0709555345
420,1055500,1533080,1.02,0.454,-0.253,290.8,84.3,70.8,-17.6,-21.6,21.1,0.735618152,-0.0265816218,-0.67363506,-0.0655842769
421,1057701,1533080,1.035,0.449,-0.214,290.9,84.9,70.6,-17.6,-21.6,21.1,0.737113559,-0.0228278451,-0.672658467,-0.0602435377
422,1061024,1533080,1.067,0.445,-0.199,291.9,85.2,71.7,-17.6,-21.6,21.1,0.738608966,-0.0190435499,-0.671620838,-0.0548417615
423,1063018,1533080,1.11,0.456,-0.188,293.6,85.3,74.2,-17.6,-21.6,21.1,0.740043336,-0.0153202918,-0.67055269,-0.0493484298
424,1065258,1533090,1.098,0.452,-0.164,295.3,85.6,77.8,-18.1,-19.9,22.3,0.741447188,-0.0115970336,-0.669423505,-0.0438245796
425,1067526,1533090,1.277,0.485,-0.179,296.3,86.4,81.8,-18.1,-19.9,22.3,0.742851039,-0.00790429395,-0.668294321,-0.0381786554
426,1071612,1533090,1.332,0.477,-0.211,296.4,88.9,85.7,-18.1,-19.9,22.3,0.744254891,-0.00427259133,-0.667043062,-0.0325022126
427,1073830,1533090,1.512,0.526,-0.229,295.8,95.2,88.7,-18.1,-19.9,22.3,0.745719779,-0.000701925718,-0.665700247,-0.0267342143
428,1076231,1533100,1.422,0.484,-0.213,294.9,107.7,92.6,-18.5,-17.8,21.6,0.74733726,0.00277718436,-0.664082766,-0.020966216
429,1078210,1533100,1.316,0.48,-0.16,293.9,127.2,98.5,-18.5,-17.8,21.6,0.749168371,0.00619525742,-0.662129582,-0.0151066622
430,1080535,1533100,1.191,0.442,-0.103,292.2,150.9,105.5,-18.5,-17.8,21.6,0.751335185,0.00949125645,-0.659779656,-0.00912503433
431,1082750,1533100,1.242,0.449,-0.096,288.8,172.8,109.8,-18.5,-17.8,21.6,0.753746147,0.0126956999,-0.657002472,-0.00314340648
432,1086824,1533110,1.324,0.436,-0.11,282.4,187.7,108.7,-19,-16.6,23,0.75634022,0.0157475509,-0.653920103,0.00271614734
433,1089027,1533110,1.375,0.401,-0.111,273.4,194.9,103,-19,-16.6,23,0.759025849,0.0187994018,-0.650715659,0.00839259011
434,1090561,1533110,1.379,0.412,-0.107,263.4,197.4,96.4,-19,-16.6,23,0.76168096,0.0217902158,-0.64741966,0.0138248848
435,1093106,1533110,1.16,0.32,-0.046,253.9,198.6,92.5,-19,-16.6,23,0.764305551,0.0246284371,-0.644062624,0.0190435499
436,1095194,1533120,1.265,0.338,-0.036,245.5,200.1,91.9,-20.1,-15.4,23.3,0.766930143,0.0273445845,-0.640675069,0.024140141
437,1099235,1533120,1.23,0.292,-0.055,237.9,201,92.8,-20.1,-15.4,23.3,0.769524216,0.0299081393,-0.637226478,0.029114658
438,1101080,1533120,1.16,0.257,-0.039,231.1,200.1,93.5,-20.1,-15.4,23.3,0.772087771,0.0323801386,-0.633747368,0.0340281381
439,1103228,1533120,1.035,0.192,-0.033,225.1,197.3,93.5,-20.1,-15.4,23.3,0.774559771,0.0346995453,-0.630298776,0.0388500626
440,1105403,1533130,0.972,0.192,-0.02,220.2,193.1,92.9,-20.8,-14,22.8,0.776970733,0.037018952,-0.626911222,0.04361095
441,1107710,1533130,1.218,0.252,0.006,216.7,186.9,91,-20.8,-14,22.8,0.779229102,0.0392468032,-0.623615223,0.048280282
442,1110076,1533130,0.925,0.081,0.076,214.2,178.9,88.4,-20.8,-14,22.8,0.781365398,0.0415051729,-0.620380261,0.0528275399
443,1113577,1533130,1.007,0.072,0.11,212.3,169.6,84.8,-20.8,-14,22.8,0.78337962,0.0437940611,-0.61732841,0.0573137608
444,1115618,1533140,1.093,0.079,0.136,210.4,160.4,81.1,-21.3,-12.6,22.6,0.78521073,0.0460829493,-0.614368114,0.0616779077
445,1117820,1533140,1.108,0.039,0.17,208.3,153,77.9,-21.3,-12.6,22.6,0.786950285,0.0483718375,-0.611560411,0.0659810175
446,1120184,1533140,0.745,-0.138,0.249,206,148.7,77.1,-21.3,-12.6,22.6,0.788567766,0.0506912442,-0.608783227,0.0701925718
447,1122316,1533140,0.831,-0.104,0.263,205.2,146.7,78.4,-21.3,-12.6,22.6,0.790154729,0.0529496139,-0.606006043,0.0744346446
448,1126623,1533150,0.803,-0.065,0.307,208.7,144.6,79.3,-21.8,-11.3,20.2,0.791711173,0.0552690207,-0.603259377,0.0787072359
449,1129051,1533150,0.737,-0.057,0.383,218.7,139.9,78.8,-21.8,-11.3,20.2,0.793115024,0.0577715384,-0.600543229,0.0831019013
450,1130921,1533150,0.607,-0.037,0.46,236,132,78.6,-21.8,-11.3,20.2,0.794396802,0.0605792413,-0.597918638,0.0877712333
451,1133643,1533150,0.58,0.005,0.523,260.5,121.6,80.8,-21.8,-11.3,20.2,0.795464949,0.0638142033,-0.59541612,0.0927152318
452,1136039,1533160,0.657,0.05,0.597,292.4,109.3,85.6,-22.5,-10.2,21.8,0.796288949,0.06756798,-0.593035676,0.0981475265
453,1137952,1533160,0.504,0.147,0.804,331.9,96.7,93,-22.5,-10.2,21.8,0.796838282,0.0718710898,-0.590746788,0.10422071
454,1140112,1533160,0.371,0.217,0.921,378.6,85.6,103,-22.5,-10.2,21.8,0.79708243,0.0769676809,-0.588549455,0.110995819
455,1143878,1533160,0.378,0.29,1.012,431.5,77.4,114.7,-22.5,-10.2,21.8,0.797021393,0.0827967162,-0.586321604,0.118655965
456,1146114,1533170,0.393,0.414,1.131,489.1,73,126.6,-22.6,-8.8,22,0.79668569,0.0895107883,-0.583971679,0.127262185
457,1147900,1533170,0.153,0.688,1.377,548,73.9,137.7,-22.6,-8.8,22,0.796136357,0.0970488601,-0.581377606,0.136753441
458,1150131,1533170,0.243,0.843,1.405,603.1,81.5,147.8,-22.6,-8.8,22,0.795373394,0.105410932,-0.57841731,0.147129734
459,1152804,1533170,0.223,0.992,1.438,648.8,96.8,156.1,-22.6,-8.8,22,0.794518876,0.114352855,-0.574968719,0.158238472
460,1155415,1533180,0.074,1.351,1.445,680.9,119.3,161.7,-22.8,-5.9,21.7,0.793664357,0.123722037,-0.570879238,0.169866024
461,1157596,1533180,-0.05,1.584,1.431,696.3,146.9,163.2,-22.8,-5.9,21.7,0.792901395,0.133182775,-0.566118351,0.181737724
462,1160166,1533180,-0.222,1.823,1.343,692.6,174,160,-22.8,-5.9,21.7,0.792291025,0.142490921,-0.560747093,0.193548387
463,1162601,1533180,-0.077,2.086,1.214,668.8,192.5,151.1,-22.8,-5.9,21.7,0.791833247,0.151371807,-0.555009613,0.204931791
464,1164977,1533190,-0.17,2.647,1.062,626.4,198.4,138.1,-23,-2.8,21.6,0.791467025,0.159611805,-0.549180578,0.215521714
465,1168737,1533190,-0.303,2.866,0.946,567.6,193.3,124.4,-23,-2.8,21.6,0.79116184,0.166997284,-0.543534654,0.225135044
466,1171077,1533190,-0.471,2.998,0.911,493.3,182.3,112.7,-23,-2.8,21.6,0.790917692,0.173253578,-0.538346507,0.233588672
467,1172776,1533190,-0.4,2.821,0.865,402.5,168.1,102.4,-23,-2.8,21.6,0.790795618,0.17813654,-0.533768731,0.240699484
468,1176111,1533200,-0.38,2.562,0.857,295.9,150,90.6,-23.4,-0.3,18.1,0.790917692,0.18140202,-0.529953917,0.246284371
469,1178407,1533200,-0.29,2.322,0.853,177,125.9,76.6,-23.4,-0.3,18.1,0.791253395,0.182897427,-0.527115696,0.250160222
470,1180482,1533200,-0.048,2.048,0.861,53.1,94.5,61,-23.4,-0.3,18.1,0.79177221,0.182592242,-0.525437178,0.252204962
471,1182678,1533200,-0.004,1.33,0.793,-67,57.2,46.3,-23.4,-0.3,18.1,0.792443617,0.180578021,-0.525009919,0.252418592
472,1185255,1533210,0.113,1.059,0.74,-173.9,17.6,33.7,-23.8,0.3,19.7,0.793145543,0.17709891,-0.525772881,0.251106296
473,1187786,1533210,0.234,0.897,0.705,-259.6,-19.6,24.8,-23.8,0.3,19.7,0.793786431,0.172429579,-0.52763451,0.248481704
474,1190170,1533210,0.22,0.366,0.507,-320.4,-51.3,20.8,-23.8,0.3,19.7,0.794244209,0.166905728,-0.530320139,0.244941557
475,1193512,1533210,0.353,0.268,0.405,-355.8,-76.3,21.4,-23.8,0.3,19.7,0.794518876,0.160893582,-0.533616138,0.240913114
476,1195970,1533220,0.467,0.158,0.312,-367.5,-95.7,24.3,-24,0,20.3,0.794549394,0.154728843,-0.537278359,0.236732078
477,1197427,1533220,0.55,0.076,0.247,-358.5,-110,26.8,-24,0,20.3,0.794305246,0.148777734,-0.541093173,0.232612079
478,1200399,1533220,0.593,-0.04,0.151,-333.3,-118.4,28.3,-24,0,20.3,0.79381695,0.143253883,-0.544938505,0.228736229
479,1202618,1533220,0.605,-0.009,0.163,-296.9,-119.7,27.4,-24,0,20.3,0.793176061,0.138370922,-0.548539689,0.225318155
480,1205914,1533230,0.601,0.045,0.191,-254.4,-114.3,22.1,-23.4,-1,20.6,0.792443617,0.134250923,-0.551835688,0.222327342
481,1207963,1533230,0.608,0.27,0.319,-210.5,-104.2,10.9,-23.4,-1,20.6,0.791741691,0.130985443,-0.55467391,0.219672231
482,1210088,1533230,0.58,0.305,0.367,-171,-91.9,-5.1,-23.4,-1,20.6,0.791131321,0.128543962,-0.557084872,0.21723075
483,1213413,1533230,0.529,0.294,0.383,-140.9,-78.8,-23.2,-23.4,-1,20.6,0.790673544,0.126773888,-0.559038057,0.214911344
484,1215481,1533240,0.513,0.274,0.403,-122.3,-66.3,-40.2,-23.4,-1.8,21,0.790398877,0.125461592,-0.560655538,0.2125309
485,1217369,1533240,0.556,0.261,0.421,-113.7,-55.7,-54.4,-23.4,-1.8,21,0.790276803,0.124423963,-0.561967833,0.210058901
486,1221041,1533240,0.584,0.238,0.417,-111.7,-47.6,-66.2,-23.4,-1.8,21,0.790276803,0.123508408,-0.563127537,0.20740379
487,1223151,1533240,0.611,0.225,0.432,-113.1,-42.2,-76.4,-23.4,-1.8,21,0.790429395,0.122714927,-0.564165166,0.204596088
488,1225033,1533250,0.662,0.205,0.458,-115.5,-38.5,-86.1,-22.9,-2.3,19.4,0.790643025,0.121951964,-0.56511124,0.201574755
489,1228436,1533250,0.673,0.208,0.466,-117.6,-35.7,-96.2,-22.9,-2.3,19.4,0.790917692,0.121250038,-0.565996277,0.198370312
490,1230383,1533250,0.689,0.204,0.477,-119.2,-33.6,-106.9,-22.9,-2.3,19.4,0.791283914,0.120670186,-0.566789758,0.194952239
491,1232621,1533250,0.709,0.204,0.469,-120.4,-32.7,-117.9,-22.9,-2.3,19.4,0.791680654,0.12018189,-0.567552721,0.191351054
492,1235895,1533260,0.767,0.219,0.448,-121.7,-33.8,-128.6,-23.1,-3.5,21.6,0.792107913,0.119815668,-0.568315683,0.187536241
493,1237918,1533260,0.763,0.208,0.437,-123.2,-36.9,-138.5,-23.1,-3.5,21.6,0.792535173,0.119541002,-0.569078646,0.183507797
494,1240125,1533260,0.795,0.204,0.412,-124.8,-41.7,-146.9,-23.1,-3.5,21.6,0.792931913,0.119388409,-0.569902646,0.179296243
495,1243438,1533260,0.846,0.215,0.4,-126.3,-47.4,-153.9,-23.1,-3.5,21.6,0.793267617,0.119296854,-0.570818201,0.174932096
496,1245338,1533270,0.857,0.238,0.396,-127.4,-53.6,-159.6,-23.2,-4.3,21.8,0.793542283,0.119235817,-0.571825312,0.170445875
497,1247574,1533270,0.912,0.258,0.376,-128.7,-60.2,-164.3,-23.2,-4.3,21.8,0.793725394,0.119327372,-0.57289346,0.16583758
498,1250553,1533270,0.967,0.253,0.355,-130.7,-67.2,-168.4,-23.2,-4.3,21.8,0.79381695,0.119418928,-0.574083682,0.161107212
499,1252287,1533270,0.998,0.284,0.367,-133.6,-74,-172,-23.2,-4.3,21.8,0.79381695,0.119510483,-0.575395978,0.156254769
500,1255501,1533280,1.014,0.319,0.375,-137.6,-80.1,-174.8,-23.2,-5.5,22,0.793755913,0.119602039,-0.576799829,0.15131077
501,1257878,1533280,1.084,0.331,0.354,-143.3,-85.7,-176.7,-23.2,-5.5,22,0.793633839,0.119602039,-0.578264718,0.146214179
502,1261500,1533280,1.103,0.35,0.346,-151.1,-90.9,-177.2,-23.2,-5.5,22,0.793450728,0.119510483,-0.57985168,0.140995514
503,1263785,1533280,1.186,0.381,0.31,-161.3,-95.9,-176.2,-23.2,-5.5,22,0.793176061,0.119235817,-0.581560717,0.135654775
504,1266096,1533290,1.178,0.401,0.306,-173.3,-100,-173.5,-22.6,-6.5,22.5,0.792870876,0.11874752,-0.58333079,0.130191961
505,1268097,1533290,1.209,0.393,0.278,-186.2,-102.2,-169.1,-22.6,-6.5,22.5,0.792504654,0.117954039,-0.585192419,0.124607074
506,1270245,1533290,1.209,0.382,0.227,-198.6,-102.3,-163.6,-22.6,-6.5,22.5,0.792138432,0.116885891,-0.587054048,0.118991668
507,1273450,1533290,1.217,0.37,0.196,-209.4,-100.2,-157.2,-22.6,-6.5,22.5,0.79177221,0.115543077,-0.588915677,0.113315226
508,1275547,1533300,1.206,0.371,0.157,-217.2,-96.5,-150.7,-22.6,-8.4,20.3,0.791436506,0.113956114,-0.590746788,0.10769982
509,1277822,1533300,1.225,0.363,0.129,-221.6,-91.4,-144.1,-22.6,-8.4,20.3,0.791131321,0.112216559,-0.592455824,0.102114933
510,1281052,1533300,1.218,0.372,0.109,-222,-85.1,-138.1,-22.6,-8.4,20.3,0.790887173,0.11035493,-0.594073305,0.0966521195
511,1282462,1533300,1.202,0.376,0.094,-218.1,-77.1,-132.4,-22.6,-8.4,20.3,0.790673544,0.108462783,-0.595538194,0.0913418989
512,1285538,1533310,1.187,0.372,0.083,-210.5,-67.5,-126.9,-22.4,-9,22.5,0.790520951,0.106631672,-0.596819971,0.0862758263
513,1287869,1533310,1.183,0.361,0.036,-200.2,-56.9,-121.8,-22.4,-9,22.5,0.790490432,0.104861599,-0.597888119,0.0814233833
514,1290092,1533310,1.171,0.37,0.024,-188.1,-46.3,-117.7,-22.4,-9,22.5,0.790490432,0.103213599,-0.598742637,0.0768150884
515,1292727,1533310,1.163,0.381,0.028,-174.9,-36,-115.2,-22.4,-9,22.5,0.790612506,0.101779229,-0.599383526,0.07248146
516,1294750,1533320,1.156,0.393,0.033,-161.5,-26.3,-114.1,-22,-10.2,22.5,0.790795618,0.10052797,-0.599841304,0.0683309427
517,1297367,1533320,1.136,0.39,0.021,-149.2,-17.7,-113.9,-22,-10.2,22.5,0.791070284,0.0994598224,-0.60011597,0.0643635365
518,1301822,1533320,1.128,0.394,0.017,-139,-10.5,-113.9,-22,-10.2,22.5,0.791375469,0.0985747856,-0.600238044,0.0605487228
519,1302232,1533320,1.117,0.402,0.022,-131.6,-4.9,-113.9,-22,-10.2,22.5,0.791741691,0.0977507859,-0.600268563,0.0568559832
520,1304742,1533330,1.109,0.421,0.026,-127.1,-1.1,-113.5,-22,-11.5,22.4,0.792138432,0.0970793786,-0.600177007,0.0532242805
521,1308531,1533330,1.116,0.429,0.018,-125.5,0.7,-112.6,-22,-11.5,22.4,0.792535173,0.0963774529,-0.600085452,0.0496536149
522,1310513,1533330,1.097,0.422,0.022,-127.2,0.7,-110.9,-22,-11.5,22.4,0.792931913,0.0956450087,-0.599963378,0.0460524308
523,1312636,1533330,1.074,0.41,0.015,-131.7,-1,-107.9,-22,-11.5,22.4,0.793298135,0.0947599719,-0.599871822,0.0424512467
524,1315991,1533340,1.07,0.422,0.034,-138.3,-4.4,-103.8,-21.9,-12.6,22.2,0.79360332,0.0937528611,-0.599871822,0.0388500626
525,1318082,1533340,1.05,0.406,0.031,-146.2,-8.9,-98.7,-21.9,-12.6,22.2,0.793877987,0.0925016022,-0.599932859,0.0351878414
526,1320134,1533340,1.027,0.383,0.027,-154.8,-14.4,-93.3,-21.9,-12.6,22.2,0.794061098,0.0910672323,-0.60011597,0.0315256203
527,1324103,1533340,1.015,0.368,0.019,-164.1,-21,-88,-21.9,-12.6,22.2,0.794152654,0.0893887143,-0.600421155,0.0278023621
528,1326473,1533350,0.999,0.356,0.023,-173.6,-28.4,-83.4,-21.7,-14,20.1,0.794183172,0.0874965667,-0.600848415,0.0240485855
529,1328589,1533350,0.988,0.329,0.011,-183.3,-36.3,-79.8,-21.7,-14,20.1,0.794061098,0.085360271,-0.601428266,0.0201422163
530,1330924,1533350,0.992,0.313,0.011,-192.7,-44.5,-77.5,-21.7,-14,20.1,0.793877987,0.0830713828,-0.602130192,0.0162053285
531,1333013,1533350,1.011,0.262,-0.009,-201.8,-52.5,-76.2,-21.7,-14,20.1,0.793572802,0.0805993835,-0.602954192,0.0121463668
532,1334887,1533360,1.011,0.254,-0.005,-210.1,-59.7,-75.9,-21.3,-14.6,21.8,0.793176061,0.0779747917,-0.603900266,0.00796533097
533,1339115,1533360,1.011,0.227,-0.005,-217,-65.6,-76.1,-21.3,-14.6,21.8,0.792657247,0.0752281259,-0.604937895,0.00369273965
534,1341229,1533360,1.004,0.211,0.002,-222.9,-69.7,-76.7,-21.3,-14.6,21.8,0.792107913,0.072359386,-0.606036561,-0.000671407208
535,1343562,1533360,0.996,0.164,0.013,-228,-72.5,-77.5,-21.3,-14.6,21.8,0.791497543,0.0694296091,-0.607165746,-0.0051576281
536,1345513,1533370,1.004,0.117,0.001,-232.8,-74.7,-78.5,-20.9,-15.7,21.6,0.790826136,0.0664693136,-0.608294931,-0.00970488601
537,1347437,1533370,0.992,0.101,0.005,-237.8,-76.7,-79.8,-20.9,-15.7,21.6,0.79012421,0.0634174627,-0.609424116,-0.0143436995
538,1351632,1533370,1.019,0.042,0,-242.3,-78.9,-81.6,-20.9,-15.7,21.6,0.789391766,0.0603045747,-0.610583819,-0.0190435499
539,1354211,1533370,1.015,0.019,0,-245.8,-80.8,-83.7,-20.9,-15.7,21.6,0.788567766,0.0571306497,-0.611774041,-0.0238959929
540,1356268,1533380,1.015,0.007,0.011,-247.5,-82.1,-85.9,-20.6,-16.7,20.8,0.787743767,0.0539872433,-0.612933744,-0.0287789544
541,1358487,1533380,1.015,-0.028,0.01,-247.4,-82.5,-87.8,-20.6,-16.7,20.8,0.78685873,0.0508743553,-0.614093448,-0.0336924345
542,1360559,1533380,1.004,-0.086,0.018,-245.7,-82.3,-89,-20.6,-16.7,20.8,0.785943175,0.0477614673,-0.615192114,-0.0386059145
543,1362870,1533380,1,-0.106,0.025,-242.7,-81.8,-89.5,-20.6,-16.7,20.8,0.784997101,0.0447096164,-0.61629078,-0.043488876
544,1365081,1533390,0.996,-0.126,0.029,-238,-81.1,-89.8,-20.3,-18.3,20.2,0.784051027,0.0417798395,-0.617358928,-0.0483108005
545,1369246,1533390,1.004,-0.177,0.028,-231.2,-79.9,-90.4,-20.3,-18.3,20.2,0.783074435,0.0389721366,-0.618396558,-0.053010651
546,1371380,1533390,1,-0.177,0.036,-221.6,-77.6,-91.3,-20.3,-18.3,20.2,0.782097842,0.0363170263,-0.61937315,-0.0576494644
547,1373616,1533390,0.996,-0.181,0.056,-208.4,-74,-92.3,-20.3,-18.3,20.2,0.781151769,0.0339365825,-0.620288705,-0.0621051668
548,1375915,1533400,0.996,-0.181,0.056,-208.4,-74,-92.3,-20.3,-18.3,20.2,0.781151769,0.0339365825,-0.620288705,-0.0621051668
549,1377489,1533400,0.87,-0.055,0.142,-172.5,-62.1,-93.2,-19.7,-19.8,18.8,0.778771325,0.0295419172,-0.622669149,-0.0698263497
550,1381576,1533400,0.859,-0.024,0.142,-153.6,-56.3,-91.4,-19.7,-19.8,18.8,0.777977844,0.0280770287,-0.623310038,-0.0734885708
551,1383683,1533400,0.839,0.007,0.143,-137.2,-53,-87.3,-19.7,-19.8,18.8,0.777184362,0.0268562883,-0.623950926,-0.0768761254
552,1385616,1533410,0.816,0.082,0.148,-123.9,-52.8,-81.3,-19.5,-20.4,19.7,0.776390881,0.025757622,-0.624561296,-0.0799584948
553,1387907,1533410,0.8,0.117,0.145,-113,-54.6,-74.2,-19.5,-20.4,19.7,0.7755974,0.0247810297,-0.625263222,-0.0827967162
554,1390051,1533410,0.792,0.161,0.138,-103.4,-57.2,-66.6,-19.5,-20.4,19.7,0.774742882,0.0238044374,-0.625965148,-0.085360271
555,1394167,1533410,0.784,0.196,0.135,-94.5,-59.7,-59.3,-19.5,-20.4,19.7,0.773857845,0.0229499191,-0.626789148,-0.0876796777
556,1396366,1533420,0.776,0.279,0.136,-86.2,-61.5,-52.7,-19.1,-21.1,19.6,0.772942289,0.0220954009,-0.627643666,-0.0897854549
557,1398625,1533420,0.776,0.314,0.136,-78.5,-62.7,-46.7,-19.1,-21.1,19.6,0.772026734,0.0212408826,-0.628528703,-0.0916776025
558,1400611,1533420,0.772,0.353,0.137,-71.8,-63.1,-41.4,-19.1,-21.1,19.6,0.771111179,0.0205084384,-0.629413739,-0.0933561205
559,1402820,1533420,0.776,0.408,0.137,-66.5,-63.1,-36.8,-19.1,-21.1,19.6,0.770195624,0.0197759941,-0.630329295,-0.0949736015
560,1405215,1533430,0.8,0.435,0.137,-62.8,-62.6,-33.3,-18.9,-21.4,19.8,0.769310587,0.0190435499,-0.63124485,-0.0964079714
561,1407395,1533430,0.811,0.459,0.137,-61.1,-62.1,-30.9,-18.9,-21.4,19.8,0.768395032,0.0183111057,-0.632129887,-0.0978118229
562,1410026,1533430,0.823,0.486,0.137,-61.4,-61.5,-29.5,-18.9,-21.4,19.8,0.767509995,0.0175481429,-0.633045442,-0.0991546373
563,1412301,1533430,0.827,0.498,0.138,-63.6,-60.8,-28.6,-18.9,-21.4,19.8,0.76659444,0.0167241432,-0.63389996,-0.100558489
564,1416822,1533440,0.839,0.502,0.133,-67.6,-60.4,-28.5,-18.6,-21.7,19.5,0.76577044,0.0158696249,-0.634754479,-0.101992859
565,1417254,1533440,0.862,0.513,0.125,-73.1,-60.4,-29.5,-18.6,-21.7,19.5,0.764885403,0.0149235511,-0.635578478,-0.103518784
566,1419865,1533440,0.889,0.513,0.117,-79.4,-60.8,-31.6,-18.6,-21.7,19.5,0.764000366,0.0139164403,-0.636402478,-0.105166784
567,1422313,1533440,0.913,0.509,0.097,-86,-61.4,-34.6,-18.6,-21.7,19.5,0.763084811,0.012817774,-0.637226478,-0.106967376
568,1426601,1533450,0.913,0.509,0.097,-86,-61.4,-34.6,-18.6,-21.7,19.5,0.763084811,0.012817774,-0.637226478,-0.106967376
569,1428721,1533450,0.901,0.478,0.081,-97.5,-61.8,-41.1,-18.1,-22.1,19.3,0.761070589,0.0110171819,-0.638904996,-0.11139256
570,1431027,1533450,0.905,0.459,0.073,-101.9,-61.1,-44.1,-18.1,-22.1,19.3,0.760124516,0.00979644154,-0.639667959,-0.113559374
571,1432826,1533450,0.925,0.454,0.069,-105.4,-60.3,-47.5,-18.1,-22.1,19.3,0.759178442,0.00857570116,-0.640400403,-0.115817743
572,1434969,1533460,0.929,0.447,0.061,-108.1,-59.8,-51.6,-18.1,-23.1,19.4,0.758232368,0.00735496078,-0.641102329,-0.118198187
573,1438871,1533460,0.921,0.419,0.053,-110.5,-59.7,-56.1,-18.1,-23.1,19.4,0.757255776,0.0061342204,-0.641773736,-0.120700705
574,1441076,1533460,0.855,0.393,0.054,-112.9,-60.2,-60.4,-18.1,-23.1,19.4,0.756279183,0.00497451704,-0.642475661,-0.12326426
575,1443403,1533460,0.866,0.389,0.053,-115.3,-61.8,-64.5,-18.1,-23.1,19.4,0.755241554,0.00381481368,-0.643177587,-0.125980407
576,1444920,1533470,0.898,0.392,0.041,-118.2,-64.7,-69.1,-17.7,-23.8,18.9,0.754142888,0.00265511032,-0.643910031,-0.128757591
577,1447378,1533470,0.995,0.407,0.016,-121.5,-69.4,-74.6,-17.7,-23.8,18.9,0.752983184,0.00149540696,-0.644703513,-0.131717887
578,1451403,1533470,1.003,0.395,0.012,-125.4,-75.2,-79.6,-17.7,-23.8,18.9,0.751670888,0.000335703604,-0.645558031,-0.134769738
579,1453556,1533470,1.019,0.384,0.004,-129.6,-81.1,-81.9,-17.7,-23.8,18.9,0.750297555,-0.000823999756,-0.646504105,-0.137913144
580,1455847,1533480,1.015,0.349,-0.011,-134.2,-86.4,-80.9,-17,-24.7,19.1,0.748832667,-0.00213629566,-0.647511216,-0.141178625
581,1457920,1533480,1.148,0.371,-0.033,-138.7,-90.4,-77.2,-17,-24.7,19.1,0.747306742,-0.00360118412,-0.648579363,-0.144383068
582,1460113,1533480,1.195,0.366,-0.046,-143,-92.8,-72.6,-17,-24.7,19.1,0.745750298,-0.00518814661,-0.649616993,-0.147587512
583,1464038,1533480,1.207,0.351,-0.05,-146.8,-93.1,-67.3,-17,-24.7,19.1,0.744163335,-0.00692770165,-0.650685141,-0.150761437
584,1466216,1533490,1.207,0.311,-0.051,-150.4,-90.5,-60.9,-17.3,-24.9,18.6,0.742667928,-0.00881984924,-0.651661733,-0.153874325
585,1468488,1533490,1.179,0.296,-0.038,-154,-85.6,-53.6,-17.3,-24.9,18.6,0.741233558,-0.0108340709,-0.652516251,-0.156895657
586,1469790,1533490,1.148,0.288,-0.034,-157.9,-78.9,-47.2,-17.3,-24.9,18.6,0.739890744,-0.0129703665,-0.653279214,-0.159886471
587,1472829,1533490,1.133,0.273,-0.038,-162.3,-72.1,-43.6,-17.3,-24.9,18.6,0.738670003,-0.0152287362,-0.653889584,-0.162907804
588,1476007,1533500,1.148,0.261,-0.042,-167.5,-66.6,-44.6,-16.1,-25.6,17.9,0.7375103,-0.0175481429,-0.65437788,-0.165990173
589,1478099,1533500,1.168,0.265,-0.031,-173.6,-63.7,-50.3,-16.1,-25.6,17.9,0.736320078,-0.0198370312,-0.654774621,-0.169255654
590,1480302,1533500,1.218,0.264,-0.043,-180.3,-63.9,-59.5,-16.1,-25.6,17.9,0.735099338,-0.0220954009,-0.655171361,-0.172734764
591,1482641,1533500,1.289,0.244,-0.057,-186.9,-66.6,-69.3,-16.1,-25.6,17.9,0.733787042,-0.0243842891,-0.655537584,-0.17648854
592,1485725,1533510,1.289,0.224,-0.061,-192.7,-70.8,-76.2,-15.9,-26.4,17.5,0.73238319,-0.0266121403,-0.655964843,-0.180425428
593,1487151,1533510,1.277,0.205,-0.061,-196.9,-75.2,-78.1,-15.9,-26.4,17.5,0.730887783,-0.028931547,-0.656453139,-0.184453871
594,1490052,1533510,1.234,0.182,-0.049,-199.1,-78.7,-74.6,-15.9,-26.4,17.5,0.729300821,-0.0314035463,-0.656941435,-0.188451796
595,1493410,1533510,1.23,0.15,-0.041,-199.3,-81.2,-67.7,-15.9,-26.4,17.5,0.727713858,-0.0339365825,-0.657429731,-0.192327647
596,1495437,1533520,1.222,0.146,-0.033,-197.9,-83,-60.1,-15.2,-26.9,17.1,0.726126896,-0.0365611744,-0.657979064,-0.196050905
597,1497514,1533520,1.211,0.127,-0.025,-195.4,-84.7,-54,-15.2,-26.9,17.1,0.724509415,-0.0392468032,-0.658497879,-0.199652089
598,1500794,1533520,1.222,0.126,-0.022,-192.3,-86.1,-50.2,-15.2,-26.9,17.1,0.722891934,-0.041932432,-0.659077731,-0.203131199
599,1502817,1533520,1.254,0.145,-0.01,-188.7,-87.3,-48.8,-15.2,-26.9,17.1,0.721213416,-0.0445875423,-0.659657582,-0.206518754
600,1505978,1533530,1.261,0.157,0,-184.6,-87.9,-48.6,-14.6,-27.6,16.5,0.719565416,-0.0471510971,-0.660237434,-0.20987579
601,1507386,1533530,1.277,0.157,0.004,-180.3,-87.8,-48.1,-14.6,-27.6,16.5,0.717886898,-0.0497451704,-0.660847804,-0.213110752
602,1510223,1533530,1.281,0.176,0.016,-176.2,-86.6,-45.8,-14.6,-27.6,16.5,0.71620838,-0.0522476882,-0.661427656,-0.216284677
603,1513362,1533530,1.25,0.172,0.024,-172.4,-84,-40.9,-14.6,-27.6,16.5,0.714621418,-0.0547196875,-0.661946471,-0.219336528
604,1516456,1533540,1.203,0.173,0.033,-169.2,-79.9,-33.8,-14.4,-28.9,16.3,0.713095492,-0.0572527238,-0.662434767,-0.222205267
605,1518541,1533540,1.175,0.169,0.033,-166.4,-74.7,-26.1,-14.4,-28.9,16.3,0.711661122,-0.0598467971,-0.662800989,-0.224921415
606,1520013,1533540,1.164,0.201,0.034,-164.2,-68.8,-20,-14.4,-28.9,16.3,0.710348827,-0.0624408704,-0.663106174,-0.227515488
607,1522636,1533540,1.167,0.209,0.034,-162.2,-63.1,-16.9,-14.4,-28.9,16.3,0.709128086,-0.0650349437,-0.663289285,-0.230018006
608,1525694,1533550,1.156,0.232,0.035,-160.3,-58.1,-16.6,-13.8,-29.4,15.4,0.707968383,-0.0675374615,-0.663411359,-0.232520524
609,1527239,1533550,1.152,0.229,0.027,-158.6,-53.8,-17.9,-13.8,-29.4,15.4,0.706869716,-0.0700094607,-0.663441877,-0.235023041
610,1531220,1533550,1.152,0.217,0.015,-157.1,-50.3,-19,-13.8,-29.4,15.4,0.70577105,-0.072420423,-0.663441877,-0.237525559
611,1533319,1533550,1.14,0.201,0.023,-155.7,-47.1,-19.5,-13.8,-29.4,15.4,0.704763939,-0.0747703482,-0.66338084,-0.239997559
612,1534898,1533560,1.14,0.205,0.023,-154,-44,-19.4,-13.8,-30.1,15,0.703756829,-0.0770897549,-0.663289285,-0.242408521
613,1538047,1533560,1.132,0.233,0.015,-152,-40.9,-19.2,-13.8,-30.1,15,0.702810755,-0.0793786431,-0.663136692,-0.24488052
614,1540250,1533560,1.132,0.233,0.004,-149.9,-38.1,-19,-13.8,-30.1,15,0.701895199,-0.0816064943,-0.662953581,-0.247260964
615,1543491,1533560,1.121,0.241,-0.007,-147.5,-35.7,-18.9,-13.8,-30.1,15,0.701010163,-0.0837733085,-0.662739952,-0.249610889
616,1544982,1533570,1.117,0.249,-0.011,-144.5,-34,-19.1,-13.7,-30.5,14.3,0.700125126,-0.0858790857,-0.662495804,-0.251930296
617,1548296,1533570,1.121,0.249,-0.022,-140.5,-32.7,-19.8,-13.7,-30.5,14.3,0.699270608,-0.0879238258,-0.662251656,-0.254219184
618,1550433,1533570,1.121,0.249,-0.022,-135.4,-31.6,-21.2,-13.7,-30.5,14.3,0.698446608,-0.0898770104,-0.662038026,-0.256447035
619,1553652,1533570,1.121,0.245,-0.015,-129.8,-30.3,-23.4,-13.7,-30.5,14.3,0.697622608,-0.0916776025,-0.661824396,-0.258613849
620,1555674,1533580,1.125,0.261,-0.007,-124.5,-28.6,-25.9,-13.2,-31.1,14.1,0.696798608,-0.0933561205,-0.661580248,-0.260750145
621,1558935,1533580,1.121,0.261,-0.01,-119.9,-26.3,-28.8,-13.2,-31.1,14.1,0.696005127,-0.0949125645,-0.661366619,-0.262855922
622,1561083,1533580,1.117,0.257,-0.007,-116.5,-23.6,-31.5,-13.2,-31.1,14.1,0.695242164,-0.0963774529,-0.661122471,-0.264961699
623,1563176,1533580,1.105,0.245,0.004,-114.8,-21.1,-33.9,-13.2,-31.1,14.1,0.69450972,-0.0977507859,-0.660847804,-0.267097995
624,1565412,1533590,1.097,0.237,0.004,-114.6,-18.9,-35.8,-13.2,-31.1,14.1,0.693777276,-0.0990630818,-0.660542619,-0.269234291
625,1567605,1533590,1.097,0.23,0.004,-115.4,-17.2,-37.4,-13.2,-31.1,14.1,0.693044832,-0.100375378,-0.660206915,-0.271431623
626,1570145,1533590,1.101,0.222,0.008,-116.9,-15.7,-39,-13.2,-31.1,14.1,0.692342906,-0.101657155,-0.659840693,-0.273689993
627,1572379,1533590,1.089,0.206,0.012,-118.5,-14.9,-40.3,-13.2,-31.1,14.1,0.691610462,-0.102969451,-0.659443953,-0.275948363
628,1576901,1533600,1.089,0.194,0.02,-120.1,-14.7,-40.9,-12.7,-31.9,12.9,0.690878018,-0.104281747,-0.659016694,-0.278267769
629,1579135,1533600,1.085,0.202,0.02,-121,-15.2,-40.9,-12.7,-31.9,12.9,0.690145573,-0.105624561,-0.658619953,-0.280587176
630,1581360,1533600,1.078,0.186,0.031,-121.5,-16.3,-40.2,-12.7,-31.9,12.9,0.689382611,-0.106967376,-0.658192694,-0.282906583
631,1583566,1533600,1.066,0.178,0.035,-121.6,-17.6,-39,-12.7,-31.9,12.9,0.688589129,-0.108340709,-0.657795953,-0.285195471
632,1585931,1533610,1.062,0.175,0.036,-121.5,-19.2,-37.6,-12.7,-31.9,12.9,0.687795648,-0.10974456,-0.657429731,-0.287453841
633,1587909,1533610,1.058,0.179,0.036,-121.2,-20.8,-36.1,-12.7,-31.9,12.9,0.686971648,-0.11117893,-0.657063509,-0.289681692
634,1590124,1533610,1.046,0.171,0.036,-120.9,-22,-34.9,-12.7,-31.9,12.9,0.686147649,-0.112643818,-0.656697287,-0.291909543
635,1592625,1533610,1.042,0.171,0.04,-120.3,-23,-34,-12.7,-31.9,12.9,0.68529313,-0.114078188,-0.656361583,-0.294076357
636,1594932,1533620,1.042,0.171,0.04,-119.8,-23.6,-33.2,-12.7,-31.9,12.9,0.684438612,-0.115573595,-0.65602588,-0.296212653
637,1599499,1533620,1.039,0.175,0.032,-119.3,-24,-32.8,-12.7,-31.9,12.9,0.683584094,-0.117038484,-0.655690176,-0.298348949
638,1599850,1533620,1.035,0.183,0.028,-118.5,-24.1,-32.6,-12.7,-31.9,12.9,0.682729575,-0.118472854,-0.655384991,-0.300485244
639,1603825,1533620,1.039,0.187,0.032,-117.7,-23.9,-32.5,-12.7,-31.9,12.9,0.681844539,-0.119937742,-0.655049287,-0.302591021
640,1606098,1533630,1.039,0.191,0.028,-116.8,-23.4,-32.3,-12.7,-31.9,12.9,0.68099002,-0.121372112,-0.654713584,-0.30466628
641,1608123,1533630,1.042,0.191,0.028,-116.2,-22.9,-31.7,-12.7,-31.9,12.9,0.680166021,-0.122775964,-0.654347362,-0.306741539
642,1610345,1533630,1.039,0.191,0.028,-115.9,-22.3,-30.9,-12.7,-31.9,12.9,0.679311502,-0.124210334,-0.65398114,-0.308786279
643,1612562,1533630,1.046,0.19,0.04,-115.8,-22,-29.7,-12.7,-31.9,12.9,0.678487503,-0.125644704,-0.653614917,-0.310831019
644,1615230,1533640,1.042,0.194,0.036,-115.9,-21.9,-28.6,-12.7,-31.9,12.9,0.677663503,-0.127109592,-0.653218177,-0.312845241
645,1617510,1533640,1.042,0.183,0.028,-116.1,-22.1,-27.4,-12.7,-31.9,12.9,0.676839503,-0.12857448,-0.652821436,-0.314828944
646,1621046,1533640,1.035,0.187,0.032,-116.7,-22.3,-26.4,-12.7,-31.9,12.9,0.675984985,-0.130100406,-0.652424696,-0.316843165
647,1623057,1533640,1.031,0.183,0.028,-117.3,-22.6,-25.6,-12.7,-31.9,12.9,0.675160985,-0.131595813,-0.652027955,-0.318826868
648,1625398,1533650,1.031,0.183,0.028,-117.3,-22.6,-25.6,-12.7,-31.9,12.9,0.675160985,-0.131595813,-0.652027955,-0.318826868
649,1627573,1533650,1.011,0.168,0.025,-118.2,-23,-24.7,-11.8,-33.7,10,0.673207801,-0.13492233,-0.651570177,-0.32248909
650,1631516,1533650,1.003,0.164,0.025,-118.4,-23,-24.6,-11.8,-33.7,10,0.672353282,-0.136478774,-0.651142918,-0.324472793
651,1633714,1533650,1,0.16,0.021,-118.4,-22.9,-24.7,-11.8,-33.7,10,0.671498764,-0.138035218,-0.650715659,-0.326456496
652,1635261,1533660,0.984,0.156,0.021,-118.4,-22.7,-25,-11.8,-33.7,10,0.670644246,-0.139561144,-0.650257881,-0.328440199
653,1638492,1533660,0.972,0.148,0.021,-118.4,-22.7,-25.3,-11.8,-33.7,10,0.669759209,-0.141117588,-0.649830622,-0.330423902
654,1639826,1533660,0.964,0.141,0.021,-118.6,-22.7,-25.6,-11.8,-33.7,10,0.668904691,-0.142643513,-0.649372845,-0.332407605
655,1643821,1533660,0.945,0.137,0.018,-118.8,-22.5,-25.9,-11.8,-33.7,10,0.668019654,-0.144169439,-0.648915067,-0.334391308
656,1646078,1533670,0.937,0.133,0.018,-119,-22.2,-26.2,-11.8,-33.7,10,0.667134617,-0.145695364,-0.648457289,-0.336375011
657,1648316,1533670,0.933,0.129,0.018,-119.1,-22,-26.2,-11.8,-33.7,10,0.66624958,-0.14722129,-0.647999512,-0.338358715
658,1650330,1533670,0.925,0.133,0.018,-119,-22,-26.4,-11.8,-33.7,10,0.665334025,-0.148747215,-0.647511216,-0.340372936
659,1652619,1533670,0.925,0.13,0.01,-118.9,-22,-26.2,-11.8,-33.7,10,0.664448988,-0.150273141,-0.647022919,-0.342356639
660,1655837,1533680,0.922,0.126,0.01,-118.7,-22,-26,-11.8,-33.7,10,0.663563952,-0.151768548,-0.646534623,-0.344340342
661,1657915,1533680,0.922,0.126,0.006,-118.3,-21.8,-25.5,-11.8,-33.7,10,0.662648396,-0.153294473,-0.646046327,-0.346324046
662,1660199,1533680,0.925,0.133,0.01,-117.8,-21.4,-25,-11.8,-33.7,10,0.661763359,-0.154820399,-0.645558031,-0.34827723
663,1662532,1533680,0.929,0.133,0.01,-117.3,-20.8,-24.5,-11.8,-33.7,10,0.660908841,-0.156315806,-0.645039216,-0.350199896
664,1664932,1533690,0.933,0.129,0.006,-116.9,-20.1,-23.9,-11.8,-33.7,10,0.660023804,-0.157811213,-0.644520402,-0.352122562
665,1667213,1533690,0.933,0.13,0.002,-116.6,-19.3,-23.4,-11.8,-33.7,10,0.659169286,-0.159306619,-0.643971068,-0.354045228
666,1671697,1533690,0.949,0.118,-0.009,-116.4,-18.6,-22.8,-11.8,-33.7,10,0.658314768,-0.160802026,-0.643421735,-0.355937376
667,1673977,1533690,0.957,0.114,-0.002,-116.2,-17.9,-22.3,-11.8,-33.7,10,0.657490768,-0.162297433,-0.642872402,-0.357829524
668,1676198,1533700,0.957,0.114,-0.002,-116.2,-17.9,-22.3,-11.8,-33.7,10,0.657490768,-0.162297433,-0.642872402,-0.357829524
669,1678381,1533700,0.98,0.098,0.001,-115,-16.3,-21.6,-10.7,-35.3,7.4,0.655751213,-0.165593432,-0.641926328,-0.361217078
670,1680417,1533700,0.988,0.098,0.001,-113.9,-15.2,-21.1,-10.7,-35.3,7.4,0.654957732,-0.167058321,-0.641315958,-0.363048189
671,1682663,1533700,0.996,0.093,0,-112.6,-13.9,-20.7,-10.7,-35.3,7.4,0.654164251,-0.168492691,-0.640705588,-0.364879299
672,1686660,1533710,1,0.089,0.004,-111.2,-12.6,-20.1,-10.7,-35.3,7.4,0.653431806,-0.169896542,-0.640064699,-0.366649373
673,1688975,1533710,1.008,0.074,0.012,-109.9,-11.4,-19.6,-10.7,-35.3,7.4,0.652699362,-0.171269875,-0.639423811,-0.368419446
674,1691165,1533710,1.011,0.07,0.012,-108.7,-10.1,-19.2,-10.7,-35.3,7.4,0.651997436,-0.172643208,-0.638752403,-0.37018952
675,1693362,1533710,1.019,0.066,0.015,-107.3,-9,-19,-10.7,-35.3,7.4,0.651295511,-0.173955504,-0.638080996,-0.371929075
676,1695412,1533720,1.019,0.054,0.015,-106.1,-7.9,-19.1,-10.7,-35.3,7.4,0.650624104,-0.1752678,-0.637409589,-0.373638112
677,1697550,1533720,1.031,0.038,0.027,-104.3,-7,-19.4,-10.7,-35.3,7.4,0.649983215,-0.176549577,-0.636738182,-0.375347148
678,1700901,1533720,1.035,0.038,0.034,-102,-6.3,-19.8,-10.7,-35.3,7.4,0.649342326,-0.177770318,-0.636066774,-0.376995148
679,1702944,1533720,1.035,0.038,0.038,-99.4,-5.7,-20.3,-10.7,-35.3,7.4,0.648701437,-0.178930021,-0.635395367,-0.378643147
680,1705158,1533730,1.031,0.03,0.046,-96.3,-5.2,-20.6,-10.7,-35.3,7.4,0.648060549,-0.180059206,-0.634754479,-0.380260628
681,1707711,1533730,1.035,0.022,0.05,-93,-4.7,-20.8,-10.7,-35.3,7.4,0.647480697,-0.181127354,-0.634144108,-0.381817072
682,1711201,1533730,1.031,0.026,0.054,-89.6,-4.3,-20.6,-10.7,-35.3,7.4,0.646870327,-0.182134465,-0.633533738,-0.383342998
683,1713539,1533730,1.035,0.025,0.062,-86.2,-3.9,-20.2,-10.7,-35.3,7.4,0.646320994,-0.183111057,-0.632953887,-0.384807886
684,1715560,1533740,1.027,0.025,0.066,-82.8,-3.6,-19.6,-10.7,-35.3,7.4,0.645771661,-0.184026612,-0.632374035,-0.386211737
685,1717837,1533740,1.019,0.033,0.07,-79.4,-3.5,-18.9,-10.7,-35.3,7.4,0.645222327,-0.184911649,-0.631824702,-0.387554552
686,1720062,1533740,1.023,0.033,0.07,-76,-3.5,-18.2,-10.7,-35.3,7.4,0.644734031,-0.185766167,-0.631305887,-0.388836329
687,1722985,1533740,1.023,0.045,0.074,-72.5,-3.7,-17.2,-10.7,-35.3,7.4,0.644245735,-0.186590167,-0.630817591,-0.39005707
688,1725415,1533750,1.023,0.045,0.074,-72.5,-3.7,-17.2,-10.7,-35.3,7.4,0.644245735,-0.186590167,-0.630817591,-0.39005707
689,1727555,1533750,1.019,0.065,0.07,-65.1,-4.5,-14.6,-10.3,-36.1,5,0.643482772,-0.188909574,-0.629963073,-0.391552477
690,1730460,1533750,1.015,0.069,0.078,-61.4,-4.9,-12.9,-10.3,-36.1,5,0.643055513,-0.189642018,-0.629566332,-0.392559587
691,1732800,1533750,1.019,0.092,0.074,-57.7,-5.2,-11,-10.3,-36.1,5,0.642658773,-0.190343944,-0.62920011,-0.393475143
692,1734966,1533760,1.019,0.096,0.078,-54.1,-5.6,-9.2,-10.3,-36.1,5,0.642262032,-0.191015351,-0.628833888,-0.394329661
693,1738369,1533760,1.011,0.112,0.083,-50.5,-6.1,-7.3,-10.3,-36.1,5,0.641926328,-0.191686758,-0.628528703,-0.395092624
694,1740400,1533760,1.015,0.127,0.083,-47.1,-6.7,-5.4,-10.3,-36.1,5,0.641590625,-0.192327647,-0.628254036,-0.395794549
695,1742596,1533760,1.019,0.139,0.083,-43.7,-7.5,-3.6,-10.3,-36.1,5,0.641254921,-0.192968535,-0.627979369,-0.39640492
696,1746256,1533770,1.015,0.143,0.091,-40.6,-8.6,-1.9,-10.3,-36.1,5,0.640949736,-0.193578906,-0.62776574,-0.396954253
697,1748501,1533770,1.019,0.155,0.087,-37.7,-9.6,-0.4,-10.3,-36.1,5,0.640644551,-0.194189276,-0.627582629,-0.397442549
698,1749984,1533770,1.031,0.162,0.091,-35.2,-10.6,0.7,-10.3,-36.1,5,0.640369884,-0.194769127,-0.627399518,-0.397869808
699,1752911,1533770,1.015,0.166,0.095,-33.1,-11.3,1.6,-10.3,-36.1,5,0.640095218,-0.195348979,-0.627277444,-0.39823603
700,1755337,1533780,1.015,0.174,0.095,-31.3,-11.7,2,-10.3,-36.1,5,0.639820551,-0.195928831,-0.62715537,-0.398602252
701,1757163,1533780,1.03,0.178,0.103,-29.6,-11.7,2,-10.3,-36.1,5,0.639545885,-0.196478164,-0.627063814,-0.398907437
702,1760247,1533780,1.03,0.182,0.103,-28.3,-11.2,1.7,-10.3,-36.1,5,0.639271218,-0.196996979,-0.62694174,-0.399243141
703,1763374,1533780,1.034,0.186,0.107,-27.4,-10.3,1.1,-10.3,-36.1,5,0.63902707,-0.197485275,-0.626850185,-0.399548326
704,1764775,1533790,1.03,0.182,0.103,-26.9,-9.1,0.3,-10.3,-36.1,5,0.638782922,-0.197943052,-0.626758629,-0.39988403
705,1767731,1533790,1.034,0.178,0.106,-27,-7.8,-0.6,-10.3,-36.1,5,0.638569292,-0.198370312,-0.626636555,-0.400219733
706,1770936,1533790,1.03,0.174,0.114,-27.5,-6.4,-1.8,-10.3,-36.1,5,0.638325144,-0.198797571,-0.626483963,-0.400585955
707,1772372,1533790,1.03,0.17,0.106,-28.5,-5.2,-3.2,-10.3,-36.1,5,0.638111515,-0.199194311,-0.62633137,-0.401013215
708,1776210,1533800,1.03,0.17,0.106,-28.5,-5.2,-3.2,-10.3,-36.1,5,0.638111515,-0.199194311,-0.62633137,-0.401013215
709,1777739,1533800,1.027,0.162,0.106,-31.1,-3.2,-5.8,-10.1,-36.6,3.8,0.637745293,-0.200628681,-0.625965148,-0.401379437
710,1780800,1533800,1.027,0.154,0.099,-32.2,-2.5,-6.8,-10.1,-36.6,3.8,0.637501144,-0.201025422,-0.625782037,-0.40192877
711,1782293,1533800,1.019,0.154,0.103,-33,-2,-7.6,-10.1,-36.6,3.8,0.637256996,-0.201391644,-0.625537889,-0.402478103
712,1785260,1533810,1.019,0.147,0.106,-33.3,-1.9,-7.9,-10.1,-36.6,3.8,0.637012848,-0.201757866,-0.625324259,-0.403027436
713,1788482,1533810,1.023,0.15,0.11,-33.3,-2,-7.9,-10.1,-36.6,3.8,0.6367687,-0.202124088,-0.625080111,-0.403576769
714,1790555,1533810,1.019,0.147,0.11,-33,-2.3,-7.8,-10.1,-36.6,3.8,0.636524552,-0.202520829,-0.624866482,-0.404126102
715,1792161,1533810,1.015,0.151,0.11,-32.6,-2.7,-7.4,-10.1,-36.6,3.8,0.636280404,-0.202887051,-0.624652852,-0.404675436
716,1796013,1533820,1.011,0.147,0.11,-32.3,-3,-6.8,-10.1,-36.6,3.8,0.636036256,-0.203253273,-0.624439222,-0.40519425
717,1797387,1533820,1.015,0.147,0.11,-32.2,-3.3,-6,-10.1,-36.6,3.8,0.635792108,-0.203650014,-0.624225593,-0.405682546
718,1801016,1533820,1.007,0.151,0.114,-32.2,-3.5,-5.3,-10.1,-36.6,3.8,0.63554796,-0.204077273,-0.624011963,-0.406201361
719,1802617,1533820,1.003,0.151,0.111,-32.2,-3.7,-4.6,-10.1,-36.6,3.8,0.63533433,-0.204474013,-0.623798334,-0.406689657
720,1806447,1533830,0.999,0.151,0.107,-32.2,-3.9,-4.1,-10.1,-36.6,3.8,0.635090182,-0.204901273,-0.623584704,-0.407147435
721,1807745,1533830,0.999,0.151,0.111,-32.1,-3.8,-3.6,-10.1,-36.6,3.8,0.634846034,-0.205298013,-0.623371075,-0.407635731
722,1810825,1533830,0.995,0.147,0.107,-31.7,-3.8,-3.2,-10.1,-36.6,3.8,0.634632405,-0.205786309,-0.623157445,-0.408093509
723,1812312,1533830,0.995,0.147,0.115,-31.2,-3.6,-2.9,-10.1,-36.6,3.8,0.634418775,-0.20618305,-0.622943815,-0.408520768
724,1815206,1533840,0.995,0.143,0.111,-30.5,-3.5,-2.6,-10.1,-36.6,3.8,0.634205145,-0.206610309,-0.622730186,-0.408978545
725,1818309,1533840,0.991,0.151,0.103,-29.7,-3.3,-2.3,-10.1,-36.6,3.8,0.633991516,-0.207037568,-0.622516556,-0.409405805
726,1819806,1533840,0.995,0.151,0.115,-28.5,-3.2,-2.2,-10.1,-36.6,3.8,0.633777886,-0.20740379,-0.622302927,-0.409802545
727,1822785,1533840,0.988,0.155,0.107,-27.2,-3.1,-2.1,-10.1,-36.6,3.8,0.633625294,-0.207800531,-0.622119816,-0.410168767
728,1824746,1533850,0.988,0.155,0.107,-27.2,-3.1,-2.1,-10.1,-36.6,3.8,0.633625294,-0.207800531,-0.622119816,-0.410168767
729,1828167,1533850,0.987,0.155,0.115,-24.3,-3,-1.8,-10.2,-36.7,2.9,0.633442183,-0.209112827,-0.621784112,-0.41032136
730,1831421,1533850,0.984,0.163,0.119,-22.9,-2.8,-1.8,-10.2,-36.7,2.9,0.633259072,-0.209448531,-0.62163152,-0.410626545
731,1833470,1533850,0.987,0.166,0.123,-21.5,-2.7,-1.6,-10.2,-36.7,2.9,0.633106479,-0.209753716,-0.621478927,-0.41093173
732,1834952,1533860,0.984,0.17,0.123,-20,-2.4,-1.2,-10.2,-36.7,2.9,0.632984405,-0.210028382,-0.621326334,-0.411236915
733,1837909,1533860,0.98,0.174,0.127,-18.6,-2.2,-0.7,-10.2,-36.7,2.9,0.632862331,-0.210303049,-0.62120426,-0.411481063
734,1841192,1533860,0.976,0.174,0.127,-17.3,-1.9,-0.4,-10.2,-36.7,2.9,0.632740257,-0.210547197,-0.621082186,-0.411694693
735,1842648,1533860,0.98,0.182,0.127,-16,-1.6,-0.3,-10.2,-36.7,2.9,0.632648701,-0.210760826,-0.620960112,-0.411908322
736,1845680,1533870,0.976,0.186,0.127,-14.7,-1.4,-0.2,-10.2,-36.7,2.9,0.632557146,-0.210974456,-0.620838038,-0.412121952
737,1848649,1533870,0.976,0.194,0.127,-13.5,-1.1,0,-10.2,-36.7,2.9,0.63246559,-0.211157567,-0.620746483,-0.412305063
738,1850073,1533870,0.976,0.198,0.127,-12.3,-0.7,0.3,-10.2,-36.7,2.9,0.632404553,-0.211371197,-0.620654927,-0.412457656
739,1853307,1533870,0.976,0.194,0.127,-11.1,-0.3,0.6,-10.2,-36.7,2.9,0.632374035,-0.211523789,-0.620532853,-0.41257973
740,1855473,1533880,0.976,0.202,0.127,-10,0,0.9,-10.2,-36.7,2.9,0.632343516,-0.211676382,-0.620441298,-0.412732322
741,1857691,1533880,0.972,0.198,0.127,-8.9,0.5,1.1,-10.2,-36.7,2.9,0.632312998,-0.211828974,-0.620349742,-0.412823878
742,1860725,1533880,0.968,0.206,0.128,-7.9,0.7,1.4,-10.2,-36.7,2.9,0.632282479,-0.211951048,-0.620258187,-0.412915433
743,1863785,1533880,0.972,0.21,0.128,-6.8,0.9,1.7,-10.2,-36.7,2.9,0.632282479,-0.212042604,-0.62019715,-0.413006989
744,1866190,1533890,0.968,0.218,0.128,-5.5,1,1.8,-10.2,-36.7,2.9,0.632282479,-0.212134159,-0.620105594,-0.413037507
745,1868287,1533890,0.964,0.221,0.132,-4.2,1.1,1.9,-10.2,-36.7,2.9,0.632312998,-0.212225715,-0.620044557,-0.413068026
746,1870351,1533890,0.968,0.221,0.132,-2.9,1.3,1.9,-10.2,-36.7,2.9,0.632312998,-0.212286752,-0.61998352,-0.413098544
747,1872708,1533890,0.964,0.225,0.132,-1.6,1.5,1.9,-10.2,-36.7,2.9,0.632374035,-0.21231727,-0.619953001,-0.413098544
748,1875049,1533900,0.964,0.225,0.132,-1.6,1.5,1.9,-10.2,-36.7,2.9,0.632374035,-0.21231727,-0.619953001,-0.413098544
749,1877314,1533900,0.964,0.241,0.132,0.7,1.7,2.4,-10.4,-36.6,2.6,0.632496109,-0.212683493,-0.619953001,-0.412701804
750,1879744,1533900,0.964,0.245,0.132,1.8,1.7,2.8,-10.4,-36.6,2.6,0.632557146,-0.212683493,-0.619922483,-0.412671285
751,1883387,1533900,0.964,0.249,0.132,2.9,1.7,3.2,-10.4,-36.6,2.6,0.632618183,-0.212683493,-0.619922483,-0.41257973
752,1885593,1533910,0.964,0.253,0.136,3.9,1.7,3.5,-10.4,-36.6,2.6,0.63267922,-0.212652974,-0.619922483,-0.412488174
753,1887822,1533910,0.964,0.265,0.136,4.8,1.7,3.7,-10.4,-36.6,2.6,0.632770775,-0.212622456,-0.619922483,-0.4123661
754,1891239,1533910,0.968,0.265,0.132,5.5,1.8,3.8,-10.4,-36.6,2.6,0.632862331,-0.212561419,-0.619922483,-0.412244026
755,1893470,1533910,0.964,0.268,0.136,6,1.9,3.7,-10.4,-36.6,2.6,0.632923368,-0.2125309,-0.619922483,-0.412121952
756,1895581,1533920,0.964,0.269,0.132,6.4,2,3.6,-10.4,-36.6,2.6,0.633014924,-0.212469863,-0.619953001,-0.411999878
757,1897540,1533920,0.968,0.272,0.132,6.8,2.1,3.5,-10.4,-36.6,2.6,0.633106479,-0.212408826,-0.619953001,-0.411877804
758,1901776,1533920,0.964,0.276,0.136,6.9,2.1,3.6,-10.4,-36.6,2.6,0.633228553,-0.212347789,-0.61998352,-0.411725211
759,1904137,1533920,0.968,0.272,0.14,7.1,2.3,3.8,-10.4,-36.6,2.6,0.633320109,-0.212256233,-0.61998352,-0.411603137
760,1906294,1533930,0.964,0.276,0.14,7.1,2.6,4,-10.4,-36.6,2.6,0.633411664,-0.212195196,-0.61998352,-0.411450545
761,1908630,1533930,0.964,0.276,0.132,7.1,3,4.1,-10.4,-36.6,2.6,0.633533738,-0.212134159,-0.61998352,-0.411328471
762,1911020,1533930,0.964,0.272,0.136,7.2,3.5,4.4,-10.4,-36.6,2.6,0.633655812,-0.212073122,-0.61998352,-0.411175878
763,1913030,1533930,0.964,0.276,0.136,7.4,3.9,4.5,-10.4,-36.6,2.6,0.633777886,-0.211981567,-0.61998352,-0.411023286
764,1915412,1533940,0.956,0.276,0.136,7.6,4.4,4.7,-10.4,-36.6,2.6,0.633930479,-0.211890011,-0.61998352,-0.410870693
765,1918434,1533940,0.956,0.276,0.133,7.7,4.9,5,-10.4,-36.6,2.6,0.634083071,-0.211828974,-0.619953001,-0.410718101
766,1920861,1533940,0.956,0.276,0.133,7.8,5.4,5.2,-10.4,-36.6,2.6,0.634235664,-0.211737419,-0.619922483,-0.410565508
767,1922799,1533940,0.956,0.273,0.133,7.6,5.7,5.5,-10.4,-36.6,2.6,0.634388256,-0.211645863,-0.619891964,-0.410412915
768,1925185,1533950,0.956,0.273,0.133,7.6,5.7,5.5,-10.4,-36.6,2.6,0.634388256,-0.211645863,-0.619891964,-0.410412915
769,1927730,1533950,0.948,0.277,0.133,6.9,6.1,6,-10.3,-36.7,2.9,0.634418775,-0.21109653,-0.620044557,-0.410412915
770,1931322,1533950,0.948,0.277,0.133,6.6,6,6.3,-10.3,-36.7,2.9,0.634571368,-0.211035493,-0.61998352,-0.410260323
771,1933536,1533950,0.944,0.277,0.137,6.6,5.6,6.6,-10.3,-36.7,2.9,0.634754479,-0.210974456,-0.619953001,-0.41010773
772,1935363,1533960,0.94,0.273,0.137,6.8,5.3,6.8,-10.3,-36.7,2.9,0.634907071,-0.210943937,-0.619891964,-0.409924619
773,1937560,1533960,0.944,0.273,0.137,6.9,4.9,7,-10.3,-36.7,2.9,0.635090182,-0.2108829,-0.619861446,-0.409772027
774,1941100,1533960,0.94,0.269,0.137,6.8,4.7,7.1,-10.3,-36.7,2.9,0.635242775,-0.210852382,-0.619830927,-0.409588916
775,1943350,1533960,0.936,0.269,0.145,6.5,4.5,7.1,-10.3,-36.7,2.9,0.635395367,-0.210821863,-0.619800409,-0.409436323
776,1946519,1533970,0.933,0.277,0.137,6,4.7,7.2,-10.3,-36.7,2.9,0.63554796,-0.210791345,-0.619739372,-0.409283731
777,1948691,1533970,0.933,0.269,0.141,5.9,5,7.1,-10.3,-36.7,2.9,0.635700552,-0.210760826,-0.619678335,-0.409131138
778,1950698,1533970,0.933,0.277,0.141,6,5.3,6.9,-10.3,-36.7,2.9,0.635883663,-0.210730308,-0.619647816,-0.408978545
779,1952971,1533970,0.932,0.276,0.153,6.3,5.7,6.9,-10.3,-36.7,2.9,0.636036256,-0.210669271,-0.619586779,-0.408795434
780,1955253,1533980,0.929,0.281,0.141,6.8,6.1,6.8,-10.3,-36.7,2.9,0.636219367,-0.210608234,-0.619525742,-0.408642842
781,1957786,1533980,0.929,0.281,0.145,7.4,6.4,6.9,-10.3,-36.7,2.9,0.636402478,-0.210547197,-0.619464705,-0.408490249
782,1959966,1533980,0.936,0.277,0.145,8,6.8,6.6,-10.3,-36.7,2.9,0.636585589,-0.210455641,-0.619434187,-0.408307138
783,1962627,1533980,0.933,0.284,0.149,8.7,7.2,6.4,-10.3,-36.7,2.9,0.636799219,-0.210364086,-0.61937315,-0.408124027
784,1964798,1533990,0.936,0.292,0.145,9.3,7.7,6.2,-10.3,-36.7,2.9,0.63698233,-0.210242012,-0.619312113,-0.407971435
785,1969219,1533990,0.932,0.292,0.149,9.8,8.3,5.9,-10.3,-36.7,2.9,0.637195959,-0.210119938,-0.619251076,-0.407788324
786,1971214,1533990,0.936,0.288,0.141,9.9,8.9,5.5,-10.3,-36.7,2.9,0.637409589,-0.209967345,-0.619190039,-0.407605213
787,1973451,1533990,0.936,0.288,0.141,9.7,9.5,5,-10.3,-36.7,2.9,0.637623218,-0.209814753,-0.619129002,-0.40745262
788,1975455,1534000,0.936,0.288,0.141,9.7,9.5,5,-10.3,-36.7,2.9,0.637623218,-0.209814753,-0.619129002,-0.40745262
789,1978459,1534000,0.94,0.284,0.141,9.3,10.8,3.7,-10.7,-36.4,2.7,0.63780633,-0.208899197,-0.61915952,-0.407635731
790,1980839,1534000,0.94,0.28,0.141,9.4,11.4,3,-10.7,-36.4,2.7,0.638019959,-0.208716086,-0.619067965,-0.407513657
791,1982793,1534000,0.944,0.281,0.133,9.5,11.7,2.5,-10.7,-36.4,2.7,0.638233589,-0.208502457,-0.618976409,-0.407391583
792,1985122,1534010,0.944,0.284,0.133,9.4,11.9,2,-10.7,-36.4,2.7,0.638477737,-0.208288827,-0.618884854,-0.407300027
793,1988268,1534010,0.944,0.273,0.133,8.9,12,1.3,-10.7,-36.4,2.7,0.638691366,-0.208075198,-0.618793298,-0.407208472
794,1990238,1534010,0.948,0.265,0.133,8,12.1,0.2,-10.7,-36.4,2.7,0.638874477,-0.207861568,-0.618701743,-0.407147435
795,1993496,1534010,0.956,0.269,0.132,6.6,12.3,-0.8,-10.7,-36.4,2.7,0.639088107,-0.207647938,-0.618579669,-0.407147435
796,1995739,1534020,0.956,0.261,0.132,4.8,12.5,-2.2,-10.7,-36.4,2.7,0.639240699,-0.207434309,-0.618457595,-0.407147435
797,1997777,1534020,0.952,0.245,0.132,2.7,12.6,-3.5,-10.7,-36.4,2.7,0.639393292,-0.207251198,-0.61833552,-0.40723899
798,2000892,1534020,0.956,0.237,0.132,0.4,12.5,-4.9,-10.7,-36.4,2.7,0.639515366,-0.207068087,-0.618152409,-0.407330546
799,2003130,1534020,0.956,0.233,0.136,-1.5,12.3,-6,-10.7,-36.4,2.7,0.63963744,-0.206884976,-0.618030335,-0.407513657
800,2005909,1534030,0.956,0.225,0.132,-3.2,11.9,-6.7,-10.7,-36.4,2.7,0.639728996,-0.206732383,-0.617847224,-0.407696768
801,2007507,1534030,0.96,0.221,0.136,-4.4,11.3,-7,-10.7,-36.4,2.7,0.639790033,-0.206610309,-0.617694632,-0.407910398
802,2009860,1534030,0.964,0.221,0.14,-5.2,10.4,-7.1,-10.7,-36.4,2.7,0.63985107,-0.206488235,-0.617542039,-0.408124027
803,2013388,1534030,0.956,0.221,0.136,-5.8,9.2,-6.9,-10.7,-36.4,2.7,0.639881588,-0.20639668,-0.617389447,-0.408337657
804,2016388,1534040,0.964,0.217,0.14,-6.3,8,-6.8,-10.7,-36.4,2.7,0.639881588,-0.206335643,-0.617236854,-0.408551286
805,2017777,1534040,0.96,0.214,0.136,-6.7,6.8,-6.5,-10.7,-36.4,2.7,0.639912107,-0.206274606,-0.61711478,-0.408764916
806,2020924,1534040,0.964,0.213,0.139,-7.2,5.8,-6.3,-10.7,-36.4,2.7,0.639881588,-0.206244087,-0.616992706,-0.408978545
807,2023997,1534040,0.964,0.213,0.143,-7.8,4.8,-5.8,-10.7,-36.4,2.7,0.63985107,-0.206213569,-0.616870632,-0.409192175
808,2025372,1534050,0.964,0.213,0.143,-7.8,4.8,-5.8,-10.7,-36.4,2.7,0.63985107,-0.206213569,-0.616870632,-0.409192175
809,2028509,1534050,0.96,0.213,0.143,-8.9,3.5,-5.2,-10.4,-36.7,2.7,0.639820551,-0.206762902,-0.616779077,-0.409192175
810,2029991,1534050,0.968,0.213,0.147,-9.2,3.2,-5.2,-10.4,-36.7,2.7,0.639759514,-0.20679342,-0.616657002,-0.409405805
811,2032355,1534050,0.972,0.213,0.151,-9.4,3,-5.1,-10.4,-36.7,2.7,0.639728996,-0.206823939,-0.616565447,-0.409619434
812,2036283,1534060,0.968,0.213,0.143,-9.4,2.9,-5.2,-10.4,-36.7,2.7,0.639667959,-0.206854457,-0.616443373,-0.409833064
813,2038496,1534060,0.968,0.221,0.147,-9.1,3.1,-5.3,-10.4,-36.7,2.7,0.639606922,-0.206884976,-0.616351817,-0.410046693
814,2041129,1534060,0.968,0.217,0.147,-8.6,3.3,-5.8,-10.4,-36.7,2.7,0.639576403,-0.206884976,-0.616260262,-0.410260323
815,2043050,1534060,0.964,0.229,0.151,-8,3.5,-6.2,-10.4,-36.7,2.7,0.639515366,-0.206884976,-0.616168706,-0.410473952
816,2045213,1534070,0.96,0.233,0.155,-7.2,3.7,-6.4,-10.4,-36.7,2.7,0.639484848,-0.206884976,-0.616077151,-0.410626545
817,2047851,1534070,0.964,0.229,0.151,-6.3,4,-6.6,-10.4,-36.7,2.7,0.639454329,-0.206823939,-0.615985595,-0.410870693
818,2049786,1534070,0.96,0.229,0.155,-5.4,4.2,-6.9,-10.4,-36.7,2.7,0.639423811,-0.20679342,-0.615924558,-0.411053804
819,2052894,1534070,0.968,0.237,0.155,-4.6,4.4,-7.3,-10.4,-36.7,2.7,0.639393292,-0.206701865,-0.615833003,-0.411236915
820,2055260,1534080,0.968,0.245,0.155,-3.8,4.5,-7.7,-10.4,-36.7,2.7,0.639362774,-0.206610309,-0.615771966,-0.411420026
821,2058598,1534080,0.96,0.249,0.16,-3.1,4.6,-8,-10.4,-36.7,2.7,0.639362774,-0.206518754,-0.615741447,-0.411603137
822,2060180,1534080,0.964,0.256,0.156,-2.5,4.8,-8.2,-10.4,-36.7,2.7,0.639332255,-0.20639668,-0.61568041,-0.41175573
823,2064231,1534080,0.96,0.256,0.16,-2,5.1,-8.4,-10.4,-36.7,2.7,0.639301737,-0.206274606,-0.615619373,-0.411938841
824,2066050,1534090,0.964,0.26,0.164,-1.4,5.2,-8.6,-10.4,-36.7,2.7,0.639301737,-0.206122013,-0.615558336,-0.412091433
825,2068053,1534090,0.972,0.26,0.163,-1,5.3,-8.7,-10.4,-36.7,2.7,0.639301737,-0.20596942,-0.615527818,-0.412244026
826,2070327,1534090,0.968,0.268,0.164,-0.7,5.3,-8.8,-10.4,-36.7,2.7,0.639271218,-0.205816828,-0.615497299,-0.412427137
827,2072584,1534090,0.964,0.268,0.171,-0.5,5.3,-8.8,-10.4,-36.7,2.7,0.639271218,-0.205664235,-0.615436262,-0.41257973
828,2075043,1534100,0.964,0.268,0.171,-0.5,5.3,-8.8,-10.4,-36.7,2.7,0.639271218,-0.205664235,-0.615436262,-0.41257973
829,2079240,1534100,0.964,0.28,0.168,-0.5,5.2,-8.5,-10.1,-36.8,2.3,0.639179662,-0.205145421,-0.615405744,-0.413037507
830,2081518,1534100,0.964,0.284,0.168,-0.5,5.2,-8.4,-10.1,-36.8,2.3,0.639179662,-0.204992828,-0.615344707,-0.413159581
831,2083742,1534100,0.96,0.284,0.172,-0.7,5.3,-8.6,-10.1,-36.8,2.3,0.639179662,-0.204840236,-0.615314188,-0.413312174
832,2085486,1534110,0.96,0.288,0.172,-0.8,5.5,-8.7,-10.1,-36.8,2.3,0.639149144,-0.204687643,-0.615253151,-0.413495285
833,2087875,1534110,0.96,0.288,0.172,-0.8,5.6,-8.9,-10.1,-36.8,2.3,0.639149144,-0.204535051,-0.615222633,-0.413647877
834,2089767,1534110,0.956,0.292,0.172,-1,5.6,-8.9,-10.1,-36.8,2.3,0.639149144,-0.204382458,-0.615161596,-0.41380047
835,2093835,1534110,0.956,0.292,0.172,-1.1,5.6,-9,-10.1,-36.8,2.3,0.639118625,-0.204229865,-0.615131077,-0.413983581
836,2095979,1534120,0.952,0.292,0.172,-1.2,5.7,-9.1,-10.1,-36.8,2.3,0.639118625,-0.204046754,-0.61507004,-0.414136174
837,2098012,1534120,0.952,0.304,0.164,-1.3,5.7,-9.1,-10.1,-36.8,2.3,0.639118625,-0.203894162,-0.615009003,-0.414319285
838,2100199,1534120,0.952,0.307,0.168,-1.3,5.6,-9,-10.1,-36.8,2.3,0.639088107,-0.203741569,-0.614978484,-0.414471877
839,2104493,1534120,0.948,0.307,0.168,-1.3,5.4,-9,-10.1,-36.8,2.3,0.639088107,-0.203588977,-0.614917447,-0.414654988
840,2105024,1534130,0.948,0.308,0.16,-1.2,5.4,-9.1,-10.1,-36.8,2.3,0.639057588,-0.203436384,-0.614886929,-0.414807581
841,2107319,1534130,0.948,0.307,0.168,-1.4,5.4,-9.3,-10.1,-36.8,2.3,0.639057588,-0.203283792,-0.614825892,-0.414990692
842,2111829,1534130,0.948,0.311,0.168,-1.7,5.4,-9.6,-10.1,-36.8,2.3,0.63902707,-0.203131199,-0.614764855,-0.415173803
843,2112246,1534130,0.952,0.311,0.164,-2.4,5.5,-10,-10.1,-36.8,2.3,0.638996551,-0.202978607,-0.614734336,-0.415387432
844,2114932,1534140,0.944,0.3,0.164,-3.2,5.5,-10.6,-10.1,-36.8,2.3,0.638966033,-0.202826014,-0.614673299,-0.415601062
845,2118728,1534140,0.944,0.304,0.164,-4.2,5.6,-11.1,-10.1,-36.8,2.3,0.638935514,-0.20270394,-0.614581744,-0.415814692
846,2120987,1534140,0.944,0.296,0.16,-5.2,5.7,-11.4,-10.1,-36.8,2.3,0.638874477,-0.202551347,-0.614520707,-0.416089358
847,2123006,1534140,0.952,0.292,0.164,-6.1,5.5,-11.7,-10.1,-36.8,2.3,0.63881344,-0.202429273,-0.614429151,-0.416364025
848,2125181,1534150,0.952,0.292,0.164,-6.1,5.5,-11.7,-10.1,-36.8,2.3,0.63881344,-0.202429273,-0.614429151,-0.416364025
849,2128529,1534150,0.94,0.288,0.16,-7.2,4.5,-12,-9.4,-36.8,2.6,0.638355663,-0.201666311,-0.614490188,-0.417340617
850,2130904,1534150,0.94,0.288,0.16,-7.3,4.1,-12,-9.4,-36.8,2.6,0.638264107,-0.201544237,-0.614429151,-0.417645802
851,2132953,1534150,0.94,0.284,0.164,-7.6,3.8,-12,-9.4,-36.8,2.6,0.638172552,-0.201452681,-0.614337596,-0.417920469
852,2134897,1534160,0.94,0.28,0.16,-7.8,3.4,-11.9,-9.4,-36.8,2.6,0.638080996,-0.201391644,-0.61424604,-0.418225654
853,2138838,1534160,0.94,0.284,0.168,-8,3.3,-11.8,-9.4,-36.8,2.6,0.637989441,-0.201300089,-0.614215522,-0.41850032
854,2141091,1534160,0.932,0.28,0.16,-8.2,3.1,-11.6,-9.4,-36.8,2.6,0.637897885,-0.201239051,-0.614154485,-0.418774987
855,2143324,1534160,0.932,0.28,0.164,-8.5,3,-11.4,-9.4,-36.8,2.6,0.637775811,-0.201178014,-0.614062929,-0.419080172
856,2145344,1534170,0.932,0.272,0.168,-8.9,3,-11.3,-9.4,-36.8,2.6,0.637684256,-0.201116977,-0.614001892,-0.419354839
857,2148959,1534170,0.932,0.272,0.16,-9.1,2.9,-11.1,-9.4,-36.8,2.6,0.6375927,-0.20105594,-0.613910337,-0.419660024
858,2151083,1534170,0.932,0.272,0.16,-9.2,2.8,-11.1,-9.4,-36.8,2.6,0.637470626,-0.201025422,-0.6138493,-0.41993469
859,2152593,1534170,0.932,0.268,0.164,-9,2.8,-10.9,-9.4,-36.8,2.6,0.63737907,-0.200964385,-0.613757744,-0.420239875
860,2154737,1534180,0.932,0.269,0.156,-8.9,3,-10.8,-9.4,-36.8,2.6,0.637287515,-0.200933866,-0.613696707,-0.420514542
861,2157585,1534180,0.936,0.268,0.164,-8.7,3.2,-10.7,-9.4,-36.8,2.6,0.637165441,-0.200872829,-0.613605152,-0.420789209
862,2160867,1534180,0.936,0.261,0.16,-8.4,3.4,-10.4,-9.4,-36.8,2.6,0.637104404,-0.200811792,-0.613544115,-0.421063875
863,2162933,1534180,0.932,0.272,0.164,-8,3.4,-10.5,-9.4,-36.8,2.6,0.637012848,-0.200750755,-0.613452559,-0.421338542
864,2165098,1534190,0.936,0.272,0.16,-7.6,3.6,-10.5,-9.4,-36.8,2.6,0.636921293,-0.200689718,-0.613391522,-0.421613208
865,2168374,1534190,0.932,0.269,0.16,-7.2,3.7,-10.6,-9.4,-36.8,2.6,0.636829737,-0.200628681,-0.613299966,-0.421857356
866,2170321,1534190,0.936,0.265,0.16,-6.9,3.7,-10.5,-9.4,-36.8,2.6,0.6367687,-0.200537126,-0.613238929,-0.422132023
867,2173876,1534190,0.936,0.265,0.16,-6.4,3.9,-10.4,-9.4,-36.8,2.6,0.636707663,-0.200415052,-0.613177892,-0.422345653
868,2176078,1534200,0.936,0.265,0.16,-6.4,3.9,-10.4,-9.4,-36.8,2.6,0.636707663,-0.200415052,-0.613177892,-0.422345653
869,2178475,1534200,0.936,0.265,0.156,-5.8,4.1,-10.2,-9.2,-36.8,2.2,0.636463515,-0.200170904,-0.613147374,-0.422894986
870,2180425,1534200,0.94,0.264,0.16,-5.5,4.2,-10,-9.2,-36.8,2.2,0.636402478,-0.200079348,-0.613055818,-0.423139134
871,2182669,1534200,0.932,0.265,0.16,-5,4.3,-9.7,-9.2,-36.8,2.2,0.636341441,-0.199987793,-0.612994781,-0.423352763
872,2186896,1534210,0.932,0.265,0.156,-4.7,4.3,-9.3,-9.4,-36.9,2.5,0.636310923,-0.199896237,-0.612933744,-0.423566393
873,2187230,1534210,0.936,0.268,0.16,-4.2,4.3,-9.1,-9.4,-36.9,2.5,0.636249886,-0.199774163,-0.612872707,-0.423780023
874,2191536,1534210,0.936,0.265,0.16,-3.9,4.2,-8.6,-9.4,-36.9,2.5,0.636219367,-0.199682608,-0.61281167,-0.423963134
875,2193579,1534210,0.936,0.269,0.156,-3.4,4.1,-8.4,-9.4,-36.9,2.5,0.636188849,-0.199591052,-0.612781152,-0.424146245
876,2195891,1534220,0.929,0.269,0.16,-2.9,4.1,-8.1,-9.1,-36.7,2.2,0.63615833,-0.199438459,-0.612720115,-0.424298837
877,2197977,1534220,0.936,0.265,0.156,-2.3,4.2,-7.8,-9.1,-36.7,2.2,0.636127812,-0.199377422,-0.612659078,-0.424481948
878,2200170,1534220,0.936,0.276,0.16,-1.8,4.1,-7.4,-9.1,-36.7,2.2,0.636097293,-0.199255348,-0.612628559,-0.424604022
879,2202717,1534220,0.936,0.28,0.16,-1.3,4.1,-7,-9.1,-36.7,2.2,0.636097293,-0.199133274,-0.612598041,-0.424756615
880,2204865,1534230,0.936,0.28,0.164,-0.8,3.8,-6.6,-9.1,-36.8,2.6,0.636066774,-0.1990112,-0.612567522,-0.424878689
881,2208686,1534230,0.932,0.288,0.164,-0.3,3.6,-6.3,-9.1,-36.8,2.6,0.636066774,-0.198919645,-0.612537004,-0.424970244
882,2210952,1534230,0.936,0.292,0.168,0,3.4,-5.9,-9.1,-36.8,2.6,0.636066774,-0.198797571,-0.612506485,-0.425092318
883,2212950,1534230,0.936,0.292,0.164,0.3,3.3,-5.6,-9.1,-36.8,2.6,0.636036256,-0.198675497,-0.612475967,-0.425153356
884,2215168,1534240,0.936,0.296,0.168,0.5,3.2,-5.2,-9.1,-36.8,2.6,0.636036256,-0.198583941,-0.612475967,-0.425244911
885,2217856,1534240,0.936,0.3,0.165,0.6,3.1,-5,-9.1,-36.8,2.6,0.636036256,-0.198461867,-0.612445448,-0.425336467
886,2220486,1534240,0.936,0.304,0.168,0.6,3.1,-4.8,-9.1,-36.8,2.6,0.636036256,-0.198370312,-0.612445448,-0.425397504
887,2222435,1534240,0.936,0.312,0.169,0.8,3,-4.6,-9.1,-36.8,2.6,0.636036256,-0.198278756,-0.61241493,-0.425458541
888,2225856,1534250,0.936,0.312,0.169,0.8,3,-4.6,-9.1,-36.8,2.6,0.636036256,-0.198278756,-0.61241493,-0.425458541
889,2227864,1534250,0.94,0.308,0.168,1.1,2.9,-4.6,-9.1,-36.9,2.2,0.635792108,-0.197668386,-0.612598041,-0.425855281
890,2230090,1534250,0.944,0.307,0.168,1.1,2.9,-4.6,-9.1,-36.9,2.2,0.635822626,-0.197546312,-0.612567522,-0.425916318
891,2233435,1534250,0.944,0.304,0.172,0.9,3,-4.6,-9.1,-36.9,2.2,0.635822626,-0.197454756,-0.612567522,-0.425977355
892,2235426,1534260,0.944,0.307,0.168,0.8,3,-4.5,-8.8,-37.1,1.7,0.635822626,-0.197332682,-0.612537004,-0.426068911
893,2237510,1534260,0.94,0.296,0.168,0.8,2.9,-4.6,-8.8,-37.1,1.7,0.635822626,-0.197241127,-0.612537004,-0.426129948
894,2240477,1534260,0.952,0.3,0.168,0.8,3,-4.7,-8.8,-37.1,1.7,0.635822626,-0.197149571,-0.612506485,-0.426190985
895,2243735,1534260,0.944,0.3,0.168,0.8,3.1,-4.8,-8.8,-37.1,1.7,0.635822626,-0.197027497,-0.612506485,-0.426252022
896,2245926,1534270,0.948,0.296,0.164,0.8,3.2,-4.9,-9.1,-36.5,2,0.635822626,-0.196935942,-0.612475967,-0.426343577
897,2247351,1534270,0.948,0.3,0.164,0.8,3.2,-4.7,-9.1,-36.5,2,0.635822626,-0.196813868,-0.612475967,-0.426404614
898,2250314,1534270,0.952,0.292,0.168,0.6,3.1,-4.5,-9.1,-36.5,2,0.635822626,-0.196722312,-0.612445448,-0.426465651
899,2253538,1534270,0.948,0.296,0.164,0.5,2.9,-4.3,-9.1,-36.5,2,0.635822626,-0.196630757,-0.612445448,-0.426526688
900,2255824,1534280,0.952,0.296,0.164,0.2,2.7,-4.2,-9.1,-37,2.4,0.635822626,-0.196508683,-0.61241493,-0.426587725
901,2257371,1534280,0.956,0.296,0.164,-0.1,2.4,-4,-9.1,-37,2.4,0.635822626,-0.196478164,-0.61241493,-0.426679281
902,2261069,1534280,0.952,0.292,0.156,-0.5,2.2,-3.8,-9.1,-37,2.4,0.635792108,-0.196417127,-0.612384411,-0.426740318
903,2262504,1534280,0.952,0.292,0.156,-0.8,2,-3.6,-9.1,-37,2.4,0.635792108,-0.19635609,-0.612353893,-0.426801355
904,2265563,1534290,0.96,0.292,0.156,-1.2,1.9,-3.6,-9.1,-37,2.4,0.635792108,-0.196295053,-0.612353893,-0.426892911
905,2267811,1534290,0.956,0.288,0.156,-1.5,1.9,-3.6,-9.1,-37,2.4,0.635761589,-0.196264534,-0.612323374,-0.426953948
906,2269955,1534290,0.956,0.288,0.16,-1.7,1.9,-3.4,-9.1,-37,2.4,0.635761589,-0.196203497,-0.612292856,-0.427045503
907,2274138,1534290,0.96,0.288,0.156,-1.8,1.9,-3.2,-9.1,-37,2.4,0.635731071,-0.196172979,-0.612262337,-0.427137059
908,2276232,1534300,0.96,0.288,0.156,-1.8,1.9,-3.2,-9.1,-37,2.4,0.635731071,-0.196172979,-0.612262337,-0.427137059
909,2277813,1534300,0.96,0.28,0.156,-1.9,2,-3.1,-9.7,-37.1,2.4,0.635486923,-0.196020386,-0.612445448,-0.427289651
910,2280191,1534300,0.964,0.284,0.156,-1.9,1.9,-3.1,-9.7,-37.1,2.4,0.635486923,-0.195989868,-0.61241493,-0.427350688
911,2283452,1534300,0.964,0.28,0.156,-2,1.7,-3,-9.7,-37.1,2.4,0.635456404,-0.195959349,-0.612384411,-0.427442244
912,2285823,1534310,0.964,0.276,0.156,-2.1,1.5,-3,-9.5,-36.7,2.1,0.635456404,-0.195928831,-0.612353893,-0.427503281
913,2287213,1534310,0.968,0.28,0.156,-2.1,1.3,-3,-9.5,-36.7,2.1,0.635425886,-0.195928831,-0.612323374,-0.427594836
914,2290099,1534310,0.964,0.272,0.156,-1.9,1.2,-3,-9.5,-36.7,2.1,0.635395367,-0.195898312,-0.612323374,-0.427655873
915,2293382,1534310,0.964,0.272,0.16,-1.7,1.2,-3.1,-9.5,-36.7,2.1,0.635395367,-0.195867794,-0.612292856,-0.427747429
916,2295465,1534320,0.96,0.272,0.16,-1.5,1.3,-3.1,-9.8,-36.7,2.4,0.635364849,-0.195837275,-0.612262337,-0.427808466
917,2297652,1534320,0.968,0.272,0.156,-1.2,1.2,-2.9,-9.8,-36.7,2.4,0.635364849,-0.195806757,-0.612262337,-0.427869503
918,2300877,1534320,0.964,0.276,0.168,-0.9,1.1,-2.7,-9.8,-36.7,2.4,0.63533433,-0.195776238,-0.612231819,-0.42793054
919,2302877,1534320,0.96,0.272,0.168,-0.6,0.9,-2.5,-9.8,-36.7,2.4,0.63533433,-0.195715201,-0.612231819,-0.427961058
920,2306263,1534330,0.956,0.28,0.168,-0.4,0.8,-2.3,-9.8,-37.1,2.4,0.635303812,-0.195684683,-0.612231819,-0.428022095
921,2308507,1534330,0.952,0.28,0.172,0,0.6,-2,-9.8,-37.1,2.4,0.635303812,-0.195654164,-0.612231819,-0.428052614
922,2310922,1534330,0.948,0.28,0.168,0.2,0.4,-1.8,-9.8,-37.1,2.4,0.635303812,-0.195623646,-0.612231819,-0.428083132
923,2312466,1534330,0.952,0.28,0.164,0.5,0.2,-1.7,-9.8,-37.1,2.4,0.635273293,-0.195593127,-0.612231819,-0.428083132
924,2314952,1534340,0.952,0.28,0.168,0.8,0.2,-1.7,-9.8,-37.1,2.4,0.635273293,-0.19553209,-0.612262337,-0.428113651
925,2317211,1534340,0.952,0.28,0.172,1.1,0.2,-1.7,-9.8,-37.1,2.4,0.635273293,-0.19553209,-0.612262337,-0.428113651
926,2320895,1534340,0.948,0.28,0.172,1.4,0.3,-1.7,-9.8,-37.1,2.4,0.635242775,-0.195471053,-0.612292856,-0.428113651
927,2322891,1534340,0.948,0.284,0.172,1.5,0.2,-1.6,-9.8,-37.1,2.4,0.635242775,-0.195440535,-0.612292856,-0.428113651
928,2325138,1534350,0.948,0.284,0.172,1.5,0.2,-1.6,-9.8,-37.1,2.4,0.635242775,-0.195440535,-0.612292856,-0.428113651
929,2328459,1534350,0.944,0.28,0.168,1.7,0.2,-1.2,-9.3,-36.7,2,0.635181738,-0.195287942,-0.61241493,-0.428144169
930,2330487,1534350,0.94,0.28,0.176,1.8,0.3,-1.2,-9.3,-36.7,2,0.635181738,-0.195257424,-0.612445448,-0.428113651
931,2332672,1534350,0.944,0.284,0.168,1.8,0.3,-1.3,-9.3,-36.7,2,0.635181738,-0.195196387,-0.612475967,-0.428113651
932,2335264,1534360,0.94,0.284,0.172,1.8,0.5,-1.4,-9.9,-37.5,1.7,0.635181738,-0.19513535,-0.612475967,-0.428113651
933,2337299,1534360,0.94,0.284,0.164,1.8,0.7,-1.3,-9.9,-37.5,1.7,0.635181738,-0.195104831,-0.612475967,-0.428113651
934,2340570,1534360,0.948,0.288,0.168,1.9,0.9,-1.2,-9.9,-37.5,1.7,0.635181738,-0.195043794,-0.612506485,-0.428113651
935,2342440,1534360,0.944,0.284,0.168,1.9,0.8,-1.1,-9.9,-37.5,1.7,0.635181738,-0.194982757,-0.612506485,-0.428113651
936,2345009,1534370,0.936,0.284,0.168,2,0.7,-1.1,-9.6,-37.1,1.9,0.635212256,-0.194952239,-0.612537004,-0.428083132
937,2347452,1534370,0.94,0.284,0.168,2,0.6,-1.1,-9.6,-37.1,1.9,0.635212256,-0.194891202,-0.612537004,-0.428083132
938,2349802,1534370,0.94,0.284,0.172,1.9,0.5,-1.1,-9.6,-37.1,1.9,0.635212256,-0.194860683,-0.612567522,-0.428083132
939,2354246,1534370,0.94,0.284,0.168,1.8,0.5,-1.1,-9.6,-37.1,1.9,0.635212256,-0.194799646,-0.612567522,-0.428083132
940,2354765,1534380,0.936,0.28,0.172,1.8,0.6,-1.3,-10,-37,1.8,0.635212256,-0.194738609,-0.612598041,-0.428083132
941,2357443,1534380,0.94,0.284,0.172,1.8,0.6,-1.3,-10,-37,1.8,0.635242775,-0.19470809,-0.612598041,-0.428052614
942,2361828,1534380,0.94,0.284,0.164,1.8,0.6,-1.3,-10,-37,1.8,0.635242775,-0.194647053,-0.612628559,-0.428052614
943,2362235,1534380,0.94,0.284,0.172,1.8,0.5,-1.3,-10,-37,1.8,0.635242775,-0.194616535,-0.612628559,-0.428052614
944,2366637,1534390,0.944,0.284,0.168,1.7,0.6,-1.3,-10,-37,1.8,0.635242775,-0.194555498,-0.612659078,-0.428052614
945,2368674,1534390,0.94,0.284,0.172,1.5,0.6,-1.1,-10,-37,1.8,0.635242775,-0.194524979,-0.612659078,-0.428052614
946,2371063,1534390,0.94,0.284,0.176,1.4,0.5,-1,-10,-37,1.8,0.635242775,-0.194463942,-0.612659078,-0.428052614
947,2372639,1534390,0.944,0.292,0.164,1.3,0.4,-1,-10,-37,1.8,0.635242775,-0.194433424,-0.612689596,-0.428052614
948,2375205,1534400,0.944,0.292,0.164,1.3,0.4,-1,-10,-37,1.8,0.635242775,-0.194433424,-0.612689596,-0.428052614
949,2378621,1534400,0.948,0.288,0.164,1.3,0.1,-1.2,-10,-37,2,0.635120701,-0.194250313,-0.61281167,-0.428113651
950,2380160,1534400,0.944,0.288,0.172,1.4,0.1,-1.2,-10,-37,2,0.635120701,-0.194189276,-0.61281167,-0.428113651
951,2384039,1534400,0.944,0.284,0.168,1.4,0,-1,-10,-37,2,0.635120701,-0.194158757,-0.612842189,-0.428113651
952,2386363,1534410,0.944,0.288,0.172,1.5,0,-1,-10,-36.5,2.1,0.635120701,-0.194128239,-0.612872707,-0.428113651
953,2388495,1534410,0.944,0.292,0.168,1.6,-0.1,-1.1,-10,-36.5,2.1,0.635120701,-0.19409772,-0.612872707,-0.428113651
954,2390825,1534410,0.94,0.292,0.168,1.7,-0.1,-1.1,-10,-36.5,2.1,0.635120701,-0.194067202,-0.612903226,-0.428083132
955,2392880,1534410,0.944,0.292,0.168,1.9,0,-1.2,-10,-36.5,2.1,0.635120701,-0.194006165,-0.612933744,-0.428083132
956,2395034,1534420,0.94,0.3,0.168,2.1,-0.1,-1.2,-10.4,-36.8,2.3,0.635090182,-0.193975646,-0.612964263,-0.428083132
957,2398386,1534420,0.944,0.296,0.172,2.3,-0.1,-1.1,-10.4,-36.8,2.3,0.635090182,-0.193914609,-0.612994781,-0.428052614
958,2400355,1534420,0.948,0.296,0.164,2.3,-0.1,-1,-10.4,-36.8,2.3,0.635090182,-0.193884091,-0.6130253,-0.428022095
959,2402230,1534420,0.944,0.292,0.164,2.5,-0.2,-1,-10.4,-36.8,2.3,0.635090182,-0.193823054,-0.613055818,-0.428022095
960,2405449,1534430,0.944,0.296,0.172,2.8,-0.3,-1,-10,-36.6,2.1,0.635090182,-0.193792535,-0.613086337,-0.427991577
961,2407707,1534430,0.948,0.296,0.172,3.1,-0.4,-1,-10,-36.6,2.1,0.635090182,-0.193731498,-0.613116855,-0.427961058
962,2410833,1534430,0.944,0.3,0.172,3.4,-0.5,-1,-10,-36.6,2.1,0.635090182,-0.193670461,-0.613177892,-0.42793054
963,2413951,1534430,0.944,0.3,0.176,3.6,-0.5,-0.8,-10,-36.6,2.1,0.635090182,-0.193578906,-0.613208411,-0.427900021
964,2416093,1534440,0.94,0.3,0.172,3.6,-0.5,-0.6,-10,-36.6,2.1,0.635090182,-0.193548387,-0.613269448,-0.427838984
965,2417464,1534440,0.94,0.307,0.176,3.7,-0.6,-0.5,-10,-36.6,2.1,0.635090182,-0.193517869,-0.613299966,-0.427808466
966,2420479,1534440,0.94,0.307,0.176,3.8,-0.6,-0.5,-10,-36.6,2.1,0.635090182,-0.193456832,-0.613361003,-0.427747429
967,2423502,1534440,0.94,0.304,0.176,4,-0.8,-0.7,-10,-36.6,2.1,0.635090182,-0.193395795,-0.613391522,-0.42771691
968,2425907,1534450,0.94,0.304,0.176,4,-0.8,-0.7,-10,-36.6,2.1,0.635090182,-0.193395795,-0.613391522,-0.42771691
969,2427960,1534450,0.936,0.307,0.176,4.5,-0.9,-0.9,-9.5,-36.5,2.2,0.634907071,-0.192846461,-0.61363567,-0.427900021
970,2430107,1534450,0.936,0.308,0.172,4.6,-0.8,-0.8,-9.5,-36.5,2.2,0.634907071,-0.192785424,-0.613696707,-0.427838984
971,2432694,1534450,0.94,0.307,0.176,4.6,-0.7,-0.8,-9.5,-36.5,2.2,0.634907071,-0.192724387,-0.613757744,-0.427808466
972,2434755,1534460,0.94,0.311,0.176,4.6,-0.6,-0.7,-9.6,-36.7,2.2,0.634907071,-0.19266335,-0.613788263,-0.427747429
973,2438462,1534460,0.94,0.304,0.172,4.6,-0.6,-0.7,-9.6,-36.7,2.2,0.634907071,-0.192571795,-0.6138493,-0.427686392
974,2440886,1534460,0.94,0.304,0.176,4.7,-0.6,-0.7,-9.6,-36.7,2.2,0.634907071,-0.192510758,-0.613910337,-0.427625355
975,2442411,1534460,0.936,0.311,0.18,4.8,-0.4,-0.8,-9.6,-36.7,2.2,0.63493759,-0.192449721,-0.613971374,-0.427564318
976,2446280,1534470,0.94,0.307,0.172,4.9,-0.4,-0.8,-9.9,-37,2.1,0.63493759,-0.192358165,-0.614032411,-0.427533799
977,2448464,1534470,0.936,0.308,0.172,4.8,-0.3,-0.8,-9.9,-37,2.1,0.63493759,-0.192297128,-0.614062929,-0.427472762
978,2449927,1534470,0.936,0.303,0.18,4.8,-0.1,-0.7,-9.9,-37,2.1,0.634968108,-0.192205573,-0.614123966,-0.427411725
979,2452944,1534470,0.94,0.311,0.176,4.7,-0.1,-0.7,-9.9,-37,2.1,0.634968108,-0.192144536,-0.614185003,-0.427350688
980,2454687,1534480,0.936,0.307,0.176,4.7,-0.3,-0.6,-10,-36.8,2.4,0.634968108,-0.192083499,-0.614215522,-0.427289651
981,2458370,1534480,0.936,0.307,0.18,4.6,-0.4,-0.7,-10,-36.8,2.4,0.634968108,-0.191991943,-0.61424604,-0.427259133
982,2459795,1534480,0.936,0.311,0.184,4.5,-0.4,-0.8,-10,-36.8,2.4,0.634998627,-0.191930906,-0.614337596,-0.427198096
983,2462620,1534480,0.936,0.307,0.18,4.4,-0.4,-0.8,-10,-36.8,2.4,0.634998627,-0.191869869,-0.614398633,-0.427137059
984,2466717,1534490,0.936,0.311,0.184,4.3,-0.3,-0.7,-10,-36.8,2.4,0.634998627,-0.191778314,-0.614429151,-0.42710654
985,2468898,1534490,0.94,0.311,0.18,4.3,-0.3,-0.6,-10,-36.8,2.4,0.634998627,-0.191717277,-0.614490188,-0.427045503
986,2471086,1534490,0.94,0.311,0.184,4.2,-0.3,-0.5,-10,-36.8,2.4,0.634998627,-0.191625721,-0.614520707,-0.426984466
987,2472451,1534490,0.944,0.311,0.18,4.1,-0.4,-0.4,-10,-36.8,2.4,0.635029145,-0.191595202,-0.614581744,-0.426953948
988,2476414,1534500,0.944,0.311,0.18,4.1,-0.4,-0.4,-10,-36.8,2.4,0.635029145,-0.191595202,-0.614581744,-0.426953948
989,2478541,1534500,0.94,0.311,0.18,3.7,-0.5,-0.5,-9.9,-36.7,2.4,0.634907071,-0.190984832,-0.614673299,-0.427259133
990,2479893,1534500,0.944,0.311,0.18,3.5,-0.5,-0.4,-9.9,-36.7,2.4,0.634907071,-0.190923795,-0.614703818,-0.427228614
991,2482879,1534500,0.948,0.315,0.176,3.4,-0.4,-0.4,-9.9,-36.7,2.4,0.634907071,-0.190893277,-0.614764855,-0.427167577
992,2485062,1534510,0.944,0.311,0.18,3.3,-0.2,-0.4,-9.9,-36.5,2.3,0.634907071,-0.19083224,-0.614795373,-0.427137059
993,2488397,1534510,0.948,0.311,0.176,3.3,-0.1,-0.5,-9.9,-36.5,2.3,0.634907071,-0.190771203,-0.614825892,-0.42710654
994,2490421,1534510,0.944,0.311,0.176,3.2,0,-0.5,-9.9,-36.5,2.3,0.63493759,-0.190710166,-0.61485641,-0.427045503
995,2492593,1534510,0.948,0.303,0.184,3.1,0.1,-0.4,-9.9,-36.5,2.3,0.63493759,-0.190649129,-0.614886929,-0.427014985
996,2495897,1534520,0.944,0.307,0.176,3.2,0.1,-0.4,-9.8,-36.3,2.2,0.63493759,-0.19061861,-0.614917447,-0.426984466
997,2497844,1534520,0.948,0.299,0.176,3.4,0.2,-0.4,-9.8,-36.3,2.2,0.634968108,-0.190557573,-0.614947966,-0.426953948
998,2500116,1534520,0.952,0.303,0.176,3.7,0.2,-0.4,-9.8,-36.3,2.2,0.634968108,-0.190496536,-0.614978484,-0.426892911
999,2503423,1534520,0.952,0.303,0.172,4,0.2,-0.5,-9.8,-36.3,2.2,0.634998627,-0.190435499,-0.615039521,-0.426862392
1000,2504898,1534530,0.952,0.303,0.172,4.2,0.3,-0.5,-9.9,-36.5,2.5,0.634998627,-0.190374462,-0.61507004,-0.426801355
1001,2509032,1534530,0.952,0.3,0.168,4.2,0.3,-0.6,-9.9,-36.5,2.5,0.635029145,-0.190282907,-0.615100558,-0.426770837
1002,2511178,1534530,0.952,0.3,0.168,3.9,0.4,-0.7,-9.9,-36.5,2.5,0.635029145,-0.19022187,-0.615131077,-0.426709799
1003,2513484,1534530,0.952,0.299,0.172,3.3,0.6,-1,-9.9,-36.5,2.5,0.635059664,-0.190160833,-0.615161596,-0.426679281
1004,2515545,1534540,0.948,0.3,0.168,2.6,0.7,-1.3,-9.9,-36.5,2.5,0.635059664,-0.190099796,-0.615192114,-0.426679281
1005,2517827,1534540,0.952,0.296,0.168,2,0.7,-1.3,-9.9,-36.5,2.5,0.635059664,-0.190038759,-0.615192114,-0.426679281
1006,2521084,1534540,0.952,0.296,0.172,1.5,0.7,-1.4,-9.9,-36.5,2.5,0.635059664,-0.19000824,-0.615192114,-0.426679281
1007,2522475,1534540,0.944,0.296,0.172,1.3,0.7,-1.3,-9.9,-36.5,2.5,0.635059664,-0.189947203,-0.615222633,-0.426679281
1008,2525438,1534550,0.944,0.296,0.172,1.3,0.7,-1.3,-9.9,-36.5,2.5,0.635059664,-0.189947203,-0.615222633,-0.426679281
1009,2528590,1534550,0.948,0.292,0.168,1.1,0.6,-1.3,-9.5,-36.4,2.2,0.634968108,-0.189672536,-0.615314188,-0.426801355
1010,2529995,1534550,0.948,0.288,0.168,0.9,0.6,-1.2,-9.5,-36.4,2.2,0.634968108,-0.189672536,-0.615344707,-0.426801355
1011,2532977,1534550,0.944,0.3,0.172,0.9,0.5,-1.1,-9.5,-36.4,2.2,0.634968108,-0.189642018,-0.615344707,-0.426801355
