sample_index,elapsed_us,device_time_ms,acc_x_g,acc_y_g,acc_z_g,gyro_x_dps,gyro_y_dps,gyro_z_dps,mag_x_ut,mag_y_ut,mag_z_ut,quat_w,quat_x,quat_y,quat_z
0,3216,1228370,-0.643,-0.503,0.601,1.2,1.8,-1.9,3.9,-9,-24.7,0.514175848,0.13104648,0.437910092,-0.725699637
1,5395,1228370,-0.647,-0.503,0.597,1.3,1.7,-1.8,3.9,-9,-24.7,0.514114811,0.13104648,0.437910092,-0.725730155
2,7641,1228380,-0.643,-0.503,0.597,1.3,1.8,-1.7,3.9,-9,-24.7,0.514084292,0.131076998,0.437910092,-0.725760674
3,10425,1228380,-0.647,-0.503,0.605,1.2,1.8,-1.7,3.9,-9,-24.7,0.514023255,0.131076998,0.437910092,-0.725791192
4,13434,1228380,-0.647,-0.503,0.597,1.1,2,-1.6,4,-8.6,-24.7,0.513962218,0.131138035,0.437910092,-0.725821711
5,15133,1228380,-0.647,-0.503,0.597,1.1,2.1,-1.6,4,-8.6,-24.7,0.5139317,0.131168554,0.437940611,-0.725821711
6,18716,1228390,-0.647,-0.503,0.601,1.2,2.2,-1.4,4,-8.6,-24.7,0.513870663,0.131199072,0.437940611,-0.725852229
7,20167,1228390,-0.643,-0.503,0.608,1.3,2.4,-1.4,4,-8.6,-24.7,0.513840144,0.131260109,0.437940611,-0.725882748
8,23377,1228390,-0.647,-0.499,0.601,1.3,2.4,-1.4,4.2,-7.8,-24.5,0.513779107,0.131290628,0.437971129,-0.725913266
9,25483,1228390,-0.647,-0.499,0.605,1.1,2.6,-1.4,4.2,-7.8,-24.5,0.51371807,0.131321146,0.437971129,-0.725913266
10,28551,1228400,-0.647,-0.495,0.597,1,2.6,-1.2,4.2,-7.8,-24.5,0.513687551,0.131382183,0.437971129,-0.725943785
11,30172,1228400,-0.647,-0.499,0.593,0.9,2.4,-1.2,4.2,-7.8,-24.5,0.513626514,0.131412702,0.437971129,-0.725943785
12,32857,1228400,-0.647,-0.495,0.593,0.9,2.4,-1.1,4,-6.8,-24.5,0.513657033,0.131473739,0.437849055,-0.726004822
13,35772,1228400,-0.647,-0.495,0.593,0.8,2.4,-1.1,4,-6.8,-24.5,0.513626514,0.131504257,0.437849055,-0.72603534
14,38835,1228410,-0.651,-0.503,0.593,0.8,2.3,-1.1,4,-6.8,-24.5,0.513595996,0.131534776,0.437879574,-0.72603534
15,40270,1228410,-0.647,-0.499,0.593,0.7,2.3,-1,4,-6.8,-24.5,0.513534959,0.131595813,0.437879574,-0.726065859
16,43435,1228410,-0.651,-0.495,0.593,0.5,2.4,-1.1,3.6,-7.8,-22.7,0.51350444,0.131626331,0.437910092,-0.726065859
17,45509,1228410,-0.651,-0.495,0.589,0.4,2.5,-1.1,3.6,-7.8,-22.7,0.513443403,0.13165685,0.437940611,-0.726065859
18,48684,1228420,-0.651,-0.495,0.589,0.4,2.7,-1.2,3.6,-7.8,-22.7,0.513412885,0.131687368,0.437971129,-0.726096377
19,50197,1228420,-0.651,-0.491,0.593,0.2,2.7,-1.2,3.6,-7.8,-22.7,0.513351848,0.131717887,0.437971129,-0.726096377
20,53736,1228420,-0.651,-0.499,0.585,0.1,2.7,-1.1,3.6,-7.4,-24.1,0.513321329,0.131748405,0.438032167,-0.726096377
21,55227,1228420,-0.651,-0.495,0.589,0,2.6,-1,3.6,-7.4,-24.1,0.513260292,0.131778924,0.438062685,-0.726096377
22,58185,1228430,-0.651,-0.495,0.589,0,2.7,-1,3.6,-7.4,-24.1,0.513229774,0.131809442,0.438093204,-0.726096377
23,60494,1228430,-0.651,-0.495,0.581,-0.1,2.8,-1.1,3.6,-7.4,-24.1,0.513199255,0.131839961,0.438123722,-0.726126896
24,62820,1228430,-0.655,-0.495,0.585,-0.3,2.8,-1.2,3.8,-7.7,-24.2,0.513138218,0.131870479,0.438184759,-0.726126896
25,65361,1228430,-0.655,-0.495,0.593,-0.4,2.8,-1.2,3.8,-7.7,-24.2,0.513077181,0.131900998,0.438215278,-0.726126896
26,68761,1228440,-0.651,-0.499,0.589,-0.5,2.7,-1.1,3.8,-7.7,-24.2,0.513046663,0.131931516,0.438245796,-0.726126896
27,70251,1228440,-0.655,-0.511,0.593,-0.4,2.6,-1,3.8,-7.7,-24.2,0.513016144,0.131962035,0.438306833,-0.726126896
28,72780,1228440,-0.655,-0.511,0.593,-0.3,2.5,-1,3.8,-7.4,-24,0.512955107,0.131992553,0.438337352,-0.726126896
29,76258,1228440,-0.655,-0.511,0.589,-0.1,2.5,-0.9,3.8,-7.4,-24,0.512924589,0.132023072,0.43836787,-0.726126896
30,77826,1228450,-0.655,-0.519,0.597,0,2.3,-0.9,3.8,-7.4,-24,0.51289407,0.132053591,0.438398389,-0.726126896
31,82076,1228450,-0.651,-0.515,0.589,0.2,2.3,-0.9,3.8,-7.4,-24,0.512863552,0.132053591,0.438428907,-0.726126896
32,84300,1228450,-0.655,-0.515,0.593,0.4,2.3,-0.9,3.9,-7.1,-23.2,0.512802515,0.132053591,0.438459426,-0.726157414
33,86500,1228450,-0.651,-0.515,0.593,0.5,2.3,-0.7,3.9,-7.1,-23.2,0.512771996,0.132114628,0.438489944,-0.726157414
34,88644,1228460,-0.659,-0.515,0.585,0.5,2.3,-0.7,3.9,-7.1,-23.2,0.512741478,0.132175665,0.438489944,-0.726157414
35,91042,1228460,-0.655,-0.511,0.589,0.7,2.3,-0.6,3.9,-7.1,-23.2,0.512680441,0.132206183,0.438520463,-0.726157414
36,93285,1228460,-0.659,-0.511,0.589,0.8,2.2,-0.6,4,-8,-25,0.512649922,0.132236702,0.438520463,-0.726187933
37,95571,1228460,-0.651,-0.511,0.589,1,2.2,-0.5,4,-8,-25,0.512619404,0.132297739,0.438550981,-0.726187933
38,97819,1228470,-0.651,-0.507,0.589,1.1,2.1,-0.4,4,-8,-25,0.512588885,0.132328257,0.438550981,-0.726187933
39,102098,1228470,-0.655,-0.511,0.593,1.2,2,-0.3,4,-8,-25,0.512558367,0.132358776,0.438550981,-0.726218451
40,102708,1228470,-0.655,-0.511,0.581,1.3,1.9,-0.3,3.7,-7.9,-22,0.512527848,0.132419813,0.438550981,-0.726218451
41,106553,1228470,-0.655,-0.507,0.589,1.4,1.9,-0.1,3.7,-7.9,-22,0.512527848,0.132450331,0.438550981,-0.726218451
42,108860,1228480,-0.651,-0.507,0.589,1.5,2,0,3.7,-7.9,-22,0.51249733,0.132511368,0.438550981,-0.72624897
43,111281,1228480,-0.651,-0.507,0.593,1.5,2,0.1,3.7,-7.9,-22,0.512466811,0.132541887,0.438550981,-0.72624897
44,114086,1228480,-0.655,-0.503,0.589,1.4,1.9,0.3,3.8,-7.3,-21.5,0.512466811,0.132602924,0.438550981,-0.72624897
45,116796,1228480,-0.647,-0.507,0.585,1.3,1.8,0.3,3.8,-7.3,-21.5,0.512436293,0.132663961,0.438550981,-0.72624897
46,118945,1228490,-0.647,-0.503,0.585,1.3,1.7,0.6,3.8,-7.3,-21.5,0.512436293,0.132694479,0.438550981,-0.72624897
47,121171,1228490,-0.647,-0.507,0.581,1.2,1.6,0.7,3.8,-7.3,-21.5,0.512405774,0.132755516,0.438520463,-0.72624897
48,123647,1228490,-0.647,-0.507,0.581,1,1.6,0.9,3.5,-7.9,-21.6,0.512405774,0.132786035,0.438520463,-0.72624897
49,125861,1228490,-0.647,-0.503,0.589,0.7,1.6,1,3.5,-7.9,-21.6,0.512405774,0.132847072,0.438550981,-0.726218451
50,128078,1228500,-0.651,-0.503,0.585,0.4,1.6,1,3.5,-7.9,-21.6,0.512405774,0.13287759,0.438550981,-0.726218451
51,130334,1228500,-0.647,-0.499,0.589,0.1,1.7,1.1,3.5,-7.9,-21.6,0.512405774,0.132908109,0.438550981,-0.726218451
52,133190,1228500,-0.647,-0.499,0.589,0,1.7,1.1,3.6,-7.7,-21.7,0.512436293,0.132969146,0.438550981,-0.726187933
53,135596,1228500,-0.647,-0.499,0.589,-0.2,1.7,1.1,3.6,-7.7,-21.7,0.512436293,0.132999664,0.4385815,-0.726157414
54,137862,1228510,-0.651,-0.495,0.581,-0.4,1.7,1.1,3.6,-7.7,-21.7,0.512436293,0.133030183,0.4385815,-0.726157414
55,140380,1228510,-0.647,-0.499,0.589,-0.5,1.5,1.1,3.6,-7.7,-21.7,0.512436293,0.133030183,0.438612018,-0.726126896
56,144503,1228510,-0.647,-0.492,0.585,-0.6,1.4,1.1,3.8,-7.8,-25,0.512436293,0.13309122,0.438642537,-0.726096377
57,146684,1228510,-0.647,-0.499,0.581,-0.8,1.4,1.2,3.8,-7.8,-25,0.512466811,0.133121738,0.438673055,-0.726065859
58,148440,1228520,-0.647,-0.495,0.585,-1,1.4,1.2,3.8,-7.8,-25,0.512466811,0.133152257,0.438703574,-0.72603534
59,150247,1228520,-0.651,-0.495,0.585,-1.1,1.4,1.1,3.8,-7.8,-25,0.512466811,0.133152257,0.438734092,-0.72603534
60,153353,1228520,-0.651,-0.499,0.585,-1.1,1.4,1.1,4,-7.7,-23.6,0.512466811,0.133182775,0.438764611,-0.726004822
61,155568,1228520,-0.647,-0.503,0.589,-1.1,1.4,0.9,4,-7.7,-23.6,0.51249733,0.133213294,0.438795129,-0.725974303
62,157783,1228530,-0.643,-0.507,0.589,-1,1.4,0.8,4,-7.7,-23.6,0.51249733,0.133213294,0.438825648,-0.725943785
63,160453,1228530,-0.647,-0.503,0.589,-1,1.5,0.8,4,-7.7,-23.6,0.51249733,0.133243812,0.438856166,-0.725913266
64,163837,1228530,-0.647,-0.503,0.593,-0.9,1.5,0.6,4.2,-7.6,-24.5,0.51249733,0.133274331,0.438886685,-0.725882748
65,165304,1228530,-0.643,-0.507,0.589,-0.8,1.6,0.5,4.2,-7.6,-24.5,0.512466811,0.133274331,0.438917203,-0.725882748
66,168676,1228540,-0.643,-0.503,0.589,-0.6,1.6,0.4,4.2,-7.6,-24.5,0.512466811,0.133304849,0.438947722,-0.725852229
67,170212,1228540,-0.651,-0.511,0.593,-0.4,1.6,0.4,4.2,-7.6,-24.5,0.512466811,0.133335368,0.43897824,-0.725852229
68,173848,1228540,-0.647,-0.503,0.589,-0.1,1.6,0.4,3.6,-7.7,-24.3,0.512466811,0.133365886,0.43897824,-0.725821711
69,175367,1228540,-0.651,-0.507,0.593,0,1.5,0.4,3.6,-7.7,-24.3,0.512436293,0.133396405,0.439008759,-0.725821711
70,179216,1228550,-0.651,-0.507,0.589,0.4,1.5,0.2,3.6,-7.7,-24.3,0.512436293,0.133426923,0.439008759,-0.725821711
71,181368,1228550,-0.647,-0.503,0.593,0.5,1.5,0.1,3.6,-7.7,-24.3,0.512436293,0.133457442,0.439008759,-0.725821711
72,183638,1228550,-0.643,-0.503,0.593,0.8,1.5,0,4.1,-7.7,-24.9,0.512436293,0.133457442,0.438947722,-0.725852229
73,185969,1228550,-0.643,-0.503,0.593,1,1.4,-0.1,4.1,-7.7,-24.9,0.512405774,0.13348796,0.438947722,-0.725882748
74,188199,1228560,-0.647,-0.503,0.589,1.2,1.2,-0.2,4.1,-7.7,-24.9,0.512405774,0.133518479,0.438947722,-0.725882748
75,190627,1228560,-0.647,-0.499,0.593,1.4,1,-0.2,4.1,-7.7,-24.9,0.512375256,0.133548997,0.438917203,-0.725882748
76,192859,1228560,-0.647,-0.499,0.593,1.4,1,-0.2,4.1,-7.7,-24.9,0.512375256,0.133548997,0.438917203,-0.725882748
77,195390,1228560,-0.643,-0.496,0.589,1.5,0.9,0,3.9,-7.9,-23.6,0.512344737,0.133610034,0.438917203,-0.725913266
78,198744,1228570,-0.647,-0.495,0.585,1.5,1,-0.1,3.9,-7.9,-23.6,0.512314219,0.133640553,0.438886685,-0.725943785
79,200408,1228570,-0.647,-0.495,0.597,1.6,1.1,-0.1,3.9,-7.9,-23.6,0.512314219,0.13370159,0.438886685,-0.725943785
80,202881,1228570,-0.647,-0.492,0.589,1.6,1.1,-0.3,4,-8.2,-23.6,0.5122837,0.133732109,0.438856166,-0.725974303
81,205121,1228570,-0.643,-0.499,0.593,1.5,1.2,-0.3,4,-8.2,-23.6,0.512253182,0.133762627,0.438856166,-0.725974303
82,208565,1228580,-0.647,-0.499,0.589,1.5,1.2,-0.4,4,-8.2,-23.6,0.512253182,0.133793146,0.438856166,-0.726004822
83,210202,1228580,-0.643,-0.499,0.593,1.3,1.2,-0.5,4,-8.2,-23.6,0.512222663,0.133823664,0.438856166,-0.726004822
84,213775,1228580,-0.647,-0.499,0.597,1.2,1,-0.7,4.5,-7.8,-23.3,0.512192145,0.133854183,0.438825648,-0.72603534
85,215439,1228580,-0.639,-0.503,0.593,1.1,1,-0.6,4.5,-7.8,-23.3,0.512161626,0.133854183,0.438825648,-0.72603534
86,218609,1228590,-0.643,-0.503,0.589,1,1.1,-0.6,4.5,-7.8,-23.3,0.512131108,0.133884701,0.438825648,-0.726065859
87,220168,1228590,-0.643,-0.503,0.589,1,1.2,-0.6,4.5,-7.8,-23.3,0.512131108,0.13391522,0.438825648,-0.726065859
88,223678,1228590,-0.643,-0.507,0.593,0.9,1.2,-0.5,4,-8,-23.4,0.512100589,0.133945738,0.438825648,-0.726065859
89,225360,1228590,-0.643,-0.503,0.601,0.8,1.1,-0.6,4,-8,-23.4,0.51207007,0.133945738,0.438825648,-0.726096377
90,228427,1228600,-0.643,-0.507,0.604,0.8,1.1,-0.6,4,-8,-23.4,0.512039552,0.133976257,0.438825648,-0.726096377
91,231402,1228600,-0.651,-0.511,0.601,0.7,1.2,-0.7,4,-8,-23.4,0.512009033,0.134006775,0.438825648,-0.726126896
92,232855,1228600,-0.647,-0.511,0.593,0.7,1.2,-0.6,3.9,-8,-23.4,0.512009033,0.13391522,0.438703574,-0.726218451
93,235979,1228600,-0.643,-0.507,0.601,0.7,1.3,-0.6,3.9,-8,-23.4,0.512009033,0.133945738,0.438703574,-0.726218451
94,237715,1228610,-0.647,-0.511,0.593,0.7,1.2,-0.6,3.9,-8,-23.4,0.511978515,0.133976257,0.438703574,-0.72624897
95,241197,1228610,-0.651,-0.503,0.589,0.8,1.1,-0.6,3.9,-8,-23.4,0.511947996,0.133976257,0.438703574,-0.72624897
96,242727,1228610,-0.647,-0.507,0.597,0.8,1,-0.6,2.3,-8.1,-23.3,0.511917478,0.134006775,0.438703574,-0.72624897
97,245125,1228610,-0.647,-0.499,0.589,0.8,1,-0.6,2.3,-8.1,-23.3,0.511917478,0.134006775,0.438703574,-0.726279489
98,247819,1228620,-0.651,-0.495,0.593,0.7,0.9,-0.6,2.3,-8.1,-23.3,0.511886959,0.134006775,0.438703574,-0.726279489
99,250966,1228620,-0.647,-0.499,0.593,0.7,0.8,-0.6,2.3,-8.1,-23.3,0.511856441,0.134067812,0.438703574,-0.726310007
100,254433,1228620,-0.647,-0.499,0.593,0.8,0.7,-0.6,5.6,-7.8,-23.4,0.511825922,0.134067812,0.438703574,-0.726310007
101,256684,1228620,-0.647,-0.495,0.593,0.9,0.7,-0.7,5.6,-7.8,-23.4,0.511825922,0.134098331,0.438703574,-0.726340526
102,258077,1228630,-0.647,-0.499,0.597,1,0.7,-0.8,5.6,-7.8,-23.4,0.511795404,0.134098331,0.438703574,-0.726340526
103,260328,1228630,-0.643,-0.499,0.593,0.8,0.8,-0.8,5.6,-7.8,-23.4,0.511764885,0.134128849,0.438703574,-0.726371044
104,263310,1228630,-0.647,-0.503,0.593,0.7,0.9,-0.9,5.5,-8.1,-23.4,0.511734367,0.134128849,0.438703574,-0.726371044
105,266299,1228630,-0.639,-0.503,0.596,0.7,0.9,-0.9,5.5,-8.1,-23.4,0.511703848,0.134159368,0.438703574,-0.726401563
106,267795,1228640,-0.643,-0.496,0.593,0.7,1,-1,5.5,-8.1,-23.4,0.51167333,0.134159368,0.438703574,-0.726401563
107,270962,1228640,-0.643,-0.499,0.593,0.8,0.9,-0.8,5.5,-8.1,-23.4,0.51167333,0.134189886,0.438703574,-0.726432081
108,272776,1228640,-0.647,-0.499,0.589,0.8,0.9,-0.7,5.9,-7.7,-23.4,0.511642811,0.134189886,0.438703574,-0.726432081
109,276333,1228640,-0.647,-0.499,0.593,0.8,0.9,-0.7,5.9,-7.7,-23.4,0.511612293,0.134220405,0.438703574,-0.7264626
110,277776,1228650,-0.651,-0.499,0.597,0.7,0.9,-0.7,5.9,-7.7,-23.4,0.511581774,0.134220405,0.438703574,-0.7264626
111,280963,1228650,-0.643,-0.499,0.593,0.7,0.8,-0.7,5.9,-7.7,-23.4,0.511581774,0.134250923,0.438703574,-0.7264626
112,283218,1228650,-0.643,-0.503,0.604,0.7,0.8,-0.7,5.7,-8,-23.4,0.511612293,0.134250923,0.438550981,-0.726523637
113,285478,1228650,-0.643,-0.503,0.604,0.8,0.9,-0.7,5.7,-8,-23.4,0.511581774,0.134250923,0.438550981,-0.726554155
114,288511,1228660,-0.643,-0.499,0.597,0.8,0.9,-0.6,5.7,-8,-23.4,0.511551256,0.134281442,0.438550981,-0.726554155
115,290326,1228660,-0.647,-0.507,0.593,0.8,0.8,-0.6,5.7,-8,-23.4,0.511551256,0.13431196,0.438550981,-0.726584674
116,293733,1228660,-0.651,-0.507,0.593,1,0.8,-0.5,3.8,-8,-23.4,0.511520737,0.13431196,0.438550981,-0.726584674
117,295245,1228660,-0.651,-0.507,0.597,1.1,0.7,-0.5,3.8,-8,-23.4,0.511490219,0.134342479,0.438520463,-0.726615192
118,297867,1228670,-0.651,-0.507,0.597,1.3,0.7,-0.6,3.8,-8,-23.4,0.511490219,0.134372997,0.438520463,-0.726615192
119,301249,1228670,-0.655,-0.511,0.589,1.5,0.8,-0.6,3.8,-8,-23.4,0.5114597,0.134372997,0.438520463,-0.726645711
120,302637,1228670,-0.651,-0.507,0.597,1.7,0.9,-0.6,3.6,-7.9,-23.2,0.511429182,0.134403516,0.438489944,-0.726676229
121,306222,1228670,-0.651,-0.511,0.597,1.9,1,-0.6,3.6,-7.9,-23.2,0.511398663,0.134434034,0.438489944,-0.726676229
122,308460,1228680,-0.647,-0.511,0.589,2.2,1,-0.5,3.6,-7.9,-23.2,0.511368145,0.134495071,0.438459426,-0.726706748
123,310620,1228680,-0.647,-0.511,0.593,2.6,0.7,-0.5,3.6,-7.9,-23.2,0.511368145,0.13452559,0.438428907,-0.726737266
124,312833,1228680,-0.651,-0.511,0.597,2.9,0.5,-0.4,2.7,-7.8,-23.1,0.511337626,0.134556108,0.438398389,-0.726767785
125,315984,1228680,-0.647,-0.515,0.593,3.2,0.5,-0.5,2.7,-7.8,-23.1,0.511307108,0.134586627,0.438337352,-0.726798303
126,318172,1228690,-0.651,-0.507,0.597,3.2,0.6,-0.5,2.7,-7.8,-23.1,0.511276589,0.134647664,0.438306833,-0.726828822
127,320362,1228690,-0.647,-0.507,0.593,3.2,0.7,-0.4,2.7,-7.8,-23.1,0.511246071,0.134678182,0.438245796,-0.726889859
128,323596,1228690,-0.651,-0.507,0.593,3.3,0.8,-0.3,1.9,-8.2,-23,0.511246071,0.134739219,0.438215278,-0.726920377
129,325210,1228690,-0.647,-0.503,0.585,3.5,0.9,-0.3,1.9,-8.2,-23,0.511215552,0.134769738,0.438154241,-0.726950896
130,328497,1228700,-0.647,-0.499,0.589,3.6,0.9,-0.4,1.9,-8.2,-23,0.511185034,0.134830775,0.438123722,-0.726981414
131,330175,1228700,-0.651,-0.499,0.593,3.8,0.9,-0.4,1.9,-8.2,-23,0.511154515,0.134891812,0.438062685,-0.727011933
132,333660,1228700,-0.643,-0.503,0.597,3.8,0.9,-0.4,0.8,-8,-22.9,0.511154515,0.13492233,0.437971129,-0.72707297
133,335271,1228700,-0.647,-0.503,0.589,3.6,0.9,-0.3,0.8,-8,-22.9,0.511123997,0.134983367,0.437910092,-0.727134007
134,337865,1228710,-0.647,-0.499,0.593,3.5,1,-0.3,0.8,-8,-22.9,0.511093478,0.134983367,0.437879574,-0.727164525
135,341203,1228710,-0.647,-0.507,0.593,3.3,1,-0.3,0.8,-8,-22.9,0.51106296,0.135074923,0.437818537,-0.727195044
136,342771,1228710,-0.651,-0.507,0.597,3.2,1.2,-0.2,5.3,-9,-23.3,0.51106296,0.13513596,0.437788018,-0.727225562
137,345311,1228710,-0.647,-0.507,0.597,3.1,1.3,-0.1,5.3,-9,-23.3,0.511032441,0.135196997,0.4377575,-0.727256081
138,348678,1228720,-0.643,-0.503,0.593,2.9,1.4,-0.1,5.3,-9,-23.3,0.511001923,0.135258034,0.437726981,-0.727286599
139,350309,1228720,-0.647,-0.503,0.597,2.8,1.5,-0.1,5.3,-9,-23.3,0.510971404,0.135288553,0.437696463,-0.727286599
140,352748,1228720,-0.647,-0.511,0.593,2.8,1.5,-0.1,1.9,-7.2,-23.6,0.510940886,0.13534959,0.437665944,-0.727317118
141,355126,1228720,-0.647,-0.507,0.593,2.9,1.5,-0.1,1.9,-7.2,-23.6,0.510940886,0.135410627,0.437635426,-0.727347636
142,358547,1228730,-0.643,-0.511,0.593,3,1.5,0,1.9,-7.2,-23.6,0.510910367,0.135471664,0.437604907,-0.727378155
143,360467,1228730,-0.647,-0.511,0.589,3,1.5,0,1.9,-7.2,-23.6,0.510879849,0.135532701,0.437574389,-0.727408673
144,364131,1228730,-0.643,-0.507,0.589,3.1,1.6,0,2.4,-7.2,-23.4,0.51084933,0.135593738,0.43754387,-0.727408673
145,366326,1228730,-0.639,-0.504,0.589,3.2,1.6,0,2.4,-7.2,-23.4,0.510818812,0.135654775,0.437513352,-0.727439192
146,367866,1228740,-0.639,-0.511,0.585,3.2,1.8,0,2.4,-7.2,-23.4,0.510788293,0.135715812,0.437482833,-0.72746971
147,370398,1228740,-0.635,-0.511,0.585,3.1,1.8,0,2.4,-7.2,-23.4,0.510788293,0.135776849,0.437452315,-0.727500229
148,373815,1228740,-0.643,-0.511,0.589,3.1,2,0,3.5,-7,-23.3,0.510757775,0.135837886,0.437421796,-0.727530747
149,375328,1228740,-0.639,-0.507,0.585,3.2,2.2,0,3.5,-7,-23.3,0.510727256,0.135929441,0.437391278,-0.727530747
150,377720,1228750,-0.639,-0.511,0.589,3.3,2.4,0,3.5,-7,-23.3,0.510666219,0.13595996,0.437391278,-0.727530747
151,380139,1228750,-0.639,-0.511,0.589,3.3,2.5,0.1,3.5,-7,-23.3,0.510635701,0.136082034,0.437360759,-0.727591784
152,383399,1228750,-0.639,-0.511,0.589,3.5,2.7,0.1,4.6,-6.8,-23.3,0.510544145,0.13595996,0.437330241,-0.72768334
153,385624,1228750,-0.639,-0.507,0.589,3.5,2.7,0.1,4.6,-6.8,-23.3,0.510513627,0.136082034,0.437299722,-0.727713858
154,387997,1228760,-0.639,-0.511,0.585,3.6,2.7,0.1,4.6,-6.8,-23.3,0.510483108,0.136143071,0.437269204,-0.727744377
155,390221,1228760,-0.643,-0.511,0.589,3.6,2.9,0.1,4.6,-6.8,-23.3,0.510452589,0.136234626,0.437238685,-0.727774895
156,392870,1228760,-0.643,-0.519,0.585,3.5,3,0.1,3.9,-9,-23.5,0.510422071,0.136326182,0.437238685,-0.727774895
157,396345,1228760,-0.639,-0.519,0.585,3.6,3.2,0.1,3.9,-9,-23.5,0.510361034,0.136417737,0.437208167,-0.727805414
158,398551,1228770,-0.643,-0.515,0.593,3.7,3.2,0,3.9,-9,-23.5,0.510330515,0.136509293,0.437177648,-0.727835932
159,400723,1228770,-0.643,-0.519,0.585,3.8,3.2,0,3.9,-9,-23.5,0.510299997,0.136600848,0.43714713,-0.727866451
160,403016,1228770,-0.643,-0.515,0.581,3.8,3.3,0,4.2,-6.8,-23.4,0.51023896,0.136722922,0.437116611,-0.72789697
161,405244,1228770,-0.643,-0.515,0.577,3.9,3.5,-0.1,4.2,-6.8,-23.4,0.510208441,0.136814478,0.437116611,-0.727927488
162,407789,1228780,-0.643,-0.515,0.577,4.1,3.7,-0.1,4.2,-6.8,-23.4,0.510147404,0.136906034,0.437086093,-0.727958007
163,411204,1228780,-0.639,-0.519,0.581,4.3,3.8,0,4.2,-6.8,-23.4,0.510086367,0.137028108,0.437055574,-0.727988525
164,412811,1228780,-0.643,-0.515,0.573,4.6,4.1,0,4.5,-6.9,-22.9,0.510055849,0.137150182,0.437025056,-0.728019044
165,415900,1228780,-0.643,-0.515,0.577,4.9,4.3,0,4.5,-6.9,-22.9,0.509994812,0.137272256,0.436994537,-0.728049562
166,418021,1228790,-0.643,-0.515,0.581,5.1,4.3,0,4.5,-6.9,-22.9,0.509933775,0.13739433,0.436964019,-0.728080081
167,421096,1228790,-0.639,-0.511,0.577,5.2,4.4,-0.1,4.5,-6.9,-22.9,0.509872738,0.137516404,0.4369335,-0.728110599
168,422786,1228790,-0.639,-0.515,0.577,5.4,4.4,-0.1,4.2,-7.5,-23.2,0.509811701,0.137638478,0.436902982,-0.728171636
169,425491,1228790,-0.643,-0.515,0.577,5.7,4.6,-0.3,4.2,-7.5,-23.2,0.509750664,0.13779107,0.436841945,-0.728202155
170,428593,1228800,-0.639,-0.511,0.577,5.8,4.7,-0.5,4.2,-7.5,-23.2,0.509659108,0.137913144,0.436811426,-0.728263192
171,430271,1228800,-0.635,-0.511,0.577,6,4.7,-0.8,4.2,-7.5,-23.2,0.509598071,0.138065737,0.436780908,-0.72829371
172,432735,1228800,-0.639,-0.511,0.581,6.2,4.9,-0.9,4.1,-8,-23,0.509384442,0.1380047,0.436872463,-0.728385266
173,436972,1228800,-0.639,-0.511,0.581,6.3,5,-1,4.1,-8,-23,0.509323405,0.138126774,0.436841945,-0.728446303
174,439179,1228810,-0.643,-0.503,0.577,6.3,5.1,-1.1,4.1,-8,-23,0.509231849,0.138279366,0.436780908,-0.72850734
175,441384,1228810,-0.635,-0.508,0.569,6.3,5.2,-1.3,4.1,-8,-23,0.509140294,0.13840144,0.436750389,-0.728568377
176,442869,1228810,-0.639,-0.511,0.573,6.4,5.4,-1.5,3.9,-7.2,-23.2,0.509048738,0.138554033,0.436719871,-0.728629414
177,445173,1228810,-0.635,-0.508,0.573,6.3,5.5,-1.6,3.9,-7.2,-23.2,0.508926664,0.138706626,0.436689352,-0.728690451
178,447785,1228820,-0.643,-0.5,0.569,6.2,5.8,-1.9,3.9,-7.2,-23.2,0.508835108,0.138859218,0.436658834,-0.728751488
179,451115,1228820,-0.647,-0.503,0.573,6,6.1,-2.2,3.9,-7.2,-23.2,0.508713034,0.138981292,0.436628315,-0.728812525
180,452802,1228820,-0.643,-0.496,0.569,5.7,6.5,-2.4,4.2,-9.9,-23.1,0.50859096,0.139133885,0.436628315,-0.728873562
181,455226,1228820,-0.647,-0.499,0.573,5.6,6.7,-2.6,4.2,-9.9,-23.1,0.508468886,0.139286477,0.436597797,-0.728965117
182,458624,1228830,-0.651,-0.499,0.573,5.5,6.8,-2.8,4.2,-9.9,-23.1,0.508346812,0.139408551,0.436597797,-0.729026154
183,460191,1228830,-0.651,-0.499,0.573,5.6,6.8,-3.1,4.2,-9.9,-23.1,0.508224738,0.139561144,0.436597797,-0.729087191
184,462777,1228830,-0.647,-0.499,0.569,5.7,6.8,-3.4,4.3,-10,-23.1,0.508072146,0.139713736,0.436597797,-0.729148228
185,466160,1228830,-0.651,-0.499,0.573,5.8,6.8,-3.8,4.3,-10,-23.1,0.507950072,0.13983581,0.436597797,-0.729239784
186,468365,1228840,-0.651,-0.507,0.573,5.9,6.9,-4,4.3,-10,-23.1,0.507797479,0.139988403,0.436597797,-0.729300821
187,470678,1228840,-0.651,-0.515,0.577,6,7,-4.2,4.3,-10,-23.1,0.507644887,0.140110477,0.436567278,-0.729392376
188,472832,1228840,-0.655,-0.519,0.581,6,7.1,-4.4,4.5,-10.2,-23,0.507492294,0.14026307,0.436567278,-0.729483932
189,475209,1228840,-0.647,-0.519,0.585,6.1,7.1,-4.6,4.5,-10.2,-23,0.507309183,0.140385144,0.436567278,-0.729575488
190,477777,1228850,-0.655,-0.523,0.585,6.3,7.1,-4.9,4.5,-10.2,-23,0.50715659,0.140537736,0.436567278,-0.729667043
191,481863,1228850,-0.652,-0.527,0.581,6.6,7,-5.3,4.5,-10.2,-23,0.506973479,0.14065981,0.43653676,-0.729758599
192,484195,1228850,-0.652,-0.535,0.581,7,7.1,-5.7,4.1,-10,-22.8,0.506729331,0.14065981,0.436628315,-0.729880673
193,486395,1228850,-0.652,-0.535,0.589,7.4,7.2,-5.9,4.1,-10,-22.8,0.506515702,0.140812403,0.436628315,-0.730002747
194,488685,1228860,-0.652,-0.535,0.589,7.8,7.3,-6.2,4.1,-10,-22.8,0.506332591,0.140964995,0.436597797,-0.730124821
195,490959,1228860,-0.644,-0.539,0.585,8.4,7.3,-6.5,4.1,-10,-22.8,0.506118961,0.141117588,0.436567278,-0.730246895
196,493134,1228860,-0.644,-0.543,0.593,9.2,7.3,-6.8,4.3,-7.2,-21.5,0.50593585,0.14127018,0.436506241,-0.730399487
197,495412,1228860,-0.64,-0.539,0.593,9.8,7.5,-7.1,4.3,-7.2,-21.5,0.505722221,0.141422773,0.436475723,-0.73055208
198,497656,1228870,-0.644,-0.535,0.593,10.3,7.6,-7.3,4.3,-7.2,-21.5,0.505478072,0.141575365,0.436414686,-0.730704672
199,500129,1228870,-0.64,-0.539,0.601,10.8,7.9,-7.5,4.3,-7.2,-21.5,0.505264443,0.141758477,0.436353648,-0.730857265
200,503537,1228870,-0.636,-0.531,0.593,11.4,8,-7.7,4.5,-8.2,-24.3,0.505020295,0.141941588,0.436262093,-0.731040376
201,505162,1228870,-0.64,-0.527,0.593,12,8.2,-7.9,4.5,-8.2,-24.3,0.504776147,0.142124699,0.436201056,-0.731223487
202,508236,1228880,-0.64,-0.531,0.593,12.5,8.5,-7.9,4.5,-8.2,-24.3,0.504531999,0.142338328,0.4361095,-0.731406598
203,510403,1228880,-0.639,-0.519,0.597,12.8,8.8,-8,4.5,-8.2,-24.3,0.504287851,0.142551958,0.436017945,-0.731589709
204,512617,1228880,-0.639,-0.515,0.6,13,9,-8,4.7,-7.6,-24.7,0.504013184,0.142735069,0.435956908,-0.73177282
205,515540,1228880,-0.639,-0.511,0.6,13.1,9.1,-8.1,4.7,-7.6,-24.7,0.503769036,0.142948698,0.435865352,-0.731955931
206,519317,1228890,-0.639,-0.503,0.6,12.9,9.1,-8.2,4.7,-7.6,-24.7,0.503494369,0.143162328,0.435773797,-0.732139042
207,521680,1228890,-0.639,-0.5,0.596,12.6,9.1,-8.3,4.7,-7.6,-24.7,0.503250221,0.143375958,0.43571276,-0.732322153
208,523020,1228890,-0.635,-0.5,0.596,12.4,9.2,-8.3,4.7,-7.4,-24.6,0.502975555,0.143589587,0.435651723,-0.732505264
209,525870,1228890,-0.631,-0.504,0.596,12.2,9.3,-8.4,4.7,-7.4,-24.6,0.502731407,0.143772698,0.435560167,-0.732688375
210,528868,1228900,-0.631,-0.496,0.592,11.9,9.5,-8.7,4.7,-7.4,-24.6,0.50245674,0.143986328,0.435529649,-0.732840968
211,530469,1228900,-0.627,-0.492,0.584,11.4,9.6,-9,4.7,-7.4,-24.6,0.502182073,0.144169439,0.435468612,-0.733024079
212,533550,1228900,-0.643,-0.488,0.585,10.9,9.8,-9.3,4.9,-7.4,-24.3,0.501907407,0.144230476,0.435346538,-0.733298746
213,535075,1228900,-0.643,-0.488,0.585,10.5,10.1,-9.6,4.9,-7.4,-24.3,0.50163274,0.144413587,0.435316019,-0.733451338
214,538230,1228910,-0.651,-0.488,0.589,10,10.4,-9.9,4.9,-7.4,-24.3,0.501327555,0.144596698,0.435285501,-0.733634449
215,540420,1228910,-0.655,-0.487,0.585,9.7,10.7,-10.2,4.9,-7.4,-24.3,0.50102237,0.14474929,0.435285501,-0.73381756
216,543370,1228910,-0.655,-0.491,0.593,9.6,11,-10.5,4.7,-8.6,-23,0.500717185,0.14496292,0.435285501,-0.733970153
217,546332,1228910,-0.655,-0.491,0.593,9.5,11.3,-10.8,4.7,-8.6,-23,0.500412,0.145146031,0.435285501,-0.734153264
218,547899,1228920,-0.659,-0.499,0.589,9.4,11.4,-11.2,4.7,-8.6,-23,0.500106815,0.145329142,0.435316019,-0.734336375
219,551028,1228920,-0.659,-0.499,0.593,9.5,11.4,-11.4,4.7,-8.6,-23,0.499771111,0.145512253,0.435316019,-0.734519486
220,552639,1228920,-0.659,-0.507,0.593,9.6,11.4,-11.8,5.1,-8.6,-22.5,0.499435408,0.145695364,0.435316019,-0.734702597
221,555334,1228920,-0.663,-0.519,0.597,9.9,11.5,-12.1,5.1,-8.6,-22.5,0.499099704,0.145878475,0.435316019,-0.734885708
222,558497,1228930,-0.663,-0.519,0.597,10.3,11.6,-12.6,5.1,-8.6,-22.5,0.498764,0.146031068,0.435316019,-0.735068819
223,560092,1228930,-0.667,-0.526,0.601,10.8,11.5,-13.1,5.1,-8.6,-22.5,0.498397778,0.146214179,0.435316019,-0.735282449
224,562973,1228930,-0.663,-0.527,0.601,11.5,11.3,-13.6,5.2,-8.5,-21.4,0.498031556,0.14639729,0.435316019,-0.735496078
225,566191,1228930,-0.667,-0.53,0.601,12.1,11.2,-14.1,5.2,-8.5,-21.4,0.497665334,0.146580401,0.435285501,-0.735740226
226,567676,1228940,-0.663,-0.534,0.601,13,11.1,-14.5,5.2,-8.5,-21.4,0.497299112,0.146763512,0.435224464,-0.735984375
227,570614,1228940,-0.663,-0.538,0.601,13.8,11.1,-15,5.2,-8.5,-21.4,0.496902371,0.146946623,0.435193945,-0.736259041
228,573699,1228940,-0.659,-0.534,0.597,14.7,11.2,-15.3,5,-8.4,-20.5,0.496505631,0.147129734,0.435132908,-0.736503189
229,575225,1228940,-0.659,-0.534,0.601,15.5,11.3,-15.7,5,-8.4,-20.5,0.496078372,0.147343364,0.435041353,-0.736808374
230,577622,1228950,-0.66,-0.538,0.597,16.4,11.2,-16.1,5,-8.4,-20.5,0.495651112,0.147556993,0.434949797,-0.737083041
231,581147,1228950,-0.66,-0.538,0.605,17.1,11.3,-16.4,5,-8.4,-20.5,0.495223853,0.147770623,0.434858242,-0.737388226
232,582688,1228950,-0.659,-0.534,0.605,17.8,11.5,-16.6,5.2,-8.5,-20.5,0.494766076,0.147862178,0.434766686,-0.737754448
233,585166,1228950,-0.659,-0.534,0.605,18.4,11.8,-16.9,5.2,-8.5,-20.5,0.494308298,0.148106326,0.43467513,-0.738059633
234,588696,1228960,-0.659,-0.534,0.605,18.9,12.2,-17.1,5.2,-8.5,-20.5,0.49385052,0.148350475,0.434553056,-0.738395337
235,590916,1228960,-0.664,-0.542,0.609,19.5,12.5,-17.3,5.2,-8.5,-20.5,0.493392743,0.148594623,0.434430982,-0.73873104
236,593364,1228960,-0.656,-0.538,0.601,20,12.7,-17.5,5.1,-8.7,-24.9,0.492934965,0.148838771,0.43427839,-0.739066744
237,595442,1228960,-0.659,-0.538,0.609,20.4,12.8,-17.6,5.1,-8.7,-24.9,0.492446669,0.149113437,0.434156316,-0.739402448
238,597693,1228970,-0.659,-0.538,0.613,20.8,12.9,-17.8,5.1,-8.7,-24.9,0.491958373,0.149357585,0.434034242,-0.739738151
239,600323,1228970,-0.655,-0.538,0.617,21.3,12.9,-17.8,5.1,-8.7,-24.9,0.491500595,0.149632252,0.433881649,-0.740104373
240,604513,1228970,-0.656,-0.542,0.613,21.6,13,-17.8,4.9,-8.8,-22.1,0.491012299,0.149906919,0.433729057,-0.740440077
241,605107,1228970,-0.652,-0.55,0.609,22.1,13.1,-17.8,4.9,-8.8,-22.1,0.490524003,0.150181585,0.433576464,-0.740806299
242,608251,1228980,-0.652,-0.55,0.613,22.5,13,-17.7,4.9,-8.8,-22.1,0.490035707,0.15048677,0.433393353,-0.741172521
243,610576,1228980,-0.652,-0.55,0.609,23,13.2,-17.7,4.9,-8.8,-22.1,0.489547411,0.150761437,0.433210242,-0.741538743
244,613019,1228980,-0.652,-0.558,0.609,23.5,13.3,-17.7,5.6,-8.6,-22.9,0.489059114,0.151066622,0.433057649,-0.741904965
245,615323,1228980,-0.648,-0.558,0.613,23.9,13.4,-17.6,5.6,-8.6,-22.9,0.488570818,0.151371807,0.43284402,-0.742271187
246,617696,1228990,-0.652,-0.558,0.609,24.3,13.5,-17.5,5.6,-8.6,-22.9,0.488082522,0.151676992,0.432660909,-0.74263741
247,620911,1228990,-0.644,-0.554,0.608,24.8,13.7,-17.5,5.6,-8.6,-22.9,0.487563707,0.152012696,0.432477798,-0.74303415
248,622697,1228990,-0.644,-0.554,0.612,25.3,14,-17.5,5.2,-8.8,-24,0.487075411,0.152348399,0.432264168,-0.743400372
249,626966,1228990,-0.644,-0.558,0.601,25.9,14.2,-17.4,5.2,-8.8,-24,0.486556597,0.152684103,0.432050539,-0.743797113
250,627891,1229000,-0.636,-0.555,0.604,26.4,14.4,-17.2,5.2,-8.8,-24,0.4860683,0.153050325,0.431836909,-0.744163335
251,630342,1229000,-0.64,-0.555,0.604,26.8,14.4,-17,5.2,-8.8,-24,0.485549486,0.153386029,0.43162328,-0.744560076
252,634396,1229000,-0.632,-0.551,0.6,26.9,14.6,-16.8,5.2,-9,-24.5,0.484786523,0.153172399,0.431562243,-0.745109409
253,636630,1229000,-0.628,-0.543,0.6,27.1,14.7,-16.6,5.2,-9,-24.5,0.484298227,0.153538621,0.431348613,-0.745506149
254,638793,1229010,-0.628,-0.543,0.6,27.2,14.9,-16.5,5.2,-9,-24.5,0.483809931,0.153904843,0.431104465,-0.745872372
255,640287,1229010,-0.628,-0.543,0.6,27.2,15.1,-16.2,5.2,-9,-24.5,0.483291116,0.154301584,0.430860317,-0.746269112
256,642779,1229010,-0.62,-0.531,0.604,27.2,15.4,-16,5.6,-9.1,-22.4,0.48280282,0.154667806,0.430646687,-0.746635334
257,646258,1229010,-0.624,-0.531,0.6,27.2,15.8,-15.9,5.6,-9.1,-22.4,0.482284005,0.155064547,0.430433058,-0.747001556
258,647829,1229020,-0.616,-0.532,0.604,27.2,16.1,-15.8,5.6,-9.1,-22.4,0.481795709,0.155461287,0.430158391,-0.747367779
259,650265,1229020,-0.616,-0.535,0.604,27.3,16.5,-15.8,5.6,-9.1,-22.4,0.481276894,0.155888546,0.42997528,-0.747734001
260,653816,1229020,-0.616,-0.532,0.596,27.4,16.8,-15.7,5.8,-9.3,-22.4,0.480788598,0.156285287,0.42976165,-0.748100223
261,655252,1229020,-0.616,-0.532,0.596,27.6,17,-15.6,5.8,-9.3,-22.4,0.480269784,0.156712546,0.429548021,-0.748466445
262,658170,1229030,-0.62,-0.528,0.6,27.7,17.3,-15.5,5.8,-9.3,-22.4,0.479750969,0.157139805,0.429334391,-0.748832667
263,661301,1229030,-0.62,-0.528,0.596,27.7,17.6,-15.2,5.8,-9.3,-22.4,0.479262673,0.157567064,0.429120762,-0.749198889
264,662911,1229030,-0.62,-0.524,0.596,27.8,17.9,-15,5.7,-9.4,-22.7,0.478743858,0.158024842,0.428907132,-0.749565111
265,666582,1229030,-0.62,-0.528,0.592,27.9,18.3,-14.9,5.7,-9.4,-22.7,0.478225043,0.15848262,0.428693503,-0.749900815
266,668809,1229040,-0.62,-0.52,0.596,28.1,18.6,-14.8,5.7,-9.4,-22.7,0.477706229,0.158940397,0.428479873,-0.750267037
267,671196,1229040,-0.616,-0.516,0.596,28.3,19,-14.8,5.7,-9.4,-22.7,0.477187414,0.159398175,0.428266243,-0.750602741
268,672900,1229040,-0.627,-0.516,0.588,28.6,19.3,-14.8,6,-9.6,-22.1,0.4766686,0.159886471,0.428052614,-0.750968963
269,675220,1229040,-0.619,-0.512,0.588,28.9,19.6,-15,6,-9.6,-22.1,0.476149785,0.160374767,0.427808466,-0.751335185
270,677968,1229050,-0.619,-0.512,0.596,29.1,20,-15.3,6,-9.6,-22.1,0.475600452,0.160863063,0.427594836,-0.751701407
271,680236,1229050,-0.619,-0.512,0.592,29.3,20.4,-15.4,6,-9.6,-22.1,0.475051119,0.16135136,0.427381207,-0.752037111
272,682875,1229050,-0.619,-0.504,0.596,29.5,20.8,-15.5,5.6,-9.7,-22.2,0.474440748,0.161656545,0.427167577,-0.752494888
273,686352,1229050,-0.619,-0.504,0.596,29.8,21.2,-15.6,5.6,-9.7,-22.2,0.473860897,0.162175359,0.426953948,-0.75286111
274,687887,1229060,-0.623,-0.504,0.596,30.2,21.4,-15.6,5.6,-9.7,-22.2,0.473311563,0.162694174,0.426740318,-0.753227332
275,690196,1229060,-0.627,-0.5,0.6,30.7,21.7,-15.8,5.6,-9.7,-22.2,0.472731712,0.163212989,0.426526688,-0.753593554
276,692708,1229060,-0.627,-0.492,0.6,31.1,22.1,-15.8,4.9,-9.7,-21.9,0.47215186,0.163762322,0.426252022,-0.753959777
277,696761,1229060,-0.627,-0.496,0.6,31.5,22.6,-15.9,4.9,-9.7,-21.9,0.471572008,0.164281137,0.426068911,-0.754356517
278,699024,1229070,-0.627,-0.492,0.596,31.9,23,-15.9,4.9,-9.7,-21.9,0.470992157,0.164860988,0.425824763,-0.754722739
279,701392,1229070,-0.627,-0.492,0.6,32.3,23.2,-15.9,4.9,-9.7,-21.9,0.470381787,0.16544084,0.425611133,-0.755088961
280,703589,1229070,-0.631,-0.496,0.596,32.6,23.5,-15.9,7.8,-9.6,-21.9,0.469801935,0.165990173,0.425366985,-0.755485702
281,705782,1229070,-0.627,-0.492,0.6,33,23.8,-16,7.8,-9.6,-21.9,0.469191565,0.166600543,0.425122837,-0.755882443
282,707986,1229080,-0.627,-0.496,0.592,33.3,24.1,-16.3,7.8,-9.6,-21.9,0.468581194,0.167180395,0.424878689,-0.756248665
283,710325,1229080,-0.623,-0.488,0.592,33.5,24.4,-16.6,7.8,-9.6,-21.9,0.467940306,0.167760247,0.424634541,-0.756645405
284,713015,1229080,-0.623,-0.492,0.584,33.7,24.7,-16.9,8,-9.7,-22.1,0.467268899,0.168370617,0.424390393,-0.757042146
285,715937,1229080,-0.623,-0.492,0.584,33.9,25.1,-17.1,8,-9.7,-22.1,0.466658528,0.168950468,0.424146245,-0.757438887
286,718251,1229090,-0.631,-0.48,0.581,34,25.4,-17.4,8,-9.7,-22.1,0.46601764,0.169560839,0.423902097,-0.757835627
287,720484,1229090,-0.623,-0.488,0.58,34.3,25.6,-17.6,8,-9.7,-22.1,0.465376751,0.17014069,0.423657949,-0.758232368
288,722698,1229090,-0.619,-0.484,0.58,34.5,25.9,-17.8,8.2,-9.6,-21.8,0.464705344,0.170781579,0.4234138,-0.758659627
289,725335,1229090,-0.619,-0.48,0.576,34.7,26.3,-18,8.2,-9.6,-21.8,0.464033937,0.171422468,0.423169652,-0.759056368
290,727725,1229100,-0.619,-0.476,0.572,34.8,26.7,-18.4,8.2,-9.6,-21.8,0.463332011,0.172032838,0.422956023,-0.759453108
291,731663,1229100,-0.623,-0.48,0.565,34.9,27.2,-18.7,8.2,-9.6,-21.8,0.462660604,0.172673727,0.422711875,-0.759880367
292,733811,1229100,-0.623,-0.469,0.557,35,27.7,-19,8.1,-9.6,-21.7,0.461897641,0.173162023,0.422467727,-0.760338145
293,735368,1229100,-0.623,-0.469,0.557,35,28.2,-19.3,8.1,-9.6,-21.7,0.461195715,0.173802911,0.422254097,-0.760765404
294,737738,1229110,-0.627,-0.465,0.561,35,28.7,-19.6,8.1,-9.6,-21.7,0.460463271,0.174474319,0.422040468,-0.761162145
295,741361,1229110,-0.627,-0.461,0.557,35.1,29.2,-20,8.1,-9.6,-21.7,0.459730827,0.175115207,0.421796319,-0.761589404
296,742924,1229110,-0.623,-0.461,0.561,35.2,29.6,-20.3,6.1,-10.2,-21.4,0.458998383,0.175786615,0.421613208,-0.761986145
297,746679,1229110,-0.627,-0.453,0.553,35.4,30.1,-20.6,6.1,-10.2,-21.4,0.45823542,0.176427503,0.421399579,-0.762413404
298,749045,1229120,-0.631,-0.445,0.557,35.4,30.4,-20.7,6.1,-10.2,-21.4,0.457472457,0.17709891,0.421185949,-0.762810144
299,751245,1229120,-0.63,-0.437,0.557,35.2,30.7,-20.9,6.1,-10.2,-21.4,0.456709494,0.177770318,0.421002838,-0.763237403
300,753622,1229120,-0.63,-0.429,0.557,34.9,31,-21.2,7.7,-10.1,-21.4,0.455916013,0.178441725,0.420789209,-0.763634144
301,756530,1229120,-0.63,-0.421,0.557,34.5,31.4,-21.7,7.7,-10.1,-21.4,0.45515305,0.179113132,0.420606098,-0.764061403
302,758796,1229130,-0.63,-0.417,0.561,34,31.7,-22,7.7,-10.1,-21.4,0.454359569,0.179784539,0.420453505,-0.764458144
303,761073,1229130,-0.634,-0.417,0.553,33.4,32.2,-22.3,7.7,-10.1,-21.4,0.453535569,0.180455947,0.420300913,-0.764854884
304,763003,1229130,-0.634,-0.413,0.557,32.8,32.7,-22.5,8.1,-9.9,-21.1,0.452742088,0.181127354,0.420178838,-0.765251625
305,765685,1229130,-0.638,-0.413,0.561,32.2,32.9,-22.9,8.1,-9.9,-21.1,0.451918088,0.181768242,0.420056764,-0.765648366
306,767693,1229140,-0.638,-0.405,0.557,31.5,33.2,-23.3,8.1,-9.9,-21.1,0.451124607,0.18243965,0.41993469,-0.766045106
307,770159,1229140,-0.638,-0.413,0.561,30.9,33.4,-23.7,8.1,-9.9,-21.1,0.450270089,0.183080538,0.419843135,-0.766411328
308,773783,1229140,-0.634,-0.409,0.557,30.2,33.6,-24.2,6.8,-10.2,-20.7,0.449446089,0.183721427,0.419751579,-0.766808069
309,776179,1229140,-0.638,-0.409,0.557,29.5,34,-24.7,6.8,-10.2,-20.7,0.448591571,0.184331797,0.419690542,-0.767174291
310,779044,1229150,-0.642,-0.409,0.561,28.7,34.3,-25.1,6.8,-10.2,-20.7,0.447737053,0.184972686,0.419660024,-0.767540513
311,781220,1229150,-0.65,-0.409,0.565,28.1,34.7,-25.5,6.8,-10.2,-20.7,0.446882534,0.185583056,0.419629505,-0.767906735
312,783640,1229150,-0.658,-0.409,0.569,27.5,35,-26,7.6,-10.2,-20.9,0.446180609,0.186437574,0.419385357,-0.768242439
313,785910,1229150,-0.658,-0.409,0.569,27.2,35.3,-26.5,7.6,-10.2,-20.9,0.44532609,0.187047945,0.419385357,-0.768608661
314,788025,1229160,-0.654,-0.413,0.573,26.9,35.6,-27,7.6,-10.2,-20.9,0.444410535,0.187658315,0.419385357,-0.768974883
315,790266,1229160,-0.658,-0.417,0.569,26.8,35.9,-27.5,7.6,-10.2,-20.9,0.443525498,0.188268685,0.419385357,-0.769341105
316,792632,1229160,-0.662,-0.424,0.57,26.8,36.1,-28.1,9.1,-10.6,-20.7,0.442609943,0.188879055,0.419415876,-0.769707327
317,795115,1229160,-0.67,-0.424,0.558,26.8,36.1,-28.6,9.1,-10.6,-20.7,0.441694388,0.189489425,0.419415876,-0.770104068
318,798667,1229170,-0.674,-0.424,0.566,27,36.1,-29.1,9.1,-10.6,-20.7,0.440748314,0.190099796,0.419446394,-0.77047029
319,800883,1229170,-0.678,-0.428,0.566,27.2,36.4,-29.5,9.1,-10.6,-20.7,0.43980224,0.190649129,0.419446394,-0.770836512
320,802786,1229170,-0.682,-0.428,0.57,27.4,36.7,-29.8,6.3,-10.5,-21.1,0.438856166,0.191290017,0.419476913,-0.771233253
321,805087,1229170,-0.69,-0.432,0.566,27.8,36.9,-30.2,6.3,-10.5,-21.1,0.437879574,0.191900388,0.419476913,-0.771629994
322,808559,1229180,-0.694,-0.424,0.563,28.2,37,-30.7,6.3,-10.5,-21.1,0.436902982,0.192510758,0.419476913,-0.772026734
323,810712,1229180,-0.702,-0.431,0.563,28.7,37,-31.1,6.3,-10.5,-21.1,0.435926389,0.193151646,0.419476913,-0.772423475
324,812923,1229180,-0.706,-0.431,0.567,29.1,37,-31.7,6.3,-10.3,-21,0.434919279,0.193762017,0.419476913,-0.772850734
325,815212,1229180,-0.714,-0.435,0.559,29.6,36.8,-32.1,6.3,-10.3,-21,0.433912168,0.194372387,0.419446394,-0.773247475
326,817653,1229190,-0.714,-0.439,0.567,30.3,36.8,-32.7,6.3,-10.3,-21,0.432905057,0.194952239,0.419446394,-0.773674734
327,821982,1229190,-0.718,-0.451,0.571,31.1,36.7,-33.2,6.3,-10.3,-21,0.431867428,0.19553209,0.419385357,-0.774132511
328,824253,1229190,-0.722,-0.451,0.571,31.9,36.8,-33.7,6.2,-10.7,-20.7,0.430829798,0.196203497,0.419354839,-0.774590289
329,826415,1229190,-0.726,-0.454,0.567,32.7,36.8,-34.4,6.2,-10.7,-20.7,0.42976165,0.196813868,0.419293802,-0.775048067
330,827905,1229200,-0.73,-0.446,0.571,33.4,36.9,-35.2,6.2,-10.7,-20.7,0.428693503,0.197424238,0.419232765,-0.775536363
331,830920,1229200,-0.742,-0.438,0.568,34.2,37.1,-36.1,6.2,-10.7,-20.7,0.427594836,0.198034608,0.419141209,-0.776024659
332,832663,1229200,-0.749,-0.422,0.576,35,37.2,-36.9,6.9,-10.2,-20.6,0.426557207,0.198858608,0.419019135,-0.776451918
333,836137,1229200,-0.749,-0.422,0.576,35.8,37.1,-37.4,6.9,-10.2,-20.6,0.425428022,0.199438459,0.41892758,-0.776970733
334,837756,1229210,-0.753,-0.414,0.572,36.6,36.9,-37.9,6.9,-10.2,-20.6,0.424268319,0.200079348,0.418805506,-0.777489547
335,840623,1229210,-0.753,-0.399,0.56,37.6,36.5,-38.3,6.9,-10.2,-20.6,0.423139134,0.200720237,0.418683432,-0.778038881
336,842853,1229210,-0.753,-0.391,0.556,38.6,36.1,-38.7,10.3,-12.4,-20.1,0.421979431,0.201330607,0.418530839,-0.778588214
337,845920,1229210,-0.753,-0.387,0.556,39.6,35.7,-39.2,10.3,-12.4,-20.1,0.420819727,0.201940977,0.418347728,-0.779137547
338,847591,1229220,-0.757,-0.379,0.552,40.5,35.3,-39.8,10.3,-12.4,-20.1,0.419629505,0.202551347,0.418164617,-0.779717399
339,850398,1229220,-0.752,-0.367,0.552,41.4,34.9,-40.4,10.3,-12.4,-20.1,0.418439283,0.203161718,0.417950987,-0.780327769
340,853449,1229220,-0.752,-0.367,0.556,42.2,34.6,-40.8,9.9,-9.4,-20,0.417249062,0.203772088,0.417737358,-0.78090762
341,856376,1229220,-0.752,-0.363,0.556,42.8,34.3,-41,9.9,-9.4,-20,0.416028321,0.204321421,0.41749321,-0.781517991
342,857867,1229230,-0.756,-0.359,0.556,43.5,34.1,-41.1,9.9,-9.4,-20,0.414838099,0.20496231,0.417249062,-0.782158879
343,860919,1229230,-0.756,-0.359,0.552,43.9,33.8,-41,9.9,-9.4,-20,0.413617359,0.20557268,0.416974395,-0.78276925
344,863894,1229230,-0.76,-0.359,0.556,44.2,33.5,-40.8,10.7,-9.9,-19.6,0.412427137,0.20618305,0.416730247,-0.78337962
345,865394,1229230,-0.76,-0.351,0.56,44.4,33,-40.5,10.7,-9.9,-19.6,0.411236915,0.206762902,0.416425062,-0.784020508
346,867861,1229240,-0.76,-0.347,0.564,44.3,32.4,-40,10.7,-9.9,-19.6,0.410046693,0.207342753,0.416150395,-0.784630879
347,871694,1229240,-0.768,-0.347,0.568,44.2,32.1,-39.7,10.7,-9.9,-19.6,0.40888699,0.207922605,0.41584521,-0.785241249
348,873518,1229240,-0.772,-0.339,0.572,43.9,31.7,-39.3,11.2,-9.5,-19.2,0.407696768,0.208502457,0.415570544,-0.785851619
349,875383,1229240,-0.784,-0.331,0.58,43.5,31.3,-38.9,11.2,-9.5,-19.2,0.406567583,0.209082308,0.415265358,-0.786431471
350,877690,1229250,-0.791,-0.323,0.58,42.6,30.9,-38.6,11.2,-9.5,-19.2,0.40540788,0.209631642,0.414990692,-0.787011322
351,880537,1229250,-0.787,-0.323,0.584,41.4,30.5,-38.1,11.2,-9.5,-19.2,0.404309214,0.210180975,0.414716025,-0.787591174
352,882936,1229250,-0.803,-0.315,0.593,39.9,30.3,-37.7,11.5,-9.5,-19.3,0.403790399,0.211798456,0.413892026,-0.787865841
353,885323,1229250,-0.807,-0.307,0.593,38.1,30.1,-37.2,11.5,-9.5,-19.3,0.402691733,0.21231727,0.413647877,-0.788415174
354,887892,1229260,-0.811,-0.307,0.585,36.3,29.8,-36.8,11.5,-9.5,-19.3,0.401623585,0.212836085,0.413464766,-0.78890347
355,891826,1229260,-0.811,-0.307,0.585,34.6,29.4,-36.3,11.5,-9.5,-19.3,0.400585955,0.213324381,0.413312174,-0.789422285
356,893698,1229260,-0.811,-0.307,0.593,33.1,28.8,-35.7,10.5,-11.3,-19.4,0.399548326,0.213782159,0.413159581,-0.789880062
357,895867,1229260,-0.827,-0.295,0.581,31.5,28.2,-35.1,10.5,-11.3,-19.4,0.398541215,0.214209418,0.413006989,-0.79033784
358,898096,1229270,-0.835,-0.295,0.578,29.8,27.6,-34.7,10.5,-11.3,-19.4,0.397534104,0.214636677,0.412884915,-0.790795618
359,901200,1229270,-0.839,-0.299,0.578,27.8,27,-34.2,10.5,-11.3,-19.4,0.396588031,0.215033418,0.412823878,-0.791222877
360,903366,1229270,-0.846,-0.287,0.578,25.7,26.5,-33.9,10.5,-11.6,-19.2,0.395641957,0.215430158,0.412762841,-0.791619617
361,905342,1229270,-0.866,-0.294,0.571,23.7,26.1,-33.5,10.5,-11.6,-19.2,0.394695883,0.215765862,0.412732322,-0.791985839
362,907703,1229280,-0.874,-0.294,0.571,21.7,25.5,-33.4,10.5,-11.6,-19.2,0.393810846,0.216101566,0.412732322,-0.792352062
363,910274,1229280,-0.878,-0.305,0.563,19.8,24.9,-33.5,10.5,-11.6,-19.2,0.392895291,0.216406751,0.412762841,-0.792687765
364,912706,1229280,-0.886,-0.309,0.571,17.8,24.3,-33.6,10.9,-12.6,-19.2,0.392010254,0.216681417,0.412823878,-0.793023469
365,916803,1229280,-0.883,-0.313,0.567,15.7,23.7,-34.1,10.9,-12.6,-19.2,0.391094699,0.216895047,0.412915433,-0.793359172
366,918951,1229290,-0.89,-0.313,0.575,13.7,23.3,-34.8,10.9,-12.6,-19.2,0.390240181,0.217108676,0.413037507,-0.793664357
367,920462,1229290,-0.898,-0.305,0.579,12.1,23,-35.6,10.9,-12.6,-19.2,0.389385662,0.217291787,0.4131901,-0.793939024
368,922836,1229290,-0.922,-0.304,0.596,11.3,22.7,-36.4,11,-14.1,-19.1,0.388470107,0.217474899,0.413373211,-0.794274728
369,925603,1229290,-0.934,-0.3,0.604,11.2,22.7,-37.2,11,-14.1,-19.1,0.38758507,0.217627491,0.413525803,-0.794579913
370,927622,1229300,-0.934,-0.3,0.619,11.8,22.6,-38,11,-14.1,-19.1,0.386669515,0.217749565,0.413708914,-0.794915616
371,931663,1229300,-0.953,-0.292,0.624,13,22.2,-38.7,11,-14.1,-19.1,0.385723441,0.217902158,0.413830988,-0.79525132
372,934079,1229300,-0.957,-0.292,0.64,14.8,21.7,-39.2,11.4,-14.1,-18.9,0.384777367,0.21805475,0.413953063,-0.795617542
373,936180,1229300,-0.965,-0.296,0.651,16.9,21,-39.7,11.4,-14.1,-18.9,0.383800775,0.218207343,0.4140141,-0.795983764
374,938403,1229310,-0.977,-0.291,0.652,19.2,20.3,-40.2,11.4,-14.1,-18.9,0.382854701,0.218359935,0.414044618,-0.796411023
375,940670,1229310,-0.981,-0.287,0.664,21.5,19.6,-40.5,11.4,-14.1,-18.9,0.381847591,0.218512528,0.414044618,-0.796838282
376,944381,1229310,-1.008,-0.267,0.664,23.5,19,-40.7,11.7,-9.3,-17.4,0.380870998,0.21866512,0.413983581,-0.79729606
377,946644,1229310,-1.02,-0.259,0.661,25.5,18.2,-40.8,11.7,-9.3,-17.4,0.379863887,0.218848231,0.413892026,-0.797784356
378,948586,1229320,-1.02,-0.259,0.661,25.5,18.2,-40.8,11.7,-9.3,-17.4,0.379863887,0.218848231,0.413892026,-0.797784356
379,950135,1229320,-1.067,-0.207,0.67,29.2,16.6,-41,11.7,-9.3,-17.4,0.377849666,0.219153417,0.413556322,-0.798821986
380,952577,1229320,-1.083,-0.191,0.662,31.1,15.9,-41,11.5,-11.9,-20.3,0.376842555,0.219336528,0.413342692,-0.7993408
381,955148,1229320,-1.106,-0.174,0.663,33,15.2,-41,11.5,-11.9,-20.3,0.375835444,0.21948912,0.413098544,-0.799920652
382,958148,1229330,-1.122,-0.15,0.663,34.8,14.4,-40.7,11.5,-11.9,-20.3,0.374828333,0.219672231,0.412793359,-0.800500504
383,961253,1229330,-1.149,-0.118,0.664,36.6,13.4,-40.1,11.5,-11.9,-20.3,0.373821223,0.219824824,0.412457656,-0.801080355
384,962762,1229330,-1.161,-0.102,0.66,38.4,12.1,-39.4,12,-11.6,-19.9,0.37284463,0.220007935,0.412091433,-0.801690725
385,965658,1229330,-1.164,-0.094,0.664,40.1,10.5,-38.3,12,-11.6,-19.9,0.371898556,0.220160527,0.411633656,-0.802331614
386,967749,1229340,-1.168,-0.086,0.668,41.3,8.8,-36.8,12,-11.6,-19.9,0.370952483,0.220343638,0.411175878,-0.802941984
387,970751,1229340,-1.176,-0.071,0.668,41.8,7.1,-35.2,12,-11.6,-19.9,0.370067446,0.220465712,0.410626545,-0.803582873
388,973743,1229340,-1.176,-0.055,0.664,41.8,5.5,-33.4,12.4,-10.7,-19.7,0.369243446,0.220618305,0.410138249,-0.804193243
389,975161,1229340,-1.176,-0.047,0.664,41.3,4,-31.6,12.4,-10.7,-19.7,0.368449965,0.220740379,0.409588916,-0.804803613
390,978043,1229350,-1.167,-0.028,0.664,40.3,2.3,-29.8,12.4,-10.7,-19.7,0.367717521,0.220831935,0.409039583,-0.805383465
391,981193,1229350,-1.163,-0.02,0.66,38.8,0.7,-28,12.4,-10.7,-19.7,0.367015595,0.22092349,0.408520768,-0.805963317
392,982789,1229350,-1.159,-0.016,0.664,36.9,-0.9,-26.1,12,-9.7,-19.8,0.366405225,0.22092349,0.407971435,-0.806482131
393,986042,1229350,-1.151,-0.008,0.663,34.6,-2.5,-24,12,-9.7,-19.8,0.365825373,0.220984527,0.40745262,-0.807000946
394,988099,1229360,-1.135,-0.005,0.667,31.8,-4.2,-21.8,12,-9.7,-19.8,0.365337077,0.22092349,0.406964324,-0.807489242
395,990333,1229360,-1.131,-0.009,0.671,28.9,-5.7,-19.7,12,-9.7,-19.8,0.364879299,0.22092349,0.406506546,-0.807916501
396,993380,1229360,-1.123,-0.013,0.674,25.9,-7,-17.6,12.3,-11.5,-17.9,0.364513077,0.220831935,0.406079287,-0.80834376
397,995518,1229360,-1.119,-0.017,0.69,22.7,-8,-15.4,12.3,-11.5,-17.9,0.364207892,0.220740379,0.405682546,-0.808679464
398,998756,1229370,-1.116,-0.033,0.702,19.5,-8.7,-13.4,12.3,-11.5,-17.9,0.363963744,0.220618305,0.405346843,-0.809015168
399,1000909,1229370,-1.119,-0.021,0.709,16.3,-9,-11.5,12.3,-11.5,-17.9,0.363750114,0.220496231,0.405041658,-0.809289834
400,1003050,1229370,-1.127,-0.013,0.721,13.2,-9.2,-9.8,12.2,-11.7,-18.2,0.363597522,0.220343638,0.404766991,-0.809533982
401,1006217,1229370,-1.131,-0.013,0.733,10.8,-9.5,-8.2,12.2,-11.7,-18.2,0.363475448,0.220191046,0.404553362,-0.809747612
402,1007703,1229380,-1.146,0.014,0.757,9.2,-9.8,-6.9,12.2,-11.7,-18.2,0.363414411,0.220038453,0.404339732,-0.809930723
403,1010588,1229380,-1.158,0.026,0.765,8.3,-10,-5.7,12.2,-11.7,-18.2,0.363353374,0.219855342,0.404156621,-0.810083316
404,1013023,1229380,-1.162,0.038,0.765,7.8,-10.3,-4.5,12.2,-11.8,-18,0.363322855,0.21970275,0.403942991,-0.810235908
405,1015255,1229380,-1.177,0.074,0.777,7.5,-10.7,-3.4,12.2,-11.8,-18,0.363322855,0.219550157,0.403729362,-0.810388501
406,1017591,1229390,-1.185,0.082,0.769,7.6,-11.4,-2.1,12.2,-11.8,-18,0.363353374,0.219397565,0.403515732,-0.810541093
407,1021118,1229390,-1.193,0.102,0.766,7.8,-12.2,-0.9,12.2,-11.8,-18,0.363414411,0.219214454,0.403302103,-0.810663167
408,1022749,1229390,-1.2,0.118,0.754,8.2,-13.3,0.4,12.1,-11.8,-17,0.363475448,0.219061861,0.403027436,-0.81081576
409,1025139,1229390,-1.212,0.13,0.735,8.6,-14.4,1.7,12.1,-11.8,-17,0.363597522,0.21887875,0.40275277,-0.810937834
410,1028619,1229400,-1.228,0.146,0.724,8.9,-15.6,3.2,12.1,-11.8,-17,0.363750114,0.218695639,0.402478103,-0.811059908
411,1030127,1229400,-1.24,0.15,0.704,9.3,-16.8,4.5,12.1,-11.8,-17,0.363933226,0.218512528,0.402142399,-0.811181982
412,1033117,1229400,-1.267,0.178,0.674,9.4,-17.9,5.9,11.8,-12.1,-17.6,0.364146855,0.218329417,0.401806696,-0.811304056
413,1035494,1229400,-1.279,0.194,0.662,9.6,-19.1,7.2,11.8,-12.1,-17.6,0.364391003,0.218115787,0.401440474,-0.81142613
414,1037628,1229410,-1.303,0.21,0.647,9.7,-20.3,8.8,11.8,-12.1,-17.6,0.364696188,0.217932676,0.401074252,-0.811548204
415,1040374,1229410,-1.314,0.23,0.636,9.7,-21.6,10.5,11.8,-12.1,-17.6,0.365031892,0.217719047,0.400677511,-0.81163976
416,1043491,1229410,-1.33,0.25,0.617,9.6,-23,12.4,12.1,-12,-19.5,0.365398114,0.217474899,0.400250252,-0.811731315
417,1045110,1229410,-1.357,0.298,0.606,9.2,-24.6,14.2,12.1,-12,-19.5,0.365825373,0.217261269,0.399822993,-0.811822871
418,1048648,1229420,-1.373,0.318,0.59,8.7,-26.4,16.3,12.1,-12,-19.5,0.366313669,0.216986602,0.399395734,-0.811883908
419,1050134,1229420,-1.389,0.342,0.583,8.3,-28.4,18.3,12.1,-12,-19.5,0.366832484,0.216711936,0.398907437,-0.811944945
420,1053512,1229420,-1.416,0.37,0.572,8.3,-30.5,20.6,11.4,-12,-17,0.367412336,0.216406751,0.39844966,-0.812005982
421,1055130,1229420,-1.432,0.374,0.568,8.6,-32.7,23.2,11.4,-12,-17,0.368083743,0.216101566,0.397930845,-0.8120365
422,1058126,1229430,-1.444,0.382,0.565,9.1,-35.1,26.3,11.4,-12,-17,0.368816187,0.215796381,0.397350993,-0.812067019
423,1061099,1229430,-1.451,0.387,0.561,9.8,-37.6,29.8,11.4,-12,-17,0.369609668,0.215460677,0.396740623,-0.812097537
424,1062626,1229430,-1.448,0.375,0.576,10.5,-40.5,33.3,11.5,-11.9,-16.5,0.370525224,0.215124973,0.396069216,-0.812128056
425,1065664,1229430,-1.444,0.359,0.58,11.3,-43.7,36,11.5,-11.9,-16.5,0.371471297,0.214758751,0.395336772,-0.812128056
426,1068646,1229440,-1.444,0.351,0.58,11.9,-47,37.9,11.5,-11.9,-16.5,0.372508927,0.214331492,0.394573809,-0.812128056
427,1070096,1229440,-1.448,0.343,0.588,12.5,-49.9,39.5,11.5,-11.9,-16.5,0.373577074,0.213904233,0.393749809,-0.812158574
428,1073826,1229440,-1.44,0.32,0.608,13.1,-52.2,41.2,11,-12.3,-16.5,0.374675741,0.213415937,0.392895291,-0.812189093
429,1075378,1229440,-1.433,0.308,0.611,13.6,-54.3,43.2,11,-12.3,-16.5,0.375865963,0.212958159,0.392010254,-0.812189093
430,1077636,1229450,-1.433,0.288,0.604,14.2,-56.3,45.2,11,-12.3,-16.5,0.377086703,0.212439344,0.391094699,-0.812219611
431,1081293,1229450,-1.417,0.284,0.611,14.9,-58.3,47.2,11,-12.3,-16.5,0.378337962,0.211951048,0.390118107,-0.812219611
432,1082856,1229450,-1.413,0.288,0.611,15.5,-60.1,48.9,10.6,-12.1,-17.2,0.379650258,0.211432234,0.389110996,-0.812219611
433,1085177,1229450,-1.409,0.299,0.611,15.7,-61.7,50.3,10.6,-12.1,-17.2,0.380993072,0.2108829,0.388103885,-0.812219611
434,1087723,1229460,-1.401,0.315,0.607,15.5,-62.8,51.1,10.6,-12.1,-17.2,0.382366405,0.210333567,0.387066256,-0.812219611
435,1091914,1229460,-1.412,0.37,0.587,14.6,-63.8,51.4,10.6,-12.1,-17.2,0.383739738,0.209753716,0.386028626,-0.812189093
436,1094141,1229460,-1.419,0.406,0.576,13,-64.4,51,10.4,-12.7,-19.7,0.385113071,0.209143345,0.385021516,-0.812189093
437,1096402,1229460,-1.435,0.429,0.564,10.8,-64.8,49.5,10.4,-12.7,-19.7,0.386486404,0.208502457,0.384075442,-0.812158574
438,1098650,1229470,-1.435,0.457,0.556,8.1,-65,46.7,10.4,-12.7,-19.7,0.387829218,0.20783105,0.383159886,-0.812128056
439,1100839,1229470,-1.469,0.544,0.549,5.3,-65.3,41.8,10.4,-12.7,-19.7,0.389110996,0.207068087,0.382335887,-0.812097537
440,1103020,1229470,-1.492,0.596,0.546,2.7,-65.9,34.7,10.2,-12.2,-18.6,0.390240181,0.206213569,0.381542405,-0.812128056
441,1105314,1229470,-1.515,0.647,0.534,0.2,-67.2,25.9,10.2,-12.2,-18.6,0.39127781,0.205236976,0.380870998,-0.812219611
442,1109138,1229480,-1.55,0.691,0.524,-2.2,-69.1,16.3,10.2,-12.2,-18.6,0.392132328,0.204107791,0.38023011,-0.812341685
443,1111202,1229480,-1.624,0.787,0.506,-5,-71.8,7,10.2,-12.2,-18.6,0.392895291,0.202856532,0.379680776,-0.812585833
444,1112840,1229480,-1.668,0.816,0.491,-8.3,-75,-1,9.7,-12.7,-19.2,0.39353618,0.201452681,0.37919248,-0.812829981
445,1115228,1229480,-1.702,0.891,0.441,-12.4,-78.3,-6.7,9.7,-12.7,-19.2,0.394116031,0.199896237,0.378765221,-0.813135166
446,1117766,1229490,-1.757,0.963,0.395,-17.1,-80.8,-8.5,9.7,-12.7,-19.2,0.394695883,0.198248238,0.378398999,-0.813440352
447,1120115,1229490,-1.797,0.968,0.381,-21.6,-82,-5.8,9.7,-12.7,-19.2,0.39536729,0.196508683,0.378124332,-0.813653981
448,1124322,1229490,-1.857,0.907,0.387,-24,-82,1.1,9.4,-12.8,-19.2,0.396160772,0.194891202,0.377819147,-0.813806574
449,1126305,1229490,-1.909,0.9,0.372,-23.1,-81.7,10.1,9.4,-12.8,-19.2,0.397106845,0.193334758,0.377483444,-0.813867611
450,1128031,1229500,-1.986,0.843,0.351,-18.4,-82,18.3,9.4,-12.8,-19.2,0.398205512,0.191869869,0.377025666,-0.813898129
451,1130145,1229500,-2.026,0.796,0.348,-10.4,-83.3,23.7,9.4,-12.8,-19.2,0.399334696,0.190496536,0.376384777,-0.813959166
452,1132633,1229500,-2.103,0.661,0.37,0.4,-85.1,26.5,8.5,-12.6,-19.6,0.400524918,0.18918424,0.375530259,-0.81408124
453,1135200,1229500,-2.103,0.661,0.37,13.9,-87.1,27.7,8.5,-12.6,-19.6,0.401654103,0.187994018,0.374401074,-0.81429487
454,1139344,1229510,-2.172,0.54,0.42,29.8,-89.1,28.8,8.5,-12.6,-19.6,0.402783288,0.186925871,0.372966704,-0.814661092
455,1141663,1229510,-2.213,0.49,0.44,47.1,-90.8,30.1,8.5,-12.6,-19.6,0.403851436,0.185949278,0.371227149,-0.815149388
456,1143921,1229510,-2.245,0.452,0.449,64.9,-92.1,31.3,7.7,-13,-18.3,0.404889065,0.185155797,0.369121372,-0.815759758
457,1146298,1229510,-2.273,0.433,0.462,82.1,-93.1,31.9,7.7,-13,-18.3,0.405896176,0.184453871,0.36671041,-0.816522721
458,1148208,1229520,-2.3,0.457,0.474,98.2,-93.8,31.4,7.7,-13,-18.3,0.406811731,0.183904538,0.363994263,-0.817377239
459,1150395,1229520,-2.304,0.5,0.47,112.9,-94.5,30,7.7,-13,-18.3,0.407635731,0.183477279,0.361003449,-0.818414869
460,1152744,1229520,-2.311,0.559,0.462,126.5,-95.1,27.7,7.5,-13.8,-18.2,0.408368175,0.183111057,0.357799005,-0.819544053
461,1155349,1229520,-2.313,0.685,0.454,138.6,-95.7,24.8,7.5,-13.8,-18.2,0.409009064,0.18283639,0.354380932,-0.820764794
462,1158681,1229530,-2.316,0.748,0.466,148.8,-96.5,21.7,7.5,-13.8,-18.2,0.409527879,0.182592242,0.350749229,-0.822107608
463,1160246,1229530,-2.323,0.819,0.477,156.7,-97.6,18.6,7.5,-13.8,-18.2,0.409985656,0.182378613,0.346995453,-0.82351146
464,1162822,1229530,-2.325,0.894,0.493,161.3,-98.8,15.5,6.8,-14,-17.7,0.410382397,0.182164983,0.343150121,-0.824976348
465,1166411,1229530,-2.335,1.059,0.5,162,-100,12.5,6.8,-14,-17.7,0.410718101,0.181920835,0.33927427,-0.826471755
466,1168271,1229540,-2.341,1.146,0.485,158.5,-101.2,9.3,6.8,-14,-17.7,0.410992767,0.181585131,0.335459456,-0.827967162
467,1170633,1229540,-2.348,1.24,0.481,151.1,-102.8,5,6.8,-14,-17.7,0.411236915,0.181096835,0.331797235,-0.829432051
468,1172795,1229540,-2.358,1.339,0.485,140.4,-104.7,-0.8,6.2,-14.8,-17.2,0.411420026,0.180455947,0.328318125,-0.83086642
469,1175265,1229540,-2.367,1.555,0.5,126.8,-106.7,-8.4,6.2,-14.8,-17.2,0.411511582,0.179601428,0.325083163,-0.832270272
470,1178863,1229550,-2.369,1.673,0.515,110.5,-108.7,-17.9,6.2,-14.8,-17.2,0.4115421,0.178502762,0.322183905,-0.833613086
471,1180234,1229550,-2.383,1.815,0.535,91.1,-110.6,-28.8,6.2,-14.8,-17.2,0.411420026,0.17709891,0.31962035,-0.834955901
472,1183017,1229550,-2.402,2.079,0.531,68.3,-112.7,-40.9,6.1,-15,-17,0.411206397,0.175359355,0.317545091,-0.836237678
473,1186173,1229550,-2.428,2.213,0.515,42.5,-115.1,-54,6.1,-15,-17,0.410840175,0.173284097,0.31592761,-0.837458419
474,1187656,1229560,-2.458,2.339,0.445,14.6,-118.1,-68.1,6.1,-15,-17,0.410351878,0.170781579,0.314859462,-0.838587603
475,1190563,1229560,-2.478,2.43,0.328,-13.8,-122.1,-83,6.1,-15,-17,0.409741508,0.167851802,0.314310129,-0.83968627
476,1192827,1229560,-2.45,2.46,0.132,-39.9,-127.5,-98.1,3.7,-15.2,-16.4,0.408948027,0.164494766,0.314279611,-0.840754418
477,1195996,1229560,-2.397,2.357,0.084,-60.6,-134.3,-112.7,3.7,-15.2,-16.4,0.408032472,0.160710471,0.314584796,-0.841822565
478,1198095,1229570,-2.328,2.159,0.052,-73,-141.5,-125.8,3.7,-15.2,-16.4,0.406933805,0.156590472,0.31510361,-0.842921232
479,1200293,1229570,-2.256,1.937,0.054,-75.8,-148.5,-136.8,3.7,-15.2,-16.4,0.405682546,0.152226325,0.315652944,-0.844141972
480,1203047,1229570,-2.075,1.32,0.005,-69.4,-154.9,-146.3,7,-14.9,-16.7,0.404278695,0.147770623,0.316049684,-0.845454268
481,1206204,1229570,-2.005,0.996,-0.031,-54.5,-160.3,-156.5,7,-14.9,-16.7,0.402691733,0.143253883,0.31614124,-0.846949675
482,1207632,1229580,-1.942,0.703,-0.082,-31.5,-164,-169.3,7,-14.9,-16.7,0.400769066,0.138767663,0.315805536,-0.848719749
483,1210548,1229580,-1.911,0.459,-0.114,0.4,-165.7,-186.2,7,-14.9,-16.7,0.39844966,0.134403516,0.314889981,-0.850856044
484,1213594,1229580,-1.875,0.199,-0.114,41.5,-165.8,-207.3,7.1,-14.8,-17,0.395611438,0.130252998,0.313303018,-0.853419599
485,1215243,1229580,-1.847,0.206,-0.052,90.7,-165,-232.6,7.1,-14.8,-17,0.392162847,0.126377148,0.310831019,-0.856501968
486,1218677,1229590,-1.813,0.319,0.051,145.2,-164.1,-262,7.1,-14.8,-17,0.387951292,0.122775964,0.307412946,-0.860133671
487,1220810,1229590,-1.723,0.856,0.383,202.1,-163.8,-295.5,7.1,-14.8,-17,0.382946257,0.119418928,0.303018281,-0.864406262
488,1223062,1229590,-1.665,1.233,0.545,257.1,-164.3,-332.1,7.4,-14.7,-16.5,0.377086703,0.116275521,0.297647023,-0.869289224
489,1225192,1229590,-1.583,1.636,0.69,306.1,-165.6,-371.1,7.4,-14.7,-16.5,0.370311594,0.11322367,0.291421247,-0.874691
490,1228731,1229600,-1.469,2.042,0.814,346.2,-168.2,-411,7.4,-14.7,-16.5,0.362651448,0.110202338,0.284432508,-0.880550554
491,1230237,1229600,-1.113,2.655,1.018,376.1,-172.5,-450,7.4,-14.7,-16.5,0.354167302,0.107028413,0.276894436,-0.88677633
492,1232885,1229600,-0.871,2.838,1.097,394.3,-178.4,-486.9,7.9,-15.6,-15.6,0.344859157,0.103701895,0.268990143,-0.893246254
493,1236301,1229600,-0.546,3.047,1.251,399.5,-185.2,-521.2,7.9,-15.6,-15.6,0.334849086,0.100039674,0.260963775,-0.899838252
494,1237763,1229610,-0.199,3.11,1.414,391,-192.8,-553.1,7.9,-15.6,-15.6,0.324198126,0.0959501938,0.253059481,-0.90643025
495,1240857,1229610,0.515,3.063,1.532,369.5,-202.3,-582,7.9,-15.6,-15.6,0.312967315,0.0913418989,0.245521409,-0.912900174
496,1242653,1229610,0.963,3.013,1.512,335.8,-214.1,-608.4,7.8,-16.4,-14.6,0.301309244,0.0860927152,0.238502152,-0.919156468
497,1245455,1229610,1.317,2.871,1.46,290.3,-225.9,-633.8,7.8,-16.4,-14.6,0.289193396,0.0801416059,0.23239845,-0.925138096
498,1247785,1229620,1.778,2.861,1.557,235,-235.2,-660.8,7.8,-16.4,-14.6,0.276589251,0.0735190893,0.227301859,-0.930784021
499,1250368,1229620,2.475,0.592,-1.856,172.7,-241.7,-690.7,7.8,-16.4,-14.6,0.263435774,0.0662251656,0.223395489,-0.936094241
500,1253710,1229620,4.922,-4.844,-4.605,136.3,-263.8,-711.1,9.3,-16.1,-14,0.249977111,0.0581377606,0.22009949,-0.941099277
501,1255208,1229620,6.23,-8.233,-1.216,236.3,-332.1,-642.9,9.3,-16.1,-14,0.238044374,0.0495315409,0.214209418,-0.946012757
502,1257842,1229630,8.018,-8.257,7.833,512.4,-482.9,-361.6,9.3,-16.1,-14,0.232245857,0.0405285806,0.2014832,-0.950682089
503,1260826,1229630,8.017,-8.261,7.626,666,-681.8,40.1,9.3,-16.1,-14,0.235419782,0.0299081393,0.184148686,-0.953794977
504,1263051,1229630,7.983,-7.473,0.719,489.6,-781,319.4,10.5,-15.7,-13.5,0.244850002,0.0174565874,0.169682913,-0.954405347
505,1265952,1229630,8.213,6.511,2.319,9,-612.3,192.6,10.5,-15.7,-13.5,0.251106296,0.0054628132,0.166142766,-0.953550829
506,1267600,1229640,7.084,7.791,7.81,-386.7,-200.1,-236.2,10.5,-15.7,-13.5,0.24692526,-0.00164799951,0.173070467,-0.953428755
507,1271233,1229640,3.743,7.927,5.645,-521.9,254.3,-585.9,10.5,-15.7,-13.5,0.233741264,-0.00137333293,0.185277871,-0.954466384
508,1272747,1229640,-0.251,8.013,1.471,-483.8,542.6,-591.2,7.2,-16.4,-15.8,0.219153417,0.00503555406,0.198065126,-0.955351421
509,1275507,1229640,-4.073,8.096,-1.617,-433.5,640.3,-304.4,7.2,-16.4,-15.8,0.210058901,0.0149845882,0.210180975,-0.954680013
510,1278749,1229650,-8.052,8.183,-4.226,-449.2,613.3,-4.3,7.2,-16.4,-15.8,0.207251198,0.025696585,0.222327342,-0.952330088
511,1280948,1229650,-8.056,8.135,-4.831,-486.3,534,161,7.2,-16.4,-15.8,0.208288827,0.0353709525,0.234717856,-0.94882046
512,1283066,1229650,-7.805,5.627,-4.315,-474.5,437.1,205,9.4,-14.5,-15.2,0.210638752,0.0433057649,0.24631489,-0.945005646
513,1285444,1229650,-3.752,-1.282,-2.508,-386.5,337.2,196.3,9.4,-14.5,-15.2,0.213202307,0.0495315409,0.255653554,-0.94164861
514,1287705,1229660,-1.516,-3.177,-2.84,-241.5,233.6,200,9.4,-14.5,-15.2,0.216284677,0.0543229469,0.261482589,-0.939085055
515,1291349,1229660,1.399,-3.587,-4.03,-95.3,118.5,267.8,9.4,-14.5,-15.2,0.221198157,0.0578325755,0.263679922,-0.937101352
516,1292803,1229660,1.784,-6.667,-4.89,-2.6,3.1,416,15,-14.9,-15.4,0.229682302,0.0602740562,0.263191626,-0.935026093
517,1295957,1229660,1.427,-7.641,-5.061,30,-89.4,553.3,15,-14.9,-15.4,0.24140141,0.0617694632,0.261391034,-0.932493057
518,1297604,1229670,0.734,-5.745,-3.588,37.6,-126.8,563.8,15,-14.9,-15.4,0.253547777,0.0625934629,0.259163182,-0.929837947
519,1300956,1229670,-0.45,-3.46,-2.293,46.9,-101.8,400.2,15,-14.9,-15.4,0.262153996,0.0630512406,0.257118442,-0.927976318
520,1303043,1229670,-1.495,-1.281,-1.369,59.3,-37.7,158.8,10.3,-13.5,-15.7,0.265511032,0.0635090182,0.255470443,-0.927457503
521,1305241,1229670,-2.049,1.299,-0.163,76.2,18.1,-42.2,10.3,-13.5,-15.7,0.264442885,0.0640583514,0.25409711,-0.928098392
522,1308417,1229680,-1.667,1.421,0.368,108.1,33.9,-148,10.3,-13.5,-15.7,0.261116367,0.0645466475,0.252296518,-0.929502243
523,1310506,1229680,-1.253,1.286,0.873,156.7,9.1,-168.9,10.3,-13.5,-15.7,0.257393109,0.0647297586,0.249397259,-0.931302835
524,1313627,1229680,-1.161,0.361,1.409,204,-35.9,-140.3,11,-13.6,-15.7,0.254463332,0.0643635365,0.245246742,-0.933225501
525,1315194,1229680,-0.755,0.13,2.41,231.8,-78.9,-98.3,11,-13.6,-15.7,0.252540666,0.0635090182,0.240241707,-0.935117649
526,1318785,1229690,-0.486,-0.068,2.673,235.9,-107.1,-65.1,11,-13.6,-15.7,0.251442,0.0622882778,0.234900967,-0.936826685
527,1320372,1229690,-0.548,-0.267,2.855,226.9,-117.2,-45.8,11,-13.6,-15.7,0.250801111,0.0609149449,0.229682302,-0.938383129
528,1322771,1229690,-1.052,-0.895,3.077,218.4,-112.5,-32.9,11.8,-14.5,-14.7,0.25040437,0.059602649,0.224646748,-0.939817499
529,1326161,1229690,-1.373,-1.572,2.885,215.8,-97.8,-20,11.8,-14.5,-14.7,0.250190741,0.0587176122,0.21970275,-0.941099277
530,1327687,1229700,-1.429,-1.803,2.696,215.8,-97.8,-20,11.8,-14.5,-14.7,0.249946593,0.0577715384,0.214758751,-0.942350536
531,1330399,1229700,-1.337,-1.825,2.228,213.2,-79.8,-9.4,11.8,-14.5,-14.7,0.249855037,0.0572527238,0.209936827,-0.94347972
532,1333809,1229700,-1.178,-1.799,1.455,183.6,-62.4,-24.3,12.8,-14.8,-14.3,0.249427778,0.0568559832,0.205847346,-0.94451735
533,1335375,1229700,-1.293,-1.741,1.297,183.6,-62.4,-24.3,12.8,-14.8,-14.3,0.24897,0.056428724,0.201757866,-0.945554979
534,1337662,1229710,-1.341,-1.717,1.287,157.2,-63.5,-47.6,12.8,-14.8,-14.3,0.248054445,0.0557878353,0.198217719,-0.946592608
535,1341302,1229710,-1.309,-1.733,1.239,130,-62.3,-66.4,12.8,-14.8,-14.3,0.246803186,0.0549333171,0.195287942,-0.947569201
536,1342858,1229710,-1.051,-1.998,1.284,109.1,-56.6,-75.3,11.6,-17,-13.9,0.245338298,0.0539872433,0.192815943,-0.948515275
537,1345154,1229710,-0.835,-2.168,1.431,99.1,-49.5,-75.3,11.6,-17,-13.9,0.243873409,0.053193762,0.190588092,-0.949369793
538,1347594,1229720,-0.581,-2.268,1.647,100.5,-45.3,-71.3,11.6,-17,-13.9,0.242469558,0.0524918363,0.188329722,-0.950193793
539,1351130,1229720,-0.345,-2.261,1.856,108.4,-44.9,-66.2,11.6,-17,-13.9,0.241157262,0.0518814661,0.18591876,-0.951078829
540,1352758,1229720,-0.054,-1.69,2.069,114.6,-45.6,-60.6,11.6,-15.6,-13.5,0.23996704,0.0512710959,0.183385723,-0.951902829
541,1356102,1229720,0.017,-1.169,2.073,111.2,-44.6,-55.4,11.6,-15.6,-13.5,0.238868374,0.0507217627,0.180883206,-0.95269631
542,1357587,1229730,0.004,-0.662,2.005,96,-39.6,-53.3,11.6,-15.6,-13.5,0.237800226,0.0501724296,0.17874691,-0.953367718
543,1361256,1229730,-0.115,0.181,1.651,73.1,-30.9,-57,11.6,-15.6,-13.5,0.236640522,0.0496841334,0.177129429,-0.954008606
544,1362737,1229730,-0.019,0.643,1.987,49.3,-19,-67.9,11.7,-15.8,-13.4,0.23526719,0.0492873928,0.176061281,-0.954557939
545,1365180,1229730,0.04,0.905,2.035,29.3,-2.4,-84,11.7,-15.8,-13.4,0.233497116,0.0490737632,0.175542467,-0.955107273
546,1367667,1229740,0.074,0.911,1.757,15.9,12.4,-99.7,11.7,-15.8,-13.4,0.231330302,0.0490127262,0.175389874,-0.955656606
547,1370090,1229740,0.214,0.786,1.578,9.9,17.4,-107.3,11.7,-15.8,-13.4,0.229041414,0.0490127262,0.175359355,-0.956205939
548,1374298,1229740,0.307,0.65,1.478,8.8,8.9,-102.6,12.2,-16,-13.5,0.226844081,0.0488601337,0.175328837,-0.956755272
549,1376540,1229740,0.343,0.464,1.345,7.7,-5.3,-88.8,12.2,-16,-13.5,0.22501297,0.048463393,0.175237281,-0.95721305
550,1377946,1229750,0.351,0.224,1.224,2.6,-16.7,-73.5,12.2,-16,-13.5,0.223517563,0.0478225043,0.175176244,-0.95760979
551,1381108,1229750,0.287,-0.284,1.114,-5.4,-22.8,-62.2,12.2,-16,-13.5,0.222327342,0.0470900601,0.1752678,-0.957914975
552,1383249,1229750,0.259,-0.531,1.123,-20,-25.3,-51.7,12.3,-16.2,-13.4,0.221350749,0.0462660604,0.175603504,-0.958128605
553,1385490,1229750,0.265,-0.728,1.182,-20,-25.3,-51.7,12.3,-16.2,-13.4,0.220374157,0.0454420606,0.175939207,-0.958311716
554,1387778,1229760,0.314,-0.933,1.268,-24,-25,-49.1,12.3,-16.2,-13.4,0.21948912,0.0446180609,0.176396985,-0.958494827
555,1390382,1229760,0.334,-0.914,1.259,-26.8,-24.6,-47,12.3,-16.2,-13.4,0.218604083,0.0437940611,0.176885281,-0.958616901
556,1393721,1229760,0.339,-0.816,1.235,-30,-23.9,-46,12.6,-15.3,-13.6,0.217780084,0.0429700613,0.177434614,-0.958738975
557,1395221,1229760,0.309,-0.674,1.185,-34.4,-23.1,-46.3,12.6,-15.3,-13.6,0.216925565,0.0421460616,0.178075503,-0.958861049
558,1397799,1229770,0.176,-0.297,1.129,-39.6,-22.1,-47.9,12.6,-15.3,-13.6,0.216040529,0.0412915433,0.178868984,-0.958952605
559,1401245,1229770,0.102,-0.131,1.075,-44.2,-20.7,-50,12.6,-15.3,-13.6,0.215124973,0.0404675436,0.179723502,-0.95904416
560,1402730,1229770,0.045,-0.008,1.018,-46.9,-19.1,-51.7,12.6,-15.3,-13.6,0.214148381,0.0396435438,0.180669576,-0.959105197
561,1405290,1229770,-0.013,0.075,0.957,-47.5,-18,-52.5,12.6,-15.3,-13.6,0.213171789,0.0388195441,0.18161565,-0.959166234
562,1408697,1229780,-0.037,0.076,0.876,-46.4,-17.9,-52,12.6,-15.3,-13.6,0.212195196,0.0380260628,0.182561724,-0.95925779
563,1410197,1229780,-0.031,0.001,0.848,-44.2,-19.3,-50.1,12.6,-15.3,-13.6,0.211249123,0.0372325816,0.18344676,-0.959318827
564,1413196,1229780,-0.001,-0.125,0.828,-41.5,-21.9,-47.3,12.6,-15.3,-13.6,0.210394604,0.0363780633,0.184240242,-0.959379864
565,1416190,1229780,0.036,-0.228,0.8,-38.6,-25.2,-44.2,12.6,-15.3,-13.6,0.209601123,0.0354930265,0.184972686,-0.959471419
566,1417710,1229790,0.092,-0.445,0.788,-35.7,-28.6,-41.3,12.6,-15.3,-13.6,0.208868679,0.0345774712,0.185613575,-0.959532456
567,1420274,1229790,0.111,-0.505,0.78,-33,-31.8,-39.3,12.6,-15.3,-13.6,0.208197272,0.0336008789,0.186193426,-0.959593493
568,1423709,1229790,0.138,-0.529,0.771,-30.7,-34.4,-38.2,12.6,-15.3,-13.6,0.207556383,0.0325937681,0.186712241,-0.95965453
569,1425234,1229790,0.187,-0.499,0.774,-29.1,-36.2,-38.1,12.6,-15.3,-13.6,0.206915494,0.0315256203,0.187170019,-0.959746086
570,1427997,1229800,0.215,-0.476,0.773,-27.7,-37.2,-39.1,12.6,-15.3,-13.6,0.206274606,0.0304574725,0.187627796,-0.959837642
571,1431104,1229800,0.239,-0.457,0.776,-25.8,-37.6,-40.9,12.6,-15.3,-13.6,0.205603198,0.0293893246,0.188024537,-0.959929197
572,1432687,1229800,0.27,-0.457,0.763,-18.8,-38.9,-44.4,12.6,-15.3,-13.6,0.204840236,0.0283211768,0.188268685,-0.96008179
573,1435557,1229800,0.357,-0.522,0.757,-18.8,-38.9,-44.4,12.6,-15.3,-13.6,0.204077273,0.0272225105,0.188512833,-0.960234382
574,1438617,1229810,0.412,-0.547,0.76,-14.1,-40.3,-44.6,12.6,-15.3,-13.6,0.20331431,0.0261238441,0.188665426,-0.960386975
575,1440182,1229810,0.471,-0.564,0.766,-9.4,-42.1,-43.4,12.6,-15.3,-13.6,0.202581866,0.0250251778,0.188695944,-0.960570086
576,1443235,1229810,0.527,-0.561,0.78,-4.7,-43.8,-41.4,13,-14.4,-13,0.20187994,0.0239265114,0.188634907,-0.960753197
577,1445458,1229810,0.623,-0.505,0.805,-0.4,-45.1,-39.5,13,-14.4,-13,0.201239051,0.0228278451,0.188451796,-0.960936308
578,1447684,1229820,0.687,-0.475,0.842,3.4,-45.8,-38.2,13,-14.4,-13,0.200628681,0.0217291787,0.188207648,-0.961149937
579,1450259,1229820,0.74,-0.44,0.888,7.1,-45.6,-37.7,13,-14.4,-13,0.200018311,0.0206305124,0.187871944,-0.961363567
580,1453696,1229820,0.784,-0.386,0.886,11.8,-44.5,-37.5,13,-14.4,-13,0.199407941,0.0195928831,0.187444685,-0.961607715
581,1455144,1229820,0.771,-0.166,0.722,17.7,-43,-37.5,13,-14.4,-13,0.198797571,0.0186162908,0.186895352,-0.961851863
582,1458060,1229830,0.784,-0.06,0.627,23.8,-41.6,-37.8,13,-14.4,-13,0.198156682,0.0177007355,0.186223945,-0.96212653
583,1460422,1229830,0.809,0.032,0.58,27.9,-40.3,-38.8,13,-14.4,-13,0.197485275,0.0168156987,0.185491501,-0.962431715
584,1463364,1229830,0.862,0.129,0.586,30.1,-38.8,-40.3,13,-14.4,-13,0.196813868,0.0159611805,0.184698019,-0.9627369
585,1465219,1229830,0.926,0.116,0.682,32.8,-37,-41.6,13,-14.4,-13,0.196050905,0.0151676992,0.18387402,-0.963072604
586,1469149,1229840,1.021,0.071,0.757,38.5,-35.2,-41.7,13,-14.4,-13,0.195318461,0.0144047365,0.182897427,-0.963408307
587,1470770,1229840,1.123,-0.001,0.782,47.1,-33.8,-39.4,13,-14.4,-13,0.194616535,0.0137333293,0.181798761,-0.963774529
588,1472977,1229840,1.304,-0.143,0.79,55.9,-32.6,-34.5,13.4,-14.2,-15.8,0.194006165,0.0131534776,0.180486465,-0.964140751
589,1475236,1229840,1.406,-0.208,0.826,62.2,-31.3,-27.4,13.4,-14.2,-15.8,0.193517869,0.0126651814,0.179052095,-0.964506973
590,1477732,1229850,1.516,-0.293,0.874,64.7,-29.6,-19.4,13.4,-14.2,-15.8,0.193212683,0.0122379223,0.177556688,-0.964842677
591,1481039,1229850,1.599,-0.377,0.942,63.4,-27,-10.7,13.4,-14.2,-15.8,0.193060091,0.0118717002,0.176122318,-0.965147862
592,1482571,1229850,1.747,-0.538,1.013,52.8,-17.7,10.4,13.4,-14.2,-15.8,0.193334758,0.0117801447,0.174932096,-0.965330973
593,1486244,1229850,1.79,-0.61,1.012,52.8,-17.7,10.4,13.4,-14.2,-15.8,0.193578906,0.0116580706,0.173741874,-0.965483566
594,1487721,1229860,1.817,-0.677,1.008,44,-11,23.3,13.4,-14.2,-15.8,0.194128239,0.0116885891,0.172765282,-0.965544603
595,1491218,1229860,1.803,-0.795,1.036,33.4,-2.9,36.6,13.4,-14.2,-15.8,0.19492172,0.0119327372,0.172032838,-0.965514084
596,1492749,1229860,1.775,-0.841,1.045,22,6.3,49.4,12.7,-15.6,-13.8,0.195928831,0.0123294778,0.17157506,-0.96539201
597,1495261,1229860,1.734,-0.872,1.038,10.8,16.6,61.5,12.7,-15.6,-13.8,0.197149571,0.0129703665,0.171422468,-0.965147862
598,1498743,1229870,1.639,-0.921,1.06,0.9,27.1,73,12.7,-15.6,-13.8,0.198583941,0.0137943663,0.171483505,-0.964842677
599,1500429,1229870,1.582,-0.97,0.995,-7.3,37.8,85.3,12.7,-15.6,-13.8,0.200262459,0.0148930326,0.17178869,-0.964445936
600,1502585,1229870,1.526,-0.985,1.009,-13.4,47.2,97.2,11.8,-16,-12.9,0.202124088,0.0162053285,0.172246467,-0.963927122
601,1505493,1229870,1.466,-0.995,1.014,-17.2,54.6,108.3,11.8,-16,-12.9,0.204199347,0.017670217,0.172795801,-0.963377789
602,1507695,1229880,1.419,-0.998,1.004,-18.8,60,117.3,11.8,-16,-12.9,0.206457717,0.019287698,0.173406171,-0.9627369
603,1510223,1229880,1.327,-0.992,0.944,-19.2,65,125.3,11.8,-16,-12.9,0.20883816,0.0210577715,0.17404706,-0.962096011
604,1513685,1229880,1.291,-0.987,0.925,-19.1,69.6,132.8,11.7,-16.2,-11.8,0.211371197,0.0229194006,0.174718467,-0.961363567
605,1515207,1229880,1.252,-0.975,0.907,-18.5,73.6,140.1,11.7,-16.2,-11.8,0.214056825,0.0249031037,0.175359355,-0.960600604
606,1517819,1229890,1.22,-0.966,0.884,-17.4,76.8,147.2,11.7,-16.2,-11.8,0.21683401,0.0269783624,0.176000244,-0.959807123
607,1521426,1229890,1.176,-0.957,0.85,-15.8,79.3,154,11.7,-16.2,-11.8,0.219763787,0.0291756951,0.176641133,-0.958952605
608,1523027,1229890,1.153,-0.953,0.843,-13.4,81.2,160.3,10.9,-16.5,-10.8,0.222815638,0.0314340648,0.177190466,-0.958067568
609,1525261,1229890,1.141,-0.957,0.835,-10.7,82.6,166,10.9,-16.5,-10.8,0.225989563,0.033722953,0.177709281,-0.957182531
610,1527668,1229900,1.109,-0.952,0.824,-7.8,83.8,171.2,10.9,-16.5,-10.8,0.229224525,0.0361339152,0.178167058,-0.956236457
611,1530038,1229900,1.101,-0.948,0.813,-5.3,84.7,176.1,10.9,-16.5,-10.8,0.232581561,0.0385448775,0.178563799,-0.955259865
612,1532954,1229900,1.093,-0.948,0.805,-2.1,86.7,185.1,10.9,-16.5,-10.8,0.236091189,0.0410473952,0.178868984,-0.954222236
613,1536055,1229900,1.093,-0.944,0.805,-2.1,86.7,185.1,10.9,-16.5,-10.8,0.239600818,0.0435804315,0.179204688,-0.953154088
614,1537632,1229910,1.081,-0.944,0.794,-1.2,87.6,189.1,10.9,-16.5,-10.8,0.243202002,0.0461439863,0.179509873,-0.95208594
615,1541313,1229910,1.081,-0.94,0.802,-0.6,88.4,192.9,10.9,-16.5,-10.8,0.246864223,0.0487380596,0.179784539,-0.950956755
616,1542760,1229910,1.077,-0.939,0.794,-0.3,89.1,196.5,9.6,-16.9,-12.7,0.250587481,0.0513626514,0.180059206,-0.949797052
617,1545957,1229910,1.065,-0.935,0.794,-0.5,90,199.9,9.6,-16.9,-12.7,0.254371776,0.0539872433,0.180333872,-0.948576312
618,1547629,1229920,1.054,-0.919,0.795,-1.3,91,203.3,9.6,-16.9,-12.7,0.258217109,0.0566728721,0.180639058,-0.947325053
619,1551187,1229920,1.042,-0.919,0.783,-2.8,92.2,206.4,9.6,-16.9,-12.7,0.262123478,0.0593585009,0.180944243,-0.946043275
620,1552836,1229920,1.026,-0.915,0.772,-4.9,93.3,209.2,8.9,-17,-13.2,0.266090884,0.0621051668,0.181310465,-0.944669942
621,1556290,1229920,0.998,-0.902,0.769,-7.2,94.3,212,8.9,-17,-13.2,0.270088809,0.0648518326,0.181737724,-0.943296609
622,1557855,1229930,0.958,-0.894,0.758,-9.7,95.4,214.8,8.9,-17,-13.2,0.274147771,0.0675984985,0.182195502,-0.941831721
623,1560054,1229930,0.927,-0.873,0.751,-12,96.7,217.3,8.9,-17,-13.2,0.278237251,0.0703756829,0.182683798,-0.940336314
624,1563708,1229930,0.879,-0.86,0.74,-14.6,98.5,219.5,8.1,-17.7,-14,0.28235725,0.0731833857,0.183233131,-0.93877987
625,1565157,1229930,0.789,-0.819,0.735,-17.5,100.5,221.4,8.1,-17.7,-14,0.286507767,0.0760216071,0.18387402,-0.937162389
626,1568236,1229940,0.73,-0.794,0.733,-20.9,102.8,222.8,8.1,-17.7,-14,0.290688803,0.078890347,0.184575945,-0.935514389
627,1570038,1229940,0.675,-0.753,0.742,-24.9,105.4,223.6,8.1,-17.7,-14,0.294869839,0.0817896054,0.185369427,-0.933774834
628,1573367,1229940,0.616,-0.721,0.743,-29,108,223.5,7.8,-17.4,-14.8,0.299050874,0.0846888638,0.186254463,-0.932035279
629,1575313,1229940,0.474,-0.655,0.731,-33.3,110.5,222.9,7.8,-17.4,-14.8,0.303170873,0.0876491592,0.187231056,-0.930204169
630,1578153,1229950,0.407,-0.629,0.725,-37.7,112.6,222,7.8,-17.4,-14.8,0.307290872,0.0905789361,0.188299203,-0.928373058
631,1580497,1229950,0.339,-0.608,0.723,-42,114.2,220.7,7.8,-17.4,-14.8,0.311380352,0.093508713,0.189489425,-0.926480911
632,1582684,1229950,0.218,-0.519,0.695,-49.4,115.7,216.2,7.8,-17.4,-14.8,0.315378277,0.0964079714,0.19083224,-0.924558245
633,1585835,1229950,0.146,-0.557,0.728,-49.4,115.7,216.2,7.8,-17.4,-14.8,0.319345683,0.0993072298,0.192175054,-0.92260506
634,1588143,1229960,0.11,-0.517,0.701,-53,115.6,213.1,7.8,-17.4,-14.8,0.323252052,0.102145451,0.193578906,-0.920621357
635,1590377,1229960,0.059,-0.508,0.691,-56.3,114.5,209,7.8,-17.4,-14.8,0.327097385,0.104953154,0.195043794,-0.918637654
636,1593287,1229960,-0.094,-0.465,0.699,-59,113.2,204.1,6.2,-18.1,-13.6,0.330820643,0.107669301,0.19656972,-0.916653951
637,1595659,1229960,-0.15,-0.452,0.689,-60.5,112.8,199.3,6.2,-18.1,-13.6,0.334452345,0.110324412,0.198126164,-0.914700766
638,1598422,1229970,-0.205,-0.431,0.682,-61.4,113.5,195.7,6.2,-18.1,-13.6,0.338023011,0.112979522,0.199713126,-0.912717063
639,1600153,1229970,-0.256,-0.414,0.676,-61.8,114.5,193,6.2,-18.1,-13.6,0.34153264,0.115665151,0.201300089,-0.91073336
640,1602651,1229970,-0.363,-0.376,0.682,-61.7,114.6,190.2,6,-18.1,-13.8,0.344950713,0.118320261,0.202887051,-0.908719138
641,1606776,1229970,-0.414,-0.359,0.676,-60.8,113.7,186.5,6,-18.1,-13.8,0.348307749,0.120914335,0.204474013,-0.906765954
642,1608296,1229980,-0.454,-0.354,0.685,-58.9,111.9,182.1,6,-18.1,-13.8,0.351573229,0.123508408,0.205999939,-0.904812769
643,1610039,1229980,-0.501,-0.338,0.686,-56.5,109.7,177.3,6,-18.1,-13.8,0.354716636,0.126041444,0.207495346,-0.902890103
644,1614319,1229980,-0.596,-0.308,0.677,-54.2,107.5,172.7,5.5,-17.9,-13.7,0.357768487,0.128513443,0.208929716,-0.900997955
645,1616657,1229980,-0.632,-0.287,0.662,-52.3,105.8,168.6,5.5,-17.9,-13.7,0.360759301,0.130954924,0.210303049,-0.899136326
646,1618033,1229990,-0.663,-0.259,0.667,-50.7,104.4,165.3,5.5,-17.9,-13.7,0.363658559,0.133365886,0.211645863,-0.897274697
647,1621111,1229990,-0.694,-0.235,0.66,-49.4,102.8,162.5,5.5,-17.9,-13.7,0.36649678,0.13574633,0.212958159,-0.895474105
648,1623371,1229990,-0.733,-0.187,0.661,-48.3,100.8,159.7,5.5,-18.1,-13.9,0.369304483,0.138065737,0.214209418,-0.893642994
649,1625267,1229990,-0.756,-0.147,0.677,-47.2,98.1,156.8,5.5,-18.1,-13.9,0.372051149,0.140324107,0.215460677,-0.891872921
650,1628362,1230000,-0.776,-0.115,0.685,-46,95.4,154,5.5,-18.1,-13.9,0.374736778,0.142521439,0.216650899,-0.890102847
651,1630151,1230000,-0.799,-0.083,0.662,-44.6,93.1,151.3,5.5,-18.1,-13.9,0.37736137,0.144688253,0.217810602,-0.888363292
652,1633762,1230000,-0.794,-0.028,0.689,-43.5,89.4,144.1,5.5,-18.1,-13.9,0.379955443,0.147373882,0.21887875,-0.886532182
653,1636198,1230000,-0.794,-0.028,0.689,-43.5,89.4,144.1,5.5,-18.1,-13.9,0.382457961,0.149418622,0.219946898,-0.884853664
654,1637788,1230010,-0.798,-0.008,0.705,-44.6,87.6,139.4,5.5,-18.1,-13.9,0.384868923,0.151432844,0.22113712,-0.883175146
655,1640521,1230010,-0.801,0.026,0.72,-47,86.1,134.3,5.5,-18.1,-13.9,0.38718833,0.153324992,0.222296823,-0.881527146
656,1643567,1230010,-0.797,0.038,0.72,-50.4,85.1,129.1,5.6,-17.6,-14.4,0.389446699,0.155156102,0.2235786,-0.879879147
657,1645401,1230010,-0.805,0.05,0.713,-54.6,84.3,123.8,5.6,-17.6,-14.4,0.391582995,0.156926176,0.224921415,-0.878292184
658,1648765,1230020,-0.821,0.05,0.709,-59.2,83.7,117.9,5.6,-17.6,-14.4,0.393658254,0.158604694,0.226355785,-0.876705222
659,1650220,1230020,-0.864,0.075,0.687,-64.1,83.6,111.6,5.6,-17.6,-14.4,0.39558092,0.160191656,0.227912229,-0.875118259
660,1653480,1230020,-0.904,0.075,0.672,-69.4,84.3,105.2,6,-17.6,-14.6,0.39741203,0.1617481,0.229590747,-0.873592334
661,1655642,1230020,-0.947,0.08,0.669,-75.4,85.5,99,6,-17.6,-14.6,0.399151585,0.163212989,0.231421857,-0.87203589
662,1658682,1230030,-1.046,0.118,0.645,-82.1,86.7,93.6,6,-17.6,-14.6,0.400769066,0.16461684,0.23340556,-0.870479446
663,1660574,1230030,-1.109,0.139,0.635,-89.7,87.7,88.9,6,-17.6,-14.6,0.40232551,0.165959655,0.235572375,-0.868923002
664,1663825,1230030,-1.185,0.164,0.621,-98.1,88.7,85,5.7,-17.5,-14.9,0.403851436,0.167210913,0.237891781,-0.867366558
665,1666102,1230030,-1.26,0.182,0.607,-106.7,89.6,81.5,5.7,-17.5,-14.9,0.405316324,0.168370617,0.240394299,-0.865749077
666,1667800,1230040,-1.402,0.228,0.58,-115,90.3,78.4,5.7,-17.5,-14.9,0.406720176,0.169469283,0.243079928,-0.864131596
667,1670126,1230040,-1.469,0.246,0.566,-122.3,90.8,75.4,5.7,-17.5,-14.9,0.408124027,0.170506912,0.245918149,-0.862453078
668,1672672,1230040,-1.541,0.251,0.552,-127.8,90.9,72.6,6,-16.8,-15.1,0.409466842,0.171452986,0.248847926,-0.86077456
669,1676075,1230040,-1.597,0.252,0.53,-131.5,90.2,69.4,6,-16.8,-15.1,0.410779138,0.172368542,0.251869259,-0.859096042
670,1677954,1230050,-1.676,0.231,0.497,-132.9,88.6,65.8,6,-16.8,-15.1,0.412030396,0.173192541,0.25492111,-0.857448042
671,1681875,1230050,-1.696,0.219,0.498,-132.1,85.9,61.4,6,-16.8,-15.1,0.4131901,0.173955504,0.257911924,-0.855830561
672,1684176,1230050,-1.705,0.204,0.51,-123.5,77.8,51,6,-16.8,-15.1,0.414166692,0.174565874,0.260750145,-0.854365673
673,1686923,1230050,-1.705,0.176,0.518,-123.5,77.8,51,6,-16.8,-15.1,0.415143284,0.175206763,0.263557848,-0.852900784
674,1688946,1230060,-1.67,0.085,0.575,-117.3,73,45.9,6,-16.8,-15.1,0.416028321,0.175756096,0.266212958,-0.851527451
675,1691198,1230060,-1.639,0.045,0.594,-110.5,68.6,41.7,6,-16.8,-15.1,0.416821802,0.176274911,0.268745994,-0.850245674
676,1693551,1230060,-1.616,0.001,0.613,-103.5,64.6,38.5,6.2,-16.3,-15.9,0.417554247,0.176763207,0.27109592,-0.849024934
677,1695444,1230060,-1.553,-0.062,0.643,-96.5,61,35.6,6.2,-16.3,-15.9,0.418225654,0.177220985,0.273293252,-0.847895749
678,1697772,1230070,-1.526,-0.078,0.646,-90.2,57.7,32.5,6.2,-16.3,-15.9,0.418836024,0.177648244,0.275368511,-0.846827601
679,1700700,1230070,-1.502,-0.079,0.665,-85.1,54.9,29.1,6.2,-16.3,-15.9,0.419385357,0.178075503,0.277321696,-0.845851009
680,1702688,1230070,-1.478,-0.068,0.68,-81.1,52.8,25.3,6.2,-16.1,-16.4,0.419843135,0.178441725,0.279213843,-0.844904935
681,1705309,1230070,-1.433,-0.014,0.714,-77.8,51.4,21.6,6.2,-16.1,-16.4,0.420239875,0.178807947,0.281044954,-0.844050417
682,1708551,1230080,-1.424,0.017,0.741,-74.7,50.7,17.9,6.2,-16.1,-16.4,0.420545061,0.179174169,0.282815027,-0.843226417
683,1710738,1230080,-1.416,0.064,0.764,-71.3,50.2,14.6,6.2,-16.1,-16.4,0.420789209,0.179540391,0.284524064,-0.842432936
684,1713003,1230080,-1.411,0.119,0.791,-67.4,50,11.8,6.6,-15.8,-16.7,0.420941801,0.179906613,0.286172063,-0.84173101
685,1715315,1230080,-1.397,0.232,0.814,-63.3,49.9,10,6.6,-15.8,-16.7,0.421063875,0.180303354,0.287759026,-0.841029084
686,1717891,1230090,-1.4,0.288,0.825,-59.5,49.6,8.9,6.6,-15.8,-16.7,0.421155431,0.180730613,0.289254433,-0.840388195
687,1721298,1230090,-1.391,0.338,0.833,-56.8,49.1,8.3,6.6,-15.8,-16.7,0.421216468,0.181157872,0.290719321,-0.839747307
688,1723563,1230090,-1.39,0.382,0.841,-55.7,48.4,8.1,6.3,-15.7,-16.8,0.421277505,0.181585131,0.292153691,-0.839136937
689,1725688,1230090,-1.374,0.44,0.867,-55.8,47.5,8,6.3,-15.7,-16.8,0.421338542,0.181981872,0.293588061,-0.838496048
690,1728185,1230100,-1.357,0.452,0.871,-56.6,46.7,7.8,6.3,-15.7,-16.8,0.421430097,0.182378613,0.295022431,-0.837885678
691,1730363,1230100,-1.338,0.451,0.87,-57.6,46.1,7.1,6.3,-15.7,-16.8,0.421491134,0.182744835,0.29648732,-0.837275307
692,1732951,1230100,-1.29,0.438,0.857,-61.7,45,5,6.3,-15.7,-16.8,0.421521653,0.183019501,0.297982727,-0.836634419
693,1735287,1230100,-1.271,0.434,0.849,-61.7,45,5,6.3,-15.7,-16.8,0.42158269,0.183324686,0.299508652,-0.836024049
694,1737974,1230110,-1.259,0.422,0.845,-65.8,44.6,3.8,6.3,-15.7,-16.8,0.421613208,0.183538316,0.301126133,-0.835352641
695,1740144,1230110,-1.251,0.422,0.837,-71.1,44.6,2.5,6.3,-15.7,-16.8,0.421643727,0.183721427,0.302804651,-0.834681234
696,1743853,1230110,-1.235,0.41,0.828,-76.7,45.3,1.4,3.8,-15.1,-17.4,0.421674245,0.183812983,0.304635762,-0.833979308
697,1746004,1230110,-1.224,0.405,0.816,-82,46.4,0.5,3.8,-15.1,-17.4,0.421704764,0.183935057,0.306527909,-0.833246864
698,1748310,1230120,-1.212,0.409,0.8,-86.7,47.6,-0.3,3.8,-15.1,-17.4,0.421735282,0.183996094,0.308542131,-0.832483901
699,1750248,1230120,-1.204,0.409,0.792,-90.9,48.6,-1.1,3.8,-15.1,-17.4,0.421735282,0.184057131,0.310647908,-0.83169042
700,1752608,1230120,-1.188,0.416,0.761,-95,49.4,-2,3.7,-14.6,-17.7,0.421765801,0.184057131,0.312845241,-0.83086642
701,1755283,1230120,-1.18,0.412,0.749,-99.3,50,-3.1,3.7,-14.6,-17.7,0.421765801,0.184026612,0.31510361,-0.830011902
702,1759372,1230130,-1.172,0.416,0.741,-103.8,50.7,-4.5,3.7,-14.6,-17.7,0.421735282,0.183965575,0.317484054,-0.829096347
703,1760119,1230130,-1.14,0.415,0.728,-108.4,51.3,-6.1,3.7,-14.6,-17.7,0.421704764,0.183812983,0.319925535,-0.82821131
704,1762709,1230130,-1.125,0.407,0.736,-112.8,52.1,-8,3.3,-14.6,-18.1,0.421643727,0.183690909,0.32248909,-0.827295755
705,1766178,1230130,-1.097,0.402,0.747,-117,53,-10.3,3.3,-14.6,-18.1,0.421552171,0.183507797,0.3251442,-0.826349681
706,1768477,1230140,-1.077,0.398,0.754,-120.7,53.9,-12.8,3.3,-14.6,-18.1,0.421430097,0.183263649,0.327860347,-0.825403607
707,1770729,1230140,-1.022,0.389,0.764,-123.8,54.8,-15.3,3.3,-14.6,-18.1,0.421246986,0.182988983,0.330637532,-0.824427015
708,1772897,1230140,-0.998,0.377,0.779,-126,55.6,-17.6,4.4,-14.1,-18.5,0.421033357,0.182714316,0.333506272,-0.823450423
709,1775262,1230140,-0.974,0.372,0.779,-127.7,56.4,-19.7,4.4,-14.1,-18.5,0.420789209,0.182409131,0.336375011,-0.82247383
710,1777820,1230150,-0.962,0.356,0.782,-129.1,57.1,-21.5,4.4,-14.1,-18.5,0.420484024,0.182103946,0.339304788,-0.821497238
711,1781206,1230150,-0.943,0.336,0.782,-130.2,57.8,-23,4.4,-14.1,-18.5,0.42014832,0.181768242,0.342265084,-0.820490127
712,1782623,1230150,-0.935,0.316,0.782,-130.6,59.5,-25,4.4,-14.1,-18.5,0.419782098,0.181432539,0.345255898,-0.819513535
713,1785672,1230150,-0.935,0.308,0.789,-130.6,59.5,-25,4.4,-14.1,-18.5,0.419385357,0.181127354,0.348216193,-0.818536943
714,1787909,1230160,-0.924,0.288,0.789,-129.3,60.1,-25.8,4.4,-14.1,-18.5,0.418988617,0.180822169,0.351176489,-0.817529832
715,1790972,1230160,-0.912,0.245,0.809,-127.1,60.7,-26.3,4.4,-14.1,-18.5,0.418561357,0.180547502,0.354106265,-0.81655324
716,1792645,1230160,-0.916,0.233,0.82,-124,60.9,-26.9,7.3,-11.1,-19,0.41810358,0.180272835,0.356975005,-0.815607166
717,1796135,1230160,-0.917,0.221,0.828,-120.1,60.8,-27.4,7.3,-11.1,-19,0.417584765,0.180059206,0.359782708,-0.814661092
718,1797685,1230170,-0.928,0.214,0.856,-116,60.7,-28.2,7.3,-11.1,-19,0.41706595,0.179845576,0.362498856,-0.813776055
719,1800204,1230170,-0.917,0.21,0.863,-111.9,60.7,-29.4,7.3,-11.1,-19,0.416486099,0.179662465,0.365153966,-0.812921537
720,1803656,1230170,-0.905,0.198,0.863,-108.1,60.7,-31.2,9,-10.5,-19.1,0.415906247,0.179509873,0.367748039,-0.812097537
721,1805258,1230170,-0.901,0.205,0.902,-104.5,60.4,-33.1,9,-10.5,-19.1,0.41523484,0.179387799,0.370281075,-0.811334574
722,1808118,1230180,-0.815,0.137,0.845,-100.8,59.3,-34.5,9,-10.5,-19.1,0.414532914,0.179235206,0.372753075,-0.81060213
723,1810338,1230180,-0.815,0.109,0.838,-96.7,57.1,-34.8,9,-10.5,-19.1,0.413830988,0.179082614,0.375103,-0.809900204
724,1813381,1230180,-0.804,0.081,0.845,-91.5,54.1,-33.3,9.6,-10.2,-19.7,0.413159581,0.178930021,0.377330851,-0.809228797
725,1815087,1230180,-0.8,0.054,0.869,-84.3,50.9,-30.2,9.6,-10.2,-19.7,0.412518693,0.178838466,0.379375591,-0.808618427
726,1818602,1230190,-0.816,0.035,0.904,-75.4,48.4,-26.2,9.6,-10.2,-19.7,0.411938841,0.178807947,0.381267739,-0.808038575
727,1820149,1230190,-0.812,0.034,0.9,-65.8,47,-22.9,9.6,-10.2,-19.7,0.411420026,0.178838466,0.382946257,-0.807489242
728,1822578,1230190,-0.8,0.026,0.888,-57.4,46.3,-21.1,10.3,-9.9,-19.5,0.410870693,0.178930021,0.384441664,-0.807031465
729,1826282,1230190,-0.804,0.034,0.881,-50.3,45.4,-20.7,10.3,-9.9,-19.5,0.41032136,0.179143651,0.385814997,-0.806604205
730,1828363,1230200,-0.808,0.038,0.881,-43.9,44,-20.7,10.3,-9.9,-19.5,0.409772027,0.17935728,0.387066256,-0.806268502
731,1831319,1230200,-0.812,0.05,0.873,-37.5,42.4,-20.3,10.3,-9.9,-19.5,0.409192175,0.179601428,0.388195441,-0.805963317
732,1832839,1230200,-0.8,0.05,0.857,-23.2,38.8,-17.8,9.1,-11.6,-19.5,0.408642842,0.179906613,0.38901944,-0.805749687
733,1835906,1230200,-0.788,0.053,0.857,-23.2,38.8,-17.8,9.1,-11.6,-19.5,0.408093509,0.180242317,0.38984344,-0.805566576
734,1838843,1230210,-0.784,0.061,0.864,-15.8,36.7,-16.7,9.1,-11.6,-19.5,0.407544176,0.180608539,0.390514847,-0.805444502
735,1840699,1230210,-0.784,0.057,0.868,-8.9,34.4,-16,9.1,-11.6,-19.5,0.406994842,0.180974761,0.391033662,-0.805383465
736,1843642,1230210,-0.788,0.065,0.86,-2.5,32.2,-15.4,9,-11.3,-19.8,0.406476028,0.18140202,0.391430403,-0.805352947
737,1845209,1230210,-0.796,0.069,0.853,2.7,30.3,-15,9,-11.3,-19.8,0.405926695,0.181829279,0.391705069,-0.805383465
738,1848367,1230220,-0.8,0.073,0.841,6.7,28.7,-14.7,9,-11.3,-19.8,0.40540788,0.182256539,0.391918699,-0.805475021
739,1851088,1230220,-0.8,0.073,0.845,9.5,27.5,-14.9,9,-11.3,-19.8,0.404858547,0.182714316,0.392040773,-0.805566576
740,1852687,1230220,-0.792,0.057,0.822,11,26.3,-15.7,9.4,-11,-19.6,0.404309214,0.183141575,0.392162847,-0.805658132
741,1855478,1230220,-0.789,0.002,0.794,11.6,25.2,-16.8,9.4,-11,-19.6,0.40375988,0.183538316,0.392223884,-0.805841243
742,1858527,1230230,-0.79,-0.032,0.787,12,24,-17.6,9.4,-11,-19.6,0.403180029,0.183904538,0.392315439,-0.806024354
743,1861273,1230230,-0.791,-0.079,0.775,12.8,22.8,-17.4,9.4,-11,-19.6,0.402630696,0.18427076,0.392345958,-0.806176946
744,1862767,1230230,-0.788,-0.15,0.779,14.4,21.6,-16.3,9.6,-12.3,-19.7,0.402111881,0.184636982,0.392345958,-0.806360057
745,1865964,1230230,-0.784,-0.201,0.775,16.6,20.5,-14.8,9.6,-12.3,-19.7,0.401593066,0.185033723,0.392284921,-0.806543168
746,1868143,1230240,-0.789,-0.244,0.776,18.8,19.8,-13.5,9.6,-12.3,-19.7,0.40110477,0.185430464,0.392193365,-0.806756798
747,1870382,1230240,-0.794,-0.291,0.772,20.7,19.2,-12.5,9.6,-12.3,-19.7,0.400646992,0.185827204,0.392040773,-0.806970428
748,1872687,1230240,-0.799,-0.358,0.78,22.4,18.7,-11.9,9.5,-13.2,-19.8,0.400189215,0.186254463,0.391857662,-0.807184057
749,1875064,1230240,-0.803,-0.389,0.78,24.1,18.6,-11.4,9.5,-13.2,-19.8,0.399731437,0.186712241,0.391644032,-0.807397687
750,1879460,1230250,-0.803,-0.417,0.792,26.2,18.5,-10.8,9.5,-13.2,-19.8,0.399273659,0.187170019,0.391399884,-0.807641835
751,1881679,1230250,-0.804,-0.448,0.796,28.8,18.5,-10,9.5,-13.2,-19.8,0.398815882,0.187658315,0.391094699,-0.807916501
752,1884180,1230250,-0.796,-0.48,0.796,35.5,18.1,-8.3,9.6,-10.1,-18.6,0.398358104,0.188207648,0.39066744,-0.808221686
753,1886082,1230250,-0.797,-0.496,0.796,35.5,18.1,-8.3,9.6,-10.1,-18.6,0.397930845,0.1887875,0.390209662,-0.808526872
754,1887700,1230260,-0.793,-0.5,0.788,39.2,17.5,-7.5,9.6,-10.1,-18.6,0.397473067,0.189367351,0.389721366,-0.808832057
755,1890318,1230260,-0.793,-0.504,0.78,42.9,16.7,-6.6,9.6,-10.1,-18.6,0.397045808,0.189977721,0.389141514,-0.809198279
756,1893868,1230260,-0.797,-0.496,0.765,46,16,-5.7,9.7,-12.8,-20,0.396618549,0.19061861,0.388470107,-0.809564501
757,1895963,1230260,-0.805,-0.492,0.757,48.6,15.4,-4.7,9.7,-12.8,-20,0.39619129,0.191259499,0.387768181,-0.809961241
758,1898105,1230270,-0.813,-0.48,0.746,50.7,14.9,-3.7,9.7,-12.8,-20,0.395794549,0.191930906,0.387005219,-0.810357982
759,1900373,1230270,-0.824,-0.464,0.742,52.7,14.4,-2.7,9.7,-12.8,-20,0.395397809,0.192602313,0.386211737,-0.810754723
760,1902704,1230270,-0.82,-0.452,0.73,54.6,13.9,-1.9,9.9,-13.1,-20,0.395001068,0.193304239,0.385387738,-0.811181982
761,1905252,1230270,-0.816,-0.448,0.73,56.5,13.4,-1,9.9,-13.1,-20,0.394634846,0.194036683,0.384502701,-0.811609241
762,1908624,1230280,-0.82,-0.44,0.73,58.1,12.9,0,9.9,-13.1,-20,0.394299142,0.194769127,0.383587146,-0.8120365
763,1910294,1230280,-0.808,-0.433,0.73,59.4,12.3,1.1,9.9,-13.1,-20,0.393963439,0.195501572,0.382641072,-0.812463759
764,1913441,1230280,-0.808,-0.433,0.722,60.1,11.7,2.3,9.8,-12.7,-19.4,0.393627735,0.196234016,0.38166448,-0.812921537
765,1915151,1230280,-0.804,-0.437,0.726,60.4,10.9,3.4,9.8,-12.7,-19.4,0.393353069,0.196996979,0.380657369,-0.813348796
766,1917713,1230290,-0.792,-0.445,0.725,60.3,10.3,4.2,9.8,-12.7,-19.4,0.393047884,0.197729423,0.379650258,-0.813745537
767,1921865,1230290,-0.777,-0.449,0.721,59.9,9.7,4.7,9.8,-12.7,-19.4,0.392834254,0.198461867,0.378673666,-0.814172796
768,1924099,1230290,-0.769,-0.457,0.717,59.1,9.3,4.7,10.1,-12.3,-19.5,0.392559587,0.199163793,0.377666555,-0.814569536
769,1926328,1230290,-0.773,-0.461,0.717,58,8.9,4.7,10.1,-12.3,-19.5,0.392315439,0.199865719,0.376689962,-0.814966277
770,1928637,1230300,-0.769,-0.465,0.709,56.7,8.8,4.7,10.1,-12.3,-19.5,0.39210181,0.200537126,0.375743889,-0.815363018
771,1930819,1230300,-0.757,-0.469,0.689,55.3,8.6,4.9,10.1,-12.3,-19.5,0.391857662,0.201208533,0.374797815,-0.81572924
772,1933046,1230300,-0.757,-0.473,0.674,52.7,7.9,5.9,10,-12.3,-17.4,0.391674551,0.201849422,0.373912778,-0.816064943
773,1935341,1230300,-0.753,-0.473,0.67,52.7,7.9,5.9,10,-12.3,-17.4,0.39149144,0.20249031,0.372997223,-0.816431166
774,1938048,1230310,-0.754,-0.481,0.65,51.5,7.5,6.6,10,-12.3,-17.4,0.391308329,0.203131199,0.372142705,-0.816736351
775,1942004,1230310,-0.754,-0.477,0.646,50.1,7.1,7.2,10,-12.3,-17.4,0.391155736,0.203741569,0.371257668,-0.817072054
776,1942685,1230310,-0.75,-0.473,0.638,48.6,6.8,7.7,10,-12.6,-19.2,0.391033662,0.204321421,0.370433668,-0.817346721
777,1945698,1230310,-0.746,-0.477,0.627,46.9,6.5,8.2,10,-12.6,-19.2,0.390911588,0.204931791,0.369609668,-0.817651906
778,1947954,1230320,-0.738,-0.466,0.611,45.1,6.2,8.5,10,-12.6,-19.2,0.390820032,0.205481124,0.368816187,-0.817896054
779,1950467,1230320,-0.734,-0.458,0.607,43.1,6,9,10,-12.6,-19.2,0.390728477,0.206030457,0.368053224,-0.818140202
780,1952835,1230320,-0.734,-0.454,0.603,41.2,5.7,9.3,9.9,-12.6,-19.4,0.39066744,0.206549272,0.36732078,-0.81838435
781,1955352,1230320,-0.73,-0.45,0.599,39.2,5.4,9.8,9.9,-12.6,-19.4,0.390636921,0.207068087,0.366618854,-0.818567461
782,1957616,1230330,-0.722,-0.439,0.587,37.3,5.2,10.2,9.9,-12.6,-19.4,0.390606403,0.207556383,0.365947447,-0.818750572
783,1960957,1230330,-0.718,-0.435,0.583,35.5,4.9,10.9,9.9,-12.6,-19.4,0.390606403,0.208044679,0.365306558,-0.818933683
784,1963188,1230330,-0.714,-0.435,0.571,33.9,4.7,11.5,10.1,-12.4,-19,0.390606403,0.208502457,0.364696188,-0.819086276
785,1965415,1230330,-0.698,-0.447,0.563,32.3,4.4,12.2,10.1,-12.4,-19,0.390636921,0.208960234,0.364085818,-0.81920835
786,1967667,1230340,-0.69,-0.447,0.563,30.8,4.1,12.9,10.1,-12.4,-19,0.390697958,0.209418012,0.363536485,-0.819330424
787,1970329,1230340,-0.686,-0.451,0.559,29.2,3.8,13.6,10.1,-12.4,-19,0.390789514,0.209845271,0.362987152,-0.819421979
788,1973662,1230340,-0.682,-0.459,0.555,27.7,3.5,14.1,9.5,-13.1,-18.6,0.390881069,0.210242012,0.362437819,-0.819513535
789,1975233,1230340,-0.675,-0.471,0.547,26,3.3,14.5,9.5,-13.1,-18.6,0.391003143,0.210638752,0.361949522,-0.819574572
790,1977617,1230350,-0.671,-0.475,0.55,24.3,3.2,14.7,9.5,-13.1,-18.6,0.391094699,0.211035493,0.361461226,-0.819635609
791,1981166,1230350,-0.667,-0.475,0.546,22.5,3.1,14.9,9.5,-13.1,-18.6,0.391247291,0.211371197,0.361003449,-0.819666128
792,1982649,1230350,-0.663,-0.479,0.562,19.3,3,15.2,9.7,-13.4,-18.6,0.391369366,0.211859493,0.360850856,-0.819574572
793,1985202,1230350,-0.659,-0.483,0.562,19.3,3,15.2,9.7,-13.4,-18.6,0.391521958,0.212195196,0.360454115,-0.819574572
794,1988824,1230360,-0.659,-0.483,0.562,18.1,3,15.4,9.7,-13.4,-18.6,0.391705069,0.2125309,0.360087893,-0.819574572
795,1990155,1230360,-0.655,-0.484,0.566,17,3.1,15.5,9.7,-13.4,-18.6,0.391857662,0.212836085,0.359721671,-0.819544053
796,1992958,1230360,-0.651,-0.488,0.566,15.9,3.2,15.7,9.7,-13.2,-16.7,0.392040773,0.213171789,0.359416486,-0.819544053
797,1995962,1230360,-0.647,-0.484,0.558,14.8,3.3,15.9,9.7,-13.2,-16.7,0.392223884,0.213476974,0.359080782,-0.819483016
798,1997625,1230370,-0.643,-0.484,0.557,13.9,3.2,16.1,9.7,-13.2,-16.7,0.392437513,0.213782159,0.358806116,-0.819452498
799,2000484,1230370,-0.647,-0.484,0.561,12.9,3.2,15.9,9.7,-13.2,-16.7,0.392620624,0.214087344,0.358531449,-0.819391461
800,2002836,1230370,-0.643,-0.476,0.554,12.1,3.2,15.7,9.7,-13.5,-16,0.392834254,0.214362011,0.358256783,-0.819330424
801,2005314,1230370,-0.643,-0.472,0.554,11.6,3.1,15.3,9.7,-13.5,-16,0.393017365,0.214636677,0.358012635,-0.819299905
802,2008305,1230380,-0.643,-0.472,0.554,11.2,3.2,15,9.7,-13.5,-16,0.393230995,0.214911344,0.357768487,-0.819238868
803,2011405,1230380,-0.643,-0.472,0.546,10.8,3.2,14.9,9.7,-13.5,-16,0.393414106,0.21518601,0.357524339,-0.819177831
804,2013592,1230380,-0.647,-0.452,0.53,10.4,3.2,14.8,9.8,-13.2,-15.2,0.393597217,0.215460677,0.357310709,-0.819116794
805,2015887,1230380,-0.643,-0.445,0.534,9.9,3,14.9,9.8,-13.2,-15.2,0.393810846,0.215704825,0.357066561,-0.819055757
806,2018089,1230390,-0.642,-0.433,0.53,9.5,2.6,14.9,9.8,-13.2,-15.2,0.393993957,0.215948973,0.356852931,-0.81899472
807,2021096,1230390,-0.634,-0.429,0.526,9,2.2,14.8,9.8,-13.2,-15.2,0.394207587,0.216193121,0.356639302,-0.818903165
808,2022685,1230390,-0.634,-0.417,0.518,8.4,1.7,14.5,9.3,-13.5,-15.2,0.394421216,0.216406751,0.356425672,-0.818842128
809,2025540,1230390,-0.63,-0.413,0.522,7.6,1.5,14.2,9.3,-13.5,-15.2,0.394604328,0.21662038,0.356242561,-0.818781091
810,2028645,1230400,-0.63,-0.406,0.518,6.5,1.6,13.9,9.3,-13.5,-15.2,0.394817957,0.216803491,0.356089969,-0.818689535
811,2030151,1230400,-0.63,-0.398,0.514,5.2,1.7,13.5,9.3,-13.5,-15.2,0.395001068,0.216986602,0.355937376,-0.818628498
812,2032623,1230400,-0.63,-0.362,0.514,2.3,1.7,12.7,9.7,-13.8,-19.6,0.395123142,0.217383343,0.356242561,-0.818323313
813,2036192,1230400,-0.63,-0.362,0.514,2.3,1.7,12.7,9.7,-13.8,-19.6,0.395336772,0.217535936,0.356181524,-0.818201239
814,2037650,1230410,-0.629,-0.358,0.51,0.7,1.7,12.2,9.7,-13.8,-19.6,0.395550401,0.21765801,0.356120487,-0.818109684
815,2040117,1230410,-0.633,-0.343,0.518,-0.8,1.7,11.8,9.7,-13.8,-19.6,0.395733512,0.217780084,0.356089969,-0.817987609
816,2043663,1230410,-0.633,-0.335,0.518,-2.3,1.7,11.4,9.3,-13.7,-17.9,0.395947142,0.217871639,0.356089969,-0.817865535
817,2045193,1230410,-0.629,-0.335,0.522,-3.9,1.7,11,9.3,-13.7,-17.9,0.396130253,0.217963195,0.356120487,-0.817743461
818,2048190,1230420,-0.629,-0.331,0.521,-5.4,1.5,10.6,9.3,-13.7,-17.9,0.396343883,0.217993713,0.356181524,-0.817590869
819,2050458,1230420,-0.625,-0.323,0.525,-7,1.2,10.3,9.3,-13.7,-17.9,0.396557512,0.21805475,0.35627308,-0.817438276
820,2053480,1230420,-0.625,-0.327,0.517,-8.6,0.9,9.7,9.3,-13.7,-18.6,0.396771142,0.218085269,0.356395154,-0.817285684
821,2055176,1230420,-0.629,-0.327,0.518,-10.1,0.7,9.3,9.3,-13.7,-18.6,0.396954253,0.218085269,0.356517228,-0.817133091
822,2058797,1230430,-0.633,-0.327,0.522,-11.6,0.5,8.7,9.3,-13.7,-18.6,0.397167882,0.21805475,0.356700339,-0.81694998
823,2060275,1230430,-0.633,-0.319,0.518,-13.1,0.2,8.2,9.3,-13.7,-18.6,0.397381512,0.217993713,0.35688345,-0.816766869
824,2063207,1230430,-0.633,-0.323,0.51,-14.8,-0.1,7.4,9.1,-13.5,-19.5,0.397595141,0.217932676,0.357127598,-0.816583758
825,2066264,1230430,-0.637,-0.319,0.514,-16.4,-0.3,6.7,9.1,-13.5,-19.5,0.397808771,0.217841121,0.357371746,-0.816400647
826,2067928,1230440,-0.637,-0.323,0.522,-17.8,-0.5,5.9,9.1,-13.5,-19.5,0.397991882,0.217719047,0.357676931,-0.816217536
827,2070944,1230440,-0.637,-0.323,0.518,-18.9,-0.6,5.3,9.1,-13.5,-19.5,0.398174993,0.217596973,0.357982116,-0.816034425
828,2073936,1230440,-0.633,-0.323,0.522,-19.7,-0.9,4.6,9.4,-13.5,-20.3,0.398358104,0.21744438,0.358287301,-0.815851314
829,2075419,1230440,-0.633,-0.323,0.529,-20.3,-1.3,3.9,9.4,-13.5,-20.3,0.398541215,0.217261269,0.358623005,-0.815668203
830,2077680,1230450,-0.633,-0.335,0.541,-21,-1.7,3.3,9.4,-13.5,-20.3,0.398724326,0.217078158,0.358958708,-0.815485092
831,2080191,1230450,-0.633,-0.339,0.541,-21.5,-2.2,2.6,9.4,-13.5,-20.3,0.398876919,0.216864528,0.359324931,-0.815301981
832,2084491,1230450,-0.629,-0.347,0.557,-22.4,-2.8,1.1,9.5,-13.6,-18.2,0.399029511,0.216650899,0.359691153,-0.81511887
833,2086708,1230450,-0.629,-0.347,0.557,-22.4,-2.8,1.1,9.5,-13.6,-18.2,0.399182104,0.216406751,0.360057375,-0.814935759
834,2088971,1230460,-0.629,-0.358,0.572,-22.7,-3,0.4,9.5,-13.6,-18.2,0.399304178,0.216162603,0.360423597,-0.814783166
835,2091150,1230460,-0.629,-0.362,0.58,-22.8,-3.2,0,9.5,-13.6,-18.2,0.399456771,0.215887936,0.360820338,-0.814600055
836,2093445,1230460,-0.633,-0.358,0.588,-22.8,-3.5,-0.3,9.4,-13.5,-18.2,0.399578845,0.215643788,0.36118656,-0.814447462
837,2095678,1230460,-0.637,-0.366,0.596,-22.6,-3.6,-0.7,9.4,-13.5,-18.2,0.399700919,0.215369121,0.361552782,-0.81429487
838,2097919,1230470,-0.641,-0.374,0.592,-22.6,-3.5,-1.2,9.4,-13.5,-18.2,0.399822993,0.215063936,0.361949522,-0.814142277
839,2100401,1230470,-0.641,-0.378,0.596,-22.7,-3.4,-1.7,9.4,-13.5,-18.2,0.399914548,0.214819788,0.362315744,-0.813989685
840,2102727,1230470,-0.645,-0.385,0.6,-22.8,-3.3,-2.3,9.8,-13.5,-18.2,0.400006104,0.214545122,0.362712485,-0.813837092
841,2105873,1230470,-0.657,-0.389,0.616,-22.8,-3.3,-2.8,9.8,-13.5,-18.2,0.400097659,0.214270455,0.363109226,-0.813715018
842,2107855,1230480,-0.661,-0.393,0.62,-22.7,-3.3,-3.2,9.8,-13.5,-18.2,0.400158696,0.21396527,0.363475448,-0.813562426
843,2111304,1230480,-0.653,-0.397,0.636,-22.7,-3.2,-3.7,9.8,-13.5,-18.2,0.400219733,0.213690603,0.363872188,-0.813440352
844,2112968,1230480,-0.657,-0.389,0.632,-22.7,-2.9,-4.2,9.4,-13.8,-18.3,0.40028077,0.213415937,0.364268929,-0.813318278
845,2115480,1230480,-0.661,-0.393,0.636,-22.8,-2.6,-4.7,9.4,-13.8,-18.3,0.400341807,0.213110752,0.364696188,-0.813196203
846,2117735,1230490,-0.665,-0.393,0.644,-23,-2.4,-5.1,9.4,-13.8,-18.3,0.400372326,0.212836085,0.365092929,-0.813043611
847,2120188,1230490,-0.673,-0.385,0.644,-23.2,-2,-5.5,9.4,-13.8,-18.3,0.400402844,0.212561419,0.365520188,-0.812921537
848,2123586,1230490,-0.665,-0.377,0.659,-23.3,-1.6,-5.8,9.6,-13.4,-18.1,0.400402844,0.212286752,0.365947447,-0.812799463
849,2125627,1230490,-0.661,-0.381,0.651,-23.8,-1.1,-6.2,9.6,-13.4,-18.1,0.400402844,0.211981567,0.366374706,-0.812677389
850,2127966,1230500,-0.665,-0.377,0.663,-24.1,-0.7,-6.6,9.6,-13.4,-18.1,0.400402844,0.2117069,0.366832484,-0.812524796
851,2130253,1230500,-0.665,-0.377,0.667,-24.6,-0.4,-6.5,9.6,-13.4,-18.1,0.400402844,0.211432234,0.367290262,-0.812402722
852,2132788,1230500,-0.676,-0.365,0.675,-25.4,0.5,-5.4,8.1,-13.1,-18.5,0.400524918,0.21131016,0.367625965,-0.81225013
853,2136186,1230500,-0.672,-0.361,0.659,-25.4,0.5,-5.4,8.1,-13.1,-18.5,0.400524918,0.211035493,0.368114261,-0.812067019
854,2137717,1230510,-0.676,-0.361,0.66,-26.4,1.3,-5,8.1,-13.1,-18.5,0.400555437,0.210791345,0.368602557,-0.811914426
855,2140238,1230510,-0.676,-0.349,0.679,-27.8,2,-5,8.1,-13.1,-18.5,0.400585955,0.210547197,0.369151891,-0.811700797
856,2143780,1230510,-0.676,-0.365,0.667,-29.5,2.6,-5.2,10.9,-12.5,-18.5,0.400616474,0.210303049,0.369731742,-0.811517685
857,2145325,1230510,-0.676,-0.369,0.671,-31,3.1,-5.4,10.9,-12.5,-18.5,0.400616474,0.210028382,0.370311594,-0.811304056
858,2147786,1230520,-0.68,-0.369,0.675,-32.4,3.7,-5.4,10.9,-12.5,-18.5,0.400646992,0.209784234,0.370952483,-0.811059908
859,2151534,1230520,-0.684,-0.369,0.687,-33.4,4.2,-5.3,10.9,-12.5,-18.5,0.400677511,0.209509568,0.37162389,-0.81081576
860,2153778,1230520,-0.684,-0.377,0.687,-34.1,4.8,-5,11.3,-12.8,-18.5,0.400708029,0.209265419,0.372264779,-0.810571612
861,2156246,1230520,-0.688,-0.38,0.695,-34.9,5.4,-4.5,11.3,-12.8,-18.5,0.400738548,0.209021271,0.372966704,-0.810296945
862,2159051,1230530,-0.684,-0.384,0.695,-35.8,6,-4.1,11.3,-12.8,-18.5,0.400769066,0.208777123,0.37366863,-0.80999176
863,2161405,1230530,-0.684,-0.384,0.691,-36.9,6.5,-3.9,11.3,-12.8,-18.5,0.400830103,0.208532975,0.374401074,-0.809717093
864,2163656,1230530,-0.685,-0.4,0.695,-37.8,6.9,-3.9,10.9,-12.5,-18.7,0.400860622,0.208288827,0.375133518,-0.809411908
865,2165918,1230530,-0.685,-0.408,0.695,-38.8,7.4,-4,10.9,-12.5,-18.7,0.400860622,0.208044679,0.375927,-0.809076205
866,2168833,1230540,-0.685,-0.42,0.691,-39.3,8,-4,10.9,-12.5,-18.7,0.400952177,0.20783105,0.376689962,-0.80877102
867,2171203,1230540,-0.685,-0.435,0.707,-39.5,8.4,-3.9,10.9,-12.5,-18.7,0.400982696,0.207586901,0.377483444,-0.808435316
868,2173413,1230540,-0.685,-0.447,0.707,-39.2,8.8,-3.4,11.1,-12.1,-18.5,0.401043733,0.207373272,0.378276925,-0.808099612
869,2175463,1230540,-0.686,-0.459,0.707,-38.3,9.1,-2.7,11.1,-12.1,-18.5,0.401074252,0.207190161,0.379039888,-0.807763909
870,2177885,1230550,-0.694,-0.467,0.715,-37,9.5,-1.9,11.1,-12.1,-18.5,0.401135289,0.20700705,0.37980285,-0.807428205
871,2180072,1230550,-0.694,-0.486,0.715,-35.5,9.9,-1.1,11.1,-12.1,-18.5,0.401196326,0.206854457,0.380504776,-0.807092502
872,2182646,1230550,-0.698,-0.494,0.711,-32.6,10.2,0,9.3,-12.7,-18.9,0.4013184,0.206732383,0.380993072,-0.806848354
873,2186280,1230550,-0.698,-0.494,0.711,-32.6,10.2,0,9.3,-12.7,-18.9,0.401379437,0.206640828,0.38166448,-0.80651265
874,2187771,1230560,-0.698,-0.498,0.715,-31,10.2,0.1,9.3,-12.7,-18.9,0.401440474,0.206549272,0.382305368,-0.806207465
875,2190942,1230560,-0.702,-0.486,0.711,-29.2,10.2,0.3,9.3,-12.7,-18.9,0.401470992,0.206457717,0.382915738,-0.805932798
876,2192679,1230560,-0.706,-0.486,0.715,-27.1,10.1,0.6,10.5,-11.7,-18.8,0.401532029,0.206427198,0.383465072,-0.805627613
877,2196190,1230560,-0.706,-0.49,0.708,-25,10,1,10.5,-11.7,-18.8,0.401593066,0.206366161,0.383983886,-0.805383465
878,2197698,1230570,-0.702,-0.482,0.707,-22.9,9.8,1.2,10.5,-11.7,-18.8,0.401623585,0.206366161,0.384472182,-0.805139317
879,2200789,1230570,-0.698,-0.482,0.707,-20.7,9.5,1.6,10.5,-11.7,-18.8,0.401654103,0.206366161,0.38492996,-0.804895169
880,2202938,1230570,-0.694,-0.482,0.707,-18.4,9.2,1.9,10.1,-12,-19,0.40171514,0.206366161,0.385326701,-0.804681539
881,2205171,1230570,-0.69,-0.479,0.707,-16.1,8.8,2.5,10.1,-12,-19,0.401745659,0.206427198,0.385662404,-0.804498428
882,2208246,1230580,-0.694,-0.471,0.703,-13.7,8.6,3.1,10.1,-12,-19,0.401776177,0.206488235,0.385967589,-0.804315317
883,2211296,1230580,-0.698,-0.463,0.699,-11.5,8.4,3.7,10.1,-12,-19,0.401837214,0.206549272,0.386242256,-0.804132206
884,2212881,1230580,-0.697,-0.455,0.696,-9.5,8.1,4.5,9.8,-11.9,-18.9,0.401898251,0.206640828,0.386455885,-0.803979614
885,2215290,1230580,-0.701,-0.443,0.692,-7.9,7.7,5.1,9.8,-11.9,-18.9,0.401959288,0.206762902,0.386638997,-0.803827021
886,2217830,1230590,-0.705,-0.427,0.684,-6.7,7.3,5.9,9.8,-11.9,-18.9,0.402020325,0.206884976,0.386791589,-0.803674429
887,2221641,1230590,-0.705,-0.419,0.68,-5.8,6.9,6.4,9.8,-11.9,-18.9,0.402111881,0.20700705,0.386913663,-0.803552355
888,2223272,1230590,-0.701,-0.408,0.676,-5.3,6.5,7,8.4,-12.3,-19,0.402203436,0.207129124,0.387035737,-0.80343028
889,2225937,1230590,-0.709,-0.4,0.672,-4.9,6.1,7.5,8.4,-12.3,-19,0.402294992,0.207251198,0.387157811,-0.803277688
890,2228055,1230600,-0.705,-0.396,0.664,-4.7,5.6,8.1,8.4,-12.3,-19,0.402417066,0.207373272,0.387249367,-0.803155614
891,2230114,1230600,-0.705,-0.392,0.668,-4.3,5.1,8.8,8.4,-12.3,-19,0.40253914,0.207495346,0.387340922,-0.803003021
892,2232875,1230600,-0.705,-0.388,0.66,-4.2,4.1,10.1,11.3,-12.7,-19.2,0.402935881,0.207922605,0.387005219,-0.802850429
893,2235175,1230600,-0.705,-0.388,0.66,-4.2,4.1,10.1,11.3,-12.7,-19.2,0.403118992,0.208044679,0.387066256,-0.802697836
894,2239380,1230610,-0.705,-0.388,0.649,-4.6,3.5,10.8,11.3,-12.7,-19.2,0.403302103,0.208166753,0.387127293,-0.802545244
895,2241582,1230610,-0.709,-0.392,0.653,-5.1,2.9,11.2,11.3,-12.7,-19.2,0.403485214,0.20822779,0.38718833,-0.802392651
896,2243752,1230610,-0.705,-0.392,0.649,-5.7,2.5,11.4,7.5,-12,-19,0.403698843,0.208349864,0.387279885,-0.802240059
897,2246111,1230610,-0.705,-0.4,0.653,-6.1,2.1,11.6,7.5,-12,-19,0.403912473,0.20844142,0.387340922,-0.802087466
898,2248256,1230620,-0.709,-0.404,0.653,-6.3,1.6,11.6,7.5,-12,-19,0.404126102,0.208502457,0.387432478,-0.801904355
899,2250469,1230620,-0.705,-0.412,0.645,-6.4,1.1,11.7,7.5,-12,-19,0.404339732,0.208563494,0.387493515,-0.801751762
900,2252815,1230620,-0.705,-0.412,0.645,-6.5,0.3,11.8,7.3,-12,-19,0.40458388,0.208624531,0.387554552,-0.80159917
901,2255410,1230620,-0.701,-0.416,0.649,-6.6,-0.3,11.7,7.3,-12,-19,0.404828028,0.208655049,0.387615589,-0.801416059
902,2259544,1230630,-0.701,-0.419,0.641,-6.7,-1.1,11.8,7.3,-12,-19,0.405072176,0.208685568,0.387676626,-0.801263466
903,2262056,1230630,-0.697,-0.42,0.645,-6.6,-1.9,11.8,7.3,-12,-19,0.405316324,0.208685568,0.387707144,-0.801110874
904,2262812,1230630,-0.697,-0.42,0.641,-6.3,-2.6,11.8,7.9,-12,-19.2,0.405560472,0.208685568,0.387737663,-0.8009888
905,2265239,1230630,-0.693,-0.431,0.649,-6,-3.2,11.8,7.9,-12,-19.2,0.405835139,0.208655049,0.387768181,-0.800836207
906,2267654,1230640,-0.693,-0.428,0.641,-5.5,-3.8,11.8,7.9,-12,-19.2,0.406109806,0.208655049,0.387768181,-0.800683615
907,2271273,1230640,-0.689,-0.428,0.644,-5.1,-4.3,12.1,7.9,-12,-19.2,0.406384472,0.208624531,0.387768181,-0.800561541
908,2272801,1230640,-0.693,-0.431,0.649,-4.7,-4.9,12.4,8.4,-12,-19.1,0.406659139,0.208594012,0.387768181,-0.800439467
909,2275454,1230640,-0.698,-0.443,0.645,-4.4,-5.4,12.7,8.4,-12,-19.1,0.406933805,0.208594012,0.387737663,-0.800317392
910,2278805,1230650,-0.697,-0.439,0.645,-3.9,-6,12.9,8.4,-12,-19.1,0.40723899,0.208563494,0.387676626,-0.800195318
911,2281153,1230650,-0.698,-0.447,0.641,-3.5,-6.5,12.7,8.4,-12,-19.1,0.407544176,0.208502457,0.387615589,-0.800073244
912,2283364,1230650,-0.69,-0.455,0.641,-3.1,-7.7,11.9,10.4,-13.6,-19,0.40806299,0.208868679,0.387249367,-0.799890133
913,2285605,1230650,-0.69,-0.463,0.641,-3.1,-7.7,11.9,10.4,-13.6,-19,0.408368175,0.208807642,0.387157811,-0.799798578
914,2287756,1230660,-0.69,-0.463,0.645,-2.7,-8.4,11.5,10.4,-13.6,-19,0.408642842,0.208746605,0.387096774,-0.799707022
915,2290408,1230660,-0.682,-0.467,0.637,-2.1,-9.2,11.5,10.4,-13.6,-19,0.408948027,0.208655049,0.387005219,-0.799645985
916,2293499,1230660,-0.674,-0.475,0.64,-1.2,-9.8,11.8,9.9,-10.7,-19.1,0.409222694,0.208563494,0.386883145,-0.79955443
917,2295778,1230660,-0.67,-0.479,0.636,-0.1,-10.5,12.4,9.9,-10.7,-19.1,0.409527879,0.208502457,0.386730552,-0.799493393
918,2297862,1230670,-0.666,-0.479,0.636,1,-11.1,12.9,9.9,-10.7,-19.1,0.409863582,0.208410901,0.386547441,-0.799432356
919,2300174,1230670,-0.662,-0.483,0.632,2.1,-11.6,13.4,9.9,-10.7,-19.1,0.410168767,0.208349864,0.386333811,-0.799401837
920,2302777,1230670,-0.666,-0.483,0.632,3,-11.9,14.1,10,-10.9,-19.3,0.410504471,0.208288827,0.386120182,-0.7993408
921,2306606,1230670,-0.666,-0.483,0.632,3.7,-12.1,14.7,10,-10.9,-19.3,0.410840175,0.20822779,0.385876034,-0.799310282
922,2308122,1230680,-0.67,-0.479,0.632,4.3,-12.3,15.3,10,-10.9,-19.3,0.411206397,0.208166753,0.385631886,-0.799249245
923,2310361,1230680,-0.662,-0.483,0.632,4.8,-12.5,15.6,10,-10.9,-19.3,0.411572619,0.208136235,0.385357219,-0.799218726
924,2313245,1230680,-0.67,-0.483,0.632,5.4,-12.7,15.8,9.7,-11.1,-19.1,0.411908322,0.208105716,0.385082553,-0.799188208
925,2316321,1230680,-0.67,-0.479,0.636,6,-13,15.9,9.7,-11.1,-19.1,0.412274545,0.208044679,0.384777367,-0.799157689
926,2317968,1230690,-0.67,-0.487,0.632,6.3,-13.1,16,9.7,-11.1,-19.1,0.412640767,0.208014161,0.384472182,-0.799127171
927,2320198,1230690,-0.666,-0.479,0.64,6.4,-13.3,16,9.7,-11.1,-19.1,0.413006989,0.207983642,0.384166997,-0.799096652
928,2322923,1230690,-0.662,-0.479,0.636,6.3,-13.5,16.2,10.1,-11.3,-19.3,0.413373211,0.207922605,0.383861812,-0.799066134
929,2325138,1230690,-0.65,-0.476,0.632,6.2,-13.8,16.6,10.1,-11.3,-19.3,0.413739433,0.207892087,0.383556627,-0.799005097
930,2328381,1230700,-0.65,-0.468,0.628,6.1,-14.3,17,10.1,-11.3,-19.3,0.414136174,0.20783105,0.383251442,-0.798974578
931,2330533,1230700,-0.642,-0.468,0.632,5.9,-14.6,17.5,10.1,-11.3,-19.3,0.414532914,0.207770013,0.382915738,-0.79894406
932,2334428,1230700,-0.638,-0.456,0.624,5.3,-15.1,18.8,9.2,-11.9,-19,0.414838099,0.207464827,0.382793664,-0.79894406
933,2335164,1230700,-0.638,-0.456,0.624,5.3,-15.1,18.8,9.2,-11.9,-19,0.415265358,0.207434309,0.382457961,-0.798883023
934,2337819,1230710,-0.646,-0.452,0.62,4.8,-15.1,19.6,9.2,-11.9,-19,0.415723136,0.207373272,0.382152776,-0.798791467
935,2341911,1230710,-0.65,-0.444,0.612,4.2,-15,20.4,9.2,-11.9,-19,0.416180914,0.207312235,0.381847591,-0.79873043
936,2342712,1230710,-0.654,-0.432,0.612,3.3,-14.7,20.9,9.5,-12.8,-19,0.416638691,0.207251198,0.381572924,-0.798638874
937,2346702,1230710,-0.654,-0.428,0.612,2.1,-14.5,21,9.5,-12.8,-19,0.417126988,0.207190161,0.381298257,-0.7985168
938,2348959,1230720,-0.666,-0.424,0.613,0.9,-14.3,20.9,9.5,-12.8,-19,0.417615284,0.207129124,0.381054109,-0.798394726
939,2351233,1230720,-0.654,-0.425,0.604,-0.1,-14.2,20.7,9.5,-12.8,-19,0.418073061,0.207068087,0.38084048,-0.798272652
940,2354322,1230720,-0.654,-0.425,0.616,-1.1,-14.3,20.6,9.1,-13.9,-19.4,0.418561357,0.206976531,0.38062685,-0.798150578
941,2355149,1230720,-0.654,-0.421,0.608,-1.9,-14.5,20.6,9.1,-13.9,-19.4,0.419049654,0.206854457,0.380443739,-0.797997986
942,2358766,1230730,-0.642,-0.421,0.604,-2.8,-14.7,20.6,9.1,-13.9,-19.4,0.41953795,0.206762902,0.380260628,-0.797845393
943,2360270,1230730,-0.642,-0.421,0.604,-3.6,-14.9,20.5,9.1,-13.9,-19.4,0.420056764,0.206640828,0.380108036,-0.797692801
944,2362615,1230730,-0.638,-0.429,0.604,-4.4,-14.9,20.2,8.9,-14.6,-19,0.420545061,0.206488235,0.379955443,-0.797540208
945,2365399,1230730,-0.634,-0.433,0.604,-5.2,-14.8,19.6,8.9,-14.6,-19,0.421033357,0.206366161,0.37980285,-0.797387616
946,2368751,1230740,-0.634,-0.441,0.612,-5.8,-14.6,19.1,8.9,-14.6,-19,0.421521653,0.206213569,0.379680776,-0.797235023
947,2371146,1230740,-0.634,-0.445,0.612,-6.3,-14.4,18.7,8.9,-14.6,-19,0.421979431,0.206060976,0.379589221,-0.79708243
948,2373221,1230740,-0.634,-0.449,0.612,-6.6,-14.1,18.5,8.7,-15.1,-19.5,0.422467727,0.205908383,0.379497665,-0.796899319
949,2375451,1230740,-0.634,-0.445,0.616,-6.8,-13.7,18.3,8.7,-15.1,-19.5,0.422925504,0.205755791,0.379375591,-0.796746727
950,2377767,1230750,-0.634,-0.449,0.616,-6.8,-13.5,18.3,8.7,-15.1,-19.5,0.423383282,0.205603198,0.379314554,-0.796594134
951,2380322,1230750,-0.634,-0.445,0.62,-6.8,-13.2,18.2,8.7,-15.1,-19.5,0.42384106,0.205450606,0.379222999,-0.796411023
952,2383749,1230750,-0.638,-0.437,0.612,-6.9,-12.9,18.1,8.7,-10.6,-17.7,0.424207282,0.205206458,0.379284036,-0.796258431
953,2385282,1230750,-0.638,-0.433,0.616,-6.9,-12.9,18.1,8.7,-10.6,-17.7,0.424665059,0.205053865,0.37919248,-0.796105838
954,2387825,1230760,-0.642,-0.429,0.612,-7,-12.8,18,8.7,-10.6,-17.7,0.425122837,0.204901273,0.379131443,-0.795922727
955,2391994,1230760,-0.642,-0.425,0.62,-7.1,-12.7,17.7,8.7,-10.6,-17.7,0.425550096,0.204779199,0.379039888,-0.795770135
956,2393724,1230760,-0.638,-0.421,0.612,-7.1,-12.6,17.2,8.8,-13.1,-20.9,0.426007874,0.204626606,0.378978851,-0.795587024
957,2395938,1230760,-0.638,-0.425,0.616,-7.2,-12.4,16.7,8.8,-13.1,-20.9,0.426435133,0.204474013,0.378917814,-0.795434431
958,2398243,1230770,-0.634,-0.421,0.62,-7.4,-12,16.1,8.8,-13.1,-20.9,0.426831874,0.204321421,0.378856777,-0.795281838
959,2400378,1230770,-0.634,-0.421,0.62,-7.4,-11.6,15.5,8.8,-13.1,-20.9,0.427228614,0.204199347,0.37879574,-0.795129246
960,2403456,1230770,-0.638,-0.425,0.62,-7.2,-11.3,15,8.6,-11.9,-20.6,0.427625355,0.204046754,0.378765221,-0.794976653
961,2405109,1230770,-0.634,-0.429,0.616,-7,-11.2,14.7,8.6,-11.9,-20.6,0.427991577,0.20392468,0.378704184,-0.794824061
962,2408695,1230780,-0.63,-0.437,0.612,-6.8,-11,14.2,8.6,-11.9,-20.6,0.428357799,0.203772088,0.378673666,-0.794701987
963,2410228,1230780,-0.626,-0.433,0.619,-6.4,-10.9,13.9,8.6,-11.9,-20.6,0.428724021,0.203650014,0.378612629,-0.794549394
964,2412699,1230780,-0.63,-0.441,0.623,-5.9,-10.7,13.5,8.3,-11.3,-20.9,0.429090243,0.20352794,0.378551592,-0.79442732
965,2416148,1230780,-0.634,-0.433,0.623,-5.4,-10.4,13.4,8.3,-11.3,-20.9,0.429425947,0.203405866,0.378490555,-0.794305246
966,2417678,1230790,-0.638,-0.433,0.62,-5,-10,13.3,8.3,-11.3,-20.9,0.42976165,0.203283792,0.378429518,-0.794183172
967,2420630,1230790,-0.634,-0.429,0.616,-4.9,-9.5,13,8.3,-11.3,-20.9,0.430097354,0.203161718,0.37836848,-0.794061098
968,2423622,1230790,-0.638,-0.421,0.62,-4.8,-9.2,12.7,9,-10.5,-20.3,0.430402539,0.203070162,0.378307443,-0.793939024
969,2425159,1230790,-0.642,-0.425,0.624,-4.9,-9,12.3,9,-10.5,-20.3,0.430707724,0.202978607,0.378246406,-0.79381695
970,2428254,1230800,-0.638,-0.421,0.627,-4.9,-8.7,11.8,9,-10.5,-20.3,0.431012909,0.202856532,0.378185369,-0.793725394
971,2430504,1230800,-0.634,-0.425,0.627,-4.9,-8.4,11.2,9,-10.5,-20.3,0.431318094,0.202764977,0.378154851,-0.79360332
972,2432676,1230800,-0.638,-0.425,0.627,-4.5,-7.8,10.5,8.1,-12.6,-19.2,0.431562243,0.202612384,0.378124332,-0.793511765
973,2435964,1230800,-0.634,-0.421,0.623,-4.5,-7.8,10.5,8.1,-12.6,-19.2,0.431806391,0.202520829,0.378093814,-0.793420209
974,2438117,1230810,-0.638,-0.425,0.627,-4.5,-7.6,10.3,8.1,-12.6,-19.2,0.432081057,0.202429273,0.378032777,-0.793328654
975,2440243,1230810,-0.63,-0.433,0.623,-4.5,-7.3,10.1,8.1,-12.6,-19.2,0.432325205,0.202337718,0.378002258,-0.79320658
976,2443285,1230810,-0.634,-0.437,0.624,-4.7,-7.1,9.6,8,-12.2,-19.6,0.432569353,0.202246162,0.37797174,-0.793115024
977,2445494,1230810,-0.642,-0.437,0.628,-4.8,-6.8,9.2,8,-12.2,-19.6,0.432813501,0.202154607,0.37797174,-0.793023469
978,2448531,1230820,-0.642,-0.44,0.632,-4.8,-6.3,8.9,8,-12.2,-19.6,0.433057649,0.20209357,0.377941221,-0.792931913
979,2450135,1230820,-0.646,-0.444,0.632,-4.8,-5.9,8.6,8,-12.2,-19.6,0.433271279,0.202002014,0.377941221,-0.792840358
980,2452952,1230820,-0.642,-0.444,0.628,-4.8,-5.6,8.3,8,-12.5,-19.1,0.433484909,0.201940977,0.377941221,-0.792748802
981,2455290,1230820,-0.646,-0.436,0.624,-4.8,-5.4,8,8,-12.5,-19.1,0.433698538,0.201849422,0.377910703,-0.792657247
982,2457915,1230830,-0.642,-0.441,0.628,-4.9,-5.1,7.7,8,-12.5,-19.1,0.433881649,0.201788385,0.377910703,-0.792565691
983,2460108,1230830,-0.65,-0.429,0.624,-5,-4.7,7.3,8,-12.5,-19.1,0.43406476,0.201727348,0.377941221,-0.792474136
984,2464373,1230830,-0.65,-0.425,0.624,-5.3,-4.5,7.2,8.1,-12.3,-18.7,0.434247871,0.201635792,0.377941221,-0.79238258
985,2466515,1230830,-0.65,-0.421,0.62,-5.5,-4.4,7,8.1,-12.3,-18.7,0.434430982,0.201574755,0.37797174,-0.792291025
986,2468172,1230840,-0.65,-0.421,0.624,-5.8,-4.2,6.8,8.1,-12.3,-18.7,0.434614093,0.201513718,0.378002258,-0.79216895
987,2470430,1230840,-0.654,-0.417,0.616,-6.3,-4,6.5,8.1,-12.3,-18.7,0.434797205,0.201391644,0.378063295,-0.792077395
988,2472699,1230840,-0.65,-0.417,0.62,-6.9,-3.7,6.1,7.9,-12.2,-17.4,0.434949797,0.201361126,0.378093814,-0.791985839
989,2475330,1230840,-0.654,-0.413,0.616,-7.4,-3.4,5.7,7.9,-12.2,-17.4,0.435132908,0.20126957,0.378185369,-0.791894284
990,2478688,1230850,-0.653,-0.409,0.62,-7.8,-3.1,5.5,7.9,-12.2,-17.4,0.435285501,0.201178014,0.378246406,-0.79177221
991,2480178,1230850,-0.657,-0.409,0.62,-8.2,-2.8,5.2,7.9,-12.2,-17.4,0.435438093,0.201116977,0.378337962,-0.791680654
992,2482853,1230850,-0.657,-0.409,0.616,-9.4,-2.5,4.7,7.8,-12.4,-21.6,0.435621204,0.201239051,0.378490555,-0.791467025
993,2485129,1230850,-0.657,-0.409,0.616,-9.4,-2.5,4.7,7.8,-12.4,-21.6,0.435773797,0.201147496,0.378612629,-0.791344951
994,2489230,1230860,-0.658,-0.421,0.608,-10,-2.4,4.2,7.8,-12.4,-21.6,0.435895871,0.20105594,0.378734703,-0.791253395
995,2491465,1230860,-0.65,-0.421,0.608,-10.6,-2.3,3.6,7.8,-12.4,-21.6,0.436017945,0.200933866,0.378887295,-0.791131321
996,2492894,1230860,-0.65,-0.425,0.608,-11.2,-2.1,2.8,7.8,-12.5,-18.8,0.436170537,0.200811792,0.379039888,-0.791009247
997,2496009,1230860,-0.646,-0.429,0.616,-11.7,-2,2.2,7.8,-12.5,-18.8,0.436262093,0.200689718,0.379222999,-0.790917692
998,2497722,1230870,-0.65,-0.425,0.624,-11.8,-1.8,2,7.8,-12.5,-18.8,0.436353648,0.200567644,0.379375591,-0.790795618
999,2501177,1230870,-0.646,-0.433,0.612,-11.8,-1.7,2.2,7.8,-12.5,-18.8,0.436475723,0.200415052,0.379589221,-0.790673544
1000,2502814,1230870,-0.646,-0.436,0.624,-11.8,-1.5,2.6,7.9,-12.4,-18.8,0.436567278,0.200323496,0.379741813,-0.790581988
1001,2505466,1230870,-0.642,-0.437,0.632,-11.9,-1.4,2.6,7.9,-12.4,-18.8,0.436689352,0.200201422,0.379924924,-0.790459914
1002,2508766,1230880,-0.642,-0.44,0.632,-12.1,-1.4,2.4,7.9,-12.4,-18.8,0.436811426,0.200079348,0.380138554,-0.79033784
1003,2511040,1230880,-0.642,-0.441,0.628,-12.3,-1.3,2.1,7.9,-12.4,-18.8,0.436902982,0.199957274,0.380321665,-0.790215766
1004,2513241,1230880,-0.642,-0.444,0.624,-12.3,-1.2,2,7.5,-12.5,-19.2,0.436994537,0.1998352,0.380504776,-0.790093692
1005,2515560,1230880,-0.646,-0.444,0.624,-12.3,-1.1,2.1,7.5,-12.5,-19.2,0.437116611,0.199713126,0.380687887,-0.789971618
1006,2517778,1230890,-0.646,-0.448,0.624,-12.2,-1,2.3,7.5,-12.5,-19.2,0.437208167,0.199591052,0.380901517,-0.789849544
1007,2520522,1230890,-0.65,-0.444,0.632,-12.1,-1,2.4,7.5,-12.5,-19.2,0.437299722,0.199499496,0.381084628,-0.78972747
1008,2522644,1230890,-0.646,-0.444,0.636,-12,-1,2.4,7.8,-12.2,-20.1,0.437421796,0.199377422,0.381267739,-0.789635914
1009,2526046,1230890,-0.65,-0.444,0.628,-11.7,-0.9,2.3,7.8,-12.2,-20.1,0.437513352,0.199255348,0.38145085,-0.78951384
1010,2528233,1230900,-0.646,-0.444,0.624,-11.4,-0.9,2.2,7.8,-12.2,-20.1,0.437604907,0.199163793,0.381633961,-0.789391766
1011,2530467,1230900,-0.654,-0.444,0.632,-11,-0.8,2.1,7.8,-12.2,-20.1,0.437696463,0.199041719,0.381786554,-0.789300211
1012,2532695,1230900,-0.65,-0.448,0.624,-10.3,-0.6,2.2,7.9,-12.4,-20.5,0.437726981,0.198858608,0.382091739,-0.789178137
1013,2535316,1230900,-0.654,-0.44,0.62,-10.3,-0.6,2.2,7.9,-12.4,-20.5,0.437818537,0.198767052,0.382244331,-0.789086581
1014,2538822,1230910,-0.646,-0.448,0.628,-10,-0.5,2.2,7.9,-12.4,-20.5,0.437879574,0.198675497,0.382396924,-0.788995025
1015,2540218,1230910,-0.65,-0.444,0.624,-9.6,-0.5,2,7.9,-12.4,-20.5,0.437971129,0.198583941,0.382549516,-0.788872951
1016,2542634,1230910,-0.65,-0.444,0.624,-9.2,-0.5,1.8,7.8,-12.3,-20.4,0.438062685,0.198522904,0.382702109,-0.788781396
1017,2545074,1230910,-0.654,-0.444,0.632,-8.9,-0.6,1.6,7.8,-12.3,-20.4,0.438123722,0.198431349,0.382824183,-0.788720359
1018,2548524,1230920,-0.65,-0.444,0.624,-8.6,-0.6,1.6,7.8,-12.3,-20.4,0.438184759,0.198339793,0.382976775,-0.788628803
1019,2550145,1230920,-0.65,-0.44,0.628,-8.4,-0.6,1.6,7.8,-12.3,-20.4,0.438276315,0.198278756,0.383098849,-0.788537248
