sample_index,elapsed_us,device_time_ms,acc_x_g,acc_y_g,acc_z_g,gyro_x_dps,gyro_y_dps,gyro_z_dps,mag_x_ut,mag_y_ut,mag_z_ut,quat_w,quat_x,quat_y,quat_z
0,4525,1706990,-0.581,-0.572,0.591,1.9,-1.2,-1.7,4.6,-7,-23.9,0.504409925,0.0895107883,0.444135868,-0.735007782
1,6766,1706990,-0.585,-0.572,0.595,2,-1.2,-1.7,4.6,-7,-23.9,0.504379406,0.0895107883,0.44410535,-0.735038301
2,9301,1707000,-0.585,-0.572,0.595,2,-1.2,-1.7,4.6,-7,-23.9,0.504379406,0.0895107883,0.44410535,-0.735038301
3,11584,1707000,-0.581,-0.58,0.595,2.1,-1,-1.4,4.6,-7,-23.9,0.504318369,0.0894497513,0.444044313,-0.735129856
4,14908,1707000,-0.581,-0.583,0.599,2.2,-1,-1.2,4.6,-7,-23.9,0.504318369,0.0894497513,0.443983276,-0.735190893
5,16502,1707000,-0.581,-0.583,0.591,2.3,-0.9,-1.1,4.6,-7,-23.9,0.504287851,0.0894497513,0.443952757,-0.735221412
6,19414,1707010,-0.581,-0.583,0.599,2.3,-0.9,-1.1,4.6,-7,-23.9,0.504287851,0.0894497513,0.44389172,-0.73525193
7,22416,1707010,-0.577,-0.587,0.591,2.2,-0.8,-1.1,4.6,-7,-23.9,0.504257332,0.0894497513,0.443830683,-0.735282449
8,24009,1707010,-0.577,-0.584,0.595,2.1,-0.8,-1.2,4.6,-7,-23.9,0.504257332,0.0894192328,0.443800165,-0.735312967
9,26914,1707010,-0.581,-0.576,0.599,2.2,-0.8,-1.3,4.6,-7,-23.9,0.504226814,0.0894192328,0.443769646,-0.735343486
10,29133,1707020,-0.581,-0.576,0.595,2.3,-0.9,-1.4,4.6,-7,-23.9,0.504226814,0.0894192328,0.443739128,-0.735404523
11,32159,1707020,-0.573,-0.58,0.595,2.4,-0.9,-1.4,4.6,-7,-23.9,0.504196295,0.0894192328,0.443678091,-0.735435041
12,35073,1707020,-0.581,-0.58,0.595,2.5,-0.8,-1.5,4.6,-7,-23.9,0.504165777,0.0894192328,0.443647572,-0.735496078
13,36643,1707020,-0.573,-0.576,0.595,2.7,-0.7,-1.4,4.6,-7,-23.9,0.504165777,0.0894192328,0.443586535,-0.735526597
14,39797,1707030,-0.573,-0.576,0.595,2.8,-0.6,-1.3,4.6,-7.2,-25.9,0.504135258,0.0894497513,0.443525498,-0.735587634
15,42651,1707030,-0.573,-0.58,0.595,2.9,-0.7,-1.1,4.6,-7.2,-25.9,0.50410474,0.0894497513,0.443464461,-0.735618152
16,44239,1707030,-0.577,-0.584,0.591,2.8,-0.8,-0.9,4.6,-7.2,-25.9,0.50410474,0.0894497513,0.443433943,-0.735648671
17,47979,1707030,-0.573,-0.58,0.595,2.9,-0.9,-0.8,4.6,-7.2,-25.9,0.50410474,0.0894497513,0.443372906,-0.735709708
18,49521,1707040,-0.569,-0.576,0.591,2.8,-0.9,-0.7,4.6,-7.2,-25.9,0.504074221,0.0894497513,0.443311869,-0.735740226
19,52532,1707040,-0.577,-0.576,0.591,2.5,-0.8,-0.7,4.6,-7.2,-25.9,0.504074221,0.0894497513,0.443250832,-0.735770745
20,55380,1707040,-0.573,-0.572,0.595,2.3,-0.6,-0.8,4.6,-7.2,-25.9,0.504074221,0.0894497513,0.443220313,-0.735801263
21,57632,1707040,-0.573,-0.572,0.591,2.1,-0.4,-0.8,4.6,-7.2,-25.9,0.504043703,0.0895107883,0.443189795,-0.735831782
22,59152,1707050,-0.573,-0.572,0.591,2.1,-0.4,-0.8,4.6,-7.2,-25.9,0.504043703,0.0895107883,0.443189795,-0.735831782
23,61441,1707050,-0.573,-0.568,0.591,2.1,-0.3,-0.7,4.6,-7.2,-25.9,0.503982665,0.0893887143,0.443128758,-0.735923338
24,64114,1707050,-0.573,-0.564,0.591,2,-0.4,-0.8,4.6,-7.2,-25.9,0.503952147,0.0894192328,0.443098239,-0.735953856
25,68255,1707050,-0.573,-0.564,0.591,1.7,-0.3,-1,4.6,-7.2,-25.9,0.503952147,0.0894192328,0.443067721,-0.735984375
26,70511,1707060,-0.569,-0.572,0.587,1.5,-0.1,-1,4.6,-7.2,-25.9,0.503921628,0.0894192328,0.443037202,-0.736014893
27,72691,1707060,-0.573,-0.564,0.591,1.4,0,-1,4.6,-7.2,-25.9,0.50389111,0.0894192328,0.443006684,-0.736045412
28,74989,1707060,-0.569,-0.576,0.591,1.4,0.1,-1.1,4.6,-7.2,-25.9,0.50389111,0.0894192328,0.443006684,-0.73607593
29,77253,1707060,-0.569,-0.572,0.591,1.4,0.1,-1,4.6,-7.2,-25.9,0.503860591,0.0894192328,0.442976165,-0.736106449
30,79407,1707070,-0.569,-0.572,0.583,1.5,0.1,-1.1,4.6,-7.2,-25.9,0.503830073,0.0894497513,0.442945647,-0.736136967
31,81758,1707070,-0.569,-0.568,0.591,1.6,0.2,-1.1,4.6,-7.2,-25.9,0.503799554,0.0894497513,0.442945647,-0.736167486
32,84014,1707070,-0.573,-0.568,0.587,1.6,0.3,-1.1,4.6,-7.2,-25.9,0.503799554,0.0894497513,0.442915128,-0.736167486
33,86690,1707070,-0.573,-0.568,0.587,1.7,0.5,-1.1,4.6,-7.2,-25.9,0.503769036,0.0894497513,0.44288461,-0.736198004
34,90763,1707080,-0.569,-0.564,0.587,1.7,0.6,-1.2,4.6,-7.5,-23.6,0.503738517,0.0895107883,0.44288461,-0.736228523
35,92201,1707080,-0.569,-0.564,0.583,1.8,0.4,-1.4,4.6,-7.5,-23.6,0.503707999,0.0895107883,0.442854091,-0.736259041
36,93955,1707080,-0.569,-0.556,0.583,1.8,0.4,-1.4,4.6,-7.5,-23.6,0.50367748,0.0895107883,0.442823572,-0.736320078
37,97227,1707080,-0.565,-0.56,0.583,1.8,0.4,-1.5,4.6,-7.5,-23.6,0.503646962,0.0895413068,0.442823572,-0.736350597
38,98935,1707090,-0.573,-0.56,0.587,1.7,0.4,-1.6,4.6,-7.3,-23.5,0.503616443,0.0895413068,0.442793054,-0.736381115
39,101834,1707090,-0.565,-0.56,0.579,1.6,0.3,-1.8,4.6,-7.3,-23.5,0.503555406,0.0895413068,0.442762535,-0.736411634
40,104799,1707090,-0.565,-0.564,0.579,1.5,0.2,-1.8,4.6,-7.3,-23.5,0.503524888,0.0895718253,0.442762535,-0.736442152
41,107081,1707090,-0.569,-0.568,0.583,1.4,0.2,-2,4.6,-7.3,-23.5,0.503494369,0.0895718253,0.442732017,-0.736472671
42,110050,1707100,-0.569,-0.568,0.583,1.4,0.2,-2,4.6,-7.3,-23.5,0.503494369,0.0895718253,0.442732017,-0.736472671
43,111563,1707100,-0.569,-0.568,0.575,1.4,0.2,-2,4.6,-7.5,-23.6,0.503402814,0.0895107883,0.442732017,-0.736564226
44,115336,1707100,-0.573,-0.564,0.571,1.4,0.3,-2,4.6,-7.5,-23.6,0.503341777,0.0895107883,0.442732017,-0.736594745
45,116817,1707100,-0.573,-0.564,0.579,1.4,0.4,-2.2,4.6,-7.5,-23.6,0.503311258,0.0895107883,0.442701498,-0.736625263
46,119813,1707110,-0.577,-0.568,0.579,1.3,0.4,-2.3,4.8,-7.4,-23.8,0.503250221,0.0895107883,0.442701498,-0.7366863
47,121746,1707110,-0.581,-0.564,0.583,1.3,0.4,-2.5,4.8,-7.4,-23.8,0.503219703,0.0895107883,0.44267098,-0.736716819
48,125082,1707110,-0.577,-0.564,0.583,1.4,0.4,-2.5,4.8,-7.4,-23.8,0.503158666,0.0895107883,0.44267098,-0.736747337
49,126573,1707110,-0.577,-0.564,0.587,1.4,0.5,-2.5,4.8,-7.4,-23.8,0.503128147,0.0895107883,0.44267098,-0.736808374
50,129348,1707120,-0.577,-0.568,0.579,1.4,0.5,-2.6,4.8,-7.4,-23.8,0.50306711,0.0895107883,0.442640461,-0.736838893
51,131517,1707120,-0.577,-0.568,0.583,1.4,0.6,-2.8,4.8,-7.4,-23.8,0.503006073,0.0895107883,0.442640461,-0.736869411
52,135525,1707120,-0.581,-0.568,0.583,1.4,0.5,-2.9,4.8,-7.4,-23.8,0.502945036,0.0895107883,0.442609943,-0.736930448
53,137819,1707120,-0.577,-0.564,0.579,1.4,0.5,-2.9,4.8,-7.4,-23.8,0.502883999,0.0895107883,0.442609943,-0.736960967
54,140087,1707130,-0.577,-0.576,0.583,1.5,0.3,-2.9,5.9,-7,-23.5,0.502853481,0.0894497513,0.442609943,-0.737022004
55,142355,1707130,-0.573,-0.58,0.583,1.6,0.3,-2.9,5.9,-7,-23.5,0.502792444,0.0894497513,0.442579424,-0.737052522
56,144542,1707130,-0.573,-0.576,0.583,1.6,0.4,-2.8,5.9,-7,-23.5,0.502731407,0.0894497513,0.442548906,-0.737113559
57,146766,1707130,-0.577,-0.576,0.587,1.6,0.4,-2.8,5.9,-7,-23.5,0.50267037,0.0894497513,0.442548906,-0.737144078
58,149025,1707140,-0.577,-0.58,0.591,1.6,0.4,-2.8,5.8,-7,-23.7,0.502639851,0.0894497513,0.442518387,-0.737205115
59,151687,1707140,-0.577,-0.576,0.591,1.7,0.2,-2.8,5.8,-7,-23.7,0.502578814,0.0894497513,0.442518387,-0.737235633
60,153947,1707140,-0.577,-0.576,0.587,1.8,0.2,-2.8,5.8,-7,-23.7,0.502517777,0.0894497513,0.442487869,-0.73729667
61,157917,1707140,-0.577,-0.576,0.587,1.9,0.2,-2.8,5.8,-7,-23.7,0.502487259,0.0894497513,0.44245735,-0.737357707
62,160146,1707150,-0.577,-0.576,0.587,1.9,0.2,-2.8,5.8,-7,-23.7,0.502487259,0.0894497513,0.44245735,-0.737357707
63,161650,1707150,-0.573,-0.58,0.591,1.7,0.2,-2.8,5.9,-7,-23.5,0.502334666,0.0894192328,0.442487869,-0.737449263
64,164238,1707150,-0.573,-0.576,0.591,1.6,0.1,-2.9,5.9,-7,-23.5,0.502273629,0.0893887143,0.44245735,-0.737479781
65,166359,1707150,-0.569,-0.572,0.595,1.4,0,-2.9,5.9,-7,-23.5,0.502212592,0.0893887143,0.44245735,-0.737540819
66,169056,1707160,-0.565,-0.58,0.591,1.4,0,-2.9,5.7,-7.2,-23.7,0.502182073,0.0893581957,0.442426832,-0.737571337
67,171447,1707160,-0.573,-0.576,0.591,1.2,0,-2.9,5.7,-7.2,-23.7,0.502121036,0.0893581957,0.442426832,-0.737632374
68,173938,1707160,-0.569,-0.584,0.591,1,-0.1,-2.9,5.7,-7.2,-23.7,0.502059999,0.0893276772,0.442396313,-0.737662893
69,178124,1707160,-0.573,-0.588,0.587,0.9,0,-2.8,5.7,-7.2,-23.7,0.502029481,0.0893276772,0.442396313,-0.73772393
70,180359,1707170,-0.573,-0.584,0.591,0.8,0.1,-2.6,5.7,-7.2,-23.7,0.501968444,0.0892971587,0.442396313,-0.737754448
71,182673,1707170,-0.573,-0.584,0.587,0.6,0.2,-2.5,5.7,-7.2,-23.7,0.501937925,0.0892971587,0.442396313,-0.737784967
72,184916,1707170,-0.573,-0.584,0.591,0.5,0.2,-2.4,5.7,-7.2,-23.7,0.501907407,0.0892666402,0.442396313,-0.737815485
73,186408,1707170,-0.573,-0.58,0.591,0.3,0.1,-2.3,5.7,-7.2,-23.7,0.50184637,0.0892666402,0.442396313,-0.737846004
74,189233,1707180,-0.577,-0.58,0.587,0.2,0.1,-2.3,5.8,-7,-23.7,0.501815851,0.0892361217,0.442396313,-0.737876522
75,191982,1707180,-0.577,-0.58,0.591,0.1,0.1,-2.2,5.8,-7,-23.7,0.501785333,0.0892361217,0.442396313,-0.737907041
76,195116,1707180,-0.577,-0.576,0.591,0,0.1,-2,5.8,-7,-23.7,0.501754814,0.0892056032,0.442396313,-0.737907041
77,196627,1707180,-0.577,-0.576,0.587,0,0.2,-1.7,5.8,-7,-23.7,0.501724296,0.0892056032,0.442396313,-0.737937559
78,199528,1707190,-0.577,-0.58,0.587,0,0.3,-1.5,6.2,-7.1,-23.3,0.501693777,0.0891750847,0.442396313,-0.737968078
79,202586,1707190,-0.573,-0.58,0.587,0,0.3,-1.4,6.2,-7.1,-23.3,0.501663259,0.0891750847,0.442426832,-0.737968078
80,204069,1707190,-0.577,-0.576,0.591,-0.2,0.5,-1.4,6.2,-7.1,-23.3,0.50163274,0.0891750847,0.442426832,-0.737998596
81,207082,1707190,-0.585,-0.579,0.591,-0.3,0.5,-1.4,6.2,-7.1,-23.3,0.501602222,0.0891750847,0.442426832,-0.737998596
82,210095,1707200,-0.585,-0.579,0.591,-0.3,0.5,-1.4,6.2,-7.1,-23.3,0.501602222,0.0891750847,0.442426832,-0.737998596
83,211608,1707200,-0.581,-0.58,0.595,-0.5,0.4,-1.5,5.9,-7.2,-23.7,0.501449629,0.0890530107,0.442640461,-0.737998596
84,214269,1707200,-0.581,-0.576,0.595,-0.5,0.5,-1.5,5.9,-7.2,-23.7,0.501419111,0.0890224921,0.44267098,-0.737998596
85,217569,1707200,-0.581,-0.576,0.587,-0.4,0.6,-1.3,5.9,-7.2,-23.7,0.501388592,0.0890224921,0.44267098,-0.738029115
86,219068,1707210,-0.581,-0.58,0.587,-0.3,0.6,-1.2,5.6,-7.6,-23.6,0.501358074,0.0890224921,0.442701498,-0.738029115
87,221786,1707210,-0.581,-0.58,0.595,-0.3,0.4,-1.2,5.6,-7.6,-23.6,0.501327555,0.0889614551,0.442701498,-0.738029115
88,225092,1707210,-0.581,-0.58,0.599,-0.2,0.4,-1.2,5.6,-7.6,-23.6,0.501327555,0.0889614551,0.442701498,-0.738059633
89,226572,1707210,-0.581,-0.58,0.595,-0.2,0.6,-1.3,5.6,-7.6,-23.6,0.501297037,0.0889614551,0.442732017,-0.738059633
90,230255,1707220,-0.581,-0.576,0.595,0,0.6,-1.2,5.6,-7.6,-23.6,0.501266518,0.0889614551,0.442732017,-0.738059633
91,231690,1707220,-0.577,-0.58,0.595,0,0.6,-1.1,5.6,-7.6,-23.6,0.501236,0.0889614551,0.442732017,-0.738090152
92,235546,1707220,-0.577,-0.58,0.587,0.2,0.6,-1.2,5.6,-7.6,-23.6,0.501205481,0.0889614551,0.442762535,-0.738090152
93,237027,1707220,-0.577,-0.576,0.591,0.3,0.4,-1.2,5.6,-7.6,-23.6,0.501174963,0.0889614551,0.442762535,-0.73812067
94,240039,1707230,-0.577,-0.576,0.595,0.4,0.3,-1.2,3.5,-7.4,-23.5,0.501174963,0.0889614551,0.442762535,-0.73812067
95,241540,1707230,-0.577,-0.58,0.595,0.5,0.1,-1.1,3.5,-7.4,-23.5,0.501144444,0.0889614551,0.442732017,-0.738151189
96,244541,1707230,-0.577,-0.576,0.595,0.7,0.1,-1,3.5,-7.4,-23.5,0.501113926,0.0889614551,0.442732017,-0.738151189
97,247555,1707230,-0.581,-0.58,0.591,0.8,0.3,-1,3.5,-7.4,-23.5,0.501113926,0.0889614551,0.442732017,-0.738181707
98,249039,1707240,-0.577,-0.572,0.595,0.8,0.4,-1,2.7,-7.4,-23.3,0.501083407,0.0889614551,0.442732017,-0.738212226
99,252048,1707240,-0.573,-0.572,0.591,1,0.4,-1,2.7,-7.4,-23.3,0.501052889,0.0890224921,0.442701498,-0.738212226
100,254890,1707240,-0.569,-0.572,0.595,1.3,0.3,-0.9,2.7,-7.4,-23.3,0.50102237,0.0890224921,0.442701498,-0.738242744
101,256474,1707240,-0.573,-0.572,0.595,1.5,0.2,-0.7,2.7,-7.4,-23.3,0.50102237,0.0890224921,0.44267098,-0.738273263
102,259597,1707250,-0.573,-0.572,0.595,1.5,0.2,-0.7,2.7,-7.4,-23.3,0.50102237,0.0890224921,0.44267098,-0.738273263
103,262669,1707250,-0.573,-0.572,0.599,1.7,0.2,-0.6,1.7,-7.7,-23.2,0.500961333,0.0889614551,0.442640461,-0.7383343
104,264124,1707250,-0.573,-0.568,0.599,1.7,0.2,-0.7,1.7,-7.7,-23.2,0.500930815,0.0890224921,0.442609943,-0.738364818
105,267672,1707250,-0.569,-0.572,0.595,1.7,0.2,-0.7,1.7,-7.7,-23.2,0.500930815,0.0890224921,0.442579424,-0.738395337
106,269168,1707260,-0.569,-0.56,0.591,1.7,0.2,-0.7,1.7,-7.7,-23,0.500900296,0.0890530107,0.442548906,-0.738425855
107,271442,1707260,-0.573,-0.568,0.591,1.8,0.2,-0.7,1.7,-7.7,-23,0.500869778,0.0890530107,0.442548906,-0.738425855
108,275203,1707260,-0.569,-0.56,0.591,1.8,0.3,-0.7,1.7,-7.7,-23,0.500869778,0.0890835292,0.442518387,-0.738456374
109,277550,1707260,-0.569,-0.568,0.595,1.8,0.5,-0.7,1.7,-7.7,-23,0.500839259,0.0891140477,0.442487869,-0.738486892
110,279322,1707270,-0.569,-0.56,0.591,1.7,0.7,-0.7,1.7,-7.7,-23,0.500808741,0.0891140477,0.44245735,-0.738517411
111,281475,1707270,-0.573,-0.564,0.595,1.7,0.8,-0.7,1.7,-7.7,-23,0.500808741,0.0891445662,0.44245735,-0.738547929
112,284015,1707270,-0.573,-0.564,0.599,1.7,0.8,-0.7,1.7,-7.7,-23,0.500778222,0.0891750847,0.442426832,-0.738547929
113,287595,1707270,-0.569,-0.568,0.595,1.7,0.8,-0.7,1.7,-7.7,-23,0.500747703,0.0892056032,0.442426832,-0.738578448
114,288930,1707280,-0.565,-0.568,0.595,1.7,0.8,-0.7,3.6,-5.7,-23.4,0.500717185,0.0892361217,0.442396313,-0.738608966
115,292021,1707280,-0.569,-0.568,0.595,1.6,0.7,-0.9,3.6,-5.7,-23.4,0.500686666,0.0892666402,0.442396313,-0.738639485
116,295047,1707280,-0.573,-0.568,0.595,1.6,0.7,-1.1,3.6,-5.7,-23.4,0.500686666,0.0892666402,0.442365795,-0.738670003
117,297295,1707280,-0.569,-0.564,0.591,1.5,0.8,-1.1,3.6,-5.7,-23.4,0.500656148,0.0892971587,0.442365795,-0.738670003
118,298905,1707290,-0.577,-0.564,0.587,1.4,1,-1.2,4.3,-6,-23.5,0.500595111,0.0893276772,0.442335276,-0.738700522
119,301893,1707290,-0.573,-0.564,0.587,1.3,1.2,-1.3,4.3,-6,-23.5,0.500564592,0.0893276772,0.442335276,-0.73873104
120,304941,1707290,-0.573,-0.568,0.595,1.2,1.3,-1.5,4.3,-6,-23.5,0.500534074,0.0893581957,0.442335276,-0.738761559
121,306382,1707290,-0.573,-0.564,0.591,1,1.3,-1.7,4.3,-6,-23.5,0.500503555,0.0893581957,0.442335276,-0.738792077
122,309924,1707300,-0.573,-0.564,0.591,1,1.3,-1.7,4.3,-6,-23.5,0.500503555,0.0893581957,0.442335276,-0.738792077
123,311410,1707300,-0.573,-0.564,0.591,0.8,1.3,-1.9,5.2,-5.8,-23.6,0.500381481,0.0893887143,0.442335276,-0.738853114
124,314514,1707300,-0.573,-0.572,0.587,0.8,1.3,-2,5.2,-5.8,-23.6,0.500350963,0.0894192328,0.442365795,-0.738883633
125,316664,1707300,-0.577,-0.568,0.595,0.8,1.3,-2.1,5.2,-5.8,-23.6,0.500289926,0.0894192328,0.442365795,-0.738883633
126,319960,1707310,-0.581,-0.564,0.595,0.8,1.3,-2.2,6.2,-5.9,-23.5,0.500259407,0.0894192328,0.442365795,-0.738914151
127,322269,1707310,-0.577,-0.568,0.591,0.8,1.3,-2.2,6.2,-5.9,-23.5,0.50019837,0.0894497513,0.442365795,-0.73894467
128,325291,1707310,-0.577,-0.564,0.587,0.9,1.4,-2.3,6.2,-5.9,-23.5,0.500137333,0.0894497513,0.442365795,-0.738975188
129,326819,1707310,-0.581,-0.564,0.591,0.8,1.4,-2.4,6.2,-5.9,-23.5,0.500076296,0.0894497513,0.442365795,-0.739036225
130,328890,1707320,-0.577,-0.564,0.595,0.8,1.3,-2.5,6.2,-5.9,-23.5,0.500045778,0.0894497513,0.442396313,-0.739066744
131,332434,1707320,-0.581,-0.564,0.591,0.7,1.2,-2.6,6.2,-5.9,-23.5,0.499984741,0.0894497513,0.442396313,-0.739097262
132,333952,1707320,-0.577,-0.568,0.591,0.6,1.2,-2.6,6.2,-5.9,-23.5,0.499923704,0.0894497513,0.442396313,-0.739127781
133,336459,1707320,-0.581,-0.568,0.591,0.6,1.2,-2.6,6.2,-5.9,-23.5,0.499862667,0.0894497513,0.442396313,-0.7391583
134,339908,1707330,-0.577,-0.568,0.591,0.6,1.2,-2.7,4.3,-6.8,-23.6,0.49980163,0.0894497513,0.442426832,-0.739188818
135,341563,1707330,-0.581,-0.572,0.595,0.7,1.1,-2.8,4.3,-6.8,-23.6,0.499740593,0.0894497513,0.442426832,-0.739219337
136,344198,1707330,-0.573,-0.58,0.591,0.8,1,-2.8,4.3,-6.8,-23.6,0.499679556,0.0894497513,0.442426832,-0.739249855
137,347177,1707330,-0.577,-0.584,0.595,0.9,1,-2.9,4.3,-6.8,-23.6,0.499618519,0.0894497513,0.442426832,-0.739310892
138,348918,1707340,-0.573,-0.584,0.595,1,1.1,-2.9,4.9,-6.9,-23.4,0.499557482,0.0894497513,0.442426832,-0.739341411
139,352468,1707340,-0.573,-0.591,0.599,1.1,1.1,-3,4.9,-6.9,-23.4,0.499496445,0.0894497513,0.442426832,-0.739371929
140,353980,1707340,-0.573,-0.591,0.591,1.3,1,-2.9,4.9,-6.9,-23.4,0.499435408,0.0894497513,0.442426832,-0.739432966
141,356606,1707340,-0.573,-0.591,0.599,1.4,0.8,-3.1,4.9,-6.9,-23.4,0.499374371,0.0894497513,0.442426832,-0.739463485
142,360023,1707350,-0.573,-0.591,0.599,1.4,0.8,-3.1,4.9,-6.9,-23.4,0.499374371,0.0894497513,0.442426832,-0.739463485
143,361881,1707350,-0.577,-0.587,0.595,1.7,0.7,-3,4.6,-7.3,-23.4,0.499191259,0.0893581957,0.44245735,-0.739585559
144,364189,1707350,-0.577,-0.591,0.595,1.9,0.7,-2.9,4.6,-7.3,-23.4,0.499130222,0.0893581957,0.442426832,-0.739646596
145,366466,1707350,-0.573,-0.588,0.599,2,0.8,-2.9,4.6,-7.3,-23.4,0.499069185,0.0893581957,0.442426832,-0.739707633
146,368903,1707360,-0.569,-0.584,0.599,2.2,0.7,-2.9,4.3,-7.9,-23.3,0.499008148,0.0893581957,0.442396313,-0.739738151
147,371775,1707360,-0.569,-0.588,0.591,2.4,0.7,-2.8,4.3,-7.9,-23.3,0.498947111,0.0893887143,0.442365795,-0.739799188
148,375007,1707360,-0.569,-0.584,0.591,2.6,0.6,-2.6,4.3,-7.9,-23.3,0.498886074,0.0893887143,0.442335276,-0.739860225
149,376425,1707360,-0.565,-0.588,0.599,2.8,0.5,-2.5,4.3,-7.9,-23.3,0.498855556,0.0894192328,0.442304758,-0.739921262
150,379245,1707370,-0.569,-0.588,0.595,3,0.5,-2.3,4.3,-7.9,-23.3,0.498794519,0.0894192328,0.442274239,-0.739951781
151,382206,1707370,-0.569,-0.58,0.595,3,0.4,-2.2,4.3,-7.9,-23.3,0.498764,0.0894497513,0.442243721,-0.740012818
152,383890,1707370,-0.565,-0.58,0.599,2.8,0.4,-2.1,4.3,-7.9,-23.3,0.498702963,0.0894497513,0.442182684,-0.740073855
153,386619,1707370,-0.569,-0.58,0.595,2.7,0.5,-2,4.3,-7.9,-23.3,0.498672445,0.0894497513,0.442152165,-0.740104373
154,389786,1707380,-0.573,-0.576,0.591,2.5,0.6,-1.9,4.8,-8.7,-23.8,0.498611408,0.0895107883,0.442121647,-0.74016541
155,391588,1707380,-0.569,-0.568,0.595,2.2,0.7,-1.8,4.8,-8.7,-23.8,0.498580889,0.0895107883,0.442091128,-0.740195929
156,394331,1707380,-0.569,-0.568,0.591,2,0.7,-1.7,4.8,-8.7,-23.8,0.498519852,0.0895413068,0.442091128,-0.740226447
157,397436,1707380,-0.569,-0.568,0.587,1.6,0.8,-1.5,4.8,-8.7,-23.8,0.498489334,0.0895718253,0.44206061,-0.740256966
158,398981,1707390,-0.573,-0.568,0.587,1.3,0.9,-1.4,5,-9.4,-23.5,0.498458815,0.0895718253,0.44206061,-0.740287484
159,401880,1707390,-0.573,-0.564,0.587,0.9,0.9,-1.2,5,-9.4,-23.5,0.498428297,0.0896023438,0.44206061,-0.740318003
160,405063,1707390,-0.577,-0.564,0.587,0.6,1,-1.1,5,-9.4,-23.5,0.498397778,0.0896023438,0.44206061,-0.740318003
161,406506,1707390,-0.577,-0.568,0.583,0.4,1.2,-1.1,5,-9.4,-23.5,0.49836726,0.0896023438,0.44206061,-0.740348521
162,409566,1707400,-0.577,-0.568,0.583,0.4,1.2,-1.1,5,-9.4,-23.5,0.49836726,0.0896023438,0.44206061,-0.740348521
163,412433,1707400,-0.577,-0.568,0.591,-0.1,1.4,-1.2,4.4,-9.1,-23.9,0.498306223,0.0896633808,0.442121647,-0.740348521
164,413982,1707400,-0.581,-0.564,0.587,-0.3,1.4,-1.2,4.4,-9.1,-23.9,0.498275704,0.0896633808,0.442152165,-0.740348521
165,416903,1707400,-0.585,-0.568,0.591,-0.4,1.4,-1,4.4,-9.1,-23.9,0.498245186,0.0896633808,0.442182684,-0.740348521
166,419846,1707410,-0.585,-0.568,0.584,-0.4,1.4,-1,4.8,-9,-23.8,0.498214667,0.0896938993,0.442213202,-0.740348521
167,421519,1707410,-0.581,-0.572,0.591,-0.3,1.5,-1.1,4.8,-9,-23.8,0.498184149,0.0896938993,0.442243721,-0.74037904
168,424514,1707410,-0.585,-0.572,0.591,-0.2,1.5,-1.3,4.8,-9,-23.8,0.49815363,0.0896938993,0.442243721,-0.74037904
169,427493,1707410,-0.581,-0.572,0.595,-0.1,1.4,-1.5,4.8,-9,-23.8,0.498123112,0.0896938993,0.442274239,-0.74037904
170,428985,1707420,-0.581,-0.568,0.587,0,1.4,-1.5,4.8,-9,-23.8,0.498062075,0.0897244179,0.442304758,-0.740409558
171,431515,1707420,-0.581,-0.564,0.591,0,1.5,-1.5,4.8,-9,-23.8,0.498031556,0.0897244179,0.442304758,-0.740409558
172,435771,1707420,-0.585,-0.568,0.591,0.2,1.7,-1.6,4.8,-9,-23.8,0.497970519,0.0897549364,0.442335276,-0.740440077
173,438129,1707420,-0.585,-0.568,0.584,0.4,1.8,-1.8,4.8,-9,-23.8,0.497940001,0.0897549364,0.442335276,-0.740470595
174,440343,1707430,-0.589,-0.564,0.588,0.7,1.8,-1.9,4.9,-7.5,-25,0.497878964,0.0897854549,0.442365795,-0.740470595
175,442748,1707430,-0.585,-0.564,0.587,1.1,1.8,-2.1,4.9,-7.5,-25,0.497817927,0.0898159734,0.442365795,-0.740501114
176,444770,1707430,-0.585,-0.56,0.583,1.6,1.7,-2.2,4.9,-7.5,-25,0.497787408,0.0898159734,0.442365795,-0.740562151
177,447079,1707430,-0.581,-0.564,0.587,1.9,1.8,-2.4,4.9,-7.5,-25,0.497726371,0.0898464919,0.442365795,-0.740592669
178,449164,1707440,-0.585,-0.56,0.587,2,1.8,-2.5,5,-6.7,-25.4,0.497634816,0.0898770104,0.442335276,-0.740623188
179,451463,1707440,-0.585,-0.564,0.583,2.1,1.9,-2.5,5,-6.7,-25.4,0.497573778,0.0899075289,0.442335276,-0.740684225
180,453970,1707440,-0.581,-0.564,0.587,2.2,1.7,-2.5,5,-6.7,-25.4,0.497512741,0.0899380474,0.442335276,-0.740714743
181,457582,1707440,-0.585,-0.564,0.587,2.2,1.6,-2.6,5,-6.7,-25.4,0.497451704,0.0899380474,0.442304758,-0.740775781
182,460040,1707450,-0.585,-0.564,0.587,2.2,1.6,-2.6,5,-6.7,-25.4,0.497451704,0.0899380474,0.442304758,-0.740775781
183,462710,1707450,-0.581,-0.564,0.583,2.2,1.7,-2.8,5,-6.2,-24.6,0.497360149,0.090151677,0.442335276,-0.740806299
184,464999,1707450,-0.585,-0.564,0.587,2.3,1.9,-2.9,5,-6.2,-24.6,0.497299112,0.0901821955,0.442335276,-0.740867336
185,466716,1707450,-0.585,-0.564,0.587,2.2,2.1,-3,5,-6.2,-24.6,0.497207556,0.090212714,0.442335276,-0.740897855
186,469572,1707460,-0.581,-0.564,0.583,2.2,2.4,-3.3,5.4,-6.4,-25.3,0.497116001,0.0902432325,0.442304758,-0.740958892
187,471805,1707460,-0.581,-0.564,0.587,2.1,2.4,-3.4,5.4,-6.4,-25.3,0.497054964,0.090273751,0.442304758,-0.741019929
188,473938,1707460,-0.581,-0.572,0.587,2,2.4,-3.6,5.4,-6.4,-25.3,0.496963408,0.0903042695,0.442304758,-0.741080966
189,477104,1707460,-0.577,-0.576,0.587,2,2.2,-3.5,5.4,-6.4,-25.3,0.496871853,0.090334788,0.442304758,-0.741111484
190,478996,1707470,-0.581,-0.576,0.583,2,2.2,-3.5,5,-7.3,-23.3,0.496780297,0.0903653066,0.442304758,-0.741172521
191,481779,1707470,-0.585,-0.575,0.587,2,2.4,-3.5,5,-7.3,-23.3,0.49671926,0.0903958251,0.442304758,-0.741233558
192,484169,1707470,-0.581,-0.58,0.587,2.1,2.7,-3.4,5,-7.3,-23.3,0.496627705,0.0904263436,0.442304758,-0.741294595
193,486812,1707470,-0.577,-0.58,0.583,2.2,2.8,-3.3,5,-7.3,-23.3,0.496536149,0.0904263436,0.442304758,-0.741325114
194,488973,1707480,-0.577,-0.587,0.587,2.2,2.8,-3.3,5.7,-7.2,-23.1,0.496444594,0.0904873806,0.442304758,-0.741386151
195,492225,1707480,-0.577,-0.584,0.595,2.3,2.8,-3.3,5.7,-7.2,-23.1,0.496353038,0.0905484176,0.442304758,-0.741447188
196,493935,1707480,-0.577,-0.587,0.595,2.4,2.9,-3.4,5.7,-7.2,-23.1,0.496261483,0.0905789361,0.442304758,-0.741508225
197,496783,1707480,-0.581,-0.587,0.591,2.5,2.9,-3.4,5.7,-7.2,-23.1,0.496169927,0.0906094546,0.442304758,-0.741538743
198,500038,1707490,-0.577,-0.584,0.591,2.6,3,-3.3,5,-7.4,-22.2,0.496078372,0.0906704917,0.442304758,-0.74159978
199,502212,1707490,-0.581,-0.591,0.587,2.7,3,-3.3,5,-7.4,-22.2,0.496017335,0.0907010102,0.442304758,-0.741660817
200,504668,1707490,-0.581,-0.587,0.587,2.8,3.1,-3.1,5,-7.4,-22.2,0.495925779,0.0907620472,0.442304758,-0.741721854
201,506791,1707490,-0.581,-0.587,0.591,3,3.1,-3.1,5,-7.4,-22.2,0.495834223,0.0908230842,0.442304758,-0.741782891
202,509009,1707500,-0.581,-0.587,0.591,3,3.1,-3.1,5,-7.4,-22.2,0.495834223,0.0908230842,0.442304758,-0.741782891
203,512333,1707500,-0.581,-0.587,0.587,3,3.3,-3.1,5.8,-7.3,-21.6,0.495590075,0.0908841212,0.442396313,-0.741874447
204,514421,1707500,-0.581,-0.583,0.591,3.2,3.4,-3,5.8,-7.3,-21.6,0.49549852,0.0909146397,0.442365795,-0.741935484
205,517634,1707500,-0.581,-0.576,0.591,3.3,3.5,-2.8,5.8,-7.3,-21.6,0.495406964,0.0910061953,0.442365795,-0.741996521
206,519155,1707510,-0.585,-0.576,0.584,3.3,3.6,-2.7,5.3,-7.3,-20.9,0.495315409,0.0910672323,0.442365795,-0.742027039
207,521408,1707510,-0.577,-0.572,0.583,3.2,3.7,-2.6,5.3,-7.3,-20.9,0.495254372,0.0911282693,0.442335276,-0.742088076
208,524018,1707510,-0.581,-0.568,0.583,3.2,3.7,-2.5,5.3,-7.3,-20.9,0.495162816,0.0912198248,0.442335276,-0.742149113
209,527259,1707510,-0.581,-0.568,0.583,3,3.8,-2.5,5.3,-7.3,-20.9,0.495071261,0.0912808618,0.442335276,-0.742179632
210,529165,1707520,-0.581,-0.564,0.583,2.9,3.9,-2.5,5.1,-7.3,-25.7,0.494979705,0.0913418989,0.442335276,-0.742240669
211,531642,1707520,-0.581,-0.564,0.587,2.7,4.1,-2.5,5.1,-7.3,-25.7,0.49488815,0.0914029359,0.442335276,-0.742301706
212,534939,1707520,-0.581,-0.564,0.579,2.6,4.3,-2.4,5.1,-7.3,-25.7,0.494827113,0.0914944914,0.442365795,-0.742332224
213,536499,1707520,-0.581,-0.564,0.579,2.4,4.5,-2.4,5.1,-7.3,-25.7,0.494735557,0.0915860469,0.442365795,-0.742362743
214,539014,1707530,-0.581,-0.556,0.579,2.1,4.6,-2.5,5.2,-7.3,-22.3,0.494613483,0.091647084,0.442396313,-0.74242378
215,542562,1707530,-0.58,-0.556,0.583,1.8,4.8,-2.5,5.2,-7.3,-22.3,0.494552446,0.0917386395,0.442426832,-0.742454299
216,544042,1707530,-0.577,-0.556,0.583,1.5,4.9,-2.5,5.2,-7.3,-22.3,0.494460891,0.0917996765,0.44245735,-0.742484817
217,546646,1707530,-0.584,-0.552,0.587,1.2,5.1,-2.6,5.2,-7.3,-22.3,0.494369335,0.0918607135,0.442487869,-0.742515336
218,550086,1707540,-0.588,-0.556,0.58,0.7,5.4,-2.9,5.1,-7.2,-22.6,0.494247261,0.091891232,0.442548906,-0.742545854
219,551504,1707540,-0.592,-0.552,0.584,0.2,5.6,-3.1,5.1,-7.2,-22.6,0.494155705,0.0920133061,0.442609943,-0.742576373
220,553878,1707540,-0.592,-0.556,0.584,-0.1,5.7,-3.4,5.1,-7.2,-22.6,0.494033631,0.0920743431,0.44267098,-0.742576373
221,557505,1707540,-0.596,-0.556,0.58,-0.5,5.9,-3.7,5.1,-7.2,-22.6,0.493911557,0.0921048616,0.442762535,-0.742606891
222,559096,1707550,-0.596,-0.556,0.58,-0.5,5.9,-3.7,5.1,-7.2,-22.6,0.493911557,0.0921048616,0.442762535,-0.742606891
223,562253,1707550,-0.608,-0.563,0.576,-1.4,6,-4.5,5.2,-7.5,-23,0.493728446,0.0923795282,0.442976165,-0.742576373
224,564000,1707550,-0.6,-0.563,0.576,-1.9,6.1,-5.1,5.2,-7.5,-23,0.493575854,0.0923795282,0.443098239,-0.742606891
225,567503,1707550,-0.605,-0.571,0.576,-2.1,6.2,-5.8,5.2,-7.5,-23,0.493423261,0.0924405652,0.443189795,-0.74263741
226,569035,1707560,-0.601,-0.575,0.58,-2.2,6.2,-6.4,5.1,-7.5,-24.1,0.493270669,0.0924405652,0.443311869,-0.742667928
227,571588,1707560,-0.605,-0.583,0.584,-2.1,6.2,-7,5.1,-7.5,-24.1,0.493087558,0.0924405652,0.443433943,-0.742698447
228,574776,1707560,-0.605,-0.583,0.58,-1.9,6.2,-7.6,5.1,-7.5,-24.1,0.492934965,0.0924710837,0.443556017,-0.742759484
229,576470,1707560,-0.605,-0.595,0.584,-1.5,6.2,-8.1,5.1,-7.5,-24.1,0.492721335,0.0924710837,0.443647572,-0.742820521
230,579473,1707570,-0.601,-0.599,0.584,-1.1,6.2,-8.5,5.1,-7.5,-23.5,0.492538224,0.0924710837,0.443769646,-0.742881558
231,581722,1707570,-0.601,-0.603,0.584,-0.5,6.1,-8.9,5.1,-7.5,-23.5,0.492324595,0.0924710837,0.443830683,-0.742973113
232,584020,1707570,-0.601,-0.603,0.592,0,6.1,-9.4,5.1,-7.5,-23.5,0.492110965,0.0925016022,0.443922239,-0.743064669
233,586513,1707570,-0.601,-0.61,0.596,0.8,6,-9.9,5.1,-7.5,-23.5,0.491897336,0.0925016022,0.444013794,-0.743156224
234,589887,1707580,-0.601,-0.61,0.6,1.5,6,-10.4,5.5,-7.4,-23.9,0.491653188,0.0925016022,0.444074831,-0.743278298
235,591659,1707580,-0.605,-0.61,0.604,2.1,6.1,-10.7,5.5,-7.4,-23.9,0.491439558,0.0925321207,0.44410535,-0.743400372
236,594067,1707580,-0.597,-0.611,0.6,2.5,6,-10.9,5.5,-7.4,-23.9,0.49119541,0.0925626392,0.444166387,-0.743522446
237,597034,1707580,-0.601,-0.607,0.596,2.7,6,-11,5.5,-7.4,-23.9,0.490951262,0.0925626392,0.444196905,-0.743675039
238,600043,1707590,-0.601,-0.607,0.588,2.7,5.9,-11.2,5.4,-7.7,-23.7,0.490707114,0.0925931578,0.444257942,-0.743797113
239,601727,1707590,-0.609,-0.61,0.58,2.8,5.6,-11.3,5.4,-7.7,-23.7,0.490462966,0.0925931578,0.444288461,-0.743919187
240,604094,1707590,-0.601,-0.622,0.584,3.2,5.5,-11.7,5.4,-7.7,-23.7,0.490188299,0.0926236763,0.444318979,-0.74407178
241,606706,1707590,-0.593,-0.626,0.584,4.2,5.5,-12.2,5.4,-7.7,-23.7,0.489944151,0.0926236763,0.444318979,-0.744224372
242,610054,1707600,-0.593,-0.626,0.584,4.2,5.5,-12.2,5.4,-7.7,-23.7,0.489944151,0.0926236763,0.444318979,-0.744224372
243,611563,1707600,-0.574,-0.635,0.591,6.8,5.7,-13.2,5.7,-7.8,-24.3,0.489333781,0.0926847133,0.444410535,-0.744590594
244,614016,1707600,-0.566,-0.623,0.603,7.8,5.8,-13.2,5.7,-7.8,-24.3,0.489028596,0.0927457503,0.444380016,-0.744804224
245,616452,1707600,-0.569,-0.607,0.599,8.3,5.9,-12.9,5.7,-7.8,-24.3,0.488753929,0.0928067873,0.444318979,-0.745017853
246,619913,1707610,-0.577,-0.599,0.591,8.5,5.9,-12.6,5.6,-7.7,-24,0.488479263,0.0928678243,0.444288461,-0.745200964
247,621549,1707610,-0.585,-0.579,0.595,8.4,6.1,-12.5,5.6,-7.7,-24,0.488204596,0.0929288614,0.444227424,-0.745414594
248,623914,1707610,-0.608,-0.559,0.584,8.2,6.2,-12.7,5.6,-7.7,-24,0.487899411,0.0929898984,0.444196905,-0.745628224
249,626462,1707610,-0.616,-0.547,0.58,7.9,6.4,-12.7,5.6,-7.7,-24,0.487624744,0.0930814539,0.444135868,-0.745811335
250,630020,1707620,-0.612,-0.543,0.576,7.6,6.5,-12.5,5.2,-7.5,-23.2,0.487350078,0.0931424909,0.444135868,-0.745994446
251,631492,1707620,-0.608,-0.544,0.572,7.4,6.7,-12.2,5.2,-7.5,-23.2,0.487044893,0.0932035279,0.44410535,-0.746208075
252,634669,1707620,-0.596,-0.552,0.584,7.4,6.8,-12,5.2,-7.5,-23.2,0.486770226,0.0932950835,0.444074831,-0.746391186
253,636735,1707620,-0.588,-0.556,0.58,7.4,6.8,-11.8,5.2,-7.5,-23.2,0.48649556,0.0933561205,0.444044313,-0.746574297
254,639863,1707630,-0.585,-0.56,0.587,7.3,6.7,-11.8,6.1,-7.4,-23.2,0.486220893,0.0934171575,0.444013794,-0.746757408
255,641539,1707630,-0.592,-0.564,0.592,7.1,6.6,-11.9,6.1,-7.4,-23.2,0.485946226,0.093508713,0.444013794,-0.746940519
256,645123,1707630,-0.585,-0.564,0.591,7,6.5,-12.1,6.1,-7.4,-23.2,0.48567156,0.0935697501,0.443983276,-0.74712363
257,646447,1707630,-0.589,-0.568,0.595,6.6,6.6,-12.3,6.1,-7.4,-23.2,0.485396893,0.0936307871,0.443983276,-0.747306742
258,649685,1707640,-0.592,-0.564,0.592,6.3,6.8,-12.5,6.3,-7.4,-23.1,0.485122227,0.0936918241,0.443952757,-0.747489853
259,651747,1707640,-0.601,-0.571,0.596,5.8,7.1,-12.8,6.3,-7.4,-23.1,0.484817042,0.0937223426,0.443983276,-0.747672964
260,655068,1707640,-0.597,-0.575,0.588,5.3,7.5,-13,6.3,-7.4,-23.1,0.484542375,0.0937833796,0.443983276,-0.747825556
261,656646,1707640,-0.601,-0.579,0.592,5.1,7.7,-13.3,6.3,-7.4,-23.1,0.48423719,0.0938444166,0.444013794,-0.748008667
262,659159,1707650,-0.601,-0.579,0.592,5.1,7.7,-13.3,6.3,-7.4,-23.1,0.48423719,0.0938444166,0.444013794,-0.748008667
263,662593,1707650,-0.593,-0.595,0.592,5.2,7.9,-13.8,6,-7.3,-22.9,0.48362682,0.0940580462,0.444074831,-0.748344371
264,664443,1707650,-0.589,-0.599,0.592,5.6,7.8,-14.2,6,-7.3,-22.9,0.483321635,0.0940885647,0.444074831,-0.748527482
265,666763,1707650,-0.585,-0.603,0.595,6,7.8,-14.5,6,-7.3,-22.9,0.482985931,0.0941496017,0.44410535,-0.748710593
266,669016,1707660,-0.581,-0.611,0.599,6.7,7.9,-14.9,6.5,-6.9,-23,0.482650227,0.0942106388,0.44410535,-0.748924223
267,673035,1707660,-0.585,-0.627,0.599,7.4,8.3,-15.2,6.5,-6.9,-23,0.482314524,0.0942716758,0.44410535,-0.749137852
268,675205,1707660,-0.582,-0.635,0.599,8.3,8.7,-15.7,6.5,-6.9,-23,0.481948302,0.0943327128,0.444074831,-0.749382
269,676712,1707660,-0.586,-0.638,0.603,9.3,9.1,-16.3,6.5,-6.9,-23,0.48158208,0.0944547868,0.444074831,-0.749626148
270,679053,1707670,-0.586,-0.642,0.611,10.4,9.5,-16.7,4.5,-7.5,-23.1,0.481185339,0.0945463424,0.444013794,-0.749870296
271,681668,1707670,-0.586,-0.642,0.611,11.6,9.7,-17,4.5,-7.5,-23.1,0.480788598,0.0946684164,0.443983276,-0.750144963
272,683939,1707670,-0.586,-0.638,0.611,12.8,9.8,-17.1,4.5,-7.5,-23.1,0.480391858,0.0947904904,0.44389172,-0.75041963
273,687349,1707670,-0.586,-0.634,0.607,13.8,9.9,-17.2,4.5,-7.5,-23.1,0.479995117,0.094943083,0.443800165,-0.750724815
274,689029,1707680,-0.585,-0.63,0.603,14.6,10,-17.4,7.7,-7.8,-22.9,0.479567858,0.0950956755,0.443708609,-0.75103
275,692601,1707680,-0.581,-0.623,0.607,15.2,10.2,-17.6,7.7,-7.8,-22.9,0.479140599,0.0952482681,0.443617054,-0.751335185
276,694057,1707680,-0.581,-0.619,0.607,16,10.5,-17.7,7.7,-7.8,-22.9,0.47871334,0.0954008606,0.44349498,-0.75164037
277,697231,1707680,-0.585,-0.619,0.615,16.9,10.6,-17.6,7.7,-7.8,-22.9,0.478286081,0.0955839717,0.443372906,-0.751976073
278,699074,1707690,-0.581,-0.615,0.615,17.8,10.8,-17.5,7.9,-7.7,-23,0.477858821,0.0957976012,0.443220313,-0.752311777
279,702619,1707690,-0.581,-0.615,0.615,18.6,11,-17.3,7.9,-7.7,-23,0.477431562,0.0959807123,0.443067721,-0.752647481
280,704133,1707690,-0.585,-0.619,0.619,19.5,11.2,-17.1,7.9,-7.7,-23,0.477004303,0.0962248604,0.44288461,-0.752983184
281,707342,1707690,-0.581,-0.615,0.611,20.2,11.4,-17,7.9,-7.7,-23,0.476577044,0.0964384899,0.442701498,-0.753349406
282,709116,1707700,-0.581,-0.615,0.611,20.2,11.4,-17,7.9,-7.7,-23,0.476577044,0.0964384899,0.442701498,-0.753349406
283,711451,1707700,-0.565,-0.615,0.614,21.3,11.3,-17.2,8.1,-8.1,-22.9,0.475661489,0.0968657491,0.442335276,-0.754081851
284,715527,1707700,-0.561,-0.615,0.606,21.6,11.3,-17.4,8.1,-8.1,-22.9,0.47523423,0.0971098972,0.442121647,-0.754448073
285,717077,1707700,-0.561,-0.611,0.61,21.9,11.5,-17.5,8.1,-8.1,-22.9,0.474776452,0.0973540452,0.441938536,-0.754814295
286,719295,1707710,-0.561,-0.615,0.603,22.1,11.7,-17.7,7.9,-7.8,-23.2,0.474318674,0.0975981933,0.441724906,-0.755180517
287,721474,1707710,-0.561,-0.615,0.603,22.4,11.8,-17.8,7.9,-7.8,-23.2,0.473860897,0.0978728599,0.441511277,-0.755577258
288,724596,1707710,-0.557,-0.611,0.599,22.6,11.9,-17.8,7.9,-7.8,-23.2,0.473403119,0.098117008,0.441297647,-0.75594348
289,727536,1707710,-0.553,-0.604,0.594,22.8,12,-17.7,7.9,-7.8,-23.2,0.472945341,0.0983916746,0.441084017,-0.756309702
290,729113,1707720,-0.549,-0.604,0.598,22.9,12.1,-17.4,6.5,-8.1,-22.9,0.472487564,0.0986663411,0.440870388,-0.756706442
291,731419,1707720,-0.545,-0.6,0.598,22.8,12.3,-17.2,6.5,-8.1,-22.9,0.472060305,0.0989410077,0.440656758,-0.757072665
292,733975,1707720,-0.541,-0.6,0.594,22.6,12.4,-16.9,6.5,-8.1,-22.9,0.471602527,0.0992156743,0.440443129,-0.757438887
293,737343,1707720,-0.529,-0.596,0.594,22.4,12.6,-16.6,6.5,-8.1,-22.9,0.471144749,0.0994903409,0.440229499,-0.757805109
294,739113,1707730,-0.534,-0.604,0.594,22.2,12.8,-16.2,6.2,-8,-22.6,0.47071749,0.0997650075,0.440046388,-0.758140812
295,742578,1707730,-0.526,-0.608,0.605,22.2,13,-16,6.2,-8,-22.6,0.470259713,0.100070193,0.439832759,-0.758507035
296,744840,1707730,-0.522,-0.612,0.605,22.2,13.1,-15.8,6.2,-8,-22.6,0.469832453,0.100344859,0.439649648,-0.758842738
297,746993,1707730,-0.522,-0.616,0.609,22,13.3,-15.6,6.2,-8,-22.6,0.469405194,0.100650044,0.439436018,-0.759178442
298,749196,1707740,-0.518,-0.612,0.617,21.8,13.6,-15.4,5.5,-7.9,-22.5,0.468977935,0.100955229,0.439252907,-0.759514145
299,751566,1707740,-0.518,-0.612,0.613,21.3,14,-15,5.5,-7.9,-22.5,0.468520157,0.101260414,0.439100314,-0.759849849
300,754116,1707740,-0.522,-0.604,0.613,20.9,14.5,-14.6,5.5,-7.9,-22.5,0.468092898,0.1015656,0.438917203,-0.760155034
301,757497,1707740,-0.522,-0.608,0.617,20.4,15,-14.2,5.5,-7.9,-22.5,0.467665639,0.101901303,0.438764611,-0.760490738
302,759770,1707750,-0.522,-0.608,0.617,20.4,15,-14.2,5.5,-7.9,-22.5,0.467665639,0.101901303,0.438764611,-0.760490738
303,762003,1707750,-0.521,-0.6,0.621,19.7,15.6,-13.8,4.3,-8.1,-22.6,0.466750084,0.102267525,0.438428907,-0.761192663
304,764240,1707750,-0.513,-0.597,0.629,19.3,15.9,-13.8,4.3,-8.1,-22.6,0.466322825,0.102603229,0.438306833,-0.76146733
305,766520,1707750,-0.521,-0.6,0.633,18.7,16.4,-13.8,4.3,-8.1,-22.6,0.465895566,0.102938932,0.438184759,-0.761772515
306,769156,1707760,-0.525,-0.596,0.625,18.3,16.8,-13.7,3.9,-8,-22.3,0.465468307,0.103274636,0.438093204,-0.762047182
307,773230,1707760,-0.525,-0.596,0.633,17.9,17.1,-13.6,3.9,-8,-22.3,0.465041047,0.10361034,0.437971129,-0.762321848
308,775449,1707760,-0.525,-0.6,0.629,17.6,17.4,-13.7,3.9,-8,-22.3,0.46458327,0.103946043,0.437910092,-0.762565996
309,777629,1707760,-0.529,-0.596,0.633,17.5,17.7,-13.9,3.9,-8,-22.3,0.464156011,0.104281747,0.437818537,-0.762840663
310,779203,1707770,-0.529,-0.6,0.633,17.3,18,-14.3,8.5,-9.6,-22.7,0.463698233,0.104586932,0.4377575,-0.763115329
311,781514,1707770,-0.533,-0.596,0.629,17,18.3,-14.8,8.5,-9.6,-22.7,0.463240455,0.104953154,0.437696463,-0.763389996
312,784144,1707770,-0.529,-0.596,0.621,16.7,18.7,-15.4,8.5,-9.6,-22.7,0.462782678,0.105288858,0.437635426,-0.763664663
313,787384,1707770,-0.529,-0.6,0.621,16.6,19.1,-16,8.5,-9.6,-22.7,0.462294382,0.105624561,0.437574389,-0.763939329
314,789653,1707780,-0.521,-0.6,0.613,16.8,19.5,-16.4,5.3,-7.3,-22.7,0.461775567,0.105960265,0.43754387,-0.764213996
315,791677,1707780,-0.522,-0.608,0.613,17.2,19.7,-16.7,5.3,-7.3,-22.7,0.461287271,0.106295969,0.437482833,-0.764519181
316,794028,1707780,-0.522,-0.608,0.609,17.8,19.8,-16.9,5.3,-7.3,-22.7,0.460768456,0.106662191,0.437421796,-0.764793847
317,796931,1707780,-0.522,-0.608,0.601,18.4,19.8,-17,5.3,-7.3,-22.7,0.460249641,0.106997894,0.437360759,-0.765099033
318,799257,1707790,-0.522,-0.608,0.601,19.2,20,-17.2,6.1,-7.3,-22.6,0.459730827,0.107364116,0.437299722,-0.765404218
319,801558,1707790,-0.533,-0.596,0.602,19.8,20.3,-17.3,6.1,-7.3,-22.6,0.459181494,0.107730338,0.437208167,-0.765739921
320,804077,1707790,-0.537,-0.588,0.598,20.3,20.6,-17.5,6.1,-7.3,-22.6,0.458662679,0.108127079,0.437116611,-0.766045106
321,806751,1707790,-0.537,-0.581,0.598,20.7,21.1,-17.8,6.1,-7.3,-22.6,0.458113346,0.108493301,0.437025056,-0.76638081
322,809764,1707800,-0.537,-0.581,0.598,20.7,21.1,-17.8,6.1,-7.3,-22.6,0.458113346,0.108493301,0.437025056,-0.76638081
323,811997,1707800,-0.537,-0.553,0.59,21.4,22.1,-18.7,7.6,-7.5,-22.4,0.456831568,0.108951079,0.436811426,-0.76720481
324,814155,1707800,-0.537,-0.549,0.59,21.7,22.3,-19.2,7.6,-7.5,-22.4,0.456251717,0.109378338,0.436719871,-0.767540513
325,816515,1707800,-0.537,-0.545,0.586,22.3,22.3,-19.8,7.6,-7.5,-22.4,0.455641346,0.109775079,0.436597797,-0.767906735
326,819077,1707810,-0.532,-0.533,0.59,22.7,22.2,-20.3,8.2,-7,-22.4,0.455030976,0.110171819,0.436506241,-0.768242439
327,821665,1707810,-0.525,-0.541,0.59,23,22.3,-20.9,8.2,-7,-22.4,0.454420606,0.110599078,0.436384167,-0.76863918
328,824987,1707810,-0.525,-0.538,0.586,23.1,22.4,-21.4,8.2,-7,-22.4,0.453779717,0.110995819,0.436262093,-0.769005402
329,826602,1707810,-0.525,-0.538,0.586,23.1,22.7,-21.7,8.2,-7,-22.4,0.453138829,0.11139256,0.436170537,-0.769402142
330,829513,1707820,-0.521,-0.546,0.582,23,23,-21.9,7.6,-9.4,-22.3,0.45249794,0.1117893,0.436017945,-0.769768365
331,832527,1707820,-0.513,-0.546,0.574,22.9,23.3,-22.2,7.6,-9.4,-22.3,0.451857051,0.112216559,0.435956908,-0.770134587
332,834084,1707820,-0.521,-0.549,0.578,22.7,23.6,-22.5,7.6,-9.4,-22.3,0.451185644,0.1126133,0.435865352,-0.770500809
333,836668,1707820,-0.513,-0.55,0.578,22.5,23.8,-22.8,7.6,-9.4,-22.3,0.450514237,0.113010041,0.435773797,-0.770897549
334,840048,1707830,-0.513,-0.558,0.57,22.3,24,-23.1,8,-7.6,-21.9,0.44984283,0.113376263,0.435682241,-0.77129429
335,841532,1707830,-0.517,-0.561,0.578,22.2,24.3,-23.2,8,-7.6,-21.9,0.449171422,0.11383404,0.435621204,-0.771660512
336,844682,1707830,-0.517,-0.561,0.578,22.1,24.8,-23.2,8,-7.6,-21.9,0.448500015,0.114230781,0.435529649,-0.772057253
337,847536,1707830,-0.517,-0.561,0.586,22.1,25.2,-23.1,8,-7.6,-21.9,0.44779809,0.11465804,0.435468612,-0.772423475
338,849047,1707840,-0.521,-0.557,0.59,22,25.6,-22.8,7.7,-7.9,-21.9,0.447126682,0.115085299,0.435407575,-0.772789697
339,852256,1707840,-0.521,-0.561,0.597,21.8,26.1,-22.8,7.7,-7.9,-21.9,0.446424757,0.115543077,0.435346538,-0.773155919
340,854208,1707840,-0.521,-0.565,0.601,21.5,26.6,-22.9,7.7,-7.9,-21.9,0.445753349,0.115970336,0.435316019,-0.773522141
341,857484,1707840,-0.517,-0.561,0.609,21.2,27.3,-23,7.7,-7.9,-21.9,0.445051424,0.116428114,0.435254982,-0.773857845
342,859212,1707850,-0.517,-0.561,0.609,21.2,27.3,-23,7.7,-7.9,-21.9,0.445051424,0.116428114,0.435254982,-0.773857845
343,862550,1707850,-0.517,-0.561,0.613,20.7,27.9,-23.4,7.7,-7.8,-21.8,0.443586535,0.117160558,0.43510239,-0.774681845
344,864195,1707850,-0.517,-0.565,0.613,20.4,28.3,-23.7,7.7,-7.8,-21.8,0.44288461,0.117618336,0.43510239,-0.775017548
345,867512,1707850,-0.525,-0.561,0.617,20,28.7,-24,7.7,-7.8,-21.8,0.442152165,0.118076113,0.43510239,-0.77538377
346,869048,1707860,-0.521,-0.561,0.613,19.5,29.2,-24.3,8.4,-8.4,-21.7,0.441389203,0.118533891,0.43510239,-0.775719474
347,872465,1707860,-0.521,-0.553,0.617,19.1,29.5,-24.4,8.4,-8.4,-21.7,0.440656758,0.11896115,0.435132908,-0.776055177
348,874025,1707860,-0.517,-0.557,0.613,18.6,29.8,-24.5,8.4,-8.4,-21.7,0.439924314,0.119418928,0.435163427,-0.776390881
349,877159,1707860,-0.525,-0.557,0.609,17.8,30,-24.3,8.4,-8.4,-21.7,0.439161351,0.119876705,0.435224464,-0.776726585
350,880135,1707870,-0.521,-0.561,0.605,16.9,30.3,-24.1,8.8,-7.6,-21.7,0.438428907,0.120334483,0.435285501,-0.77703177
351,881595,1707870,-0.525,-0.553,0.609,16.1,30.7,-23.9,8.8,-7.6,-21.7,0.437696463,0.120761742,0.435377056,-0.777336955
352,884060,1707870,-0.525,-0.557,0.609,15.4,31.1,-23.7,8.8,-7.6,-21.7,0.4369335,0.121189001,0.435468612,-0.777611621
353,886683,1707870,-0.533,-0.557,0.602,14.8,31.6,-23.6,8.8,-7.6,-21.7,0.436201056,0.121677297,0.435590686,-0.777916807
354,889752,1707880,-0.537,-0.565,0.602,14,31.9,-23.6,8.7,-10.4,-21.6,0.435468612,0.122135075,0.43571276,-0.778191473
355,891632,1707880,-0.533,-0.569,0.59,13,32.3,-23.8,8.7,-10.4,-21.6,0.434705649,0.122562334,0.435865352,-0.778435621
356,893931,1707880,-0.545,-0.576,0.586,12.1,32.6,-24.3,8.7,-10.4,-21.6,0.433942686,0.123020112,0.436017945,-0.778710288
357,898215,1707880,-0.545,-0.592,0.563,11.3,33,-24.7,8.7,-10.4,-21.6,0.433179724,0.123447371,0.436201056,-0.778954436
358,900372,1707890,-0.55,-0.608,0.559,10.7,33.2,-25.3,8.8,-10.6,-21.7,0.432416761,0.12387463,0.436414686,-0.779198584
359,902779,1707890,-0.546,-0.612,0.559,10.3,33.2,-26.1,8.8,-10.6,-21.7,0.43162328,0.124271371,0.436628315,-0.779473251
360,905064,1707890,-0.542,-0.628,0.567,9.9,33,-26.9,8.8,-10.6,-21.7,0.430829798,0.124668111,0.436841945,-0.779717399
361,907369,1707890,-0.538,-0.632,0.563,9.3,33.2,-27.9,8.8,-10.6,-21.7,0.430005799,0.125064852,0.437055574,-0.779992065
362,909593,1707900,-0.538,-0.632,0.563,9.3,33.2,-27.9,8.8,-10.6,-21.7,0.430005799,0.125064852,0.437055574,-0.779992065
363,911862,1707900,-0.55,-0.639,0.555,7.6,34.4,-30.3,9.2,-11,-21.7,0.428052614,0.125492111,0.437910092,-0.78051088
364,914116,1707900,-0.562,-0.631,0.56,7,35.2,-31.6,9.2,-11,-21.7,0.427167577,0.125858333,0.438184759,-0.780785546
365,916481,1707900,-0.57,-0.615,0.56,6.9,36.1,-33,9.2,-11,-21.7,0.426221503,0.126194037,0.438489944,-0.781060213
366,919181,1707910,-0.581,-0.607,0.552,7.4,37,-34.3,9.4,-10.7,-21.5,0.42527543,0.126590777,0.438825648,-0.78133488
367,921493,1707910,-0.585,-0.568,0.56,8.2,37.7,-35.5,9.4,-10.7,-21.5,0.424298837,0.126956999,0.439130833,-0.781640065
368,924288,1707910,-0.593,-0.552,0.552,9.5,38.1,-36.4,9.4,-10.7,-21.5,0.423261208,0.12735374,0.439405499,-0.781975768
369,926493,1707910,-0.592,-0.532,0.556,10.9,38.3,-37.1,9.4,-10.7,-21.5,0.422223579,0.127750481,0.439680166,-0.782311472
370,930179,1707920,-0.596,-0.512,0.564,12.6,38.4,-37.6,10,-7.3,-19.9,0.421185949,0.128147221,0.439924314,-0.782677694
371,931912,1707920,-0.592,-0.497,0.572,14.4,38.5,-37.8,10,-7.3,-19.9,0.42014832,0.128604999,0.440137944,-0.783043916
372,934200,1707920,-0.591,-0.489,0.572,16.3,38.5,-37.9,10,-7.3,-19.9,0.419080172,0.129032258,0.440321055,-0.783440657
373,936486,1707920,-0.587,-0.489,0.576,18.1,38.5,-37.9,10,-7.3,-19.9,0.418012024,0.129490036,0.440473647,-0.783867916
374,939948,1707930,-0.592,-0.497,0.58,19.7,38.4,-37.6,10,-8.9,-23.1,0.416943876,0.129978332,0.440595721,-0.784295175
375,941652,1707930,-0.584,-0.505,0.575,21,38.3,-37,10,-8.9,-23.1,0.415875729,0.130466628,0.440687277,-0.784722434
376,944476,1707930,-0.584,-0.513,0.587,21.8,38.1,-36.4,10,-8.9,-23.1,0.414807581,0.130954924,0.440748314,-0.785149693
377,947698,1707930,-0.588,-0.528,0.583,22.2,38.1,-35.8,10,-8.9,-23.1,0.413769951,0.131473739,0.440809351,-0.785576952
378,949906,1707940,-0.584,-0.532,0.583,22.2,38.3,-35.5,10.5,-7.7,-22.9,0.412732322,0.131992553,0.440870388,-0.786004212
379,951513,1707940,-0.584,-0.54,0.591,21.9,38.5,-35.3,10.5,-7.7,-22.9,0.411694693,0.132511368,0.440961943,-0.786431471
380,954093,1707940,-0.584,-0.54,0.595,21.1,38.7,-35.2,10.5,-7.7,-22.9,0.410626545,0.133030183,0.441053499,-0.786828211
381,957486,1707940,-0.584,-0.54,0.603,20,38.8,-35.2,10.5,-7.7,-22.9,0.409619434,0.133548997,0.441145054,-0.787224952
382,959654,1707950,-0.584,-0.54,0.603,20,38.8,-35.2,10.5,-7.7,-22.9,0.409619434,0.133548997,0.441145054,-0.787224952
383,962028,1707950,-0.58,-0.536,0.607,17.7,39.1,-35,10.9,-7.8,-22.5,0.40766625,0.134678182,0.44123661,-0.787987915
384,964146,1707950,-0.58,-0.532,0.611,16.8,39.4,-34.5,10.9,-7.8,-22.5,0.406659139,0.135166478,0.441389203,-0.788323618
385,966517,1707950,-0.588,-0.54,0.611,16.1,39.6,-34,10.9,-7.8,-22.5,0.405652028,0.135685293,0.441572314,-0.78868984
386,969336,1707960,-0.588,-0.536,0.619,15.4,39.9,-33.3,11.1,-7.2,-22.5,0.404644917,0.136173589,0.441755425,-0.788995025
387,971541,1707960,-0.592,-0.544,0.619,14.9,40.2,-32.8,11.1,-7.2,-22.5,0.403637806,0.136692404,0.441938536,-0.789330729
388,974565,1707960,-0.592,-0.536,0.615,14.5,40.4,-32.2,11.1,-7.2,-22.5,0.402630696,0.137211219,0.442152165,-0.789605396
389,977574,1707960,-0.588,-0.54,0.619,14.1,40.5,-31.7,11.1,-7.2,-22.5,0.401654103,0.137730033,0.442365795,-0.789910581
390,979177,1707970,-0.596,-0.552,0.611,13.5,40.5,-31.1,11.1,-8.7,-20.9,0.400708029,0.138248848,0.442579424,-0.790185247
391,982059,1707970,-0.596,-0.552,0.607,12.7,40.6,-30.6,11.1,-8.7,-20.9,0.399731437,0.138737144,0.442793054,-0.790459914
392,984160,1707970,-0.596,-0.559,0.603,11.8,40.7,-30,11.1,-8.7,-20.9,0.398785363,0.139255959,0.443037202,-0.790704062
393,986573,1707970,-0.597,-0.567,0.588,11,40.8,-29.5,11.1,-8.7,-20.9,0.39783929,0.139774773,0.443311869,-0.79094821
394,989368,1707980,-0.597,-0.571,0.584,10.3,40.8,-29,11.1,-8.9,-20.5,0.396923734,0.140293588,0.443556017,-0.791192358
395,991439,1707980,-0.605,-0.575,0.58,9.8,40.8,-28.7,11.1,-8.9,-20.5,0.396008179,0.140812403,0.443830683,-0.791405988
396,993935,1707980,-0.613,-0.579,0.573,9.6,40.7,-28.4,11.1,-8.9,-20.5,0.395092624,0.141300699,0.44410535,-0.791619617
397,997166,1707980,-0.621,-0.586,0.569,9.5,40.7,-27.9,11.1,-8.9,-20.5,0.394177068,0.141819514,0.444380016,-0.791833247
398,999048,1707990,-0.621,-0.59,0.557,9.5,40.6,-27.5,11.4,-8.3,-20.2,0.393292032,0.142338328,0.444654683,-0.792016358
399,1002659,1707990,-0.625,-0.594,0.553,9.8,40.6,-27.3,11.4,-8.3,-20.2,0.392376476,0.142857143,0.444898831,-0.792229987
400,1004081,1707990,-0.637,-0.598,0.542,10.1,40.4,-27.3,11.4,-8.3,-20.2,0.39149144,0.143375958,0.445173498,-0.792443617
401,1006732,1707990,-0.641,-0.602,0.523,10.9,40.2,-27.3,11.4,-8.3,-20.2,0.390575884,0.143925291,0.445417646,-0.792657247
402,1009262,1708000,-0.641,-0.602,0.523,10.9,40.2,-27.3,11.4,-8.3,-20.2,0.390575884,0.143925291,0.445417646,-0.792657247
403,1012476,1708000,-0.653,-0.602,0.515,12.9,40,-27.3,11.5,-8.4,-18.7,0.388836329,0.145268105,0.44593646,-0.792962432
404,1014310,1708000,-0.661,-0.605,0.511,14.1,39.7,-27.5,11.5,-8.4,-18.7,0.387920774,0.145817438,0.446119572,-0.79320658
405,1016539,1708000,-0.669,-0.601,0.512,15.4,39.4,-27.7,11.5,-8.4,-18.7,0.387035737,0.146366771,0.446272164,-0.793450728
406,1020764,1708010,-0.669,-0.601,0.512,16.7,39.1,-28.1,11.8,-8.4,-18.1,0.386089663,0.146916105,0.446394238,-0.793725394
407,1021648,1708010,-0.669,-0.597,0.516,18.1,38.9,-28.6,11.8,-8.4,-18.1,0.385174108,0.147465438,0.446516312,-0.79403058
408,1024284,1708010,-0.677,-0.585,0.524,19.5,38.6,-29.1,11.8,-8.4,-18.1,0.384228034,0.148014771,0.446577349,-0.794335765
409,1027509,1708010,-0.68,-0.573,0.531,20.9,38.3,-29.6,11.8,-8.4,-18.1,0.383251442,0.148564104,0.446638386,-0.794671468
410,1029750,1708020,-0.692,-0.565,0.536,22.3,37.9,-30.1,12.3,-8.4,-22.6,0.382305368,0.149113437,0.446668905,-0.795007172
411,1031885,1708020,-0.688,-0.557,0.543,23.7,37.5,-30.5,12.3,-8.4,-22.6,0.381328776,0.149632252,0.446668905,-0.795373394
412,1034243,1708020,-0.699,-0.538,0.555,24.9,37.2,-30.8,12.3,-8.4,-22.6,0.380352184,0.150212104,0.446638386,-0.795770135
413,1036667,1708020,-0.699,-0.53,0.559,26,36.8,-31.1,12.3,-8.4,-22.6,0.379375591,0.150761437,0.446607868,-0.796136357
414,1038903,1708030,-0.695,-0.514,0.551,26.9,36.4,-31.4,12.4,-8.4,-19.2,0.37836848,0.15131077,0.446546831,-0.796563616
415,1042357,1708030,-0.695,-0.506,0.555,27.6,35.8,-31.5,12.4,-8.4,-19.2,0.377391888,0.151860103,0.446455275,-0.796960356
416,1044044,1708030,-0.691,-0.491,0.555,27.9,35.2,-31.6,12.4,-8.4,-19.2,0.376384777,0.152378918,0.44636372,-0.797387616
417,1047014,1708030,-0.695,-0.483,0.551,28,34.7,-31.6,12.4,-8.4,-19.2,0.375408185,0.152928251,0.446272164,-0.797784356
418,1050040,1708040,-0.702,-0.475,0.551,27.9,34.4,-31.7,12.9,-8.7,-19.4,0.374431593,0.153447066,0.446180609,-0.798211615
419,1051572,1708040,-0.702,-0.471,0.555,27.5,34.1,-31.7,12.9,-8.7,-19.4,0.373455,0.153935362,0.446058535,-0.798638874
420,1054079,1708040,-0.706,-0.463,0.559,26.9,33.6,-31.7,12.9,-8.7,-19.4,0.372478408,0.154454176,0.445997497,-0.799035615
421,1058354,1708040,-0.706,-0.463,0.559,26.2,33,-31.6,12.9,-8.7,-19.4,0.371501816,0.154911954,0.445905942,-0.799432356
422,1058880,1708050,-0.706,-0.463,0.559,26.2,33,-31.6,12.9,-8.7,-19.4,0.371501816,0.154911954,0.445905942,-0.799432356
423,1062096,1708050,-0.706,-0.463,0.559,26.2,33,-31.6,12.9,-8.7,-19.4,0.371501816,0.154911954,0.445905942,-0.799432356
424,1065086,1708050,-0.71,-0.451,0.567,23.5,31.6,-31.7,13.2,-8.2,-19.6,0.369273965,0.157383953,0.445295572,-0.800317392
425,1066563,1708050,-0.722,-0.447,0.567,22.7,31,-31.7,13.2,-8.2,-19.6,0.368358409,0.157811213,0.445265053,-0.800683615
426,1069578,1708060,-0.722,-0.443,0.575,22,30.5,-31.4,13.4,-8.4,-20.4,0.367442854,0.158207953,0.445234535,-0.801049837
427,1072572,1708060,-0.734,-0.435,0.571,21.4,29.9,-31.2,13.4,-8.4,-20.4,0.366527299,0.158604694,0.445204016,-0.801416059
428,1074037,1708060,-0.741,-0.43,0.576,20.8,29.2,-30.9,13.4,-8.4,-20.4,0.365611744,0.158970916,0.445173498,-0.801751762
429,1077081,1708060,-0.749,-0.43,0.572,20.5,28.4,-30.7,13.4,-8.4,-20.4,0.364726707,0.159337138,0.445142979,-0.802087466
430,1080105,1708070,-0.753,-0.422,0.576,20,27.5,-30.6,13.5,-8.8,-20.5,0.363872188,0.15970336,0.445112461,-0.802453688
431,1081612,1708070,-0.765,-0.414,0.58,19.5,26.6,-30.4,13.5,-8.8,-20.5,0.362987152,0.160008545,0.445081942,-0.802789392
432,1083959,1708070,-0.765,-0.41,0.584,18.7,25.4,-30.3,13.5,-8.8,-20.5,0.362163152,0.16031373,0.445081942,-0.803125095
433,1087552,1708070,-0.777,-0.406,0.592,17.9,24.3,-30.3,13.5,-8.8,-20.5,0.361339152,0.160588397,0.445051424,-0.80343028
434,1089074,1708080,-0.776,-0.39,0.604,17,23.2,-30.4,13.7,-8.4,-20,0.360515152,0.160832545,0.445051424,-0.803765984
435,1092135,1708080,-0.784,-0.374,0.6,15.9,22.2,-30.4,13.7,-8.4,-20,0.359691153,0.161046175,0.445051424,-0.804071169
436,1095079,1708080,-0.788,-0.366,0.596,14.5,21.2,-30.4,13.7,-8.4,-20,0.358897671,0.161259804,0.445081942,-0.804376354
437,1096542,1708080,-0.8,-0.347,0.596,13.1,20.1,-30.3,13.7,-8.4,-20,0.358134709,0.161412397,0.445112461,-0.804681539
438,1099554,1708090,-0.815,-0.334,0.601,11.8,19,-30.3,13.7,-8.6,-20,0.357371746,0.161534471,0.445142979,-0.804956206
439,1102602,1708090,-0.819,-0.326,0.597,10.5,18,-30.5,13.7,-8.6,-20,0.356608783,0.161656545,0.445204016,-0.805230873
440,1104161,1708090,-0.827,-0.318,0.597,9.2,17,-30.8,13.7,-8.6,-20,0.355876339,0.161717582,0.445295572,-0.805505539
441,1108759,1708090,-0.831,-0.314,0.593,7.8,16,-31.1,13.7,-8.6,-20,0.355143895,0.1617481,0.445387127,-0.805780206
442,1109241,1708100,-0.831,-0.314,0.593,7.8,16,-31.1,13.7,-8.6,-20,0.355143895,0.1617481,0.445387127,-0.805780206
443,1112430,1708100,-0.831,-0.314,0.593,7.8,16,-31.1,13.7,-8.6,-20,0.355143895,0.1617481,0.445387127,-0.805780206
444,1114711,1708100,-0.847,-0.302,0.582,3.6,12.4,-32.1,14.2,-8.7,-20,0.353770562,0.162877285,0.445112461,-0.80629902
445,1116980,1708100,-0.847,-0.31,0.598,2.6,11.2,-32.5,14.2,-8.7,-20,0.353068636,0.16278573,0.445265053,-0.806543168
446,1119085,1708110,-0.858,-0.306,0.606,1.9,10.3,-32.7,14.6,-8.3,-20,0.352397229,0.162663656,0.445417646,-0.806787317
447,1121482,1708110,-0.854,-0.31,0.613,1.2,9.4,-32.8,14.6,-8.3,-20,0.351725822,0.162511063,0.445600757,-0.807000946
448,1124037,1708110,-0.862,-0.31,0.61,0.8,8.6,-32.6,14.6,-8.3,-20,0.351054415,0.162327952,0.445753349,-0.807245094
449,1127417,1708110,-0.858,-0.31,0.625,0.3,7.7,-32.4,14.6,-8.3,-20,0.350413526,0.162175359,0.44593646,-0.807458724
450,1128927,1708120,-0.862,-0.31,0.633,-0.1,6.8,-31.9,13.7,-8.6,-19.5,0.349772637,0.161992248,0.446089053,-0.807672353
451,1131527,1708120,-0.862,-0.314,0.633,-0.6,6,-31.3,13.7,-8.6,-19.5,0.349162267,0.161778619,0.446272164,-0.807885983
452,1134908,1708120,-0.866,-0.302,0.641,-1.5,5.2,-30.7,13.7,-8.6,-19.5,0.348582415,0.161564989,0.446455275,-0.808099612
453,1136455,1708120,-0.878,-0.274,0.645,-2.6,4.4,-30.1,13.7,-8.6,-19.5,0.348033082,0.161320841,0.446638386,-0.808282723
454,1139034,1708130,-0.874,-0.286,0.649,-4,3.5,-29.4,14.7,-8.6,-19.8,0.347483749,0.161076693,0.446821497,-0.808465835
455,1142370,1708130,-0.886,-0.278,0.649,-5.5,2.6,-28.7,14.7,-8.6,-19.8,0.346964934,0.160802026,0.447065645,-0.808618427
456,1143989,1708130,-0.897,-0.254,0.653,-7.2,1.8,-27.8,14.7,-8.6,-19.8,0.346476638,0.160496841,0.447279275,-0.808740501
457,1146522,1708130,-0.905,-0.254,0.654,-8.8,0.9,-27,14.7,-8.6,-19.8,0.34601886,0.160191656,0.447553941,-0.808862575
458,1149929,1708140,-0.913,-0.238,0.662,-10.3,0,-25.9,14.9,-8.5,-19.7,0.345591601,0.159855953,0.447828608,-0.808954131
459,1151470,1708140,-0.924,-0.23,0.67,-11.9,-0.6,-24.7,14.9,-8.5,-19.7,0.345225379,0.159520249,0.448133793,-0.809015168
460,1154044,1708140,-0.932,-0.225,0.678,-13.7,-1.3,-23.1,14.9,-8.5,-19.7,0.344859157,0.159154027,0.448438978,-0.809076205
461,1157408,1708140,-0.956,-0.225,0.678,-15.4,-2,-21.5,14.9,-8.5,-19.7,0.344553972,0.158787805,0.448774682,-0.809076205
462,1159002,1708150,-0.956,-0.225,0.678,-15.4,-2,-21.5,14.9,-8.5,-19.7,0.344553972,0.158787805,0.448774682,-0.809076205
463,1162629,1708150,-0.976,-0.224,0.679,-19.4,-3.5,-18.3,14.8,-8.1,-19.6,0.344065676,0.158024842,0.449507126,-0.809045686
464,1164147,1708150,-0.996,-0.228,0.687,-21.6,-4.3,-16.5,14.8,-8.1,-19.6,0.343913083,0.157628101,0.449903867,-0.808954131
465,1166503,1708150,-1.004,-0.228,0.68,-23.7,-5.3,-14.7,14.8,-8.1,-19.6,0.343760491,0.157200842,0.450331126,-0.808862575
466,1170115,1708160,-1.024,-0.231,0.68,-25.9,-6.3,-12.8,15.1,-8,-19.5,0.343699454,0.156773583,0.450788903,-0.808709983
467,1171753,1708160,-1.036,-0.235,0.677,-28,-7.5,-11.1,15.1,-8,-19.5,0.343668935,0.156315806,0.4512772,-0.80855739
468,1174082,1708160,-1.059,-0.238,0.685,-30.1,-8.9,-9.5,15.1,-8,-19.5,0.343699454,0.155858028,0.451765496,-0.80834376
469,1177714,1708160,-1.075,-0.246,0.686,-32,-10.3,-7.9,15.1,-8,-19.5,0.343760491,0.155339213,0.45228431,-0.808130131
470,1179111,1708170,-1.083,-0.25,0.69,-33.9,-11.5,-6.4,13,-8.2,-19.6,0.343882565,0.154820399,0.452803125,-0.807885983
471,1182270,1708170,-1.091,-0.253,0.69,-35.5,-12.7,-4.9,13,-8.2,-19.6,0.344035157,0.154271065,0.453352458,-0.807611316
472,1184302,1708170,-1.107,-0.253,0.694,-37,-14,-3.6,13,-8.2,-19.6,0.344218268,0.153721732,0.45393231,-0.80733665
473,1186567,1708170,-1.115,-0.253,0.694,-38.1,-15.2,-2.3,13,-8.2,-19.6,0.344462416,0.153141881,0.454481643,-0.807000946
474,1188929,1708180,-1.115,-0.257,0.698,-39,-16.3,-1.1,16,-8,-20,0.344737083,0.152562029,0.455061495,-0.806695761
475,1191726,1708180,-1.123,-0.253,0.706,-39.6,-17.4,0,16,-8,-20,0.345042268,0.151951659,0.455610828,-0.806360057
476,1193992,1708180,-1.139,-0.233,0.703,-39.7,-18.5,0.7,16,-8,-20,0.345377972,0.151341288,0.45619068,-0.806024354
477,1198029,1708180,-1.143,-0.225,0.691,-39.4,-19.7,1.4,16,-8,-20,0.345744194,0.1507004,0.456709494,-0.805658132
478,1200248,1708190,-1.15,-0.209,0.684,-38.6,-21.1,2,15.9,-8,-20.1,0.346110416,0.150059511,0.457228309,-0.805352947
479,1202565,1708190,-1.158,-0.177,0.648,-37.6,-22.5,2.5,15.9,-8,-20.1,0.346507157,0.149388104,0.457716605,-0.805017243
480,1204383,1708190,-1.158,-0.154,0.629,-36.5,-24.2,2.8,15.9,-8,-20.1,0.346903897,0.148716697,0.458174383,-0.804712058
481,1206721,1708190,-1.161,-0.134,0.609,-35.1,-26,2.6,15.9,-8,-20.1,0.347331156,0.148014771,0.458571123,-0.804437391
482,1208937,1708200,-1.161,-0.134,0.609,-35.1,-26,2.6,15.9,-8,-20.1,0.347331156,0.148014771,0.458571123,-0.804437391
483,1211471,1708200,-1.165,-0.091,0.574,-31.7,-30.1,2.1,15.9,-8,-19.9,0.348216193,0.146549883,0.459273049,-0.803918577
484,1215478,1708200,-1.165,-0.091,0.566,-29.2,-32.2,2.1,15.9,-8,-19.9,0.348673971,0.14578692,0.459517197,-0.803704947
485,1216962,1708200,-1.173,-0.083,0.563,-26.2,-34.4,2.5,15.9,-8,-19.9,0.349131748,0.145023957,0.459730827,-0.803552355
486,1220555,1708210,-1.177,-0.075,0.559,-22.9,-36.3,3.5,15.4,-7.5,-20.1,0.349620045,0.144230476,0.459822382,-0.803399762
487,1222018,1708210,-1.196,-0.058,0.559,-19.7,-38,4.7,15.4,-7.5,-20.1,0.350169378,0.143467513,0.459883419,-0.803277688
488,1224787,1708210,-1.212,-0.042,0.552,-17,-39.5,6,15.4,-7.5,-20.1,0.350718711,0.14270455,0.459852901,-0.803186132
489,1226434,1708210,-1.224,-0.026,0.544,-15.2,-40.8,7,15.4,-7.5,-20.1,0.351298563,0.141941588,0.459791864,-0.803125095
490,1229391,1708220,-1.239,-0.002,0.549,-14.4,-41.9,7.6,13.8,-7.9,-20,0.351908933,0.141178625,0.459700308,-0.80303354
491,1232482,1708220,-1.263,0.025,0.553,-14.3,-42.9,7.7,13.8,-7.9,-20,0.352519303,0.140385144,0.459578234,-0.802972503
492,1234067,1708220,-1.274,0.045,0.549,-14.9,-43.8,7.7,13.8,-7.9,-20,0.353129673,0.139591662,0.45945616,-0.802880947
493,1237588,1708220,-1.282,0.06,0.557,-15.9,-44.8,7.6,13.8,-7.9,-20,0.353770562,0.138737144,0.459395123,-0.80281991
494,1238949,1708230,-1.305,0.096,0.558,-17.1,-45.9,7.8,13,-7.7,-20.4,0.354411451,0.137882626,0.459334086,-0.802728355
495,1242866,1708230,-1.309,0.108,0.566,-18.5,-47,8.2,13,-7.7,-20.4,0.355082858,0.136997589,0.459242531,-0.802606281
496,1244864,1708230,-1.313,0.116,0.566,-20,-48,8.8,13,-7.7,-20.4,0.355784783,0.136112552,0.459212012,-0.802484207
497,1246404,1708230,-1.32,0.12,0.574,-21.8,-49.1,9.5,13,-7.7,-20.4,0.356517228,0.135166478,0.459181494,-0.802331614
498,1249427,1708240,-1.32,0.116,0.593,-23.7,-50.3,10.4,11.5,-7.5,-20.3,0.357249672,0.134189886,0.459181494,-0.802148503
499,1252330,1708240,-1.324,0.113,0.601,-25.8,-51.5,11.5,11.5,-7.5,-20.3,0.358043153,0.133213294,0.459181494,-0.801965392
500,1254043,1708240,-1.321,0.097,0.613,-28,-52.7,12.7,11.5,-7.5,-20.3,0.358897671,0.132206183,0.459242531,-0.801721244
501,1257410,1708240,-1.313,0.081,0.632,-30.2,-54,14.3,11.5,-7.5,-20.3,0.35975219,0.131168554,0.459303568,-0.801477096
502,1259252,1708250,-1.313,0.081,0.632,-30.2,-54,14.3,11.5,-7.5,-20.3,0.35975219,0.131168554,0.459303568,-0.801477096
503,1261494,1708250,-1.306,0.022,0.66,-33.9,-56.4,18.2,10.2,-7.8,-20.5,0.361674856,0.129032258,0.45945616,-0.800866726
504,1264308,1708250,-1.306,0.006,0.664,-35.4,-57.6,20.2,10.2,-7.8,-20.5,0.362712485,0.12796411,0.459578234,-0.800500504
505,1267315,1708250,-1.295,-0.036,0.671,-37.1,-58.9,21.5,10.2,-7.8,-20.5,0.363750114,0.126834925,0.459700308,-0.800134281
506,1268995,1708260,-1.291,-0.06,0.683,-39.2,-60.2,22.2,9.4,-7.9,-20.7,0.364879299,0.125705741,0.459852901,-0.799707022
507,1272535,1708260,-1.287,-0.08,0.691,-41.2,-61.5,22.1,9.4,-7.9,-20.7,0.366008484,0.124515519,0.460005493,-0.799310282
508,1274172,1708260,-1.283,-0.088,0.687,-42.9,-62.4,21.5,9.4,-7.9,-20.7,0.36710715,0.123294778,0.460219123,-0.798852504
509,1276506,1708260,-1.264,-0.116,0.678,-44,-63.2,20.6,9.4,-7.9,-20.7,0.368236335,0.122074038,0.460402234,-0.798425245
510,1279194,1708270,-1.256,-0.136,0.671,-44.5,-63.7,19.5,13.5,-8.6,-20.6,0.369335002,0.120792261,0.460615864,-0.797997986
511,1282522,1708270,-1.249,-0.159,0.666,-44.2,-64.1,18.4,13.5,-8.6,-20.6,0.37040315,0.119510483,0.460829493,-0.797570727
512,1284779,1708270,-1.249,-0.171,0.67,-43,-64.5,17,13.5,-8.6,-20.6,0.371471297,0.118198187,0.461012604,-0.797143468
513,1286468,1708270,-1.222,-0.203,0.646,-40.7,-64.7,15.5,13.5,-8.6,-20.6,0.372478408,0.116885891,0.461165197,-0.796777245
514,1289090,1708280,-1.206,-0.215,0.646,-37.2,-64.9,14.1,10.3,-6.7,-21.3,0.373485519,0.115604114,0.461226234,-0.79647206
515,1291816,1708280,-1.206,-0.219,0.65,-32.5,-65.1,13,10.3,-6.7,-21.3,0.374462111,0.114352855,0.461226234,-0.796197394
516,1293984,1708280,-1.21,-0.215,0.65,-26.6,-65.2,12,10.3,-6.7,-21.3,0.375377667,0.113101596,0.461134678,-0.795983764
517,1297240,1708280,-1.222,-0.195,0.627,-20.4,-65.4,11.2,10.3,-6.7,-21.3,0.376293222,0.111911374,0.460921049,-0.79586169
518,1299330,1708290,-1.23,-0.179,0.604,-14.6,-65.2,9.8,10.3,-6.4,-21.1,0.37714774,0.110782189,0.460615864,-0.795770135
519,1301751,1708290,-1.222,-0.168,0.576,-10,-64.9,7.8,10.3,-6.4,-21.1,0.37797174,0.109653005,0.460249641,-0.795770135
520,1304042,1708290,-1.206,-0.133,0.521,-6.5,-64.4,5.2,10.3,-6.4,-21.1,0.378704184,0.108493301,0.459822382,-0.795800653
521,1306685,1708290,-1.19,-0.129,0.497,-3.3,-64.2,2.5,10.3,-6.4,-21.1,0.379375591,0.107394635,0.459334086,-0.795922727
522,1310757,1708300,-1.19,-0.129,0.497,-3.3,-64.2,2.5,10.3,-6.4,-21.1,0.379375591,0.107394635,0.459334086,-0.795922727
523,1312530,1708300,-1.186,-0.118,0.465,4.5,-64.6,-1.4,10.8,-6.7,-21.7,0.380657369,0.105197302,0.458174383,-0.796258431
524,1314630,1708300,-1.174,-0.134,0.45,9.9,-64.9,-2.8,10.8,-6.7,-21.7,0.38123722,0.104098636,0.457472457,-0.796533097
525,1317033,1708300,-1.162,-0.138,0.438,15.5,-65.1,-4.1,10.8,-6.7,-21.7,0.381786554,0.103061007,0.456678976,-0.796868801
526,1319070,1708310,-1.166,-0.126,0.465,20.5,-64.9,-5.4,11.7,-6.4,-21.4,0.382305368,0.102053896,0.455793939,-0.797265542
527,1321939,1708310,-1.106,-0.084,0.44,24.2,-65.2,-7.5,11.7,-6.4,-21.4,0.382763146,0.101046785,0.454847865,-0.797723319
528,1324186,1708310,-1.163,-0.154,0.441,25.9,-65.9,-10.8,11.7,-6.4,-21.4,0.383159886,0.100009156,0.453871273,-0.798211615
529,1327054,1708310,-1.15,-0.115,0.445,26,-66.3,-13.7,11.7,-6.4,-21.4,0.383526109,0.0989410077,0.452894681,-0.79873043
530,1329343,1708320,-1.166,-0.11,0.465,25.5,-65.8,-15.5,10.6,-8.5,-21.3,0.383861812,0.0978423414,0.451918088,-0.799249245
531,1331596,1708320,-1.154,-0.126,0.496,25.3,-64.4,-15.9,10.6,-8.5,-21.3,0.384166997,0.0967741935,0.450972015,-0.799768059
532,1334354,1708320,-1.138,-0.119,0.507,25.2,-63.4,-16.9,10.6,-8.5,-21.3,0.384441664,0.0957365642,0.450025941,-0.800286874
533,1336579,1708320,-1.122,-0.127,0.522,24.5,-62.6,-18.7,10.6,-8.5,-21.3,0.384655293,0.0946378979,0.449110385,-0.800805689
534,1340694,1708330,-1.114,-0.131,0.542,23.2,-62.1,-21.4,10,-7.3,-21.3,0.384838404,0.0935392315,0.448225349,-0.801355022
535,1342805,1708330,-1.099,-0.167,0.584,21.9,-61.6,-24.3,10,-7.3,-21.3,0.384990997,0.0923795282,0.44737083,-0.801904355
536,1345004,1708330,-1.103,-0.182,0.592,20.6,-61.1,-27.2,10,-7.3,-21.3,0.385052034,0.0912503433,0.446546831,-0.802453688
537,1346609,1708330,-1.095,-0.21,0.596,19.5,-60.7,-29.8,10,-7.3,-21.3,0.385082553,0.0900601215,0.445753349,-0.803003021
538,1348982,1708340,-1.099,-0.23,0.604,18.5,-60.3,-32.1,9.7,-7.7,-21.7,0.385082553,0.0888393811,0.444990387,-0.803582873
539,1352502,1708340,-1.092,-0.269,0.612,17.7,-60,-34.3,9.7,-7.7,-21.7,0.385021516,0.0876186407,0.444257942,-0.804162725
540,1354030,1708340,-1.092,-0.289,0.616,16.8,-59.4,-36.7,9.7,-7.7,-21.7,0.38492996,0.0863673818,0.443525498,-0.804742576
541,1357031,1708340,-1.092,-0.304,0.628,15.6,-58.6,-39.5,9.7,-7.7,-21.7,0.384777367,0.0850550859,0.442823572,-0.805322428
542,1360031,1708350,-1.092,-0.304,0.628,15.6,-58.6,-39.5,9.7,-7.7,-21.7,0.384777367,0.0850550859,0.442823572,-0.805322428
543,1361521,1708350,-1.061,-0.348,0.666,14.2,-56,-46.4,9.9,-7.8,-21.4,0.384228034,0.0824610126,0.441541795,-0.806573687
544,1364525,1708350,-1.049,-0.353,0.666,14.3,-54.5,-50.2,9.9,-7.8,-21.4,0.383861812,0.0811487167,0.440900906,-0.807245094
545,1367502,1708350,-1.041,-0.349,0.661,15.5,-52.7,-53.9,9.9,-7.8,-21.4,0.383373516,0.0798059023,0.440290536,-0.807916501
546,1369000,1708360,-1.029,-0.345,0.665,17.3,-51,-57.4,9.5,-8.7,-21.3,0.382824183,0.0785241249,0.439649648,-0.808648946
547,1372033,1708360,-1.006,-0.334,0.641,19.5,-49.4,-60.7,9.5,-8.7,-21.3,0.382183294,0.077211829,0.439008759,-0.809442427
548,1374996,1708360,-0.994,-0.326,0.637,21.5,-47.8,-64.1,9.5,-8.7,-21.3,0.381481368,0.0759300516,0.438337352,-0.810266427
549,1376524,1708360,-0.985,-0.319,0.629,23.5,-46.1,-67.5,9.5,-8.7,-21.3,0.380687887,0.0746787927,0.437635426,-0.811120945
550,1378964,1708370,-0.954,-0.3,0.62,25,-44.3,-71,9.7,-7,-20.8,0.37980285,0.0734275338,0.4369335,-0.812005982
551,1381539,1708370,-0.942,-0.292,0.612,26.4,-42.3,-74.8,9.7,-7,-20.8,0.378856777,0.0721762749,0.436231574,-0.812952055
552,1384700,1708370,-0.922,-0.285,0.615,27.4,-40,-79.1,9.7,-7,-20.8,0.377788629,0.0708944975,0.435560167,-0.813928648
553,1386396,1708370,-0.902,-0.285,0.615,28.3,-37.8,-83.8,9.7,-7,-20.8,0.376598407,0.0697042756,0.434858242,-0.814966277
554,1389127,1708380,-0.862,-0.278,0.602,29.4,-35.7,-88.8,9.3,-10,-21.1,0.37531663,0.0684530168,0.434186834,-0.816003906
555,1392148,1708380,-0.838,-0.275,0.574,30.5,-33.6,-93.9,9.3,-10,-21.1,0.373912778,0.0672322764,0.433515427,-0.817133091
556,1395272,1708380,-0.822,-0.264,0.558,31.6,-31.8,-99.1,9.3,-10,-21.1,0.372417371,0.0659810175,0.432813501,-0.818262276
557,1396659,1708380,-0.81,-0.252,0.53,32.5,-30.5,-104.6,9.3,-10,-21.1,0.370769372,0.0646992401,0.432111576,-0.819483016
558,1399880,1708390,-0.786,-0.233,0.486,33.4,-29.7,-110.6,9.4,-10.6,-20.8,0.369029817,0.0634174627,0.431470687,-0.820734275
559,1401460,1708390,-0.763,-0.226,0.478,34.5,-29.2,-116.9,9.4,-10.6,-20.8,0.367168188,0.0620441298,0.430768761,-0.822016053
560,1404170,1708390,-0.758,-0.21,0.474,36.2,-28.9,-123.3,9.4,-10.6,-20.8,0.365184484,0.0606707968,0.430036317,-0.823389386
561,1408123,1708390,-0.742,-0.183,0.473,39.1,-28.9,-129.5,9.4,-10.6,-20.8,0.363078707,0.0592364269,0.429273354,-0.824823756
562,1410301,1708400,-0.742,-0.183,0.473,39.1,-28.9,-129.5,9.4,-10.6,-20.8,0.363078707,0.0592364269,0.429273354,-0.824823756
563,1411685,1708400,-0.706,-0.164,0.472,48.1,-29.5,-140.7,9.5,-10.6,-20.7,0.358531449,0.0563371685,0.427533799,-0.827936644
564,1413958,1708400,-0.698,-0.16,0.472,53.6,-30.6,-145.8,9.5,-10.6,-20.7,0.356089969,0.0548417615,0.42649617,-0.829615162
565,1417685,1708400,-0.663,-0.165,0.448,59.7,-32.2,-150.5,9.5,-10.6,-20.7,0.353617969,0.0533158361,0.425336467,-0.831354717
566,1419278,1708410,-0.647,-0.185,0.428,66.6,-34.1,-154.7,9.6,-10.5,-20.8,0.351023896,0.0517593921,0.424054689,-0.833216346
567,1421723,1708410,-0.624,-0.205,0.404,74.3,-36.4,-158.5,9.6,-10.5,-20.8,0.348399304,0.0502029481,0.422589801,-0.835139012
568,1423891,1708410,-0.589,-0.238,0.383,82.9,-38.8,-161.8,9.6,-10.5,-20.8,0.345713675,0.0486159856,0.42097232,-0.837183752
569,1426853,1708410,-0.502,-0.306,0.381,92.4,-41.3,-164.9,9.6,-10.5,-20.8,0.342997528,0.0470595416,0.419141209,-0.839289529
570,1429116,1708420,-0.455,-0.343,0.404,102.5,-43.7,-168.1,10.2,-7.5,-19.2,0.340189825,0.0455030976,0.417096469,-0.841547899
571,1431653,1708420,-0.412,-0.379,0.446,113.1,-45.5,-171.4,10.2,-7.5,-19.2,0.337351604,0.0439466536,0.414838099,-0.843867306
572,1434221,1708420,-0.372,-0.411,0.507,124,-46.1,-174.8,10.2,-7.5,-19.2,0.334421827,0.0424207282,0.412396619,-0.846308786
573,1438275,1708420,-0.277,-0.468,0.669,134.4,-45.6,-178.4,10.2,-7.5,-19.2,0.331400494,0.0409558397,0.409741508,-0.848872341
574,1440537,1708430,-0.237,-0.489,0.754,143.6,-44,-182.2,10.4,-9.2,-21.9,0.328287606,0.0395519883,0.406903287,-0.851496933
575,1442833,1708430,-0.181,-0.502,0.846,150.5,-41.5,-185.9,10.4,-9.2,-21.9,0.325083163,0.0382091739,0.40397351,-0.854182562
576,1445021,1708430,-0.089,-0.512,1,154.4,-38.3,-189.7,10.4,-9.2,-21.9,0.321756645,0.036896878,0.400952177,-0.856898709
577,1447389,1708430,-0.033,-0.505,1.088,154.5,-34.7,-193.7,10.4,-9.2,-21.9,0.318308054,0.0356456191,0.397991882,-0.859645375
578,1449482,1708440,0.034,-0.491,1.16,150.9,-30.6,-197.9,10.7,-8.8,-21.7,0.314737388,0.0343943602,0.395092624,-0.862331004
579,1451621,1708440,0.102,-0.469,1.217,143.3,-26.5,-202.7,10.7,-8.8,-21.7,0.31101413,0.0331431013,0.392345958,-0.864955596
580,1454033,1708440,0.266,-0.394,1.291,131.7,-22.1,-208.4,10.7,-8.8,-21.7,0.307199316,0.0318308054,0.389873959,-0.86751915
581,1458265,1708440,0.347,-0.336,1.3,116.2,-17.6,-215.3,10.7,-8.8,-21.7,0.303170873,0.0304574725,0.387676626,-0.869930113
582,1460404,1708450,0.347,-0.336,1.3,116.2,-17.6,-215.3,10.7,-8.8,-21.7,0.303170873,0.0304574725,0.387676626,-0.869930113
583,1462702,1708450,0.499,-0.226,1.249,74.8,-7.7,-233.3,11.4,-8.1,-21.4,0.294534135,0.027314066,0.384563738,-0.874385815
584,1464976,1708450,0.639,-0.123,1.147,50.7,-2.3,-244,11.4,-8.1,-21.4,0.289864803,0.0255134739,0.383739738,-0.876369518
585,1467199,1708450,0.703,-0.085,1.098,25.9,3.2,-255.1,11.4,-8.1,-21.4,0.284951323,0.0236518448,0.383404035,-0.87817011
586,1469441,1708460,0.766,-0.063,1.042,1.7,9,-265.9,12.1,-7.9,-21.2,0.279763176,0.0216071047,0.383556627,-0.879848628
587,1471755,1708460,0.822,-0.053,1.001,-20.5,14.8,-275.9,12.1,-7.9,-21.2,0.2743614,0.019470809,0.384166997,-0.881313517
588,1474017,1708460,0.768,-0.214,0.39,-40.5,20.4,-284.9,12.1,-7.9,-21.2,0.268715476,0.0172124393,0.385174108,-0.882656331
589,1476946,1708460,0.479,-1.126,-2.126,-57.3,24.9,-292.8,12.1,-7.9,-21.2,0.262886441,0.0148930326,0.386516923,-0.883877071
590,1479044,1708470,0.659,-2.666,-4.017,-59.7,17.9,-298.4,13.2,-8.5,-19.6,0.256996368,0.0123905148,0.387859737,-0.885036775
591,1482073,1708470,1.794,-8.136,-4.14,1.6,-21.8,-292.1,13.2,-8.5,-19.6,0.251533555,0.00949125645,0.387768181,-0.886684774
592,1484283,1708470,2.346,-8.137,-1.854,205.5,-100.7,-249.1,13.2,-8.5,-19.6,0.247505112,0.00656147954,0.383281961,-0.889797662
593,1487175,1708470,7.443,-8.263,-2.892,533.7,-201.1,-130.3,13.2,-8.5,-19.6,0.246559038,0.00445570238,0.371837519,-0.894924772
594,1490065,1708480,7.951,-8.277,-4.39,773.8,-320.9,40.3,12.9,-9.7,-18.8,0.249855037,0.00268562883,0.354930265,-0.900845363
595,1492479,1708480,8.016,-5.196,-1.042,716,-432.5,191.9,12.9,-9.7,-18.8,0.256874294,-0.000396740623,0.338419752,-0.905240028
596,1495394,1708480,8.148,2.041,2.842,366.5,-469.6,236.1,12.9,-9.7,-18.8,0.264992218,-0.00589007233,0.328531755,-0.906521805
597,1497443,1708480,8.188,5.178,1.519,-34.2,-351.4,116.4,12.9,-9.7,-18.8,0.269783624,-0.0121768853,0.32718894,-0.905514695
598,1499064,1708490,7.482,6.507,1.483,-264.8,-112.2,-163.3,10.9,-11.1,-19.4,0.267281106,-0.0170903653,0.331705679,-0.904538102
599,1501519,1708490,2.261,7.958,3.755,-308.1,156.7,-514.4,10.9,-11.1,-19.4,0.255867183,-0.0195318461,0.338480789,-0.905301065
600,1504073,1708490,0.911,7.985,3.6,-227.7,365.8,-725.5,10.9,-11.1,-19.4,0.238685263,-0.0189214759,0.344645528,-0.90765099
601,1506496,1708490,0.016,7.996,2.569,-127,473,-664.1,10.9,-11.1,-19.4,0.221900082,-0.0152592547,0.349284341,-0.910214545
602,1509044,1708500,0.016,7.996,2.569,-127,473,-664.1,10.9,-11.1,-19.4,0.221900082,-0.0152592547,0.349284341,-0.910214545
603,1512005,1708500,-2.764,5.022,0.16,-15.1,352.1,-0.6,13.5,-8.5,-17.3,0.208471938,-0.00216681417,0.354197821,-0.911618397
604,1514344,1708500,-3.501,3.788,-0.499,-23.6,228,264.5,13.5,-8.5,-17.3,0.211981567,0.00427259133,0.355723746,-0.910214545
605,1516627,1708500,-3.921,2.697,-0.875,-46.7,139.9,381.6,13.5,-8.5,-17.3,0.218451491,0.00979644154,0.357249672,-0.908017212
606,1518947,1708510,-4.194,0.95,-0.941,-65.4,94.4,379.9,13.6,-9.6,-16.1,0.225257118,0.0143131809,0.358897671,-0.905636769
607,1521571,1708510,-3.692,-0.236,-1.65,-67.5,71.5,319.8,13.6,-9.6,-16.1,0.231025117,0.0178838466,0.360484634,-0.903500473
608,1523940,1708510,-2.557,-0.954,-1.943,-41.9,47.3,246.4,13.6,-9.6,-16.1,0.235541856,0.0205084384,0.361430708,-0.901882992
609,1527399,1708510,-1.612,-1.262,-1.015,27,14.2,184.7,13.6,-9.6,-16.1,0.239051485,0.0224311045,0.360881375,-0.901150548
610,1529666,1708520,-0.862,-4.641,0.38,131.4,-19,151.9,14.1,-10,-20.3,0.242103336,0.0239265114,0.358134709,-0.901394696
611,1532221,1708520,0.07,-3.793,1.009,223.8,-37.3,160.4,14.1,-10,-20.3,0.245429853,0.025635548,0.353434858,-0.902310251
612,1534016,1708520,0.045,-4.037,0.792,258.1,-37.3,181.7,14.1,-10,-20.3,0.249153111,0.0276802881,0.348033082,-0.903317362
613,1537353,1708520,0.037,-3.941,1.175,222.8,-24.4,181.1,14.1,-10,-20.3,0.252754295,0.0297860652,0.343394269,-0.904019288
614,1539402,1708530,-0.438,-3.136,1.833,153.7,-6.4,135.1,13.6,-10.4,-17,0.255378887,0.0315256203,0.340250862,-0.904416028
615,1541559,1708530,-0.813,-2.522,2.006,86.7,12,66.7,13.6,-10.4,-17,0.256538591,0.0327463607,0.338541826,-0.904690695
616,1544854,1708530,-1.078,-1.953,2.089,44.6,26.5,3.7,13.6,-10.4,-17,0.256385998,0.0335398419,0.337809381,-0.904965361
617,1546604,1708530,-1.319,-1.044,1.995,31.8,33.6,-35.7,13.6,-10.4,-17,0.255409406,0.0341196936,0.337412641,-0.905392621
618,1550070,1708540,-1.315,-0.761,1.928,39.2,31.1,-50,13.8,-10.7,-17.1,0.254158147,0.0345774712,0.336832789,-0.905911435
619,1551566,1708540,-1.249,-0.582,1.89,54.3,20.4,-48.3,13.8,-10.7,-17.1,0.253028962,0.0349436934,0.335917234,-0.906582842
620,1554888,1708540,-1.132,-0.518,1.903,68.3,6.7,-41.5,13.8,-10.7,-17.1,0.252082888,0.0351573229,0.334635456,-0.907284768
621,1556418,1708540,-0.971,-0.612,1.899,76.1,-3.7,-35.4,13.8,-10.7,-17.1,0.251350444,0.0351878414,0.333140049,-0.908047731
622,1559554,1708550,-0.971,-0.612,1.899,76.1,-3.7,-35.4,13.8,-10.7,-17.1,0.251350444,0.0351878414,0.333140049,-0.908047731
623,1561398,1708550,-0.716,-0.991,1.686,64.7,-6,-24.7,13.9,-11.1,-17.5,0.250251778,0.0353099155,0.330332347,-0.909360027
624,1564320,1708550,-0.553,-1.208,1.569,46.8,-0.7,-17.7,13.9,-11.1,-17.5,0.249885556,0.0354319895,0.329416791,-0.909817804
625,1567412,1708550,-0.27,-1.596,1.383,26,5.2,-10.8,13.9,-11.1,-17.5,0.249610889,0.0356151006,0.328928495,-0.910061953
626,1569020,1708560,-0.174,-1.732,1.33,7.2,10.4,-6,14,-11.1,-17.9,0.249397259,0.0357982116,0.32883694,-0.91012299
627,1571569,1708560,-0.103,-1.792,1.305,-5.8,14.3,-3.7,14,-11.1,-17.9,0.249214148,0.0360423597,0.329050569,-0.910092471
628,1574944,1708560,-0.028,-1.766,1.264,-12.8,17.3,-3.2,14,-11.1,-17.9,0.249061556,0.0362865078,0.329386273,-0.910000916
629,1576532,1708560,0.09,-1.502,1.123,-16.4,19.7,-3.5,14,-11.1,-17.9,0.248847926,0.0365611744,0.32984405,-0.909878842
630,1579115,1708570,0.136,-1.283,1.023,-20.7,21.7,-5.1,13.8,-11.6,-18.1,0.248603778,0.0368358409,0.330362865,-0.909756767
631,1582437,1708570,0.167,-1.04,0.924,-28.1,23.5,-8,13.8,-11.6,-18.1,0.248268075,0.0371105075,0.331064791,-0.909573656
632,1584064,1708570,0.122,-0.588,0.764,-38,25.8,-12.3,13.8,-11.6,-18.1,0.247901852,0.0373241371,0.331949828,-0.909329508
633,1586693,1708570,0.08,-0.422,0.718,-47.9,28.6,-17.3,13.8,-11.6,-18.1,0.247383038,0.0375072481,0.333079012,-0.909054842
634,1590793,1708580,0.018,-0.314,0.68,-54.9,31.6,-21.9,13.7,-11,-17.7,0.246772668,0.0376293222,0.33436079,-0.908749657
635,1591496,1708580,-0.04,-0.262,0.646,-57.6,33.8,-24.9,13.7,-11,-17.7,0.246070742,0.0378429518,0.335703604,-0.908444472
636,1594262,1708580,-0.14,-0.322,0.629,-56.7,34.7,-25.2,13.7,-11,-17.7,0.245338298,0.0380565813,0.337046419,-0.908139286
637,1596432,1708580,-0.165,-0.408,0.63,-53.7,34,-22.8,13.7,-11,-17.7,0.244697409,0.0382702109,0.338297678,-0.907834101
638,1600534,1708590,-0.191,-0.522,0.643,-50.1,32.1,-18.4,14.2,-10.7,-18.2,0.244148076,0.038514359,0.339487899,-0.907528916
639,1602720,1708590,-0.2,-0.631,0.667,-47,29.3,-13.8,14.2,-10.7,-18.2,0.243690298,0.0387279885,0.340586566,-0.907223731
640,1604953,1708590,-0.207,-0.82,0.726,-44.6,26.4,-10.3,14.2,-10.7,-18.2,0.243324076,0.0389416181,0.341624195,-0.906918546
641,1606521,1708590,-0.203,-0.867,0.758,-43,23.5,-8.9,14.2,-10.7,-18.2,0.243018891,0.0390942106,0.342600787,-0.90664388
642,1609130,1708600,-0.203,-0.867,0.758,-43,23.5,-8.9,14.2,-10.7,-18.2,0.243018891,0.0390942106,0.342600787,-0.90664388
643,1612675,1708600,-0.198,-0.82,0.781,-41.3,18.3,-11.5,14.3,-10.6,-18.4,0.242378002,0.0392773217,0.344462416,-0.906094546
644,1614966,1708600,-0.195,-0.612,0.757,-41.1,15.8,-14.1,14.3,-10.6,-18.4,0.24201178,0.0392773217,0.345377972,-0.905850398
645,1616509,1708600,-0.197,-0.478,0.737,-41.4,13.1,-17.1,14.3,-10.6,-18.4,0.24161504,0.0391857662,0.346293527,-0.90560625
646,1619097,1708610,-0.204,-0.352,0.717,-41.7,10.3,-20.2,14.2,-10.7,-18.1,0.241157262,0.0390331736,0.347178564,-0.905392621
647,1621427,1708610,-0.232,-0.155,0.702,-41.4,7.6,-22.9,14.2,-10.7,-18.1,0.240699484,0.0387890255,0.348063601,-0.905178991
648,1624827,1708610,-0.236,-0.112,0.69,-40,4.9,-24.8,14.2,-10.7,-18.1,0.240211188,0.0384838404,0.3488876,-0.905026399
649,1626569,1708610,-0.244,-0.104,0.667,-37.4,2,-25.7,14.2,-10.7,-18.1,0.239692373,0.0381176183,0.349681082,-0.904873806
650,1629463,1708620,-0.248,-0.111,0.655,-33.9,-1.2,-25.4,14,-10.5,-17.8,0.239234596,0.0377208777,0.350352489,-0.904721213
651,1632447,1708620,-0.249,-0.221,0.671,-29.7,-4.7,-24,14,-10.5,-17.8,0.238837855,0.0372936186,0.35093234,-0.904629658
652,1634690,1708620,-0.251,-0.304,0.695,-24.9,-8,-21.8,14,-10.5,-17.8,0.238471633,0.0368358409,0.351390118,-0.904568621
653,1636768,1708620,-0.26,-0.39,0.723,-19.8,-11,-19.3,14,-10.5,-17.8,0.238196966,0.0363780633,0.35175634,-0.904538102
654,1639037,1708630,-0.265,-0.476,0.747,-14.7,-13.5,-17.1,15.4,-10.2,-17.7,0.237983337,0.0358897671,0.352000488,-0.904507584
655,1641392,1708630,-0.271,-0.626,0.778,-9.9,-15.8,-15.7,15.4,-10.2,-17.7,0.237800226,0.035401471,0.352122562,-0.904538102
656,1643934,1708630,-0.26,-0.677,0.786,-5.8,-18.1,-15.1,15.4,-10.2,-17.7,0.237647633,0.0349131748,0.352153081,-0.904568621
657,1648166,1708630,-0.24,-0.705,0.805,-2.4,-20.2,-15,15.4,-10.2,-17.7,0.237495041,0.0343638417,0.352092044,-0.904660176
658,1650343,1708640,-0.149,-0.715,0.826,0.1,-22.4,-15.3,15.3,-10.2,-18.1,0.237372967,0.0338145085,0.352000488,-0.904751732
659,1652576,1708640,-0.109,-0.692,0.833,1.9,-24.2,-15.5,15.3,-10.2,-18.1,0.237250893,0.0332346568,0.351847896,-0.904873806
660,1654892,1708640,-0.053,-0.67,0.835,3.1,-25.8,-15.7,15.3,-10.2,-18.1,0.237128819,0.0326242866,0.351664785,-0.90499588
661,1657163,1708640,-0.009,-0.635,0.853,4.1,-27,-16,15.3,-10.2,-18.1,0.237006745,0.0319833979,0.351451155,-0.905117954
662,1659296,1708650,-0.009,-0.635,0.853,4.1,-27,-16,15.3,-10.2,-18.1,0.237006745,0.0319833979,0.351451155,-0.905117954
663,1661594,1708650,0.064,-0.515,0.871,5.3,-28.1,-16.9,15.4,-9.7,-17.9,0.236793115,0.0306405835,0.350962859,-0.905392621
664,1664322,1708650,0.068,-0.488,0.863,5.4,-28.1,-17.9,15.4,-9.7,-17.9,0.236640522,0.0299996948,0.350749229,-0.905545213
665,1666450,1708650,0.045,-0.456,0.859,5,-27.5,-19.3,15.4,-9.7,-17.9,0.236457411,0.0292977691,0.350505081,-0.905728324
666,1670706,1708660,-0.01,-0.443,0.841,4.4,-26.8,-21,15.3,-10.5,-18.1,0.236243782,0.0286568804,0.350291452,-0.905880917
667,1671482,1708660,-0.034,-0.454,0.842,3.7,-25.9,-22.9,15.3,-10.5,-18.1,0.235999634,0.0280159917,0.350077822,-0.906033509
668,1674025,1708660,-0.066,-0.477,0.835,3.3,-25.1,-24.8,15.3,-10.5,-18.1,0.235694449,0.0273445845,0.34992523,-0.90621662
669,1677344,1708660,-0.09,-0.516,0.816,3.3,-24.4,-26.3,15.3,-10.5,-18.1,0.235358745,0.0266731773,0.349742119,-0.906369213
670,1678938,1708670,-0.12,-0.602,0.786,3.5,-24,-27.5,12.9,-10.4,-18.1,0.234992523,0.0260017701,0.349559008,-0.906552324
671,1681675,1708670,-0.128,-0.645,0.771,3.9,-23.7,-28.1,12.9,-10.4,-18.1,0.234595782,0.0253303629,0.349375896,-0.906765954
672,1684973,1708670,-0.129,-0.692,0.759,4.2,-23.5,-28.6,12.9,-10.4,-18.1,0.23422956,0.0246589557,0.349192785,-0.906949065
673,1686481,1708670,-0.11,-0.763,0.732,4.4,-23.3,-28.9,12.9,-10.4,-18.1,0.23383282,0.024018067,0.349009674,-0.907132176
674,1689101,1708680,-0.087,-0.791,0.723,4.5,-23.2,-29.3,16.3,-9.7,-18.2,0.233436079,0.0233161412,0.348796045,-0.907345805
675,1692440,1708680,-0.068,-0.811,0.719,4.6,-22.9,-29.5,16.3,-9.7,-18.2,0.23300882,0.0227057711,0.348612934,-0.907528916
676,1693941,1708680,-0.052,-0.823,0.718,4.6,-22.6,-29.6,16.3,-9.7,-18.2,0.232581561,0.0220343638,0.348429823,-0.907742546
677,1696974,1708680,-0.017,-0.832,0.671,4.5,-22.1,-29.6,16.3,-9.7,-18.2,0.23218482,0.0213629566,0.348246712,-0.907925657
678,1699246,1708690,0.006,-0.829,0.635,4.6,-21.7,-29.7,16,-9.8,-18.3,0.231757561,0.0207525864,0.348033082,-0.908108768
679,1701477,1708690,0.026,-0.821,0.615,5.1,-21.4,-30.2,16,-9.8,-18.3,0.231299783,0.0201422163,0.347849971,-0.908322398
680,1704532,1708690,0.042,-0.798,0.622,6.2,-21.5,-30.9,16,-9.8,-18.3,0.230842006,0.0195013276,0.347636341,-0.908536027
681,1706458,1708690,0.071,-0.728,0.613,7.8,-21.9,-32,16,-9.8,-18.3,0.230384228,0.0188604389,0.347361675,-0.908780175
682,1709903,1708700,0.071,-0.728,0.613,7.8,-21.9,-32,16,-9.8,-18.3,0.230384228,0.0188604389,0.347361675,-0.908780175
683,1711682,1708700,0.084,-0.638,0.609,10.2,-22.8,-34.1,16.7,-9.6,-18.4,0.229163488,0.0170293283,0.346934416,-0.909268471
684,1714993,1708700,0.085,-0.591,0.605,10.2,-23,-34.7,16.7,-9.6,-18.4,0.228644673,0.0163579211,0.346629231,-0.909543138
685,1717173,1708700,0.086,-0.512,0.632,9.9,-23.3,-34.8,16.7,-9.6,-18.4,0.228125858,0.0156254769,0.346354564,-0.909787286
686,1719299,1708710,0.087,-0.489,0.655,9.8,-23.6,-34.5,16.4,-9.6,-18.3,0.227607044,0.0149845882,0.346049379,-0.910031434
687,1722468,1708710,0.087,-0.469,0.686,10.6,-24.1,-33.9,16.4,-9.6,-18.3,0.227118748,0.0143131809,0.345713675,-0.910306101
688,1724073,1708710,0.123,-0.462,0.732,12.2,-24.6,-33.2,16.4,-9.6,-18.3,0.226630451,0.0136112552,0.345377972,-0.910550249
689,1726779,1708710,0.163,-0.478,0.77,14.4,-24.9,-32.5,16.4,-9.6,-18.3,0.226172674,0.0129703665,0.344950713,-0.910824915
690,1729074,1708720,0.187,-0.495,0.832,17.2,-25,-31.8,14.5,-9.9,-18.5,0.225745415,0.0122989593,0.344523453,-0.9111301
691,1733140,1708720,0.191,-0.499,0.879,21.2,-24.6,-31.2,14.5,-9.9,-18.5,0.225287637,0.0116885891,0.34397412,-0.911465804
692,1735378,1708720,0.216,-0.436,0.902,26.9,-23.8,-31.1,14.5,-9.9,-18.5,0.224829859,0.0111087374,0.343333232,-0.911801508
693,1737594,1708720,0.252,-0.398,0.897,33.6,-22.8,-31.9,14.5,-9.9,-18.5,0.224372082,0.0105899228,0.34253975,-0.912228767
694,1739949,1708730,0.289,-0.34,0.884,40,-22.2,-33.9,13.7,-10.1,-18.3,0.223853267,0.0100711081,0.341654714,-0.912686544
695,1742164,1708730,0.337,-0.258,0.851,44.6,-22,-36.9,13.7,-10.1,-18.3,0.223273415,0.00958281198,0.340678121,-0.913205359
696,1744655,1708730,0.474,-0.144,0.749,46.4,-22.2,-39.5,13.7,-10.1,-18.3,0.222632527,0.00906399731,0.339640492,-0.913754692
697,1746936,1708730,0.573,-0.146,0.743,45.3,-22.2,-40.7,13.7,-10.1,-18.3,0.221991638,0.00854518265,0.338633381,-0.914304025
698,1749325,1708740,0.635,-0.21,0.749,41.3,-21.2,-40.2,12.9,-9.7,-18.1,0.221320231,0.00802636799,0.337717826,-0.914792322
699,1751620,1708740,0.646,-0.23,0.659,35,-17.4,-39,12.9,-9.7,-18.1,0.220679342,0.00756859035,0.336924345,-0.915250099
700,1754300,1708740,0.665,-0.38,0.819,24.9,-8.1,-38.3,12.9,-9.7,-18.1,0.219946898,0.00723288675,0.33640553,-0.915616321
701,1757536,1708740,0.742,-0.381,1.032,8.3,6.9,-38.8,12.9,-9.7,-18.1,0.219122898,0.00714133122,0.336283456,-0.915860469
702,1760223,1708750,0.742,-0.381,1.032,8.3,6.9,-38.8,12.9,-9.7,-18.1,0.219122898,0.00714133122,0.336283456,-0.915860469
703,1761813,1708750,0.745,-0.606,0.837,-19.3,30.3,-39.2,12.1,-10.4,-18.1,0.216864528,0.00650044252,0.336558123,-0.916287729
704,1763984,1708750,0.744,-0.684,0.814,-12.2,25.7,-33.9,12.1,-10.4,-18.1,0.21601001,0.00671407208,0.336954863,-0.916348766
705,1766632,1708750,0.771,-0.748,0.825,4.4,14,-23.6,12.1,-10.4,-18.1,0.215430158,0.00683614612,0.336924345,-0.916501358
706,1770849,1708760,0.786,-0.807,0.833,18,4.4,-11.1,11.3,-10.2,-18.2,0.21518601,0.00692770165,0.336588641,-0.916684469
707,1773140,1708760,0.808,-0.918,0.836,23.6,0.5,-0.2,11.3,-10.2,-18.2,0.215155492,0.00704977569,0.336100345,-0.91686758
708,1775269,1708760,0.819,-0.957,0.828,21.7,1.9,7.6,11.3,-10.2,-18.2,0.215308084,0.00723288675,0.335673086,-0.916989654
709,1776826,1708760,0.83,-0.981,0.805,14.9,6.2,13.6,11.3,-10.2,-18.2,0.215521714,0.00753807184,0.335398419,-0.917020173
710,1779130,1708770,0.838,-1.001,0.777,5.4,11.2,18.5,16.1,-11.3,-18.3,0.215826899,0.00793481246,0.335367901,-0.916989654
711,1781704,1708770,0.842,-1.001,0.738,-4.8,16.1,23.1,16.1,-11.3,-18.3,0.216162603,0.00839259011,0.335520493,-0.916837062
712,1785541,1708770,0.838,-0.993,0.711,-14.5,20.3,27.7,16.1,-11.3,-18.3,0.216559343,0.00894192328,0.335917234,-0.916592914
713,1787753,1708770,0.826,-0.989,0.692,-22.8,24,32.4,16.1,-11.3,-18.3,0.217017121,0.00955229347,0.336466567,-0.91625721
714,1790048,1708780,0.814,-0.977,0.664,-29.4,27.2,37.2,12.8,-8.9,-18,0.217596973,0.0102237007,0.337168493,-0.915860469
715,1791567,1708780,0.798,-0.973,0.645,-34.7,29.9,42,12.8,-8.9,-18,0.218207343,0.0109561449,0.337992492,-0.915402692
716,1794077,1708780,0.79,-0.972,0.626,-38.8,32.4,46.7,12.8,-8.9,-18,0.218909268,0.0117801447,0.338938566,-0.914883877
717,1797564,1708780,0.774,-0.988,0.603,-41.7,34.5,51.4,12.8,-8.9,-18,0.21970275,0.0126346629,0.339915159,-0.914334544
718,1799117,1708790,0.745,-1.023,0.581,-43.5,36.2,56,13.6,-8.6,-18.1,0.220557268,0.0135807367,0.340922269,-0.913724174
719,1801498,1708790,0.737,-1.042,0.565,-44.2,37.5,60.4,13.6,-8.6,-18.1,0.221503342,0.014557329,0.341990417,-0.913083285
720,1804131,1708790,0.728,-1.065,0.55,-44.2,38.6,64.5,13.6,-8.6,-18.1,0.222510453,0.0155949583,0.343028047,-0.912442396
721,1807700,1708790,0.716,-1.093,0.539,-43.6,39.4,68.3,13.6,-8.6,-18.1,0.223609119,0.0166936247,0.344065676,-0.911770989
722,1809755,1708800,0.716,-1.093,0.539,-43.6,39.4,68.3,13.6,-8.6,-18.1,0.223609119,0.0166936247,0.344065676,-0.911770989
723,1811517,1708800,0.683,-1.151,0.508,-40.5,40.7,74.7,13.7,-8.5,-17.8,0.225928526,0.0189825129,0.346049379,-0.910367138
724,1815511,1708800,0.675,-1.167,0.497,-38.3,41.2,77.4,13.7,-8.5,-17.8,0.227179785,0.0202032533,0.346995453,-0.90969573
725,1817731,1708800,0.675,-1.178,0.493,-35.6,41.5,79.7,13.7,-8.5,-17.8,0.228461562,0.0214545122,0.347849971,-0.908993805
726,1820049,1708810,0.655,-1.182,0.474,-32.6,41.6,81.9,14.9,-8.5,-18,0.229773858,0.0227057711,0.348673971,-0.908322398
727,1822224,1708810,0.651,-1.178,0.459,-29.4,41.4,83.9,14.9,-8.5,-18,0.231147191,0.0240485855,0.349436934,-0.90765099
728,1824516,1708810,0.639,-1.17,0.443,-26,41.1,85.6,14.9,-8.5,-18,0.232551042,0.0253913999,0.350077822,-0.907010102
729,1826766,1708810,0.616,-1.138,0.436,-22.9,40.6,87.4,14.9,-8.5,-18,0.233954894,0.0267342143,0.350718711,-0.906369213
730,1828947,1708820,0.596,-1.114,0.429,-20.1,40.2,89.1,14.2,-11,-18,0.235450301,0.0280770287,0.351268044,-0.905728324
731,1831673,1708820,0.577,-1.086,0.421,-17.8,39.8,90.9,14.2,-11,-18,0.236945708,0.0295113987,0.35175634,-0.905087436
732,1834031,1708820,0.561,-1.066,0.418,-15.9,39.6,92.7,14.2,-11,-18,0.238471633,0.0308847316,0.352244636,-0.904477065
733,1837261,1708820,0.522,-1.014,0.418,-14.4,39.3,94.4,14.2,-11,-18,0.240058596,0.03234962,0.352641377,-0.903836177
734,1839359,1708830,0.495,-0.994,0.419,-13.5,39.2,96.2,14.3,-9.2,-17.7,0.241645558,0.03378399,0.353068636,-0.903195288
735,1841674,1708830,0.479,-0.97,0.416,-13,38.9,98.1,14.3,-9.2,-17.7,0.243293558,0.0352488784,0.353434858,-0.902554399
736,1844482,1708830,0.456,-0.949,0.416,-12.9,38.6,99.9,14.3,-9.2,-17.7,0.244972076,0.0367137669,0.353831599,-0.901882992
737,1846699,1708830,0.412,-0.917,0.413,-13.3,38.1,101.7,14.3,-9.2,-17.7,0.246681112,0.0381786554,0.354228339,-0.901211585
738,1850634,1708840,0.385,-0.901,0.406,-14,37.4,103.6,14.2,-9.3,-17.7,0.248451186,0.0396435438,0.354594562,-0.900509659
739,1853019,1708840,0.365,-0.888,0.403,-15.1,36.6,105.4,14.2,-9.3,-17.7,0.250251778,0.0410473952,0.355021821,-0.899777215
740,1854462,1708840,0.342,-0.876,0.415,-16.3,35.9,107,14.2,-9.3,-17.7,0.252082888,0.0425122837,0.355418561,-0.899044771
741,1857392,1708840,0.302,-0.859,0.416,-17.5,35.4,108.4,14.2,-9.3,-17.7,0.253944517,0.0439771722,0.355876339,-0.898281808
742,1858960,1708850,0.302,-0.859,0.416,-17.5,35.4,108.4,14.2,-9.3,-17.7,0.253944517,0.0439771722,0.355876339,-0.898281808
743,1862266,1708850,0.255,-0.854,0.425,-20.4,34.6,110.5,14.2,-9.5,-18.1,0.257759331,0.046845912,0.356791894,-0.896664327
744,1864220,1708850,0.215,-0.857,0.426,-22.2,34,111.5,14.2,-9.5,-18.1,0.259712516,0.0482497635,0.357310709,-0.895840327
745,1867399,1708850,0.203,-0.861,0.438,-23.9,33.4,112.5,14.2,-9.5,-18.1,0.2616657,0.0495925779,0.357860042,-0.89495529
746,1868991,1708860,0.195,-0.865,0.431,-25.7,32.8,113.3,13.7,-10.1,-17.8,0.263649403,0.0510269478,0.358409375,-0.894070254
747,1871474,1708860,0.179,-0.864,0.431,-27.3,32.3,113.9,13.7,-10.1,-17.8,0.265633106,0.0523697623,0.359019745,-0.893154698
748,1874083,1708860,0.159,-0.864,0.432,-29.1,31.9,114.4,13.7,-10.1,-17.8,0.267647328,0.0537430952,0.359630116,-0.892239143
749,1877289,1708860,0.147,-0.86,0.432,-31.2,31.4,114.8,13.7,-10.1,-17.8,0.269692068,0.0550553911,0.360301523,-0.891293069
750,1879089,1708870,0.136,-0.859,0.436,-33.7,30.9,115,13.1,-9.9,-17.8,0.27170629,0.056367687,0.361003449,-0.890285958
751,1882049,1708870,0.116,-0.847,0.452,-36.2,30.6,115,13.1,-9.9,-17.8,0.27375103,0.0576494644,0.361735893,-0.889278848
752,1883926,1708870,0.088,-0.847,0.473,-38.3,30.6,114.8,13.1,-9.9,-17.8,0.27579577,0.0589312418,0.362529374,-0.888271737
753,1886656,1708870,0.081,-0.842,0.488,-39.7,30.8,114.7,13.1,-9.9,-17.8,0.277809992,0.0601825007,0.363322855,-0.887203589
754,1889969,1708880,0.081,-0.838,0.5,-40.7,31.2,114.6,12.8,-11.7,-18.2,0.279824213,0.0614642781,0.364146855,-0.886135441
755,1891520,1708880,0.069,-0.838,0.512,-41.7,31.6,114.5,12.8,-11.7,-18.2,0.281868954,0.062715537,0.365001373,-0.885067293
756,1895463,1708880,0.045,-0.83,0.524,-43.3,32,114.3,12.8,-11.7,-18.2,0.283852657,0.0639973144,0.365855892,-0.883968627
757,1897767,1708880,0.026,-0.814,0.537,-45.6,32.5,114,12.8,-11.7,-18.2,0.285866878,0.0652485733,0.366801965,-0.882869961
758,1899938,1708890,0.01,-0.809,0.541,-48.8,33.2,113.6,12.6,-12.4,-18.4,0.287850581,0.0664998321,0.367778558,-0.881710257
759,1901578,1708890,-0.021,-0.797,0.546,-52.9,34,112.7,12.6,-12.4,-18.4,0.289834284,0.0677205725,0.368846706,-0.880520035
760,1904061,1708890,-0.036,-0.781,0.55,-57.4,34.9,111.5,12.6,-12.4,-18.4,0.291787469,0.0689107944,0.370006409,-0.879299295
761,1906833,1708890,-0.052,-0.776,0.55,-62,35.7,110,12.6,-12.4,-18.4,0.293679617,0.0701010163,0.371257668,-0.878048036
762,1908977,1708900,-0.052,-0.776,0.55,-62,35.7,110,12.6,-12.4,-18.4,0.293679617,0.0701010163,0.371257668,-0.878048036
763,1911590,1708900,-0.096,-0.775,0.548,-70.2,37.5,106.4,12.3,-13.1,-18.3,0.296609394,0.0706808679,0.37488937,-0.875453963
764,1914694,1708900,-0.116,-0.787,0.529,-73.6,38.3,104.5,12.3,-13.1,-18.3,0.298409986,0.0717795343,0.376384777,-0.874111148
765,1916429,1708900,-0.128,-0.794,0.521,-76.6,39.1,102.7,12.3,-13.1,-18.3,0.300149541,0.0728476821,0.377941221,-0.872768334
766,1920252,1708910,-0.152,-0.81,0.506,-79.2,39.8,100.8,12.5,-12.8,-18.6,0.301889096,0.0739463485,0.379558702,-0.871364483
767,1921922,1708910,-0.188,-0.832,0.476,-81.6,40.4,99,12.5,-12.8,-18.6,0.303567614,0.0749839778,0.381206702,-0.869960631
768,1924005,1708910,-0.208,-0.84,0.469,-83.8,40.9,96.8,12.5,-12.8,-18.6,0.305154576,0.0760216071,0.382915738,-0.86855678
769,1926401,1708910,-0.232,-0.851,0.466,-85.9,41.4,94.3,12.5,-12.8,-18.6,0.306772057,0.0770287179,0.384655293,-0.867152928
770,1928934,1708920,-0.288,-0.858,0.459,-87.3,41.9,91.6,12.2,-9.3,-17.3,0.308297983,0.0780053102,0.386425367,-0.865718558
771,1932388,1708920,-0.324,-0.861,0.452,-88.1,42.6,88.8,12.2,-9.3,-17.3,0.309762871,0.078951384,0.388225959,-0.864314707
772,1933894,1708920,-0.363,-0.852,0.457,-87.5,43.3,85.9,12.2,-9.3,-17.3,0.311166723,0.0798974578,0.390026551,-0.862910855
773,1937580,1708920,-0.399,-0.859,0.466,-85.6,44.1,83,12.2,-9.3,-17.3,0.312509537,0.0808740501,0.391796625,-0.861537523
774,1939103,1708930,-0.467,-0.857,0.484,-82.3,44.7,80.2,11.7,-10.9,-20.7,0.313760796,0.0818201239,0.393505661,-0.860194708
775,1941723,1708930,-0.502,-0.849,0.496,-78,44.9,77.4,11.7,-10.9,-20.7,0.314981536,0.0827967162,0.395153661,-0.858912931
776,1944207,1708930,-0.534,-0.86,0.501,-73,45.1,74.9,11.7,-10.9,-20.7,0.316110721,0.083803827,0.396679586,-0.85769219
777,1947377,1708930,-0.558,-0.855,0.509,-67.6,45,72.7,11.7,-10.9,-20.7,0.317209387,0.0848109378,0.398113956,-0.856532487
778,1949210,1708940,-0.605,-0.874,0.538,-62.1,44.6,70.7,11.8,-10,-20.8,0.318277535,0.0858180486,0.399456771,-0.855403302
779,1951452,1708940,-0.625,-0.869,0.543,-56.9,44.1,68.9,11.8,-10,-20.8,0.319284646,0.086855678,0.400708029,-0.854335154
780,1954724,1708940,-0.645,-0.877,0.547,-51.7,43.7,67,11.8,-10,-20.8,0.32023072,0.0878933073,0.401837214,-0.853328043
781,1956856,1708940,-0.665,-0.88,0.548,-46.3,43.3,65.2,11.8,-10,-20.8,0.321146275,0.0889309366,0.402874844,-0.85238197
782,1959203,1708950,-0.665,-0.88,0.548,-46.3,43.3,65.2,11.8,-10,-20.8,0.321146275,0.0889309366,0.402874844,-0.85238197
783,1962295,1708950,-0.708,-0.86,0.572,-36.8,42.1,60.8,11.6,-9.2,-20.8,0.322855312,0.0910672323,0.404705954,-0.850672933
784,1964306,1708950,-0.72,-0.844,0.572,-33.9,41.4,58.2,11.6,-9.2,-20.8,0.323648793,0.0921048616,0.405499435,-0.849879452
785,1967745,1708950,-0.751,-0.784,0.592,-32.7,40.5,55.7,11.6,-9.2,-20.8,0.324381237,0.0931424909,0.406292917,-0.849116489
786,1969900,1708960,-0.758,-0.752,0.604,-32.7,40,53,11.9,-8.6,-20.9,0.325083163,0.0941190832,0.407055879,-0.848353526
787,1972072,1708960,-0.773,-0.728,0.624,-33.3,39.6,50.4,11.9,-8.6,-20.9,0.325724052,0.095065157,0.407849361,-0.847621082
788,1974402,1708960,-0.781,-0.708,0.636,-33.7,39.4,48,11.9,-8.6,-20.9,0.326334422,0.0959807123,0.40867336,-0.846888638
789,1976568,1708960,-0.792,-0.669,0.66,-34.1,39.2,46.1,11.9,-8.6,-20.9,0.326914274,0.0968657491,0.409466842,-0.846186712
790,1979318,1708970,-0.796,-0.649,0.668,-34.9,38.9,44.7,12.2,-10,-19.2,0.327463607,0.0977202673,0.410290841,-0.845454268
791,1982541,1708970,-0.799,-0.625,0.679,-37,38.4,43.8,12.2,-10,-19.2,0.32801294,0.0985747856,0.411175878,-0.844721824
792,1984887,1708970,-0.803,-0.61,0.695,-40.7,38,43.3,12.2,-10,-19.2,0.328562273,0.0993682669,0.412091433,-0.84398938
793,1987101,1708970,-0.81,-0.562,0.711,-46.4,37.9,43,12.2,-10,-19.2,0.329111606,0.10013123,0.413129063,-0.84316538
794,1989325,1708980,-0.818,-0.546,0.711,-53.6,38.3,42.5,12.2,-10,-19.2,0.329660939,0.100833155,0.414288766,-0.842310862
795,1991443,1708980,-0.826,-0.531,0.715,-61.4,39.1,41.9,12.2,-10,-19.2,0.330210273,0.101474044,0.415601062,-0.841364788
796,1994143,1708980,-0.837,-0.511,0.715,-69.3,40.2,41,12.2,-10,-19.2,0.330759606,0.102084414,0.417096469,-0.840327158
797,1996601,1708980,-0.861,-0.502,0.692,-76.8,41,40.1,12.2,-10,-19.2,0.33127842,0.102633747,0.41871395,-0.839259011
798,2000170,1708990,-0.885,-0.498,0.681,-84,41.7,39.3,12.2,-10,-19.2,0.331827754,0.103183081,0.420453505,-0.838099307
799,2002550,1708990,-0.908,-0.482,0.654,-90.7,42.3,38.6,12.2,-10,-19.2,0.332346568,0.10361034,0.422315134,-0.836909085
800,2004772,1708990,-0.964,-0.476,0.636,-97,42.6,37.9,12.2,-10,-19.2,0.332865383,0.104068117,0.424298837,-0.835627308
801,2007026,1708990,-0.992,-0.472,0.625,-102.9,43,37,12.2,-10,-19.2,0.333353679,0.104434339,0.426435133,-0.834315012
802,2008937,1709000,-0.992,-0.472,0.625,-102.9,43,37,12.2,-10,-19.2,0.333353679,0.104434339,0.426435133,-0.834315012
803,2011958,1709000,-1.051,-0.467,0.623,-112.8,43.3,34.8,12.2,-10,-19.2,0.33436079,0.105075228,0.430921354,-0.831537828
804,2014966,1709000,-1.111,-0.461,0.605,-116.2,43.1,33.7,12.2,-10,-19.2,0.334818567,0.105319376,0.433271279,-0.830072939
805,2016740,1709000,-1.139,-0.465,0.606,-118.3,43,32.5,12.2,-10,-19.2,0.335276345,0.105533006,0.435651723,-0.828638569
806,2019009,1709010,-1.162,-0.46,0.599,-119.1,42.6,31.2,12.2,-10,-19.2,0.335703604,0.105746635,0.438032167,-0.827173681
807,2021783,1709010,-1.186,-0.463,0.591,-118.5,42,29.8,12.2,-10,-19.2,0.336100345,0.105929746,0.44041261,-0.825708792
808,2024968,1709010,-1.226,-0.463,0.589,-116.7,40.9,28.1,12.2,-10,-19.2,0.336497085,0.10605182,0.442762535,-0.824274422
809,2027239,1709010,-1.238,-0.47,0.593,-113.8,39.6,26.2,12.2,-10,-19.2,0.336832789,0.106204413,0.445020905,-0.82290109
810,2029284,1709020,-1.25,-0.478,0.597,-109.6,38.1,24.2,12.7,-8.7,-22.3,0.337168493,0.106326487,0.447218238,-0.821558275
811,2032415,1709020,-1.254,-0.497,0.605,-104.4,36.7,22.3,12.7,-8.7,-22.3,0.337443159,0.106418043,0.449293497,-0.820276498
812,2034734,1709020,-1.254,-0.509,0.609,-98.3,35.2,20.5,12.7,-8.7,-22.3,0.337687307,0.106540117,0.4512772,-0.819086276
813,2036437,1709020,-1.255,-0.525,0.617,-91.7,33.5,18.6,12.7,-8.7,-22.3,0.337900937,0.106631672,0.45310831,-0.817957091
814,2039101,1709030,-1.243,-0.533,0.632,-85.1,32,16.8,12.7,-8.7,-22.3,0.338084048,0.106753746,0.454847865,-0.816919462
815,2042098,1709030,-1.235,-0.545,0.648,-78.6,30.3,14.9,12.7,-8.7,-22.3,0.338236641,0.106845302,0.456434828,-0.815973388
816,2044267,1709030,-1.243,-0.545,0.652,-72.4,28.9,13.1,12.7,-8.7,-22.3,0.338358715,0.106967376,0.457899716,-0.815088351
817,2047549,1709030,-1.239,-0.541,0.667,-66.5,27.6,11.1,12.7,-8.7,-22.3,0.338419752,0.10708945,0.459242531,-0.814264351
818,2049761,1709040,-1.235,-0.537,0.683,-61,26.6,9.4,12.7,-8.7,-22.3,0.338480789,0.107181005,0.460524308,-0.813531907
819,2051898,1709040,-1.23,-0.533,0.71,-55.4,25.9,7.7,12.7,-8.7,-22.3,0.338480789,0.107333598,0.461684011,-0.812829981
820,2054061,1709040,-1.234,-0.529,0.726,-49.6,25.4,6,12.7,-8.7,-22.3,0.33845027,0.107455672,0.462721641,-0.81225013
821,2056636,1709040,-1.222,-0.521,0.745,-43.6,24.8,4.4,12.7,-8.7,-22.3,0.338358715,0.107638783,0.463667714,-0.811700797
822,2058967,1709050,-1.222,-0.521,0.745,-43.6,24.8,4.4,12.7,-8.7,-22.3,0.338358715,0.107638783,0.463667714,-0.811700797
823,2063054,1709050,-1.21,-0.494,0.776,-31.8,23.3,2,12.7,-8.7,-22.3,0.338145085,0.108005005,0.465254677,-0.810846278
824,2065259,1709050,-1.213,-0.478,0.78,-27.1,22.4,1.2,12.7,-8.7,-22.3,0.338023011,0.108218635,0.465895566,-0.810510575
825,2067508,1709050,-1.209,-0.455,0.783,-23.4,21.6,0.4,12.7,-8.7,-22.3,0.3378399,0.108432264,0.466444899,-0.810235908
826,2069018,1709060,-1.224,-0.411,0.788,-20.2,21,-0.2,12.7,-8.7,-22.3,0.337687307,0.108645894,0.466963713,-0.809961241
827,2071496,1709060,-1.22,-0.392,0.795,-17.1,20.6,-0.7,12.7,-8.7,-22.3,0.337504196,0.108890042,0.467421491,-0.809747612
828,2074997,1709060,-1.224,-0.368,0.791,-14.1,19.9,-1.2,12.7,-8.7,-22.3,0.337321085,0.10913419,0.467818232,-0.809564501
829,2076437,1709060,-1.223,-0.344,0.795,-11.2,19,-1.6,12.7,-8.7,-22.3,0.337107456,0.109378338,0.468153935,-0.809411908
830,2079444,1709070,-1.211,-0.309,0.787,-8.7,17.7,-1.8,13.5,-7.2,-21.9,0.336924345,0.109591968,0.46845912,-0.809289834
831,2081342,1709070,-1.207,-0.294,0.779,-6.8,16.3,-1.9,13.5,-7.2,-21.9,0.336741234,0.109805597,0.468703269,-0.809198279
832,2084720,1709070,-1.202,-0.282,0.779,-5.3,15.2,-1.8,13.5,-7.2,-21.9,0.336558123,0.110019227,0.468916898,-0.809137242
833,2086465,1709070,-1.194,-0.274,0.771,-3.9,14.2,-1.6,13.5,-7.2,-21.9,0.33640553,0.110232856,0.469100009,-0.809076205
834,2089942,1709080,-1.174,-0.259,0.755,-2.5,13.5,-1.4,13.5,-7.2,-21.9,0.336222419,0.110446486,0.469222083,-0.809015168
835,2091453,1709080,-1.162,-0.255,0.754,-1.3,12.8,-1.2,13.5,-7.2,-21.9,0.336069826,0.110629597,0.469374676,-0.808984649
836,2094485,1709080,-1.15,-0.244,0.746,-0.7,11.9,-1,13.5,-7.2,-21.9,0.335947752,0.110843226,0.469466231,-0.808954131
837,2096276,1709080,-1.146,-0.236,0.734,-0.8,10.9,-0.6,13.5,-7.2,-21.9,0.335825678,0.110995819,0.469557787,-0.808923612
838,2099894,1709090,-1.146,-0.236,0.734,-0.8,10.9,-0.6,13.5,-7.2,-21.9,0.335825678,0.110995819,0.469557787,-0.808923612
839,2102011,1709090,-1.126,-0.209,0.71,-2.3,9.5,0,13.5,-7.2,-21.9,0.335612049,0.111331523,0.469771416,-0.808832057
840,2105062,1709090,-1.114,-0.202,0.702,-3.3,8.9,0.4,13.5,-7.2,-21.9,0.335551012,0.111423078,0.46989349,-0.80877102
841,2106902,1709090,-1.098,-0.19,0.69,-4.3,8.2,0.9,13.5,-7.2,-21.9,0.335489975,0.111575671,0.470046083,-0.808709983
842,2109048,1709100,-1.098,-0.19,0.69,-4.3,8.2,0.9,13.5,-7.2,-21.9,0.335489975,0.111575671,0.470046083,-0.808709983
843,2112015,1709100,-1.071,-0.187,0.673,-6.1,7,1.7,13.5,-7.2,-21.9,0.335428938,0.1117893,0.47032075,-0.808526872
844,2115029,1709100,-1.059,-0.183,0.673,-7.1,6.5,2,13.5,-7.2,-21.9,0.335398419,0.111880856,0.470503861,-0.808435316
845,2116511,1709100,-1.031,-0.204,0.672,-8.1,6,2.4,13.5,-7.2,-21.9,0.335398419,0.111911374,0.470686972,-0.808313242
846,2119561,1709110,-1.011,-0.212,0.676,-9.2,5.7,3,13.5,-7.2,-21.9,0.335428938,0.112033448,0.470870083,-0.808191168
847,2122521,1709110,-0.992,-0.228,0.679,-10.4,5.7,3.6,13.5,-7.2,-21.9,0.335459456,0.112094485,0.471083712,-0.808038575
848,2124027,1709110,-0.976,-0.248,0.675,-11.5,5.8,4.2,13.5,-7.2,-21.9,0.335489975,0.112155522,0.47132786,-0.807855464
849,2127016,1709110,-0.945,-0.3,0.69,-12.3,5.9,5,13.5,-7.2,-21.9,0.335551012,0.112216559,0.471572008,-0.807702872
850,2130161,1709120,-0.934,-0.324,0.69,-13.2,5.9,5.7,13.7,-6.7,-20.9,0.335642567,0.112277596,0.471846675,-0.807489242
851,2132279,1709120,-0.922,-0.348,0.697,-14.2,6,6.4,13.7,-6.7,-20.9,0.335734123,0.112338633,0.472121342,-0.807275613
852,2133941,1709120,-0.91,-0.367,0.697,-15.1,6.4,7.1,13.7,-6.7,-20.9,0.335825678,0.11239967,0.472426527,-0.807061983
853,2136812,1709120,-0.891,-0.411,0.716,-15.9,6.7,7.9,13.7,-6.7,-20.9,0.335917234,0.112521744,0.472731712,-0.806817835
854,2139846,1709130,-0.883,-0.423,0.72,-16.5,7.1,8.8,13.7,-6.7,-20.9,0.336039308,0.1126133,0.473067415,-0.806573687
855,2141398,1709130,-0.872,-0.435,0.724,-16.7,7.5,9.9,13.7,-6.7,-20.9,0.3361919,0.112704855,0.4733726,-0.80629902
856,2145101,1709130,-0.864,-0.447,0.727,-16.6,7.9,11.1,13.7,-6.7,-20.9,0.336344493,0.112857448,0.473708304,-0.806024354
857,2146611,1709130,-0.856,-0.447,0.723,-16.2,8.1,12.5,13.7,-6.7,-20.9,0.336527604,0.113010041,0.474013489,-0.805749687
858,2149374,1709140,-0.86,-0.443,0.727,-15.7,8.2,13.7,14.1,-6.4,-21.1,0.336710715,0.113162633,0.474318674,-0.805475021
859,2152331,1709140,-0.856,-0.435,0.727,-14.9,8.3,15.1,14.1,-6.4,-21.1,0.336924345,0.113376263,0.474623859,-0.805169836
860,2153958,1709140,-0.848,-0.428,0.731,-13.9,8.2,16.5,14.1,-6.4,-21.1,0.337168493,0.113589892,0.474868007,-0.804895169
861,2156465,1709140,-0.844,-0.428,0.727,-12.7,8.1,17.9,14.1,-6.4,-21.1,0.337443159,0.113803522,0.475081637,-0.804620502
862,2159975,1709150,-0.844,-0.428,0.727,-12.7,8.1,17.9,14.1,-6.4,-21.1,0.337443159,0.113803522,0.475081637,-0.804620502
863,2161452,1709150,-0.836,-0.424,0.727,-9.7,8,20.9,14.3,-6.3,-20.7,0.338023011,0.114352855,0.475508896,-0.804040651
864,2165083,1709150,-0.832,-0.409,0.711,-7.9,7.9,22.5,14.3,-6.3,-20.7,0.338358715,0.114688559,0.47563097,-0.803796503
865,2166675,1709150,-0.828,-0.413,0.715,-5.8,7.7,24.1,14.3,-6.3,-20.7,0.338724937,0.115024262,0.475753044,-0.803521836
866,2169766,1709160,-0.82,-0.405,0.706,-3.8,7.7,25.5,14.3,-6.3,-20.7,0.339091159,0.115390484,0.475814081,-0.803277688
867,2171630,1709160,-0.82,-0.401,0.703,-2,7.5,26.8,14.3,-6.3,-20.7,0.339487899,0.115787225,0.4758446,-0.80303354
868,2174849,1709160,-0.819,-0.385,0.695,-0.3,7.4,28.3,14.3,-6.3,-20.7,0.339915159,0.116214484,0.475814081,-0.80281991
869,2176444,1709160,-0.816,-0.389,0.687,1.4,7.2,29.7,14.3,-6.3,-20.7,0.340311899,0.116641743,0.475783563,-0.802575762
870,2179620,1709170,-0.815,-0.381,0.679,3.5,6.9,31,15.7,-6.2,-20.9,0.340800195,0.117130039,0.475692007,-0.802362133
871,2181703,1709170,-0.811,-0.374,0.675,5.6,6.6,32.2,15.7,-6.2,-20.9,0.341288491,0.117618336,0.475539415,-0.802179022
872,2185552,1709170,-0.807,-0.366,0.675,7.8,6.2,33.4,15.7,-6.2,-20.9,0.341807306,0.11813715,0.475386822,-0.801995911
873,2187779,1709170,-0.799,-0.366,0.675,9.7,5.7,34.6,15.7,-6.2,-20.9,0.342326121,0.118655965,0.475142674,-0.801812799
874,2190011,1709180,-0.783,-0.363,0.67,11.5,5.1,35.7,15.6,-6.6,-20.8,0.342844935,0.119205298,0.474898526,-0.801660207
875,2192429,1709180,-0.779,-0.359,0.666,13.2,4.8,36.7,15.6,-6.6,-20.8,0.343424787,0.11978515,0.474623859,-0.801507614
876,2195357,1709180,-0.771,-0.355,0.666,14.7,4.4,37.7,15.6,-6.6,-20.8,0.344004639,0.120365001,0.474288156,-0.801355022
877,2197624,1709180,-0.76,-0.355,0.666,16.2,4.2,38.6,15.6,-6.6,-20.8,0.34458449,0.120944853,0.473921934,-0.801232948
878,2199973,1709190,-0.76,-0.351,0.666,17.5,4,39.4,15.4,-6.6,-21,0.345194861,0.121555223,0.473555712,-0.801110874
879,2202058,1709190,-0.748,-0.355,0.669,18.9,3.8,40,15.4,-6.6,-21,0.345774712,0.122165593,0.473128452,-0.8009888
880,2204368,1709190,-0.744,-0.36,0.661,20.3,3.6,40.7,15.4,-6.6,-21,0.346415601,0.122837001,0.472701193,-0.800866726
881,2206685,1709190,-0.732,-0.36,0.665,21.6,3.6,41.3,15.4,-6.6,-21,0.347025971,0.123477889,0.472243416,-0.80077517
882,2209380,1709200,-0.732,-0.36,0.665,21.6,3.6,41.3,15.4,-6.6,-21,0.347025971,0.123477889,0.472243416,-0.80077517
883,2211781,1709200,-0.724,-0.364,0.665,23.9,3.3,42.1,15.6,-7,-20.8,0.348918119,0.125614185,0.470473342,-0.800683615
884,2214071,1709200,-0.72,-0.36,0.661,24.9,3.1,42.6,15.6,-7,-20.8,0.349559008,0.126285592,0.469954527,-0.800592059
885,2216699,1709200,-0.712,-0.368,0.661,26,2.9,42.9,15.6,-7,-20.8,0.350199896,0.126987518,0.469405194,-0.800531022
886,2218977,1709210,-0.708,-0.376,0.664,27.2,2.9,43.2,15.6,-7,-20.8,0.350871303,0.127689444,0.468825343,-0.800469985
887,2222361,1709210,-0.704,-0.376,0.664,28.5,3,43.3,15.6,-7,-20.8,0.351512192,0.128391369,0.468214972,-0.800408948
888,2223973,1709210,-0.697,-0.384,0.66,30,3.1,43.3,15.6,-7,-20.8,0.352153081,0.129123814,0.467604602,-0.80037843
889,2226427,1709210,-0.693,-0.396,0.66,31.4,3.1,43.2,15.6,-7,-20.8,0.35279397,0.129856258,0.466963713,-0.800347911
890,2229883,1709220,-0.685,-0.4,0.66,32.6,3,42.9,13.2,-7.5,-20.9,0.35340434,0.130588702,0.466292306,-0.800347911
891,2231417,1709220,-0.681,-0.404,0.656,33.5,2.9,42.4,13.2,-7.5,-20.9,0.353984191,0.131351665,0.465590381,-0.800347911
892,2233949,1709220,-0.677,-0.408,0.652,34.3,2.9,41.7,13.2,-7.5,-20.9,0.35462508,0.132053591,0.464918973,-0.80037843
893,2237304,1709220,-0.677,-0.412,0.644,34.8,2.8,41,13.2,-7.5,-20.9,0.355204932,0.132816553,0.464217048,-0.800408948
894,2239602,1709230,-0.665,-0.416,0.64,35.4,2.8,40.2,12.4,-7.7,-20.4,0.355784783,0.133548997,0.463484603,-0.800439467
895,2241842,1709230,-0.661,-0.42,0.64,36.1,2.7,39.5,12.4,-7.7,-20.4,0.356334117,0.134281442,0.462752159,-0.800500504
896,2244849,1709230,-0.662,-0.424,0.64,37.2,2.6,38.6,12.4,-7.7,-20.4,0.35688345,0.134983367,0.462019715,-0.800561541
897,2246572,1709230,-0.646,-0.444,0.639,38.7,2.8,37.8,12.4,-7.7,-20.4,0.357402264,0.13574633,0.461256752,-0.800653096
898,2248849,1709240,-0.634,-0.456,0.643,40.5,2.9,37.2,11,-7.7,-20.3,0.357890561,0.136478774,0.460463271,-0.800744652
899,2252381,1709240,-0.626,-0.464,0.635,42.2,3.1,36.7,11,-7.7,-20.3,0.358378857,0.137241737,0.459639271,-0.800866726
900,2254643,1709240,-0.619,-0.476,0.639,43.8,3.2,36.2,11,-7.7,-20.3,0.358867153,0.1380047,0.458784753,-0.801019318
901,2256737,1709240,-0.607,-0.5,0.635,45.1,3.3,35.7,11,-7.7,-20.3,0.359294412,0.138767663,0.457930235,-0.801202429
902,2259901,1709250,-0.607,-0.5,0.635,45.1,3.3,35.7,11,-7.7,-20.3,0.359294412,0.138767663,0.457930235,-0.801202429
903,2261478,1709250,-0.6,-0.52,0.635,47.1,3.9,34.3,9.9,-8,-20.1,0.360820338,0.141026032,0.455122532,-0.801721244
904,2264296,1709250,-0.604,-0.524,0.631,48.1,4.5,33.5,9.9,-8,-20.1,0.361217078,0.141819514,0.454206977,-0.801904355
905,2267282,1709250,-0.604,-0.532,0.623,49.2,5.2,32.8,9.9,-8,-20.1,0.3615833,0.142643513,0.453291421,-0.802117985
906,2270299,1709260,-0.604,-0.532,0.623,50.3,5.8,32,9.9,-8,-20.1,0.361919004,0.143436995,0.452345347,-0.802331614
907,2271546,1709260,-0.608,-0.536,0.615,51.6,6.2,31.3,9.9,-8,-20.1,0.362254707,0.144291513,0.451399274,-0.802575762
908,2274495,1709260,-0.596,-0.54,0.623,52.9,6.6,30.7,9.9,-8,-20.1,0.362559893,0.145115513,0.450422681,-0.802850429
909,2277489,1709260,-0.596,-0.54,0.627,54.4,6.9,30.2,9.9,-8,-20.1,0.362834559,0.145970031,0.449446089,-0.803125095
910,2279227,1709270,-0.588,-0.544,0.623,55.8,7.2,29.7,11.4,-7.8,-20.2,0.363109226,0.146824549,0.44840846,-0.803399762
911,2282077,1709270,-0.584,-0.544,0.626,57.1,7.4,29.3,11.4,-7.8,-20.2,0.363383892,0.147679067,0.44737083,-0.803704947
912,2284991,1709270,-0.572,-0.556,0.626,58,7.6,28.9,11.4,-7.8,-20.2,0.36362804,0.148564104,0.446333201,-0.804010132
913,2287753,1709270,-0.568,-0.56,0.622,58.5,8,28.4,11.4,-7.8,-20.2,0.36384167,0.149449141,0.445265053,-0.804345836
914,2289216,1709280,-0.564,-0.56,0.618,58.7,8.4,28,11.3,-8.2,-20.2,0.3640553,0.150334178,0.444227424,-0.804651021
915,2292165,1709280,-0.564,-0.56,0.618,58.6,8.9,27.8,11.3,-8.2,-20.2,0.364268929,0.151219214,0.443159276,-0.804986724
916,2295026,1709280,-0.565,-0.564,0.61,58.1,9.4,27.5,11.3,-8.2,-20.2,0.364482559,0.15213477,0.442121647,-0.80529191
917,2296683,1709280,-0.557,-0.564,0.606,57.5,10,27.1,11.3,-8.2,-20.2,0.36466567,0.153019807,0.441114536,-0.805597095
918,2298942,1709290,-0.561,-0.56,0.602,56.6,10.5,26.8,11.9,-8.4,-20.1,0.364848781,0.153904843,0.440107425,-0.805871761
919,2301446,1709290,-0.561,-0.556,0.595,55.5,10.8,26.8,11.9,-8.4,-20.1,0.365031892,0.154820399,0.439130833,-0.806176946
920,2305767,1709290,-0.556,-0.545,0.587,54.1,11.1,26.7,11.9,-8.4,-20.1,0.365215003,0.155705435,0.438184759,-0.806421094
921,2308020,1709290,-0.56,-0.529,0.583,52.5,11.6,26.5,11.9,-8.4,-20.1,0.365367595,0.156559954,0.437238685,-0.806695761
922,2310446,1709300,-0.56,-0.529,0.583,52.5,11.6,26.5,11.9,-8.4,-20.1,0.365367595,0.156559954,0.437238685,-0.806695761
923,2312366,1709300,-0.556,-0.505,0.567,48.5,12.8,26.1,13.2,-8.3,-19.8,0.36588641,0.158360546,0.43510239,-0.807275613
924,2314674,1709300,-0.56,-0.497,0.563,46.2,13.4,26,13.2,-8.3,-19.8,0.366069521,0.159215064,0.434308908,-0.807458724
925,2316564,1709300,-0.56,-0.498,0.559,43.7,13.9,25.7,13.2,-8.3,-19.8,0.366222114,0.160039064,0.433545946,-0.807611316
926,2319263,1709310,-0.56,-0.494,0.563,41.1,14.3,25.4,13.2,-8.3,-19.8,0.366405225,0.160863063,0.43284402,-0.80773339
927,2321454,1709310,-0.556,-0.49,0.555,38.3,14.7,25,13.2,-8.3,-19.8,0.366588336,0.161687063,0.432203131,-0.807855464
928,2325743,1709310,-0.56,-0.498,0.551,35.5,15.1,24.7,13.2,-8.3,-19.8,0.366740928,0.162450026,0.43162328,-0.80794702
929,2327688,1709310,-0.552,-0.498,0.551,32.7,15.3,24.4,13.2,-8.3,-19.8,0.366924039,0.163212989,0.431073946,-0.808008057
930,2330032,1709320,-0.552,-0.502,0.547,29.8,15.6,24.1,13.3,-8.6,-19.5,0.367076632,0.163975951,0.43058565,-0.808038575
931,2332275,1709320,-0.544,-0.521,0.547,26.9,16,23.6,13.3,-8.6,-19.5,0.367259743,0.164677877,0.430158391,-0.808038575
932,2334495,1709320,-0.545,-0.529,0.543,24,16.3,23,13.3,-8.6,-19.5,0.367412336,0.165379803,0.429792169,-0.808008057
933,2336737,1709320,-0.541,-0.537,0.543,21.1,16.8,22.2,13.3,-8.6,-19.5,0.367564928,0.16605121,0.429456465,-0.807977538
934,2339129,1709330,-0.545,-0.541,0.543,18.2,17.3,21.5,13.2,-8.8,-19.5,0.367717521,0.166722617,0.429212317,-0.807916501
935,2341458,1709330,-0.541,-0.557,0.539,15.5,17.8,20.7,13.2,-8.8,-19.5,0.367870113,0.167363506,0.428998688,-0.807824946
936,2345607,1709330,-0.537,-0.557,0.535,13.3,18.3,19.9,13.2,-8.8,-19.5,0.367992187,0.167973876,0.428846095,-0.80773339
937,2347832,1709330,-0.541,-0.565,0.532,11.7,18.8,19.2,13.2,-8.8,-19.5,0.368114261,0.168584246,0.428693503,-0.807611316
938,2350243,1709340,-0.545,-0.573,0.528,10.7,19.1,18.5,13.2,-9,-19.6,0.368236335,0.169164098,0.428601947,-0.807489242
939,2352577,1709340,-0.541,-0.577,0.528,10.1,19.4,17.8,13.2,-9,-19.6,0.368327891,0.169774468,0.428510392,-0.807367168
940,2354833,1709340,-0.541,-0.581,0.528,9.5,19.5,17,13.2,-9,-19.6,0.368388928,0.17035432,0.428449355,-0.807245094
941,2356451,1709340,-0.542,-0.581,0.524,9,19.5,16.2,13.2,-9,-19.6,0.368480483,0.170903653,0.428388318,-0.80712302
942,2358939,1709350,-0.542,-0.581,0.524,9,19.5,16.2,13.2,-9,-19.6,0.368480483,0.170903653,0.428388318,-0.80712302
943,2362493,1709350,-0.546,-0.588,0.516,8.4,19.3,15,13.1,-9,-19.2,0.368419446,0.171819208,0.428510392,-0.806878872
944,2364101,1709350,-0.542,-0.588,0.52,8.6,19.4,14.5,13.1,-9,-19.2,0.368480483,0.172368542,0.428449355,-0.806787317
945,2367177,1709350,-0.542,-0.588,0.516,9.1,19.3,13.8,13.1,-9,-19.2,0.368511002,0.172917875,0.428388318,-0.806695761
946,2369206,1709360,-0.546,-0.596,0.52,9.8,19.2,13.1,13.1,-9,-19.2,0.368511002,0.173436689,0.42832728,-0.806604205
947,2372200,1709360,-0.546,-0.588,0.512,10.4,18.9,12.6,13.1,-9,-19.2,0.368511002,0.173986023,0.428205206,-0.80651265
948,2375273,1709360,-0.546,-0.588,0.512,11.1,18.7,12.1,13.1,-9,-19.2,0.368511002,0.174504837,0.428144169,-0.806451613
949,2377365,1709360,-0.55,-0.592,0.508,11.7,18.5,11.6,13.1,-9,-19.2,0.368511002,0.175023652,0.428052614,-0.806390576
950,2378854,1709370,-0.55,-0.592,0.508,12.4,18.3,11.1,13.4,-11,-19.2,0.368480483,0.175572985,0.42793054,-0.806360057
951,2381588,1709370,-0.546,-0.588,0.501,13,18.1,10.6,13.4,-11,-19.2,0.368449965,0.1760918,0.427808466,-0.806329539
952,2384627,1709370,-0.55,-0.592,0.505,13.7,17.9,10.1,13.4,-11,-19.2,0.368419446,0.176610614,0.427686392,-0.80629902
953,2387618,1709370,-0.561,-0.576,0.493,14.2,17.6,9.7,13.4,-11,-19.2,0.368358409,0.177129429,0.427533799,-0.80629902
954,2389118,1709380,-0.553,-0.572,0.497,14.5,17.4,9.3,13.4,-11.7,-18.6,0.368297372,0.177648244,0.427381207,-0.80629902
955,2392149,1709380,-0.565,-0.564,0.489,14.8,17.2,9,13.4,-11.7,-18.6,0.368236335,0.17813654,0.427228614,-0.806268502
956,2393851,1709380,-0.565,-0.556,0.485,14.9,17,8.7,13.4,-11.7,-18.6,0.368175298,0.178655354,0.427045503,-0.80629902
957,2397353,1709380,-0.573,-0.541,0.489,14.9,16.7,8.4,13.4,-11.7,-18.6,0.368114261,0.179143651,0.426892911,-0.80629902
958,2398953,1709390,-0.573,-0.529,0.485,14.7,16.3,8.1,13.8,-12.3,-18.4,0.368053224,0.179631947,0.426740318,-0.80629902
959,2401363,1709390,-0.573,-0.529,0.482,14.4,15.9,7.9,13.8,-12.3,-18.4,0.367992187,0.180089724,0.426587725,-0.80629902
960,2404997,1709390,-0.573,-0.521,0.485,14,15.4,7.8,13.8,-12.3,-18.4,0.36793115,0.180547502,0.426435133,-0.806329539
961,2406659,1709390,-0.58,-0.509,0.478,13.5,14.7,7.5,13.8,-12.3,-18.4,0.367870113,0.18100528,0.426252022,-0.806329539
962,2410119,1709400,-0.58,-0.509,0.478,13.5,14.7,7.5,13.8,-12.3,-18.4,0.367870113,0.18100528,0.426252022,-0.806329539
963,2411826,1709400,-0.588,-0.493,0.474,11.8,13.7,7.1,13.4,-13,-18.6,0.367656484,0.181981872,0.426313059,-0.806146428
964,2413888,1709400,-0.592,-0.481,0.47,10.7,13.2,6.9,13.4,-13,-18.6,0.367656484,0.182378613,0.426190985,-0.806146428
965,2416808,1709400,-0.6,-0.473,0.478,9.5,12.7,6.7,13.4,-13,-18.6,0.367625965,0.182744835,0.426099429,-0.806115909
966,2419890,1709410,-0.592,-0.469,0.47,8.1,11.9,6.3,13.4,-13,-18.6,0.367595447,0.183080538,0.426038392,-0.806115909
967,2421480,1709410,-0.596,-0.465,0.474,6.8,11.2,5.8,13.4,-13,-18.6,0.367564928,0.183385723,0.425977355,-0.806085391
968,2425010,1709410,-0.596,-0.465,0.478,5.7,10.6,5.4,13.4,-13,-18.6,0.36753441,0.18366039,0.425946837,-0.806054872
969,2426591,1709410,-0.596,-0.461,0.47,4.6,10.1,5.1,13.4,-13,-18.6,0.367503891,0.183935057,0.425916318,-0.805993835
970,2429734,1709420,-0.595,-0.458,0.474,3.5,9.7,4.8,13.3,-10.9,-20.3,0.367503891,0.184179205,0.425916318,-0.805963317
971,2431540,1709420,-0.603,-0.461,0.474,2.4,9.1,4.5,13.3,-10.9,-20.3,0.367473373,0.184392834,0.425946837,-0.80590228
972,2434345,1709420,-0.599,-0.453,0.478,1.3,8.4,4,13.3,-10.9,-20.3,0.367473373,0.184606464,0.425946837,-0.805841243
973,2437501,1709420,-0.603,-0.449,0.478,0,7.7,3.6,13.3,-10.9,-20.3,0.367442854,0.184759056,0.426007874,-0.805780206
974,2439015,1709430,-0.603,-0.453,0.474,-1.3,7,3.1,13.5,-10.5,-20.4,0.367442854,0.184911649,0.426068911,-0.805719169
975,2441479,1709430,-0.607,-0.457,0.478,-2.6,6.4,2.7,13.5,-10.5,-20.4,0.367442854,0.185033723,0.426160466,-0.805658132
976,2445105,1709430,-0.607,-0.453,0.486,-3.7,5.7,2.3,13.5,-10.5,-20.4,0.367442854,0.185125278,0.426252022,-0.805566576
977,2446653,1709430,-0.603,-0.461,0.482,-4.3,5.1,2.1,13.5,-10.5,-20.4,0.367473373,0.185186316,0.426374096,-0.805505539
978,2448970,1709440,-0.603,-0.465,0.49,-4.6,4.4,1.8,13.6,-9.2,-20.1,0.367473373,0.185247353,0.42649617,-0.805413984
979,2451614,1709440,-0.604,-0.477,0.498,-4.7,3.9,1.6,13.6,-9.2,-20.1,0.367473373,0.18530839,0.426587725,-0.805352947
980,2454983,1709440,-0.6,-0.489,0.498,-4.7,3.2,1.4,13.6,-9.2,-20.1,0.367503891,0.185338908,0.426709799,-0.80529191
981,2457142,1709440,-0.596,-0.489,0.505,-4.9,2.5,1.2,13.6,-9.2,-20.1,0.367503891,0.185338908,0.426801355,-0.805200354
982,2459263,1709450,-0.596,-0.489,0.505,-4.9,2.5,1.2,13.6,-9.2,-20.1,0.367503891,0.185338908,0.426801355,-0.805200354
983,2461769,1709450,-0.6,-0.501,0.506,-5.9,1.4,0.6,14,-8.4,-20.1,0.367748039,0.185888241,0.427045503,-0.80486465
984,2464150,1709450,-0.604,-0.508,0.51,-6.2,1,0.2,14,-8.4,-20.1,0.367748039,0.185857723,0.427167577,-0.804803613
985,2466525,1709450,-0.608,-0.516,0.518,-6.1,0.8,0,14,-8.4,-20.1,0.367778558,0.185827204,0.427289651,-0.804742576
986,2469921,1709460,-0.6,-0.512,0.521,-5.7,0.5,-0.4,14,-8.4,-20.1,0.367778558,0.185766167,0.427381207,-0.804681539
987,2472074,1709460,-0.608,-0.524,0.529,-5,0.2,-0.6,14,-8.4,-20.1,0.367778558,0.185735649,0.427472762,-0.804651021
988,2474573,1709460,-0.604,-0.528,0.537,-4.2,-0.2,-0.8,14,-8.4,-20.1,0.367809076,0.185674612,0.427564318,-0.804589984
989,2476838,1709460,-0.6,-0.532,0.541,-3.3,-0.7,-0.7,14,-8.4,-20.1,0.367809076,0.185644093,0.427625355,-0.804589984
990,2479135,1709470,-0.604,-0.54,0.545,-2.5,-1.2,-0.6,13.4,-10.3,-19.4,0.367809076,0.185583056,0.427655873,-0.804559465
991,2481598,1709470,-0.604,-0.544,0.549,-2,-1.6,-0.5,13.4,-10.3,-19.4,0.367839595,0.185552538,0.427686392,-0.804559465
992,2484978,1709470,-0.604,-0.544,0.553,-1.6,-1.8,-0.6,13.4,-10.3,-19.4,0.367839595,0.185491501,0.427686392,-0.804559465
993,2487099,1709470,-0.608,-0.547,0.568,-1.4,-2,-0.6,13.4,-10.3,-19.4,0.367870113,0.185430464,0.42771691,-0.804559465
994,2489258,1709480,-0.612,-0.543,0.576,-1.2,-2.2,-0.5,13.5,-10,-19,0.367870113,0.185369427,0.42771691,-0.804559465
995,2491674,1709480,-0.616,-0.543,0.576,-0.8,-2.4,-0.4,13.5,-10,-19,0.367900632,0.18530839,0.42771691,-0.804559465
996,2494328,1709480,-0.62,-0.539,0.58,-0.5,-2.7,-0.2,13.5,-10,-19,0.367900632,0.185277871,0.427686392,-0.804559465
997,2496729,1709480,-0.624,-0.543,0.581,-0.2,-2.8,0,13.5,-10,-19,0.36793115,0.185216834,0.427686392,-0.804589984
998,2500717,1709490,-0.636,-0.543,0.585,-0.3,-3,0.3,13.6,-10.1,-19.1,0.367961669,0.185155797,0.427655873,-0.804589984
999,2502881,1709490,-0.636,-0.535,0.589,-0.5,-3.2,0.6,13.6,-10.1,-19.1,0.368022706,0.18509476,0.427655873,-0.804589984
1000,2505284,1709490,-0.636,-0.531,0.589,-1,-3.5,0.8,13.6,-10.1,-19.1,0.368083743,0.185033723,0.427625355,-0.804589984
1001,2507487,1709490,-0.64,-0.531,0.6,-1.5,-3.8,1.1,13.6,-10.1,-19.1,0.36814478,0.184972686,0.427625355,-0.804589984
1002,2509729,1709500,-0.64,-0.531,0.6,-1.5,-3.8,1.1,13.6,-10.1,-19.1,0.36814478,0.184972686,0.427625355,-0.804589984
1003,2512596,1709500,-0.64,-0.527,0.597,-2.6,-4.1,1.3,13.9,-10.2,-18.1,0.368358409,0.18488113,0.427503281,-0.804559465
1004,2514309,1709500,-0.639,-0.523,0.6,-3.2,-4.3,1.5,13.9,-10.2,-18.1,0.368419446,0.184789575,0.427533799,-0.804528947
1005,2516546,1709500,-0.647,-0.527,0.597,-3.8,-4.5,1.6,13.9,-10.2,-18.1,0.368511002,0.184698019,0.427533799,-0.804498428
1006,2519855,1709510,-0.651,-0.523,0.605,-4.7,-4.7,1.8,13.5,-10.3,-20.3,0.368602557,0.184606464,0.427594836,-0.80446791
1007,2521600,1709510,-0.651,-0.523,0.605,-5.7,-5,2,13.5,-10.3,-20.3,0.368724631,0.18448439,0.427625355,-0.804406873
1008,2523996,1709510,-0.655,-0.519,0.597,-6.8,-5,2.1,13.5,-10.3,-20.3,0.368816187,0.184362316,0.42771691,-0.804345836
1009,2526562,1709510,-0.659,-0.519,0.605,-7.7,-5,2.2,13.5,-10.3,-20.3,0.368938261,0.184240242,0.427808466,-0.804284799
1010,2529866,1709520,-0.663,-0.519,0.609,-8.5,-5.2,2.3,13.6,-9.8,-17.5,0.369060335,0.184087649,0.427900021,-0.804193243
1011,2532207,1709520,-0.663,-0.519,0.605,-9,-5.3,2.6,13.6,-9.8,-17.5,0.369212928,0.183935057,0.427991577,-0.804132206
1012,2534435,1709520,-0.659,-0.515,0.609,-9.4,-5.5,2.8,13.6,-9.8,-17.5,0.369335002,0.183812983,0.428113651,-0.804040651
1013,2536628,1709520,-0.663,-0.519,0.609,-10,-5.8,3,13.6,-9.8,-17.5,0.369487594,0.183629872,0.428205206,-0.803949095
1014,2538946,1709530,-0.659,-0.519,0.609,-10.5,-6.1,3.2,13.7,-9.8,-17.2,0.369609668,0.183477279,0.428357799,-0.803827021
1015,2541544,1709530,-0.659,-0.519,0.613,-10.9,-6.4,3.3,13.7,-9.8,-17.2,0.369823298,0.183324686,0.428479873,-0.803735466
