sample_index,elapsed_us,device_time_ms,acc_x_g,acc_y_g,acc_z_g,gyro_x_dps,gyro_y_dps,gyro_z_dps,mag_x_ut,mag_y_ut,mag_z_ut,quat_w,quat_x,quat_y,quat_z
0,4494,1069270,0.969,-0.139,0.17,0.9,0.7,1.8,-3.6,23.2,-21.1,0.265388958,-0.628498184,-0.13657033,-0.718222602
1,6529,1069270,0.973,-0.139,0.178,1.1,0.8,1.8,-3.6,23.2,-21.1,0.265449995,-0.628498184,-0.136539811,-0.718222602
2,8793,1069270,0.969,-0.139,0.174,1.2,0.8,1.9,-3.7,22.8,-21.5,0.265511032,-0.628467666,-0.136539811,-0.718222602
3,10768,1069270,0.969,-0.143,0.174,1.4,0.8,1.9,-3.7,22.8,-21.5,0.265541551,-0.628467666,-0.136539811,-0.718222602
4,12930,1069280,0.969,-0.139,0.174,1.4,0.6,1.9,-3.7,22.8,-21.5,0.265602588,-0.628437147,-0.136509293,-0.718192083
5,16071,1069280,0.965,-0.139,0.17,1.5,0.5,1.8,-3.7,22.8,-21.5,0.265663625,-0.628437147,-0.136509293,-0.718192083
6,18179,1069280,0.965,-0.139,0.174,1.5,0.4,1.8,-3.9,23,-21.7,0.265694143,-0.628437147,-0.136509293,-0.718192083
7,20386,1069280,0.969,-0.135,0.174,1.5,0.3,1.7,-3.9,23,-21.7,0.265755181,-0.628406629,-0.136509293,-0.718161565
8,23342,1069290,0.969,-0.135,0.174,1.5,0.2,1.7,-3.9,23,-21.7,0.265816218,-0.628406629,-0.136509293,-0.718161565
9,25615,1069290,0.973,-0.139,0.178,1.5,0.2,1.7,-3.9,23,-21.7,0.265846736,-0.628406629,-0.136509293,-0.718161565
10,28794,1069290,0.969,-0.139,0.17,1.4,0.3,1.7,-3.5,23.3,-21.5,0.265907773,-0.628406629,-0.136509293,-0.718131046
11,30696,1069290,0.969,-0.139,0.17,1.6,0.3,1.8,-3.5,23.3,-21.5,0.26596881,-0.62837611,-0.136509293,-0.718131046
12,32961,1069300,0.969,-0.139,0.17,1.6,0.3,1.8,-3.5,23.3,-21.5,0.26596881,-0.62837611,-0.136509293,-0.718131046
13,36118,1069300,0.977,-0.139,0.17,1.5,0.4,1.9,-3.5,23.3,-21.5,0.266060366,-0.62837611,-0.136478774,-0.718100528
14,38173,1069300,0.977,-0.139,0.17,1.5,0.4,1.8,-3.6,23.2,-21.7,0.266090884,-0.628345592,-0.136478774,-0.718100528
15,40457,1069300,0.977,-0.139,0.174,1.5,0.4,1.7,-3.6,23.2,-21.7,0.266151921,-0.628345592,-0.136478774,-0.718100528
16,43588,1069310,0.973,-0.139,0.174,1.5,0.4,1.5,-3.6,23.2,-21.7,0.266212958,-0.628345592,-0.136478774,-0.718100528
17,45733,1069310,0.977,-0.139,0.178,1.4,0.3,1.4,-3.6,23.2,-21.7,0.266243477,-0.628315073,-0.136478774,-0.718070009
18,47939,1069310,0.977,-0.139,0.178,1.4,0.3,1.4,-3.6,23.2,-21.7,0.266243477,-0.628315073,-0.136478774,-0.718070009
19,51141,1069310,0.973,-0.147,0.178,1.3,0.3,1.4,-3.3,22.5,-21.2,0.266335032,-0.628315073,-0.136478774,-0.718039491
20,53277,1069320,0.973,-0.143,0.182,1.4,0.2,1.4,-3.3,22.5,-21.2,0.266396069,-0.628315073,-0.136478774,-0.718039491
21,55426,1069320,0.977,-0.139,0.174,1.4,0.2,1.3,-3.3,22.5,-21.2,0.266426588,-0.628315073,-0.136478774,-0.718039491
22,58880,1069320,0.985,-0.136,0.173,1.5,0.2,1.3,-3.6,22.9,-21.3,0.266487625,-0.628284555,-0.136478774,-0.718039491
23,60885,1069320,0.985,-0.14,0.17,1.5,0.3,1.3,-3.6,22.9,-21.3,0.266518143,-0.628284555,-0.136478774,-0.718008972
24,62962,1069330,0.977,-0.139,0.174,1.5,0.3,1.3,-3.6,22.9,-21.3,0.266548662,-0.628284555,-0.136478774,-0.718008972
25,65808,1069330,0.977,-0.139,0.178,1.5,0.4,1.3,-3.6,22.9,-21.3,0.266609699,-0.628254036,-0.136478774,-0.718008972
26,69019,1069330,0.977,-0.139,0.181,1.5,0.4,1.3,-3.8,23.1,-21.5,0.266640217,-0.628254036,-0.136478774,-0.718008972
27,70449,1069330,0.985,-0.136,0.181,1.5,0.3,1.4,-3.8,23.1,-21.5,0.266701254,-0.628223518,-0.136509293,-0.717978454
28,73565,1069340,0.977,-0.139,0.174,1.5,0.3,1.5,-3.8,23.1,-21.5,0.266731773,-0.628223518,-0.136509293,-0.717978454
29,76830,1069340,0.977,-0.139,0.178,1.5,0.2,1.7,-3.8,23.1,-21.5,0.26679281,-0.628223518,-0.136509293,-0.717978454
30,78758,1069340,0.973,-0.139,0.182,1.4,0.2,1.6,-3.7,22.9,-21.2,0.266823328,-0.628223518,-0.136478774,-0.717947935
31,81936,1069340,0.977,-0.135,0.181,1.4,0.3,1.7,-3.7,22.9,-21.2,0.266884365,-0.628192999,-0.136478774,-0.717947935
32,84051,1069350,0.977,-0.135,0.178,1.3,0.4,1.6,-3.7,22.9,-21.2,0.266945402,-0.628192999,-0.136478774,-0.717947935
33,85471,1069350,0.973,-0.135,0.182,1.3,0.4,1.6,-3.7,22.9,-21.2,0.266975921,-0.628192999,-0.136478774,-0.717917417
34,89326,1069350,0.977,-0.139,0.178,1.3,0.3,1.6,-4.3,23,-21.3,0.267036958,-0.628162481,-0.136478774,-0.717917417
35,90689,1069350,0.973,-0.135,0.178,1.3,0.3,1.6,-4.3,23,-21.3,0.267067476,-0.628162481,-0.136478774,-0.717917417
36,93006,1069360,0.977,-0.135,0.178,1.4,0.2,1.5,-4.3,23,-21.3,0.267097995,-0.628162481,-0.136478774,-0.717917417
37,95799,1069360,0.977,-0.139,0.174,1.5,0.2,1.5,-4.3,23,-21.3,0.267159032,-0.628162481,-0.136478774,-0.717886898
38,99010,1069360,0.977,-0.139,0.174,1.5,0.2,1.5,-4.3,23,-21.3,0.267159032,-0.628162481,-0.136478774,-0.717886898
39,100534,1069360,0.977,-0.135,0.178,1.7,0.3,1.6,-2.7,21.7,-21.2,0.267250587,-0.628101444,-0.136509293,-0.717886898
40,102960,1069370,0.977,-0.132,0.178,1.7,0.4,1.8,-2.7,21.7,-21.2,0.267311625,-0.628101444,-0.136509293,-0.717886898
41,107259,1069370,0.973,-0.135,0.178,1.9,0.3,1.8,-2.7,21.7,-21.2,0.267372662,-0.628070925,-0.136509293,-0.717886898
42,108737,1069370,0.977,-0.139,0.174,1.9,0.2,1.7,-4.4,23,-21.3,0.26740318,-0.628070925,-0.136509293,-0.71785638
43,110234,1069370,0.977,-0.135,0.178,2,0,1.6,-4.4,23,-21.3,0.267464217,-0.628070925,-0.136509293,-0.71785638
44,113126,1069380,0.977,-0.128,0.181,2,0,1.5,-4.4,23,-21.3,0.267525254,-0.628040407,-0.136539811,-0.717825861
45,117265,1069380,0.977,-0.132,0.178,2,0.2,1.6,-4.4,23,-21.3,0.267586291,-0.628040407,-0.136539811,-0.717825861
46,119528,1069380,0.977,-0.135,0.17,2,0.3,1.8,-4.5,23.3,-21.2,0.267647328,-0.628040407,-0.136539811,-0.717825861
47,121554,1069380,0.973,-0.135,0.174,2,0.5,1.8,-4.5,23.3,-21.2,0.267677847,-0.628009888,-0.136539811,-0.717795343
48,123002,1069390,0.977,-0.135,0.181,2,0.5,1.9,-4.5,23.3,-21.2,0.267738884,-0.628009888,-0.136539811,-0.717795343
49,126203,1069390,0.981,-0.136,0.177,2,0.5,2,-4.5,23.3,-21.2,0.267799921,-0.627979369,-0.136539811,-0.717795343
50,129101,1069390,0.977,-0.135,0.174,2,0.6,1.9,-4.2,23.3,-21.4,0.267860958,-0.627979369,-0.136539811,-0.717764824
51,130461,1069390,0.973,-0.135,0.178,2,0.8,1.9,-4.2,23.3,-21.4,0.267921995,-0.627948851,-0.136539811,-0.717764824
52,133663,1069400,0.973,-0.139,0.178,1.9,0.9,1.8,-4.2,23.3,-21.4,0.267983032,-0.627918332,-0.136539811,-0.717764824
53,136847,1069400,0.973,-0.139,0.17,1.9,1,1.8,-4.2,23.3,-21.4,0.268044069,-0.627918332,-0.136539811,-0.717764824
54,138904,1069400,0.973,-0.143,0.174,1.8,1,1.8,-3.8,23.3,-21.3,0.268105106,-0.627887814,-0.136539811,-0.717764824
55,140433,1069400,0.973,-0.143,0.174,1.7,1.1,1.8,-3.8,23.3,-21.3,0.268166143,-0.627857295,-0.136539811,-0.717764824
56,143232,1069410,0.969,-0.151,0.174,1.5,1.1,1.9,-3.8,23.3,-21.3,0.26822718,-0.627826777,-0.136539811,-0.717764824
57,146359,1069410,0.973,-0.147,0.178,1.5,1.1,1.8,-3.8,23.3,-21.3,0.268288217,-0.627826777,-0.136509293,-0.717764824
58,147863,1069410,0.973,-0.147,0.178,1.5,1.1,1.8,-3.8,23.3,-21.3,0.268288217,-0.627826777,-0.136509293,-0.717764824
59,151837,1069410,0.969,-0.143,0.178,1.4,1,1.6,-3,22.6,-21.1,0.268440809,-0.627796258,-0.136417737,-0.717734306
60,154059,1069420,0.969,-0.143,0.174,1.5,0.9,1.6,-3,22.6,-21.1,0.268501846,-0.627796258,-0.136417737,-0.717734306
61,156398,1069420,0.969,-0.143,0.17,1.5,0.9,1.6,-3,22.6,-21.1,0.268532365,-0.62776574,-0.136417737,-0.717734306
62,158285,1069420,0.965,-0.143,0.178,1.5,0.8,1.6,-3.4,23,-21.3,0.268593402,-0.627735221,-0.136417737,-0.717734306
63,161544,1069420,0.969,-0.151,0.178,1.5,0.8,1.6,-3.4,23,-21.3,0.268654439,-0.627735221,-0.136417737,-0.717734306
64,163698,1069430,0.961,-0.147,0.174,1.7,0.7,1.6,-3.4,23,-21.3,0.268684957,-0.627704703,-0.136417737,-0.717703787
65,166867,1069430,0.961,-0.151,0.186,1.9,0.7,1.5,-3.4,23,-21.3,0.268745994,-0.627704703,-0.136417737,-0.717703787
66,168902,1069430,0.957,-0.143,0.174,2.2,0.6,1.4,-3.1,23,-21.3,0.268807031,-0.627674184,-0.136417737,-0.717703787
67,170348,1069430,0.965,-0.139,0.178,2.3,0.6,1.4,-3.1,23,-21.3,0.268868068,-0.627643666,-0.136448256,-0.717703787
68,173282,1069440,0.961,-0.143,0.178,2.5,0.5,1.4,-3.1,23,-21.3,0.268929106,-0.627643666,-0.136448256,-0.717703787
69,176190,1069440,0.961,-0.143,0.182,2.5,0.5,1.3,-3.1,23,-21.3,0.268990143,-0.627613147,-0.136478774,-0.717673269
70,177754,1069440,0.961,-0.143,0.178,2.5,0.6,1.3,-3,22.7,-21.4,0.269020661,-0.627582629,-0.136509293,-0.717673269
71,180209,1069440,0.961,-0.143,0.178,2.5,0.8,1.3,-3,22.7,-21.4,0.269081698,-0.627582629,-0.136509293,-0.717673269
72,184741,1069450,0.961,-0.139,0.17,2.5,0.9,1.3,-3,22.7,-21.4,0.269142735,-0.62755211,-0.136539811,-0.717673269
73,186855,1069450,0.957,-0.135,0.174,2.5,0.9,1.3,-3,22.7,-21.4,0.269203772,-0.627521592,-0.136539811,-0.717673269
74,188158,1069450,0.961,-0.139,0.174,2.4,1,1.2,-2.4,22.7,-21.2,0.269264809,-0.627491073,-0.13657033,-0.717673269
75,192326,1069450,0.961,-0.139,0.174,2.4,1,1,-2.4,22.7,-21.2,0.269325846,-0.627460555,-0.13657033,-0.717673269
76,194359,1069460,0.969,-0.139,0.174,2.5,1.1,0.9,-2.4,22.7,-21.2,0.269356365,-0.627430036,-0.136600848,-0.717673269
77,195730,1069460,0.969,-0.143,0.17,2.5,1.1,0.8,-2.4,22.7,-21.2,0.269417402,-0.627399518,-0.136631367,-0.717673269
78,198752,1069460,0.969,-0.143,0.17,2.5,1.1,0.8,-2.4,22.7,-21.2,0.269417402,-0.627399518,-0.136631367,-0.717673269
79,200279,1069460,0.969,-0.135,0.178,2.8,1.1,0.9,-3.5,22.6,-21.5,0.269539476,-0.627368999,-0.136661885,-0.71764275
80,203152,1069470,0.969,-0.139,0.17,2.8,1,0.9,-3.5,22.6,-21.5,0.269600513,-0.627338481,-0.136692404,-0.71764275
81,206254,1069470,0.969,-0.139,0.174,2.8,0.8,0.9,-3.5,22.6,-21.5,0.269631031,-0.627307962,-0.136722922,-0.71764275
82,207717,1069470,0.969,-0.135,0.17,2.7,0.6,0.9,-3.5,22.7,-21.4,0.269692068,-0.627277444,-0.136753441,-0.71764275
83,210642,1069470,0.973,-0.131,0.178,2.6,0.6,1,-3.5,22.7,-21.4,0.269753105,-0.627277444,-0.136783959,-0.71764275
84,213786,1069480,0.973,-0.131,0.178,2.6,0.5,1,-3.5,22.7,-21.4,0.269814142,-0.627246925,-0.136783959,-0.71764275
85,215294,1069480,0.977,-0.128,0.178,2.4,0.5,1,-3.5,22.7,-21.4,0.269844661,-0.627216407,-0.136814478,-0.71764275
86,219276,1069480,0.973,-0.128,0.182,2.2,0.4,0.9,-3.1,22.5,-21.8,0.269905698,-0.627216407,-0.136844996,-0.717612232
87,221255,1069480,0.977,-0.128,0.178,1.8,0.3,0.9,-3.1,22.5,-21.8,0.269936216,-0.627185888,-0.136844996,-0.717612232
88,222751,1069490,0.977,-0.128,0.178,1.4,0.1,1,-3.1,22.5,-21.8,0.269997253,-0.627185888,-0.136875515,-0.717612232
89,225706,1069490,0.977,-0.124,0.178,1.2,0,1.2,-3.1,22.5,-21.8,0.269997253,-0.627185888,-0.136875515,-0.717612232
90,227858,1069490,0.981,-0.12,0.177,0.9,-0.1,1.3,-3.4,22.4,-21.5,0.27005829,-0.627185888,-0.136875515,-0.717581713
91,230965,1069490,0.985,-0.12,0.177,0.8,-0.1,1.4,-3.4,22.4,-21.5,0.270088809,-0.627185888,-0.136844996,-0.717581713
92,234223,1069500,0.981,-0.116,0.174,0.8,-0.1,1.3,-3.4,22.4,-21.5,0.270119327,-0.627185888,-0.136844996,-0.717551195
93,236422,1069500,0.981,-0.12,0.174,0.8,-0.2,1.3,-3.4,22.4,-21.5,0.270149846,-0.627185888,-0.136844996,-0.717551195
94,237847,1069500,0.981,-0.124,0.177,0.7,-0.2,1.3,-3.1,22.6,-21.5,0.270180364,-0.627185888,-0.136844996,-0.717520676
95,240719,1069500,0.977,-0.12,0.17,0.8,-0.4,1.2,-3.1,22.6,-21.5,0.270210883,-0.627185888,-0.136844996,-0.717520676
96,243100,1069510,0.981,-0.116,0.177,0.8,-0.4,1.2,-3.1,22.6,-21.5,0.270241401,-0.627216407,-0.136844996,-0.717490158
97,246145,1069510,0.977,-0.116,0.177,0.9,-0.3,1.2,-3.1,22.6,-21.5,0.27027192,-0.627216407,-0.136844996,-0.717490158
98,249169,1069510,0.977,-0.116,0.177,0.9,-0.3,1.2,-3.1,22.6,-21.5,0.27027192,-0.627216407,-0.136844996,-0.717490158
99,251353,1069510,0.977,-0.124,0.174,1.2,0,1.2,-4.4,22.5,-21.4,0.270180364,-0.627185888,-0.137058626,-0.717520676
100,252744,1069520,0.977,-0.12,0.178,1.4,0.2,1.1,-4.4,22.5,-21.4,0.270210883,-0.62715537,-0.137058626,-0.717490158
101,255952,1069520,0.973,-0.124,0.178,1.5,0.2,1.1,-4.4,22.5,-21.4,0.270241401,-0.62715537,-0.137058626,-0.717490158
102,258148,1069520,0.977,-0.128,0.17,1.4,0.2,1,-2.4,23,-21.4,0.27027192,-0.62715537,-0.137089145,-0.717490158
103,261213,1069520,0.969,-0.128,0.174,1.2,0.3,1,-2.4,23,-21.4,0.270332957,-0.627124851,-0.137089145,-0.717490158
104,264472,1069530,0.969,-0.131,0.178,1,0.5,1,-2.4,23,-21.4,0.270363475,-0.627124851,-0.137089145,-0.717490158
105,266713,1069530,0.965,-0.135,0.17,0.8,0.6,0.9,-2.4,23,-21.4,0.270393994,-0.627124851,-0.137089145,-0.717490158
106,268893,1069530,0.965,-0.135,0.17,0.7,0.6,0.9,-2.9,22.8,-21.3,0.270393994,-0.627094333,-0.137058626,-0.717490158
107,271757,1069530,0.961,-0.139,0.166,0.6,0.6,0.8,-2.9,22.8,-21.3,0.270424512,-0.627094333,-0.137058626,-0.717490158
108,273106,1069540,0.965,-0.135,0.166,0.4,0.5,0.8,-2.9,22.8,-21.3,0.270455031,-0.627063814,-0.137058626,-0.717490158
109,276229,1069540,0.961,-0.139,0.166,0.3,0.5,0.7,-2.9,22.8,-21.3,0.270485549,-0.627063814,-0.137058626,-0.717490158
110,279088,1069540,0.969,-0.135,0.17,0.2,0.5,0.6,-2.5,22.9,-21.3,0.270485549,-0.627063814,-0.137028108,-0.717490158
111,280624,1069540,0.965,-0.139,0.162,0,0.4,0.5,-2.5,22.9,-21.3,0.270485549,-0.627063814,-0.137028108,-0.717490158
112,283975,1069550,0.965,-0.139,0.17,0,0.3,0.7,-2.5,22.9,-21.3,0.270516068,-0.627063814,-0.137028108,-0.717490158
113,285879,1069550,0.961,-0.139,0.17,0,0.1,0.7,-2.5,22.9,-21.3,0.270516068,-0.627063814,-0.136997589,-0.717490158
114,288173,1069550,0.965,-0.139,0.174,-0.1,-0.1,0.7,-2.5,23,-21.2,0.270546587,-0.627063814,-0.136997589,-0.717490158
115,292196,1069550,0.965,-0.147,0.166,-0.2,-0.3,0.6,-2.5,23,-21.2,0.270546587,-0.627063814,-0.136997589,-0.717490158
116,294322,1069560,0.961,-0.135,0.174,-0.3,-0.5,0.6,-2.5,23,-21.2,0.270546587,-0.627063814,-0.136936552,-0.717459639
117,296696,1069560,0.957,-0.139,0.174,-0.3,-0.5,0.7,-2.5,23,-21.2,0.270546587,-0.627094333,-0.136936552,-0.717459639
118,298904,1069560,0.957,-0.139,0.174,-0.3,-0.5,0.7,-2.5,23,-21.2,0.270546587,-0.627094333,-0.136936552,-0.717459639
119,300962,1069560,0.957,-0.131,0.178,-0.2,-0.6,0.7,-3.6,22.3,-21.4,0.270546587,-0.62715537,-0.136936552,-0.717398602
120,303169,1069570,0.961,-0.135,0.174,-0.2,-0.6,0.5,-3.6,22.3,-21.4,0.270546587,-0.62715537,-0.136936552,-0.717398602
121,305660,1069570,0.961,-0.131,0.178,-0.2,-0.6,0.5,-3.6,22.3,-21.4,0.270546587,-0.627185888,-0.136936552,-0.717398602
122,308091,1069570,0.957,-0.135,0.178,-0.2,-0.5,0.5,-2.8,22.9,-21.3,0.270546587,-0.627185888,-0.136936552,-0.717368084
123,312053,1069570,0.961,-0.139,0.178,-0.2,-0.6,0.5,-2.8,22.9,-21.3,0.270546587,-0.627216407,-0.136906034,-0.717368084
124,314104,1069580,0.961,-0.131,0.178,-0.2,-0.6,0.5,-2.8,22.9,-21.3,0.270546587,-0.627216407,-0.136906034,-0.717368084
125,316497,1069580,0.957,-0.139,0.178,-0.3,-0.6,0.4,-2.8,22.9,-21.3,0.270546587,-0.627246925,-0.136906034,-0.717337565
126,318382,1069580,0.965,-0.139,0.178,-0.4,-0.6,0.4,-3.2,22.8,-21.4,0.270546587,-0.627246925,-0.136906034,-0.717337565
127,320723,1069580,0.957,-0.131,0.178,-0.4,-0.7,0.4,-3.2,22.8,-21.4,0.270546587,-0.627246925,-0.136875515,-0.717307047
128,323045,1069590,0.961,-0.135,0.178,-0.4,-0.8,0.6,-3.2,22.8,-21.4,0.270546587,-0.627277444,-0.136875515,-0.717307047
129,325373,1069590,0.961,-0.135,0.182,-0.4,-0.9,0.7,-3.2,22.8,-21.4,0.270546587,-0.627307962,-0.136875515,-0.717307047
130,329584,1069590,0.961,-0.131,0.182,-0.3,-1,0.6,-2.8,22.5,-21.1,0.270577105,-0.627307962,-0.136844996,-0.717276528
131,331816,1069590,0.965,-0.124,0.182,-0.2,-1,0.4,-2.8,22.5,-21.1,0.270577105,-0.627338481,-0.136844996,-0.71724601
132,334106,1069600,0.965,-0.131,0.182,-0.3,-1,0.2,-2.8,22.5,-21.1,0.270546587,-0.627368999,-0.136844996,-0.71724601
133,336310,1069600,0.969,-0.127,0.178,-0.3,-1,0,-2.8,22.5,-21.1,0.270546587,-0.627368999,-0.136844996,-0.717215491
134,338336,1069600,0.973,-0.128,0.182,-0.3,-0.9,0,-2.8,22.7,-21.3,0.270546587,-0.627399518,-0.136844996,-0.717215491
135,341925,1069600,0.973,-0.124,0.178,-0.4,-0.8,0,-2.8,22.7,-21.3,0.270546587,-0.627399518,-0.136844996,-0.717215491
136,344140,1069610,0.977,-0.12,0.178,-0.5,-0.8,0,-2.8,22.7,-21.3,0.270516068,-0.627430036,-0.136844996,-0.717184973
137,346546,1069610,0.973,-0.124,0.181,-0.6,-0.9,0,-2.8,22.7,-21.3,0.270516068,-0.627460555,-0.136844996,-0.717184973
138,348764,1069610,0.973,-0.124,0.181,-0.6,-0.9,0,-2.8,22.7,-21.3,0.270516068,-0.627460555,-0.136844996,-0.717184973
139,350644,1069610,0.977,-0.128,0.174,-0.9,-0.9,0.1,-3.4,22.6,-21.4,0.270363475,-0.627430036,-0.136936552,-0.71724601
140,354166,1069620,0.977,-0.124,0.174,-1,-0.9,0.1,-3.4,22.6,-21.4,0.270332957,-0.627460555,-0.136936552,-0.717215491
141,356271,1069620,0.981,-0.124,0.177,-1,-0.8,0.1,-3.4,22.6,-21.4,0.270332957,-0.627460555,-0.136936552,-0.717215491
142,358452,1069620,0.981,-0.128,0.177,-1.1,-0.9,0,-3.3,22.3,-21.1,0.270302438,-0.627491073,-0.136936552,-0.717215491
143,360497,1069620,0.977,-0.12,0.17,-1,-0.9,0,-3.3,22.3,-21.1,0.270302438,-0.627521592,-0.136936552,-0.717184973
144,362934,1069630,0.977,-0.128,0.178,-1.1,-0.9,0,-3.3,22.3,-21.1,0.27027192,-0.627521592,-0.136906034,-0.717184973
145,366631,1069630,0.973,-0.128,0.174,-1.1,-0.9,0,-3.3,22.3,-21.1,0.270241401,-0.62755211,-0.136906034,-0.717184973
146,368286,1069630,0.977,-0.128,0.174,-1.2,-1,0,-3.2,22.4,-20.6,0.270241401,-0.627582629,-0.136875515,-0.717154454
147,370438,1069630,0.977,-0.124,0.174,-1.1,-1,0,-3.2,22.4,-20.6,0.270210883,-0.627613147,-0.136875515,-0.717154454
148,372787,1069640,0.977,-0.128,0.174,-1.2,-1,0,-3.2,22.4,-20.6,0.270180364,-0.627613147,-0.136875515,-0.717154454
149,377093,1069640,0.977,-0.128,0.174,-1.2,-0.9,-0.1,-3.2,22.4,-20.6,0.270180364,-0.627643666,-0.136844996,-0.717154454
150,379439,1069640,0.977,-0.128,0.178,-1.2,-0.8,0,-3.4,22.2,-20,0.270149846,-0.627674184,-0.136844996,-0.717123936
151,381553,1069640,0.973,-0.124,0.178,-1.4,-0.7,0,-3.4,22.2,-20,0.270119327,-0.627674184,-0.136814478,-0.717123936
152,383868,1069650,0.973,-0.128,0.178,-1.5,-0.8,0,-3.4,22.2,-20,0.270119327,-0.627704703,-0.136814478,-0.717123936
153,385964,1069650,0.973,-0.128,0.174,-1.6,-0.9,0,-3.4,22.2,-20,0.270088809,-0.627735221,-0.136783959,-0.717123936
154,387886,1069650,0.969,-0.127,0.178,-1.7,-1,-0.1,-3.1,22.3,-19.4,0.27005829,-0.62776574,-0.136753441,-0.717093417
155,391026,1069650,0.965,-0.127,0.174,-1.7,-1,-0.1,-3.1,22.3,-19.4,0.269997253,-0.627796258,-0.136753441,-0.717093417
156,394022,1069660,0.965,-0.131,0.178,-1.8,-0.9,-0.1,-3.1,22.3,-19.4,0.269997253,-0.627796258,-0.136722922,-0.717093417
157,396492,1069660,0.965,-0.127,0.174,-1.8,-0.6,0,-3.1,22.3,-19.4,0.269966735,-0.627826777,-0.136692404,-0.717093417
158,398409,1069660,0.965,-0.127,0.174,-1.8,-0.6,0,-3.1,22.3,-19.4,0.269966735,-0.627826777,-0.136692404,-0.717093417
159,400771,1069660,0.965,-0.131,0.174,-1.9,-0.6,0,-3.3,22.5,-22.8,0.269814142,-0.627826777,-0.136783959,-0.717123936
160,402969,1069670,0.965,-0.139,0.178,-2,-0.6,-0.1,-3.3,22.5,-22.8,0.269783624,-0.627857295,-0.136753441,-0.717123936
161,405390,1069670,0.965,-0.135,0.174,-2,-0.6,-0.2,-3.3,22.5,-22.8,0.269753105,-0.627857295,-0.136722922,-0.717123936
162,407796,1069670,0.961,-0.135,0.178,-2,-0.6,-0.3,-3.4,22.2,-20.6,0.269722587,-0.627887814,-0.136692404,-0.717123936
163,411177,1069670,0.961,-0.139,0.178,-2.1,-0.6,-0.2,-3.4,22.2,-20.6,0.26966155,-0.627918332,-0.136661885,-0.717123936
164,413206,1069680,0.961,-0.139,0.178,-2.3,-0.5,-0.2,-3.4,22.2,-20.6,0.269631031,-0.627948851,-0.136631367,-0.717123936
165,415630,1069680,0.961,-0.139,0.178,-2.4,-0.5,-0.2,-3.4,22.2,-20.6,0.269600513,-0.627948851,-0.136600848,-0.717123936
166,419410,1069680,0.961,-0.147,0.174,-2.5,-0.5,-0.2,-3.1,22.6,-20.8,0.269569994,-0.627979369,-0.13657033,-0.717123936
167,421421,1069680,0.961,-0.139,0.174,-2.6,-0.6,-0.1,-3.1,22.6,-20.8,0.269508957,-0.628009888,-0.136539811,-0.717123936
168,423746,1069690,0.961,-0.135,0.182,-2.7,-0.6,-0.2,-3.1,22.6,-20.8,0.269478439,-0.628040407,-0.136509293,-0.717123936
169,425652,1069690,0.969,-0.135,0.178,-2.7,-0.7,-0.3,-3.1,22.6,-20.8,0.269417402,-0.628070925,-0.136478774,-0.717123936
170,428034,1069690,0.969,-0.147,0.178,-2.8,-0.8,-0.3,-3.3,22.4,-20.7,0.269386883,-0.628101444,-0.136448256,-0.717123936
171,431891,1069690,0.977,-0.143,0.178,-2.8,-0.9,-0.4,-3.3,22.4,-20.7,0.269325846,-0.628131962,-0.136387219,-0.717123936
172,434313,1069700,0.969,-0.139,0.178,-2.8,-0.9,-0.4,-3.3,22.4,-20.7,0.269295328,-0.628162481,-0.1363567,-0.717123936
173,436471,1069700,0.973,-0.139,0.17,-2.9,-0.9,-0.6,-3.3,22.4,-20.7,0.269234291,-0.628192999,-0.136326182,-0.717123936
174,438762,1069700,0.977,-0.139,0.178,-2.9,-1,-0.8,-3.3,22.4,-20.5,0.269173254,-0.628223518,-0.136295663,-0.717123936
175,440642,1069700,0.973,-0.143,0.185,-2.9,-1,-0.9,-3.3,22.4,-20.5,0.269112217,-0.628254036,-0.136265145,-0.717123936
176,442954,1069710,0.977,-0.139,0.181,-3,-1.1,-1,-3.3,22.4,-20.5,0.26905118,-0.628284555,-0.136265145,-0.717123936
177,446235,1069710,0.973,-0.135,0.185,-3,-1.1,-1,-3.3,22.4,-20.5,0.268990143,-0.628315073,-0.136234626,-0.717123936
178,447842,1069710,0.973,-0.135,0.185,-3,-1.1,-1,-3.3,22.4,-20.5,0.268990143,-0.628315073,-0.136234626,-0.717123936
179,451744,1069710,0.973,-0.135,0.185,-3,-1.1,-1,-3.3,22.4,-20.5,0.268990143,-0.628315073,-0.136234626,-0.717123936
180,454143,1069720,0.973,-0.139,0.178,-2.8,-0.8,-0.8,-3.4,22.7,-22,0.268807031,-0.628345592,-0.136173589,-0.717184973
181,456268,1069720,0.969,-0.139,0.182,-2.8,-0.7,-0.9,-3.4,22.7,-22,0.268745994,-0.628345592,-0.136143071,-0.717184973
182,458439,1069720,0.973,-0.139,0.178,-2.9,-0.7,-0.9,-3.3,22.4,-21.3,0.268684957,-0.62837611,-0.136112552,-0.717184973
183,460685,1069720,0.969,-0.135,0.178,-2.9,-0.9,-1,-3.3,22.4,-21.3,0.26862392,-0.628406629,-0.136082034,-0.717184973
184,462762,1069730,0.969,-0.131,0.178,-3,-1.1,-1,-3.3,22.4,-21.3,0.268562883,-0.628437147,-0.136051515,-0.717184973
185,465259,1069730,0.973,-0.128,0.178,-3.1,-1.2,-0.9,-3.3,22.4,-21.3,0.268501846,-0.628467666,-0.136020997,-0.717184973
186,468960,1069730,0.969,-0.139,0.178,-3.2,-1.2,-0.9,-3.2,22.6,-21.8,0.268440809,-0.628528703,-0.13595996,-0.717184973
187,471336,1069730,0.973,-0.135,0.17,-3.3,-1.1,-0.9,-3.2,22.6,-21.8,0.268379772,-0.628559221,-0.13595996,-0.717184973
188,473292,1069740,0.969,-0.135,0.17,-3.3,-1.1,-0.9,-3.2,22.6,-21.8,0.268318735,-0.62858974,-0.135929441,-0.717184973
189,475593,1069740,0.973,-0.135,0.166,-3.3,-1.1,-0.9,-3.2,22.6,-21.8,0.268257698,-0.628620258,-0.135898923,-0.717184973
190,477821,1069740,0.965,-0.135,0.17,-3.1,-1,-1,-3.4,22.6,-22.2,0.268196661,-0.628650777,-0.135868404,-0.717184973
191,482094,1069740,0.965,-0.131,0.17,-3,-1,-1,-3.4,22.6,-22.2,0.268135624,-0.628681295,-0.135837886,-0.717184973
192,484320,1069750,0.969,-0.131,0.162,-2.8,-0.9,-1,-3.4,22.6,-22.2,0.268044069,-0.628711814,-0.135807367,-0.717184973
193,486627,1069750,0.969,-0.131,0.174,-2.7,-0.7,-1.1,-3.4,22.6,-22.2,0.26801355,-0.628742332,-0.135776849,-0.717184973
194,488897,1069750,0.969,-0.131,0.17,-2.6,-0.6,-1.1,-3.4,22.4,-21.7,0.267952513,-0.628742332,-0.135776849,-0.717215491
195,490772,1069750,0.965,-0.131,0.174,-2.6,-0.6,-1.2,-3.4,22.4,-21.7,0.267891476,-0.628772851,-0.13574633,-0.717215491
196,493080,1069760,0.969,-0.131,0.174,-2.6,-0.8,-1.3,-3.4,22.4,-21.7,0.267830439,-0.628803369,-0.13574633,-0.717215491
197,496500,1069760,0.969,-0.131,0.17,-2.6,-0.9,-1.2,-3.4,22.4,-21.7,0.267769402,-0.628833888,-0.135715812,-0.717215491
198,498740,1069760,0.969,-0.131,0.17,-2.6,-0.9,-1.2,-3.4,22.4,-21.7,0.267769402,-0.628833888,-0.135715812,-0.717215491
199,500762,1069760,0.965,-0.127,0.178,-2.8,-1.2,-0.9,-3.3,22.6,-20.7,0.267586291,-0.628894925,-0.135776849,-0.717215491
200,503080,1069770,0.969,-0.131,0.174,-2.8,-1.3,-0.9,-3.3,22.6,-20.7,0.267525254,-0.628925443,-0.13574633,-0.717215491
201,505461,1069770,0.965,-0.127,0.178,-3,-1.4,-0.9,-3.3,22.6,-20.7,0.267464217,-0.628955962,-0.135715812,-0.717215491
202,507845,1069770,0.969,-0.131,0.178,-3.3,-1.5,-1,-3.5,22.6,-21.6,0.26740318,-0.62898648,-0.135685293,-0.717215491
203,511452,1069770,0.965,-0.124,0.178,-3.6,-1.5,-1,-3.5,22.6,-21.6,0.267342143,-0.629047517,-0.135654775,-0.717215491
204,513749,1069780,0.969,-0.131,0.174,-3.8,-1.4,-1,-3.5,22.6,-21.6,0.267250587,-0.629078036,-0.135624256,-0.717215491
205,515825,1069780,0.969,-0.124,0.174,-4,-1.3,-0.8,-3.5,22.6,-21.6,0.26718955,-0.629108554,-0.135563219,-0.717215491
206,518028,1069780,0.973,-0.128,0.174,-4.2,-1.2,-0.7,-3.6,22,-21.9,0.267128513,-0.629169591,-0.135502182,-0.717215491
207,521245,1069780,0.969,-0.131,0.178,-4.3,-1.1,-0.6,-3.6,22,-21.9,0.267036958,-0.62920011,-0.135471664,-0.717215491
208,523281,1069790,0.969,-0.127,0.178,-4.4,-1.2,-0.6,-3.6,22,-21.9,0.266975921,-0.629261147,-0.135410627,-0.717215491
209,525549,1069790,0.969,-0.128,0.17,-4.5,-1.2,-0.7,-3.6,22,-21.9,0.266884365,-0.629291665,-0.13534959,-0.717215491
210,528770,1069790,0.965,-0.124,0.174,-4.5,-1.2,-0.8,-3.8,21.8,-21,0.266823328,-0.629322184,-0.135319071,-0.717215491
211,530793,1069790,0.965,-0.135,0.17,-4.5,-1.1,-0.7,-3.8,21.8,-21,0.266731773,-0.629383221,-0.135258034,-0.717215491
212,532954,1069800,0.969,-0.131,0.174,-4.6,-0.9,-0.8,-3.8,21.8,-21,0.266640217,-0.629413739,-0.135196997,-0.717215491
213,536203,1069800,0.973,-0.135,0.174,-4.7,-0.7,-0.9,-3.8,21.8,-21,0.26657918,-0.629444258,-0.13513596,-0.717215491
214,538331,1069800,0.977,-0.135,0.17,-4.7,-0.6,-1,-3.7,21.3,-21.4,0.266487625,-0.629474776,-0.135074923,-0.71724601
215,540232,1069800,0.969,-0.139,0.17,-4.7,-0.4,-1,-3.7,21.3,-21.4,0.266396069,-0.629535813,-0.134983367,-0.71724601
216,542903,1069810,0.973,-0.131,0.174,-4.6,-0.4,-1.1,-3.7,21.3,-21.4,0.266335032,-0.629566332,-0.134983367,-0.717276528
217,546608,1069810,0.973,-0.131,0.174,-4.7,-0.4,-1,-3.7,21.3,-21.4,0.266243477,-0.62959685,-0.13492233,-0.717276528
218,548932,1069810,0.973,-0.131,0.174,-4.7,-0.4,-1,-3.7,21.3,-21.4,0.266243477,-0.62959685,-0.13492233,-0.717276528
219,552026,1069810,0.969,-0.139,0.17,-5,-0.3,-1.1,-3.5,23.5,-19.9,0.265999329,-0.629627369,-0.134861293,-0.717337565
220,554379,1069820,0.973,-0.132,0.17,-5,-0.4,-1.2,-3.5,23.5,-19.9,0.265907773,-0.629657888,-0.134800256,-0.717337565
221,556585,1069820,0.973,-0.132,0.17,-5,-0.4,-1.2,-3.5,23.5,-19.9,0.265907773,-0.629657888,-0.134800256,-0.717337565
222,558811,1069820,0.973,-0.135,0.174,-5.2,-0.7,-1.2,-3.4,22,-22.1,0.265724662,-0.629718925,-0.134678182,-0.717368084
223,561145,1069820,0.973,-0.131,0.174,-5.4,-0.8,-1.2,-3.4,22,-22.1,0.265633106,-0.629779962,-0.134617145,-0.717398602
224,563087,1069830,0.973,-0.135,0.17,-5.6,-0.8,-1.2,-3.4,22,-22.1,0.265541551,-0.62981048,-0.134556108,-0.717398602
225,566339,1069830,0.977,-0.132,0.174,-5.8,-0.6,-1.2,-3.4,22,-22.1,0.265419477,-0.629871517,-0.134495071,-0.717429121
226,568441,1069830,0.973,-0.132,0.17,-5.9,-0.5,-1,-3.5,22.1,-22.4,0.265327921,-0.629871517,-0.134403516,-0.717429121
227,572049,1069830,0.973,-0.132,0.17,-6.1,-0.5,-1,-3.5,22.1,-22.4,0.265236366,-0.629932554,-0.134342479,-0.717459639
228,574122,1069840,0.973,-0.135,0.17,-6.1,-0.7,-1,-3.5,22.1,-22.4,0.265114292,-0.629993591,-0.134250923,-0.717459639
229,575502,1069840,0.969,-0.128,0.17,-6,-0.8,-1,-3.5,22.1,-22.4,0.265022736,-0.63002411,-0.134189886,-0.717459639
230,578789,1069840,0.973,-0.128,0.166,-6,-0.8,-1,-3.3,22.2,-22.6,0.264931181,-0.630085147,-0.134098331,-0.717490158
231,580908,1069840,0.973,-0.128,0.17,-6.1,-0.8,-1,-3.3,22.2,-22.6,0.264809107,-0.630115665,-0.134006775,-0.717490158
232,583067,1069850,0.969,-0.131,0.174,-6.2,-0.7,-1,-3.3,22.2,-22.6,0.264717551,-0.630176702,-0.133945738,-0.717520676
233,586291,1069850,0.973,-0.128,0.166,-6.2,-0.8,-0.9,-3.3,22.2,-22.6,0.264625996,-0.630207221,-0.133884701,-0.717520676
234,588393,1069850,0.973,-0.128,0.17,-6.2,-0.8,-0.9,-3.6,22.1,-22.3,0.264503922,-0.630268258,-0.133793146,-0.717551195
235,590494,1069850,0.969,-0.124,0.17,-6.2,-0.8,-0.9,-3.6,22.1,-22.3,0.264412366,-0.630298776,-0.13370159,-0.717551195
236,593858,1069860,0.969,-0.124,0.166,-6.3,-0.8,-0.9,-3.6,22.1,-22.3,0.264290292,-0.630359813,-0.133640553,-0.717551195
237,595932,1069860,0.973,-0.128,0.166,-6.4,-0.6,-0.9,-3.6,22.1,-22.3,0.264198737,-0.630390332,-0.133548997,-0.717581713
238,598065,1069860,0.973,-0.128,0.166,-6.4,-0.6,-0.9,-3.6,22.1,-22.3,0.264198737,-0.630390332,-0.133548997,-0.717581713
239,601238,1069860,0.965,-0.127,0.166,-6.7,-0.6,-0.9,-3.5,23.7,-20.9,0.263832514,-0.630451369,-0.133548997,-0.71764275
240,603292,1069870,0.973,-0.128,0.17,-6.8,-0.6,-0.8,-3.5,23.7,-20.9,0.26371044,-0.630512406,-0.133457442,-0.717673269
241,606262,1069870,0.969,-0.128,0.166,-7,-0.6,-0.8,-3.5,23.7,-20.9,0.263588366,-0.630573443,-0.133365886,-0.717673269
242,609063,1069870,0.969,-0.128,0.162,-7.2,-0.5,-0.8,-3.7,22.8,-21,0.263496811,-0.630603961,-0.133274331,-0.717703787
243,611268,1069870,0.973,-0.132,0.158,-7.4,-0.3,-0.8,-3.7,22.8,-21,0.263374737,-0.630664998,-0.133182775,-0.717734306
244,614002,1069880,0.977,-0.136,0.154,-7.5,-0.2,-0.7,-3.7,22.8,-21,0.263252663,-0.630695517,-0.133030183,-0.717734306
245,615387,1069880,0.973,-0.132,0.154,-7.6,0,-0.7,-3.7,22.8,-21,0.263130589,-0.630756554,-0.132969146,-0.717764824
246,618629,1069880,0.973,-0.135,0.154,-7.6,0,-0.7,-3.5,23.1,-21.2,0.263008515,-0.630787072,-0.132847072,-0.717795343
247,620639,1069880,0.973,-0.136,0.15,-7.6,0.3,-0.8,-3.5,23.1,-21.2,0.262886441,-0.630817591,-0.132724998,-0.717825861
248,623752,1069890,0.977,-0.136,0.142,-7.5,0.5,-1,-3.5,23.1,-21.2,0.262764367,-0.630848109,-0.132633442,-0.71785638
249,625235,1069890,0.973,-0.132,0.142,-7.3,0.6,-1.1,-3.5,23.1,-21.2,0.262672811,-0.630878628,-0.132541887,-0.717886898
250,628080,1069890,0.977,-0.14,0.142,-7.2,0.8,-1.2,-3.5,23.5,-21,0.262550737,-0.630909146,-0.132419813,-0.717947935
251,631257,1069890,0.973,-0.136,0.146,-7,1,-1.4,-3.5,23.5,-21,0.262428663,-0.630939665,-0.132328257,-0.717978454
252,634013,1069900,0.973,-0.139,0.15,-7,1.3,-1.5,-3.5,23.5,-21,0.262306589,-0.630939665,-0.132236702,-0.718039491
253,635496,1069900,0.973,-0.136,0.15,-7,1.4,-1.6,-3.5,23.5,-21,0.262184515,-0.630939665,-0.132145146,-0.718070009
254,638343,1069900,0.969,-0.143,0.146,-7.1,1.5,-1.7,-3.6,23.3,-21,0.262062441,-0.630970183,-0.132053591,-0.718131046
255,641398,1069900,0.977,-0.136,0.146,-7.2,1.5,-1.6,-3.6,23.3,-21,0.261940367,-0.630970183,-0.131931516,-0.718192083
256,643604,1069910,0.977,-0.136,0.142,-7.4,1.4,-1.6,-3.6,23.3,-21,0.261818293,-0.631000702,-0.131839961,-0.718222602
257,645648,1069910,0.977,-0.132,0.142,-7.7,1.2,-1.4,-3.6,23.3,-21,0.261696219,-0.631000702,-0.131717887,-0.718283639
258,648780,1069910,0.977,-0.132,0.142,-7.7,1.2,-1.4,-3.6,23.3,-21,0.261696219,-0.631000702,-0.131717887,-0.718283639
259,651667,1069910,0.973,-0.132,0.142,-8.4,0.8,-1.2,-3.6,22.7,-20.9,0.261299478,-0.631397443,-0.131626331,-0.718131046
260,653807,1069920,0.973,-0.124,0.146,-8.7,0.5,-1,-3.6,22.7,-20.9,0.261146886,-0.631427961,-0.131473739,-0.718161565
261,656564,1069920,0.965,-0.116,0.139,-9,0.1,-0.8,-3.6,22.7,-20.9,0.261024812,-0.63145848,-0.131351665,-0.718192083
262,657908,1069920,0.965,-0.116,0.146,-9.1,-0.2,-0.5,-3.6,23.5,-21,0.260902738,-0.631519517,-0.131229591,-0.718222602
263,661299,1069920,0.969,-0.108,0.138,-9.2,-0.4,-0.1,-3.6,23.5,-21,0.260750145,-0.631580554,-0.131076998,-0.718253121
264,663487,1069930,0.965,-0.104,0.142,-9.1,-0.7,0.1,-3.6,23.5,-21,0.260628071,-0.631641591,-0.130954924,-0.718253121
265,665468,1069930,0.965,-0.1,0.146,-9,-1.1,0.3,-3.6,23.5,-21,0.260505997,-0.631733146,-0.130802332,-0.718253121
266,668599,1069930,0.969,-0.096,0.142,-8.8,-1.6,0.4,-3.8,23,-20.7,0.260383923,-0.631794183,-0.130649739,-0.718253121
267,671598,1069930,0.969,-0.096,0.146,-8.7,-2.1,0.5,-3.8,23,-20.7,0.26023133,-0.631885739,-0.130527665,-0.718253121
268,673039,1069940,0.969,-0.093,0.142,-8.5,-2.4,0.7,-3.8,23,-20.7,0.260170293,-0.631977294,-0.130405591,-0.718253121
269,676113,1069940,0.973,-0.081,0.142,-8.4,-2.8,1,-3.8,23,-20.7,0.260048219,-0.63206885,-0.130283517,-0.718222602
270,679023,1069940,0.977,-0.081,0.134,-8.2,-3,1.1,-3.9,23.1,-20.6,0.259956664,-0.632160405,-0.130100406,-0.718192083
271,680507,1069940,0.977,-0.073,0.13,-8,-3.1,1.2,-3.9,23.1,-20.6,0.25983459,-0.632251961,-0.13000885,-0.718161565
272,683745,1069950,0.981,-0.077,0.126,-7.9,-3.1,1.2,-3.9,23.1,-20.6,0.259743034,-0.632374035,-0.129886776,-0.718131046
273,685753,1069950,0.984,-0.077,0.126,-7.8,-3,1.3,-3.9,23.1,-20.6,0.259651479,-0.63246559,-0.129764702,-0.718100528
274,688060,1069950,0.992,-0.073,0.122,-7.7,-3.1,1.4,-4.1,22.9,-20.6,0.259559923,-0.632557146,-0.129642628,-0.718070009
275,691356,1069950,0.996,-0.07,0.118,-7.6,-3.2,1.4,-4.1,22.9,-20.6,0.259468368,-0.632648701,-0.129520554,-0.718039491
276,693263,1069960,1.004,-0.062,0.118,-7.4,-3.3,1.3,-4.1,22.9,-20.6,0.259376812,-0.632740257,-0.12939848,-0.718008972
277,695535,1069960,1.008,-0.066,0.122,-7.2,-3.4,1,-4.1,22.9,-20.6,0.259285257,-0.632862331,-0.129306925,-0.717978454
278,698117,1069960,1.008,-0.066,0.122,-7.2,-3.4,1,-4.1,22.9,-20.6,0.259285257,-0.632862331,-0.129306925,-0.717978454
279,700410,1069960,1.016,-0.066,0.118,-7.4,-2.9,0.6,-2.9,22.2,-20.7,0.258644368,-0.633228553,-0.129581591,-0.717825861
280,704862,1069970,1.023,-0.058,0.11,-7.6,-2.5,0.4,-2.9,22.2,-20.7,0.258552812,-0.633320109,-0.129459517,-0.717825861
281,707193,1069970,1.027,-0.058,0.11,-7.9,-2.2,0.2,-2.9,22.2,-20.7,0.258430738,-0.633381146,-0.129337443,-0.717795343
282,709406,1069970,1.031,-0.059,0.11,-8.4,-1.8,0.2,-5,23.8,-20.5,0.258278146,-0.633472701,-0.129215369,-0.717795343
283,711735,1069970,1.035,-0.059,0.114,-9,-1.6,0,-5,23.8,-20.5,0.25818659,-0.633564257,-0.129093295,-0.717795343
284,713971,1069980,1.039,-0.059,0.114,-9.9,-1.3,-0.2,-5,23.8,-20.5,0.258033998,-0.633625294,-0.128940703,-0.717825861
285,715771,1069980,1.039,-0.063,0.11,-11.1,-1.1,-0.5,-5,23.8,-20.5,0.257881405,-0.633716849,-0.12878811,-0.717825861
286,718089,1069980,1.043,-0.063,0.114,-12.4,-0.9,-0.8,-4.8,23.9,-20.5,0.257667776,-0.633777886,-0.128604999,-0.71785638
287,720400,1069980,1.043,-0.067,0.114,-13.9,-0.6,-1,-4.8,23.9,-20.5,0.257484664,-0.633869442,-0.128391369,-0.717886898
288,723918,1069990,1.039,-0.063,0.121,-15.6,-0.3,-1.3,-4.8,23.9,-20.5,0.257240516,-0.633960997,-0.128147221,-0.717947935
289,725731,1069990,1.039,-0.066,0.125,-17.5,0.1,-1.5,-4.8,23.9,-20.5,0.25696585,-0.634052553,-0.127933592,-0.718008972
290,728053,1069990,1.035,-0.078,0.125,-19.4,0.6,-1.6,-5.2,23.6,-20.9,0.256660665,-0.634144108,-0.127628407,-0.718070009
291,731560,1069990,1.027,-0.082,0.126,-21.4,1,-1.7,-5.2,23.6,-20.9,0.256324961,-0.634235664,-0.127323222,-0.718161565
292,733752,1070000,1.023,-0.086,0.126,-23.3,1.3,-1.7,-5.2,23.6,-20.9,0.255989257,-0.634357738,-0.126987518,-0.718253121
293,735904,1070000,1.016,-0.089,0.13,-25.1,1.4,-2,-5.2,23.6,-20.9,0.255623035,-0.634449293,-0.126590777,-0.718344676
294,739385,1070000,1.008,-0.097,0.126,-26.9,1.3,-2.2,-4.9,23.8,-20.5,0.255226295,-0.634571368,-0.126194037,-0.71846675
295,741572,1070000,1.012,-0.105,0.126,-28.6,1.1,-2.5,-4.9,23.8,-20.5,0.254799036,-0.63472396,-0.125797296,-0.718558306
296,743875,1070010,1.008,-0.109,0.126,-30.2,1,-2.8,-4.9,23.8,-20.5,0.254341258,-0.634876553,-0.125339518,-0.71868038
297,745982,1070010,1.004,-0.117,0.134,-31.7,1.1,-3.1,-4.9,23.8,-20.5,0.253852962,-0.635029145,-0.124881741,-0.718802454
298,748185,1070010,1.004,-0.117,0.134,-31.7,1.1,-3.1,-4.9,23.8,-20.5,0.253852962,-0.635029145,-0.124881741,-0.718802454
299,750497,1070010,0.988,-0.132,0.126,-34.4,1.5,-3.5,-3.2,23.4,-20.2,0.252601703,-0.635456404,-0.12408826,-0.718955046
300,752992,1070020,0.992,-0.132,0.13,-35.5,1.6,-3.8,-3.2,23.4,-20.2,0.25205237,-0.635639515,-0.123599963,-0.719107639
301,755325,1070020,0.98,-0.14,0.123,-36.3,1.5,-4,-3.2,23.4,-20.2,0.251503037,-0.635792108,-0.12305063,-0.719260231
302,758939,1070020,0.984,-0.136,0.123,-36.8,1.3,-4.3,-4.1,23.8,-20.2,0.250923185,-0.635975219,-0.122531816,-0.719382305
303,760782,1070020,0.98,-0.151,0.127,-36.8,0.8,-4.5,-4.1,23.8,-20.2,0.250343333,-0.636127812,-0.122013001,-0.719534898
304,763115,1070030,0.976,-0.147,0.134,-36.5,0.5,-4.6,-4.1,23.8,-20.2,0.249763482,-0.636310923,-0.121494186,-0.719656972
305,767162,1070030,0.965,-0.132,0.131,-35.8,0.4,-4.5,-4.1,23.8,-20.2,0.249214148,-0.636494034,-0.12100589,-0.719779046
306,769252,1070030,0.973,-0.132,0.127,-35,0.2,-4.4,-4.1,23.6,-20,0.248634297,-0.636677145,-0.120517594,-0.71990112
307,771532,1070030,0.973,-0.132,0.127,-35,0.2,-4.4,-4.1,23.6,-20,0.248634297,-0.636677145,-0.120517594,-0.71990112
308,773884,1070040,0.976,-0.128,0.127,-33.8,-0.1,-4.8,-4.1,23.6,-20,0.24753563,-0.637012848,-0.11957152,-0.72011475
309,775918,1070040,0.984,-0.116,0.13,-33.5,-0.5,-5.2,-4.1,23.6,-20,0.246986297,-0.637195959,-0.119113742,-0.720236824
310,778187,1070040,0.992,-0.12,0.13,-33.1,-0.8,-5.4,-3.3,24,-20,0.246436964,-0.63737907,-0.118686483,-0.720328379
311,780500,1070040,0.988,-0.112,0.126,-32.6,-0.9,-5.5,-3.3,24,-20,0.245918149,-0.637531663,-0.118259224,-0.720450453
312,784453,1070050,0.992,-0.105,0.126,-31.8,-0.9,-5.3,-3.3,24,-20,0.245338298,-0.637684256,-0.117831965,-0.720542009
313,786734,1070050,0.996,-0.101,0.126,-31.2,-1,-5.1,-3.3,24,-20,0.244850002,-0.637897885,-0.117404706,-0.720633564
314,788939,1070050,1,-0.093,0.126,-30.8,-1.2,-4.7,-4.2,23.9,-19.8,0.244361705,-0.638050478,-0.117007965,-0.72072512
315,790789,1070050,1.004,-0.085,0.118,-30.7,-1.2,-4.3,-4.2,23.9,-19.8,0.243842891,-0.638233589,-0.116580706,-0.720786157
316,793206,1070060,1,-0.07,0.126,-30.8,-1,-3.8,-4.2,23.9,-19.8,0.243354595,-0.638386181,-0.116153447,-0.720877712
317,795369,1070060,1,-0.07,0.126,-30.8,-1,-3.8,-4.2,23.9,-19.8,0.243354595,-0.638386181,-0.116153447,-0.720877712
318,797812,1070060,1.004,-0.062,0.118,-31.1,-0.7,-3.3,-4.2,23.9,-19.8,0.242866298,-0.638569292,-0.115726188,-0.720969268
319,801641,1070060,1.004,-0.046,0.118,-32.4,-0.4,-2.5,-3.8,24,-19.9,0.241523484,-0.639057588,-0.115207373,-0.721060823
320,803767,1070070,1.012,-0.039,0.118,-33.1,-0.3,-2.2,-3.8,24,-19.9,0.241004669,-0.639240699,-0.114719077,-0.721152379
321,805284,1070070,1.008,-0.031,0.118,-33.7,-0.3,-1.8,-3.8,24,-19.9,0.240516373,-0.639423811,-0.114230781,-0.721243934
322,809207,1070070,1.012,-0.039,0.114,-34.3,-0.1,-1.2,-3.8,24.5,-19.6,0.240028077,-0.639606922,-0.113711966,-0.72133549
323,811234,1070070,1.008,-0.019,0.118,-35,0,-0.7,-3.8,24.5,-19.6,0.239478744,-0.639790033,-0.113162633,-0.721427046
324,814392,1070080,1.008,-0.019,0.118,-35,0,-0.7,-3.8,24.5,-19.6,0.239478744,-0.639790033,-0.113162633,-0.721427046
325,816481,1070080,1,-0.003,0.122,-36.8,0.7,0.7,-3.8,24.5,-19.6,0.238502152,-0.640156255,-0.11200293,-0.721610157
326,817932,1070080,1,0.004,0.118,-38.1,1,1.1,-3.7,24.2,-19.2,0.238013855,-0.640339366,-0.111362041,-0.721732231
327,821423,1070080,1.004,-0.003,0.118,-39.7,1.2,1.2,-3.7,24.2,-19.2,0.237464522,-0.640522477,-0.110721152,-0.721823786
328,822816,1070090,1.008,0,0.11,-41.2,1.2,1.2,-3.7,24.2,-19.2,0.236915189,-0.640705588,-0.110049745,-0.72194586
329,826974,1070090,1.004,-0.003,0.114,-42.5,1.5,1.2,-3.7,24.2,-19.2,0.236335337,-0.640919218,-0.109347819,-0.722037416
330,828254,1070090,1,-0.007,0.118,-43.6,2.2,1.4,-3.5,24.4,-19.3,0.235755486,-0.641102329,-0.108645894,-0.722190008
331,831263,1070090,0.996,-0.007,0.122,-44.4,3.3,1.6,-3.5,24.4,-19.3,0.235175634,-0.64128544,-0.107882931,-0.722312082
332,834488,1070100,0.996,-0.007,0.122,-44.4,3.3,1.6,-3.5,24.4,-19.3,0.235175634,-0.64128544,-0.107882931,-0.722312082
333,835912,1070100,0.989,-0.011,0.114,-46,5.4,2.6,-3.5,24.4,-19.3,0.233985412,-0.641590625,-0.106326487,-0.722647786
334,838090,1070100,0.989,-0.019,0.118,-46.9,6.2,3,-3.7,24.8,-19.3,0.23340556,-0.641743217,-0.105533006,-0.722830897
335,840372,1070100,0.981,-0.019,0.115,-48,7,3.2,-3.7,24.8,-19.3,0.23279519,-0.64189581,-0.104678488,-0.723014008
336,844343,1070110,0.977,-0.026,0.115,-49.3,7.7,3.2,-3.7,24.8,-19.3,0.23218482,-0.642048402,-0.103823969,-0.723227638
337,846004,1070110,0.977,-0.03,0.115,-50.7,8.2,3.1,-3.7,24.8,-19.3,0.231543931,-0.642170476,-0.102938932,-0.723441267
338,848145,1070110,0.977,-0.03,0.115,-50.7,8.2,3.1,-3.7,24.8,-19.3,0.231543931,-0.642170476,-0.102938932,-0.723441267
339,850597,1070110,0.981,-0.054,0.107,-53.7,8.8,2.3,-4.5,24.4,-19.1,0.22952971,-0.642536699,-0.101840266,-0.723899045
340,852865,1070120,0.981,-0.058,0.111,-55,9.2,1.9,-4.5,24.4,-19.1,0.228797266,-0.642689291,-0.100894192,-0.724143193
341,856753,1070120,0.984,-0.069,0.111,-56.2,9.5,1.6,-4.5,24.4,-19.1,0.228064821,-0.642811365,-0.0999481185,-0.724387341
342,858957,1070120,0.98,-0.085,0.107,-57.2,9.8,1.6,-3.3,24.8,-19,0.227301859,-0.642933439,-0.0989715262,-0.724631489
343,860824,1070120,0.984,-0.089,0.111,-58.1,9.9,1.5,-3.3,24.8,-19,0.226538896,-0.643086032,-0.0979644154,-0.724906156
344,862814,1070130,0.988,-0.093,0.111,-58.8,10.1,1.5,-3.3,24.8,-19,0.225745415,-0.643208106,-0.0969878231,-0.725150304
345,866933,1070130,0.988,-0.109,0.107,-59.5,10.4,1.4,-3.3,24.8,-19,0.224982452,-0.64333018,-0.0959501938,-0.72542497
346,868167,1070130,0.988,-0.113,0.107,-60,10.7,1.3,-3,24.5,-18.6,0.224158452,-0.643482772,-0.094943083,-0.725699637
347,871479,1070130,0.988,-0.12,0.111,-60.6,11,1.2,-3,24.5,-18.6,0.223364971,-0.643604846,-0.0939054537,-0.725974303
348,872732,1070140,0.988,-0.124,0.111,-61,11.3,1.1,-3,24.5,-18.6,0.222540971,-0.64372692,-0.0928678243,-0.72624897
349,876397,1070140,0.984,-0.136,0.107,-61.5,11.6,1,-3,24.5,-18.6,0.221716971,-0.643818476,-0.091830195,-0.726523637
350,878148,1070140,0.988,-0.14,0.107,-62,11.8,0.8,-3.1,24.9,-18.8,0.220892972,-0.64394055,-0.0907620472,-0.726798303
351,880204,1070140,0.984,-0.144,0.103,-62.5,12.1,0.6,-3.1,24.9,-18.8,0.220038453,-0.644062624,-0.0896938993,-0.727103488
352,883249,1070150,0.98,-0.148,0.107,-62.8,12.4,0.2,-3.1,24.9,-18.8,0.219183935,-0.64415418,-0.08865627,-0.727408673
353,886534,1070150,0.98,-0.159,0.107,-63.2,12.7,0,-3.1,24.9,-18.8,0.218329417,-0.644245735,-0.0875881222,-0.727713858
354,887877,1070150,0.98,-0.163,0.107,-63.6,12.8,-0.1,-2.9,25.8,-18.5,0.21744438,-0.644367809,-0.0865199744,-0.727988525
355,890881,1070150,0.972,-0.167,0.107,-64.2,12.9,-0.3,-2.9,25.8,-18.5,0.216559343,-0.644459365,-0.085421308,-0.72829371
356,892890,1070160,0.968,-0.163,0.107,-64.6,12.9,-0.4,-2.9,25.8,-18.5,0.215674306,-0.64455092,-0.0843531602,-0.728598895
357,896881,1070160,0.965,-0.171,0.107,-65.2,13,-0.7,-2.9,25.8,-18.5,0.214758751,-0.644642476,-0.0832544939,-0.728934599
358,899095,1070160,0.965,-0.171,0.107,-65.2,13,-0.7,-2.9,25.8,-18.5,0.214758751,-0.644642476,-0.0832544939,-0.728934599
359,901497,1070160,0.965,-0.175,0.107,-66.6,13,-1.1,-4.1,25.4,-17.9,0.212897122,-0.645252846,-0.0810266427,-0.729178747
360,903694,1070170,0.957,-0.182,0.104,-67.4,13.1,-1.4,-4.1,25.4,-17.9,0.211951048,-0.64537492,-0.0798974578,-0.729483932
361,905831,1070170,0.953,-0.182,0.108,-68.2,13,-1.7,-4.1,25.4,-17.9,0.210974456,-0.645466475,-0.0787987915,-0.729789117
362,907932,1070170,0.949,-0.178,0.108,-69,13.1,-2.2,-3.2,25.8,-17.8,0.209997864,-0.645558031,-0.0776696066,-0.730094302
363,911174,1070170,0.949,-0.186,0.104,-69.6,13.1,-2.6,-3.2,25.8,-17.8,0.208990753,-0.645680105,-0.0765404218,-0.730430006
364,913517,1070180,0.945,-0.19,0.108,-70.2,13.3,-3.1,-3.2,25.8,-17.8,0.207983642,-0.645771661,-0.0753807184,-0.730735191
365,915413,1070180,0.945,-0.194,0.104,-70.7,13.6,-3.7,-3.2,25.8,-17.8,0.206946013,-0.645863216,-0.0742515336,-0.731070894
366,919460,1070180,0.945,-0.198,0.1,-71.4,13.9,-4.2,-3.2,25.8,-17.4,0.205877865,-0.645954772,-0.0731223487,-0.731406598
367,921802,1070180,0.945,-0.202,0.092,-71.9,14.1,-4.9,-3.2,25.8,-17.4,0.204809717,-0.646046327,-0.0719626453,-0.731742302
368,923153,1070190,0.945,-0.21,0.096,-72.3,14.4,-5.6,-3.2,25.8,-17.4,0.203741569,-0.646137883,-0.0708334605,-0.732078005
369,926403,1070190,0.945,-0.21,0.088,-72.7,14.7,-6.3,-3.2,25.8,-17.4,0.202612384,-0.646229438,-0.0697042756,-0.732413709
370,928102,1070190,0.949,-0.214,0.096,-72.8,15.1,-7,-3.1,26.3,-17.3,0.201513718,-0.646290475,-0.0685750908,-0.732779931
371,930396,1070190,0.949,-0.225,0.092,-73.1,15.4,-7.9,-3.1,26.3,-17.3,0.200384533,-0.646351512,-0.0674459059,-0.733146153
372,932889,1070200,0.956,-0.237,0.088,-73.2,16,-8.9,-3.1,26.3,-17.3,0.19922483,-0.646382031,-0.0663167211,-0.733512375
373,937076,1070200,0.956,-0.249,0.088,-73.2,16.5,-9.9,-3.1,26.3,-17.3,0.198065126,-0.646443068,-0.0652180548,-0.733878597
374,939278,1070200,0.964,-0.253,0.084,-73.1,16.9,-10.8,-2.6,26.3,-17.1,0.196874905,-0.646473586,-0.0641193884,-0.734275338
375,941524,1070200,0.96,-0.265,0.084,-73,17.1,-11.7,-2.6,26.3,-17.1,0.195684683,-0.646473586,-0.0630512406,-0.734672079
376,943741,1070210,0.972,-0.273,0.088,-72.9,17.3,-12.5,-2.6,26.3,-17.1,0.194463942,-0.646504105,-0.0619830927,-0.735068819
377,945348,1070210,0.972,-0.277,0.084,-72.7,17.3,-13.1,-2.6,26.3,-17.1,0.193243202,-0.646504105,-0.0609149449,-0.73546556
378,947905,1070210,0.972,-0.277,0.084,-72.7,17.3,-13.1,-2.6,26.3,-17.1,0.193243202,-0.646504105,-0.0609149449,-0.73546556
379,950284,1070210,0.98,-0.296,0.084,-72.6,17.2,-14.1,-3.8,26.6,-16.8,0.191137425,-0.646931364,-0.0583819086,-0.7358623
380,952737,1070220,0.987,-0.304,0.08,-72.5,17,-14.6,-3.8,26.6,-16.8,0.189886166,-0.646961882,-0.0573442793,-0.736259041
381,955862,1070220,0.987,-0.316,0.076,-72.5,16.9,-14.9,-3.8,26.6,-16.8,0.188665426,-0.646961882,-0.0563371685,-0.736625263
382,958302,1070220,0.991,-0.328,0.088,-72.5,16.7,-15.4,-3.8,26.9,-16.7,0.187414167,-0.646961882,-0.0552995392,-0.737022004
383,960395,1070220,0.991,-0.328,0.088,-72.6,16.7,-15.6,-3.8,26.9,-16.7,0.186162908,-0.646961882,-0.0542924284,-0.737418744
384,964355,1070230,0.987,-0.331,0.084,-72.7,16.6,-15.9,-3.8,26.9,-16.7,0.18488113,-0.646992401,-0.053254799,-0.737784967
385,966531,1070230,0.987,-0.343,0.088,-72.7,16.4,-16.2,-3.8,26.9,-16.7,0.183629872,-0.646992401,-0.0522782067,-0.738181707
386,968906,1070230,0.991,-0.351,0.084,-72.6,16.4,-16.3,-3.9,26.8,-16.2,0.182348094,-0.646992401,-0.0512710959,-0.738547929
387,971087,1070230,0.991,-0.355,0.088,-72.5,16.4,-16.4,-3.9,26.8,-16.2,0.181066317,-0.646992401,-0.0502639851,-0.73894467
388,973242,1070240,0.987,-0.363,0.088,-72.3,16.4,-16.5,-3.9,26.8,-16.2,0.179815058,-0.646992401,-0.0492568743,-0.739310892
389,975445,1070240,0.983,-0.374,0.084,-72.1,16.4,-16.7,-3.9,26.8,-16.2,0.17853328,-0.646992401,-0.048280282,-0.739677114
390,978569,1070240,0.987,-0.378,0.084,-71.8,16.3,-16.9,-3.9,26.9,-15.1,0.177251503,-0.646992401,-0.0473036897,-0.740043336
391,980818,1070240,0.983,-0.386,0.088,-71.5,16.3,-17.1,-3.9,26.9,-15.1,0.176000244,-0.646992401,-0.0463270974,-0.740440077
392,982869,1070250,0.979,-0.386,0.08,-71.2,16.5,-17.2,-3.9,26.9,-15.1,0.174718467,-0.646992401,-0.0453505051,-0.740806299
393,986268,1070250,0.979,-0.394,0.08,-70.8,16.8,-17.4,-3.9,26.9,-15.1,0.173467208,-0.646961882,-0.0443739128,-0.741172521
394,987810,1070250,0.983,-0.402,0.084,-70.5,17,-17.6,-4.1,27.2,-14.7,0.17218543,-0.646931364,-0.043427839,-0.741538743
395,991652,1070250,0.983,-0.402,0.084,-69.9,17.3,-17.8,-4.1,27.2,-14.7,0.170934172,-0.646900845,-0.0424817652,-0.741935484
396,993744,1070260,0.983,-0.413,0.08,-69.1,17.5,-18.2,-4.1,27.2,-14.7,0.169682913,-0.646839808,-0.0415356914,-0.742301706
397,995394,1070260,0.979,-0.417,0.08,-68.3,17.7,-18.4,-4.1,27.2,-14.7,0.168431654,-0.64680929,-0.0406506546,-0.742698447
398,999521,1070260,0.979,-0.417,0.08,-68.3,17.7,-18.4,-4.1,27.2,-14.7,0.168431654,-0.64680929,-0.0406506546,-0.742698447
399,1001982,1070260,0.971,-0.429,0.08,-66.5,18.4,-18.7,-4,27.2,-16.5,0.166539506,-0.646992401,-0.0381176183,-0.743064669
400,1003910,1070270,0.975,-0.445,0.072,-65.6,18.9,-19,-4,27.2,-16.5,0.165318766,-0.646900845,-0.0372631001,-0.743461409
401,1005311,1070270,0.971,-0.449,0.072,-64.5,19.5,-19.5,-4,27.2,-16.5,0.164098025,-0.64680929,-0.0364085818,-0.74385815
402,1009291,1070270,0.975,-0.452,0.069,-63.6,20,-20,-4.1,27.3,-13.9,0.162907804,-0.646687216,-0.035584582,-0.744254891
403,1011588,1070270,0.979,-0.464,0.068,-62.7,20.5,-20.7,-4.1,27.3,-13.9,0.161687063,-0.646565142,-0.0347911008,-0.74468215
404,1013780,1070280,0.983,-0.484,0.065,-61.9,21.2,-21.3,-4.1,27.3,-13.9,0.160496841,-0.646443068,-0.0340281381,-0.745109409
405,1015881,1070280,0.983,-0.496,0.061,-61,22,-21.9,-4.1,27.3,-13.9,0.159276101,-0.646259957,-0.0332346568,-0.745536668
406,1018139,1070280,0.983,-0.503,0.065,-60,22.8,-22.6,-4.1,27.4,-13.5,0.158085879,-0.646076846,-0.0325022126,-0.745963927
407,1021459,1070280,0.99,-0.527,0.064,-59.2,23.6,-23.3,-4.1,27.4,-13.5,0.156895657,-0.645893735,-0.0317697684,-0.746421705
408,1022950,1070290,0.994,-0.539,0.049,-58.4,24.3,-24,-4.1,27.4,-13.5,0.155705435,-0.645680105,-0.0310983612,-0.746879482
409,1025392,1070290,0.994,-0.554,0.057,-57.8,25,-24.8,-4.1,27.4,-13.5,0.154484695,-0.645435957,-0.0303964354,-0.747367779
410,1028771,1070290,0.998,-0.57,0.06,-57.4,25.6,-25.7,-4.1,27.3,-13.3,0.153294473,-0.645191809,-0.0297555467,-0.747856075
411,1030917,1070290,1.002,-0.598,0.057,-57.2,26.1,-26.4,-4.1,27.3,-13.3,0.152073733,-0.644947661,-0.029114658,-0.748344371
412,1032931,1070300,1.01,-0.613,0.06,-57.4,26.2,-26.9,-4.1,27.3,-13.3,0.150822474,-0.644703513,-0.0284432508,-0.748832667
413,1037283,1070300,1.01,-0.613,0.06,-57.4,26.2,-26.9,-4.1,27.3,-13.3,0.150822474,-0.644703513,-0.0284432508,-0.748832667
414,1039343,1070300,1.01,-0.672,0.06,-58.2,25.9,-27.9,-4.2,27.3,-13.5,0.148319956,-0.644184698,-0.0271919919,-0.749809259
415,1041430,1070300,1.002,-0.683,0.068,-58.8,25.4,-28.4,-4.2,27.3,-13.5,0.147038179,-0.64394055,-0.0265511032,-0.750297555
416,1043873,1070310,1.002,-0.703,0.072,-59.6,24.8,-28.9,-4.2,27.3,-13.5,0.145725883,-0.643696402,-0.025879696,-0.750785852
417,1045720,1070310,0.998,-0.73,0.08,-60.5,24.2,-29.2,-4.2,27.3,-13.5,0.144413587,-0.643482772,-0.0252388073,-0.751243629
418,1048015,1070310,0.998,-0.73,0.08,-60.5,24.2,-29.2,-4.2,27.3,-13.5,0.144413587,-0.643482772,-0.0252388073,-0.751243629
419,1050258,1070310,0.978,-0.785,0.096,-62.1,22.8,-30,-4.2,27.3,-13.5,0.141727958,-0.643086032,-0.0238959929,-0.752159185
420,1052714,1070320,0.978,-0.8,0.1,-62.7,22,-30.3,-4.2,27.3,-13.5,0.140385144,-0.642902921,-0.0231940672,-0.752586444
421,1056476,1070320,0.966,-0.816,0.109,-62.9,21.3,-30.6,-4.2,27.3,-13.5,0.138981292,-0.64271981,-0.0225531785,-0.753013703
422,1058709,1070320,0.951,-0.847,0.113,-62.7,21,-30.8,-4.4,27.9,-14.1,0.137607959,-0.642536699,-0.0219122898,-0.753440962
423,1060731,1070320,0.939,-0.866,0.117,-62.1,20.8,-31,-4.4,27.9,-14.1,0.136234626,-0.642384106,-0.0212408826,-0.753837703
424,1062916,1070330,0.931,-0.881,0.125,-61,20.7,-31.4,-4.4,27.9,-14.1,0.134891812,-0.642200995,-0.0206305124,-0.754264962
425,1065274,1070330,0.912,-0.916,0.133,-59.5,20.6,-31.7,-4.4,27.9,-14.1,0.133548997,-0.642017884,-0.0200201422,-0.754661702
426,1069586,1070330,0.904,-0.936,0.133,-57.4,20.5,-32,-4.5,28.3,-14.5,0.132206183,-0.641834773,-0.019470809,-0.755088961
427,1071223,1070330,0.896,-0.947,0.137,-54.7,20.4,-32.2,-4.5,28.3,-14.5,0.130924406,-0.641651662,-0.0189214759,-0.755485702
428,1074214,1070340,0.896,-0.947,0.137,-54.7,20.4,-32.2,-4.5,28.3,-14.5,0.130924406,-0.641651662,-0.0189214759,-0.755485702
429,1076367,1070340,0.872,-0.986,0.138,-47,19.8,-32.5,-4.5,28.3,-14.5,0.128482925,-0.641224403,-0.0181279946,-0.756248665
430,1077759,1070340,0.872,-1.001,0.138,-42.3,18.9,-32.5,-4.6,28.4,-14.6,0.127384259,-0.641041292,-0.0178228095,-0.756645405
431,1082294,1070340,0.868,-1.013,0.126,-37,17.8,-32.7,-4.6,28.4,-14.6,0.126316111,-0.640827662,-0.0176396985,-0.756981109
432,1083839,1070350,0.872,-1.025,0.126,-31.4,16.7,-32.7,-4.6,28.4,-14.6,0.125339518,-0.640614032,-0.0175176244,-0.757316813
433,1085232,1070350,0.872,-1.025,0.126,-31.4,16.7,-32.7,-4.6,28.4,-14.6,0.125339518,-0.640614032,-0.0175176244,-0.757316813
434,1088156,1070350,0.88,-1.048,0.122,-19,14.5,-32.2,-4.7,28.6,-14.8,0.123630482,-0.640217292,-0.0175786615,-0.757927183
435,1091297,1070350,0.888,-1.056,0.118,-12.1,13.7,-31.8,-4.7,28.6,-14.8,0.122959075,-0.640003662,-0.0178228095,-0.758232368
436,1093500,1070360,0.903,-1.065,0.118,-4.9,12.8,-31.3,-4.7,28.6,-14.8,0.122379223,-0.639790033,-0.0181585131,-0.758476516
437,1096640,1070360,0.911,-1.072,0.122,2.6,12.1,-30.5,-4.7,28.6,-14.8,0.121921445,-0.639576403,-0.0185552538,-0.758751183
438,1098733,1070360,0.911,-1.072,0.122,2.6,12.1,-30.5,-4.7,28.6,-14.8,0.121921445,-0.639576403,-0.0185552538,-0.758751183
439,1101490,1070360,0.938,-1.081,0.125,17.8,11.3,-28.5,-4.7,28.6,-14.8,0.121372112,-0.639088107,-0.0197759941,-0.75920896
440,1103022,1070370,0.958,-1.093,0.121,25.1,11.1,-27.3,-4.7,28.6,-14.8,0.121250038,-0.638843959,-0.0205694754,-0.75942259
441,1106173,1070370,0.969,-1.105,0.117,32.1,11,-25.7,-4.7,28.6,-14.8,0.121280557,-0.638569292,-0.0214239937,-0.759636219
442,1108081,1070370,0.985,-1.105,0.113,38.8,11.1,-24.1,-5.1,27.5,-13.8,0.121433149,-0.638264107,-0.0223395489,-0.75981933
443,1111631,1070370,0.997,-1.117,0.112,44.8,11.5,-22.2,-5.1,27.5,-13.8,0.121677297,-0.637928404,-0.0234076968,-0.76003296
444,1113355,1070380,1.02,-1.133,0.104,50.4,12,-20.3,-5.1,27.5,-13.8,0.122074038,-0.6375927,-0.0245063631,-0.760216071
445,1115815,1070380,1.032,-1.145,0.096,55.3,12.6,-18.5,-5.1,27.5,-13.8,0.122531816,-0.637226478,-0.025635548,-0.760399182
446,1117755,1070380,1.043,-1.161,0.1,59.7,13.4,-16.6,-5.5,27.5,-14.3,0.123111667,-0.636829737,-0.0268257698,-0.760612812
447,1121389,1070380,1.055,-1.188,0.096,63.7,14.6,-14.8,-5.5,27.5,-14.3,0.123752556,-0.636402478,-0.0280465102,-0.760826441
448,1123063,1070390,1.063,-1.196,0.096,67.4,15.9,-12.7,-5.5,27.5,-14.3,0.124485,-0.6359447,-0.0292977691,-0.761040071
449,1126758,1070390,1.063,-1.208,0.088,70.8,17.2,-10.6,-5.5,27.5,-14.3,0.125309,-0.635456404,-0.0305795465,-0.7612537
450,1128500,1070390,1.059,-1.22,0.1,74,18.3,-8.5,-5.3,27.1,-14.5,0.126194037,-0.63493759,-0.0318613239,-0.76146733
451,1130335,1070390,1.051,-1.235,0.092,76.9,19.5,-6.4,-5.3,27.1,-14.5,0.127170629,-0.634418775,-0.0332041383,-0.761711478
452,1133341,1070400,1.047,-1.243,0.092,79.4,20.7,-4.4,-5.3,27.1,-14.5,0.128208258,-0.633838923,-0.0345164342,-0.761955626
453,1136524,1070400,1.059,-1.251,0.092,81.6,21.8,-2.7,-5.3,27.1,-14.5,0.129306925,-0.633228553,-0.0358592486,-0.762199774
454,1137820,1070400,1.023,-1.258,0.097,81.6,21.8,-2.7,-4.8,26.7,-14.8,0.130405591,-0.632648701,-0.037141026,-0.762443922
455,1141441,1070400,0.988,-1.269,0.093,83.4,22.9,-1.3,-4.8,26.7,-14.8,0.131565294,-0.632038331,-0.038514359,-0.76268807
456,1142960,1070410,0.973,-1.285,0.098,85.3,23.8,-0.2,-4.8,26.7,-14.8,0.132755516,-0.631366924,-0.0398876919,-0.762962737
457,1146051,1070410,0.961,-1.288,0.098,87.4,24.2,1.2,-4.8,26.7,-14.8,0.134006775,-0.630726035,-0.0412305063,-0.763206885
458,1149010,1070410,0.961,-1.288,0.098,87.4,24.2,1.2,-4.8,26.7,-14.8,0.134006775,-0.630726035,-0.0412305063,-0.763206885
459,1150550,1070410,0.933,-1.307,0.098,92.4,22.9,5.7,-4.8,26.7,-14.8,0.136783959,-0.629413739,-0.0440382092,-0.763634144
460,1154388,1070420,0.926,-1.315,0.102,95.3,21.5,8.1,-4.8,26.7,-14.8,0.138248848,-0.628772851,-0.0454420606,-0.763817255
461,1156559,1070420,0.922,-1.319,0.099,98.8,19.8,10.3,-4.8,26.7,-14.8,0.139774773,-0.628162481,-0.0468764306,-0.763939329
462,1158818,1070420,0.926,-1.315,0.095,103.1,18.4,12.4,-5.2,26.5,-17.1,0.141422773,-0.62755211,-0.0483718375,-0.764061403
463,1160206,1070420,0.93,-1.3,0.094,108.4,17.1,14.5,-5.2,26.5,-17.1,0.143162328,-0.62694174,-0.0499282815,-0.76412244
464,1163274,1070430,0.933,-1.284,0.086,114.6,16.1,16.8,-5.2,26.5,-17.1,0.145023957,-0.62633137,-0.0515457625,-0.764183477
465,1166152,1070430,0.949,-1.249,0.082,121.7,15.5,19.2,-5.2,26.5,-17.1,0.147038179,-0.625721,-0.053254799,-0.764183477
466,1169080,1070430,0.961,-1.23,0.062,129.4,15.2,22,-5,25.6,-17.2,0.149204993,-0.625080111,-0.0550859096,-0.764152959
467,1170657,1070430,0.961,-1.207,0.047,137.8,15.3,25.4,-5,25.6,-17.2,0.1515244,-0.624378185,-0.0570085757,-0.76412244
468,1173635,1070440,0.969,-1.179,0.035,146.8,15.8,29.3,-5,25.6,-17.2,0.154026917,-0.62367626,-0.0589922788,-0.764061403
469,1176451,1070440,0.98,-1.121,-0.008,156.3,16.7,33.5,-5,25.6,-17.2,0.156743065,-0.622913297,-0.0610675375,-0.763969848
470,1177882,1070440,0.992,-1.102,-0.02,166.3,18.1,37.7,-4.9,25.4,-18.1,0.159642323,-0.622058779,-0.0632648701,-0.763847774
471,1181003,1070440,1.004,-1.079,-0.024,176.7,19.9,41.8,-4.9,25.4,-18.1,0.162755211,-0.621173742,-0.0655842769,-0.7637257
472,1184089,1070450,1.015,-1.056,-0.048,187.4,22.2,45.6,-4.9,25.4,-18.1,0.166112247,-0.62019715,-0.0680257576,-0.763603626
473,1185449,1070450,1.019,-1.021,-0.075,198.2,25.2,48.9,-4.9,25.4,-18.1,0.169621876,-0.619129002,-0.0705587939,-0.763451033
474,1188671,1070450,1.015,-0.997,-0.099,208.6,28.7,51.5,-4.4,24.8,-18.9,0.173345134,-0.617969298,-0.0732444227,-0.763328959
475,1191768,1070450,1.015,-0.989,-0.118,218.4,32.3,54.1,-4.4,24.8,-18.9,0.177251503,-0.616687521,-0.0760216071,-0.763206885
476,1193184,1070460,1.015,-0.974,-0.146,226.9,35.3,56.8,-4.4,24.8,-18.9,0.181310465,-0.61528367,-0.078890347,-0.763054292
477,1196275,1070460,1.007,-0.962,-0.153,233.8,37.7,60,-4.4,24.8,-18.9,0.185491501,-0.6138493,-0.0818201239,-0.762932218
478,1197724,1070460,1.007,-0.962,-0.153,233.8,37.7,60,-4.4,24.8,-18.9,0.185491501,-0.6138493,-0.0818201239,-0.762932218
479,1200637,1070460,0.976,-0.954,-0.172,243.7,40.6,68.6,-4.4,24.8,-18.9,0.194463942,-0.610705893,-0.0877712333,-0.762535478
480,1203801,1070470,0.945,-0.93,-0.18,247.5,41.1,73.9,-4.4,24.8,-18.9,0.199041719,-0.609118931,-0.0907315287,-0.76229133
481,1205767,1070470,0.933,-0.914,-0.176,251.2,41.1,79.9,-4.4,24.8,-18.9,0.203802606,-0.607470931,-0.0936613056,-0.761986145
482,1208898,1070470,0.918,-0.898,-0.167,254.8,40.2,85.9,-3.1,24.2,-20.2,0.208685568,-0.60585345,-0.0965910825,-0.761589404
483,1210323,1070470,0.902,-0.882,-0.167,258.4,38.3,92,-3.1,24.2,-20.2,0.213721122,-0.604205451,-0.0994903409,-0.761131626
484,1213458,1070480,0.894,-0.847,-0.159,261.7,35.7,98,-3.1,24.2,-20.2,0.218848231,-0.60258797,-0.102359081,-0.760551775
485,1216300,1070480,0.906,-0.816,-0.148,263.9,32.5,104.3,-3.1,24.2,-20.2,0.224127934,-0.601031526,-0.105227821,-0.759880367
486,1217917,1070480,0.93,-0.785,-0.125,264.8,29,110.8,-2.4,23.9,-20.8,0.229499191,-0.599475082,-0.108005005,-0.759086886
487,1220786,1070480,0.954,-0.715,-0.086,264,25.6,117.1,-2.4,23.9,-20.8,0.234962004,-0.598010193,-0.110721152,-0.758201849
488,1223695,1070490,0.974,-0.684,-0.075,262,22.6,122.7,-2.4,23.9,-20.8,0.240455336,-0.596575823,-0.113345744,-0.757225257
489,1225419,1070490,1.005,-0.645,-0.06,259.1,20.1,127.8,-2.4,23.9,-20.8,0.245979186,-0.595171972,-0.115817743,-0.756157109
490,1228506,1070490,1.036,-0.622,-0.049,255.5,18.2,132.6,-1.8,23.3,-21.9,0.251533555,-0.593829157,-0.118228706,-0.755027924
491,1230470,1070490,1.091,-0.553,-0.03,251.5,17.2,137.9,-1.8,23.3,-21.9,0.257087924,-0.592516861,-0.120487075,-0.753837703
492,1233777,1070500,1.119,-0.506,-0.039,247.5,17,143.6,-1.8,23.3,-21.9,0.26270333,-0.591204566,-0.122623371,-0.752586444
493,1235803,1070500,1.154,-0.468,-0.047,244.1,17.8,150,-1.8,23.3,-21.9,0.268349254,-0.589922788,-0.124576556,-0.751274148
494,1238173,1070500,1.177,-0.429,-0.075,241.9,19.5,157.3,-1.2,22.7,-22.5,0.274086734,-0.588579974,-0.126407666,-0.749931333
495,1240437,1070500,1.205,-0.399,-0.142,241.3,22,165.7,-1.2,22.7,-22.5,0.279976806,-0.587237159,-0.128086184,-0.748558
496,1242958,1070510,1.232,-0.353,-0.17,242.6,25.3,175,-1.2,22.7,-22.5,0.285988952,-0.585802789,-0.129642628,-0.747062593
497,1245252,1070510,1.287,-0.268,-0.191,246,29.4,184.8,-1.2,22.7,-22.5,0.292245247,-0.584307382,-0.131076998,-0.745628224
498,1249070,1070510,1.287,-0.268,-0.191,246,29.4,184.8,-1.2,22.7,-22.5,0.292245247,-0.584307382,-0.131076998,-0.745628224
499,1251394,1070510,1.42,-0.129,-0.229,257.4,38.2,203.8,-1.2,22.7,-22.5,0.305612354,-0.580889309,-0.133793146,-0.742454299
500,1254347,1070520,1.545,-0.034,-0.196,261.8,42.5,212.9,-1.2,22.7,-22.5,0.312509537,-0.579058199,-0.135044404,-0.740775781
501,1256439,1070520,1.577,-0.011,-0.17,262.8,46.5,222.1,-1.2,22.7,-22.5,0.319528794,-0.577135533,-0.136173589,-0.739066744
502,1258485,1070520,1.519,0.005,-0.078,258.2,50.9,231.4,0.4,20.6,-23,0.326639607,-0.575182348,-0.137058626,-0.73729667
503,1260547,1070520,1.48,0.014,-0.043,246.5,56.7,240.7,0.4,20.6,-23,0.333780938,-0.573229163,-0.137577441,-0.735526597
504,1263154,1070530,1.402,-0.03,-0.037,227.4,63.7,249.4,0.4,20.6,-23,0.340830714,-0.571275979,-0.137638478,-0.73381756
505,1265689,1070530,1.139,-0.151,-0.063,202.9,70.2,256.7,0.4,20.6,-23,0.34766686,-0.56941435,-0.1371807,-0.732139042
506,1268288,1070530,1.018,-0.2,-0.092,176.9,73.5,261.6,1.4,19.4,-24,0.354258858,-0.567644276,-0.136204108,-0.730521561
507,1270513,1070530,1.033,-0.193,-0.124,155.1,71.4,263.2,1.4,19.4,-24,0.360576189,-0.566087832,-0.134861293,-0.72890408
508,1272954,1070540,1.143,-0.202,-0.153,143.1,61.9,261.9,1.4,19.4,-24,0.366679891,-0.564745018,-0.133396405,-0.727164525
509,1276863,1070540,1.47,-0.251,-0.242,143.2,44.9,260.4,1.4,19.4,-24,0.372692038,-0.563615833,-0.132114628,-0.725211341
510,1278756,1070540,1.564,-0.28,-0.263,153.9,23.2,261.3,2,18.8,-24.1,0.37879574,-0.562730796,-0.131138035,-0.722891934
511,1280387,1070540,1.61,-0.258,-0.268,171.8,2.7,265.4,2,18.8,-24.1,0.385082553,-0.562028871,-0.130558184,-0.720236824
512,1282919,1070550,1.677,-0.259,-0.324,193.8,-10.7,271.3,2,18.8,-24.1,0.391674551,-0.561326945,-0.130375072,-0.71724601
513,1287455,1070550,1.695,-0.264,-0.426,218.2,-14.5,277.2,2,18.8,-24.1,0.398632771,-0.560472427,-0.130497147,-0.714072085
514,1287748,1070550,1.782,-0.183,-0.4,245.1,-9.1,282.3,2.9,17.9,-24.9,0.405987732,-0.559251686,-0.130954924,-0.710776086
515,1290213,1070550,1.833,-0.141,-0.397,275.5,3.4,286.1,2.9,17.9,-24.9,0.41380047,-0.55754265,-0.131687368,-0.707480087
516,1294113,1070560,1.798,0.034,-0.413,309.3,20.1,288.7,2.9,17.9,-24.9,0.422040468,-0.555253761,-0.132755516,-0.704184088
517,1295668,1070560,1.865,0.166,-0.426,343.8,36.7,290.3,2.9,17.9,-24.9,0.430768761,-0.552354503,-0.134189886,-0.700918607
518,1297953,1070560,1.865,0.166,-0.426,343.8,36.7,290.3,2.9,17.9,-24.9,0.430768761,-0.552354503,-0.134189886,-0.700918607
519,1300513,1070560,1.9,0.306,-0.482,399.7,55.1,290.2,2.9,17.9,-24.9,0.449507126,-0.544724876,-0.138340403,-0.694296091
520,1302712,1070570,1.999,0.613,-0.386,416.2,55.7,288.1,2.9,17.9,-24.9,0.458937346,-0.540635395,-0.14065981,-0.69081698
521,1306419,1070570,1.988,0.657,-0.363,423,53.8,283.9,2.9,17.9,-24.9,0.468367565,-0.536423841,-0.143162328,-0.687276833
522,1308658,1070570,1.903,0.737,-0.279,417.9,53.9,277.7,4.2,14.8,-27,0.477553636,-0.53215125,-0.145603809,-0.683736686
523,1310833,1070570,1.652,0.639,-0.254,398.2,60.1,269.8,4.2,14.8,-27,0.486373486,-0.527939695,-0.147770623,-0.680318613
524,1312957,1070580,2.042,1.056,-0.051,363.6,73.7,261.8,4.2,14.8,-27,0.494613483,-0.523819697,-0.149357585,-0.677175207
525,1315975,1070580,1.244,0.772,-0.075,315.3,94.1,255.8,4.2,14.8,-27,0.502334666,-0.519821772,-0.15009003,-0.674428541
526,1319080,1070580,0.704,0.508,-0.115,252.6,119.7,255.9,4.9,13.5,-26.9,0.509323405,-0.516129032,-0.149571215,-0.672139653
527,1321524,1070580,0.434,0.477,-0.067,177.9,145.1,262.4,4.9,13.5,-26.9,0.515640736,-0.512863552,-0.14761803,-0.670247505
528,1324073,1070590,0.709,0.696,0.032,99.9,161,270.1,4.9,13.5,-26.9,0.521225623,-0.51023896,-0.144230476,-0.668691061
529,1325746,1070590,0.492,0.199,-0.028,28.1,160.1,274.9,4.9,13.5,-26.9,0.526017029,-0.508438368,-0.139774773,-0.667226173
530,1328084,1070590,0.326,-0.166,-0.228,-36.7,143.6,282.8,5.5,13.7,-26.5,0.530167547,-0.507614368,-0.134434034,-0.665669729
531,1330565,1070590,0.219,-0.461,-0.253,-97.3,118.6,300.1,5.5,13.7,-26.5,0.533768731,-0.507889035,-0.128330332,-0.663777581
532,1333091,1070600,0.002,-0.783,-0.464,-151.4,93.2,325.8,5.5,13.7,-26.5,0.53706473,-0.509201331,-0.121433149,-0.661427656
533,1335468,1070600,-0.131,-1,-0.602,-192.4,71,351.6,5.5,13.7,-26.5,0.540177618,-0.511337626,-0.113925596,-0.658589434
534,1337845,1070600,-0.21,-1.378,-0.631,-216,52.8,371.6,5.9,14.4,-26.1,0.54319895,-0.514023255,-0.106021302,-0.655293435
535,1341826,1070600,1.88,-1.027,2.241,-218.7,35.3,384.2,5.9,14.4,-26.1,0.546311838,-0.516953032,-0.098178045,-0.651600696
536,1344066,1070610,4.104,-0.063,4.825,-195.6,17.1,391.2,5.9,14.4,-26.1,0.549668874,-0.519882809,-0.0907620472,-0.647541734
537,1346231,1070610,7.014,1.008,6.237,-146.6,3.5,401.5,5.9,14.4,-26.1,0.553666799,-0.522354808,-0.0840784936,-0.643024995
538,1348089,1070610,7.014,1.008,6.237,-146.6,3.5,401.5,5.9,14.4,-26.1,0.553666799,-0.522354808,-0.0840784936,-0.643024995
539,1350628,1070610,7.546,2.429,-1.362,42.5,18.6,485.9,5.9,14.4,-26.1,0.566148869,-0.523911252,-0.0730002747,-0.632160405
540,1353360,1070620,4.372,3.554,-5.083,198.8,34.5,560.7,5.9,14.4,-26.1,0.57615894,-0.521835994,-0.0689107944,-0.625263222
541,1355707,1070620,2.813,4.714,-6.662,426.1,22.2,608.1,5.9,14.4,-26.1,0.589251381,-0.517014069,-0.0674764245,-0.617145299
542,1358003,1070620,2.168,7.288,-6.717,733.7,-40.8,574.1,7.5,8.2,-27.6,0.605090487,-0.508865627,-0.0713827937,-0.608081301
543,1361387,1070620,0.985,7.922,-5.721,1074.4,-139.6,443.8,7.5,8.2,-27.6,0.622486038,-0.497085482,-0.0825525681,-0.598803674
544,1363337,1070630,-0.955,7.951,-5.732,1335.5,-219.9,249.7,7.5,8.2,-27.6,0.639545885,-0.482039857,-0.100253304,-0.590350047
545,1365718,1070630,-4.389,7.86,-3.644,1427.2,-217.4,24.7,7.5,8.2,-27.6,0.654072695,-0.464735862,-0.121341594,-0.584307382
546,1367942,1070630,-2.366,4.946,-1.327,1349.5,-109.9,-208.9,8,3.2,-27.3,0.664510025,-0.446119572,-0.142185736,-0.582323679
547,1370835,1070630,-0.694,3.569,0.206,1157.2,65.2,-417.4,8,3.2,-27.3,0.670430616,-0.427076022,-0.159947508,-0.585222938
548,1373300,1070640,1.07,4.956,1.38,901.1,231.6,-548.8,8,3.2,-27.3,0.672444838,-0.40888699,-0.173131504,-0.592089602
549,1375431,1070640,2.165,6.796,1.885,602.7,329.3,-580.2,8,3.2,-27.3,0.671437727,-0.39353618,-0.181249428,-0.6011536
550,1379931,1070640,1.707,6.129,1.413,267,351.1,-527.7,9.5,4.2,-27,0.668141728,-0.38288522,-0.184118168,-0.610797449
551,1380310,1070640,1.135,5.18,1.022,-94.2,327,-424.7,9.5,4.2,-27,0.662953581,-0.378154851,-0.18161565,-0.620044557
552,1384060,1070650,0.555,3.968,0.648,-454.5,284.9,-299.2,9.5,4.2,-27,0.656208991,-0.379650258,-0.173802911,-0.628467666
553,1385703,1070650,-0.009,2.101,0.47,-765.8,231.3,-177.5,9.5,4.2,-27,0.648213141,-0.386730552,-0.161442915,-0.635731071
554,1388060,1070650,-0.038,1.504,0.546,-989.5,162.8,-84.3,11,9.4,-26.3,0.639118625,-0.398052919,-0.146092105,-0.641590625
555,1391589,1070650,0.014,0.867,0.593,-1119.6,78.2,-36.5,11,9.4,-26.3,0.628925443,-0.412335582,-0.129581591,-0.64619892
556,1393683,1070660,0.482,0.107,0.261,-1177.7,-16.8,-40.1,11,9.4,-26.3,0.617511521,-0.428479873,-0.113528855,-0.649708548
557,1395708,1070660,0.713,-0.222,-0.079,-1200,-111.4,-86.4,11,9.4,-26.3,0.604602191,-0.445875423,-0.0987884152,-0.652577288
558,1397949,1070660,0.713,-0.222,-0.079,-1200,-111.4,-86.4,11,9.4,-26.3,0.604602191,-0.445875423,-0.0987884152,-0.652577288
559,1401234,1070660,1.009,-0.91,-0.627,-1248.5,-259.7,-214.8,11,9.4,-26.3,0.573473312,-0.48341319,-0.0731223487,-0.657277139
560,1403324,1070670,1.789,-1.734,-1.032,-1285.6,-305.4,-253.7,11,9.4,-26.3,0.555558947,-0.503250221,-0.0611285745,-0.659016694
561,1405456,1070670,2.393,-2.637,-1.456,-1312.8,-331.7,-266.6,11,9.4,-26.3,0.536606952,-0.523361919,-0.0491958373,-0.660054323
562,1409079,1070670,3.183,-3.853,-1.943,-1312.4,-337.4,-257.6,8.4,19.3,-22.5,0.517319254,-0.543076876,-0.037141026,-0.66032899
563,1410843,1070670,4.016,-5.692,-2.695,-1272.1,-318.9,-227.5,8.4,19.3,-22.5,0.498489334,-0.561601611,-0.0251167333,-0.659871212
564,1413090,1070680,4.622,-8.124,-2.612,-1185.7,-275.4,-168.7,8.4,19.3,-22.5,0.481185339,-0.578173162,-0.0130924406,-0.658742027
565,1415322,1070680,3.427,-8.081,-1.955,-1054.5,-219.1,-69.3,8.4,19.3,-22.5,0.466719565,-0.592211676,-0.00112918485,-0.656819361
566,1418394,1070680,2.015,-7.584,-1.174,-890.5,-172.1,71.3,9,21.3,-20.7,0.456129643,-0.603625599,0.0107730338,-0.65376751
567,1420782,1070680,-0.015,-6.047,0.035,-704.3,-145.8,227.5,9,21.3,-20.7,0.450056459,-0.612567522,0.0223395489,-0.649342326
568,1424206,1070690,-0.447,-5.124,0.366,-502.6,-126.8,352.3,9,21.3,-20.7,0.448377941,-0.619067965,0.0329599902,-0.643879513
569,1426401,1070690,-0.599,-4.288,0.598,-291.9,-93,406.1,9,21.3,-20.7,0.450178533,-0.622913297,0.0416272469,-0.638386181
570,1428736,1070690,-0.753,-3.624,0.757,-92.1,-38.3,385.1,9.9,21,-21,0.454298532,-0.623981445,0.0477614673,-0.633991516
571,1430704,1070690,-0.539,-2.643,0.708,72.8,22.1,317.2,9.9,21,-21,0.459639271,-0.622608112,0.0513016144,-0.631183813
572,1432924,1070700,-0.32,-2.28,0.55,190.4,69.8,238.5,9.9,21,-21,0.46540727,-0.619464705,0.0526139103,-0.629963073
573,1437005,1070700,-0.109,-1.906,0.385,261.9,93.6,174.6,9.9,21,-21,0.471236305,-0.61528367,0.0522782067,-0.629718925
574,1439182,1070700,0.023,-1.635,0.225,298,91.1,136.4,10.6,19.9,-21.4,0.477004303,-0.610797449,0.0509964293,-0.629871517
575,1441529,1070700,0.448,-1.144,-0.186,309.9,65.3,122.8,10.6,19.9,-21.4,0.482741783,-0.606524857,0.0490432447,-0.629779962
576,1443804,1070710,0.74,-0.939,-0.407,308.7,22.5,125.9,10.6,19.9,-21.4,0.488509781,-0.602801599,0.046723838,-0.629078036
577,1445781,1070710,1.044,-0.977,-0.616,302.1,-28.5,137.2,10.6,19.9,-21.4,0.494399854,-0.599841304,0.0440687277,-0.627521592
578,1447865,1070710,1.044,-0.977,-0.616,302.1,-28.5,137.2,10.6,19.9,-21.4,0.494399854,-0.599841304,0.0440687277,-0.627521592
579,1451023,1070710,1.658,-0.675,-0.593,299.8,-108.6,165.7,10.6,19.9,-21.4,0.506637776,-0.595538194,0.0380565813,-0.622180853
580,1453158,1070720,1.706,-0.467,-0.445,322,-121.5,175.7,10.6,19.9,-21.4,0.513290811,-0.593462935,0.0346079897,-0.618915372
581,1455428,1070720,1.609,-0.461,-0.326,361.4,-117.4,175.4,10.6,19.9,-21.4,0.520401624,-0.590868862,0.0307016205,-0.61568041
582,1458523,1070720,1.558,0.04,-0.075,404.2,-103.6,161.2,11.1,17,-23.4,0.52784814,-0.587511826,0.0261238441,-0.612750633
583,1460613,1070720,1.598,0.188,-0.018,435.6,-88.3,135.5,11.1,17,-23.4,0.535264138,-0.583574938,0.0210577715,-0.610278634
584,1462924,1070730,1.442,0.168,0.098,448.7,-76.8,106,11.1,17,-23.4,0.542405469,-0.579271828,0.0155339213,-0.608233894
585,1465877,1070730,1.531,0.547,0.358,446.1,-69.3,80.4,11.1,17,-23.4,0.549089022,-0.574877163,0.00982696005,-0.606524857
586,1469792,1070730,1.523,0.485,0.444,432.8,-61.9,62.9,10.9,15.2,-24.5,0.555345317,-0.570451979,0.00411999878,-0.605059969
587,1471310,1070730,1.496,0.392,0.472,416.1,-50.4,53.9,10.9,15.2,-24.5,0.561204871,-0.566057314,-0.0012817774,-0.603778191
588,1472712,1070740,1.496,0.392,0.472,416.1,-50.4,53.9,10.9,15.2,-24.5,0.561204871,-0.566057314,-0.0012817774,-0.603778191
589,1475628,1070740,1.301,0.824,0.33,401.7,-14.7,51.5,10.9,15.2,-24.5,0.572435682,-0.556749168,-0.011200293,-0.601825007
590,1478893,1070740,1.329,1.128,0.31,409.8,1.3,50.9,10.8,13.9,-25.4,0.578051088,-0.55159154,-0.0159611805,-0.601062044
591,1480448,1070740,1.341,1.218,0.274,419.9,8.6,47.1,10.8,13.9,-25.4,0.583697012,-0.546189764,-0.0207525864,-0.600421155
592,1483724,1070750,1.345,1.436,0.25,420.5,5.2,39.7,10.8,13.9,-25.4,0.589220862,-0.540757469,-0.025757622,-0.599749748
593,1485249,1070750,1.28,1.547,0.329,404.4,-7.1,29.9,10.8,13.9,-25.4,0.594347972,-0.53563036,-0.0307626576,-0.599017304
594,1488631,1070750,1.241,1.638,0.377,370.1,-23.9,18.3,10.3,12.2,-25.9,0.59889523,-0.531144139,-0.0356761376,-0.598254341
595,1490642,1070750,1.168,1.788,0.452,322.4,-41.9,5.6,10.3,12.2,-25.9,0.602649007,-0.527481918,-0.0404065065,-0.597430342
596,1492976,1070760,0.798,1.893,0.643,266,-58.3,-7.5,10.3,12.2,-25.9,0.605548265,-0.524735252,-0.0447096164,-0.596606342
597,1495447,1070760,0.598,1.584,0.643,201.5,-72.2,-19.1,10.3,12.2,-25.9,0.607531968,-0.522965178,-0.0485244301,-0.59581286
598,1499848,1070760,0.598,1.584,0.643,201.5,-72.2,-19.1,10.3,12.2,-25.9,0.607531968,-0.522965178,-0.0485244301,-0.59581286
599,1502069,1070760,0.627,0.93,0.523,40.4,-96.4,-33.5,10.3,12.2,-25.9,0.608417005,-0.523056734,-0.0537430952,-0.594378491
600,1503733,1070770,0.638,0.567,0.601,-40,-108.9,-37.2,10.3,12.2,-25.9,0.607348857,-0.524948881,-0.0551164281,-0.593676565
601,1505272,1070770,0.716,0.433,0.655,-99.5,-118.9,-39.4,10.3,12.2,-25.9,0.605548265,-0.527756584,-0.0558488723,-0.592974639
602,1509221,1070770,0.809,0.307,0.689,-130.7,-123.1,-39.2,9,11.8,-26.3,0.603381451,-0.531022065,-0.056245613,-0.592211676
603,1511916,1070770,0.891,0.169,0.707,-139.2,-120.8,-36.4,9,11.8,-26.3,0.6011536,-0.534379101,-0.056428724,-0.591479232
604,1514714,1070780,1.011,-0.118,0.698,-135.7,-113.1,-31.5,9,11.8,-26.3,0.599017304,-0.537553026,-0.0565507981,-0.590716269
605,1515355,1070780,1.045,-0.279,0.65,-130,-102.4,-25.6,9,11.8,-26.3,0.597033601,-0.54054384,-0.0565202795,-0.590014344
606,1517812,1070780,1.041,-0.443,0.604,-128,-91.3,-19.2,9,11.8,-26.3,0.595141453,-0.543351543,-0.0562761315,-0.589342936
607,1520929,1070780,1.067,-0.764,0.522,-131.2,-82.5,-12.6,9,11.8,-26.3,0.593340861,-0.546128727,-0.0558183538,-0.588671529
608,1522884,1070790,1.066,-0.847,0.502,-138.3,-78.1,-6,9,11.8,-26.3,0.591509751,-0.548905911,-0.0551164281,-0.588000122
609,1525429,1070790,1.07,-0.925,0.479,-145.9,-79.1,0.5,9,11.8,-26.3,0.58967864,-0.55180517,-0.0542313913,-0.587206641
610,1528119,1070790,1.081,-1.05,0.44,-152.1,-84.4,6.7,9,11.8,-26.3,0.587817011,-0.554826502,-0.0533158361,-0.586291086
611,1530292,1070790,1.095,-1.286,0.33,-156.6,-91.8,12.7,9,11.8,-26.3,0.5859859,-0.558030946,-0.0523392438,-0.585192419
612,1534272,1070800,1.083,-1.403,0.28,-159.7,-98.3,18.8,9,11.8,-26.3,0.58415479,-0.561357463,-0.0513016144,-0.58394116
613,1536516,1070800,1.066,-1.516,0.233,-160.9,-101.7,25.7,9,11.8,-26.3,0.582384716,-0.564714499,-0.0502639851,-0.582537309
614,1538778,1070800,1.038,-1.606,0.183,-157.8,-100.4,33.8,9,11.8,-26.3,0.580767235,-0.568041017,-0.0491042817,-0.581041902
615,1540886,1070800,0.917,-1.588,0.17,-148.3,-94.1,42.9,9,11.8,-26.3,0.579363384,-0.571153905,-0.0478835414,-0.579485458
616,1543007,1070810,0.859,-1.548,0.178,-131.5,-83.1,52.1,9,11.8,-26.3,0.578295236,-0.573900571,-0.0466322825,-0.577898495
617,1546308,1070810,0.805,-1.488,0.183,-109.4,-68.6,60.2,9,11.8,-26.3,0.57759331,-0.576219977,-0.0453505051,-0.576403088
618,1547873,1070810,0.805,-1.488,0.183,-109.4,-68.6,60.2,9,11.8,-26.3,0.57759331,-0.576219977,-0.0453505051,-0.576403088
619,1550588,1070810,0.642,-1.251,0.245,-66.2,-33,66.6,9,11.8,-26.3,0.577257607,-0.579332865,-0.0428479873,-0.573809015
620,1554270,1070820,0.595,-1.152,0.273,-50.3,-14.6,63.4,9,11.8,-26.3,0.577410199,-0.580187384,-0.0415967284,-0.57289346
621,1556547,1070820,0.572,-1.035,0.312,-38.6,2.3,56.6,9,11.8,-26.3,0.577623829,-0.580706198,-0.040375988,-0.572222053
622,1558378,1070820,0.534,-0.784,0.363,-30.1,17.8,47.7,8.1,14.5,-25.5,0.577837458,-0.580919828,-0.0391552477,-0.571886349
623,1561412,1070820,0.492,-0.709,0.36,-24.9,32,38,8.1,14.5,-25.5,0.578020569,-0.580858791,-0.0379650258,-0.571825312
624,1563095,1070830,0.48,-0.63,0.348,-23,45.6,28.1,8.1,14.5,-25.5,0.578142644,-0.580584124,-0.0367442854,-0.57206946
625,1565383,1070830,0.48,-0.482,0.277,-23.9,58.7,18.3,8.1,14.5,-25.5,0.578112125,-0.580187384,-0.0354319895,-0.572588275
626,1569112,1070830,0.488,-0.416,0.246,-26.5,70.6,8.4,8.1,14.5,-25.5,0.577929014,-0.57963805,-0.0341502121,-0.573412275
627,1571430,1070830,0.492,-0.362,0.21,-29.5,80.7,-1.3,8.1,14.5,-25.5,0.57759331,-0.578997162,-0.0327463607,-0.574480422
628,1573018,1070840,0.488,-0.303,0.171,-31.6,88.7,-10.5,8.1,14.5,-25.5,0.577135533,-0.578264718,-0.0314035463,-0.575731681
629,1576477,1070840,0.504,-0.182,0.116,-32,94.5,-18.6,8.1,14.5,-25.5,0.576555681,-0.577471236,-0.0300302133,-0.57719657
630,1578655,1070840,0.504,-0.132,0.104,-30.2,98.4,-25.4,8.1,14.5,-25.5,0.575914792,-0.5765862,-0.0286873989,-0.578783532
631,1580772,1070840,0.504,-0.081,0.088,-26,100.6,-31.1,8.1,14.5,-25.5,0.575243385,-0.575640126,-0.0275276955,-0.580431532
632,1582918,1070850,0.469,-0.061,0.085,-19.5,101.2,-35.6,8.1,14.5,-25.5,0.574602496,-0.574571978,-0.0264595477,-0.582171087
633,1586245,1070850,0.391,-0.024,0.079,-10.9,100.2,-39.3,8.1,14.5,-25.5,0.574022645,-0.573412275,-0.0255134739,-0.58394116
634,1588184,1070850,0.352,-0.016,0.068,0,97.4,-42.4,8.1,14.5,-25.5,0.573534349,-0.572161016,-0.0248725852,-0.585680715
635,1590417,1070850,0.305,-0.004,0.061,14.3,92.5,-45.9,8.1,14.5,-25.5,0.573198645,-0.570757164,-0.0244758446,-0.587389752
636,1593556,1070860,0.301,0.101,0.084,32.1,85.2,-50.7,8.1,14.5,-25.5,0.572985015,-0.569231239,-0.0244148076,-0.58906827
637,1595761,1070860,0.286,0.144,0.096,52.1,75.8,-57.8,8.1,14.5,-25.5,0.572923978,-0.567583239,-0.0248725852,-0.590716269
638,1598039,1070860,0.286,0.144,0.096,52.1,75.8,-57.8,8.1,14.5,-25.5,0.572923978,-0.567583239,-0.0248725852,-0.590716269
639,1601811,1070860,0.259,0.161,0.092,89.1,55.1,-79.9,8.1,14.5,-25.5,0.573076571,-0.563921018,-0.0272835475,-0.593951231
640,1604210,1070870,0.322,0.289,0.126,102.5,45.2,-94.9,8.1,14.5,-25.5,0.573137608,-0.561998352,-0.0291756951,-0.595629749
641,1606356,1070870,0.322,0.269,0.122,111.9,36,-112.4,8.1,14.5,-25.5,0.573076571,-0.560045167,-0.0315866573,-0.597399823
642,1608187,1070870,0.392,0.366,0.156,117.9,27.2,-131.5,9.2,14.6,-25.7,0.572801904,-0.558122501,-0.0343943602,-0.599291971
643,1610427,1070870,0.444,0.459,0.175,120.6,18.9,-151,9.2,14.6,-25.7,0.572313608,-0.556260872,-0.0375682852,-0.601306192
644,1612816,1070880,0.577,0.554,0.215,119.3,11.1,-169.6,9.2,14.6,-25.7,0.571520127,-0.55446028,-0.0410473952,-0.603473006
645,1616583,1070880,0.581,0.527,0.215,111.8,4,-186.7,9.2,14.6,-25.7,0.570421461,-0.552842799,-0.0447096164,-0.605731376
646,1618299,1070880,0.644,0.561,0.249,95.7,-2.4,-201.5,9.2,14.6,-25.7,0.568895535,-0.551499985,-0.048463393,-0.60811182
647,1621221,1070880,0.718,0.548,0.263,71.2,-8.8,-214.1,9.2,14.6,-25.7,0.566911832,-0.550492874,-0.0520950957,-0.610583819
648,1624109,1070890,0.757,0.512,0.263,40.7,-15.8,-224.8,9.2,14.6,-25.7,0.564378796,-0.549943541,-0.0555436872,-0.613116855
649,1626272,1070890,0.78,0.473,0.254,6.8,-24,-234.1,9.2,14.6,-25.7,0.561296426,-0.549882504,-0.0587481307,-0.615710929
650,1628989,1070890,0.811,0.437,0.238,-28.6,-32.9,-242.2,9.2,14.6,-25.7,0.557634205,-0.550340281,-0.0616779077,-0.618305002
651,1630371,1070890,0.885,0.373,0.206,-64,-41.7,-249.1,9.2,14.6,-25.7,0.553453169,-0.551347392,-0.0643024995,-0.620899075
652,1633585,1070900,0.912,0.345,0.19,-99.1,-49.3,-254.7,9.2,14.6,-25.7,0.5487228,-0.552842799,-0.0666219062,-0.623523667
653,1635647,1070900,0.947,0.298,0.158,-134.3,-54.8,-258.5,9.2,14.6,-25.7,0.543504135,-0.554826502,-0.0685750908,-0.62611774
654,1637890,1070900,0.974,0.238,0.13,-170.3,-57.8,-260.5,9.2,14.6,-25.7,0.537766655,-0.557206946,-0.0700704978,-0.628772851
655,1641058,1070900,1.012,0.105,0.079,-206.6,-58.4,-259.8,9.2,14.6,-25.7,0.531601917,-0.560045167,-0.0710776086,-0.631397443
656,1643135,1070910,1.023,0.022,0.047,-242.5,-56.7,-256.9,9.2,14.6,-25.7,0.5249794,-0.563219092,-0.0715353862,-0.634052553
657,1645472,1070910,1.031,-0.059,0.012,-276.5,-53.1,-252,9.2,14.6,-25.7,0.517990661,-0.566698202,-0.0713827937,-0.636677145
658,1648608,1070910,1.031,-0.059,0.012,-276.5,-53.1,-252,9.2,14.6,-25.7,0.517990661,-0.566698202,-0.0713827937,-0.636677145
659,1650602,1070910,1.026,-0.309,-0.037,-332.2,-40.7,-239.3,9.2,14.6,-25.7,0.503128147,-0.574297311,-0.0695211646,-0.641987365
660,1653801,1070920,1.018,-0.364,-0.053,-351.5,-32.7,-232.5,9.2,14.6,-25.7,0.495406964,-0.578264718,-0.0678731651,-0.644611957
661,1656521,1070920,1.006,-0.426,-0.052,-364.9,-23.9,-225.7,9.2,14.6,-25.7,0.487563707,-0.582171087,-0.0658284249,-0.647267067
662,1658781,1070920,0.974,-0.582,-0.079,-372.5,-14.8,-219.1,6.6,17.9,-26.1,0.479689932,-0.586016419,-0.0635090182,-0.649922178
663,1661998,1070920,0.938,-0.703,-0.094,-374.9,-6.1,-212.6,6.6,17.9,-26.1,0.471846675,-0.58967864,-0.0609759819,-0.652577288
664,1663713,1070930,0.954,-0.715,-0.094,-372.4,1.6,-206.4,6.6,17.9,-26.1,0.464094974,-0.593218787,-0.0583208716,-0.655171361
665,1666673,1070930,0.926,-0.789,-0.093,-365.2,8.6,-201.5,6.6,17.9,-26.1,0.456495865,-0.596484268,-0.0556047243,-0.657765435
666,1668044,1070930,0.918,-0.835,-0.07,-354,14.8,-197.9,6.6,17.9,-26.1,0.449049348,-0.599536119,-0.0529496139,-0.66032899
667,1671209,1070930,0.883,-0.917,-0.061,-339.4,20.1,-195.1,6.6,17.9,-26.1,0.441785943,-0.602343822,-0.0504165777,-0.662892544
668,1674007,1070940,0.844,-0.959,-0.06,-322.4,23.9,-191.6,6.6,17.9,-26.1,0.434797205,-0.604876858,-0.0480361339,-0.665364544
669,1675628,1070940,0.844,-0.92,-0.021,-303.2,26,-188,6.6,17.9,-26.1,0.428083132,-0.607135228,-0.0458693197,-0.667806024
670,1678685,1070940,0.856,-0.877,-0.002,-281.9,25.7,-185.2,6.6,17.9,-26.1,0.421674245,-0.609210486,-0.0439771722,-0.670125431
671,1680827,1070940,0.849,-0.834,0.029,-258.9,23,-183.5,6.6,17.9,-26.1,0.415540025,-0.611072115,-0.0424207282,-0.672353282
672,1683135,1070950,0.865,-0.791,0.063,-236.2,18.8,-181.3,6.6,17.9,-26.1,0.409741508,-0.612750633,-0.0411999878,-0.674459059
673,1686203,1070950,0.885,-0.712,0.125,-216.5,14.1,-177,6.6,17.9,-26.1,0.404248177,-0.614307077,-0.040253914,-0.676412244
674,1688347,1070950,0.905,-0.674,0.149,-201.4,10,-170.9,6.6,17.9,-26.1,0.399029511,-0.615771966,-0.0394909513,-0.678212836
675,1690561,1070950,0.913,-0.635,0.176,-190.9,7,-164.6,6.6,17.9,-26.1,0.394024476,-0.617175817,-0.0387890255,-0.679891354
676,1693796,1070960,0.925,-0.549,0.222,-183.7,5.9,-160.5,6.6,17.9,-26.1,0.389141514,-0.618518632,-0.0381786554,-0.681508835
677,1695837,1070960,0.933,-0.51,0.238,-178.1,6.7,-160.2,6.6,17.9,-26.1,0.384380627,-0.619800409,-0.0376293222,-0.683095798
678,1697969,1070960,0.933,-0.51,0.238,-178.1,6.7,-160.2,6.6,17.9,-26.1,0.384380627,-0.619800409,-0.0376293222,-0.683095798
679,1702089,1070960,0.961,-0.408,0.245,-165.9,13.5,-171.5,6.6,17.9,-26.1,0.374828333,-0.621967223,-0.036896878,-0.686483352
680,1704562,1070970,1.019,-0.382,0.244,-158.4,18.3,-180.9,6.6,17.9,-26.1,0.36997589,-0.62285226,-0.0368663594,-0.688314463
681,1707447,1070970,1.051,-0.383,0.239,-150.1,22.7,-190.5,6.6,17.9,-26.1,0.36506241,-0.623554186,-0.037018952,-0.690267647
682,1707825,1070970,1.074,-0.375,0.231,-140.7,26.1,-199,3.5,23.3,-20.8,0.360179449,-0.624103519,-0.0373851741,-0.692312387
683,1710200,1070970,1.078,-0.375,0.211,-129.9,28,-206.5,3.5,23.3,-20.8,0.355296487,-0.624530778,-0.0380260628,-0.694418165
684,1712837,1070980,1.156,-0.349,0.186,-117.6,28.6,-213.2,3.5,23.3,-20.8,0.350505081,-0.624835963,-0.0389416181,-0.69655446
685,1716217,1070980,1.203,-0.354,0.185,-104.8,28.6,-219,3.5,23.3,-20.8,0.345744194,-0.624988556,-0.0400708029,-0.698690756
686,1718242,1070980,1.234,-0.32,0.173,-93.5,28.6,-223.3,3.6,23.7,-20.3,0.34110538,-0.625049593,-0.0415051729,-0.70085757
687,1721298,1070980,1.293,-0.235,0.148,-85.7,29.1,-226.2,3.6,23.7,-20.3,0.336497085,-0.625049593,-0.0430616169,-0.702993866
688,1722815,1070990,1.261,-0.23,0.145,-83,31,-227.9,3.6,23.7,-20.3,0.331888791,-0.624958037,-0.0446790979,-0.70516068
689,1725735,1070990,1.23,-0.245,0.146,-85.6,35.4,-228.2,3.6,23.7,-20.3,0.327219459,-0.624805445,-0.0461745048,-0.707358013
690,1728906,1070990,1.168,-0.268,0.143,-92,42.6,-226.1,2.5,24.2,-20,0.322519608,-0.624561296,-0.0475783563,-0.709646901
691,1730362,1070990,0.956,-0.393,0.143,-99.4,52.1,-220.6,2.5,24.2,-20,0.317789239,-0.624195074,-0.0486770226,-0.711996826
692,1733627,1071000,0.823,-0.473,0.134,-105.6,61,-211.9,2.5,24.2,-20,0.313119907,-0.623767815,-0.0495010224,-0.714407788
693,1735679,1071000,0.752,-0.57,0.116,-108.5,65.8,-202.6,2.5,24.2,-20,0.308572649,-0.623249001,-0.0500808741,-0.716788232
694,1738791,1071000,0.78,-0.504,0.096,-105.5,63.3,-197,2.2,24.6,-19.9,0.304116947,-0.622730186,-0.0506912442,-0.71907712
695,1740667,1071000,0.901,-0.483,0.031,-95.4,54.3,-198.4,2.2,24.6,-19.9,0.2997528,-0.622302927,-0.0515457625,-0.721243934
696,1743027,1071010,0.932,-0.46,0.042,-80,42.7,-206.5,2.2,24.6,-19.9,0.29544969,-0.621906186,-0.0527665029,-0.723258156
697,1747355,1071010,0.952,-0.468,0.061,-63.8,33.2,-216.9,2.2,24.6,-19.9,0.291207617,-0.621539964,-0.0545365764,-0.725180822
698,1749382,1071010,0.952,-0.468,0.061,-63.8,33.2,-216.9,2.2,24.6,-19.9,0.291207617,-0.621539964,-0.0545365764,-0.725180822
699,1751428,1071010,0.96,-0.467,0.155,-43.2,27.3,-228.6,1,24.5,-19.8,0.282815027,-0.620685446,-0.0588396863,-0.728873562
700,1754026,1071020,0.984,-0.483,0.19,-40.8,27.5,-228.2,1,24.5,-19.8,0.27866451,-0.62019715,-0.0610675375,-0.730704672
701,1756788,1071020,1.003,-0.523,0.205,-43.2,26.6,-225.8,1,24.5,-19.8,0.274513993,-0.619708853,-0.0632953887,-0.732474746
702,1759047,1071020,1.03,-0.605,0.232,-49.5,23.1,-222.9,0,24.8,-18.8,0.270302438,-0.619342631,-0.0654011658,-0.734183782
703,1761388,1071020,1.069,-0.66,0.239,-57.7,17.6,-220.5,0,24.8,-18.8,0.265999329,-0.619067965,-0.0673238319,-0.735801263
704,1764005,1071030,1.1,-0.692,0.251,-65.4,11.2,-218.6,0,24.8,-18.8,0.261635182,-0.618945891,-0.069185461,-0.737327189
705,1765856,1071030,1.124,-0.724,0.25,-70.3,4.9,-216.7,0,24.8,-18.8,0.257179479,-0.618915372,-0.0708944975,-0.73873104
706,1769050,1071030,1.159,-0.81,0.25,-71.5,0,-214.1,-0.6,24.4,-19.4,0.252754295,-0.618976409,-0.0726645711,-0.740012818
707,1770816,1071030,1.123,-0.853,0.243,-69.2,-3.6,-210.7,-0.6,24.4,-19.4,0.248420667,-0.619098483,-0.0744346446,-0.741233558
708,1773071,1071040,1.08,-0.868,0.22,-64.5,-6.4,-206.3,-0.6,24.4,-19.4,0.244209113,-0.619190039,-0.0762047182,-0.742362743
709,1775239,1071040,1.217,-0.812,0.182,-58.5,-10.2,-201.2,-0.6,24.4,-19.4,0.240119633,-0.619342631,-0.0780358287,-0.743400372
710,1779297,1071040,1.353,-0.783,0.168,-52.3,-16,-195.8,-1.7,24.2,-19,0.236213263,-0.619525742,-0.0798974578,-0.744285409
711,1781521,1071040,1.42,-0.729,0.131,-45.7,-23.2,-190.6,-1.7,24.2,-19,0.232459487,-0.619800409,-0.0818506424,-0.745017853
712,1783741,1071050,1.499,-0.652,0.22,-37.5,-30.4,-185.8,-1.7,24.2,-19,0.228858303,-0.620166631,-0.0839259011,-0.745597705
713,1785873,1071050,1.636,-0.552,0.327,-27.3,-36.1,-181,-1.7,24.2,-19,0.225501267,-0.620532853,-0.0860927152,-0.746055483
714,1788081,1071050,1.664,-0.513,0.357,-16.4,-39.8,-175.7,-2.2,24,-19.2,0.222327342,-0.620929594,-0.088412122,-0.746421705
715,1792037,1071050,1.665,-0.423,0.412,-6.8,-41.6,-170.3,-2.2,24,-19.2,0.219367046,-0.621326334,-0.0907925657,-0.746696371
716,1794272,1071060,1.63,-0.329,0.432,0.1,-41.9,-164.7,-2.2,24,-19.2,0.21662038,-0.621662038,-0.0932340464,-0.746910001
717,1796328,1071060,1.63,-0.337,0.424,3.8,-41.7,-158.4,-2.2,24,-19.2,0.213995788,-0.621997742,-0.0956450087,-0.747062593
718,1797892,1071060,1.63,-0.337,0.424,3.8,-41.7,-158.4,-2.2,24,-19.2,0.213995788,-0.621997742,-0.0956450087,-0.747062593
719,1800865,1071060,1.615,-0.176,0.483,4.3,-39.2,-143.9,-3.3,23.3,-19.1,0.209143345,-0.62263863,-0.100192267,-0.74733726
720,1802806,1071070,1.514,0.028,0.524,4.8,-35,-137.3,-3.3,23.3,-19.1,0.206884976,-0.622882778,-0.102267525,-0.747459334
721,1806239,1071070,1.452,0.115,0.513,5.9,-27.6,-132.2,-3.3,23.3,-19.1,0.20474868,-0.623004852,-0.104312265,-0.747672964
722,1808612,1071070,1.413,0.143,0.478,5.3,-18.1,-128.9,-3.9,25.6,-17.8,0.202673421,-0.623004852,-0.106234931,-0.747978149
723,1810644,1071070,1.397,0.143,0.42,0.5,-7.8,-127.1,-3.9,25.6,-17.8,0.200598163,-0.622821741,-0.108005005,-0.748435926
724,1813011,1071080,1.304,0.386,0.343,-9.3,1.9,-125.8,-3.9,25.6,-17.8,0.19840083,-0.622516556,-0.109530931,-0.749015778
725,1815622,1071080,1.236,0.274,0.25,-24.9,11.5,-124.1,-3.9,25.6,-17.8,0.196081423,-0.622150334,-0.110782189,-0.749778741
726,1818133,1071080,1.184,0.118,0.15,-45.8,21.4,-122.2,-4.2,24.4,-20.3,0.19348735,-0.621692557,-0.111575671,-0.750694296
727,1820391,1071080,1.004,-0.043,0.075,-68.2,31.1,-121.3,-4.2,24.4,-20.3,0.190649129,-0.621173742,-0.111972411,-0.751792962
728,1823047,1071090,0.957,-0.034,0.056,-84.7,38.1,-122.2,-4.2,24.4,-20.3,0.187597278,-0.62059389,-0.112094485,-0.753013703
729,1825637,1071090,0.933,-0.042,0.041,-89,38.9,-125,-4.2,24.4,-20.3,0.184423353,-0.620014039,-0.112155522,-0.754264962
730,1829217,1071090,0.933,-0.053,0.022,-82.4,32.2,-128.2,-5.1,24.1,-19.4,0.181279946,-0.619495224,-0.11239967,-0.755424665
731,1831496,1071090,0.991,-0.125,-0.018,-70.3,19.5,-130.2,-5.1,24.1,-19.4,0.178228095,-0.619129002,-0.112887967,-0.756370739
732,1833689,1071100,1.026,-0.165,-0.018,-58.2,5.2,-129.4,-5.1,24.1,-19.4,0.175328837,-0.618945891,-0.113711966,-0.757103183
733,1836440,1071100,0.972,-0.144,-0.009,-48.9,-6.1,-125,-5.1,24.1,-19.4,0.172582171,-0.618915372,-0.114597003,-0.757591479
734,1837911,1071100,0.952,-0.14,-0.005,-43.2,-12.1,-117.4,-5.5,24.2,-19.5,0.170018616,-0.619006928,-0.115512558,-0.75798822
735,1840759,1071100,0.991,-0.223,-0.017,-40.6,-12.8,-108.4,-5.5,24.2,-19.5,0.167638173,-0.619067965,-0.116367077,-0.758323923
736,1843157,1071110,0.991,-0.254,-0.013,-40.4,-10.7,-100.6,-5.5,24.2,-19.5,0.165410321,-0.61915952,-0.117099521,-0.758629109
737,1845260,1071110,0.964,-0.25,-0.013,-41.2,-8.2,-94.3,-5.5,24.2,-19.5,0.163274026,-0.619190039,-0.117709891,-0.758964812
738,1848242,1071110,0.964,-0.25,-0.013,-41.2,-8.2,-94.3,-5.5,24.2,-19.5,0.163274026,-0.619190039,-0.117709891,-0.758964812
739,1851490,1071110,0.928,-0.323,-0.028,-43.7,-7.2,-81.2,-6,24.4,-19.1,0.159245582,-0.619281594,-0.118625446,-0.759605701
740,1853675,1071120,0.92,-0.37,-0.027,-46.5,-8.5,-73,-6,24.4,-19.1,0.157383953,-0.619403668,-0.118869594,-0.759849849
741,1856943,1071120,0.904,-0.393,-0.023,-49.9,-9.8,-64,-6,24.4,-19.1,0.155644398,-0.619586779,-0.118930631,-0.760063478
742,1858971,1071120,0.858,-0.4,-0.022,-52.4,-10.6,-54.8,-6,25.2,-17.8,0.153996399,-0.619800409,-0.118839076,-0.76024659
743,1860517,1071120,0.842,-0.408,-0.018,-53.2,-11.2,-45.7,-6,25.2,-17.8,0.152470473,-0.620044557,-0.118625446,-0.760399182
744,1863535,1071130,0.83,-0.419,-0.026,-52.4,-11.7,-37,-6,25.2,-17.8,0.151127659,-0.620319224,-0.118259224,-0.760490738
745,1866518,1071130,0.815,-0.419,-0.029,-51.2,-12.4,-28.8,-6,25.2,-17.8,0.149906919,-0.62059389,-0.117862484,-0.760551775
746,1867901,1071130,0.799,-0.434,-0.025,-50.6,-13.4,-21.3,-6.7,24.7,-17.8,0.148838771,-0.620929594,-0.117374187,-0.760551775
747,1871433,1071130,0.818,-0.462,-0.014,-50.6,-14.5,-14.8,-6.7,24.7,-17.8,0.147862178,-0.621295816,-0.116763817,-0.760551775
748,1873206,1071140,0.822,-0.478,0.017,-50.8,-15.9,-9.1,-6.7,24.7,-17.8,0.146977142,-0.621723075,-0.116122929,-0.760490738
749,1876182,1071140,0.831,-0.469,0.11,-51,-17.6,-4.1,-6.7,24.7,-17.8,0.14618366,-0.622150334,-0.115329447,-0.760399182
750,1877909,1071140,0.839,-0.465,0.134,-51,-19.7,0.3,-6.7,25.3,-17.8,0.145451216,-0.62263863,-0.114597003,-0.76024659
751,1880978,1071140,0.839,-0.458,0.145,-51.8,-22,4.3,-6.7,25.3,-17.8,0.14474929,-0.623187963,-0.113742485,-0.760063478
752,1884014,1071150,0.847,-0.442,0.161,-54,-24.1,8,-6.7,25.3,-17.8,0.144108402,-0.623767815,-0.112796411,-0.759849849
753,1885527,1071150,0.839,-0.43,0.188,-58.3,-25.1,11.6,-6.7,25.3,-17.8,0.143436995,-0.624408704,-0.111758782,-0.759605701
754,1888583,1071150,0.827,-0.422,0.189,-64.9,-24.6,15.5,-6.8,25.5,-17.4,0.142735069,-0.625049593,-0.110538041,-0.759361553
755,1890836,1071150,0.816,-0.422,0.201,-73.5,-22.3,19.6,-6.8,25.5,-17.4,0.142002625,-0.625721,-0.10913419,-0.759178442
756,1892987,1071160,0.808,-0.441,0.189,-83.3,-18.8,24,-6.8,25.5,-17.4,0.141239662,-0.62633137,-0.10748619,-0.759056368
757,1897152,1071160,0.8,-0.445,0.177,-93,-14.6,28.1,-6.8,25.5,-17.4,0.140385144,-0.626911222,-0.105563524,-0.758995331
758,1899344,1071160,0.8,-0.445,0.177,-93,-14.6,28.1,-6.8,25.5,-17.4,0.140385144,-0.626911222,-0.105563524,-0.758995331
759,1901350,1071160,0.792,-0.465,0.166,-106.3,-8.1,35.1,-6.6,25.6,-17.3,0.139866329,-0.628437147,-0.0997650075,-0.75859859
760,1903753,1071170,0.792,-0.48,0.158,-108.4,-6.7,37.7,-6.6,25.6,-17.3,0.139011811,-0.628955962,-0.0974761193,-0.758629109
761,1905769,1071170,0.796,-0.48,0.146,-107.2,-6.7,39.7,-6.6,25.6,-17.3,0.138187811,-0.629474776,-0.0951872311,-0.758659627
762,1908012,1071170,0.792,-0.484,0.142,-103.3,-7.9,41.2,-6.7,25.3,-16.4,0.137424848,-0.63002411,-0.0929288614,-0.758629109
763,1910496,1071170,0.792,-0.484,0.142,-97.4,-10,42.4,-6.7,25.3,-16.4,0.136753441,-0.630542924,-0.0907620472,-0.758568072
764,1914042,1071180,0.8,-0.484,0.15,-90,-12.7,43.3,-6.7,25.3,-16.4,0.136204108,-0.631122776,-0.088717307,-0.758415479
765,1916549,1071180,0.808,-0.48,0.158,-81.9,-15.7,44.1,-6.7,25.3,-16.4,0.135776849,-0.631702628,-0.0867946409,-0.758232368
766,1918740,1071180,0.808,-0.48,0.166,-73.5,-18.8,44.8,-6.2,25.6,-16.1,0.135471664,-0.632312998,-0.0849940489,-0.75798822
767,1921371,1071180,0.82,-0.457,0.185,-64.9,-21.9,45.7,-6.2,25.6,-16.1,0.135288553,-0.632953887,-0.0833765679,-0.757652516
768,1923254,1071190,0.82,-0.445,0.197,-56.3,-24.8,46.6,-6.2,25.6,-16.1,0.135258034,-0.633625294,-0.0818811609,-0.757286294
769,1925555,1071190,0.832,-0.426,0.212,-48,-27.4,47.6,-6.2,25.6,-16.1,0.135319071,-0.634296701,-0.080507828,-0.756859035
770,1927764,1071190,0.847,-0.407,0.212,-40.1,-29.6,48.7,-6.4,25.8,-16,0.135532701,-0.634998627,-0.0792565691,-0.756370739
771,1932035,1071190,0.883,-0.372,0.223,-32.9,-31.3,49.8,-6.4,25.8,-16,0.135837886,-0.635700552,-0.0780968657,-0.755851924
772,1934213,1071200,0.902,-0.357,0.218,-26.6,-32.1,50.9,-6.4,25.8,-16,0.136234626,-0.636402478,-0.0770592364,-0.755302591
773,1936478,1071200,0.914,-0.345,0.218,-21.1,-32,52,-6.4,25.8,-16,0.136753441,-0.637073885,-0.0760826441,-0.754722739
774,1938803,1071200,0.925,-0.342,0.206,-16.3,-31,53.1,-6.8,25.8,-15.7,0.137363811,-0.637684256,-0.0751670888,-0.754173406
775,1940641,1071200,0.91,-0.291,0.195,-11.8,-29,54.2,-6.8,25.8,-15.7,0.138035218,-0.638325144,-0.0743125706,-0.753624073
776,1942811,1071210,0.902,-0.267,0.195,-7.5,-26.5,55,-6.8,25.8,-15.7,0.138798181,-0.638874477,-0.0734885708,-0.75307474
777,1946265,1071210,0.914,-0.259,0.199,-3.5,-24.4,55.4,-6.8,25.8,-15.7,0.139622181,-0.639362774,-0.0727256081,-0.752586444
778,1948247,1071210,0.914,-0.259,0.199,-3.5,-24.4,55.4,-6.8,25.8,-15.7,0.139622181,-0.639362774,-0.0727256081,-0.752586444
779,1950706,1071210,0.992,-0.257,0.146,1.2,-22.6,56,-6.9,26.3,-15.4,0.142338328,-0.64024781,-0.0701925718,-0.751548814
780,1952906,1071220,0.992,-0.261,0.127,2.4,-21.6,56.6,-6.9,26.3,-15.4,0.143253883,-0.640705588,-0.0695211646,-0.751060518
781,1955248,1071220,0.988,-0.265,0.115,4.1,-19.8,57.5,-6.9,26.3,-15.4,0.144230476,-0.641102329,-0.0688497574,-0.750602741
782,1957787,1071220,0.972,-0.261,0.092,6.4,-17.3,58.5,-5.2,25.5,-15.6,0.145237587,-0.641438032,-0.0681783502,-0.750175481
783,1961341,1071220,0.976,-0.253,0.096,9.2,-15,59.3,-5.2,25.5,-15.6,0.146336253,-0.641743217,-0.06756798,-0.749748222
784,1963417,1071230,0.98,-0.249,0.088,12.1,-13.6,59.5,-5.2,25.5,-15.6,0.147465438,-0.642017884,-0.0669576098,-0.749351482
785,1965552,1071230,0.992,-0.246,0.095,14.8,-13.6,59.4,-5.2,25.5,-15.6,0.148625141,-0.64229255,-0.0664082766,-0.748954741
786,1968189,1071230,1.007,-0.23,0.087,17.1,-14.3,59.2,-6.6,27.1,-15.6,0.149815363,-0.642536699,-0.0659199805,-0.748527482
787,1971323,1071230,1.027,-0.215,0.091,19.1,-15.1,58.8,-6.6,27.1,-15.6,0.151005585,-0.642811365,-0.0654622028,-0.748100223
788,1973425,1071240,1.035,-0.215,0.083,20.7,-15.6,58.4,-6.6,27.1,-15.6,0.152226325,-0.643086032,-0.0650349437,-0.747642445
789,1975460,1071240,1.031,-0.215,0.079,22.2,-15.7,57.9,-6.6,27.1,-15.6,0.153477584,-0.643360698,-0.0646382031,-0.747215186
790,1979092,1071240,1.031,-0.211,0.083,23.7,-15.6,57.3,-6.1,27.3,-15.8,0.154728843,-0.643604846,-0.064271981,-0.746757408
791,1980725,1071240,1.035,-0.207,0.083,25.5,-15.5,56.7,-6.1,27.3,-15.8,0.155980102,-0.643848994,-0.0639362774,-0.746330149
792,1982753,1071250,1.035,-0.211,0.087,27.5,-15.4,56,-6.1,27.3,-15.8,0.157261879,-0.644093142,-0.0636616108,-0.745872372
793,1985788,1071250,1.031,-0.188,0.102,29.5,-15.5,55.3,-6.1,27.3,-15.8,0.158543657,-0.644306772,-0.0634174627,-0.745414594
794,1988843,1071250,1.039,-0.168,0.11,30.9,-15.7,54.7,-6.5,27.4,-15.9,0.159855953,-0.64455092,-0.0632038331,-0.744956816
795,1990509,1071250,1.054,-0.157,0.11,31.7,-16,54.2,-6.5,27.4,-15.9,0.161168249,-0.64476455,-0.0629902036,-0.744499039
796,1992706,1071260,1.074,-0.137,0.117,31.3,-16.3,53.6,-6.5,27.4,-15.9,0.162450026,-0.644978179,-0.0628070925,-0.744041261
797,1996840,1071260,1.082,-0.122,0.121,29.9,-17,53.2,-6.5,27.4,-15.9,0.163701285,-0.645222327,-0.0625934629,-0.743583483
798,1999204,1071260,1.082,-0.122,0.121,29.9,-17,53.2,-6.5,27.4,-15.9,0.163701285,-0.645222327,-0.0625934629,-0.743583483
799,2001329,1071260,1.078,-0.106,0.133,25.3,-18.4,53.1,-6.2,27.2,-15.9,0.166142766,-0.645954772,-0.0620441298,-0.742454299
800,2002756,1071270,1.082,-0.083,0.136,22.6,-18.7,52.9,-6.2,27.2,-15.9,0.167302469,-0.646259957,-0.0617694632,-0.741966002
801,2005870,1071270,1.086,-0.071,0.14,20.1,-18.6,52.5,-6.2,27.2,-15.9,0.168401135,-0.646565142,-0.0614032411,-0.741477706
802,2008748,1071270,1.086,-0.063,0.14,17.5,-18.1,51.9,-4,26.4,-15.9,0.169469283,-0.646839808,-0.061037019,-0.74098941
803,2011826,1071270,1.078,-0.055,0.136,14.9,-17.5,51,-4,26.4,-15.9,0.170476394,-0.647144993,-0.0605792413,-0.740562151
804,2014109,1071280,1.078,-0.044,0.132,12.4,-16.8,49.9,-4,26.4,-15.9,0.171452986,-0.647450179,-0.0601825007,-0.740104373
805,2015529,1071280,1.067,-0.036,0.133,9.9,-15.9,48.5,-4,26.4,-15.9,0.172338023,-0.647724845,-0.059724723,-0.739677114
806,2018623,1071280,1.059,-0.035,0.141,7.7,-14.9,46.9,-5,26.6,-15.7,0.173192541,-0.647999512,-0.0592364269,-0.739249855
807,2021588,1071280,1.051,-0.027,0.137,5.6,-13.8,45.3,-5,26.6,-15.7,0.173986023,-0.64824366,-0.0587176122,-0.738914151
808,2023915,1071290,1.051,-0.027,0.137,3.8,-12.8,43.7,-5,26.6,-15.7,0.174718467,-0.648518326,-0.0582293161,-0.738547929
809,2026347,1071290,1.047,-0.027,0.133,2.1,-12,41.9,-5,26.6,-15.7,0.175420392,-0.648731956,-0.0577105014,-0.738212226
810,2028222,1071290,1.039,-0.023,0.133,0.4,-11.3,40.3,-4.7,26.5,-15.8,0.176061281,-0.648976104,-0.0571611682,-0.737907041
811,2031615,1071290,1.032,-0.035,0.133,-1.3,-10.7,38.7,-4.7,26.5,-15.8,0.176641133,-0.649189734,-0.0566728721,-0.737601856
812,2033791,1071300,1.028,-0.043,0.133,-2.9,-9.9,37.3,-4.7,26.5,-15.8,0.177190466,-0.649403363,-0.0561235389,-0.737327189
813,2035352,1071300,1.02,-0.047,0.133,-4.6,-9.1,35.9,-4.7,26.5,-15.8,0.177709281,-0.649616993,-0.0555742058,-0.737052522
814,2037923,1071300,1.012,-0.046,0.134,-6,-8.2,34.5,-4.3,26.8,-15.9,0.178167058,-0.649830622,-0.0550248726,-0.736808374
815,2042268,1071300,1.008,-0.062,0.134,-7.3,-7.5,33,-4.3,26.8,-15.9,0.178563799,-0.650013733,-0.0544755394,-0.736594745
816,2044469,1071310,1,-0.074,0.13,-8.4,-6.8,31.4,-4.3,26.8,-15.9,0.178930021,-0.650196844,-0.0538956877,-0.736381115
817,2046432,1071310,0.996,-0.077,0.13,-9.4,-6.3,29.8,-4.3,26.8,-15.9,0.179296243,-0.650379955,-0.0533463546,-0.736198004
818,2048122,1071310,0.996,-0.077,0.13,-9.4,-6.3,29.8,-4.3,26.8,-15.9,0.179296243,-0.650379955,-0.0533463546,-0.736198004
819,2050300,1071310,0.984,-0.097,0.13,-10.9,-5.2,26.6,-3.5,26.8,-16,0.17957091,-0.650746178,-0.0525833918,-0.735831782
820,2054220,1071320,0.984,-0.101,0.13,-11.1,-4.6,25,-3.5,26.8,-16,0.179815058,-0.65089877,-0.0520340587,-0.735679189
821,2056484,1071320,0.984,-0.108,0.126,-10.8,-3.9,23.4,-3.5,26.8,-16,0.180028687,-0.651020844,-0.0515457625,-0.735557115
822,2058505,1071320,0.98,-0.12,0.123,-10.2,-3.4,21.8,-4.1,26.7,-16,0.180242317,-0.651142918,-0.0511185034,-0.735435041
823,2061732,1071320,0.98,-0.124,0.127,-9.4,-3,20.3,-4.1,26.7,-16,0.180425428,-0.651264992,-0.0506912442,-0.735312967
824,2064158,1071330,0.976,-0.128,0.123,-8.5,-2.7,18.5,-4.1,26.7,-16,0.180608539,-0.651356548,-0.0502945036,-0.735221412
825,2066307,1071330,0.98,-0.136,0.123,-7.5,-2.3,16.6,-4.1,26.7,-16,0.180761132,-0.651448103,-0.0499588,-0.735129856
826,2068370,1071330,0.98,-0.148,0.119,-6.5,-1.8,14.6,-4,26.8,-15.5,0.180883206,-0.65150914,-0.0496536149,-0.735038301
827,2070360,1071330,0.976,-0.155,0.123,-5.4,-1.2,12.6,-4,26.8,-15.5,0.181035798,-0.651570177,-0.0493484298,-0.734977264
828,2074571,1071340,0.972,-0.163,0.119,-4.4,-0.7,10.6,-4,26.8,-15.5,0.181127354,-0.651600696,-0.0491653188,-0.734946745
829,2076380,1071340,0.969,-0.163,0.119,-3.5,-0.3,8.6,-4,26.8,-15.5,0.181218909,-0.651631214,-0.0489822077,-0.734885708
830,2077992,1071340,0.965,-0.167,0.123,-3,0,6.8,-3.8,26.6,-16.3,0.181279946,-0.651661733,-0.0488296152,-0.734885708
831,2081003,1071340,0.957,-0.174,0.119,-3.1,0.4,5.2,-3.8,26.6,-16.3,0.181310465,-0.651661733,-0.0487075411,-0.73485519
832,2083898,1071350,0.961,-0.178,0.111,-3.8,0.6,3.7,-3.8,26.6,-16.3,0.181340983,-0.651692251,-0.0485854671,-0.73485519
833,2085569,1071350,0.953,-0.182,0.119,-4.9,0.6,2.3,-3.8,26.6,-16.3,0.181279946,-0.651692251,-0.0484939116,-0.73485519
834,2089435,1071350,0.949,-0.194,0.112,-6.3,0.3,0.8,-4.1,27.3,-15.9,0.181218909,-0.65172277,-0.0483718375,-0.734885708
835,2091389,1071350,0.945,-0.194,0.108,-8,0,-0.3,-4.1,27.3,-15.9,0.181096835,-0.651753288,-0.0482497635,-0.734885708
836,2092818,1071360,0.941,-0.198,0.104,-9.7,-0.3,-1.4,-4.1,27.3,-15.9,0.180944243,-0.651783807,-0.0480971709,-0.734885708
837,2095710,1071360,0.937,-0.202,0.1,-11.2,-0.7,-2.2,-4.1,27.3,-15.9,0.180730613,-0.651844844,-0.0479750969,-0.734916227
838,2099298,1071360,0.937,-0.202,0.1,-11.2,-0.7,-2.2,-4.1,27.3,-15.9,0.180730613,-0.651844844,-0.0479750969,-0.734916227
839,2101106,1071360,0.937,-0.209,0.096,-13.9,-2.1,-4,-3.8,26.8,-15.6,0.18039491,-0.652241585,-0.0474562822,-0.734672079
840,2102883,1071370,0.937,-0.209,0.096,-14.9,-2.9,-4.8,-3.8,26.8,-15.6,0.180089724,-0.652363659,-0.0472731712,-0.734672079
841,2105295,1071370,0.941,-0.213,0.092,-15.7,-3.7,-5.6,-3.8,26.8,-15.6,0.179784539,-0.652455214,-0.0471205786,-0.73464156
842,2108601,1071370,0.945,-0.21,0.096,-16.1,-4.8,-6.2,-4.6,26.7,-15.7,0.179448836,-0.652607807,-0.0469679861,-0.734611042
843,2111519,1071370,0.945,-0.206,0.1,-16.3,-6,-7.1,-4.6,26.7,-15.7,0.179082614,-0.652760399,-0.046845912,-0.734580523
844,2113171,1071380,0.953,-0.206,0.104,-16.2,-7.1,-7.8,-4.6,26.7,-15.7,0.178716391,-0.652912992,-0.046723838,-0.734519486
845,2115522,1071380,0.957,-0.202,0.108,-16.1,-8.1,-8.5,-4.6,26.7,-15.7,0.178350169,-0.653096103,-0.046601764,-0.734458449
846,2119496,1071380,0.961,-0.194,0.104,-15.8,-8.9,-9.1,-2.9,27,-15.7,0.177953429,-0.653309732,-0.0465102084,-0.734366894
847,2121718,1071380,0.965,-0.186,0.111,-15.4,-9.7,-9.5,-2.9,27,-15.7,0.177587207,-0.653523362,-0.0464186529,-0.734275338
848,2123582,1071390,0.965,-0.179,0.119,-15.1,-10.2,-9.8,-2.9,27,-15.7,0.177190466,-0.653736991,-0.0463881344,-0.734183782
849,2127021,1071390,0.965,-0.167,0.123,-14.8,-10.5,-10.2,-2.9,27,-15.7,0.176793725,-0.653950621,-0.0463270974,-0.734092227
850,2128782,1071390,0.972,-0.163,0.123,-14.8,-10.9,-10.5,-3.5,26.7,-15.2,0.176427503,-0.654164251,-0.0462965789,-0.734000671
851,2130447,1071390,0.98,-0.151,0.127,-14.8,-11.4,-10.7,-3.5,26.7,-15.2,0.176000244,-0.654408399,-0.0462355419,-0.733878597
852,2134164,1071400,0.98,-0.144,0.13,-14.8,-11.9,-10.9,-3.5,26.7,-15.2,0.175603504,-0.654622028,-0.0461745048,-0.733787042
853,2135656,1071400,0.984,-0.14,0.138,-14.7,-12.3,-10.8,-3.5,26.7,-15.2,0.175206763,-0.654866176,-0.0461745048,-0.733664968
854,2137962,1071400,0.98,-0.136,0.138,-14.5,-12.4,-11,-3.3,27.2,-15.5,0.174810022,-0.655110324,-0.0461439863,-0.733542894
855,2140207,1071400,0.988,-0.124,0.142,-14.4,-12.5,-11.4,-3.3,27.2,-15.5,0.174413282,-0.655354472,-0.0461439863,-0.73342082
856,2143787,1071410,0.984,-0.124,0.146,-14.2,-12.4,-12,-3.3,27.2,-15.5,0.174016541,-0.655598621,-0.0461134678,-0.733298746
857,2145538,1071410,0.992,-0.124,0.142,-14.1,-12,-12.6,-3.3,27.2,-15.5,0.173589282,-0.655842769,-0.0461134678,-0.733176672
858,2148328,1071410,0.992,-0.124,0.142,-14.1,-12,-12.6,-3.3,27.2,-15.5,0.173589282,-0.655842769,-0.0461134678,-0.733176672
859,2150633,1071410,0.988,-0.12,0.138,-14,-10.5,-13.4,-3.4,26.9,-15.7,0.172582171,-0.656239509,-0.0463270974,-0.733054598
860,2152992,1071420,0.988,-0.12,0.146,-14.1,-9.5,-13.7,-3.4,26.9,-15.7,0.172154912,-0.65642262,-0.0463270974,-0.732993561
861,2156540,1071420,0.988,-0.12,0.134,-14.3,-8.4,-13.9,-3.4,26.9,-15.7,0.171727653,-0.656605731,-0.0463270974,-0.732932524
862,2157870,1071420,0.984,-0.128,0.134,-14.7,-7.2,-14,-4.3,26.8,-15.6,0.171269875,-0.656758324,-0.0463270974,-0.732902005
863,2161864,1071420,0.984,-0.128,0.134,-15.2,-6,-14,-4.3,26.8,-15.6,0.170812098,-0.656910916,-0.0462965789,-0.732871487
864,2163193,1071430,0.988,-0.132,0.13,-15.8,-4.7,-14.1,-4.3,26.8,-15.6,0.17035432,-0.657032991,-0.0462660604,-0.732871487
865,2166480,1071430,0.984,-0.136,0.126,-16.2,-3.5,-14.1,-4.3,26.8,-15.6,0.169896542,-0.657124546,-0.0462355419,-0.732902005
866,2167768,1071430,0.988,-0.144,0.13,-16.7,-2.6,-14.1,-3.9,26.9,-14.7,0.169438765,-0.657216102,-0.0461745048,-0.732932524
867,2171529,1071430,0.984,-0.148,0.127,-17.2,-1.7,-14.1,-3.9,26.9,-14.7,0.168950468,-0.657277139,-0.0461134678,-0.732963042
868,2172868,1071440,0.988,-0.159,0.13,-17.6,-0.9,-14.1,-3.9,26.9,-14.7,0.168492691,-0.657368694,-0.0460524308,-0.733024079
869,2176327,1071440,0.984,-0.175,0.127,-17.9,-0.2,-14.1,-3.9,26.9,-14.7,0.168004395,-0.657399213,-0.0459303568,-0.733085116
870,2178226,1071440,0.992,-0.179,0.123,-18.1,0.4,-14,-3.7,27.3,-15.2,0.167516099,-0.65746025,-0.0458693197,-0.733176672
871,2181645,1071440,0.988,-0.183,0.119,-18.4,1.1,-13.8,-3.7,27.3,-15.2,0.167027802,-0.657490768,-0.0457472457,-0.733268227
872,2183809,1071450,0.992,-0.191,0.123,-18.8,1.7,-13.4,-3.7,27.3,-15.2,0.166539506,-0.657521287,-0.0456556902,-0.733359783
873,2185862,1071450,0.992,-0.202,0.123,-19,2.2,-13.1,-3.7,27.3,-15.2,0.16605121,-0.657551805,-0.0455336161,-0.733451338
874,2187868,1071450,0.996,-0.202,0.122,-19.2,2.6,-12.8,-3.9,27,-14.7,0.165593432,-0.657551805,-0.0453810236,-0.733542894
875,2190839,1071450,0.996,-0.21,0.119,-19.5,2.8,-12.6,-3.9,27,-14.7,0.165105136,-0.657551805,-0.0452589496,-0.733664968
876,2193372,1071460,1,-0.214,0.122,-19.8,3,-12.3,-3.9,27,-14.7,0.16461684,-0.657582324,-0.045106357,-0.733756523
877,2195422,1071460,1,-0.218,0.122,-20.1,3.2,-12,-3.9,27,-14.7,0.164159062,-0.657582324,-0.0449232459,-0.733878597
878,2198452,1071460,1,-0.218,0.122,-20.1,3.2,-12,-3.9,27,-14.7,0.164159062,-0.657582324,-0.0449232459,-0.733878597
879,2201360,1071460,1.004,-0.222,0.122,-20.5,3.2,-11.1,-3.7,27.3,-15,0.163579211,-0.657765435,-0.0440992462,-0.733878597
880,2203056,1071470,1.015,-0.222,0.138,-20.6,3,-10.7,-3.7,27.3,-15,0.163121433,-0.657765435,-0.0439161351,-0.734000671
881,2205226,1071470,1.015,-0.226,0.134,-20.4,2.6,-10.4,-3.7,27.3,-15,0.162663656,-0.657795953,-0.0437330241,-0.734092227
882,2208015,1071470,1.015,-0.23,0.138,-20.3,2.2,-10,-4.6,27.1,-14.9,0.162205878,-0.657826472,-0.043549913,-0.734183782
883,2211243,1071470,1.015,-0.23,0.142,-20,1.8,-9.6,-4.6,27.1,-14.9,0.161778619,-0.65785699,-0.043366802,-0.734244819
884,2214319,1071480,1.019,-0.234,0.15,-19.6,1.6,-9,-4.6,27.1,-14.9,0.16135136,-0.657887509,-0.0431531724,-0.734336375
885,2216508,1071480,1.019,-0.234,0.146,-19.2,1.4,-8.4,-4.6,27.1,-14.9,0.1609241,-0.657918027,-0.0429700613,-0.734397412
886,2218814,1071480,1.023,-0.23,0.153,-18.8,1.3,-7.8,-4.5,27.3,-14.9,0.16052736,-0.657948546,-0.0427564318,-0.734458449
887,2220905,1071480,1.023,-0.234,0.153,-18.4,1.3,-7.3,-4.5,27.3,-14.9,0.160161138,-0.658009583,-0.0425733207,-0.734519486
888,2222839,1071490,1.023,-0.234,0.153,-18.1,1.4,-6.7,-4.5,27.3,-14.9,0.159794916,-0.658040101,-0.0423902097,-0.734580523
889,2226071,1071490,1.027,-0.238,0.161,-17.8,1.5,-6.2,-4.5,27.3,-14.9,0.159398175,-0.65807062,-0.0421765801,-0.73464156
890,2227703,1071490,1.027,-0.238,0.157,-17.5,1.6,-5.6,-4.2,27.4,-14.2,0.15909299,-0.658101138,-0.041993469,-0.734702597
891,2231737,1071490,1.023,-0.23,0.157,-17.2,1.8,-5.1,-4.2,27.4,-14.2,0.158757286,-0.658101138,-0.0417798395,-0.734763634
892,2233886,1071500,1.019,-0.234,0.157,-16.7,2.1,-4.7,-4.2,27.4,-14.2,0.158421583,-0.658131657,-0.0415356914,-0.734824671
893,2235494,1071500,1.023,-0.238,0.161,-16.2,2.3,-4.1,-4.2,27.4,-14.2,0.158146916,-0.658162175,-0.0413525803,-0.734885708
894,2237821,1071500,1.019,-0.238,0.153,-15.5,2.6,-3.6,-4.6,27.3,-13.8,0.15787225,-0.658162175,-0.0411389508,-0.734946745
895,2242168,1071500,1.011,-0.238,0.154,-14.9,2.8,-2.9,-4.6,27.3,-13.8,0.157628101,-0.658162175,-0.0409558397,-0.735007782
896,2243557,1071510,1.011,-0.238,0.154,-14.2,3.1,-2.2,-4.6,27.3,-13.8,0.157383953,-0.658162175,-0.0407422102,-0.735099338
897,2245228,1071510,1.004,-0.245,0.15,-14.2,3.1,-2.2,-4.6,27.3,-13.8,0.157139805,-0.658162175,-0.0405285806,-0.735160375
898,2249147,1071510,1.004,-0.245,0.15,-14.2,3.1,-2.2,-4.6,27.3,-13.8,0.157139805,-0.658162175,-0.0405285806,-0.735160375
899,2250989,1071510,0.996,-0.245,0.15,-12.8,3.6,-1,-4,27.3,-12.9,0.157231361,-0.65807062,-0.0395519883,-0.73525193
900,2254009,1071520,0.988,-0.237,0.142,-12.1,3.6,-0.5,-4,27.3,-12.9,0.15704825,-0.658040101,-0.0393383587,-0.735312967
901,2255364,1071520,0.984,-0.237,0.142,-11.2,3.6,0.1,-4,27.3,-12.9,0.156895657,-0.658040101,-0.0391552477,-0.735343486
902,2258394,1071520,0.984,-0.241,0.138,-10.3,3.5,0.7,-4.5,27.3,-16.3,0.156773583,-0.658009583,-0.0389721366,-0.735435041
903,2261055,1071520,0.98,-0.245,0.139,-9.5,3.3,1.3,-4.5,27.3,-16.3,0.156651509,-0.657979064,-0.0387890255,-0.735496078
904,2264288,1071530,0.984,-0.241,0.138,-8.5,3,1.8,-4.5,27.3,-16.3,0.156559954,-0.657979064,-0.0386059145,-0.735526597
905,2266596,1071530,0.98,-0.233,0.135,-7.7,2.7,2.2,-4.5,27.3,-16.3,0.156468398,-0.657948546,-0.0384533219,-0.735587634
906,2268969,1071530,0.976,-0.237,0.135,-6.7,2.4,2.6,-4.4,27.2,-13.7,0.15643788,-0.657948546,-0.0383007294,-0.735618152
907,2271119,1071530,0.968,-0.237,0.131,-5.8,2.3,3,-4.4,27.2,-13.7,0.156407361,-0.657918027,-0.0381176183,-0.735648671
908,2272892,1071540,0.968,-0.229,0.131,-4.9,2.2,3.3,-4.4,27.2,-13.7,0.156376843,-0.657918027,-0.0380260628,-0.735648671
909,2276336,1071540,0.965,-0.225,0.135,-4,2.2,3.7,-4.4,27.2,-13.7,0.156376843,-0.657887509,-0.0378734703,-0.735679189
910,2278290,1071540,0.964,-0.225,0.131,-3.1,2,4.1,-4.4,27.2,-13.5,0.156407361,-0.657887509,-0.0377819147,-0.735709708
911,2281695,1071540,0.965,-0.218,0.131,-2.2,1.8,4.4,-4.4,27.2,-13.5,0.156468398,-0.65785699,-0.0376293222,-0.735709708
912,2283601,1071550,0.965,-0.218,0.131,-1.4,1.6,4.7,-4.4,27.2,-13.5,0.156468398,-0.657826472,-0.0375682852,-0.735709708
913,2285390,1071550,0.965,-0.206,0.131,-0.6,1.6,5.1,-4.4,27.2,-13.5,0.156590472,-0.657826472,-0.0374767296,-0.735740226
914,2288845,1071550,0.965,-0.214,0.131,0,1.5,5.5,-4.4,27.2,-13.7,0.156682028,-0.657795953,-0.0373851741,-0.735740226
915,2290535,1071550,0.965,-0.21,0.127,0.5,1.5,5.9,-4.4,27.2,-13.7,0.156773583,-0.657765435,-0.0373241371,-0.735740226
916,2293078,1071560,0.965,-0.206,0.127,1,1.5,6.2,-4.4,27.2,-13.7,0.156895657,-0.657765435,-0.0372325816,-0.735740226
917,2296736,1071560,0.965,-0.202,0.127,1.4,1.5,6.6,-4.4,27.2,-13.7,0.157017731,-0.657734916,-0.037141026,-0.735740226
918,2298835,1071560,0.965,-0.202,0.127,1.4,1.5,6.6,-4.4,27.2,-13.7,0.157017731,-0.657734916,-0.037141026,-0.735740226
919,2300336,1071560,0.965,-0.202,0.127,2.4,1.7,7.2,-4.2,27,-14,0.157567064,-0.657704398,-0.0367442854,-0.735648671
920,2304013,1071570,0.965,-0.198,0.123,2.8,1.8,7.6,-4.2,27,-14,0.157719657,-0.657673879,-0.0366527299,-0.735648671
921,2305731,1071570,0.965,-0.198,0.127,3.1,2,8,-4.2,27,-14,0.157902768,-0.657643361,-0.0365916929,-0.735648671
922,2308010,1071570,0.957,-0.198,0.123,3.3,2.1,8.3,-4.4,27.4,-15.6,0.158085879,-0.657612842,-0.0365306558,-0.735648671
923,2310585,1071570,0.961,-0.194,0.127,3.5,2.4,8.6,-4.4,27.4,-15.6,0.15826899,-0.657551805,-0.0364696188,-0.735648671
924,2314199,1071580,0.968,-0.194,0.127,3.7,2.5,8.9,-4.4,27.4,-15.6,0.15848262,-0.657521287,-0.0363780633,-0.735648671
925,2316185,1071580,0.965,-0.194,0.127,3.9,2.7,9.3,-4.4,27.4,-15.6,0.158696249,-0.65746025,-0.0362865078,-0.735648671
926,2318270,1071580,0.968,-0.194,0.123,4.1,2.8,9.6,-5,27.6,-14.9,0.158909879,-0.657429731,-0.0362254707,-0.735648671
927,2320336,1071580,0.968,-0.19,0.123,4.2,2.8,9.9,-5,27.6,-14.9,0.159123508,-0.657368694,-0.0361339152,-0.735648671
928,2324533,1071590,0.968,-0.19,0.115,4.3,2.7,10.2,-5,27.6,-14.9,0.159337138,-0.657307657,-0.0360423597,-0.735648671
929,2326354,1071590,0.968,-0.19,0.123,4.4,2.5,10.5,-5,27.6,-14.9,0.159581286,-0.657277139,-0.0359202857,-0.735648671
930,2327826,1071590,0.968,-0.186,0.119,4.5,2.3,10.8,-4.5,27.4,-15.3,0.159825434,-0.657216102,-0.0358592486,-0.735648671
931,2332017,1071590,0.965,-0.182,0.127,4.6,2.2,11.1,-4.5,27.4,-15.3,0.160069582,-0.657185583,-0.0357676931,-0.735648671
932,2333847,1071600,0.968,-0.183,0.115,4.5,2,11.3,-4.5,27.4,-15.3,0.16031373,-0.657124546,-0.0356761376,-0.735618152
933,2335389,1071600,0.965,-0.186,0.115,4.6,1.8,11.5,-4.5,27.4,-15.3,0.160588397,-0.657094028,-0.035584582,-0.735618152
934,2339637,1071600,0.968,-0.186,0.115,4.6,1.6,11.7,-4.2,27.6,-15.4,0.160832545,-0.657063509,-0.0354930265,-0.735587634
935,2341954,1071600,0.968,-0.179,0.119,4.6,1.3,12,-4.2,27.6,-15.4,0.161107212,-0.657032991,-0.0353709525,-0.735557115
936,2344142,1071610,0.968,-0.179,0.119,4.8,1,12.2,-4.2,27.6,-15.4,0.16135136,-0.657002472,-0.035279397,-0.735526597
937,2346119,1071610,0.968,-0.175,0.111,5,0.6,12.4,-4.2,27.6,-15.4,0.161626026,-0.657002472,-0.0351878414,-0.735496078
938,2348121,1071610,0.968,-0.175,0.111,5,0.6,12.4,-4.2,27.6,-15.4,0.161626026,-0.657002472,-0.0351878414,-0.735496078
939,2351364,1071610,0.968,-0.175,0.119,5.3,0,12.8,-4.5,27.7,-15.9,0.162450026,-0.657307657,-0.0346385083,-0.735068819
940,2353183,1071620,0.969,-0.171,0.123,5.4,-0.1,12.9,-4.5,27.7,-15.9,0.162724693,-0.657307657,-0.0345469527,-0.735007782
941,2357172,1071620,0.972,-0.171,0.123,5.4,-0.3,13,-4.5,27.7,-15.9,0.163029878,-0.657277139,-0.0344553972,-0.734946745
942,2359237,1071620,0.976,-0.163,0.119,5.4,-0.5,13.2,-3.9,27.4,-14.8,0.163304544,-0.657277139,-0.0343333232,-0.734885708
943,2360595,1071620,0.972,-0.163,0.127,5.4,-0.7,13.3,-3.9,27.4,-14.8,0.163609729,-0.657277139,-0.0342112491,-0.734824671
944,2363751,1071630,0.972,-0.163,0.123,5.3,-0.8,13.4,-3.9,27.4,-14.8,0.163884396,-0.657307657,-0.0341196936,-0.734763634
945,2365264,1071630,0.972,-0.155,0.127,5.2,-0.8,13.5,-3.9,27.4,-14.8,0.164189581,-0.657307657,-0.0340281381,-0.734702597
946,2369015,1071630,0.976,-0.155,0.127,5.1,-0.9,13.5,-4.5,27.2,-14.4,0.164464248,-0.657307657,-0.033906064,-0.73464156
947,2371278,1071630,0.976,-0.151,0.123,5,-1,13.6,-4.5,27.2,-14.4,0.164769433,-0.657307657,-0.0338145085,-0.734580523
948,2373228,1071640,0.976,-0.151,0.123,4.7,-1,13.6,-4.5,27.2,-14.4,0.165044099,-0.657338176,-0.0336924345,-0.734519486
949,2375530,1071640,0.98,-0.151,0.127,4.5,-1,13.6,-4.5,27.2,-14.4,0.165349284,-0.657338176,-0.0335703604,-0.734427931
950,2377726,1071640,0.98,-0.151,0.127,4.5,-1,13.6,-4.5,27.2,-14.4,0.165349284,-0.657338176,-0.0335703604,-0.734427931
951,2380250,1071640,0.976,-0.155,0.127,4,-0.8,13.1,-3.9,27.1,-15,0.165868099,-0.657338176,-0.0333262123,-0.734305857
952,2383547,1071650,0.976,-0.155,0.123,3.7,-0.6,13,-3.9,27.1,-15,0.166142766,-0.657368694,-0.0332041383,-0.734244819
953,2385798,1071650,0.976,-0.155,0.127,3.5,-0.4,13,-3.9,27.1,-15,0.166386914,-0.657368694,-0.0330820643,-0.734183782
954,2387836,1071650,0.984,-0.155,0.13,3.4,-0.2,13,-4.2,27,-14.8,0.16666158,-0.657368694,-0.0329599902,-0.734153264
955,2390720,1071650,0.98,-0.159,0.131,3.3,0,13,-4.2,27,-14.8,0.166905728,-0.657368694,-0.0328073977,-0.734092227
956,2393703,1071660,0.976,-0.155,0.131,3.3,0.2,12.9,-4.2,27,-14.8,0.167180395,-0.657338176,-0.0326853236,-0.73403119
957,2395429,1071660,0.976,-0.155,0.131,3.4,0.3,12.6,-4.2,27,-14.8,0.167424543,-0.657338176,-0.0325632496,-0.734000671
958,2398402,1071660,0.976,-0.155,0.131,3.4,0.3,12.6,-4.2,27,-14.8,0.167424543,-0.657338176,-0.0325632496,-0.734000671
959,2401551,1071660,0.976,-0.163,0.131,3.2,0.6,11.9,-4.3,26.8,-14.9,0.16769921,-0.657368694,-0.0325022126,-0.733909116
960,2402825,1071670,0.972,-0.167,0.119,2.8,0.8,11.6,-4.3,26.8,-14.9,0.167912839,-0.657338176,-0.0324106571,-0.733878597
961,2405805,1071670,0.972,-0.171,0.127,2.4,0.9,11.3,-4.3,26.8,-14.9,0.168156987,-0.657338176,-0.0322580645,-0.733848079
962,2408725,1071670,0.969,-0.171,0.123,2.1,1,11,-3.9,27.9,-13.6,0.168340098,-0.657307657,-0.032166509,-0.733848079
963,2410267,1071670,0.972,-0.175,0.127,1.8,1.1,10.8,-3.9,27.9,-13.6,0.168553728,-0.657307657,-0.0320139164,-0.73381756
964,2413108,1071680,0.972,-0.175,0.131,1.7,1.3,10.5,-3.9,27.9,-13.6,0.168736839,-0.657277139,-0.0318918424,-0.733787042
965,2416102,1071680,0.969,-0.175,0.131,1.6,1.3,10.3,-3.9,27.9,-13.6,0.168950468,-0.657216102,-0.0317697684,-0.733756523
966,2418875,1071680,0.969,-0.175,0.131,1.6,1.4,9.9,-4.3,26.7,-16.1,0.16913358,-0.657216102,-0.0316476943,-0.733756523
967,2420358,1071680,0.972,-0.179,0.127,1.6,1.5,9.7,-4.3,26.7,-16.1,0.169316691,-0.657216102,-0.0315256203,-0.733726005
968,2423531,1071690,0.972,-0.179,0.127,1.5,1.7,9.6,-4.3,26.7,-16.1,0.169469283,-0.657185583,-0.0314035463,-0.733726005
969,2427900,1071690,0.976,-0.183,0.127,1.4,1.8,9.4,-4.3,26.7,-16.1,0.169652394,-0.657155065,-0.0312814722,-0.733726005
970,2429478,1071690,0.972,-0.186,0.127,1.3,1.8,9,-4.1,26.6,-15.9,0.169804987,-0.657124546,-0.0311899167,-0.733695486
971,2430997,1071690,0.969,-0.182,0.131,1.1,1.6,8.5,-4.1,26.6,-15.9,0.169988098,-0.657094028,-0.0310678426,-0.733695486
972,2434057,1071700,0.969,-0.182,0.131,1.1,1.6,8.5,-4.1,26.6,-15.9,0.169988098,-0.657094028,-0.0310678426,-0.733695486
973,2435372,1071700,0.976,-0.186,0.127,0.7,1.3,7.9,-4.1,26.6,-15.9,0.170262764,-0.657063509,-0.0308542131,-0.733664968
974,2439306,1071700,0.972,-0.186,0.131,0.5,1.3,7.6,-3.8,26.6,-16.2,0.170384838,-0.657032991,-0.030732139,-0.733664968
975,2441802,1071700,0.976,-0.19,0.131,0.3,1.3,7.3,-3.8,26.6,-16.2,0.170506912,-0.657032991,-0.0306405835,-0.733664968
976,2443728,1071710,0.976,-0.186,0.127,0.1,1.2,6.9,-3.8,26.6,-16.2,0.170628986,-0.657002472,-0.0305185095,-0.733664968
977,2445228,1071710,0.98,-0.194,0.131,0.1,1,6.4,-3.8,26.6,-16.2,0.170720542,-0.657002472,-0.0304574725,-0.733634449
978,2448268,1071710,0.98,-0.194,0.131,0.1,1,6.4,-3.8,26.6,-16.2,0.170720542,-0.657002472,-0.0304574725,-0.733634449
979,2451456,1071710,0.988,-0.191,0.134,0,0.8,5.6,-3.8,26.2,-15.8,0.171025727,-0.657063509,-0.0301522874,-0.733512375
980,2453746,1071720,0.988,-0.183,0.134,-0.1,0.8,5.4,-3.8,26.2,-15.8,0.171086764,-0.657063509,-0.0300302133,-0.733512375
981,2455814,1071720,0.98,-0.19,0.135,-0.3,0.7,5.1,-3.8,26.2,-15.8,0.17117832,-0.657063509,-0.0299691763,-0.733512375
982,2457995,1071720,0.984,-0.191,0.131,-0.5,0.6,4.7,-3.7,28.4,-14.2,0.171239357,-0.657063509,-0.0299081393,-0.733481857
983,2461467,1071720,0.988,-0.187,0.134,-0.6,0.3,4.3,-3.7,28.4,-14.2,0.171300394,-0.657063509,-0.0297860652,-0.733481857
984,2463074,1071730,0.984,-0.187,0.131,-0.8,0,3.9,-3.7,28.4,-14.2,0.171361431,-0.657063509,-0.0297555467,-0.733481857
985,2467260,1071730,0.988,-0.194,0.134,-1,-0.2,3.6,-3.7,28.4,-14.2,0.171391949,-0.657063509,-0.0296639912,-0.733451338
986,2469492,1071730,0.984,-0.187,0.138,-1.3,-0.5,3.3,-3.9,27,-15,0.171452986,-0.657094028,-0.0296029542,-0.73342082
987,2471492,1071730,0.984,-0.187,0.138,-1.4,-0.6,3,-3.9,27,-15,0.171452986,-0.657094028,-0.0295419172,-0.73342082
988,2473417,1071740,0.984,-0.187,0.134,-1.4,-0.8,2.7,-3.9,27,-15,0.171483505,-0.657124546,-0.0294808802,-0.733390301
989,2476338,1071740,0.988,-0.191,0.134,-1.4,-1,2.2,-3.9,27,-15,0.171514023,-0.657155065,-0.0294198431,-0.733359783
990,2478463,1071740,0.988,-0.187,0.138,-1.5,-1.2,1.8,-4,27.4,-15.1,0.171514023,-0.657185583,-0.0293893246,-0.733359783
991,2480356,1071740,0.984,-0.183,0.138,-1.6,-1.3,1.5,-4,27.4,-15.1,0.171514023,-0.657216102,-0.0293588061,-0.733329264
992,2484506,1071750,0.984,-0.183,0.138,-1.8,-1.3,1.1,-4,27.4,-15.1,0.171514023,-0.657216102,-0.0292977691,-0.733298746
993,2486808,1071750,0.984,-0.187,0.138,-2,-1.3,0.6,-4,27.4,-15.1,0.171483505,-0.657277139,-0.0292672506,-0.733268227
994,2489040,1071750,0.988,-0.179,0.142,-2.1,-1.4,0.2,-3.7,27.7,-15.3,0.171452986,-0.657307657,-0.0292367321,-0.733268227
995,2490797,1071750,0.976,-0.183,0.135,-2.1,-1.5,-0.1,-3.7,27.7,-15.3,0.171422468,-0.657338176,-0.0291756951,-0.733237709
996,2493161,1071760,0.984,-0.187,0.142,-2.2,-1.6,-0.4,-3.7,27.7,-15.3,0.171391949,-0.657368694,-0.0291756951,-0.73320719
997,2495583,1071760,0.98,-0.19,0.135,-2.3,-1.5,-0.7,-3.7,27.7,-15.3,0.171330912,-0.657399213,-0.0291756951,-0.73320719
998,2497898,1071760,0.98,-0.19,0.135,-2.3,-1.5,-0.7,-3.7,27.7,-15.3,0.171330912,-0.657399213,-0.0291756951,-0.73320719
999,2500379,1071760,0.98,-0.187,0.138,-2.5,-1.3,-1.2,-3.9,28.3,-15.4,0.171239357,-0.657429731,-0.029114658,-0.733176672
1000,2504843,1071770,0.976,-0.186,0.131,-2.5,-1.2,-1.5,-3.9,28.3,-15.4,0.17117832,-0.65746025,-0.029114658,-0.733176672
1001,2505251,1071770,0.976,-0.186,0.135,-2.4,-1.2,-1.9,-3.9,28.3,-15.4,0.171117283,-0.657490768,-0.029053621,-0.733176672
1002,2507716,1071770,0.976,-0.19,0.138,-2.3,-1.2,-2.2,-4,27.8,-14.7,0.171025727,-0.657521287,-0.029053621,-0.733146153
