sample_index,elapsed_us,device_time_ms,acc_x_g,acc_y_g,acc_z_g,gyro_x_dps,gyro_y_dps,gyro_z_dps,mag_x_ut,mag_y_ut,mag_z_ut,quat_w,quat_x,quat_y,quat_z
0,4786,313700,0.989,-0.089,0.224,11.9,-1.5,5.6,-4.5,26.7,-20.6,0.312417982,0.509872738,-0.364543596,0.713797418
1,6058,313700,0.989,-0.096,0.224,10,-1.1,4.6,-4.5,26.7,-20.6,0.312021241,0.509964293,-0.364329966,0.713980529
2,9302,313700,0.989,-0.096,0.224,9.2,-0.9,4,-4.5,26.7,-20.6,0.31183813,0.51002533,-0.364238411,0.714072085
3,12197,313710,0.989,-0.096,0.224,9.2,-0.9,4,-4.5,26.7,-20.6,0.31183813,0.51002533,-0.364238411,0.714072085
4,15022,313710,0.985,-0.104,0.224,7.7,-0.3,3.1,-4.4,27.1,-20.6,0.311532945,0.510086367,-0.3640553,0.714255196
5,16596,313710,0.989,-0.104,0.216,7.2,0,2.7,-4.4,27.1,-20.6,0.311410871,0.510116886,-0.363994263,0.714316233
6,19744,313710,0.989,-0.104,0.216,7.2,0,2.7,-4.4,27.1,-20.6,0.311288797,0.510147404,-0.363902707,0.714407788
7,21580,313720,0.989,-0.104,0.216,7.2,0,2.7,-4.4,27.1,-20.6,0.311288797,0.510147404,-0.363902707,0.714407788
8,24125,313720,0.981,-0.104,0.217,6.2,0.3,2,-4.3,26.9,-20.6,0.311197241,0.510177923,-0.363811151,0.714468825
9,26866,313720,0.977,-0.112,0.221,5.4,0.5,1.3,-4.3,26.9,-20.6,0.31101413,0.510208441,-0.363658559,0.714590899
10,29933,313720,0.977,-0.112,0.221,5.4,0.5,1.3,-4.3,26.9,-20.6,0.310953093,0.510208441,-0.363597522,0.714651936
11,31251,313730,0.977,-0.112,0.221,5.4,0.5,1.3,-4.3,26.9,-20.6,0.310953093,0.510208441,-0.363597522,0.714651936
12,34147,313730,0.977,-0.112,0.221,5.4,0.5,1.3,-4.3,26.9,-20.6,0.310953093,0.510208441,-0.363597522,0.714651936
13,37189,313730,0.969,-0.116,0.221,4.6,0.8,0.1,-4.2,27.5,-19.4,0.311532945,0.510666219,-0.362804041,0.714468825
14,38528,313730,0.965,-0.115,0.221,4.4,0.6,-0.4,-4.2,27.5,-19.4,0.311471908,0.510727256,-0.362651448,0.714560381
15,41791,313740,0.969,-0.116,0.217,4.4,0.6,-0.4,-4.2,27.5,-19.4,0.311410871,0.510727256,-0.362590411,0.714590899
16,45297,313740,0.969,-0.116,0.217,4.4,0.6,-0.4,-4.2,27.5,-19.4,0.311410871,0.510727256,-0.362590411,0.714590899
17,47519,313740,0.965,-0.119,0.217,3.8,0.6,-1.1,-3.9,27.5,-19.6,0.311380352,0.510788293,-0.362437819,0.714651936
18,49297,313740,0.961,-0.123,0.213,3.7,0.7,-1.3,-3.9,27.5,-19.6,0.311349834,0.510818812,-0.362346263,0.714682455
19,51297,313750,0.965,-0.119,0.213,3.7,0.7,-1.3,-3.9,27.5,-19.6,0.311349834,0.51084933,-0.362254707,0.714712973
20,53650,313750,0.965,-0.119,0.213,3.7,0.7,-1.3,-3.9,27.5,-19.6,0.311349834,0.51084933,-0.362254707,0.714712973
21,57547,313750,0.961,-0.115,0.213,3.1,1,-1.8,-4,27.5,-19.6,0.311349834,0.510879849,-0.362102115,0.714743492
22,59876,313750,0.961,-0.112,0.209,3,0.9,-1.9,-4,27.5,-19.6,0.311349834,0.510910367,-0.362041078,0.71477401
23,61736,313760,0.961,-0.115,0.209,3,0.9,-1.9,-4,27.5,-19.6,0.311349834,0.510940886,-0.361949522,0.714804529
24,64241,313760,0.961,-0.115,0.209,3,0.9,-1.9,-4,27.5,-19.6,0.311349834,0.510940886,-0.361949522,0.714804529
25,66049,313760,0.961,-0.108,0.209,2.5,1.4,-2.2,-3.9,27.7,-19.2,0.311380352,0.510940886,-0.36179693,0.714835047
26,68588,313760,0.961,-0.112,0.213,2.3,1.6,-2.2,-3.9,27.7,-19.2,0.311410871,0.510971404,-0.361735893,0.714865566
27,72563,313770,0.965,-0.108,0.217,2.3,1.6,-2.2,-3.9,27.7,-19.2,0.311441389,0.510971404,-0.361674856,0.714896084
28,74513,313770,0.965,-0.108,0.217,2.3,1.6,-2.2,-3.9,27.7,-19.2,0.311441389,0.510971404,-0.361674856,0.714896084
29,77009,313770,0.961,-0.108,0.209,2,1.8,-2.1,-4.1,27.3,-19.3,0.311441389,0.510971404,-0.3615833,0.714896084
30,79539,313770,0.958,-0.104,0.213,1.7,1.9,-2.3,-4.1,27.3,-19.3,0.311502426,0.510971404,-0.361461226,0.714957121
31,81119,313780,0.961,-0.104,0.205,1.7,1.9,-2.3,-4.1,27.3,-19.3,0.311532945,0.510971404,-0.361400189,0.714957121
32,83554,313780,0.961,-0.104,0.205,1.7,1.9,-2.3,-4.1,27.3,-19.3,0.311532945,0.510971404,-0.361400189,0.714957121
33,88327,313780,0.961,-0.104,0.205,1.7,1.9,-2.3,-4.1,27.3,-19.3,0.311532945,0.510971404,-0.361400189,0.714957121
34,88646,313780,0.961,-0.104,0.209,1,2.6,-2.4,-4.3,26.5,-19.7,0.31223487,0.5114597,-0.360637226,0.714712973
35,91141,313790,0.957,-0.108,0.205,0.4,2.9,-2.6,-4.3,26.5,-19.7,0.312326426,0.511429182,-0.360515152,0.714743492
36,95052,313790,0.961,-0.1,0.205,0.4,2.9,-2.6,-4.3,26.5,-19.7,0.312387463,0.511398663,-0.360454115,0.71477401
37,97412,313790,0.961,-0.1,0.205,0.4,2.9,-2.6,-4.3,26.5,-19.7,0.312387463,0.511398663,-0.360454115,0.71477401
38,99432,313790,0.961,-0.104,0.205,-0.1,3.2,-3,-4.6,27.9,-19.6,0.312479019,0.511368145,-0.360393078,0.71477401
39,101326,313800,0.969,-0.108,0.201,-0.7,3.6,-3,-4.6,27.9,-19.6,0.312631611,0.511307108,-0.360301523,0.714804529
40,103709,313800,0.965,-0.108,0.201,-0.9,3.7,-3.1,-4.6,27.9,-19.6,0.312723167,0.511276589,-0.360271004,0.714804529
41,107543,313800,0.965,-0.108,0.201,-0.9,3.7,-3.1,-4.6,27.9,-19.6,0.312723167,0.511276589,-0.360271004,0.714804529
42,109854,313800,0.969,-0.116,0.205,-1.5,3.9,-3.5,-4.6,27.3,-19.9,0.312936796,0.511185034,-0.360179449,0.714835047
43,112008,313810,0.965,-0.108,0.205,-1.7,4.1,-3.7,-4.6,27.3,-19.9,0.313028352,0.511123997,-0.360118412,0.714835047
44,114354,313810,0.957,-0.112,0.201,-1.7,4.1,-3.7,-4.6,27.3,-19.9,0.313150426,0.511093478,-0.360087893,0.714835047
45,116202,313810,0.957,-0.112,0.201,-1.7,4.1,-3.7,-4.6,27.3,-19.9,0.313150426,0.511093478,-0.360087893,0.714835047
46,119677,313810,0.965,-0.12,0.197,-2.1,4.7,-4.4,-5.4,27.7,-19.6,0.313394574,0.510971404,-0.359996338,0.714865566
47,121939,313820,0.965,-0.12,0.197,-2.1,4.7,-4.4,-5.4,27.7,-19.6,0.313547166,0.510940886,-0.359935301,0.714865566
48,124226,313820,0.965,-0.123,0.201,-2.3,4.8,-4.5,-5.4,27.7,-19.6,0.31366924,0.510879849,-0.359904782,0.714865566
49,126230,313820,0.957,-0.127,0.201,-2.7,4.7,-4.7,-5.7,27.5,-19.8,0.313821833,0.510818812,-0.359843745,0.714865566
50,130182,313820,0.965,-0.127,0.201,-2.9,4.7,-4.8,-5.7,27.5,-19.8,0.313943907,0.510757775,-0.359813227,0.714865566
51,132441,313830,0.957,-0.131,0.197,-2.9,4.7,-4.8,-5.7,27.5,-19.8,0.3140965,0.510696738,-0.359782708,0.714865566
52,134684,313830,0.961,-0.131,0.201,-3.1,4.8,-4.8,-5.7,27.5,-19.8,0.314249092,0.510635701,-0.359721671,0.714865566
53,137058,313830,0.961,-0.131,0.201,-3.1,4.8,-4.8,-5.7,27.5,-19.8,0.314249092,0.510635701,-0.359721671,0.714865566
54,138779,313830,0.957,-0.139,0.197,-3.1,4.5,-5.3,-3.3,26.1,-19.3,0.315042573,0.511368145,-0.359019745,0.714346751
55,141162,313840,0.953,-0.139,0.198,-3.1,4.5,-5.3,-3.3,26.1,-19.3,0.315225684,0.511337626,-0.358989227,0.714316233
56,143522,313840,0.953,-0.147,0.201,-3,4.2,-5.3,-3.3,26.1,-19.3,0.315347758,0.511276589,-0.35892819,0.714316233
57,147481,313840,0.961,-0.143,0.201,-3,3.9,-5.4,-3.3,26.1,-19.3,0.315500351,0.511246071,-0.358897671,0.714285714
58,149637,313840,0.957,-0.151,0.201,-3.1,3.6,-5.6,-5,27.6,-19.9,0.315652944,0.511215552,-0.358867153,0.714255196
59,151900,313850,0.961,-0.147,0.201,-3.1,3.6,-5.6,-5,27.6,-19.9,0.315805536,0.511185034,-0.358806116,0.714255196
60,153770,313850,0.965,-0.147,0.197,-3.1,3.5,-5.5,-5,27.6,-19.9,0.315958129,0.511154515,-0.358775597,0.714224677
61,156093,313850,0.961,-0.147,0.201,-3.1,3.3,-5.4,-5,27.6,-19.9,0.316110721,0.511123997,-0.358745079,0.714194159
62,160053,313850,0.957,-0.151,0.197,-3.1,3.2,-5.3,-4.6,27.4,-20,0.316263314,0.511093478,-0.35871456,0.71416364
63,162400,313860,0.961,-0.147,0.205,-3.2,3,-5.2,-4.6,27.4,-20,0.316385388,0.51106296,-0.358684042,0.714133122
64,164461,313860,0.961,-0.151,0.197,-3.3,2.8,-5.1,-4.6,27.4,-20,0.31653798,0.511032441,-0.358653523,0.714102603
65,166803,313860,0.961,-0.151,0.201,-3.4,2.6,-4.9,-4.6,27.4,-20,0.316690573,0.511001923,-0.358623005,0.714072085
66,168750,313860,0.957,-0.143,0.194,-3.3,2.3,-4.6,-4.7,27.7,-19.9,0.316812647,0.510971404,-0.358623005,0.714041566
67,171189,313870,0.961,-0.143,0.193,-3.2,2.1,-4.4,-4.7,27.7,-19.9,0.316934721,0.510971404,-0.358592486,0.714011048
68,174981,313870,0.957,-0.139,0.197,-2.9,1.9,-4.1,-4.7,27.7,-19.9,0.317026276,0.510940886,-0.358592486,0.713980529
69,177337,313870,0.965,-0.139,0.201,-2.6,1.7,-3.9,-4.7,27.7,-19.9,0.31714835,0.510910367,-0.358592486,0.713950011
70,179507,313870,0.965,-0.135,0.193,-2.3,1.6,-3.6,-5,27.4,-19.6,0.317239906,0.510910367,-0.358561968,0.713950011
71,181729,313880,0.961,-0.135,0.19,-2,1.4,-3.4,-5,27.4,-19.6,0.317331462,0.510910367,-0.358561968,0.713919492
72,183719,313880,0.965,-0.123,0.186,-1.6,1.3,-3.1,-5,27.4,-19.6,0.317484054,0.510879849,-0.358500931,0.713858455
73,186045,313880,0.965,-0.123,0.186,-1.6,1.3,-3.1,-5,27.4,-19.6,0.317484054,0.510879849,-0.358500931,0.713858455
74,189174,313880,0.965,-0.123,0.186,-1.6,1.3,-3.1,-5,27.4,-19.6,0.317484054,0.510879849,-0.358500931,0.713858455
75,192173,313890,0.973,-0.116,0.193,-1.2,1.3,-2.8,-3.8,26.8,-19.3,0.318033387,0.511703848,-0.358043153,0.713278603
76,194633,313890,0.969,-0.124,0.189,-0.9,1.1,-2.6,-3.8,26.8,-19.3,0.318094424,0.511703848,-0.358043153,0.713248085
77,196681,313890,0.973,-0.116,0.193,-0.7,0.8,-2.5,-3.8,26.8,-19.3,0.31818598,0.511703848,-0.357982116,0.713217566
78,198839,313890,0.973,-0.116,0.193,-0.7,0.8,-2.5,-3.8,26.8,-19.3,0.31818598,0.511703848,-0.357982116,0.713217566
79,201084,313900,0.973,-0.112,0.197,-0.7,0.7,-2.4,-4.9,26.6,-20,0.318247017,0.511703848,-0.357951598,0.713217566
80,204175,313900,0.977,-0.108,0.189,-0.8,0.5,-2.2,-4.9,26.6,-20,0.318308054,0.511703848,-0.357951598,0.713187048
81,207197,313900,0.973,-0.112,0.193,-1.2,0.4,-1.9,-4.9,26.6,-20,0.318399609,0.511703848,-0.357890561,0.713156529
82,209394,313900,0.973,-0.112,0.193,-1.2,0.4,-1.9,-4.9,26.6,-20,0.318399609,0.511703848,-0.357890561,0.713156529
83,212563,313910,0.977,-0.108,0.193,-1.4,0.6,-1.7,-4.7,27,-20,0.318430128,0.511703848,-0.357890561,0.713156529
84,214906,313910,0.981,-0.108,0.193,-1.6,0.8,-1.6,-4.7,27,-20,0.318491165,0.511703848,-0.357890561,0.713126011
85,217107,313910,0.977,-0.108,0.189,-1.8,1.1,-1.8,-4.7,27,-20,0.318613239,0.51167333,-0.357890561,0.713095492
86,219386,313910,0.977,-0.108,0.189,-1.8,1.1,-1.8,-4.7,27,-20,0.318613239,0.51167333,-0.357890561,0.713095492
87,221263,313920,0.981,-0.116,0.193,-1.9,1.1,-1.8,-4.2,27.1,-19.5,0.318674276,0.511642811,-0.357890561,0.713095492
88,223586,313920,0.981,-0.112,0.197,-2.2,1.2,-2,-4.2,27.1,-19.5,0.318735313,0.511612293,-0.357951598,0.713064974
89,227632,313920,0.985,-0.124,0.197,-2.6,1.1,-2.3,-4.2,27.1,-19.5,0.318887906,0.511581774,-0.357951598,0.713034455
90,230168,313920,0.985,-0.124,0.197,-2.6,1.1,-2.3,-4.2,27.1,-19.5,0.318887906,0.511581774,-0.357951598,0.713034455
91,232236,313930,0.977,-0.124,0.197,-2.8,1.1,-2.3,-4.2,27.1,-19.5,0.318948943,0.511581774,-0.357951598,0.713003937
92,234437,313930,0.977,-0.128,0.201,-3.4,0.8,-2.5,-4.2,27.1,-19.5,0.319132054,0.511520737,-0.357982116,0.7129429
93,236260,313930,0.973,-0.127,0.205,-3.8,0.7,-2.6,-4.2,27.1,-19.5,0.319223609,0.511520737,-0.358012635,0.712881863
94,238589,313930,0.973,-0.127,0.205,-3.8,0.7,-2.6,-4.2,27.1,-19.5,0.319223609,0.511520737,-0.358012635,0.712881863
95,242847,313940,0.973,-0.127,0.205,-3.8,0.7,-2.6,-4.2,27.1,-19.5,0.319223609,0.511520737,-0.358012635,0.712881863
96,245146,313940,0.965,-0.131,0.205,-4.6,0.4,-2.7,-4.1,27,-19.6,0.319650868,0.511947996,-0.35770745,0.712546159
97,247327,313940,0.965,-0.139,0.205,-5.5,0,-2.6,-4.1,27,-19.6,0.319864498,0.511917478,-0.357799005,0.712424085
98,249573,313940,0.965,-0.143,0.205,-5.5,0,-2.6,-4.1,27,-19.6,0.319986572,0.511917478,-0.357860042,0.712363048
99,251772,313950,0.965,-0.143,0.205,-5.5,0,-2.6,-4.1,27,-19.6,0.319986572,0.511917478,-0.357860042,0.712363048
100,253659,313950,0.953,-0.143,0.205,-6.8,-0.4,-2.7,-4.3,27.6,-19.7,0.320200201,0.511856441,-0.358012635,0.712210456
101,257591,313950,0.957,-0.151,0.205,-7.2,-0.4,-2.9,-4.3,27.6,-19.7,0.320322275,0.511856441,-0.35810419,0.7121189
102,259665,313950,0.957,-0.151,0.201,-7.2,-0.4,-2.9,-4.3,27.6,-19.7,0.320444349,0.511825922,-0.358165227,0.712027345
103,261034,313960,0.957,-0.151,0.201,-7.2,-0.4,-2.9,-4.3,27.6,-19.7,0.320444349,0.511825922,-0.358165227,0.712027345
104,264421,313960,0.946,-0.158,0.206,-8.3,-0.7,-3,-4.4,27.3,-19.6,0.320719016,0.511795404,-0.358378857,0.711844234
105,267649,313960,0.946,-0.158,0.206,-8.6,-0.7,-2.9,-4.4,27.3,-19.6,0.320871609,0.511764885,-0.358470412,0.711752678
106,269586,313960,0.942,-0.162,0.206,-8.6,-0.7,-2.9,-4.4,27.3,-19.6,0.320993683,0.511734367,-0.358592486,0.711661122
107,271083,313970,0.942,-0.162,0.206,-8.6,-0.7,-2.9,-4.4,27.3,-19.6,0.320993683,0.511734367,-0.358592486,0.711661122
108,274685,313970,0.949,-0.162,0.205,-9.6,-0.6,-2.5,-4,27.1,-19.5,0.321268349,0.511642811,-0.358836634,0.711447493
109,276705,313970,0.942,-0.158,0.202,-10,-0.6,-2.5,-4,27.1,-19.5,0.321420942,0.511612293,-0.358958708,0.711355937
110,279705,313970,0.946,-0.162,0.198,-10,-0.6,-2.5,-4,27.1,-19.5,0.321573534,0.511581774,-0.359111301,0.711233863
111,281274,313980,0.946,-0.162,0.198,-10,-0.6,-2.5,-4,27.1,-19.5,0.321573534,0.511581774,-0.359111301,0.711233863
112,284185,313980,0.949,-0.158,0.194,-10.6,-0.6,-1.9,-5.1,27.1,-19.2,0.321848201,0.511490219,-0.359385968,0.711050752
113,287176,313980,0.953,-0.151,0.186,-10.8,-0.6,-1.8,-5.1,27.1,-19.2,0.322000793,0.511429182,-0.35953856,0.710928678
114,288551,313980,0.953,-0.147,0.198,-10.8,-0.6,-1.8,-5.1,27.1,-19.2,0.322153386,0.511368145,-0.359691153,0.710837123
115,292176,313990,0.953,-0.147,0.198,-10.8,-0.6,-1.8,-5.1,27.1,-19.2,0.322153386,0.511368145,-0.359691153,0.710837123
116,293496,313990,0.953,-0.147,0.198,-10.8,-0.6,-1.8,-5.1,27.1,-19.2,0.322153386,0.511368145,-0.359691153,0.710837123
117,297821,313990,0.961,-0.143,0.19,-10.5,-1.7,-1.3,-3.2,27.2,-19.2,0.322458571,0.511490219,-0.359996338,0.710440382
118,299752,313990,0.957,-0.131,0.19,-10.5,-1.7,-1.3,-3.2,27.2,-19.2,0.322580645,0.5114597,-0.36014893,0.710348827
119,303611,314000,0.961,-0.143,0.19,-10.1,-2,-1.1,-3.2,27.2,-19.2,0.322702719,0.511429182,-0.360301523,0.710226753
120,303611,314000,0.961,-0.143,0.19,-10.1,-2,-1.1,-3.2,27.2,-19.2,0.322702719,0.511429182,-0.360301523,0.710226753
121,307335,314000,0.969,-0.131,0.193,-8.9,-2.4,-0.3,-3.7,27,-19.2,0.32288583,0.511398663,-0.360606708,0.710013123
122,309957,314000,0.969,-0.124,0.193,-8.9,-2.4,-0.3,-3.7,27,-19.2,0.322977386,0.511368145,-0.360759301,0.709921567
123,311630,314010,0.969,-0.124,0.193,-8.4,-2.4,0,-3.7,27,-19.2,0.323038423,0.511337626,-0.360911893,0.709830012
124,315472,314010,0.969,-0.124,0.193,-8.4,-2.4,0,-3.7,27,-19.2,0.323038423,0.511337626,-0.360911893,0.709830012
125,317253,314010,0.969,-0.124,0.189,-7.4,-2.5,0.3,-3.2,27.2,-19.3,0.323160497,0.511307108,-0.36118656,0.709646901
126,319322,314010,0.969,-0.12,0.193,-7.4,-2.5,0.3,-3.2,27.2,-19.3,0.323221534,0.511307108,-0.361308634,0.709585864
127,321328,314020,0.965,-0.112,0.193,-7.2,-2.6,0.4,-3.2,27.2,-19.3,0.323282571,0.511276589,-0.361461226,0.709494308
128,323709,314020,0.965,-0.112,0.193,-7.2,-2.6,0.4,-3.2,27.2,-19.3,0.323282571,0.511276589,-0.361461226,0.709494308
129,327269,314020,0.969,-0.112,0.201,-6.6,-2.7,1,-3.6,27,-19.4,0.323343608,0.511246071,-0.361735893,0.709341716
130,329498,314020,0.969,-0.112,0.201,-6.6,-2.7,1,-3.6,27,-19.4,0.323404645,0.511246071,-0.361857967,0.70925016
131,331330,314030,0.965,-0.108,0.201,-6.3,-2.8,1.1,-3.6,27,-19.4,0.323435163,0.511246071,-0.361980041,0.709189123
132,334982,314030,0.965,-0.108,0.201,-6.3,-2.8,1.1,-3.6,27,-19.4,0.323435163,0.511246071,-0.361980041,0.709189123
133,337352,314030,0.969,-0.108,0.197,-5.4,-3.4,1.6,-5,27.5,-19.1,0.323435163,0.511246071,-0.362254707,0.709036531
134,339669,314030,0.965,-0.108,0.205,-5.4,-3.4,1.6,-5,27.5,-19.1,0.323465682,0.511246071,-0.362376782,0.708975494
135,341869,314040,0.969,-0.108,0.201,-5.1,-3.6,1.8,-5,27.5,-19.1,0.323465682,0.511246071,-0.362498856,0.708914457
136,343947,314040,0.969,-0.108,0.201,-5.1,-3.6,1.8,-5,27.5,-19.1,0.323465682,0.511246071,-0.362498856,0.708914457
137,346260,314040,0.969,-0.108,0.201,-5.1,-3.6,1.8,-5,27.5,-19.1,0.323465682,0.511246071,-0.362498856,0.708914457
138,348542,314040,0.969,-0.108,0.205,-4.5,-3.5,1.8,-3.6,27.1,-19.2,0.323984497,0.511764885,-0.362041078,0.708517716
139,352462,314050,0.969,-0.104,0.193,-4.9,-2.9,1.7,-3.6,27.1,-19.2,0.323984497,0.511764885,-0.362285226,0.708395642
140,354805,314050,0.969,-0.104,0.193,-4.9,-2.9,1.7,-3.6,27.1,-19.2,0.323984497,0.511764885,-0.3624073,0.708334605
141,357438,314050,0.969,-0.104,0.193,-4.9,-2.9,1.7,-3.6,27.1,-19.2,0.323984497,0.511764885,-0.3624073,0.708334605
142,359668,314050,0.969,-0.108,0.185,-5.4,-2.2,1.8,-2.8,27.2,-19.7,0.323984497,0.511734367,-0.362529374,0.708304086
143,361966,314060,0.969,-0.116,0.178,-6,-1.7,1.6,-2.8,27.2,-19.7,0.324045534,0.51167333,-0.362773522,0.708182012
144,363729,314060,0.969,-0.116,0.178,-6,-1.7,1.6,-2.8,27.2,-19.7,0.324076052,0.511642811,-0.362895596,0.708120975
145,366122,314060,0.969,-0.116,0.178,-6,-1.7,1.6,-2.8,27.2,-19.7,0.324076052,0.511642811,-0.362895596,0.708120975
146,370140,314060,0.969,-0.124,0.166,-7.3,-1.7,1.5,-3.4,26.9,-19,0.324167608,0.511581774,-0.363170263,0.707998901
147,372443,314070,0.969,-0.128,0.166,-7.3,-1.7,1.5,-3.4,26.9,-19,0.324198126,0.511551256,-0.363322855,0.707937864
148,374492,314070,0.969,-0.128,0.166,-7.9,-1.9,1.5,-3.4,26.9,-19,0.324259163,0.511520737,-0.363475448,0.707846309
149,376633,314070,0.969,-0.128,0.166,-7.9,-1.9,1.5,-3.4,26.9,-19,0.324259163,0.511520737,-0.363475448,0.707846309
150,379415,314070,0.973,-0.135,0.158,-9.9,-2.8,1.5,-3.4,27,-19.3,0.324381237,0.511429182,-0.36384167,0.707663198
151,382112,314080,0.981,-0.143,0.158,-10.7,-3.4,1.5,-3.4,27,-19.3,0.324442274,0.511398663,-0.3640553,0.707541124
152,383879,314080,0.981,-0.143,0.158,-10.7,-3.4,1.5,-3.4,27,-19.3,0.324503311,0.511368145,-0.364238411,0.707449568
153,386226,314080,0.981,-0.143,0.158,-10.7,-3.4,1.5,-3.4,27,-19.3,0.324503311,0.511368145,-0.364238411,0.707449568
154,389111,314080,0.977,-0.136,0.166,-14.5,-5.5,2,-4.2,27.2,-19,0.324655904,0.511276589,-0.364787744,0.707144383
155,392859,314090,0.981,-0.139,0.17,-14.5,-5.5,2,-4.2,27.2,-19,0.324747459,0.511246071,-0.365092929,0.706961272
156,395095,314090,0.981,-0.139,0.17,-16,-6.3,2.3,-4.2,27.2,-19,0.324839015,0.511215552,-0.365398114,0.706778161
157,398036,314090,0.981,-0.139,0.17,-16,-6.3,2.3,-4.2,27.2,-19,0.324839015,0.511215552,-0.365398114,0.706778161
158,400385,314090,0.981,-0.139,0.17,-16,-6.3,2.3,-4.2,27.2,-19,0.324839015,0.511215552,-0.365398114,0.706778161
159,402743,314100,0.989,-0.12,0.181,-21.1,-8,4.2,-4.1,27.4,-19,0.325266274,0.511795404,-0.366130558,0.705801569
160,405432,314100,0.989,-0.12,0.185,-21.1,-8,4.2,-4.1,27.4,-19,0.32535783,0.511734367,-0.366557817,0.705587939
161,407777,314100,0.989,-0.116,0.185,-21.9,-8.2,4.6,-4.1,27.4,-19,0.325479904,0.51167333,-0.366985076,0.705343791
162,410090,314100,0.989,-0.116,0.185,-21.9,-8.2,4.6,-4.1,27.4,-19,0.325479904,0.51167333,-0.366985076,0.705343791
163,412324,314110,0.993,-0.101,0.185,-23.1,-8.3,5.6,-4.5,27.1,-18.6,0.325693533,0.511520737,-0.367961669,0.704855495
164,415190,314110,0.996,-0.089,0.189,-23.1,-8.3,5.6,-4.5,27.1,-18.6,0.325785089,0.511429182,-0.368419446,0.704641865
165,417449,314110,0.996,-0.089,0.181,-22.9,-8.4,5.7,-4.5,27.1,-18.6,0.325876644,0.511337626,-0.368907743,0.704397717
166,419616,314110,0.996,-0.089,0.181,-22.9,-8.4,5.7,-4.5,27.1,-18.6,0.325876644,0.511337626,-0.368907743,0.704397717
167,421925,314120,1.004,-0.066,0.185,-20.7,-8.3,5.6,-4.5,27.1,-18.6,0.326059755,0.511215552,-0.369792779,0.70393994
168,423831,314120,1,-0.058,0.185,-19.6,-8.2,5.4,-4.5,27.1,-18.6,0.326120792,0.511154515,-0.370220038,0.70372631
169,426317,314120,1.004,-0.05,0.181,-19.6,-8.2,5.4,-4.5,27.1,-18.6,0.326181829,0.511093478,-0.370647298,0.70351268
170,428568,314120,1.004,-0.05,0.181,-19.6,-8.2,5.4,-4.5,27.1,-18.6,0.326181829,0.511093478,-0.370647298,0.70351268
171,432513,314130,1.008,-0.034,0.181,-16.5,-7.3,4.5,-4.5,27.1,-18.6,0.326303903,0.511001923,-0.371379742,0.703146458
172,434492,314130,1.012,-0.034,0.173,-16.5,-7.3,4.5,-4.5,27.1,-18.6,0.326334422,0.510971404,-0.371745964,0.702963347
173,436705,314130,1.012,-0.034,0.173,-15.6,-6.7,3.9,-4.5,27.1,-18.6,0.326395459,0.510940886,-0.372081668,0.702780236
174,438907,314130,1.012,-0.034,0.173,-15.6,-6.7,3.9,-4.5,27.1,-18.6,0.326395459,0.510940886,-0.372081668,0.702780236
175,441284,314140,1.02,-0.027,0.169,-14.3,-4.7,2.8,-4.6,27.8,-20.5,0.326548051,0.51084933,-0.372661519,0.702475051
176,443541,314140,1.024,-0.027,0.169,-14.4,-4.1,2.4,-4.6,27.8,-20.5,0.326639607,0.510788293,-0.372936186,0.702322459
177,446140,314140,1.024,-0.027,0.169,-14.4,-4.1,2.4,-4.6,27.8,-20.5,0.326731162,0.510727256,-0.373210852,0.702200385
178,449857,314140,1.024,-0.027,0.169,-14.4,-4.1,2.4,-4.6,27.8,-20.5,0.326731162,0.510727256,-0.373210852,0.702200385
179,451852,314150,1.024,-0.027,0.169,-14.4,-4.1,2.4,-4.6,27.8,-20.5,0.326731162,0.510727256,-0.373210852,0.702200385
180,454816,314150,1.028,-0.035,0.157,-16.2,-2.3,1.8,-4.6,27.8,-20.5,0.327585681,0.511398663,-0.372753075,0.701528977
181,456210,314150,1.028,-0.039,0.153,-18.2,-1.6,1.8,-4.6,27.8,-20.5,0.327890866,0.511154515,-0.373363445,0.701223792
182,459504,314150,1.028,-0.035,0.141,-18.2,-1.6,1.8,-4.6,27.8,-20.5,0.328043458,0.511032441,-0.373699149,0.7010712
183,461113,314160,1.028,-0.035,0.141,-18.2,-1.6,1.8,-4.6,27.8,-20.5,0.328043458,0.511032441,-0.373699149,0.7010712
184,464763,314160,1.035,-0.031,0.133,-20.4,-1.9,2,-4.6,28,-17.5,0.328226569,0.510910367,-0.374034852,0.700918607
185,467224,314160,1.039,-0.027,0.133,-22.6,-2.9,2.9,-4.6,28,-17.5,0.328592792,0.510635701,-0.374797815,0.700521867
186,469236,314160,1.043,-0.02,0.125,-22.6,-2.9,2.9,-4.6,28,-17.5,0.328775903,0.510483108,-0.375194555,0.700338755
187,472282,314170,1.043,-0.02,0.125,-22.6,-2.9,2.9,-4.6,28,-17.5,0.328775903,0.510483108,-0.375194555,0.700338755
188,474677,314170,1.051,-0.016,0.125,-24.5,-4.7,3.6,-4.6,28.5,-17.3,0.328959014,0.510361034,-0.375652333,0.700094607
189,476716,314170,1.055,-0.012,0.121,-25.4,-5.5,3.8,-4.6,28.5,-17.3,0.329142125,0.51023896,-0.376140629,0.699850459
190,478837,314170,1.059,-0.004,0.121,-27.2,-7,4.4,-4.6,28.5,-17.3,0.329477828,0.509964293,-0.37714774,0.699331645
191,481975,314180,1.059,-0.004,0.121,-27.2,-7,4.4,-4.6,28.5,-17.3,0.329477828,0.509964293,-0.37714774,0.699331645
192,483499,314180,1.059,0,0.121,-28.1,-7.8,4.8,-4.5,28,-20.1,0.329660939,0.509842219,-0.377666555,0.699056978
193,486486,314180,1.075,0.006,0.125,-30.2,-8.9,5.7,-4.5,28,-20.1,0.329996643,0.509598071,-0.378826258,0.698446608
194,489585,314180,1.067,0.01,0.129,-30.2,-8.9,5.7,-4.5,28,-20.1,0.330179754,0.509475997,-0.379375591,0.698141423
195,492681,314190,1.067,0.01,0.129,-30.2,-8.9,5.7,-4.5,28,-20.1,0.330179754,0.509475997,-0.379375591,0.698141423
196,494911,314190,1.067,0.014,0.133,-32.5,-9.7,6.3,-4.6,28.4,-18,0.330362865,0.509323405,-0.380046999,0.697805719
197,497267,314190,1.071,0.014,0.132,-33.6,-9.9,6.4,-4.6,28.4,-18,0.330545976,0.509201331,-0.380718406,0.697470016
198,499548,314190,1.067,0.03,0.132,-34.7,-9.9,6.6,-4.6,28.4,-18,0.330973235,0.508865627,-0.38206122,0.69676809
199,501798,314200,1.067,0.03,0.132,-34.7,-9.9,6.6,-4.6,28.4,-18,0.330973235,0.508865627,-0.38206122,0.69676809
200,503745,314200,1.067,0.03,0.132,-34.7,-9.9,6.6,-4.6,28.4,-18,0.330973235,0.508865627,-0.38206122,0.69676809
201,506053,314200,1.059,0.05,0.137,-37.3,-8.2,6.9,-4.5,28.3,-17.9,0.331827754,0.509475997,-0.382152776,0.695852535
202,509851,314200,1.059,0.05,0.14,-38,-7.3,7,-4.5,28.3,-17.9,0.33210242,0.509262368,-0.382854701,0.695516831
203,511781,314210,1.055,0.069,0.137,-39.3,-5.7,6.9,-4.5,28.3,-17.9,0.332651753,0.508774071,-0.384289071,0.694814905
204,513918,314210,1.055,0.069,0.137,-39.3,-5.7,6.9,-4.5,28.3,-17.9,0.332651753,0.508774071,-0.384289071,0.694814905
205,516074,314210,1.04,0.085,0.141,-39.8,-5,6.8,-4.3,28.5,-18.4,0.33292642,0.508499405,-0.384990997,0.694479202
206,519181,314210,1.036,0.093,0.145,-40.2,-4.4,6.5,-4.3,28.5,-18.4,0.333262123,0.508224738,-0.385723441,0.694143498
207,522307,314220,1.024,0.101,0.141,-40.9,-3.2,6,-4.3,28.5,-18.4,0.333903012,0.507614368,-0.387127293,0.693472091
208,524554,314220,1.024,0.101,0.141,-40.9,-3.2,6,-4.3,28.5,-18.4,0.333903012,0.507614368,-0.387127293,0.693472091
209,526714,314220,1.009,0.109,0.145,-41.6,-2.6,5.6,-4.3,29.4,-18.5,0.334269234,0.507309183,-0.387859737,0.693136387
210,528763,314220,0.997,0.113,0.141,-42.4,-2,5.1,-4.3,29.4,-18.5,0.334635456,0.506973479,-0.388561663,0.692770165
211,531073,314230,0.993,0.117,0.145,-43.4,-1.3,4.6,-4.3,29.4,-18.5,0.335032197,0.506637776,-0.389294107,0.692434462
212,533483,314230,0.977,0.121,0.142,-44.4,-0.5,4,-4.3,29.4,-18.5,0.335459456,0.506302072,-0.389996033,0.692068239
213,537325,314230,0.973,0.121,0.146,-45.5,0.2,3.4,-4.6,29,-17.9,0.335917234,0.50593585,-0.390728477,0.691702017
214,538807,314230,0.962,0.118,0.142,-46.7,0.9,2.8,-4.6,29,-17.9,0.336375011,0.505539109,-0.391460921,0.691335795
215,541172,314240,0.954,0.118,0.142,-48,1.8,2.1,-4.6,29,-17.9,0.336893826,0.505142369,-0.392193365,0.690969573
216,543546,314240,0.95,0.114,0.138,-49.5,2.6,1.4,-4.6,29,-17.9,0.337443159,0.504745628,-0.39292581,0.690603351
217,546015,314240,0.95,0.11,0.135,-51.2,3.4,0.6,-4.2,28.8,-17.3,0.338023011,0.504287851,-0.393688772,0.69020661
218,550133,314240,0.95,0.11,0.135,-52.9,4.2,0,-4.2,28.8,-17.3,0.3386639,0.503830073,-0.394451735,0.689779351
219,552394,314250,0.95,0.098,0.135,-54.6,5,-0.6,-4.2,28.8,-17.3,0.339304788,0.503372295,-0.395245216,0.689352092
220,554519,314250,0.95,0.094,0.135,-56.3,5.8,-1.3,-4.2,28.8,-17.3,0.340006714,0.502883999,-0.396008179,0.688924833
221,556732,314250,0.95,0.094,0.135,-56.3,5.8,-1.3,-4.2,28.8,-17.3,0.340006714,0.502883999,-0.396008179,0.688924833
222,558782,314250,0.958,0.079,0.127,-60.1,7.6,-2.6,-4.7,29.2,-17.3,0.341196936,0.502731407,-0.39640492,0.688222907
223,561022,314260,0.962,0.078,0.123,-62.2,8.8,-3,-4.7,29.2,-17.3,0.341990417,0.502182073,-0.397228919,0.68776513
224,563571,314260,0.969,0.07,0.119,-64.3,10,-3.2,-4.7,29.2,-17.3,0.342844935,0.501571703,-0.398083438,0.687276833
225,567440,314260,0.973,0.074,0.118,-66.3,11,-3.4,-4.7,29.2,-17.3,0.343699454,0.500930815,-0.398968474,0.686788537
226,569838,314260,0.977,0.07,0.107,-68.2,12,-3.6,-4.4,29.5,-16.9,0.344615009,0.500289926,-0.399853511,0.686300241
227,572017,314270,0.985,0.074,0.114,-70,12.9,-3.7,-4.4,29.5,-16.9,0.345530564,0.499588,-0.400769066,0.685811945
228,574287,314270,0.985,0.078,0.11,-72,13.7,-3.9,-4.4,29.5,-16.9,0.346507157,0.498886074,-0.401684622,0.68529313
229,577780,314270,0.985,0.07,0.107,-74.2,14.4,-4,-4.4,29.5,-16.9,0.347514267,0.498123112,-0.402661214,0.684774316
230,580227,314270,0.985,0.07,0.107,-74.2,14.4,-4,-4.4,29.5,-16.9,0.347514267,0.498123112,-0.402661214,0.684774316
231,582405,314280,1,0.07,0.11,-78.4,15.2,-4.4,-4.3,29.2,-17.2,0.349620045,0.496566668,-0.404675436,0.683645131
232,584245,314280,1,0.07,0.11,-80.5,15.3,-4.7,-4.3,29.2,-17.2,0.350688192,0.495742668,-0.405713065,0.683065279
233,586687,314280,1.004,0.066,0.11,-82.5,15.2,-5.1,-4.3,29.2,-17.2,0.351786859,0.494949187,-0.406720176,0.682485427
234,588724,314280,1.004,0.066,0.11,-82.5,15.2,-5.1,-4.3,29.2,-17.2,0.351786859,0.494949187,-0.406720176,0.682485427
235,592506,314290,1,0.054,0.114,-86.2,15,-5.8,-4.3,29.8,-15.2,0.354075747,0.493270669,-0.408978545,0.681173132
236,593832,314290,1.008,0.05,0.114,-88,15,-6.2,-4.3,29.8,-15.2,0.355265969,0.49241615,-0.410077212,0.680501724
237,597273,314290,1.008,0.042,0.114,-89.7,15.1,-6.7,-4.3,29.8,-15.2,0.356456191,0.491561632,-0.411236915,0.679799799
238,599350,314290,1.008,0.042,0.114,-89.7,15.1,-6.7,-4.3,29.8,-15.2,0.356456191,0.491561632,-0.411236915,0.679799799
239,601388,314300,1.004,0.019,0.11,-93.2,15.8,-7.6,-4.6,29.7,-16.7,0.358958708,0.48976104,-0.41358684,0.67833491
240,604863,314300,1,0.015,0.106,-95,16.3,-8,-4.6,29.7,-16.7,0.360240486,0.488845485,-0.414777062,0.677602466
241,607234,314300,1,0.015,0.11,-96.8,17,-8.4,-4.6,29.7,-16.7,0.361552782,0.48792993,-0.415967284,0.676839503
242,609296,314300,1,0.015,0.11,-96.8,17,-8.4,-4.6,29.7,-16.7,0.361552782,0.48792993,-0.415967284,0.676839503
243,611347,314310,1,0.015,0.11,-96.8,17,-8.4,-4.6,29.7,-16.7,0.361552782,0.48792993,-0.415967284,0.676839503
244,614998,314310,0.985,-0.007,0.103,-101.9,19,-9.3,-4.3,29.3,-16.6,0.364940336,0.486709189,-0.417920469,0.674672689
245,617279,314310,0.973,-0.019,0.095,-103.4,19.4,-9.6,-4.3,29.3,-16.6,0.366374706,0.485702078,-0.419202246,0.673848689
246,619403,314310,0.973,-0.019,0.095,-104.7,19.6,-9.8,-4.3,29.3,-16.6,0.367809076,0.484664449,-0.420484024,0.673024689
247,621615,314320,0.973,-0.019,0.095,-104.7,19.6,-9.8,-4.3,29.3,-16.6,0.367809076,0.484664449,-0.420484024,0.673024689
248,623686,314320,0.953,-0.034,0.096,-106.6,19.6,-10.3,-5.1,29.9,-16,0.370708335,0.482558672,-0.423078097,0.671315653
249,626781,314320,0.953,-0.034,0.096,-107.3,19.5,-10.5,-5.1,29.9,-16,0.372173223,0.481490524,-0.424359874,0.670430616
250,629826,314320,0.949,-0.042,0.096,-107.8,19.2,-10.8,-5.1,29.9,-16,0.373638112,0.480452895,-0.42567217,0.669545579
251,632020,314330,0.949,-0.042,0.096,-107.8,19.2,-10.8,-5.1,29.9,-16,0.373638112,0.480452895,-0.42567217,0.669545579
252,633591,314330,0.938,-0.034,0.096,-109,18.8,-11.2,-5.1,29.9,-16,0.376598407,0.478316599,-0.428296762,0.667744987
253,636685,314330,0.938,-0.034,0.096,-109.6,18.7,-11.5,-5.1,29.9,-16,0.378093814,0.477248451,-0.429639576,0.666829432
254,639626,314330,0.937,-0.041,0.088,-110.2,18.7,-12.2,-5.1,29.9,-16,0.379589221,0.476180303,-0.430951872,0.665883358
255,641162,314340,0.934,-0.041,0.092,-110.7,18.6,-12.8,-4.4,31.4,-14.8,0.381084628,0.475081637,-0.432264168,0.664906766
256,643517,314340,0.934,-0.037,0.092,-111,18.7,-13.4,-4.4,31.4,-14.8,0.382610553,0.474044008,-0.433576464,0.663960692
257,646295,314340,0.934,-0.041,0.092,-111.3,18.8,-14.1,-4.4,31.4,-14.8,0.384166997,0.47297586,-0.43488876,0.6629841
258,649724,314340,0.938,-0.038,0.088,-111.7,19,-14.7,-4.4,31.4,-14.8,0.385692923,0.471907712,-0.436201056,0.661976989
259,651717,314350,0.941,-0.045,0.084,-112,19.2,-15.3,-4.7,31.7,-14.5,0.387249367,0.470809046,-0.437482833,0.661000397
260,654871,314350,0.945,-0.045,0.088,-112.3,19.4,-15.9,-4.7,31.7,-14.5,0.388836329,0.469740898,-0.438795129,0.659962767
261,657225,314350,0.949,-0.053,0.088,-112.8,19.7,-16.7,-4.7,31.7,-14.5,0.390423292,0.46867275,-0.440076907,0.658955657
262,659244,314350,0.949,-0.046,0.08,-113.5,19.9,-17.4,-4.7,31.7,-14.5,0.392010254,0.467574084,-0.441358684,0.657918027
263,661636,314360,0.949,-0.046,0.08,-113.5,19.9,-17.4,-4.7,31.7,-14.5,0.392010254,0.467574084,-0.441358684,0.657918027
264,664717,314360,0.969,-0.058,0.072,-115.5,20.1,-18.7,-4.6,32.1,-14.2,0.393902402,0.467024751,-0.44245735,0.65642262
265,666194,314360,0.965,-0.065,0.072,-116.6,20.2,-19.3,-4.6,32.1,-14.2,0.39558092,0.465926084,-0.443739128,0.655354472
266,669551,314360,0.976,-0.058,0.072,-117.5,20.3,-19.8,-4.6,32.1,-14.2,0.397259438,0.464796899,-0.445051424,0.654225288
267,671670,314370,0.984,-0.07,0.068,-118.6,20.4,-20.3,-4.6,32.1,-14.2,0.398907437,0.463667714,-0.44636372,0.653126621
268,673845,314370,0.988,-0.07,0.056,-119.8,20.5,-20.7,-4.8,32.6,-13.4,0.400646992,0.46253853,-0.447676016,0.651966918
269,676203,314370,0.996,-0.078,0.06,-121.2,20.9,-21,-4.8,32.6,-13.4,0.402386547,0.461378826,-0.448988311,0.650807215
270,679957,314370,0.996,-0.078,0.06,-122.6,21.1,-21.2,-4.8,32.6,-13.4,0.404126102,0.460219123,-0.450331126,0.649647511
271,682339,314380,1,-0.082,0.052,-123.9,21.6,-21.4,-4.8,32.6,-13.4,0.405865658,0.459028901,-0.451704459,0.648457289
272,684536,314380,1,-0.094,0.048,-125.1,21.9,-21.4,-4.6,33.3,-11.5,0.407635731,0.457808161,-0.453047273,0.647236549
273,686745,314380,1.003,-0.098,0.04,-126.2,22.2,-21.2,-4.6,33.3,-11.5,0.409436323,0.45658742,-0.454420606,0.646015809
274,688892,314380,1.003,-0.101,0.04,-127.5,22.2,-21.2,-4.6,33.3,-11.5,0.411206397,0.455336161,-0.455793939,0.644795068
275,691127,314390,1.007,-0.105,0.044,-128.5,22.2,-21.1,-4.6,33.3,-11.5,0.413006989,0.454084902,-0.45719779,0.643543809
276,693497,314390,1.007,-0.105,0.044,-128.5,22.2,-21.1,-4.6,33.3,-11.5,0.413006989,0.454084902,-0.45719779,0.643543809
277,697309,314390,1.007,-0.125,0.024,-130.1,21.7,-21.4,-5,33.6,-11.2,0.416608173,0.451551866,-0.460036012,0.640980255
278,699505,314390,1.011,-0.129,0.028,-130.6,21.6,-21.6,-5,33.6,-11.2,0.418408765,0.450270089,-0.461409345,0.639698477
279,702360,314400,1.007,-0.137,0.024,-130.9,21.7,-21.7,-5,33.6,-11.2,0.420209357,0.448988311,-0.462843715,0.638386181
280,703791,314400,1.007,-0.137,0.024,-130.9,21.7,-21.7,-5,33.6,-11.2,0.420209357,0.448988311,-0.462843715,0.638386181
281,706047,314400,1.003,-0.148,0.02,-131.4,21.8,-21.9,-5,33.8,-10.5,0.422040468,0.447706534,-0.464278085,0.637073885
282,709985,314400,0.995,-0.168,0.013,-131.5,21.7,-22.1,-5,33.8,-10.5,0.425641652,0.445112461,-0.467085788,0.634418775
283,712311,314410,0.999,-0.168,0.013,-131.6,21.7,-22.3,-5,33.8,-10.5,0.427442244,0.443830683,-0.468489639,0.633075961
284,714360,314410,0.999,-0.168,0.013,-131.6,21.7,-22.3,-5,33.8,-10.5,0.427442244,0.443830683,-0.468489639,0.633075961
285,716672,314410,0.999,-0.168,0.013,-131.6,21.7,-22.3,-5,33.8,-10.5,0.427442244,0.443830683,-0.468489639,0.633075961
286,719668,314410,0.987,-0.179,0.009,-131.1,21.6,-23.3,-4.9,34.2,-10,0.429120762,0.443037202,-0.470137638,0.63124485
287,721997,314420,0.976,-0.187,0.009,-130.8,21.6,-23.6,-4.9,34.2,-10,0.430951872,0.441755425,-0.471510971,0.629871517
288,723671,314420,0.968,-0.206,0.021,-130.4,21.6,-24,-4.9,34.2,-10,0.434553056,0.439161351,-0.474227119,0.62715537
289,726910,314420,0.968,-0.206,0.021,-130.4,21.6,-24,-4.9,34.2,-10,0.434553056,0.439161351,-0.474227119,0.62715537
290,730452,314420,0.964,-0.206,0.017,-129.6,21.2,-24.4,-5.1,34.5,-9.3,0.436353648,0.437910092,-0.475539415,0.625812555
291,732537,314430,0.964,-0.206,0.017,-129.6,21.2,-24.4,-5.1,34.5,-9.3,0.436353648,0.437910092,-0.475539415,0.625812555
292,734082,314430,0.96,-0.21,0.025,-129,20.4,-25.2,-5.1,34.5,-9.3,0.439924314,0.435407575,-0.478194525,0.623035371
293,737213,314430,0.956,-0.218,0.025,-129,20.4,-25.2,-5.1,34.5,-9.3,0.441694388,0.434125797,-0.479506821,0.62163152
294,739426,314430,0.96,-0.222,0.021,-129.1,20.1,-26,-5.1,33.6,-8.5,0.44349498,0.432905057,-0.480819117,0.620227668
295,741751,314440,0.956,-0.226,0.021,-129.6,20.1,-26.3,-5.1,33.6,-8.5,0.445295572,0.431653798,-0.482131413,0.618793298
296,743790,314440,0.956,-0.222,0.021,-130.3,20.3,-26.6,-5.1,33.6,-8.5,0.447096164,0.430372021,-0.483443709,0.617358928
297,746047,314440,0.956,-0.226,0.018,-131,20.5,-26.9,-5.1,33.6,-8.5,0.448896756,0.429120762,-0.484756005,0.61589404
298,748558,314440,0.956,-0.23,0.018,-131.7,20.7,-27.1,-5.8,35.2,-8,0.450697348,0.427808466,-0.4860683,0.614429151
299,752543,314450,0.956,-0.23,0.018,-132.4,20.9,-27.1,-5.8,35.2,-8,0.452528459,0.426526688,-0.487380596,0.612933744
300,754123,314450,0.956,-0.226,0.018,-133.3,21,-27.1,-5.8,35.2,-8,0.454359569,0.425214393,-0.488692892,0.611438337
301,756226,314450,0.96,-0.238,0.018,-134.3,21.3,-27.2,-5.8,35.2,-8,0.45619068,0.423871578,-0.490005188,0.60994293
302,758632,314450,0.964,-0.245,0.021,-135.4,21.4,-27.4,-6.6,35.2,-7.1,0.45802179,0.422528764,-0.491348003,0.608417005
303,762353,314460,0.975,-0.242,0.013,-136.4,21.7,-27.7,-6.6,35.2,-7.1,0.459883419,0.421185949,-0.492660298,0.606891079
304,764577,314460,0.975,-0.25,0.013,-137.1,22,-28.3,-6.6,35.2,-7.1,0.461775567,0.419812616,-0.494033631,0.605304117
305,766755,314460,0.972,-0.253,0.013,-137.4,22.6,-28.9,-6.6,35.2,-7.1,0.463637196,0.418439283,-0.495345927,0.603747673
306,768916,314460,0.972,-0.253,0.013,-137.4,22.6,-28.9,-6.6,35.2,-7.1,0.463637196,0.418439283,-0.495345927,0.603747673
307,771133,314470,0.972,-0.253,0.013,-137.4,22.6,-28.9,-6.6,35.2,-7.1,0.463637196,0.418439283,-0.495345927,0.603747673
308,773533,314470,0.987,-0.269,0.009,-135.7,26.6,-31,-6.8,35.7,-6.6,0.466841639,0.41605884,-0.498702963,0.600146489
309,778245,314470,0.987,-0.273,0.005,-134,29.1,-31.2,-6.8,35.7,-6.6,0.468764306,0.414654988,-0.499893185,0.598620563
310,778539,314470,0.96,-0.261,0.014,-131.6,31.8,-31,-6.8,35.7,-6.6,0.47071749,0.413220618,-0.500961333,0.597186193
311,781091,314480,0.96,-0.261,0.014,-131.6,31.8,-31,-6.8,35.7,-6.6,0.47071749,0.413220618,-0.500961333,0.597186193
312,784998,314480,0.936,-0.249,0.018,-128.8,33.9,-30.6,-7.5,35.7,-5.8,0.472640156,0.411786248,-0.502029481,0.595751823
313,787280,314480,0.909,-0.245,0.015,-124.4,34.9,-29.9,-7.5,35.7,-5.8,0.47645497,0.408948027,-0.504043703,0.593005158
314,789335,314480,0.913,-0.241,0.014,-123.9,33.3,-29,-7.5,35.7,-5.8,0.478286081,0.407544176,-0.505020295,0.591631825
315,791149,314490,0.913,-0.241,0.014,-123.9,33.3,-29,-7.5,35.7,-5.8,0.478286081,0.407544176,-0.505020295,0.591631825
316,795021,314490,0.936,-0.249,0.002,-125.5,27.3,-26.9,-7.4,36,-4.8,0.480056154,0.406170843,-0.506118961,0.590227973
317,797369,314490,0.948,-0.257,-0.001,-125.5,27.3,-26.9,-7.4,36,-4.8,0.481826228,0.404766991,-0.507217627,0.588793603
318,799501,314490,0.956,-0.265,-0.001,-126.9,24,-26.7,-7.4,36,-4.8,0.483535264,0.403454695,-0.508346812,0.587298196
319,801695,314500,0.96,-0.269,-0.001,-128.1,21.3,-27.5,-7.4,36,-4.8,0.485244301,0.402142399,-0.509506516,0.585772271
320,803891,314500,0.967,-0.277,-0.001,-128.9,18.6,-30.4,-7.2,36.3,-4.3,0.486983856,0.400860622,-0.510696738,0.584185308
321,806425,314500,0.967,-0.281,-0.009,-128.4,18.2,-31.7,-7.2,36.3,-4.3,0.488723411,0.399609363,-0.511856441,0.582567827
322,808752,314500,0.971,-0.285,-0.001,-128.4,18.2,-31.7,-7.2,36.3,-4.3,0.490432447,0.398358104,-0.513016144,0.580950346
323,811059,314510,0.964,-0.285,-0.001,-127.2,17.8,-32.5,-7.2,36.3,-4.3,0.492141484,0.397137364,-0.514175848,0.579332865
324,814901,314510,0.964,-0.289,0.002,-124,16.9,-33,-7.5,36.8,-3.8,0.493820002,0.39597766,-0.515243995,0.577745903
325,817261,314510,0.964,-0.288,0.01,-122.6,16.4,-33.2,-7.5,36.8,-3.8,0.49549852,0.394817957,-0.516342662,0.57615894
326,819473,314510,0.956,-0.292,0.01,-121.7,15.9,-33.2,-7.5,36.8,-3.8,0.497146519,0.393658254,-0.51741081,0.574541459
327,821751,314520,0.952,-0.288,0.014,-121.7,15.9,-33.2,-7.5,36.8,-3.8,0.498764,0.392529069,-0.518478957,0.572954497
328,823717,314520,0.952,-0.288,0.014,-121.7,15.9,-33.2,-7.5,36.8,-3.8,0.498764,0.392529069,-0.518478957,0.572954497
329,827105,314520,0.96,-0.3,0.025,-121.6,15.1,-33.6,-6.9,36.7,-3.1,0.499862667,0.391430403,-0.520187994,0.571184423
330,829274,314520,0.956,-0.304,0.026,-122.3,14.9,-34,-6.9,36.7,-3.1,0.501510666,0.390270699,-0.521256142,0.569566942
331,831596,314530,0.96,-0.308,0.025,-123.1,14.8,-34.3,-6.9,36.7,-3.1,0.503158666,0.389141514,-0.52232429,0.567918943
332,833611,314530,0.96,-0.316,0.033,-124,14.9,-34.4,-6.9,36.7,-3.1,0.504806665,0.387981811,-0.523392438,0.566240425
333,836734,314530,0.96,-0.316,0.033,-124,14.9,-34.4,-6.9,36.7,-3.1,0.504806665,0.387981811,-0.523392438,0.566240425
334,838816,314530,0.96,-0.323,0.037,-125.1,15.1,-34.6,-6.5,35.9,-2.6,0.506454665,0.386822108,-0.524491104,0.564561907
335,841166,314540,0.979,-0.328,0.041,-127,15.6,-35.2,-6.5,35.9,-2.6,0.509811701,0.384411145,-0.526657918,0.561143834
336,845042,314540,0.979,-0.332,0.037,-128,15.8,-35.5,-6.5,35.9,-2.6,0.511490219,0.383220923,-0.527756584,0.559404279
337,847379,314540,0.979,-0.332,0.037,-128,15.8,-35.5,-6.5,35.9,-2.6,0.511490219,0.383220923,-0.527756584,0.559404279
338,849698,314540,0.987,-0.34,0.029,-128.9,16.1,-35.9,-6.9,35.9,-1.9,0.513199255,0.382000183,-0.528855251,0.557664724
339,851764,314550,0.995,-0.344,0.037,-129.6,16.5,-36.2,-6.9,35.9,-1.9,0.514908292,0.380748924,-0.529923399,0.55589465
340,854819,314550,1.01,-0.367,0.036,-130,17.8,-36.2,-6.9,35.9,-1.9,0.518326365,0.378246406,-0.532090213,0.552354503
341,857200,314550,1.01,-0.367,0.036,-130,17.8,-36.2,-6.9,35.9,-1.9,0.518326365,0.378246406,-0.532090213,0.552354503
342,859379,314550,1.038,-0.379,0.036,-128.6,19.6,-36,-6.9,35.8,-1.1,0.52006592,0.376964629,-0.533127842,0.550614948
343,861628,314560,1.022,-0.371,0.04,-128.6,19.6,-36,-6.9,35.8,-1.1,0.521774957,0.375682852,-0.534134953,0.548844874
344,863718,314560,1.03,-0.375,0.044,-127.3,21.1,-36.1,-6.9,35.8,-1.1,0.523514512,0.374401074,-0.535111545,0.547135838
345,866100,314560,1.045,-0.387,0.04,-125.7,22.9,-36.4,-6.9,35.8,-1.1,0.525223548,0.373119297,-0.536057619,0.545426801
346,869931,314560,1.038,-0.383,0.048,-123,27.8,-37.7,-7.3,36.1,-0.7,0.526993622,0.371807001,-0.536912137,0.543778802
347,872335,314570,1.03,-0.387,0.044,-122.1,30.9,-39.2,-7.3,36.1,-0.7,0.528824732,0.370494705,-0.5376751,0.542161321
348,874073,314570,1.03,-0.403,0.04,-122.1,30.9,-39.2,-7.3,36.1,-0.7,0.530625324,0.369182409,-0.538438063,0.540513321
349,877115,314570,1.069,-0.419,0.031,-121.6,33.9,-41,-7.3,36.1,-0.7,0.532486953,0.367870113,-0.539139988,0.538865322
350,878660,314570,1.069,-0.419,0.031,-121.6,33.9,-41,-7.3,36.1,-0.7,0.532486953,0.367870113,-0.539139988,0.538865322
351,882455,314580,1.041,-0.438,0.044,-120.6,39.5,-44.6,-7.6,35.9,-0.2,0.534440138,0.366527299,-0.539750359,0.537247841
352,883795,314580,0.956,-0.421,0.061,-115.9,46.5,-46.9,-7.6,35.9,-0.2,0.538468581,0.363811151,-0.540696432,0.534104434
353,886129,314580,0.905,-0.397,0.074,-112.5,49.6,-47.5,-7.6,35.9,-0.2,0.540482803,0.362468337,-0.541062654,0.532609027
354,888501,314580,0.905,-0.397,0.074,-112.5,49.6,-47.5,-7.6,35.9,-0.2,0.540482803,0.362468337,-0.541062654,0.532609027
355,892399,314590,0.87,-0.42,0.051,-109.9,50.4,-47.2,-8,36.2,0.2,0.542497024,0.361156041,-0.54136784,0.531144139
356,894652,314590,0.881,-0.439,0.039,-109.1,47.8,-45.4,-8,36.2,0.2,0.544450209,0.359843745,-0.541703543,0.529709769
357,896772,314590,0.916,-0.456,0.027,-112.5,33.7,-37.9,-8,36.2,0.2,0.548020875,0.357249672,-0.542741173,0.526718955
358,898974,314590,0.916,-0.456,0.027,-112.5,33.7,-37.9,-8,36.2,0.2,0.548020875,0.357249672,-0.542741173,0.526718955
359,901056,314600,0.959,-0.464,0.022,-117.3,17.6,-34.7,-7.5,35.9,1.1,0.549516282,0.35605945,-0.543595691,0.525040437
360,904693,314600,0.971,-0.484,0.018,-117.3,17.6,-34.7,-7.5,35.9,1.1,0.551042207,0.354869228,-0.544450209,0.523361919
361,906981,314600,0.975,-0.488,0.029,-118.8,12,-36.5,-7.5,35.9,1.1,0.552537614,0.353740043,-0.545396283,0.521591845
362,908845,314600,0.975,-0.488,0.029,-119.3,8.7,-39.1,-7.5,35.9,1.1,0.554002503,0.352671896,-0.546342357,0.519791253
363,911115,314610,0.971,-0.492,0.037,-116,6.1,-41.9,-7.2,36.2,1.5,0.555436872,0.351695303,-0.547257912,0.517929624
364,915168,314610,0.959,-0.488,0.045,-113.1,5.5,-41.5,-7.2,36.2,1.5,0.556840724,0.350749229,-0.548142949,0.516129032
365,916944,314610,0.959,-0.491,0.061,-113.1,5.5,-41.5,-7.2,36.2,1.5,0.558244575,0.349803156,-0.549027985,0.514297922
366,919200,314610,0.955,-0.495,0.069,-110.2,4.8,-40.5,-7.2,36.2,1.5,0.559556871,0.3488876,-0.549913022,0.512527848
367,921218,314620,0.944,-0.499,0.089,-105.8,3.9,-38.4,-7.7,36.2,1.9,0.560869167,0.348002564,-0.550737022,0.510818812
368,923561,314620,0.944,-0.503,0.089,-104.4,3.8,-37.5,-7.7,36.2,1.9,0.562120426,0.347148045,-0.551561022,0.509140294
369,927618,314620,0.948,-0.507,0.097,-103.7,4,-36.7,-7.7,36.2,1.9,0.563371685,0.346263009,-0.552385022,0.507461776
370,929786,314620,0.944,-0.51,0.104,-103.7,4,-36.7,-7.7,36.2,1.9,0.564592425,0.345377972,-0.553209021,0.505783258
371,931976,314630,0.944,-0.51,0.104,-103.7,4,-36.7,-7.7,36.2,1.9,0.564592425,0.345377972,-0.553209021,0.505783258
372,933573,314630,0.944,-0.51,0.104,-103.7,4,-36.7,-7.7,36.2,1.9,0.564592425,0.345377972,-0.553209021,0.505783258
373,937328,314630,0.948,-0.518,0.124,-104.7,5.6,-35.5,-7.7,36,2.7,0.566515091,0.342875454,-0.555406354,0.502945036
374,939620,314630,0.952,-0.518,0.132,-105.4,6.3,-34.9,-7.7,36,2.7,0.56776635,0.34192938,-0.556199835,0.501297037
375,941834,314640,0.956,-0.522,0.124,-106,7.1,-34.2,-7.7,36,2.7,0.569017609,0.340952788,-0.557023835,0.499618519
376,944089,314640,0.956,-0.522,0.124,-106,7.1,-34.2,-7.7,36,2.7,0.569017609,0.340952788,-0.557023835,0.499618519
377,946158,314640,0.96,-0.522,0.124,-106.2,8.2,-33.3,-8.1,36.1,3.5,0.570268868,0.339945677,-0.557817316,0.497970519
378,948633,314640,0.952,-0.522,0.12,-105.3,11.2,-31.5,-8.1,36.1,3.5,0.572801904,0.337870418,-0.55937376,0.494766076
379,952313,314650,0.956,-0.526,0.12,-104.1,12.7,-30.7,-8.1,36.1,3.5,0.574053163,0.336802271,-0.560106204,0.493209632
380,954650,314650,0.956,-0.526,0.12,-104.1,12.7,-30.7,-8.1,36.1,3.5,0.574053163,0.336802271,-0.560106204,0.493209632
381,956808,314650,0.959,-0.534,0.112,-102.3,14,-29.8,-8.4,36.2,3.7,0.575273904,0.335734123,-0.560838649,0.491683706
382,960129,314650,0.967,-0.542,0.116,-97.8,16.1,-28.1,-8.4,36.2,3.7,0.577715384,0.333597827,-0.562120426,0.488753929
383,962760,314660,0.995,-0.554,0.115,-95.3,16.9,-27.6,-8.4,36.2,3.7,0.578905606,0.332560198,-0.562730796,0.487380596
384,965283,314660,0.995,-0.554,0.115,-95.3,16.9,-27.6,-8.4,36.2,3.7,0.578905606,0.332560198,-0.562730796,0.487380596
385,967588,314660,0.991,-0.546,0.115,-92.5,17.9,-27.8,-8.1,35.5,4.5,0.580095828,0.331553087,-0.563280129,0.486007263
386,969711,314660,1.045,-0.579,0.107,-86.3,20.7,-30.6,-8.1,35.5,4.5,0.58250679,0.329630421,-0.564195685,0.483382672
387,971161,314670,1.034,-0.574,0.119,-83,23.1,-32.4,-8.1,35.5,4.5,0.583727531,0.328714866,-0.564561907,0.482100894
388,974834,314670,1.034,-0.574,0.119,-83,23.1,-32.4,-8.1,35.5,4.5,0.583727531,0.328714866,-0.564561907,0.482100894
389,976980,314670,1.014,-0.582,0.123,-79.5,26.2,-33.8,-8.5,35.7,4.6,0.58497879,0.327860347,-0.564806055,0.480880154
390,979225,314670,1.002,-0.597,0.127,-75.5,29.9,-34.5,-8.5,35.7,4.6,0.586230049,0.327005829,-0.564989166,0.47972045
391,981986,314680,1.034,-0.617,0.134,-67,35.3,-33.2,-8.5,35.7,4.6,0.588763085,0.32535783,-0.565050203,0.477645192
392,984399,314680,1.034,-0.617,0.134,-67,35.3,-33.2,-8.5,35.7,4.6,0.588763085,0.32535783,-0.565050203,0.477645192
393,986519,314680,1.018,-0.633,0.142,-59.4,35.8,-28.2,-9.7,35.7,5,0.589922788,0.324564348,-0.565019684,0.476790674
394,989248,314680,1.01,-0.644,0.15,-55.7,34.8,-25.4,-9.7,35.7,5,0.591021455,0.323801386,-0.564958647,0.476027711
395,992128,314690,1.002,-0.644,0.162,-52.4,33,-22.6,-9.7,35.7,5,0.592028565,0.323038423,-0.564928129,0.475325785
396,994300,314690,1.022,-0.648,0.162,-52.4,33,-22.6,-9.7,35.7,5,0.593035676,0.322305979,-0.56489761,0.474623859
397,996222,314690,1.119,-0.681,0.168,-48.5,25.5,-18.9,-9.3,35.3,5.1,0.593890194,0.321634571,-0.564928129,0.473952452
398,999776,314690,1.139,-0.693,0.172,-48.6,20.9,-18.9,-9.3,35.3,5.1,0.594683676,0.321024201,-0.565019684,0.473250526
399,1001128,314700,1.139,-0.693,0.172,-49.3,17.3,-19.8,-9.3,35.3,5.1,0.595446638,0.320444349,-0.565172277,0.472518082
400,1004916,314700,1.147,-0.701,0.179,-49.3,17.3,-19.8,-9.3,35.3,5.1,0.596209601,0.319895016,-0.56532487,0.471755119
401,1006832,314700,1.166,-0.713,0.195,-49.2,15.3,-20.8,-9.5,35.3,5.1,0.596972564,0.319345683,-0.565477462,0.470992157
402,1008668,314700,1.162,-0.721,0.203,-47.8,16.4,-20,-9.5,35.3,5.1,0.597705008,0.31879635,-0.565599536,0.470259713
403,1011612,314710,1.162,-0.721,0.203,-46,17.8,-18.5,-9.5,35.3,5.1,0.598437452,0.318247017,-0.56572161,0.469557787
404,1014613,314710,1.159,-0.74,0.203,-46,17.8,-18.5,-9.5,35.3,5.1,0.599169897,0.317697684,-0.565843684,0.46888638
405,1016162,314710,1.158,-0.76,0.179,-43,20.7,-15.7,-9.3,35.6,5.6,0.599871822,0.317117832,-0.565874203,0.468276009
406,1019108,314710,1.15,-0.768,0.172,-41.8,22,-14.7,-9.3,35.6,5.6,0.600604266,0.316507462,-0.56593524,0.467726676
407,1021854,314720,1.146,-0.779,0.156,-41.8,22,-14.7,-9.3,35.6,5.6,0.601306192,0.31592761,-0.565965758,0.467177343
408,1024637,314720,1.139,-0.795,0.148,-40.5,23.5,-13.8,-9.3,35.6,5.6,0.602008118,0.31531724,-0.565965758,0.466658528
409,1026262,314720,1.123,-0.818,0.125,-37.2,26.7,-12.5,-9.2,35.4,5.7,0.602740562,0.31470687,-0.565904721,0.466200751
410,1030498,314720,1.103,-0.833,0.114,-35,28.1,-12.5,-9.2,35.4,5.7,0.603442488,0.314127018,-0.565813166,0.46580401
411,1032049,314730,1.087,-0.845,0.114,-32.4,29.4,-12.6,-9.2,35.4,5.7,0.604174932,0.313547166,-0.565660573,0.465437788
412,1033536,314730,1.068,-0.86,0.103,-32.4,29.4,-12.6,-9.2,35.4,5.7,0.604876858,0.312967315,-0.565507981,0.465071566
413,1036527,314730,1.068,-0.86,0.103,-32.4,29.4,-12.6,-9.2,35.4,5.7,0.604876858,0.312967315,-0.565507981,0.465071566
414,1039392,314730,1.044,-0.903,0.084,-26.3,30.1,-13.3,-9.9,35.5,5.3,0.605548265,0.312479019,-0.565294351,0.464796899
415,1042405,314740,1.02,-0.934,0.076,-22.8,29.3,-13.6,-9.9,35.5,5.3,0.606219672,0.312051759,-0.565050203,0.464522233
416,1043752,314740,1.016,-0.949,0.069,-19,27.9,-13.4,-9.9,35.5,5.3,0.606830042,0.311685537,-0.564775536,0.464308603
417,1046751,314740,1.005,-0.969,0.065,-14.9,25.9,-12.9,-9.9,35.5,5.3,0.607379376,0.311380352,-0.56450087,0.464125492
418,1049849,314740,0.977,-0.996,0.069,-10.8,24,-12.4,-9.7,35.1,6.7,0.607867672,0.311136204,-0.564195685,0.4639729
419,1051270,314750,0.981,-1.011,0.069,-6.9,22,-11.9,-9.7,35.1,6.7,0.608325449,0.310983612,-0.5638905,0.463881344
420,1054379,314750,0.962,-1.038,0.078,-3.2,20.4,-11.5,-9.7,35.1,6.7,0.60872219,0.310861538,-0.563585314,0.463820307
421,1057350,314750,0.962,-1.05,0.086,0.2,19.1,-11,-9.7,35.1,6.7,0.609057894,0.310831019,-0.563249611,0.463820307
422,1059659,314750,1.005,-1.07,0.093,7.1,17.8,-9.9,-9.9,35.5,6.9,0.60933256,0.310861538,-0.562883389,0.463881344
423,1061994,314760,0.981,-1.078,0.101,7.1,17.8,-9.9,-9.9,35.5,6.9,0.609607227,0.310892056,-0.562486648,0.4639729
424,1063616,314760,0.965,-1.093,0.097,10.1,18.7,-10,-9.9,35.5,6.9,0.609851375,0.310953093,-0.562089908,0.464094974
425,1066024,314760,0.981,-1.129,0.089,12.6,21,-10.6,-9.9,35.5,6.9,0.610126041,0.31101413,-0.561601611,0.464247566
426,1069398,314760,0.942,-1.179,0.09,17.8,28.5,-9.1,-9.8,35,7.5,0.610461745,0.311105686,-0.560991241,0.464552751
427,1071262,314770,0.926,-1.194,0.098,22.3,32.8,-5.7,-9.8,35,7.5,0.61076693,0.311136204,-0.560289315,0.464949492
428,1074593,314770,0.91,-1.186,0.102,22.3,32.8,-5.7,-9.8,35,7.5,0.611072115,0.311166723,-0.559556871,0.465376751
429,1076732,314770,0.957,-1.206,0.098,28.3,36.6,-1.1,-9.8,35,7.5,0.611346782,0.311197241,-0.558793909,0.465956603
430,1079272,314770,0.957,-1.206,0.098,28.3,36.6,-1.1,-9.8,35,7.5,0.611346782,0.311197241,-0.558793909,0.465956603
431,1082727,314780,0.961,-1.222,0.098,40.1,41.6,7.1,-9.8,35.4,7,0.611499374,0.31122776,-0.557878353,0.466811121
432,1085019,314780,0.789,-1.235,0.101,46.7,46.7,10.6,-9.8,35.4,7,0.611774041,0.311258278,-0.555864132,0.468825343
433,1087364,314780,0.75,-1.25,0.082,48.8,49.3,10.4,-9.8,35.4,7,0.611926634,0.311288797,-0.554795984,0.46989349
434,1089495,314780,0.75,-1.25,0.082,48.8,49.3,10.4,-9.8,35.4,7,0.611926634,0.311288797,-0.554795984,0.46989349
435,1091198,314790,0.851,-1.357,0.002,55.1,43.3,13,-10.3,35.5,3.1,0.611957152,0.311410871,-0.553727836,0.471022675
436,1093535,314790,0.882,-1.354,-0.005,55.1,43.3,13,-10.3,35.5,3.1,0.611957152,0.311532945,-0.552690207,0.47215186
437,1097416,314790,0.901,-1.362,-0.017,61,33.5,16.6,-10.3,35.5,3.1,0.611774041,0.311807611,-0.551713614,0.473342082
438,1099679,314790,0.917,-1.378,-0.018,68.9,22.4,19.6,-10.3,35.5,3.1,0.6113773,0.312265389,-0.550828578,0.474593341
439,1101809,314800,0.917,-1.378,-0.018,68.9,22.4,19.6,-10.3,35.5,3.1,0.6113773,0.312265389,-0.550828578,0.474593341
440,1103873,314800,0.963,-1.442,-0.046,95.7,3.6,17.4,-9.7,35.3,5.2,0.609881893,0.314157537,-0.549058504,0.477340007
441,1106084,314800,0.956,-1.453,-0.05,104.5,2.8,16.5,-9.7,35.3,5.2,0.609027375,0.31531724,-0.548020875,0.478804895
442,1108561,314800,0.967,-1.461,-0.069,104.5,2.8,16.5,-9.7,35.3,5.2,0.608172857,0.316476943,-0.547013764,0.480300302
443,1112537,314810,0.967,-1.461,-0.069,104.5,2.8,16.5,-9.7,35.3,5.2,0.608172857,0.316476943,-0.547013764,0.480300302
444,1114765,314810,0.975,-1.497,-0.093,122.6,2.9,18.5,-9.8,35.2,4.6,0.607165746,0.317850276,-0.545823542,0.482039857
445,1117137,314810,0.986,-1.532,-0.117,140.7,1.6,23.9,-9.8,35.2,4.6,0.604815821,0.320871609,-0.54319895,0.485885189
446,1119340,314810,0.99,-1.536,-0.121,149.4,1.1,26.9,-9.8,35.2,4.6,0.603503525,0.322519608,-0.541795099,0.488021485
447,1121702,314820,0.99,-1.536,-0.121,149.4,1.1,26.9,-9.8,35.2,4.6,0.603503525,0.322519608,-0.541795099,0.488021485
448,1123660,314820,1.049,-1.553,-0.141,157.7,1.3,29.7,-9.8,35.2,4.6,0.602099673,0.324228645,-0.540299692,0.490279855
449,1125984,314820,0.982,-1.532,-0.124,164.9,2.7,31.4,-9.8,35.2,4.6,0.600604266,0.325998718,-0.538712729,0.492660298
450,1129892,314820,0.982,-1.524,-0.136,175.3,10.7,29.1,-9.8,35.2,4.6,0.59767449,0.329630421,-0.535172582,0.497634816
451,1132174,314830,0.982,-1.524,-0.136,175.3,10.7,29.1,-9.8,35.2,4.6,0.59767449,0.329630421,-0.535172582,0.497634816
452,1134291,314830,0.861,-1.546,-0.13,178.7,15.9,25.9,-9.8,35.2,4.6,0.596301157,0.331461531,-0.533219398,0.500167852
453,1136326,314830,0.838,-1.549,-0.133,182.4,20.1,24,-9.8,35.2,4.6,0.594958342,0.333353679,-0.531144139,0.502761925
454,1138624,314830,0.861,-1.561,-0.157,187.6,22.3,25.2,-9.8,35.2,4.6,0.593554491,0.335245827,-0.528977325,0.505417035
455,1140990,314840,0.857,-1.573,-0.177,195.8,21.6,30.2,-9.8,35.2,4.6,0.592028565,0.337168493,-0.526749474,0.508224738
456,1144033,314840,0.857,-1.573,-0.177,195.8,21.6,30.2,-9.8,35.2,4.6,0.592028565,0.337168493,-0.526749474,0.508224738
457,1146152,314840,0.861,-1.441,-0.189,240.3,7.9,60.1,-9.1,35.4,0.5,0.5876339,0.341654714,-0.52211066,0.515091403
458,1148572,314840,0.873,-1.394,-0.205,257,3.8,68.1,-9.1,35.4,0.5,0.58497879,0.344126713,-0.519669179,0.518906217
459,1152392,314850,0.908,-1.356,-0.229,257,3.8,68.1,-9.1,35.4,0.5,0.582293161,0.346598712,-0.517227699,0.52272103
460,1154533,314850,0.908,-1.356,-0.229,257,3.8,68.1,-9.1,35.4,0.5,0.582293161,0.346598712,-0.517227699,0.52272103
461,1156828,314850,0.966,-1.314,-0.316,277.9,-4.2,72.6,-8.8,35.1,-0.9,0.579302347,0.349345378,-0.514633625,0.526718955
462,1159051,314850,0.986,-1.311,-0.352,281.2,-8.4,70.9,-8.8,35.1,-0.9,0.576250496,0.352183599,-0.512039552,0.53071688
463,1161169,314860,0.985,-1.276,-0.434,284.2,-12.1,68.1,-8.8,35.1,-0.9,0.569994201,0.358012635,-0.506790368,0.538529618
464,1163469,314860,0.985,-1.276,-0.434,284.2,-12.1,68.1,-8.8,35.1,-0.9,0.569994201,0.358012635,-0.506790368,0.538529618
465,1165993,314860,0.97,-1.264,-0.454,288.3,-10.6,68.9,-8.4,35.3,-2.4,0.566820276,0.36097293,-0.504074221,0.542497024
466,1170422,314860,0.954,-1.26,-0.481,295,-7.7,71.4,-8.4,35.3,-2.4,0.563554796,0.363902707,-0.501205481,0.546525468
467,1173030,314870,0.942,-1.256,-0.543,313.8,-2.7,77.7,-8.4,35.3,-2.4,0.556688131,0.369884335,-0.495101779,0.55507065
468,1174924,314870,0.942,-1.256,-0.543,313.8,-2.7,77.7,-8.4,35.3,-2.4,0.556688131,0.369884335,-0.495101779,0.55507065
469,1177178,314870,0.934,-1.264,-0.578,323.8,-2,80.5,-7.7,35.2,-4.2,0.553056429,0.372966704,-0.491836299,0.559495834
470,1179411,314870,0.934,-1.26,-0.586,333.4,-2.4,82.9,-7.7,35.2,-4.2,0.549302652,0.376140629,-0.488479263,0.564043092
471,1181630,314880,0.93,-1.248,-0.598,342,-3.5,84.9,-7.7,35.2,-4.2,0.545396283,0.379345073,-0.484969634,0.568651387
472,1183757,314880,0.922,-1.237,-0.605,349.5,-4.7,87.2,-7.7,35.2,-4.2,0.541337321,0.382641072,-0.481398968,0.573351238
473,1185987,314880,0.906,-1.232,-0.625,360.1,-6.3,94.1,-7.1,34.4,-4.8,0.53706473,0.385967589,-0.477736747,0.578173162
474,1190044,314880,0.898,-1.232,-0.628,360.1,-6.3,94.1,-7.1,34.4,-4.8,0.53276162,0.389263588,-0.474074526,0.58293405
475,1192168,314890,0.894,-1.236,-0.64,363.4,-6.4,99.1,-7.1,34.4,-4.8,0.528305918,0.392559587,-0.470351268,0.587786493
476,1194283,314890,0.902,-1.233,-0.656,366.1,-5.5,104.7,-7.1,34.4,-4.8,0.523789178,0.395764031,-0.466597491,0.592669454
477,1196697,314890,0.902,-1.233,-0.656,366.1,-5.5,104.7,-7.1,34.4,-4.8,0.523789178,0.395764031,-0.466597491,0.592669454
478,1198598,314890,0.929,-1.198,-0.696,371.9,-2.2,116.1,-6.5,34.1,-8,0.519028291,0.3988464,-0.462782678,0.597766045
479,1200981,314900,0.937,-1.167,-0.712,375.9,0.1,121.9,-6.5,34.1,-8,0.514145329,0.401837214,-0.458937346,0.602923673
480,1204690,314900,0.933,-1.167,-0.727,380.6,2.6,128.6,-6.5,34.1,-8,0.509109775,0.404766991,-0.455000458,0.608172857
481,1206004,314900,0.941,-1.156,-0.755,385.5,4.8,136.9,-6.5,34.1,-8,0.503921628,0.407605213,-0.451033052,0.613544115
482,1209361,314900,0.941,-1.109,-0.806,390.3,6.2,146.8,-6,33,-9.7,0.498519852,0.410351878,-0.447035127,0.619006928
483,1211183,314910,0.96,-1.086,-0.837,395.3,6.9,158.1,-6,33,-9.7,0.492904447,0.413006989,-0.443006684,0.624622333
484,1214471,314910,0.972,-1.067,-0.869,400.3,7.1,170.7,-6,33,-9.7,0.487014374,0.415540025,-0.43897824,0.630359813
485,1216716,314910,1.015,-1.013,-0.921,405.2,7.1,184.1,-6,33,-9.7,0.480849635,0.417981506,-0.434980316,0.636249886
486,1218638,314910,1.069,-0.948,-0.985,413.7,8.1,211.5,-5.1,32,-11.4,0.4741966,0.420178838,-0.431073946,0.642414624
487,1220983,314920,1.093,-0.902,-1.009,413.7,8.1,211.5,-5.1,32,-11.4,0.467482528,0.422315134,-0.42710654,0.648548845
488,1224677,314920,1.096,-0.867,-1.028,417.8,9.7,224.4,-5.1,32,-11.4,0.460524308,0.424298837,-0.423139134,0.654774621
489,1226306,314920,1.104,-0.824,-1.056,422.6,12.1,236.1,-5.1,32,-11.4,0.45332194,0.426190985,-0.419141209,0.661122471
490,1230041,314920,1.104,-0.824,-1.056,422.6,12.1,236.1,-5.1,32,-11.4,0.45332194,0.426190985,-0.419141209,0.661122471
491,1231259,314930,1.225,-0.713,-1.117,440.5,15.8,264.4,-4.1,30.7,-13.3,0.437879574,0.429517502,-0.41093173,0.674428541
492,1235472,314930,1.327,-0.633,-1.15,447.9,13.5,272,-4.1,30.7,-13.3,0.42976165,0.431134983,-0.406720176,0.681112094
493,1237761,314930,1.327,-0.633,-1.15,447.9,13.5,272,-4.1,30.7,-13.3,0.421613208,0.432691427,-0.402478103,0.687734611
494,1239963,314930,1.327,-0.633,-1.15,447.9,13.5,272,-4.1,30.7,-13.3,0.421613208,0.432691427,-0.402478103,0.687734611
495,1242242,314940,1.397,-0.536,-1.164,466.6,2.9,285.2,-2.4,31.6,-13.7,0.412915433,0.434400464,-0.398113956,0.694418165
496,1244033,314940,1.456,-0.483,-1.184,477.3,-4.6,290.8,-2.4,31.6,-13.7,0.403912473,0.436231574,-0.393658254,0.701101718
497,1247496,314940,1.499,-0.452,-1.228,497.8,-21.7,296.2,-2.4,31.6,-13.7,0.385052034,0.440229499,-0.384380627,0.714224677
498,1249764,314940,1.499,-0.452,-1.228,497.8,-21.7,296.2,-2.4,31.6,-13.7,0.385052034,0.440229499,-0.384380627,0.714224677
499,1251626,314950,1.499,-0.452,-1.228,497.8,-21.7,296.2,-2.4,31.6,-13.7,0.385052034,0.440229499,-0.384380627,0.714224677
500,1254674,314950,1.654,-0.479,-1.353,527.1,-43.5,284.2,-2,29.2,-17.6,0.36527604,0.445295572,-0.374187445,0.726767785
501,1256023,314950,1.705,-0.507,-1.389,539.5,-49.7,278.5,-2,29.2,-17.6,0.355204932,0.448072756,-0.368694113,0.732871487
502,1258829,314950,1.756,-0.5,-1.39,539.5,-49.7,278.5,-2,29.2,-17.6,0.345042268,0.450758385,-0.363139744,0.738792077
503,1261038,314960,1.756,-0.5,-1.39,539.5,-49.7,278.5,-2,29.2,-17.6,0.345042268,0.450758385,-0.363139744,0.738792077
504,1265047,314960,1.947,-0.527,-1.421,569.5,-59,266.7,-0.6,27.2,-19.2,0.334635456,0.453840754,-0.357005524,0.74468215
505,1267194,314960,1.888,-0.491,-1.4,602.7,-57.5,253.6,-0.6,27.2,-19.2,0.313455611,0.460249641,-0.343485824,0.756218146
506,1268615,314960,1.811,-0.423,-1.36,602.7,-57.5,253.6,-0.6,27.2,-19.2,0.302743614,0.463362529,-0.336466567,0.761833552
507,1271700,314970,1.811,-0.423,-1.36,602.7,-57.5,253.6,-0.6,27.2,-19.2,0.302743614,0.463362529,-0.336466567,0.761833552
508,1274924,314970,1.842,-0.369,-1.321,626.9,-41.6,241.5,-0.3,25.2,-21.3,0.292062136,0.466383862,-0.328714866,0.767509995
509,1277240,314970,1.784,-0.289,-1.289,631,-30.7,236.6,-0.3,25.2,-21.3,0.281441694,0.469161046,-0.320719016,0.773155919
510,1279693,314970,1.501,-0.026,-1.186,618.1,-6.3,232.4,-0.3,25.2,-21.3,0.260505997,0.47379986,-0.304483169,0.784142582
511,1281099,314980,1.501,-0.026,-1.186,618.1,-6.3,232.4,-0.3,25.2,-21.3,0.260505997,0.47379986,-0.304483169,0.784142582
512,1285128,314980,1.594,0.014,-1.235,601.2,6.4,234.2,0.6,22.7,-23.3,0.250312815,0.475478378,-0.296548357,0.789452803
513,1287161,314980,1.766,0.038,-1.277,578.1,17.6,238.1,0.6,22.7,-23.3,0.240302744,0.476760155,-0.288949248,0.794610431
514,1288771,314980,1.759,0.296,-1.27,523.3,34.6,248.7,0.6,22.7,-23.3,0.22092349,0.478072451,-0.275032807,0.804345836
515,1292246,314990,1.759,0.296,-1.27,523.3,34.6,248.7,0.6,22.7,-23.3,0.22092349,0.478072451,-0.275032807,0.804345836
516,1294360,314990,1.923,0.395,-1.347,497.8,42.4,254.2,1.4,20.8,-23.8,0.211493271,0.478164006,-0.268715476,0.808923612
517,1296288,314990,1.95,0.691,-1.486,475.2,47.4,258.9,1.4,20.8,-23.8,0.202215644,0.477980895,-0.262794885,0.813348796
518,1299617,314990,1.73,1.183,-1.416,434.5,35.2,262.1,1.4,20.8,-23.8,0.184057131,0.477309488,-0.25205237,0.821405683
519,1301156,315000,1.73,1.183,-1.416,434.5,35.2,262.1,1.4,20.8,-23.8,0.184057131,0.477309488,-0.25205237,0.821405683
520,1303632,315000,1.73,1.183,-1.416,434.5,35.2,262.1,1.4,20.8,-23.8,0.184057131,0.477309488,-0.25205237,0.821405683
521,1307169,315000,2.184,1.831,-1.523,356.3,-65.3,248,2.2,18.3,-24.6,0.166844691,0.479079562,-0.24427015,0.826410718
522,1308730,315000,0.831,2.221,-0.763,333.2,-96.3,248.7,2.2,18.3,-24.6,0.158360546,0.480666524,-0.241218299,0.828028199
523,1312165,315010,0.831,2.221,-0.763,333.2,-96.3,248.7,2.2,18.3,-24.6,0.149845882,0.482222968,-0.238135929,0.829615162
524,1313674,315010,0.831,2.221,-0.763,333.2,-96.3,248.7,2.2,18.3,-24.6,0.149845882,0.482222968,-0.238135929,0.829615162
525,1316490,315010,2.711,1.763,-1.584,302.9,-201.9,243.9,2,15.4,-25.7,0.132541887,0.488021485,-0.233375042,0.830500198
526,1319357,315010,2.793,1.774,-1.621,304.6,-233,231.6,2,15.4,-25.7,0.123935667,0.491927854,-0.230994598,0.830195013
527,1322051,315020,2.941,1.783,-1.569,304.6,-233,231.6,2,15.4,-25.7,0.11526841,0.495773186,-0.228583636,0.829828791
528,1323532,315020,2.941,1.783,-1.569,304.6,-233,231.6,2,15.4,-25.7,0.11526841,0.495773186,-0.228583636,0.829828791
529,1326394,315020,2.703,1.596,-1.427,323.8,-145.8,207.5,2,13.9,-26.3,0.107272561,0.498184149,-0.225318155,0.830347606
530,1330005,315020,1.917,1.651,-1.005,308.5,107.1,175.4,2,13.9,-26.3,0.0940885647,0.496414075,-0.217688528,0.835047456
531,1331822,315030,1.103,1.569,-0.645,274.8,246,162,2,13.9,-26.3,0.0893276772,0.491714225,-0.213904233,0.839320048
532,1334518,315030,1.103,1.569,-0.645,274.8,246,162,2,13.9,-26.3,0.0893276772,0.491714225,-0.213904233,0.839320048
533,1337529,315030,-0.179,1.105,-0.014,218.8,362.9,162.1,2,13.9,-26.3,0.0856959746,0.484694967,-0.210913419,0.844508194
534,1339055,315030,-0.523,0.694,0.259,139.1,436.6,182,2,13.9,-26.3,0.0828882717,0.476058229,-0.209448531,0.850062563
535,1342342,315040,-0.613,-0.211,0.787,-69,414.8,275.4,2,13.9,-26.3,0.0778832362,0.457502976,-0.213538011,0.859645375
536,1344711,315040,-0.613,-0.211,0.787,-69,414.8,275.4,2,13.9,-26.3,0.0778832362,0.457502976,-0.213538011,0.859645375
537,1346689,315040,0.245,0.244,1.13,-177.4,335.1,341.8,5,13.5,-25.4,0.0748008667,0.449293497,-0.219672231,0.862666707
538,1348824,315040,0.075,-0.089,0.93,-279.6,236.2,428.7,5,13.5,-25.4,0.0706198309,0.442304758,-0.228736229,0.86425367
539,1351268,315050,0.682,-1.254,-0.233,-457.3,44.8,674.9,5,13.5,-25.4,0.0565202795,0.431287576,-0.255775628,0.863307596
540,1354998,315050,0.682,-1.254,-0.233,-457.3,44.8,674.9,5,13.5,-25.4,0.0565202795,0.431287576,-0.255775628,0.863307596
541,1357248,315050,0.682,-1.254,-0.233,-457.3,44.8,674.9,5,13.5,-25.4,0.0565202795,0.431287576,-0.255775628,0.863307596
542,1358753,315050,8.008,1.164,1.058,-379.7,-86.9,834.9,5.4,14.2,-24.8,0.0320139164,0.423596912,-0.287789544,0.858302561
543,1362397,315060,7.972,0.444,-2.196,-194.2,-100.4,762.6,5.4,14.2,-24.8,0.0189214759,0.420514542,-0.298501541,0.856532487
544,1364120,315060,7.979,0.491,-3.739,-194.2,-100.4,762.6,5.4,14.2,-24.8,0.0057985168,0.41727958,-0.309121982,0.854548784
545,1366291,315060,7.979,0.491,-3.739,-194.2,-100.4,762.6,5.4,14.2,-24.8,0.0057985168,0.41727958,-0.309121982,0.854548784
546,1368607,315060,2.206,2.688,-4.333,284.5,-328.5,380.3,4.1,13.5,-25.6,0.00607318339,-0.420819727,0.307290872,-0.853450117
547,1373244,315070,-2.899,7.908,-6.902,594.5,-458.4,-234.4,4.1,13.5,-25.6,0.0189214759,-0.438398389,0.285744804,-0.851893674
548,1373597,315070,-2.899,7.908,-6.902,594.5,-458.4,-234.4,4.1,13.5,-25.6,0.0230719932,-0.448072756,0.272225105,-0.851191748
549,1376289,315070,-2.899,7.908,-6.902,594.5,-458.4,-234.4,4.1,13.5,-25.6,0.0230719932,-0.448072756,0.272225105,-0.851191748
550,1380121,315070,2.001,6.442,0.056,821.1,-127.2,-521.4,2.3,10.1,-26.2,0.0221869564,-0.453016755,0.251747185,-0.854915006
551,1382208,315080,2.667,6.401,1.156,865,128.7,-476.4,2.3,10.1,-26.2,0.0211188086,-0.45271157,0.230933561,-0.860957671
552,1383702,315080,1.539,5.91,2.231,457.9,537.7,-191.8,2.3,10.1,-26.2,0.0184331797,-0.437635426,0.203070162,-0.875698111
553,1387078,315080,1.539,5.91,2.231,457.9,537.7,-191.8,2.3,10.1,-26.2,0.0184331797,-0.437635426,0.203070162,-0.875698111
554,1389677,315080,-0.448,5.374,2.469,34,626.7,-30.1,7.3,8.6,-25.5,0.0154118473,-0.425733207,0.202337718,-0.881771294
555,1391965,315090,-1.4,5.061,2.26,-396,620.9,85.7,7.3,8.6,-25.5,0.0106204413,-0.413495285,0.210943937,-0.885647145
556,1394419,315090,-1.623,2.828,2.053,-812.8,334.8,84.5,7.3,8.6,-25.5,0.00280770287,0.396130253,-0.242194891,0.885647145
557,1396143,315090,-1.623,2.828,2.053,-812.8,334.8,84.5,7.3,8.6,-25.5,0.00280770287,0.396130253,-0.242194891,0.885647145
558,1398823,315090,-0.819,1.888,1.848,-746.7,119.4,-11.2,6.2,12.6,-25,0.0101016266,0.393780328,-0.256477554,0.882625813
559,1401195,315100,-0.335,1.42,1.358,-597.9,-77.7,-125.2,6.2,12.6,-25,0.0172124393,0.395825068,-0.266914884,0.878505814
560,1404861,315100,0.055,1.004,0.874,-471.4,-223.9,-221.1,6.2,12.6,-25,0.0242316965,0.401196326,-0.274117252,0.873653371
561,1407064,315100,0.344,0.361,0.549,-428.8,-313,-276,6.2,12.6,-25,0.0313730277,0.408551286,-0.280007324,0.868129521
562,1409487,315100,0.344,0.361,0.549,-428.8,-313,-276,6.2,12.6,-25,0.0313730277,0.408551286,-0.280007324,0.868129521
563,1411269,315110,2.021,-2.344,0.346,-687.5,-341,-233.1,4.8,14.7,-25,0.0478225043,0.423780023,-0.299661245,0.85338908
564,1415207,315110,2.55,-2.886,0.169,-687.5,-341,-233.1,4.8,14.7,-25,0.0562761315,0.430890835,-0.310617389,0.845362712
565,1417162,315110,2.973,-3.763,-0.377,-797.7,-305.3,-177.8,4.8,14.7,-25,0.0649739067,0.436658834,-0.323984497,0.836695456
566,1419574,315110,2.973,-3.763,-0.377,-797.7,-305.3,-177.8,4.8,14.7,-25,0.0649739067,0.436658834,-0.323984497,0.836695456
567,1421895,315120,3.453,-7.292,-2.638,-895.2,-233.8,188.4,2.9,19.5,-23.6,0.0748619037,0.440656758,-0.35953856,0.819086276
568,1423950,315120,2.517,-7.917,-2.667,-895.2,-233.8,188.4,2.9,19.5,-23.6,0.0782189398,0.441785943,-0.377666555,0.809961241
569,1426282,315120,1.23,-7.945,-2.369,-813.9,-268.9,358.5,2.9,19.5,-23.6,0.0775170141,0.442121647,-0.395886105,0.801080355
570,1428569,315120,1.23,-7.945,-2.369,-813.9,-268.9,358.5,2.9,19.5,-23.6,0.0775170141,0.442121647,-0.395886105,0.801080355
571,1432213,315130,-0.698,-6.654,-0.953,-496.7,-323.7,602.6,3.2,21.6,-22.2,0.0689413129,0.441663869,-0.410840175,0.794579913
572,1434728,315130,-0.957,-5.394,0.129,-316.1,-260,611.8,3.2,21.6,-22.2,0.0590838343,0.440137944,-0.422559282,0.790032655
573,1436714,315130,-0.934,-2.556,1.909,-59.8,28.3,434.5,3.2,21.6,-22.2,0.0434583575,0.432416761,-0.435926389,0.788048952
574,1438643,315130,-0.934,-2.556,1.909,-59.8,28.3,434.5,3.2,21.6,-22.2,0.0434583575,0.432416761,-0.435926389,0.788048952
575,1442676,315140,0.449,-1.99,1.103,17.6,160.4,314.9,6,21.4,-22.2,0.0393993957,0.426679281,-0.438428907,0.790002136
576,1444928,315140,1.113,-1.358,0.765,85.4,235.2,219.6,6,21.4,-22.2,0.037079989,0.420575579,-0.438795129,0.793176061
577,1446902,315140,1.663,-1.345,0.609,148.6,252.1,173.2,6,21.4,-22.2,0.0351268044,0.414685507,-0.437604907,0.797051912
578,1448868,315140,2.275,-1.539,0.524,196.4,232.4,181,6,21.4,-22.2,0.0324106571,0.409039583,-0.435621204,0.801141392
579,1451207,315150,3.225,-1.55,0.056,217.4,198,222.2,6,20.3,-22.3,0.0284432508,0.403607288,-0.43366802,0.805108798
580,1455183,315150,3.411,-1.546,-0.162,213.2,159.3,263.4,6,20.3,-22.3,0.0234382153,0.39844966,-0.432111576,0.808648946
581,1457477,315150,3.539,-0.926,-0.079,203.5,116.9,280.8,6,20.3,-22.3,0.0178228095,0.393810846,-0.430890835,0.811700797
582,1459492,315150,3.536,-0.473,-0.115,205.5,67.5,268.7,6,20.3,-22.3,0.0119632557,0.390148625,-0.429517502,0.81429487
583,1462175,315160,3.536,-0.473,-0.115,205.5,67.5,268.7,6,20.3,-22.3,0.0119632557,0.390148625,-0.429517502,0.81429487
584,1463714,315160,2.954,-0.098,-0.41,245,-50.2,182.6,7.1,19.3,-22.7,0.00616473891,0.389385662,-0.426740318,0.816187017
585,1467517,315160,2.743,-0.055,-0.324,263.1,-105.5,123.5,7.1,19.3,-22.7,0.000732444227,0.390148625,-0.423108615,0.817743461
586,1469466,315160,2.296,0.144,-0.195,285.5,-144.6,62.4,7.1,19.3,-22.7,0.00411999878,-0.392162847,0.418530839,-0.819147313
587,1471326,315170,1.415,0.577,-0.156,323.2,-159.7,5.9,7.1,19.3,-22.7,0.00845362712,-0.394909513,0.412762841,-0.820703757
588,1473744,315170,1.141,0.656,-0.174,372.4,-147.9,-40.3,7.2,18.1,-23.3,0.0122684408,-0.39783929,0.405713065,-0.822748497
589,1476123,315170,0.648,0.963,0.088,416.1,-112.1,-71.3,7.2,18.1,-23.3,0.0155949583,-0.400341807,0.397564623,-0.825434126
590,1478495,315170,0.398,1.104,0.108,443,-59.2,-86.1,7.2,18.1,-23.3,0.0184026612,-0.401989807,0.388805811,-0.828760643
591,1481377,315180,0.243,1.228,0.157,455.2,1.8,-86.9,7.2,18.1,-23.3,0.0208136235,-0.402508621,0.37980285,-0.832636494
592,1484881,315180,-0.055,1.328,0.39,453.4,104.1,-67.4,6.8,16.2,-24.2,0.0227057711,-0.400952177,0.370983001,-0.837275307
593,1486777,315180,-0.02,1.273,0.499,453.4,104.1,-67.4,6.8,16.2,-24.2,0.0245979186,-0.399334696,0.362163152,-0.841853084
594,1488570,315180,-0.127,1.452,0.692,437.7,128.7,-56.5,6.8,16.2,-24.2,0.0263679922,-0.397167882,0.353679006,-0.84643086
595,1491288,315190,-0.189,1.512,0.772,410.4,133.7,-47.7,6.8,16.2,-24.2,0.0280159917,-0.394817957,0.345744194,-0.85073397
596,1493618,315190,-0.189,1.512,0.772,410.4,133.7,-47.7,6.8,16.2,-24.2,0.0280159917,-0.394817957,0.345744194,-0.85073397
597,1496195,315190,-0.337,1.523,0.896,316,106.3,-31.3,7,14.1,-24.6,0.0292977691,-0.392864772,0.339640492,-0.854029969
598,1500011,315190,-0.094,0.947,0.697,160.7,58.4,-31.1,7,14.1,-24.6,0.0306405835,-0.390362255,0.331675161,-0.858272042
599,1501884,315200,0.056,0.686,0.553,160.7,58.4,-31.1,7,14.1,-24.6,0.0310068056,-0.389385662,0.328440199,-0.85995056
600,1503503,315200,0.056,0.686,0.553,160.7,58.4,-31.1,7,14.1,-24.6,0.0310068056,-0.389385662,0.328440199,-0.85995056
601,1508154,315200,0.163,0.324,0.427,-4.3,5.1,-67.1,7,14.1,-24.6,0.0297250282,-0.389751885,0.327951903,-0.860011597
602,1510033,315200,0.182,0.191,0.407,-56.2,-9,-85.8,7,14.1,-24.6,0.0276802881,-0.390575884,0.328257088,-0.859584338
603,1512120,315210,0.311,-0.021,0.421,-80.8,0,-103.2,7,14.1,-24.6,0.022583697,-0.392284921,0.329538865,-0.858455153
604,1514398,315210,0.311,-0.021,0.421,-80.8,0,-103.2,7,14.1,-24.6,0.022583697,-0.392284921,0.329538865,-0.858455153
605,1516600,315210,0.311,-0.021,0.421,-80.8,0,-103.2,7,14.1,-24.6,0.022583697,-0.392284921,0.329538865,-0.858455153
606,1518641,315210,0.442,-0.558,0.509,-56.4,33.9,-111.5,7.4,14.1,-24.9,0.0170903653,-0.392803735,0.329905087,-0.858211005
607,1520989,315220,0.505,-0.63,0.516,-56.4,33.9,-111.5,7.4,14.1,-24.9,0.0142521439,-0.392986847,0.330027161,-0.858119449
608,1525091,315220,0.579,-0.674,0.511,-56.4,37.7,-118.1,7.4,14.1,-24.9,0.0112918485,-0.393139439,0.330088198,-0.858088931
609,1527387,315220,0.579,-0.674,0.511,-56.4,37.7,-118.1,7.4,14.1,-24.9,0.0112918485,-0.393139439,0.330088198,-0.858088931
610,1529026,315220,0.688,-0.742,0.532,-70.1,35.4,-127.7,7.5,14.7,-24.5,0.0080568865,-0.393414106,0.330301828,-0.85790582
611,1532225,315230,0.821,-0.795,0.561,-102,28.4,-118.8,7.5,14.7,-24.5,0.00143436995,-0.394085513,0.331705679,-0.857112339
612,1533638,315230,0.895,-0.804,0.568,-102,28.4,-118.8,7.5,14.7,-24.5,0.00183111057,0.394390698,-0.332590716,0.856624042
613,1537344,315230,0.895,-0.804,0.568,-102,28.4,-118.8,7.5,14.7,-24.5,0.00183111057,0.394390698,-0.332590716,0.856624042
614,1539543,315230,1.042,-1.015,0.409,-141.3,21,-94.2,6.7,15.2,-24.2,0.00497451704,0.394695883,-0.334421827,0.855769524
615,1541029,315240,1.06,-1.168,0.26,-156,17.2,-54.1,6.7,15.2,-24.2,0.0103457747,0.394940031,-0.33906064,0.853755303
616,1544163,315240,1.001,-1.167,0.253,-156,17.2,-54.1,6.7,15.2,-24.2,0.012817774,0.39497055,-0.341502121,0.852748192
617,1547552,315240,1.001,-1.167,0.253,-156,17.2,-54.1,6.7,15.2,-24.2,0.012817774,0.39497055,-0.341502121,0.852748192
618,1549645,315240,0.897,-1.001,0.302,-118.3,15.1,1.9,8.8,15.6,-23.8,0.0139164403,0.394634846,-0.343699454,0.851985229
619,1552161,315250,0.885,-0.868,0.329,-85.5,8.4,31.6,8.8,15.6,-23.8,0.0141300699,0.394207587,-0.345561083,0.851435896
620,1553946,315250,0.793,-0.6,0.342,-28.9,-16.9,80.8,8.8,15.6,-23.8,0.0120853298,0.393505661,-0.348307749,0.850672933
621,1557001,315250,0.793,-0.6,0.342,-28.9,-16.9,80.8,8.8,15.6,-23.8,0.0120853298,0.393505661,-0.348307749,0.850672933
622,1560219,315250,0.778,-0.459,0.37,-15.4,-27.4,97.3,8.4,15.3,-23.9,0.0102237007,0.393292032,-0.349436934,0.85033723
623,1562197,315260,0.766,-0.412,0.382,-12.7,-31.5,108.5,8.4,15.3,-23.9,0.0080568865,0.393017365,-0.350596637,0.850001526
624,1563718,315260,0.766,-0.365,0.393,-27.4,-18.1,122.7,8.4,15.3,-23.9,0.00366222114,0.392040773,-0.353495895,0.849269082
625,1567155,315260,0.766,-0.365,0.393,-27.4,-18.1,122.7,8.4,15.3,-23.9,0.00366222114,0.392040773,-0.353495895,0.849269082
626,1568498,315260,0.766,-0.365,0.393,-27.4,-18.1,122.7,8.4,15.3,-23.9,0.00366222114,0.392040773,-0.353495895,0.849269082
627,1572008,315270,0.732,-0.259,0.464,-50.6,25.6,142.7,8.6,15.7,-23.6,0.000366222114,-0.389202551,0.357646413,-0.848841823
628,1573704,315270,0.748,-0.228,0.48,-50.6,25.6,142.7,8.6,15.7,-23.6,0.00238044374,-0.387615589,0.359813227,-0.848628193
629,1576949,315270,0.771,-0.216,0.522,-52.9,38.6,147.6,8.6,15.7,-23.6,0.00436414686,-0.385723441,0.362041078,-0.848567156
630,1579101,315270,0.771,-0.216,0.522,-52.9,38.6,147.6,8.6,15.7,-23.6,0.00436414686,-0.385723441,0.362041078,-0.848567156
631,1582145,315280,0.885,-0.241,0.606,-56.2,54.5,147.9,8.8,16.1,-23.6,0.00619525742,-0.383556627,0.364329966,-0.848567156
632,1583750,315280,1.034,-0.353,0.666,-58.6,59.1,129.3,8.8,16.1,-23.6,0.00927762688,-0.379253517,0.36875515,-0.848567156
633,1586168,315280,1.072,-0.377,0.666,-58.6,59.1,129.3,8.8,16.1,-23.6,0.0107119968,-0.377117222,0.370921964,-0.848536637
634,1589980,315280,1.072,-0.377,0.666,-58.6,59.1,129.3,8.8,16.1,-23.6,0.0107119968,-0.377117222,0.370921964,-0.848536637
635,1592414,315290,1.088,-0.397,0.607,-42.8,58.3,97.6,8.2,15.7,-23.8,0.0117191076,-0.375255593,0.372539445,-0.848628193
636,1594492,315290,1.076,-0.381,0.583,-26,57.6,82.8,8.2,15.7,-23.8,0.0125431074,-0.373516037,0.373699149,-0.848872341
637,1596714,315290,1.099,-0.429,0.481,-7.2,57.2,69.8,8.2,15.7,-23.8,0.0140995514,-0.370281075,0.375133518,-0.849665822
638,1598871,315290,1.099,-0.429,0.481,-7.2,57.2,69.8,8.2,15.7,-23.8,0.0140995514,-0.370281075,0.375133518,-0.849665822
639,1601128,315300,1.129,-0.461,0.383,24.6,55.9,46.3,9.1,15.6,-23.1,0.0146794031,-0.368846706,0.375072481,-0.850306711
640,1604973,315300,1.164,-0.431,0.363,36.6,54.7,34.2,9.1,15.6,-23.1,0.0151676992,-0.36753441,0.374706259,-0.851008637
641,1607416,315300,1.243,-0.307,0.31,53,53.7,11.1,9.1,15.6,-23.1,0.0157170324,-0.365245521,0.373149815,-0.852687155
642,1609090,315300,1.243,-0.307,0.31,53,53.7,11.1,9.1,15.6,-23.1,0.0157170324,-0.365245521,0.373149815,-0.852687155
643,1612286,315310,1.227,-0.303,0.287,55.1,55,1.3,9.6,15.2,-22.9,0.0157475509,-0.364177374,0.372142705,-0.853572192
644,1613777,315310,1.235,-0.296,0.271,52.9,57.4,-7.3,9.6,15.2,-22.9,0.0155644398,-0.363139744,0.371135594,-0.854457228
645,1616139,315310,1.231,-0.268,0.291,49,60.2,-15.5,9.6,15.2,-22.9,0.0151676992,-0.362132633,0.370097964,-0.855342265
646,1618524,315310,1.172,-0.326,0.292,47.2,62.7,-22.8,9.6,15.2,-22.9,0.0145878475,-0.361125523,0.369060335,-0.856227302
647,1621089,315320,1.172,-0.326,0.292,47.2,62.7,-22.8,9.6,15.2,-22.9,0.0145878475,-0.361125523,0.369060335,-0.856227302
648,1624437,315320,1.134,-0.246,0.394,61.9,65,-34.1,9.7,15.3,-22.8,0.0139164403,-0.360179449,0.367656484,-0.857234413
649,1627518,315320,1.037,-0.178,0.545,95.1,64.8,-38.2,9.7,15.3,-22.8,0.0128482925,-0.358287301,0.363872188,-0.859645375
650,1629945,315320,1.042,-0.06,0.615,95.1,64.8,-38.2,9.7,15.3,-22.8,0.0123599963,-0.357341227,0.36179693,-0.860927152
651,1631859,315330,1.042,-0.06,0.615,95.1,64.8,-38.2,9.7,15.3,-22.8,0.0123599963,-0.357341227,0.36179693,-0.860927152
652,1633509,315330,1.063,0.189,0.696,118.7,66,-38.3,9.9,14.6,-23.2,0.0120242927,-0.356364635,0.359294412,-0.862392041
653,1636755,315330,1.032,0.236,0.689,116.3,67.8,-39.2,9.9,14.6,-23.2,0.0116580706,-0.355388043,0.356822413,-0.863826411
654,1639778,315330,0.985,0.335,0.658,100.3,70.3,-42,9.9,14.6,-23.2,0.0105288858,-0.353312784,0.352397229,-0.866481521
655,1641128,315340,0.985,0.335,0.658,100.3,70.3,-42,9.9,14.6,-23.2,0.0105288858,-0.353312784,0.352397229,-0.866481521
656,1644273,315340,0.929,0.183,0.55,39,74.1,-61.2,9.8,14.6,-23.4,0.00912503433,-0.352397229,0.351207007,-0.867366558
657,1646496,315340,0.921,0.136,0.523,-14.1,68.6,-91.5,9.8,14.6,-23.4,0.00479140599,-0.350993377,0.350047304,-0.868434706
658,1649550,315340,0.913,0.109,0.503,-14.1,68.6,-91.5,9.8,14.6,-23.4,0.00244148076,-0.350383007,0.349620045,-0.868861965
659,1651931,315350,0.913,0.109,0.503,-14.1,68.6,-91.5,9.8,14.6,-23.4,0.00244148076,-0.350383007,0.349620045,-0.868861965
660,1653866,315350,0.92,0.026,0.464,-29.3,56.6,-109.5,10.2,14.6,-22.7,0.000274666585,0.350138859,-0.349345378,0.869075594
661,1656195,315350,0.912,0.003,0.441,-30,53.1,-114,10.2,14.6,-22.7,0.00308236946,0.350016785,-0.349040193,0.869258705
662,1658511,315350,0.912,-0.094,0.394,-31.4,51.8,-117.3,10.2,14.6,-22.7,0.00878933073,0.349833674,-0.348429823,0.869533372
663,1661312,315360,0.912,-0.094,0.394,-31.4,51.8,-117.3,10.2,14.6,-22.7,0.00878933073,0.349833674,-0.348429823,0.869533372
664,1664556,315360,0.903,-0.184,0.332,-41.9,51.5,-123.7,10.1,14.9,-21.9,0.0118411817,0.349772637,-0.34827723,0.869594409
665,1666045,315360,0.903,-0.184,0.332,-41.9,51.5,-123.7,10.1,14.9,-21.9,0.0118411817,0.349772637,-0.34827723,0.869594409
666,1669870,315360,0.891,-0.259,0.269,-59,49,-130.7,10.1,14.9,-21.9,0.0216071047,0.349833674,-0.348460341,0.869289224
667,1672389,315370,0.891,-0.259,0.269,-59,49,-130.7,10.1,14.9,-21.9,0.0216071047,0.349833674,-0.348460341,0.869289224
668,1674423,315370,0.883,-0.282,0.223,-73.3,45.5,-136.8,10.2,15.6,-20.9,0.0251472518,0.349986267,-0.348765526,0.869014557
669,1676070,315370,0.863,-0.278,0.215,-78.4,43.8,-139.4,10.2,15.6,-20.9,0.0286873989,0.350169378,-0.349162267,0.868678854
670,1679987,315370,0.84,-0.274,0.212,-82.4,42.3,-141.7,10.2,15.6,-20.9,0.03234962,0.350383007,-0.349620045,0.868282113
671,1681856,315380,0.824,-0.266,0.208,-86,40.9,-143.9,10.2,15.6,-20.9,0.0360423597,0.350657674,-0.350077822,0.867824335
672,1683533,315380,0.711,-0.315,0.195,-89.7,39.8,-146,10,16.2,-20.7,0.0398266549,0.35093234,-0.350657674,0.867305521
673,1686386,315380,0.695,-0.318,0.195,-94.1,38.6,-148.5,10,16.2,-20.7,0.0436414686,0.351268044,-0.351268044,0.866756188
674,1688762,315380,0.664,-0.322,0.199,-98.8,36.5,-151.6,10,16.2,-20.7,0.0475478378,0.351634266,-0.351939451,0.866145817
675,1691103,315390,0.652,-0.317,0.207,-103.6,32.9,-155.3,10,16.2,-20.7,0.051515244,0.352092044,-0.352671896,0.865413373
676,1694825,315390,0.652,-0.317,0.207,-103.6,32.9,-155.3,10,16.2,-20.7,0.051515244,0.352092044,-0.352671896,0.865413373
677,1697825,315390,0.542,-0.366,0.178,-113.7,22,-163.6,10.1,16.9,-24.4,0.059724723,0.353373821,-0.354319895,0.863704337
678,1699928,315390,0.535,-0.355,0.178,-118.7,16,-168,10.1,16.9,-24.4,0.0639362774,0.354228339,-0.35523545,0.862666707
679,1702165,315400,0.551,-0.32,0.19,-122.5,10.1,-172.7,10.1,16.9,-24.4,0.0682088687,0.355174413,-0.356181524,0.861568041
680,1704668,315400,0.551,-0.32,0.19,-122.5,10.1,-172.7,10.1,16.9,-24.4,0.0682088687,0.355174413,-0.356181524,0.861568041
681,1706199,315400,0.523,-0.276,0.194,-127.3,-0.1,-181.6,9.9,17.5,-21.8,0.0769371624,0.35749382,-0.358134709,0.859065523
682,1708694,315400,0.523,-0.276,0.194,-129.3,-4,-184.4,9.9,17.5,-21.8,0.0813928648,0.358806116,-0.359111301,0.85769219
683,1712414,315410,0.512,-0.252,0.222,-130.9,-7.4,-186.4,9.9,17.5,-21.8,0.0858180486,0.36014893,-0.360118412,0.85625782
684,1714523,315410,0.512,-0.252,0.222,-130.9,-7.4,-186.4,9.9,17.5,-21.8,0.0858180486,0.36014893,-0.360118412,0.85625782
685,1716889,315410,0.547,-0.207,0.127,-133.5,-17,-187.9,9.9,18.4,-21.8,0.0946989349,0.363139744,-0.362163152,0.853205969
686,1718585,315410,0.547,-0.207,0.127,-135.4,-23.9,-188.2,9.9,18.4,-21.8,0.0990936003,0.364787744,-0.3632313,0.85155797
687,1721192,315420,0.574,-0.199,0.138,-138.1,-30.5,-188.9,9.9,18.4,-21.8,0.103457747,0.366527299,-0.364360485,0.849787896
688,1723769,315420,0.574,-0.199,0.138,-138.1,-30.5,-188.9,9.9,18.4,-21.8,0.103457747,0.366527299,-0.364360485,0.849787896
689,1727696,315420,0.652,-0.22,0.094,-145.9,-37.9,-192.7,9.2,19.6,-21.6,0.10791345,0.368449965,-0.365611744,0.84786523
690,1730127,315420,0.632,-0.228,0.09,-149.1,-38.4,-194.5,9.2,19.6,-21.6,0.11239967,0.370342112,-0.366893521,0.845912046
691,1732680,315430,0.73,-0.147,0.096,-150.1,-37.5,-196.1,9.2,19.6,-21.6,0.11691641,0.37223426,-0.36814478,0.843897824
692,1734646,315430,0.793,-0.117,0.087,-149.6,-36.3,-197.1,9.2,19.6,-21.6,0.121463668,0.374095889,-0.369396039,0.841883602
693,1737552,315430,0.855,-0.157,0.062,-149.9,-34.5,-197.3,8.8,20.2,-21.2,0.126041444,0.375927,-0.370616779,0.839869381
694,1739786,315430,0.894,-0.193,0.05,-153.2,-31.7,-196.9,8.8,20.2,-21.2,0.130649739,0.377666555,-0.371898556,0.837824641
695,1741152,315440,0.964,-0.238,0.021,-158.7,-27.7,-197.3,8.8,20.2,-21.2,0.13534959,0.379314554,-0.373241371,0.835718863
696,1744565,315440,1.038,-0.262,0.008,-164.1,-23.3,-199.9,8.8,20.2,-21.2,0.140140996,0.380870998,-0.374645222,0.833582568
697,1746093,315440,1.096,-0.306,0.019,-167,-19.4,-204,7,22.2,-21.1,0.145084994,0.382396924,-0.376049074,0.831415754
698,1748629,315440,1.163,-0.327,0.026,-167.2,-16.3,-208.4,7,22.2,-21.1,0.150120548,0.383861812,-0.377391888,0.829248939
699,1752360,315450,1.233,-0.324,0.04,-165.6,-14.3,-211.7,7,22.2,-21.1,0.155217139,0.385326701,-0.378643147,0.827051607
700,1754630,315450,1.28,-0.341,0.047,-163.3,-13.2,-213.6,7,22.2,-21.1,0.160344249,0.386761071,-0.379833369,0.824854274
701,1756686,315450,1.3,-0.348,0.09,-162,-12.5,-214.1,7,23.2,-21,0.16544084,0.388195441,-0.380993072,0.822626423
702,1759963,315450,1.358,-0.369,0.081,-162.7,-11.2,-213.5,7,23.2,-21,0.170567949,0.389568773,-0.382122257,0.820398572
703,1762662,315460,1.378,-0.385,0.077,-165.8,-9.2,-212.2,7,23.2,-21,0.175695059,0.390881069,-0.383281961,0.818140202
704,1764448,315460,1.382,-0.397,0.088,-170.8,-6.1,-210.4,7,23.2,-21,0.180852687,0.392071291,-0.384594256,0.815851314
705,1765966,315460,1.28,-0.485,0.055,-176.7,-1.6,-208.3,5.8,23.8,-20.9,0.186071352,0.393169958,-0.385967589,0.81347087
706,1768649,315460,1.205,-0.535,0.041,-181.8,5.1,-205.4,5.8,23.8,-20.9,0.191290017,0.394054994,-0.387401959,0.811181982
707,1772641,315470,1.15,-0.577,0.022,-184.3,13.4,-201.2,5.8,23.8,-20.9,0.19656972,0.394726402,-0.388866848,0.808862575
708,1774201,315470,1.092,-0.591,0.027,-182.3,21.8,-195.6,5.8,23.8,-20.9,0.201757866,0.395214698,-0.390301218,0.806665242
709,1776889,315470,1.092,-0.591,0.027,-182.3,21.8,-195.6,5.8,23.8,-20.9,0.201757866,0.395214698,-0.390301218,0.806665242
710,1778742,315470,1.022,-0.563,0.068,-164.2,33.6,-183.7,5.8,25,-19.9,0.206701865,0.395458846,-0.391460921,0.804742576
711,1782451,315480,0.983,-0.511,0.115,-152.7,37.3,-180.3,5.8,25,-19.9,0.216284677,0.395825068,-0.393353069,0.801110874
712,1784059,315480,0.995,-0.488,0.127,-143.8,40.2,-179.7,5.8,25,-19.9,0.221015046,0.39597766,-0.394116031,0.7993408
713,1787582,315480,0.995,-0.488,0.127,-143.8,40.2,-179.7,5.8,25,-19.9,0.221015046,0.39597766,-0.394116031,0.7993408
714,1789509,315480,1.038,-0.484,0.169,-140,44.1,-183.9,5.8,25,-19.9,0.225806452,0.396130253,-0.39475692,0.797631764
715,1791903,315490,1.069,-0.504,0.192,-144.9,44.3,-185.5,5.8,25,-19.9,0.230689413,0.396221809,-0.395428327,0.795831172
716,1794433,315490,1.085,-0.532,0.231,-152.2,42.8,-184.9,5.8,25,-19.9,0.240424818,0.39640492,-0.396923734,0.792107913
717,1796167,315490,1.085,-0.532,0.231,-152.2,42.8,-184.9,5.8,25,-19.9,0.240424818,0.39640492,-0.396923734,0.792107913
718,1798485,315490,1.07,-0.582,0.263,-168,35.7,-178.5,4.7,26.5,-19,0.245277261,0.396435438,-0.398113956,0.790032655
719,1801570,315500,1.07,-0.594,0.271,-174.5,31.3,-175.4,4.7,26.5,-19,0.250068667,0.396465957,-0.399426252,0.787835322
720,1804809,315500,1.128,-0.598,0.305,-179.2,27.3,-174,4.7,26.5,-19,0.25962096,0.396557512,-0.402142399,0.783288064
721,1806896,315500,1.128,-0.598,0.305,-179.2,27.3,-174,4.7,26.5,-19,0.25962096,0.396557512,-0.402142399,0.783288064
722,1809432,315500,1.21,-0.6,0.327,-182.6,22.9,-176.7,4.5,26.8,-18.3,0.264412366,0.396679586,-0.403576769,0.780877102
723,1811281,315510,1.253,-0.593,0.326,-182.4,23.8,-178.6,4.5,26.8,-18.3,0.269264809,0.39680166,-0.405011139,0.778435621
724,1813673,315510,1.292,-0.586,0.313,-182.2,27.1,-179.7,4.5,26.8,-18.3,0.278939177,0.396923734,-0.407788324,0.773522141
725,1815982,315510,1.292,-0.586,0.313,-182.2,27.1,-179.7,4.5,26.8,-18.3,0.278939177,0.396923734,-0.407788324,0.773522141
726,1819784,315510,1.32,-0.606,0.289,-182.9,39.7,-177.9,3.6,26.8,-18,0.283852657,0.396710105,-0.409070101,0.771141697
727,1821370,315520,1.331,-0.61,0.281,-183.3,46.8,-174.6,3.6,26.8,-18,0.288796655,0.396343883,-0.410351878,0.768791772
728,1823783,315520,1.327,-0.602,0.27,-183.3,46.8,-174.6,3.6,26.8,-18,0.293740654,0.395947142,-0.411603137,0.766441847
729,1827555,315520,1.331,-0.614,0.242,-183.1,52.7,-169.6,3.6,26.8,-18,0.298623615,0.395428327,-0.412854396,0.764152959
730,1829659,315520,1.331,-0.614,0.242,-183.1,52.7,-169.6,3.6,26.8,-18,0.298623615,0.395428327,-0.412854396,0.764152959
731,1831651,315530,1.311,-0.63,0.172,-181,61.4,-153.2,3.5,27.7,-16.6,0.308023316,0.393810846,-0.415417951,0.759880367
732,1834939,315530,1.311,-0.634,0.153,-181,62,-149.8,3.5,27.7,-16.6,0.312601093,0.39292581,-0.416699728,0.757744072
733,1837659,315530,1.303,-0.618,0.133,-181,62.3,-147.5,3.5,27.7,-16.6,0.317178869,0.391979736,-0.418012024,0.755607776
734,1839983,315530,1.303,-0.618,0.133,-181,62.3,-147.5,3.5,27.7,-16.6,0.317178869,0.391979736,-0.418012024,0.755607776
735,1842804,315540,1.264,-0.598,0.11,-179,63.1,-142.4,2.8,30.5,-14.2,0.326120792,0.390026551,-0.420575579,0.751396222
736,1845469,315540,1.225,-0.601,0.107,-176.1,64.5,-138.2,2.8,30.5,-14.2,0.330484939,0.388988922,-0.421826838,0.749320963
737,1847771,315540,1.186,-0.604,0.096,-172.1,66.6,-132.8,2.8,30.5,-14.2,0.334727012,0.387859737,-0.42301706,0.74733726
738,1849911,315540,1.186,-0.604,0.096,-172.1,66.6,-132.8,2.8,30.5,-14.2,0.334727012,0.387859737,-0.42301706,0.74733726
739,1852547,315550,1.044,-0.677,0.025,-162.1,72.9,-122.2,2.5,30,-16,0.342875454,0.385418256,-0.425214393,0.74364452
740,1854849,315550,1.001,-0.699,0.006,-156.3,76.5,-119,2.5,30,-16,0.346812342,0.38410596,-0.426190985,0.741935484
741,1857599,315550,1.001,-0.699,0.006,-150.1,79.8,-118.1,2.5,30,-16,0.350718711,0.382793664,-0.427014985,0.740318003
742,1859547,315550,1.001,-0.699,0.006,-150.1,79.8,-118.1,2.5,30,-16,0.350718711,0.382793664,-0.427014985,0.740318003
743,1861342,315560,0.927,-0.777,-0.031,-143.1,82.5,-119.3,2.1,30,-15.6,0.35462508,0.38145085,-0.427686392,0.738761559
744,1864321,315560,0.887,-0.811,-0.065,-128.1,84.6,-127,2.1,30,-15.6,0.3624073,0.379009369,-0.42854091,0.735740226
745,1866235,315560,0.875,-0.827,-0.077,-120.2,83.2,-131.6,2.1,30,-15.6,0.366283151,0.377941221,-0.428724021,0.734244819
746,1869545,315560,0.875,-0.827,-0.077,-120.2,83.2,-131.6,2.1,30,-15.6,0.366283151,0.377941221,-0.428724021,0.734244819
747,1871857,315570,0.825,-0.865,-0.076,-105.1,75.3,-139.3,1.7,31,-14.9,0.370097964,0.377208777,-0.428662984,0.732749413
748,1873898,315570,0.809,-0.884,-0.083,-105.1,75.3,-139.3,1.7,31,-14.9,0.37388226,0.376445814,-0.428571429,0.731284524
749,1876142,315570,0.801,-0.892,-0.067,-98,69.7,-141.5,1.7,31,-14.9,0.377605518,0.375865963,-0.428418836,0.729758599
750,1879666,315570,0.782,-0.891,-0.044,-90.8,63.4,-142.7,1.7,31,-14.9,0.381206702,0.375438704,-0.428174688,0.728263192
751,1882134,315580,0.782,-0.891,-0.044,-90.8,63.4,-142.7,1.7,31,-14.9,0.381206702,0.375438704,-0.428174688,0.728263192
752,1884109,315580,0.77,-0.848,0.003,-76.4,49.9,-142.6,1.1,31,-14.8,0.384563738,0.37531663,-0.427777947,0.726767785
753,1886210,315580,0.79,-0.801,0.033,-64.9,36.9,-138.1,1.1,31,-14.8,0.390820032,0.375530259,-0.426953948,0.723807489
754,1888491,315580,0.806,-0.739,0.064,-62,31.8,-134,1.1,31,-14.8,0.393749809,0.375743889,-0.426557207,0.722342601
755,1891618,315590,0.806,-0.739,0.064,-62,31.8,-134,1.1,31,-14.8,0.393749809,0.375743889,-0.426557207,0.722342601
756,1893604,315590,0.822,-0.712,0.072,-62.8,26,-123.5,0.8,32.1,-13.1,0.396465957,0.375927,-0.426313059,0.720908231
757,1896762,315590,0.83,-0.684,0.079,-62.8,26,-123.5,0.8,32.1,-13.1,0.399151585,0.376140629,-0.426068911,0.719443342
758,1899056,315590,0.881,-0.619,0.106,-69.3,24.7,-113.4,0.8,32.1,-13.1,0.404370251,0.37632374,-0.425855281,0.716574602
759,1902102,315600,0.881,-0.619,0.106,-69.3,24.7,-113.4,0.8,32.1,-13.1,0.404370251,0.37632374,-0.425855281,0.716574602
760,1904195,315600,0.897,-0.58,0.121,-76.7,24.3,-106.1,0.6,32.2,-13.1,0.406872768,0.376232185,-0.425946837,0.715109714
761,1906301,315600,0.901,-0.56,0.133,-79.6,24,-103,0.6,32.2,-13.1,0.409344768,0.376110111,-0.426129948,0.713675344
762,1908987,315600,0.897,-0.545,0.137,-79.6,24,-103,0.6,32.2,-13.1,0.411847285,0.375988037,-0.426313059,0.712179937
763,1911680,315610,0.893,-0.525,0.141,-82,23.5,-99.9,0.6,32.2,-13.1,0.414288766,0.375804926,-0.426557207,0.710715049
764,1915041,315610,0.886,-0.517,0.145,-86.4,22.6,-93.9,0,32.8,-13,0.416638691,0.375560778,-0.426923429,0.70925016
765,1916591,315610,0.882,-0.509,0.153,-88.3,22.3,-91.3,0,32.8,-13,0.418988617,0.375255593,-0.42732017,0.707785272
766,1920455,315610,0.866,-0.509,0.161,-89.6,22,-88.9,0,32.8,-13,0.421308023,0.374919889,-0.427777947,0.706320383
767,1922354,315620,0.854,-0.52,0.157,-89.6,22,-88.9,0,32.8,-13,0.42362743,0.374584185,-0.428205206,0.704824976
768,1924381,315620,0.827,-0.512,0.169,-90.3,21.2,-84.5,-0.2,33.2,-12.4,0.425855281,0.374217963,-0.428724021,0.703390606
769,1926094,315620,0.811,-0.504,0.17,-90,20.7,-82.4,-0.2,33.2,-12.4,0.428052614,0.373821223,-0.429242836,0.701925718
770,1929506,315620,0.8,-0.504,0.166,-89.6,20.1,-80.4,-0.2,33.2,-12.4,0.430158391,0.373424482,-0.42976165,0.700521867
771,1931605,315630,0.765,-0.503,0.151,-89,19.5,-78.5,-0.2,33.2,-12.4,0.432294687,0.373027741,-0.430310984,0.699087497
772,1934791,315630,0.765,-0.503,0.151,-89,19.5,-78.5,-0.2,33.2,-12.4,0.432294687,0.373027741,-0.430310984,0.699087497
773,1937058,315630,0.765,-0.503,0.151,-89,19.5,-78.5,-0.2,33.2,-12.4,0.432294687,0.373027741,-0.430310984,0.699087497
774,1939479,315630,0.721,-0.518,0.14,-88.3,17.5,-74.1,-0.5,32.8,-11.8,0.435316019,0.371562853,-0.432813501,0.696432386
775,1941672,315640,0.702,-0.518,0.136,-87.8,16.3,-73.4,-0.5,32.8,-11.8,0.437299722,0.371196631,-0.433423872,0.695028535
776,1943620,315640,0.698,-0.518,0.136,-87,14.6,-72.9,-0.5,32.8,-11.8,0.439252907,0.370830409,-0.434003723,0.693624683
777,1947010,315640,0.698,-0.518,0.136,-87,14.6,-72.9,-0.5,32.8,-11.8,0.439252907,0.370830409,-0.434003723,0.693624683
778,1949250,315640,0.69,-0.518,0.141,-85.9,12.6,-72.8,-1.8,33.1,-11.1,0.441145054,0.370494705,-0.434583575,0.692220832
779,1952494,315650,0.718,-0.522,0.156,-83,7.2,-73.4,-1.8,33.1,-11.1,0.444868313,0.370006409,-0.435773797,0.689352092
780,1955062,315650,0.729,-0.522,0.163,-81.7,4.6,-73.9,-1.8,33.1,-11.1,0.446699423,0.369853816,-0.436353648,0.687887204
781,1957031,315650,0.729,-0.522,0.163,-81.7,4.6,-73.9,-1.8,33.1,-11.1,0.446699423,0.369853816,-0.436353648,0.687887204
782,1959205,315650,0.733,-0.514,0.175,-80.5,2.4,-74.3,-2.1,33.3,-10.7,0.448500015,0.369731742,-0.4369335,0.686422315
783,1960993,315660,0.73,-0.514,0.183,-79.5,0.7,-74.4,-2.1,33.3,-10.7,0.45023957,0.369670705,-0.437513352,0.684957427
784,1965101,315660,0.734,-0.491,0.187,-77.5,-1.3,-73.6,-2.1,33.3,-10.7,0.453688162,0.369548631,-0.438673055,0.681966613
785,1966707,315660,0.734,-0.491,0.187,-77.5,-1.3,-73.6,-2.1,33.3,-10.7,0.453688162,0.369548631,-0.438673055,0.681966613
786,1968489,315660,0.745,-0.467,0.206,-76.2,-3.4,-71.2,-3.2,33.6,-11.1,0.455336161,0.369548631,-0.439252907,0.680501724
787,1971278,315670,0.757,-0.468,0.206,-76.2,-3.4,-71.2,-3.2,33.6,-11.1,0.456984161,0.369518113,-0.439863277,0.679036836
788,1973635,315670,0.761,-0.448,0.213,-76.3,-5,-69.8,-3.2,33.6,-11.1,0.458571123,0.369487594,-0.440473647,0.677571947
789,1977459,315670,0.769,-0.44,0.209,-76.7,-6.6,-68,-3.2,33.6,-11.1,0.460127567,0.369487594,-0.441114536,0.676107059
790,1978990,315670,0.773,-0.413,0.213,-77.2,-8.3,-63.5,-3.8,33.4,-10.4,0.461622974,0.369426557,-0.44184698,0.67464217
791,1982246,315680,0.777,-0.402,0.201,-77,-8.5,-60.9,-3.8,33.4,-10.4,0.463057344,0.36936552,-0.442548906,0.673207801
792,1984400,315680,0.789,-0.386,0.205,-76.7,-8.5,-58.4,-3.8,33.4,-10.4,0.464430677,0.369273965,-0.443311869,0.671834468
793,1986654,315680,0.793,-0.382,0.201,-76.7,-8.5,-58.4,-3.8,33.4,-10.4,0.465834529,0.369212928,-0.444044313,0.670430616
794,1988862,315680,0.793,-0.382,0.201,-76.7,-8.5,-58.4,-3.8,33.4,-10.4,0.465834529,0.369212928,-0.444044313,0.670430616
795,1991332,315690,0.793,-0.382,0.201,-76.7,-8.5,-58.4,-3.8,33.4,-10.4,0.465834529,0.369212928,-0.444044313,0.670430616
796,1995033,315690,0.824,-0.34,0.193,-77,-9.3,-51.7,-2.2,33,-9.7,0.467604602,0.368449965,-0.446699423,0.667836543
797,1997664,315690,0.828,-0.34,0.2,-77.3,-9.7,-50.7,-2.2,33,-9.7,0.46888638,0.368297372,-0.447523423,0.66646321
798,1999593,315690,0.828,-0.344,0.196,-77.5,-10.2,-49.7,-2.2,33,-9.7,0.470137638,0.36814478,-0.448347423,0.665120396
799,2001977,315700,0.828,-0.344,0.196,-77.5,-10.2,-49.7,-2.2,33,-9.7,0.470137638,0.36814478,-0.448347423,0.665120396
800,2004496,315700,0.82,-0.344,0.204,-77.7,-10.5,-48.6,-3.8,34.3,-9.5,0.471358379,0.367961669,-0.449171422,0.663777581
801,2006245,315700,0.801,-0.355,0.216,-78.6,-11.2,-46.4,-3.8,34.3,-9.5,0.473738823,0.367595447,-0.450910978,0.661091952
802,2009443,315700,0.801,-0.367,0.22,-79.6,-11.7,-45.1,-3.8,34.3,-9.5,0.474929044,0.367381817,-0.451826533,0.659749138
803,2011714,315710,0.801,-0.367,0.22,-79.6,-11.7,-45.1,-3.8,34.3,-9.5,0.474929044,0.367381817,-0.451826533,0.659749138
804,2013534,315710,0.797,-0.374,0.22,-80.8,-12.4,-43.6,-4.4,34.8,-9.3,0.476088748,0.367168188,-0.452772607,0.658406323
805,2017167,315710,0.804,-0.386,0.228,-82.3,-13.1,-41.5,-4.4,34.8,-9.3,0.477217933,0.366893521,-0.453749199,0.657032991
806,2018589,315710,0.808,-0.402,0.224,-83.9,-13.7,-38.9,-4.4,34.8,-9.3,0.478286081,0.366618854,-0.454786828,0.655690176
807,2022422,315720,0.816,-0.414,0.232,-85.5,-13.9,-35.9,-4.4,34.8,-9.3,0.479354228,0.366283151,-0.455885495,0.654347362
808,2024172,315720,0.824,-0.445,0.232,-88.9,-13,-30.3,-4.5,35,-9,0.480361339,0.365825373,-0.457045198,0.653035066
809,2027197,315720,0.828,-0.473,0.228,-88.9,-13,-30.3,-4.5,35,-9,0.48136845,0.365398114,-0.458204901,0.651753288
810,2029413,315720,0.831,-0.508,0.22,-90.2,-12.4,-27.8,-4.5,35,-9,0.482375561,0.364879299,-0.459395123,0.650440992
811,2032540,315730,0.823,-0.523,0.224,-90.8,-11.8,-25.5,-4.5,35,-9,0.483321635,0.364360485,-0.460585345,0.649159215
812,2034286,315730,0.796,-0.535,0.233,-87.7,-11.9,-21.4,-4.7,35.1,-8.4,0.484206671,0.363811151,-0.461806085,0.647968993
813,2036518,315730,0.796,-0.535,0.24,-83.9,-13,-19.9,-4.7,35.1,-8.4,0.485030671,0.363322855,-0.462965789,0.64680929
814,2038643,315730,0.804,-0.535,0.24,-83.9,-13,-19.9,-4.7,35.1,-8.4,0.485854671,0.362804041,-0.464125492,0.645649586
815,2042438,315740,0.824,-0.539,0.256,-79.3,-15,-18.9,-4.7,35.1,-8.4,0.486587115,0.362376782,-0.465254677,0.644520402
816,2044188,315740,0.824,-0.539,0.256,-79.3,-15,-18.9,-4.7,35.1,-8.4,0.486587115,0.362376782,-0.465254677,0.644520402
817,2046964,315740,0.836,-0.511,0.31,-65.3,-22.4,-16,-3,34.4,-7.9,0.486404004,0.361400189,-0.467055269,0.643879513
818,2049761,315740,0.867,-0.516,0.337,-62.3,-23.9,-15,-3,34.4,-7.9,0.486861782,0.361217078,-0.46806238,0.642902921
819,2052074,315750,0.879,-0.504,0.348,-60.9,-24.5,-14.1,-3,34.4,-7.9,0.487289041,0.361064486,-0.469069491,0.641956847
820,2054229,315750,0.883,-0.489,0.364,-61.1,-24.5,-13.1,-3,34.4,-7.9,0.487685781,0.360881375,-0.47010712,0.640980255
821,2056986,315750,0.883,-0.489,0.364,-61.1,-24.5,-13.1,-3,34.4,-7.9,0.487685781,0.360881375,-0.47010712,0.640980255
822,2059731,315750,0.899,-0.481,0.356,-62.7,-23.6,-12.2,-4.4,34.6,-7.4,0.488113041,0.360698263,-0.471114231,0.640034181
823,2061047,315760,0.906,-0.497,0.34,-66.3,-20.3,-11,-4.4,34.6,-7.4,0.489028596,0.360118412,-0.473220008,0.638080996
824,2064534,315760,0.906,-0.497,0.34,-66.5,-18.5,-10.6,-4.4,34.6,-7.4,0.489516892,0.359782708,-0.474257637,0.637134922
825,2066841,315760,0.906,-0.497,0.34,-66.5,-18.5,-10.6,-4.4,34.6,-7.4,0.489516892,0.359782708,-0.474257637,0.637134922
826,2069091,315760,0.914,-0.505,0.336,-65,-17.1,-10.1,-3.8,35.2,-7.2,0.48997467,0.359416486,-0.475264748,0.636219367
827,2071129,315770,0.914,-0.505,0.328,-62.2,-16.2,-9.6,-3.8,35.2,-7.2,0.490432447,0.359080782,-0.47624134,0.635364849
828,2074236,315770,0.914,-0.505,0.332,-58.6,-16,-8.7,-3.8,35.2,-7.2,0.490859706,0.358775597,-0.477156896,0.634510331
829,2077353,315770,0.91,-0.497,0.332,-55.1,-16.4,-7.7,-3.8,35.2,-7.2,0.491225929,0.358470412,-0.478041932,0.633747368
830,2079571,315770,0.91,-0.509,0.328,-52.3,-17.2,-6.4,-4.5,34.8,-6.7,0.491531114,0.358226264,-0.478896451,0.632984405
831,2081640,315780,0.914,-0.505,0.328,-49.9,-18.2,-5.1,-4.5,34.8,-6.7,0.49180578,0.358012635,-0.479750969,0.632251961
832,2084696,315780,0.914,-0.501,0.332,-48,-19.1,-3.7,-4.5,34.8,-6.7,0.49201941,0.357799005,-0.480574969,0.631580554
833,2086093,315780,0.922,-0.493,0.336,-45.9,-19.7,-2.3,-4.5,34.8,-6.7,0.492202521,0.357585376,-0.481398968,0.630909146
834,2088994,315780,0.945,-0.462,0.339,-40.7,-20.5,0.2,-4.5,34.8,-6.7,0.492324595,0.357432783,-0.48219245,0.630329295
835,2092162,315790,0.953,-0.447,0.339,-37.9,-20.9,1.3,-4.5,34.8,-6.7,0.492355113,0.357310709,-0.482955412,0.629779962
836,2094175,315790,0.969,-0.435,0.343,-37.9,-20.9,1.3,-4.5,34.8,-6.7,0.49241615,0.357158116,-0.483687857,0.629230628
837,2097274,315790,0.989,-0.408,0.338,-35.2,-21.1,2.4,-4.5,34.8,-6.7,0.492446669,0.357036042,-0.484420301,0.628711814
838,2098709,315790,0.989,-0.408,0.338,-35.2,-21.1,2.4,-4.5,34.8,-6.7,0.492446669,0.357036042,-0.484420301,0.628711814
839,2102231,315800,0.996,-0.381,0.326,-31.4,-20.3,4.2,-3.9,35.5,-6.4,0.49241615,0.356944487,-0.485122227,0.628284555
840,2103680,315800,1.004,-0.377,0.326,-30.3,-19.3,4.9,-3.9,35.5,-6.4,0.492385632,0.356822413,-0.485763115,0.627857295
841,2106454,315800,1.004,-0.362,0.318,-29.5,-18,5.5,-3.9,35.5,-6.4,0.492324595,0.356700339,-0.486404004,0.627460555
842,2109561,315800,1,-0.354,0.315,-28.8,-16.7,6.1,-3.9,35.5,-6.4,0.492294076,0.356547746,-0.487044893,0.627094333
843,2110942,315810,1.004,-0.354,0.311,-27.5,-14,7.1,-3.8,35.2,-5.6,0.492263558,0.356364635,-0.487624744,0.626758629
844,2113745,315810,0.992,-0.346,0.303,-27.5,-14,7.1,-3.8,35.2,-5.6,0.492233039,0.356212043,-0.488204596,0.626422926
845,2116705,315810,0.988,-0.346,0.299,-27,-12.9,7.6,-3.8,35.2,-5.6,0.492202521,0.355998413,-0.488753929,0.62611774
846,2119707,315810,0.989,-0.346,0.303,-26.4,-11.9,8,-3.8,35.2,-5.6,0.492172002,0.355784783,-0.489333781,0.625843074
847,2121165,315820,0.973,-0.346,0.303,-25.4,-9.9,8.9,-3.6,35.3,-6.1,0.492141484,0.355571154,-0.489852596,0.625598926
848,2124117,315820,0.969,-0.354,0.296,-24.9,-8.8,9.3,-3.6,35.3,-6.1,0.492110965,0.355327006,-0.49037141,0.625354778
849,2127148,315820,0.961,-0.357,0.304,-24.3,-7.8,9.7,-3.6,35.3,-6.1,0.492080447,0.355052339,-0.490859706,0.625141148
850,2128610,315820,0.953,-0.357,0.308,-24.3,-7.8,9.7,-3.6,35.3,-6.1,0.492049928,0.354808191,-0.491348003,0.624927519
851,2131608,315830,0.953,-0.357,0.308,-24.3,-7.8,9.7,-3.6,35.3,-6.1,0.492049928,0.354808191,-0.491348003,0.624927519
852,2134594,315830,0.945,-0.365,0.296,-22.9,-6,10.6,-3.7,35.3,-6.1,0.49201941,0.354533525,-0.49180578,0.624744407
853,2136096,315830,0.926,-0.388,0.285,-21.5,-5.1,11.1,-3.7,35.3,-6.1,0.491927854,0.353953673,-0.492660298,0.624439222
854,2139234,315830,0.914,-0.392,0.289,-20.8,-4.8,11.4,-3.7,35.3,-6.1,0.491897336,0.353679006,-0.493118076,0.62428663
855,2142238,315840,0.914,-0.392,0.289,-20.8,-4.8,11.4,-3.7,35.3,-6.1,0.491897336,0.353679006,-0.493118076,0.62428663
856,2143538,315840,0.906,-0.403,0.285,-20.2,-4.4,11.6,-4.8,35.2,-6,0.491836299,0.35340434,-0.493514817,0.624164556
857,2146608,315840,0.902,-0.411,0.285,-19.4,-4.1,11.8,-4.8,35.2,-6,0.491775262,0.353129673,-0.493911557,0.624042482
858,2149696,315840,0.894,-0.407,0.285,-17.4,-3.7,12.1,-4.8,35.2,-6,0.491653188,0.35258034,-0.49467452,0.623859371
859,2151165,315850,0.894,-0.407,0.285,-17.4,-3.7,12.1,-4.8,35.2,-6,0.491653188,0.35258034,-0.49467452,0.623859371
860,2154864,315850,0.894,-0.407,0.285,-17.4,-3.7,12.1,-4.8,35.2,-6,0.491653188,0.35258034,-0.49467452,0.623859371
861,2156204,315850,0.894,-0.415,0.281,-15.2,-3.7,12.4,-3,35.3,-5.9,0.491225929,0.35175634,-0.495315409,0.624134037
862,2159771,315850,0.894,-0.419,0.281,-14.4,-3.8,12.6,-3,35.3,-5.9,0.491134373,0.351542711,-0.495651112,0.624103519
863,2162019,315860,0.894,-0.411,0.277,-13.6,-3.8,13,-3,35.3,-5.9,0.491012299,0.351298563,-0.495986816,0.624042482
864,2164026,315860,0.894,-0.407,0.277,-13,-3.8,13.4,-3,35.3,-5.9,0.490890225,0.351054415,-0.496292001,0.624042482
865,2166909,315860,0.902,-0.392,0.273,-12.3,-3.8,13.9,-3.3,35.4,-6,0.490707114,0.350840785,-0.496627705,0.624011963
866,2170129,315860,0.902,-0.392,0.273,-11.7,-3.7,14.4,-3.3,35.4,-6,0.49058504,0.350596637,-0.49693289,0.624011963
867,2172377,315870,0.906,-0.392,0.273,-11.1,-3.5,15,-3.3,35.4,-6,0.490432447,0.350352489,-0.497238075,0.624042482
868,2174395,315870,0.91,-0.384,0.273,-10.5,-3.3,15.5,-3.3,35.4,-6,0.490279855,0.350138859,-0.49754326,0.624042482
869,2177657,315870,0.918,-0.368,0.269,-9.2,-3,16,-3.3,35.5,-5.7,0.490096744,0.349894711,-0.497817927,0.624103519
870,2179620,315870,0.922,-0.361,0.273,-8.7,-2.8,16.2,-3.3,35.5,-5.7,0.489913633,0.349681082,-0.498092593,0.624164556
871,2181279,315880,0.93,-0.349,0.273,-8.7,-2.8,16.2,-3.3,35.5,-5.7,0.489730522,0.349436934,-0.49836726,0.624225593
872,2185094,315880,0.93,-0.345,0.277,-8.2,-2.7,16.5,-3.3,35.5,-5.7,0.489516892,0.349192785,-0.498641926,0.62428663
873,2187143,315880,0.93,-0.345,0.277,-8.2,-2.7,16.5,-3.3,35.5,-5.7,0.489516892,0.349192785,-0.498641926,0.62428663
874,2188710,315880,0.942,-0.314,0.272,-7.9,-2,16.7,-3,35.5,-5.7,0.48915067,0.348735008,-0.499160741,0.624439222
875,2191152,315890,0.949,-0.303,0.276,-8,-1.7,16.6,-3,35.5,-5.7,0.48893704,0.34849086,-0.499404889,0.624500259
876,2194811,315890,0.949,-0.303,0.276,-8,-1.7,16.6,-3,35.5,-5.7,0.488753929,0.348246712,-0.499649037,0.624591815
877,2196175,315890,0.949,-0.303,0.276,-8,-1.7,16.6,-3,35.5,-5.7,0.488753929,0.348246712,-0.499649037,0.624591815
878,2199412,315890,0.953,-0.295,0.276,-8.2,-0.7,16.4,-4.4,35.6,-5.6,0.488601337,0.348002564,-0.499893185,0.62468337
879,2202328,315900,0.957,-0.283,0.272,-7.7,0.2,15.9,-4.4,35.6,-5.6,0.488265633,0.34745323,-0.500350963,0.624835963
880,2203565,315900,0.953,-0.275,0.28,-7.7,0.2,15.9,-4.4,35.6,-5.6,0.488113041,0.347209082,-0.500595111,0.624927519
881,2207473,315900,0.953,-0.275,0.28,-7.7,0.2,15.9,-4.4,35.6,-5.6,0.488113041,0.347209082,-0.500595111,0.624927519
882,2209188,315900,0.953,-0.275,0.28,-7.7,0.2,15.9,-4.4,35.6,-5.6,0.488113041,0.347209082,-0.500595111,0.624927519
883,2211281,315910,0.95,-0.271,0.28,-6.5,1.5,14.5,-4.4,35.6,-5.6,0.488143559,0.346934416,-0.500534074,0.625080111
884,2213540,315910,0.95,-0.267,0.276,-6,1.7,14.1,-4.4,35.6,-5.6,0.488021485,0.346690268,-0.500717185,0.625171667
885,2216318,315910,0.942,-0.259,0.272,-5.5,2.4,13.5,-4.4,35.6,-5.6,0.487777337,0.34623249,-0.50102237,0.625385296
886,2218538,315910,0.942,-0.259,0.272,-5.5,2.4,13.5,-4.4,35.6,-5.6,0.487777337,0.34623249,-0.50102237,0.625385296
887,2222731,315920,0.93,-0.259,0.277,-5.4,2.6,13.3,-3,35.6,-5.2,0.487685781,0.345988342,-0.501174963,0.625476852
888,2224673,315920,0.926,-0.259,0.273,-5.3,2.7,13,-3,35.6,-5.2,0.487563707,0.345744194,-0.501327555,0.625598926
889,2226244,315920,0.926,-0.255,0.273,-5.3,2.6,12.7,-3,35.6,-5.2,0.487472152,0.345530564,-0.501449629,0.625690481
890,2228503,315920,0.918,-0.255,0.273,-5.2,2.6,12.2,-3,35.6,-5.2,0.487350078,0.345286416,-0.501602222,0.625782037
891,2233119,315930,0.918,-0.255,0.277,-5,2.6,11.5,-2.8,35.6,-5.4,0.487258522,0.345072787,-0.501724296,0.625873592
892,2235094,315930,0.914,-0.255,0.273,-5,2.6,11.5,-2.8,35.6,-5.4,0.487166967,0.344859157,-0.50184637,0.625934629
893,2236770,315930,0.907,-0.255,0.261,-4.9,2.6,11.2,-2.8,35.6,-5.4,0.48710593,0.344645528,-0.501968444,0.626026185
894,2238854,315930,0.907,-0.259,0.265,-4.9,2.5,11,-2.8,35.6,-5.4,0.487014374,0.344431898,-0.502090518,0.62611774
895,2240986,315940,0.899,-0.251,0.269,-4.9,2.2,10.6,-3.6,35.5,-5.5,0.486922819,0.344218268,-0.502212592,0.626178777
896,2245186,315940,0.895,-0.255,0.269,-5,2,10.4,-3.6,35.5,-5.5,0.486800745,0.344035157,-0.502365184,0.626270333
897,2247364,315940,0.887,-0.255,0.266,-5,2,10.4,-3.6,35.5,-5.5,0.486770226,0.343852046,-0.502487259,0.62633137
898,2249404,315940,0.887,-0.262,0.269,-5.4,1.8,10.1,-3.6,35.5,-5.5,0.486678671,0.343638417,-0.502609333,0.626392407
899,2252230,315950,0.887,-0.262,0.269,-5.4,1.8,10.1,-3.6,35.5,-5.5,0.486678671,0.343638417,-0.502609333,0.626392407
900,2253609,315950,0.875,-0.27,0.274,-7.1,1.7,9.4,-2.8,35.6,-4.9,0.486556597,0.343241676,-0.502914518,0.626483963
901,2256888,315950,0.879,-0.278,0.274,-7.5,1.5,9.2,-2.8,35.6,-4.9,0.48649556,0.343058565,-0.50306711,0.626514481
902,2258905,315950,0.875,-0.278,0.278,-7.5,1.5,9.2,-2.8,35.6,-4.9,0.486465041,0.342844935,-0.503219703,0.626514481
903,2262143,315960,0.875,-0.278,0.278,-7.5,1.5,9.2,-2.8,35.6,-4.9,0.486465041,0.342844935,-0.503219703,0.626514481
904,2263452,315960,0.875,-0.278,0.278,-7.5,1.5,9.2,-2.8,35.6,-4.9,0.486465041,0.342844935,-0.503219703,0.626514481
905,2266239,315960,0.875,-0.282,0.278,-8.8,1.2,8.4,-3,35.4,-4.5,0.486465041,0.34253975,-0.50328074,0.626606037
906,2269684,315960,0.871,-0.286,0.282,-9.1,1.2,8.3,-3,35.4,-4.5,0.486434523,0.342326121,-0.503463851,0.626606037
907,2271732,315970,0.879,-0.301,0.281,-9.7,1,7.8,-3,35.4,-4.5,0.486373486,0.34192938,-0.503830073,0.626606037
908,2274610,315970,0.879,-0.301,0.281,-9.7,1,7.8,-3,35.4,-4.5,0.486373486,0.34192938,-0.503830073,0.626606037
909,2276166,315970,0.887,-0.301,0.281,-9.9,1.1,7.7,-2.7,35.8,-4.5,0.486373486,0.341715751,-0.504013184,0.626575518
910,2279063,315970,0.891,-0.305,0.277,-10,1.3,7.5,-2.7,35.8,-4.5,0.486342967,0.341502121,-0.504165777,0.626545
911,2282313,315980,0.895,-0.305,0.277,-9.8,1.5,7.3,-2.7,35.8,-4.5,0.486342967,0.34131901,-0.504348888,0.626545
912,2284404,315980,0.899,-0.306,0.273,-9.5,1.5,7.2,-2.7,35.8,-4.5,0.486342967,0.34110538,-0.504531999,0.626514481
913,2287445,315980,0.906,-0.31,0.277,-8.9,1.4,7,-2.7,35.7,-3.6,0.486312449,0.340922269,-0.504684591,0.626514481
914,2289786,315980,0.906,-0.306,0.277,-8.9,1.4,7,-2.7,35.7,-3.6,0.486312449,0.34070864,-0.504837184,0.626483963
915,2292188,315990,0.91,-0.314,0.281,-8.8,1.4,6.9,-2.7,35.7,-3.6,0.48628193,0.340525529,-0.504989776,0.626483963
916,2294215,315990,0.918,-0.318,0.285,-8.7,1.5,6.8,-2.7,35.7,-3.6,0.48628193,0.340311899,-0.505142369,0.626453444
917,2296237,315990,0.922,-0.31,0.285,-8.5,1.3,7,-3.1,35.5,-6.7,0.486251411,0.340159307,-0.505294961,0.626453444
918,2298741,315990,0.93,-0.31,0.281,-8.4,1.2,7.2,-3.1,35.5,-6.7,0.486251411,0.339976196,-0.505447554,0.626453444
919,2302792,316000,0.93,-0.31,0.281,-8.4,1.2,7.2,-3.1,35.5,-6.7,0.486220893,0.339793085,-0.505600146,0.626453444
920,2305136,316000,0.934,-0.31,0.284,-8.4,1,7.3,-3.1,35.5,-6.7,0.486190374,0.339609973,-0.505783258,0.626453444
921,2307279,316000,0.934,-0.31,0.284,-8.4,1,7.3,-3.1,35.5,-6.7,0.486190374,0.339609973,-0.505783258,0.626453444
922,2309577,316000,0.942,-0.306,0.292,-8.3,0.4,8.1,-3.2,35.5,-4.2,0.486098819,0.339243751,-0.506118961,0.626422926
923,2311746,316010,0.942,-0.302,0.288,-8.4,0,8.5,-3.2,35.5,-4.2,0.4860683,0.339030122,-0.506271554,0.626422926
924,2313644,316010,0.946,-0.298,0.292,-8.4,0,8.5,-3.2,35.5,-4.2,0.486007263,0.338847011,-0.506454665,0.626422926
925,2316729,316010,0.946,-0.298,0.292,-8.4,0,8.5,-3.2,35.5,-4.2,0.486007263,0.338847011,-0.506454665,0.626422926
926,2319908,316010,0.946,-0.298,0.292,-8.4,0,8.5,-3.2,35.5,-4.2,0.486007263,0.338847011,-0.506454665,0.626422926
927,2322277,316020,0.946,-0.295,0.292,-8.6,-1,9.7,-3.2,35.5,-4.2,0.485976745,0.338602863,-0.506576739,0.626514481
928,2324285,316020,0.95,-0.295,0.292,-8.6,-1.3,10,-3.2,35.5,-4.2,0.485885189,0.338419752,-0.506790368,0.626514481
929,2327407,316020,0.953,-0.287,0.288,-8.4,-1.8,10.7,-3.2,35.5,-4.2,0.48567156,0.338053529,-0.507217627,0.626514481
930,2329844,316020,0.953,-0.287,0.288,-8.4,-1.8,10.7,-3.2,35.5,-4.2,0.48567156,0.338053529,-0.507217627,0.626514481
931,2332166,316030,0.95,-0.291,0.288,-8.2,-2,10.8,-3,35.8,-4.1,0.485580004,0.337870418,-0.507431257,0.626514481
932,2334246,316030,0.95,-0.287,0.288,-7.8,-1.9,10.9,-3,35.8,-4.1,0.48545793,0.337687307,-0.507644887,0.626545
933,2336351,316030,0.946,-0.287,0.284,-7.5,-1.9,10.9,-3,35.8,-4.1,0.485335856,0.337504196,-0.507827998,0.626545
934,2339198,316030,0.942,-0.291,0.288,-7.1,-1.8,10.9,-3,35.8,-4.1,0.485213782,0.337351604,-0.508041627,0.626575518
935,2342218,316040,0.946,-0.291,0.288,-6.4,-1.3,10.9,-2.9,35.8,-6.7,0.485091708,0.337168493,-0.508224738,0.626606037
936,2343557,316040,0.942,-0.295,0.28,-6.4,-1.3,10.9,-2.9,35.8,-6.7,0.484969634,0.3370159,-0.508407849,0.626636555
937,2347071,316040,0.942,-0.295,0.276,-6,-1.2,11.1,-2.9,35.8,-6.7,0.48484756,0.336832789,-0.50859096,0.626697592
938,2349191,316040,0.942,-0.295,0.28,-5.6,-1.1,11.2,-2.9,35.8,-6.7,0.484725486,0.336649678,-0.508743553,0.626728111
939,2351259,316050,0.93,-0.302,0.265,-4.4,-0.8,11.2,-2.8,35.7,-4.2,0.484603412,0.336497085,-0.508896146,0.626789148
940,2354593,316050,0.934,-0.306,0.265,-3.7,-0.8,11.2,-2.8,35.7,-4.2,0.484481338,0.336344493,-0.509048738,0.626880703
941,2356129,316050,0.93,-0.306,0.265,-3.7,-0.8,11.2,-2.8,35.7,-4.2,0.484328745,0.3361919,-0.509201331,0.62694174
942,2359308,316050,0.926,-0.306,0.261,-3,-0.9,11.1,-2.8,35.7,-4.2,0.484206671,0.336069826,-0.509323405,0.627033296
943,2361243,316060,0.926,-0.306,0.261,-3,-0.9,11.1,-2.8,35.7,-4.2,0.484206671,0.336069826,-0.509323405,0.627033296
944,2364390,316060,0.922,-0.31,0.261,-1.5,-1.1,11.2,-3,35.8,-4.2,0.484054079,0.335917234,-0.509445479,0.627124851
945,2367167,316060,0.922,-0.31,0.265,0.1,-1.6,11.3,-3,35.8,-4.2,0.483687857,0.335703604,-0.509659108,0.627307962
946,2368441,316060,0.922,-0.306,0.253,0.9,-1.9,11.4,-3,35.8,-4.2,0.483504746,0.335612049,-0.509750664,0.627430036
947,2372195,316070,0.922,-0.306,0.253,0.9,-1.9,11.4,-3,35.8,-4.2,0.483504746,0.335612049,-0.509750664,0.627430036
948,2373665,316070,0.922,-0.306,0.253,0.9,-1.9,11.4,-3,35.8,-4.2,0.483504746,0.335612049,-0.509750664,0.627430036
949,2376751,316070,0.922,-0.302,0.257,2.2,-2.2,11.6,-3.1,35.7,-5,0.483352153,0.335551012,-0.509781182,0.627582629
950,2379705,316070,0.926,-0.302,0.253,2.7,-2.5,11.7,-3.1,35.7,-5,0.483138524,0.335489975,-0.509842219,0.627704703
951,2381112,316080,0.918,-0.298,0.249,3.2,-2.8,11.7,-3.1,35.7,-5,0.482894375,0.335428938,-0.509903256,0.627857295
952,2384496,316080,0.922,-0.302,0.253,3.7,-3.1,11.8,-3.1,35.7,-5,0.482680746,0.335367901,-0.509994812,0.628009888
953,2386792,316080,0.918,-0.302,0.249,4.7,-3.5,11.9,-2.4,35.8,-5.4,0.482467116,0.335337382,-0.510055849,0.628162481
954,2388862,316080,0.918,-0.294,0.249,4.7,-3.5,11.9,-2.4,35.8,-5.4,0.482222968,0.335306864,-0.510116886,0.628315073
955,2391147,316090,0.922,-0.298,0.245,5.1,-3.7,12,-2.4,35.8,-5.4,0.48197882,0.335276345,-0.510177923,0.628467666
956,2393479,316090,0.922,-0.294,0.249,5.4,-3.9,12.1,-2.4,35.8,-5.4,0.481734672,0.335245827,-0.510208441,0.628620258
957,2397563,316090,0.922,-0.294,0.249,5.4,-3.9,12.1,-2.4,35.8,-5.4,0.481734672,0.335245827,-0.510208441,0.628620258
958,2399686,316090,0.926,-0.283,0.245,6.1,-4.2,12.1,-2.6,35.9,-5.2,0.481215857,0.335215308,-0.510330515,0.628955962
959,2401303,316100,0.922,-0.283,0.253,6.1,-4.1,12.1,-2.6,35.9,-5.2,0.480941191,0.335215308,-0.510361034,0.629108554
960,2403807,316100,0.918,-0.286,0.253,6.1,-4.1,12.1,-2.6,35.9,-5.2,0.480697043,0.335215308,-0.510422071,0.629291665
961,2405980,316100,0.918,-0.286,0.253,6.1,-4.1,12.1,-2.6,35.9,-5.2,0.480697043,0.335215308,-0.510422071,0.629291665
962,2409567,316100,0.922,-0.283,0.245,5.7,-4.3,12,-2.6,35.8,-5,0.480422376,0.33518479,-0.510483108,0.629444258
963,2411668,316110,0.926,-0.283,0.249,5.3,-4.3,12.1,-2.6,35.8,-5,0.47993408,0.335154271,-0.510574664,0.629749443
964,2413761,316110,0.926,-0.283,0.249,5.3,-4.3,12.1,-2.6,35.8,-5,0.47993408,0.335154271,-0.510574664,0.629749443
965,2416266,316110,0.922,-0.283,0.253,5.3,-4.3,12.1,-2.6,35.8,-5,0.479659413,0.335123753,-0.510666219,0.629871517
966,2420035,316110,0.926,-0.283,0.249,4.6,-4.6,12.1,-2.5,36,-5.4,0.479415265,0.335123753,-0.510727256,0.630054628
967,2422401,316120,0.922,-0.279,0.253,4.2,-4.8,12,-2.5,36,-5.4,0.479171117,0.335093234,-0.510818812,0.630176702
968,2424555,316120,0.926,-0.275,0.245,3.8,-4.8,12,-2.5,36,-5.4,0.478926969,0.335062716,-0.510879849,0.630329295
969,2426750,316120,0.922,-0.275,0.249,3.4,-4.6,12,-2.5,36,-5.4,0.478682821,0.335032197,-0.510971404,0.630451369
970,2428772,316120,0.922,-0.275,0.249,3.4,-4.6,12,-2.5,36,-5.4,0.478682821,0.335032197,-0.510971404,0.630451369
971,2431103,316130,0.926,-0.275,0.249,2.7,-4.2,11.9,-2.5,36,-5.4,0.478865932,0.335612049,-0.510696738,0.630207221
972,2433479,316130,0.926,-0.271,0.249,2.3,-4,11.7,-2.5,36,-5.4,0.478652303,0.335551012,-0.510818812,0.630329295
973,2437143,316130,0.922,-0.267,0.253,2,-3.9,11.5,-2.5,36,-5.4,0.478408155,0.335489975,-0.510910367,0.630451369
974,2438633,316130,0.922,-0.263,0.245,1.8,-3.7,11.3,-2.5,36,-5.4,0.478225043,0.335428938,-0.511001923,0.630573443
975,2441132,316140,0.926,-0.267,0.245,1.5,-3.6,10.9,-2.4,36,-3.9,0.478011414,0.335398419,-0.511093478,0.630664998
976,2443839,316140,0.926,-0.263,0.249,1.5,-3.6,10.9,-2.4,36,-3.9,0.477797784,0.335337382,-0.511185034,0.630787072
977,2446300,316140,0.922,-0.259,0.245,1.2,-3.6,10.7,-2.4,36,-3.9,0.477614673,0.335276345,-0.511307108,0.630878628
978,2448631,316140,0.926,-0.255,0.253,1,-3.7,10.4,-2.4,36,-3.9,0.477401044,0.335215308,-0.511398663,0.630970183
979,2452698,316150,0.926,-0.255,0.253,1,-3.7,10.4,-2.4,36,-3.9,0.477401044,0.335215308,-0.511398663,0.630970183
980,2454825,316150,0.926,-0.259,0.249,0.5,-4,9.5,-2.2,36,-6.3,0.477034822,0.335123753,-0.511612293,0.631122776
981,2456997,316150,0.918,-0.259,0.253,0.5,-4.1,9.1,-2.2,36,-6.3,0.476882229,0.335093234,-0.511703848,0.631183813
982,2459455,316150,0.922,-0.263,0.249,0.5,-4.1,9.1,-2.2,36,-6.3,0.476699118,0.335032197,-0.511795404,0.631275369
983,2461214,316160,0.922,-0.263,0.249,0.5,-4.1,9.1,-2.2,36,-6.3,0.476699118,0.335032197,-0.511795404,0.631275369
984,2465490,316160,0.922,-0.267,0.249,0.5,-4.1,8.4,-2.2,35.2,-5.8,0.476516007,0.335001679,-0.511917478,0.631336406
985,2467819,316160,0.918,-0.267,0.249,0.5,-4.2,7.6,-2.2,35.2,-5.8,0.476210822,0.33497116,-0.512100589,0.63145848
986,2469897,316160,0.922,-0.271,0.249,0.5,-4.3,7.2,-2.2,35.2,-5.8,0.476058229,0.334940641,-0.512192145,0.631488998
987,2472009,316170,0.922,-0.271,0.249,0.5,-4.3,7.2,-2.2,35.2,-5.8,0.476058229,0.334940641,-0.512192145,0.631488998
988,2474168,316170,0.918,-0.267,0.253,0.4,-4.3,6.9,-1.8,35.2,-6,0.475905637,0.334940641,-0.5122837,0.631550035
989,2476531,316170,0.918,-0.275,0.249,0.2,-4.2,6.6,-1.8,35.2,-6,0.475783563,0.334910123,-0.512375256,0.631580554
990,2478536,316170,0.918,-0.279,0.253,0.1,-4.2,6.3,-1.8,35.2,-6,0.47563097,0.334910123,-0.512436293,0.631611072
991,2482817,316180,0.918,-0.275,0.253,0,-4.2,6,-1.8,35.2,-6,0.475508896,0.334910123,-0.512527848,0.631641591
992,2484821,316180,0.918,-0.275,0.253,0,-4.2,6,-1.8,35.2,-6,0.475508896,0.334910123,-0.512527848,0.631641591
993,2486307,316180,0.918,-0.279,0.253,-0.7,-4.3,5.5,-2.4,34.8,-6.2,0.476058229,0.335673086,-0.512009033,0.631275369
994,2488875,316180,0.922,-0.283,0.257,-1.2,-4.2,5.3,-2.4,34.8,-6.2,0.475936155,0.335642567,-0.512100589,0.631275369
995,2491777,316190,0.918,-0.283,0.257,-1.8,-4.1,5,-2.4,34.8,-6.2,0.4758446,0.335642567,-0.512192145,0.631275369
996,2494591,316190,0.918,-0.283,0.257,-2.4,-3.8,4.8,-2.4,34.8,-6.2,0.475753044,0.335612049,-0.512314219,0.631275369
997,2496877,316190,0.926,-0.279,0.261,-3.6,-3.5,4.5,-2.2,36.8,-4.2,0.475661489,0.335551012,-0.512436293,0.63124485
998,2498680,316190,0.922,-0.283,0.261,-3.6,-3.5,4.5,-2.2,36.8,-4.2,0.475600452,0.335520493,-0.512558367,0.63124485
999,2501259,316200,0.922,-0.283,0.261,-4.2,-3.4,4.4,-2.2,36.8,-4.2,0.475539415,0.335459456,-0.512680441,0.631214331
1000,2504459,316200,0.918,-0.283,0.261,-4.7,-3.4,4.2,-2.2,36.8,-4.2,0.475447859,0.335428938,-0.512802515,0.631183813
1001,2506072,316200,0.918,-0.283,0.261,-4.7,-3.4,4.2,-2.2,36.8,-4.2,0.475447859,0.335428938,-0.512802515,0.631183813
1002,2508548,316200,0.926,-0.271,0.261,-5.2,-3.5,3.8,-2.4,35.4,-6,0.475417341,0.335367901,-0.512955107,0.631122776
1003,2512510,316210,0.926,-0.271,0.265,-5.2,-3.4,3.4,-2.4,35.4,-6,0.475295267,0.335276345,-0.513229774,0.63103122
1004,2514707,316210,0.922,-0.271,0.273,-5.2,-3.4,3.4,-2.4,35.4,-6,0.475264748,0.335245827,-0.513351848,0.631000702
1005,2516615,316210,0.922,-0.271,0.273,-5.2,-3.4,3.4,-2.4,35.4,-6,0.475264748,0.335245827,-0.513351848,0.631000702
1006,2519077,316210,0.922,-0.271,0.273,-5,-3.1,3.1,-2.3,35.6,-6.1,0.475203711,0.33518479,-0.513473922,0.630939665
1007,2521072,316220,0.926,-0.263,0.273,-4.9,-3,2.8,-2.3,35.6,-6.1,0.475173193,0.335154271,-0.513595996,0.630909146
1008,2524924,316220,0.922,-0.263,0.277,-4.7,-2.8,2.5,-2.3,35.6,-6.1,0.475142674,0.335123753,-0.51371807,0.630848109
1009,2527259,316220,0.926,-0.259,0.277,-4.6,-2.6,2.2,-2.3,35.6,-6.1,0.475081637,0.335093234,-0.513809626,0.630817591
1010,2529582,316220,0.926,-0.267,0.284,-4.4,-2.5,2,-2,35.5,-6.1,0.475081637,0.335032197,-0.5139317,0.630756554
1011,2531685,316230,0.918,-0.263,0.285,-4.2,-2.4,2,-2,35.5,-6.1,0.475081637,0.335001679,-0.514023255,0.630726035
1012,2533821,316230,0.926,-0.263,0.281,-4.1,-2.3,1.8,-2,35.5,-6.1,0.475051119,0.33497116,-0.514114811,0.630664998
1013,2535982,316230,0.93,-0.259,0.28,-4.1,-2,1.7,-2,35.5,-6.1,0.4750206,0.334940641,-0.514206366,0.63063448
1014,2539233,316230,0.93,-0.259,0.28,-4.1,-2,1.7,-2,35.5,-6.1,0.4750206,0.334940641,-0.514206366,0.63063448
1015,2542452,316240,0.934,-0.259,0.273,-4.2,-1,1.3,-2,35.5,-6.1,0.475875118,0.335367901,-0.513321329,0.630481887
1016,2544761,316240,0.926,-0.263,0.273,-4.2,-1,1.3,-2,35.5,-6.1,0.475875118,0.335337382,-0.513382366,0.630451369
1017,2546878,316240,0.93,-0.259,0.273,-4.3,-0.5,1.2,-2,35.5,-6.1,0.475875118,0.335276345,-0.513473922,0.63042085
1018,2548945,316240,0.934,-0.259,0.265,-4.3,0,1,-2,35.5,-6.1,0.475905637,0.335215308,-0.513534959,0.630359813
1019,2552230,316250,0.934,-0.259,0.265,-4.3,0,1,-2,35.5,-6.1,0.475905637,0.335215308,-0.513534959,0.630359813
1020,2554253,316250,0.93,-0.259,0.265,-4.5,1.1,0.5,-2.2,36.3,-5.1,0.475966674,0.335093234,-0.513657033,0.630298776
1021,2556538,316250,0.93,-0.263,0.269,-4.5,1.1,0.5,-2.2,36.3,-5.1,0.475997192,0.335032197,-0.513687551,0.630268258
1022,2559800,316250,0.934,-0.259,0.265,-4.5,1.1,0.3,-2.2,36.3,-5.1,0.476058229,0.33497116,-0.513748589,0.630237739
1023,2562142,316260,0.934,-0.259,0.265,-4.5,1.1,0.3,-2.2,36.3,-5.1,0.476058229,0.33497116,-0.513748589,0.630237739
1024,2563573,316260,0.93,-0.271,0.269,-4.4,1.4,0.2,-1.9,36.3,-4.5,0.476088748,0.334879604,-0.513809626,0.630176702
1025,2566008,316260,0.934,-0.275,0.261,-4.2,1.6,0,-1.9,36.3,-4.5,0.476180303,0.33475753,-0.513870663,0.630115665
1026,2569976,316260,0.93,-0.275,0.269,-4.2,1.6,-0.2,-1.9,36.3,-4.5,0.47624134,0.334696493,-0.5139317,0.630085147
1027,2572382,316270,0.93,-0.275,0.269,-4.2,1.6,-0.2,-1.9,36.3,-4.5,0.47624134,0.334696493,-0.5139317,0.630085147
1028,2574557,316270,0.934,-0.279,0.269,-4.1,1.7,-0.5,-1.9,36.3,-4.8,0.476302377,0.334635456,-0.513962218,0.63002411
1029,2576380,316270,0.93,-0.283,0.269,-4.1,1.8,-0.6,-1.9,36.3,-4.8,0.476363414,0.334574419,-0.513992737,0.629993591
1030,2579971,316270,0.93,-0.275,0.273,-4.1,1.8,-0.6,-1.9,36.3,-4.8,0.476424451,0.334513382,-0.514023255,0.629963073
