sample_index,elapsed_us,device_time_ms,acc_x_g,acc_y_g,acc_z_g,gyro_x_dps,gyro_y_dps,gyro_z_dps,mag_x_ut,mag_y_ut,mag_z_ut,quat_w,quat_x,quat_y,quat_z
0,4786,313700,0.936,0.303,0.239,7,0.2,0,-14,-32.4,11.6,0.679372539,-0.146916105,-0.606952116,-0.385296182
1,6058,313700,0.932,0.303,0.243,5.8,0.6,-0.7,-14.3,-32.6,11.7,0.679372539,-0.146244697,-0.606952116,-0.385509812
2,9302,313700,0.936,0.303,0.235,5.8,0.6,-0.7,-14.3,-32.6,11.7,0.679372539,-0.146153142,-0.606982635,-0.385448775
3,12197,313710,0.94,0.299,0.231,5.4,0.9,-0.9,-14.3,-32.6,11.7,0.679403058,-0.146031068,-0.607043672,-0.385387738
4,15022,313710,0.94,0.295,0.231,5.1,1.1,-1.1,-14.3,-32.6,11.7,0.679433576,-0.145939512,-0.60707419,-0.385357219
5,16596,313710,0.94,0.291,0.235,4.8,1.3,-1.5,-14.2,-32.7,11.4,0.679464095,-0.145847957,-0.60707419,-0.385326701
6,19744,313710,0.944,0.287,0.231,4.5,1.4,-1.7,-14.2,-32.7,11.4,0.679464095,-0.145725883,-0.607104709,-0.385296182
7,21580,313720,0.944,0.287,0.231,4.5,1.4,-1.7,-14.2,-32.7,11.4,0.679464095,-0.145725883,-0.607104709,-0.385296182
8,24125,313720,0.944,0.287,0.235,4.2,1.6,-2.1,-14.2,-32.7,11.4,0.679494613,-0.145512253,-0.607135228,-0.385235145
9,26866,313720,0.944,0.275,0.238,4,1.7,-2.3,-14.3,-32.5,11.3,0.679525132,-0.145420698,-0.607165746,-0.385235145
10,29933,313720,0.944,0.275,0.231,3.7,1.7,-2.5,-14.3,-32.5,11.3,0.679525132,-0.145298624,-0.607165746,-0.385235145
11,31251,313730,0.944,0.275,0.227,3.3,1.8,-2.6,-14.3,-32.5,11.3,0.679555651,-0.145207068,-0.607196265,-0.385235145
12,34147,313730,0.948,0.275,0.238,2.9,1.9,-2.6,-14.3,-32.5,11.3,0.679555651,-0.145115513,-0.607196265,-0.385235145
13,37189,313730,0.948,0.267,0.238,2.5,2,-2.7,-14.3,-32,11.5,0.679586169,-0.145023957,-0.607196265,-0.385235145
14,38528,313730,0.948,0.267,0.238,2.2,2.3,-2.7,-14.3,-32,11.5,0.679586169,-0.144932402,-0.607196265,-0.385235145
15,41791,313740,0.948,0.259,0.234,1.8,2.5,-2.7,-14.3,-32,11.5,0.679616688,-0.144840846,-0.607165746,-0.385296182
16,45297,313740,0.952,0.267,0.238,1.6,2.6,-2.7,-14.3,-32,11.5,0.679616688,-0.14474929,-0.607165746,-0.385296182
17,47519,313740,0.952,0.259,0.23,1.3,2.6,-2.5,-14.5,-32.6,11.6,0.679647206,-0.144688253,-0.607135228,-0.385326701
18,49297,313740,0.956,0.263,0.238,1,2.7,-2.3,-14.5,-32.6,11.6,0.679647206,-0.144627216,-0.607104709,-0.385357219
19,51297,313750,0.956,0.263,0.238,0.7,2.6,-2,-14.5,-32.6,11.6,0.679677725,-0.144566179,-0.60707419,-0.385387738
20,53650,313750,0.952,0.259,0.23,0.4,2.6,-1.9,-14.5,-32.6,11.6,0.679708243,-0.144505142,-0.607043672,-0.385418256
21,57547,313750,0.956,0.259,0.238,0,2.4,-1.4,-14.6,-32.2,11.6,0.67998291,-0.144718772,-0.606738487,-0.385326701
22,59876,313750,0.956,0.259,0.238,0,2.4,-1.4,-14.6,-32.2,11.6,0.680013428,-0.144688253,-0.606707968,-0.385357219
23,61736,313760,0.952,0.267,0.234,0,2.3,-1.2,-14.6,-32.2,11.6,0.680043947,-0.144627216,-0.60667745,-0.385387738
24,64241,313760,0.959,0.263,0.234,0,2.3,-0.8,-14.6,-32.2,11.6,0.680043947,-0.144596698,-0.606646931,-0.385387738
25,66049,313760,0.956,0.267,0.234,0,2.3,-0.4,-14.3,-32.4,11.5,0.680074465,-0.144566179,-0.606616413,-0.385418256
26,68588,313760,0.952,0.271,0.238,0,2.2,0,-14.3,-32.4,11.5,0.680104984,-0.144566179,-0.606585894,-0.385418256
27,72563,313770,0.952,0.271,0.238,0,2.2,0,-14.3,-32.4,11.5,0.680104984,-0.144566179,-0.606585894,-0.385418256
28,74513,313770,0.952,0.279,0.234,0,1.9,0.8,-14.3,-32.4,11.5,0.680166021,-0.144535661,-0.606524857,-0.385418256
29,77009,313770,0.956,0.279,0.238,0.1,1.6,1.1,-14.5,-32.2,11.8,0.680196539,-0.144535661,-0.606494339,-0.385387738
30,79539,313770,0.948,0.275,0.234,0.2,1.5,1.3,-14.5,-32.2,11.8,0.680257576,-0.144535661,-0.606433302,-0.385387738
31,81119,313780,0.952,0.283,0.238,0.3,1.4,1.6,-14.5,-32.2,11.8,0.680288095,-0.144535661,-0.606433302,-0.385357219
32,83554,313780,0.948,0.291,0.242,0.2,1.3,1.9,-14.5,-32.2,11.8,0.680318613,-0.144566179,-0.606433302,-0.385326701
33,88327,313780,0.944,0.291,0.239,0.1,1.2,2,-14.5,-32.4,11.3,0.680349132,-0.144566179,-0.606402783,-0.385296182
34,88646,313780,0.944,0.295,0.243,0,1,2.1,-14.5,-32.4,11.3,0.68037965,-0.144596698,-0.606372265,-0.385235145
35,91141,313790,0.94,0.299,0.239,0,0.9,2.3,-14.5,-32.4,11.3,0.680410169,-0.144627216,-0.606341746,-0.385235145
36,95052,313790,0.944,0.299,0.239,0,0.8,2.5,-14.5,-32.4,11.3,0.680440687,-0.144657735,-0.606341746,-0.385204627
37,97412,313790,0.94,0.295,0.239,-0.1,0.7,2.6,-14.2,-32.1,11.5,0.680471206,-0.144688253,-0.606311228,-0.385174108
38,99432,313790,0.94,0.299,0.235,-0.2,0.6,2.5,-14.2,-32.1,11.5,0.680501724,-0.144718772,-0.606280709,-0.38514359
39,101326,313800,0.936,0.299,0.239,-0.2,0.6,2.7,-14.2,-32.1,11.5,0.680532243,-0.14474929,-0.606280709,-0.385113071
40,103709,313800,0.94,0.303,0.239,-0.2,0.6,2.8,-14.2,-32.1,11.5,0.680562761,-0.14474929,-0.606250191,-0.385082553
41,107543,313800,0.94,0.303,0.239,-0.1,0.7,2.9,-14.4,-32.4,11.5,0.68059328,-0.144291513,-0.606097598,-0.385448775
42,109854,313800,0.944,0.299,0.235,-0.1,0.7,2.9,-14.4,-32.4,11.5,0.680623798,-0.144322031,-0.60606708,-0.385418256
43,112008,313810,0.936,0.303,0.239,-0.1,0.7,2.7,-14.4,-32.4,11.5,0.680654317,-0.14435255,-0.60606708,-0.385387738
44,114354,313810,0.94,0.299,0.239,-0.1,0.7,2.5,-14.4,-32.4,11.5,0.680654317,-0.144383068,-0.606036561,-0.385326701
45,116202,313810,0.94,0.299,0.243,-0.2,0.6,2.2,-14.3,-32.1,11.5,0.680715354,-0.144413587,-0.606006043,-0.385326701
46,119677,313810,0.94,0.299,0.239,-0.5,0.6,1.9,-14.3,-32.1,11.5,0.680715354,-0.144444105,-0.606006043,-0.385296182
47,121939,313820,0.94,0.299,0.239,-0.5,0.6,1.9,-14.3,-32.1,11.5,0.680715354,-0.144444105,-0.606006043,-0.385296182
48,124226,313820,0.944,0.291,0.246,-1.6,0.4,1.2,-14.3,-32.1,11.5,0.680745872,-0.144505142,-0.605945006,-0.385296182
49,126230,313820,0.94,0.287,0.243,-2.1,0.3,0.9,-14.3,-32.2,11.6,0.680776391,-0.144566179,-0.605914487,-0.385296182
50,130182,313820,0.94,0.279,0.246,-2.6,0.2,0.4,-14.3,-32.2,11.6,0.680745872,-0.144596698,-0.605883969,-0.385326701
51,132441,313830,0.94,0.275,0.239,-3.2,0.3,0,-14.3,-32.2,11.6,0.680745872,-0.144657735,-0.60585345,-0.385387738
52,134684,313830,0.94,0.267,0.242,-3.6,0.4,-0.4,-14.3,-32.2,11.6,0.680745872,-0.144688253,-0.605822932,-0.385448775
53,137058,313830,0.936,0.263,0.242,-4.1,0.2,-0.7,-14.3,-32,11.8,0.680715354,-0.14474929,-0.605792413,-0.385509812
54,138779,313830,0.944,0.259,0.246,-4.5,0.1,-0.9,-14.3,-32,11.8,0.680715354,-0.144810327,-0.605761895,-0.385570849
55,141162,313840,0.944,0.255,0.238,-5,0,-1.1,-14.3,-32,11.8,0.680654317,-0.144840846,-0.605731376,-0.385662404
56,143522,313840,0.944,0.248,0.238,-5.5,-0.1,-1.3,-14.3,-32,11.8,0.680654317,-0.144932402,-0.605670339,-0.38575396
57,147481,313840,0.948,0.244,0.242,-6.1,-0.2,-1.5,-14.3,-32.4,11.4,0.680623798,-0.144993439,-0.605639821,-0.385876034
58,149637,313840,0.948,0.24,0.242,-6.6,-0.3,-1.6,-14.3,-32.4,11.4,0.680562761,-0.145084994,-0.605578784,-0.385967589
59,151900,313850,0.948,0.236,0.242,-7,-0.4,-1.6,-14.3,-32.4,11.4,0.680532243,-0.145146031,-0.605548265,-0.386089663
60,153770,313850,0.952,0.232,0.242,-7.4,-0.8,-1.5,-14.3,-32.4,11.4,0.680471206,-0.145268105,-0.605487228,-0.386211737
61,156093,313850,0.956,0.228,0.238,-7.8,-1.1,-1.4,-14,-32.3,11.3,0.680806909,-0.145817438,-0.605090487,-0.386089663
62,160053,313850,0.956,0.228,0.238,-8.3,-1.3,-1.3,-14,-32.3,11.3,0.680745872,-0.145908994,-0.60502945,-0.386211737
63,162400,313860,0.952,0.228,0.234,-8.8,-1.5,-1.3,-14,-32.3,11.3,0.680654317,-0.146061586,-0.604998932,-0.386333811
64,164461,313860,0.952,0.22,0.234,-9.2,-1.7,-1.2,-14,-32.3,11.3,0.680623798,-0.14618366,-0.604937895,-0.386486404
65,166803,313860,0.952,0.216,0.238,-9.6,-2,-1,-14.2,-32.2,11.4,0.680562761,-0.146336253,-0.604907376,-0.386608478
66,168750,313860,0.948,0.216,0.242,-9.9,-2.2,-0.6,-14.2,-32.2,11.4,0.680501724,-0.146488845,-0.604846339,-0.386730552
67,171189,313870,0.948,0.216,0.242,-9.9,-2.2,-0.6,-14.2,-32.2,11.4,0.680501724,-0.146488845,-0.604846339,-0.386730552
68,174981,313870,0.948,0.22,0.234,-10.2,-2.5,-0.1,-14.2,-32.2,11.4,0.680349132,-0.146824549,-0.604754784,-0.387005219
69,177337,313870,0.948,0.22,0.238,-10.3,-2.6,0.2,-14.2,-32.3,11.6,0.680288095,-0.14700766,-0.604693747,-0.387127293
70,179507,313870,0.948,0.22,0.242,-10.4,-2.7,0.4,-14.2,-32.3,11.6,0.680227058,-0.147190771,-0.604663228,-0.387249367
71,181729,313880,0.948,0.224,0.238,-10.3,-2.9,0.6,-14.2,-32.3,11.6,0.680166021,-0.147373882,-0.604602191,-0.387371441
72,183719,313880,0.944,0.22,0.238,-10.2,-2.9,0.7,-14.2,-32.3,11.6,0.680104984,-0.147556993,-0.604571673,-0.387493515
73,186045,313880,0.948,0.228,0.242,-10,-2.9,0.8,-14.2,-32.2,11.5,0.680043947,-0.147740104,-0.604510636,-0.38758507
74,189174,313880,0.944,0.236,0.238,-9.8,-3,0.9,-14.2,-32.2,11.5,0.679952391,-0.147923215,-0.604480117,-0.387707144
75,192173,313890,0.944,0.232,0.246,-9.6,-3.1,1,-14.2,-32.2,11.5,0.679891354,-0.148106326,-0.604449599,-0.3877987
76,194633,313890,0.94,0.236,0.234,-9.2,-3.1,1.1,-14.2,-32.2,11.5,0.679830317,-0.148289438,-0.60441908,-0.387890255
77,196681,313890,0.944,0.244,0.238,-8.9,-3.1,1.1,-14.4,-32.1,11.8,0.67976928,-0.148472549,-0.604358043,-0.387981811
78,198839,313890,0.94,0.24,0.234,-8.5,-2.9,1,-14.4,-32.1,11.8,0.679708243,-0.148625141,-0.604327525,-0.388073366
79,201084,313900,0.94,0.244,0.238,-8.2,-2.7,0.9,-14.4,-32.1,11.8,0.679677725,-0.148777734,-0.604297006,-0.388164922
80,204175,313900,0.94,0.244,0.238,-7.8,-2.6,0.7,-14.4,-32.1,11.8,0.679616688,-0.148930326,-0.604266488,-0.388256478
81,207197,313900,0.94,0.244,0.234,-7.5,-2.3,0.6,-14.4,-31.9,11.1,0.679860836,-0.149388104,-0.603961303,-0.388134404
82,209394,313900,0.94,0.244,0.234,-7.1,-2.2,0.3,-14.4,-31.9,11.1,0.679799799,-0.149540696,-0.603930784,-0.388225959
83,212563,313910,0.944,0.244,0.234,-6.8,-2.2,0.1,-14.4,-31.9,11.1,0.679738762,-0.149632252,-0.603900266,-0.388317515
84,214906,313910,0.944,0.244,0.23,-6.6,-2.2,-0.1,-14.4,-31.9,11.1,0.679708243,-0.149754326,-0.603869747,-0.388378552
85,217107,313910,0.94,0.244,0.23,-6.4,-2.3,-0.3,-14.1,-32.1,12.1,0.679647206,-0.1498764,-0.603869747,-0.388470107
86,219386,313910,0.944,0.244,0.238,-6.4,-2.4,-0.5,-14.1,-32.1,12.1,0.679586169,-0.149998474,-0.603839228,-0.388561663
87,221263,313920,0.944,0.244,0.238,-6.4,-2.4,-0.5,-14.1,-32.1,12.1,0.679586169,-0.149998474,-0.603839228,-0.388561663
88,223586,313920,0.944,0.244,0.238,-6.4,-2.2,-0.7,-14.1,-32.1,12.1,0.679464095,-0.150212104,-0.60380871,-0.388744774
89,227632,313920,0.944,0.236,0.234,-6.6,-2.1,-0.7,-14.3,-32.1,10.9,0.679403058,-0.150303659,-0.603778191,-0.388836329
90,230168,313920,0.944,0.236,0.234,-6.9,-2.1,-0.8,-14.3,-32.1,10.9,0.679342021,-0.150425733,-0.603778191,-0.388927885
91,232236,313930,0.948,0.236,0.23,-7.1,-2.3,-1.1,-14.3,-32.1,10.9,0.679280984,-0.150517289,-0.603747673,-0.38901944
92,234437,313930,0.94,0.232,0.242,-7.1,-2.4,-1.2,-14.3,-32.1,10.9,0.679219947,-0.150608844,-0.603717154,-0.389141514
93,236260,313930,0.94,0.228,0.234,-7.2,-2.5,-1.2,-14.2,-32.4,11.3,0.67915891,-0.150761437,-0.603717154,-0.38923307
94,238589,313930,0.944,0.228,0.23,-7.2,-2.4,-1.2,-14.2,-32.4,11.3,0.679097873,-0.150852992,-0.603686636,-0.389355144
95,242847,313940,0.94,0.224,0.234,-7.1,-2.5,-1.1,-14.2,-32.4,11.3,0.679036836,-0.150975066,-0.603656117,-0.389446699
96,245146,313940,0.94,0.224,0.23,-7.1,-2.5,-1,-14.2,-32.4,11.3,0.67894528,-0.15109714,-0.603656117,-0.389538255
97,247327,313940,0.94,0.224,0.226,-6.9,-2.4,-1,-13.7,-32.4,11,0.678884243,-0.151188696,-0.603625599,-0.389660329
98,249573,313940,0.94,0.224,0.234,-6.7,-2.2,-1,-13.7,-32.4,11,0.678823206,-0.15131077,-0.60359508,-0.389751885
99,251772,313950,0.944,0.22,0.23,-6.5,-2,-0.8,-13.7,-32.4,11,0.678762169,-0.151402326,-0.60359508,-0.38984344
100,253659,313950,0.944,0.224,0.234,-6.3,-1.7,-0.6,-13.7,-32.4,11,0.678731651,-0.151493881,-0.603564562,-0.389934996
101,257591,313950,0.94,0.228,0.23,-6,-1.6,-0.4,-13.7,-32,11.7,0.679036836,-0.152226325,-0.603228858,-0.389599292
102,259665,313950,0.94,0.228,0.23,-5.7,-1.6,-0.3,-13.7,-32,11.7,0.678975799,-0.152317881,-0.603228858,-0.389660329
103,261034,313960,0.944,0.228,0.234,-5.3,-1.5,-0.2,-13.7,-32,11.7,0.67894528,-0.152409436,-0.60319834,-0.389751885
104,264421,313960,0.94,0.228,0.23,-5,-1.6,0.1,-13.7,-32,11.7,0.678914762,-0.152500992,-0.603167821,-0.389812922
105,267649,313960,0.94,0.228,0.234,-4.6,-1.6,0.4,-14,-32.4,11.4,0.678884243,-0.152562029,-0.603167821,-0.38984344
106,269586,313960,0.948,0.232,0.234,-4.3,-1.6,0.7,-14,-32.4,11.4,0.678853725,-0.152653584,-0.603137303,-0.389904477
107,271083,313970,0.948,0.232,0.234,-4.3,-1.6,0.7,-14,-32.4,11.4,0.678853725,-0.152653584,-0.603137303,-0.389904477
108,274685,313970,0.948,0.228,0.234,-3.8,-1.2,0.9,-14,-32.4,11.4,0.678792688,-0.152836695,-0.603106784,-0.389965514
109,276705,313970,0.948,0.236,0.234,-3.5,-1.2,1.1,-14,-32.5,11.4,0.678792688,-0.152897732,-0.603106784,-0.389996033
110,279705,313970,0.952,0.236,0.238,-3.2,-1,1.1,-14,-32.5,11.4,0.678762169,-0.152989288,-0.603076266,-0.389996033
111,281274,313980,0.952,0.236,0.238,-2.7,-1,1.2,-14,-32.5,11.4,0.678762169,-0.153050325,-0.603076266,-0.390026551
112,284185,313980,0.952,0.244,0.242,-2.3,-1.1,1.2,-14,-32.5,11.4,0.678731651,-0.153111362,-0.603076266,-0.390026551
113,287176,313980,0.956,0.236,0.234,-1.9,-1.2,1.1,-14.4,-32.3,11.2,0.678731651,-0.153172399,-0.603076266,-0.390026551
114,288551,313980,0.952,0.24,0.238,-1.6,-1.2,1,-14.4,-32.3,11.2,0.678731651,-0.153202918,-0.603076266,-0.390026551
115,292176,313990,0.956,0.24,0.238,-1.5,-1.3,1.1,-14.4,-32.3,11.2,0.678701132,-0.153263955,-0.603076266,-0.390026551
116,293496,313990,0.956,0.24,0.242,-1.2,-1.3,1,-14.4,-32.3,11.2,0.678701132,-0.153294473,-0.603076266,-0.390026551
117,297821,313990,0.956,0.24,0.242,-1.1,-1.3,0.9,-14,-32,11.1,0.678670614,-0.15335551,-0.603076266,-0.390026551
118,299752,313990,0.956,0.24,0.242,-1,-1.5,0.8,-14,-32,11.1,0.678670614,-0.153386029,-0.603076266,-0.390026551
119,303611,314000,0.956,0.244,0.238,-1,-1.6,0.7,-14,-32,11.1,0.678640095,-0.153416547,-0.603106784,-0.390026551
120,303611,314000,0.959,0.239,0.246,-1,-1.7,0.6,-14,-32,11.1,0.678609577,-0.153477584,-0.603106784,-0.390026551
121,307335,314000,0.959,0.243,0.242,-1,-1.8,0.6,-14.2,-31.8,10.9,0.678792688,-0.153721732,-0.602954192,-0.389904477
122,309957,314000,0.959,0.243,0.242,-1,-1.8,0.4,-14.2,-31.8,10.9,0.678762169,-0.153752251,-0.602954192,-0.389904477
123,311630,314010,0.956,0.236,0.238,-1.2,-1.8,0.2,-14.2,-31.8,10.9,0.678731651,-0.153782769,-0.60298471,-0.389904477
124,315472,314010,0.956,0.24,0.238,-1.3,-1.8,0,-14.2,-31.8,10.9,0.678701132,-0.153813288,-0.60298471,-0.389904477
125,317253,314010,0.956,0.24,0.238,-1.4,-1.9,-0.1,-13.8,-31.7,11,0.678670614,-0.153843806,-0.603015229,-0.389934996
126,319322,314010,0.956,0.24,0.242,-1.5,-2,-0.1,-13.8,-31.7,11,0.678640095,-0.153904843,-0.603015229,-0.389934996
127,321328,314020,0.956,0.24,0.242,-1.5,-2,-0.1,-13.8,-31.7,11,0.678640095,-0.153904843,-0.603015229,-0.389934996
128,323709,314020,0.956,0.239,0.246,-1.8,-1.9,-0.1,-13.8,-31.7,11,0.678579058,-0.15396588,-0.603045747,-0.389996033
129,327269,314020,0.952,0.24,0.246,-1.9,-1.9,-0.1,-13.9,-32.3,10.8,0.67854854,-0.154026917,-0.603076266,-0.389996033
130,329498,314020,0.956,0.24,0.242,-1.9,-1.8,-0.2,-13.9,-32.3,10.8,0.678518021,-0.154057436,-0.603076266,-0.390026551
131,331330,314030,0.956,0.239,0.246,-1.9,-1.7,-0.3,-13.9,-32.3,10.8,0.678487503,-0.154118473,-0.603106784,-0.39005707
132,334982,314030,0.948,0.24,0.242,-1.9,-1.6,-0.5,-13.9,-32.3,10.8,0.678456984,-0.154148991,-0.603106784,-0.390087588
133,337352,314030,0.948,0.236,0.238,-1.8,-1.4,-0.7,-14.8,-32.4,11.2,0.678426466,-0.15417951,-0.603106784,-0.390118107
134,339669,314030,0.952,0.244,0.242,-1.8,-1.2,-0.7,-14.8,-32.4,11.2,0.678395947,-0.154210028,-0.603106784,-0.390148625
135,341869,314040,0.948,0.244,0.242,-1.7,-1.1,-0.8,-14.8,-32.4,11.2,0.678365429,-0.154210028,-0.603106784,-0.390179144
136,343947,314040,0.952,0.236,0.246,-1.6,-1.1,-0.9,-14.8,-32.4,11.2,0.67833491,-0.154240547,-0.603137303,-0.390209662
137,346260,314040,0.944,0.236,0.238,-1.7,-1.1,-1.1,-14.3,-32.9,10.9,0.678304392,-0.154271065,-0.603137303,-0.390240181
138,348542,314040,0.94,0.24,0.246,-1.8,-1.2,-1.1,-14.3,-32.9,10.9,0.678273873,-0.154301584,-0.603137303,-0.390270699
139,352462,314050,0.936,0.236,0.25,-1.8,-1.2,-1.1,-14.3,-32.9,10.9,0.678243355,-0.154301584,-0.603137303,-0.390331736
140,354805,314050,0.932,0.236,0.25,-1.8,-1.2,-1.1,-14.3,-32.9,10.9,0.678212836,-0.154332102,-0.603137303,-0.390362255
141,357438,314050,0.932,0.236,0.254,-1.9,-1.2,-1,-13.9,-32.7,11.1,0.678456984,-0.154515213,-0.602862636,-0.390301218
142,359668,314050,0.932,0.236,0.254,-2.1,-1.4,-1,-13.9,-32.7,11.1,0.678395947,-0.15457625,-0.602862636,-0.390362255
143,361966,314060,0.924,0.236,0.254,-2.2,-1.5,-1,-13.9,-32.7,11.1,0.678365429,-0.154606769,-0.602862636,-0.390392773
144,363729,314060,0.92,0.228,0.254,-2.3,-1.9,-1.1,-13.9,-32.7,11.1,0.67833491,-0.154667806,-0.602862636,-0.390423292
145,366122,314060,0.916,0.232,0.25,-2.5,-2.1,-1.1,-13.8,-32.7,11.1,0.678273873,-0.154698325,-0.602893155,-0.390484329
146,370140,314060,0.909,0.236,0.254,-2.7,-2.3,-1.1,-13.8,-32.7,11.1,0.678243355,-0.154728843,-0.602893155,-0.390514847
147,372443,314070,0.909,0.236,0.254,-2.7,-2.3,-1.1,-13.8,-32.7,11.1,0.678243355,-0.154728843,-0.602893155,-0.390514847
148,374492,314070,0.905,0.236,0.258,-3.3,-2.8,-1.1,-13.8,-32.7,11.1,0.678121281,-0.154850917,-0.602954192,-0.390606403
149,376633,314070,0.901,0.232,0.258,-3.6,-3.1,-1.1,-13.8,-32.4,11.2,0.678060244,-0.154911954,-0.602954192,-0.39066744
150,379415,314070,0.905,0.236,0.258,-3.8,-3.3,-1.1,-13.8,-32.4,11.2,0.677999207,-0.15500351,-0.60298471,-0.390728477
151,382112,314080,0.909,0.24,0.266,-4,-3.4,-1.2,-13.8,-32.4,11.2,0.677907651,-0.155064547,-0.603015229,-0.390789514
152,383879,314080,0.901,0.244,0.262,-4.1,-3.4,-1.2,-13.8,-32.4,11.2,0.677846614,-0.155125584,-0.603015229,-0.390850551
153,386226,314080,0.905,0.244,0.266,-4.1,-3.4,-1.1,-15,-32.3,10.9,0.677785577,-0.155217139,-0.603045747,-0.390911588
154,389111,314080,0.909,0.252,0.266,-4.2,-3.4,-1.1,-15,-32.3,10.9,0.677694021,-0.155278176,-0.603045747,-0.390972625
155,392859,314090,0.912,0.251,0.27,-4.3,-3.4,-0.9,-15,-32.3,10.9,0.677632984,-0.155369732,-0.603076266,-0.391033662
156,395095,314090,0.916,0.259,0.27,-4.3,-3.4,-0.9,-15,-32.3,10.9,0.677571947,-0.155461287,-0.603106784,-0.391094699
157,398036,314090,0.92,0.259,0.27,-4.1,-3.4,-0.9,-13.4,-32.3,10.9,0.67751091,-0.155491806,-0.603106784,-0.391155736
158,400385,314090,0.924,0.263,0.274,-3.8,-3.2,-1,-13.4,-32.3,10.9,0.677449873,-0.15561388,-0.603137303,-0.391216773
159,402743,314100,0.932,0.275,0.274,-3.3,-3,-1.1,-13.4,-32.3,10.9,0.677388836,-0.155674917,-0.603167821,-0.391247291
160,405432,314100,0.928,0.275,0.27,-2.9,-2.9,-1.2,-13.4,-32.3,10.9,0.677327799,-0.155705435,-0.603167821,-0.391308329
161,407777,314100,0.932,0.287,0.27,-2.3,-3,-1.3,-13.7,-32.6,11.1,0.677480392,-0.15561388,-0.602862636,-0.391521958
162,410090,314100,0.936,0.286,0.274,-1.8,-3.1,-1.4,-13.7,-32.6,11.1,0.677419355,-0.155644398,-0.602923673,-0.391552477
163,412324,314110,0.936,0.294,0.274,-1.5,-3.3,-1.3,-13.7,-32.6,11.1,0.677358318,-0.155705435,-0.602954192,-0.391582995
164,415190,314110,0.936,0.294,0.274,-1.1,-3.6,-1.3,-13.7,-32.6,11.1,0.677297281,-0.155735954,-0.603015229,-0.391613514
165,417449,314110,0.94,0.302,0.274,-0.8,-3.9,-1.4,-13.4,-32.5,11,0.677236244,-0.155735954,-0.603045747,-0.391613514
166,419616,314110,0.94,0.306,0.274,-0.7,-4.1,-1.8,-13.4,-32.5,11,0.677144688,-0.155766472,-0.603106784,-0.391644032
167,421925,314120,0.94,0.306,0.274,-0.7,-4.1,-1.8,-13.4,-32.5,11,0.677144688,-0.155766472,-0.603106784,-0.391644032
168,423831,314120,0.936,0.302,0.27,-1.2,-4.9,-2.9,-13.4,-32.5,11,0.676992096,-0.155827509,-0.603259377,-0.391705069
169,426317,314120,0.924,0.31,0.271,-1.8,-5.4,-3.6,-13.1,-32.5,10.7,0.676870022,-0.155827509,-0.603320414,-0.391766106
170,428568,314120,0.924,0.31,0.267,-2.6,-6,-4.3,-13.1,-32.5,10.7,0.676747948,-0.155858028,-0.603411969,-0.391857662
171,432513,314130,0.92,0.314,0.271,-3.5,-6.4,-5,-13.1,-32.5,10.7,0.676595355,-0.155919065,-0.603503525,-0.391949217
172,434492,314130,0.916,0.314,0.267,-4.3,-7,-5.4,-13.1,-32.5,10.7,0.676442763,-0.155980102,-0.60359508,-0.392071291
173,436705,314130,0.909,0.314,0.267,-5.2,-7.5,-5.9,-15.1,-32.6,11.3,0.67629017,-0.156041139,-0.603686636,-0.392193365
174,438907,314130,0.905,0.318,0.267,-6.1,-8,-6.4,-15.1,-32.6,11.3,0.676107059,-0.156102176,-0.603747673,-0.392345958
175,441284,314140,0.897,0.318,0.267,-6.9,-8.4,-6.9,-15.1,-32.6,11.3,0.675893429,-0.156193731,-0.603839228,-0.39249855
176,443541,314140,0.893,0.318,0.271,-7.8,-8.7,-7.4,-15.1,-32.6,11.3,0.675710318,-0.156285287,-0.603930784,-0.392681661
177,446140,314140,0.885,0.318,0.275,-8.6,-8.9,-8,-13.2,-32.3,11.4,0.675496689,-0.156376843,-0.60402234,-0.392895291
178,449857,314140,0.881,0.322,0.275,-9.5,-9.3,-8.4,-13.2,-32.3,11.4,0.675252541,-0.156468398,-0.604113895,-0.393108921
179,451852,314150,0.873,0.326,0.283,-10.2,-9.6,-8.9,-13.2,-32.3,11.4,0.675008393,-0.156590472,-0.604174932,-0.393353069
180,454816,314150,0.869,0.326,0.283,-10.9,-10,-9.2,-13.2,-32.3,11.4,0.674764245,-0.156743065,-0.604266488,-0.393597217
181,456210,314150,0.862,0.334,0.288,-11.2,-10.3,-9.4,-13.2,-32.2,10.9,0.674611652,-0.156376843,-0.604083377,-0.394268624
182,459504,314150,0.862,0.334,0.288,-11.5,-10.6,-9.5,-13.2,-32.2,10.9,0.674367504,-0.156529435,-0.604174932,-0.394543291
183,461113,314160,0.862,0.342,0.296,-11.7,-11,-9.6,-13.2,-32.2,10.9,0.674092837,-0.156651509,-0.604266488,-0.394787439
184,464763,314160,0.865,0.342,0.288,-11.8,-11.3,-9.7,-13.2,-32.2,10.9,0.673818171,-0.156804102,-0.604358043,-0.395062105
185,467224,314160,0.865,0.346,0.299,-11.6,-11.5,-9.8,-13.2,-32.9,10.9,0.673543504,-0.156956694,-0.604480117,-0.395306253
186,469236,314160,0.873,0.357,0.311,-11.5,-11.5,-10,-13.2,-32.9,10.9,0.673268838,-0.157078768,-0.604571673,-0.39558092
187,472282,314170,0.873,0.357,0.311,-11.5,-11.5,-10,-13.2,-32.9,10.9,0.673268838,-0.157078768,-0.604571673,-0.39558092
188,474677,314170,0.873,0.357,0.311,-11.5,-11.5,-10,-13.2,-32.9,10.9,0.673268838,-0.157078768,-0.604571673,-0.39558092
189,476716,314170,0.881,0.361,0.315,-10.7,-10.9,-10.1,-13.1,-32.5,11.4,0.672444838,-0.15744499,-0.604876858,-0.396343883
190,478837,314170,0.885,0.369,0.323,-10.3,-10.4,-10.2,-13.1,-32.5,11.4,0.672170171,-0.157567064,-0.604998932,-0.396588031
191,481975,314180,0.889,0.365,0.319,-9.9,-10,-10.3,-13.1,-32.5,11.4,0.671926023,-0.15765862,-0.605090487,-0.396832179
192,483499,314180,0.893,0.373,0.319,-9.3,-9.7,-10.2,-13.1,-32.5,11.4,0.671681875,-0.157750175,-0.605182043,-0.397076327
193,486486,314180,0.893,0.384,0.319,-8.7,-9.6,-10,-14.3,-32.7,10.9,0.671437727,-0.157811213,-0.605273598,-0.397320475
194,489585,314180,0.893,0.384,0.319,-8.7,-9.6,-10,-14.3,-32.7,10.9,0.671437727,-0.157811213,-0.605273598,-0.397320475
195,492681,314190,0.904,0.4,0.323,-7.1,-10,-9.3,-14.3,-32.7,10.9,0.670949431,-0.157963805,-0.605517747,-0.397717215
196,494911,314190,0.904,0.404,0.319,-6.2,-10.3,-9,-14.3,-32.7,10.9,0.670705283,-0.158024842,-0.605639821,-0.397900327
197,497267,314190,0.908,0.42,0.315,-5.4,-10.7,-8.5,-11.9,-32,11,0.670491653,-0.158085879,-0.605761895,-0.398052919
198,499548,314190,0.908,0.427,0.315,-4.8,-11.4,-8,-11.9,-32,11,0.670247505,-0.158146916,-0.605914487,-0.398205512
199,501798,314200,0.908,0.431,0.311,-4.4,-12.2,-7.4,-11.9,-32,11,0.670003357,-0.158238472,-0.606097598,-0.398327586
200,503745,314200,0.912,0.439,0.311,-4.2,-12.7,-7,-11.9,-32,11,0.669759209,-0.158299509,-0.606280709,-0.39844966
201,506053,314200,0.912,0.439,0.311,-4.2,-12.7,-7,-11.9,-32,11,0.669759209,-0.158299509,-0.606280709,-0.39844966
202,509851,314200,0.897,0.455,0.304,-5,-13.5,-6.1,-12.1,-32.3,10.7,0.669270913,-0.157994324,-0.606433302,-0.399090548
203,511781,314210,0.9,0.463,0.304,-5.6,-14,-5.7,-12.1,-32.3,10.7,0.669026765,-0.158116398,-0.606616413,-0.399212622
204,513918,314210,0.897,0.475,0.293,-6.5,-14.6,-5.6,-12.1,-32.3,10.7,0.668752098,-0.15826899,-0.606799524,-0.399334696
205,516074,314210,0.889,0.491,0.289,-7.6,-15.3,-5.9,-11.8,-32.4,11,0.668477432,-0.158421583,-0.606982635,-0.399456771
206,519181,314210,0.889,0.499,0.293,-8.9,-16.2,-6.1,-11.8,-32.4,11,0.668172246,-0.158604694,-0.607165746,-0.399609363
207,522307,314220,0.889,0.499,0.293,-8.9,-16.2,-6.1,-11.8,-32.4,11,0.668172246,-0.158604694,-0.607165746,-0.399609363
208,524554,314220,0.889,0.499,0.293,-8.9,-16.2,-6.1,-11.8,-32.4,11,0.668172246,-0.158604694,-0.607165746,-0.399609363
209,526714,314220,0.873,0.534,0.282,-14.2,-18.9,-5.5,-12,-32.3,11.1,0.667165136,-0.159398175,-0.607684561,-0.400189215
210,528763,314220,0.873,0.542,0.282,-16.3,-19.9,-5.2,-12,-32.3,11.1,0.666798914,-0.159733879,-0.607837153,-0.400402844
211,531073,314230,0.873,0.542,0.282,-16.3,-19.9,-5.2,-12,-32.3,11.1,0.666798914,-0.159733879,-0.607837153,-0.400402844
212,533483,314230,0.873,0.542,0.282,-16.3,-19.9,-5.2,-12,-32.3,11.1,0.666798914,-0.159733879,-0.607837153,-0.400402844
213,537325,314230,0.865,0.554,0.278,-20.7,-21.7,-5.1,-14.3,-32.6,10.7,0.665608692,-0.160954619,-0.608325449,-0.401196326
214,538807,314230,0.85,0.566,0.279,-21,-22.1,-5.4,-14.3,-32.6,10.7,0.665211951,-0.16135136,-0.608478042,-0.401470992
215,541172,314240,0.846,0.582,0.283,-20.8,-22.3,-5.7,-14.3,-32.6,10.7,0.664784692,-0.161809137,-0.608630634,-0.401745659
216,543546,314240,0.842,0.593,0.287,-20.6,-22.5,-6.2,-14.3,-32.6,10.7,0.664357433,-0.162205878,-0.608813746,-0.402020325
217,546015,314240,0.846,0.601,0.283,-20.6,-22.7,-6.8,-12.1,-32.9,11.3,0.663930174,-0.162602618,-0.608966338,-0.40232551
218,550133,314240,0.857,0.613,0.279,-21.4,-22.9,-7.6,-12.1,-32.9,11.3,0.663472396,-0.163029878,-0.609149449,-0.402630696
219,552394,314250,0.857,0.613,0.279,-21.4,-22.9,-7.6,-12.1,-32.9,11.3,0.663472396,-0.163029878,-0.609149449,-0.402630696
220,554519,314250,0.865,0.629,0.268,-26.4,-22.3,-10.5,-12.1,-32.9,11.3,0.662526322,-0.163884396,-0.609424116,-0.403424177
221,556732,314250,0.865,0.625,0.256,-30.3,-21.3,-12.5,-12.2,-32.8,10.6,0.661427656,-0.162236396,-0.609637745,-0.405529954
222,558782,314250,0.865,0.625,0.256,-30.3,-21.3,-12.5,-12.2,-32.8,10.6,0.661427656,-0.162236396,-0.609637745,-0.405529954
223,561022,314260,0.865,0.625,0.256,-30.3,-21.3,-12.5,-12.2,-32.8,10.6,0.661427656,-0.162236396,-0.609637745,-0.405529954
224,563571,314260,0.865,0.625,0.252,-42.8,-16.6,-18.6,-12.2,-32.8,10.6,0.659840693,-0.163731803,-0.609576708,-0.407635731
225,567440,314260,0.865,0.625,0.252,-42.8,-16.6,-18.6,-12.2,-32.8,10.6,0.659840693,-0.163731803,-0.609576708,-0.407635731
226,569838,314260,0.865,0.625,0.252,-42.8,-16.6,-18.6,-12.2,-32.8,10.6,0.659840693,-0.163731803,-0.609576708,-0.407635731
227,572017,314270,0.865,0.625,0.252,-42.8,-16.6,-18.6,-12.2,-32.8,10.6,0.659840693,-0.163731803,-0.609576708,-0.407635731
228,574287,314270,0.893,0.629,0.24,-54.2,-16.8,-22.3,-12,-32.8,10.9,0.657490768,-0.166081729,-0.608996857,-0.411297952
229,577780,314270,0.893,0.629,0.24,-54.2,-16.8,-22.3,-12,-32.8,10.9,0.657490768,-0.166081729,-0.608996857,-0.411297952
230,580227,314270,0.904,0.621,0.239,-58.6,-18.3,-23.6,-11.6,-33.1,10.7,0.656178472,-0.167424543,-0.608661153,-0.413373211
231,582405,314280,0.901,0.617,0.236,-60.9,-18.9,-24.4,-11.6,-33.1,10.7,0.655476547,-0.168126469,-0.608478042,-0.414441359
232,584245,314280,0.912,0.609,0.231,-63.3,-19.4,-25.2,-11.6,-33.1,10.7,0.654774621,-0.168889431,-0.608264412,-0.415570544
233,586687,314280,0.916,0.601,0.231,-65.6,-19.6,-26.2,-13.5,-33.4,10.3,0.654042177,-0.169652394,-0.608050783,-0.416760765
234,588724,314280,0.916,0.597,0.223,-67.9,-19.6,-27.2,-13.5,-33.4,10.3,0.653279214,-0.170445875,-0.607806635,-0.417981506
235,592506,314290,0.916,0.597,0.223,-67.9,-19.6,-27.2,-13.5,-33.4,10.3,0.653279214,-0.170445875,-0.607806635,-0.417981506
236,593832,314290,0.924,0.586,0.219,-71.7,-19.1,-29.1,-13.5,-33.4,10.3,0.651692251,-0.172063356,-0.60728782,-0.420514542
237,597273,314290,0.924,0.586,0.219,-71.7,-19.1,-29.1,-13.5,-33.4,10.3,0.651692251,-0.172063356,-0.60728782,-0.420514542
238,599350,314290,0.924,0.586,0.219,-71.7,-19.1,-29.1,-13.5,-33.4,10.3,0.651692251,-0.172063356,-0.60728782,-0.420514542
239,601388,314300,0.924,0.57,0.215,-76.2,-18.4,-31.2,-11.7,-34.1,9.7,0.649250771,-0.174535356,-0.606341746,-0.424573504
240,604863,314300,0.924,0.57,0.215,-76.2,-18.4,-31.2,-11.7,-34.1,9.7,0.649250771,-0.174535356,-0.606341746,-0.424573504
241,607234,314300,0.932,0.554,0.211,-79.7,-18.4,-31.9,-11.3,-33.5,9.7,0.647572253,-0.176274911,-0.605639821,-0.427442244
242,609296,314300,0.932,0.55,0.207,-81.7,-18.5,-31.9,-11.3,-33.5,9.7,0.646717734,-0.177159948,-0.605273598,-0.428876614
243,611347,314310,0.936,0.539,0.203,-84,-18.6,-31.9,-11.3,-33.5,9.7,0.645863216,-0.178106021,-0.604876858,-0.430372021
244,614998,314310,0.932,0.535,0.191,-86.4,-18.5,-32,-11.3,-33.5,9.7,0.644978179,-0.179082614,-0.604449599,-0.431897946
245,617279,314310,0.932,0.535,0.191,-86.4,-18.5,-32,-11.3,-33.5,9.7,0.644978179,-0.179082614,-0.604449599,-0.431897946
246,619403,314310,0.944,0.523,0.179,-91.1,-18.1,-32,-11.4,-34,9.1,0.643177587,-0.181096835,-0.603503525,-0.435010834
247,621615,314320,0.944,0.523,0.179,-91.1,-18.1,-32,-11.4,-34,9.1,0.643177587,-0.181096835,-0.603503525,-0.435010834
248,623686,314320,0.94,0.527,0.163,-95.5,-17.8,-31.1,-11.4,-34,9.1,0.641346477,-0.183263649,-0.602465896,-0.438245796
249,626781,314320,0.944,0.523,0.159,-97.7,-17.7,-30.3,-10.8,-34.3,8.5,0.640430921,-0.184423353,-0.601886044,-0.439893796
250,629826,314320,0.944,0.524,0.151,-99.9,-17.9,-29.5,-10.8,-34.3,8.5,0.639515366,-0.185583056,-0.601306192,-0.441541795
251,632020,314330,0.936,0.524,0.159,-102.4,-18.2,-28.7,-10.8,-34.3,8.5,0.638569292,-0.186803797,-0.600695822,-0.443220313
252,633591,314330,0.94,0.52,0.148,-105.1,-18.6,-28,-10.8,-34.3,8.5,0.637623218,-0.188085574,-0.600054933,-0.444898831
253,636685,314330,0.944,0.512,0.151,-107.9,-19.3,-27.3,-12.1,-34.7,8.2,0.636677145,-0.189428388,-0.599383526,-0.446607868
254,639626,314330,0.948,0.516,0.14,-110.6,-20,-26.7,-12.1,-34.7,8.2,0.635700552,-0.190801721,-0.5986816,-0.448347423
255,641162,314340,0.944,0.512,0.143,-113,-20.6,-26.2,-12.1,-34.7,8.2,0.634693442,-0.192236091,-0.597979675,-0.450086978
256,643517,314340,0.944,0.504,0.139,-115.2,-21.2,-25.8,-12.1,-34.7,8.2,0.633686331,-0.19370098,-0.59724723,-0.451857051
257,646295,314340,0.944,0.496,0.135,-116.9,-21.7,-25.7,-10.8,-34.8,8,0.632648701,-0.195196387,-0.596484268,-0.453657643
258,649724,314340,0.952,0.5,0.139,-118.1,-22,-25.7,-10.8,-34.8,8,0.631580554,-0.196722312,-0.595751823,-0.455458235
259,651717,314350,0.948,0.5,0.135,-118.6,-22.2,-25.9,-10.8,-34.8,8,0.630542924,-0.198217719,-0.594988861,-0.457258827
260,654871,314350,0.948,0.496,0.135,-118.4,-22.2,-26.1,-10.8,-34.8,8,0.629474776,-0.199743645,-0.594225898,-0.45905942
261,657225,314350,0.944,0.5,0.135,-117.2,-21.7,-27,-10.7,-35.3,7.4,0.627430036,-0.200201422,-0.594409009,-0.461378826
262,659244,314350,0.948,0.5,0.135,-117.2,-21.7,-27,-10.7,-35.3,7.4,0.626361888,-0.201696829,-0.593646046,-0.463179418
263,661636,314360,0.944,0.5,0.135,-116.5,-21.3,-27.7,-10.7,-35.3,7.4,0.625263222,-0.203131199,-0.592883084,-0.46498001
264,664717,314360,0.944,0.492,0.131,-116,-21,-28.4,-10.7,-35.3,7.4,0.624195074,-0.204565569,-0.592120121,-0.466750084
265,666194,314360,0.94,0.496,0.132,-115.8,-20.6,-29.2,-10.3,-36,6.8,0.623126926,-0.20596942,-0.591357158,-0.468550676
266,669551,314360,0.944,0.492,0.131,-115.9,-20.3,-30,-10.3,-36,6.8,0.62202826,-0.207373272,-0.590563677,-0.470381787
267,671670,314370,0.944,0.492,0.131,-115.9,-20.3,-30,-10.3,-36,6.8,0.62202826,-0.207373272,-0.590563677,-0.470381787
268,673845,314370,0.944,0.489,0.131,-117.4,-19.7,-31.9,-10.3,-36,6.8,0.619800409,-0.210150456,-0.588976714,-0.474044008
269,676203,314370,0.948,0.489,0.127,-118.6,-19.4,-32.8,-10.3,-35.8,6.3,0.618671224,-0.211523789,-0.588183233,-0.475936155
270,679957,314370,0.944,0.481,0.131,-120.1,-18.9,-33.6,-10.3,-35.8,6.3,0.617511521,-0.212897122,-0.587328715,-0.477828303
271,682339,314380,0.944,0.481,0.131,-120.1,-18.9,-33.6,-10.3,-35.8,6.3,0.617511521,-0.212897122,-0.587328715,-0.477828303
272,684536,314380,0.952,0.453,0.123,-123.4,-18.1,-35.1,-10.3,-35.8,6.3,0.615161596,-0.215704825,-0.58558916,-0.481734672
273,686745,314380,0.956,0.445,0.131,-124.9,-17.7,-35.8,-10.9,-36.1,5.5,0.613971374,-0.217108676,-0.584673605,-0.483748894
274,688892,314380,0.956,0.441,0.123,-126,-17.5,-36.6,-10.9,-36.1,5.5,0.612750633,-0.218512528,-0.583758049,-0.485763115
275,691127,314390,0.952,0.43,0.127,-126.8,-17.2,-37.4,-10.9,-36.1,5.5,0.611529893,-0.219916379,-0.582811975,-0.487777337
276,693497,314390,0.956,0.426,0.13,-127.3,-17,-38,-10.9,-36.1,5.5,0.610309153,-0.221289712,-0.581865902,-0.489822077
277,697309,314390,0.96,0.418,0.13,-127.9,-17,-38.5,-10.4,-35.8,4.9,0.609057894,-0.222693564,-0.580919828,-0.491866817
278,699505,314390,0.956,0.414,0.13,-128.5,-17.4,-39,-10.4,-35.8,4.9,0.607776116,-0.224097415,-0.579943236,-0.493942076
279,702360,314400,0.96,0.406,0.13,-129.3,-17.9,-39.3,-10.4,-35.8,4.9,0.606494339,-0.225501267,-0.578997162,-0.496017335
280,703791,314400,0.96,0.398,0.126,-130.1,-18.6,-39.6,-10.4,-35.8,4.9,0.605182043,-0.226935636,-0.578020569,-0.498092593
281,706047,314400,0.956,0.386,0.126,-131.9,-19.8,-39.7,-9.9,-36.2,4.8,0.603045747,-0.228064821,-0.577990051,-0.500167852
282,709985,314400,0.956,0.375,0.126,-131.9,-19.8,-39.7,-9.9,-36.2,4.8,0.601702933,-0.22952971,-0.577013459,-0.50224311
283,712311,314410,0.96,0.367,0.126,-132.6,-20.3,-39.6,-9.9,-36.2,4.8,0.600360118,-0.230994598,-0.576036866,-0.504348888
284,714360,314410,0.956,0.363,0.126,-133,-20.6,-39.6,-9.9,-36.2,4.8,0.598986785,-0.232459487,-0.575029756,-0.506424146
285,716672,314410,0.956,0.355,0.126,-133.1,-20.7,-39.7,-9.6,-36.3,3.7,0.597613453,-0.233924375,-0.574022645,-0.508499405
286,719668,314410,0.956,0.347,0.13,-132.6,-20.6,-39.6,-9.6,-36.3,3.7,0.59624012,-0.235389264,-0.573015534,-0.510574664
287,721997,314420,0.956,0.347,0.13,-132.6,-20.6,-39.6,-9.6,-36.3,3.7,0.59624012,-0.235389264,-0.573015534,-0.510574664
288,723671,314420,0.952,0.343,0.137,-130.5,-20.2,-39,-9.6,-36.3,3.7,0.593493454,-0.238258003,-0.571031831,-0.514664144
289,726910,314420,0.952,0.339,0.153,-128.8,-20,-38.6,-9.4,-36.2,3.4,0.592120121,-0.239661855,-0.57002472,-0.516647847
290,730452,314420,0.948,0.331,0.165,-126.7,-19.7,-38.1,-9.4,-36.2,3.4,0.590777306,-0.241065706,-0.569048128,-0.51863155
291,732537,314430,0.944,0.335,0.169,-124.4,-19.1,-37.4,-9.4,-36.2,3.4,0.589465011,-0.242408521,-0.568102054,-0.520554216
292,734082,314430,0.944,0.335,0.177,-121.8,-18.3,-36.7,-9.4,-36.2,3.4,0.588183233,-0.243720817,-0.567125462,-0.522446364
293,737213,314430,0.94,0.343,0.188,-119,-17.3,-35.8,-9.3,-37,2.3,0.586901456,-0.245002594,-0.566179388,-0.524277474
294,739426,314430,0.94,0.35,0.189,-115.8,-16.2,-35.1,-9.3,-37,2.3,0.585711234,-0.246253853,-0.565263833,-0.526078066
295,741751,314440,0.944,0.35,0.185,-111.9,-14.9,-34.4,-9.3,-37,2.3,0.584521012,-0.247413556,-0.564348277,-0.527817621
296,743790,314440,0.944,0.362,0.177,-107.5,-13.5,-33.9,-9.3,-37,2.3,0.583391827,-0.248542741,-0.56346324,-0.529496139
297,746047,314440,0.944,0.362,0.177,-107.5,-13.5,-33.9,-9.3,-37,2.3,0.583391827,-0.248542741,-0.56346324,-0.529496139
298,748558,314440,0.952,0.386,0.154,-96.1,-10.8,-33.4,-9.2,-37,1.7,0.581225013,-0.250465407,-0.561815241,-0.532639546
299,752543,314450,0.952,0.394,0.142,-89,-9.9,-33.2,-9.2,-37,1.7,0.580248421,-0.251319926,-0.561082797,-0.534104434
300,754123,314450,0.952,0.394,0.142,-89,-9.9,-33.2,-9.2,-37,1.7,0.580248421,-0.251319926,-0.561082797,-0.534104434
301,756226,314450,0.968,0.438,0.095,-65.4,-8.7,-33,-8.5,-37.2,1.3,0.577776421,-0.252418592,-0.56080813,-0.536515397
302,758632,314450,0.968,0.438,0.095,-65.4,-8.7,-33,-8.5,-37.2,1.3,0.576921903,-0.252967925,-0.560350352,-0.537705618
303,762353,314460,0.968,0.438,0.095,-65.4,-8.7,-33,-8.5,-37.2,1.3,0.576921903,-0.252967925,-0.560350352,-0.537705618
304,764577,314460,0.937,0.49,0.053,-49.9,-8.8,-32.1,-8.5,-37.2,1.3,0.575365459,-0.253730888,-0.559648427,-0.53971984
305,766755,314460,0.933,0.514,0.046,-43.4,-9.2,-31.7,-8.5,-37.4,1.1,0.574633015,-0.254005554,-0.559434797,-0.540604877
306,768916,314460,0.929,0.526,0.03,-39,-9.9,-31.9,-8.5,-37.4,1.1,0.573931089,-0.254219184,-0.559282205,-0.541428877
307,771133,314470,0.929,0.526,0.03,-39,-9.9,-31.9,-8.5,-37.4,1.1,0.573931089,-0.254219184,-0.559282205,-0.541428877
308,773533,314470,0.89,0.542,0.004,-40.6,-10.5,-35,-8.5,-37.4,1.1,0.572405164,-0.254615925,-0.559007538,-0.543107395
309,778245,314470,0.89,0.542,0.004,-40.6,-10.5,-35,-8.5,-37.4,1.1,0.572405164,-0.254615925,-0.559007538,-0.543107395
310,778539,314470,0.882,0.503,-0.023,-57.4,-8.8,-42.3,-8.2,-37.6,1,0.57063509,-0.255165258,-0.558427686,-0.545274209
311,781091,314480,0.878,0.476,-0.023,-69.1,-7.6,-47.3,-8.2,-37.6,1,0.569597461,-0.255561998,-0.557969909,-0.54667806
312,784998,314480,0.874,0.452,-0.019,-81,-6.5,-52.3,-8.2,-37.6,1,0.568437757,-0.255989257,-0.557359539,-0.548265023
313,787280,314480,0.875,0.421,-0.02,-92.1,-6,-56.9,-8,-37.7,0.4,0.567186499,-0.256538591,-0.556657613,-0.550065615
314,789335,314480,0.89,0.346,-0.013,-101.7,-6.3,-60.6,-8,-37.7,0.4,0.565813166,-0.257118442,-0.555864132,-0.552018799
315,791149,314490,0.898,0.311,-0.006,-109.3,-7.7,-63.1,-8,-37.7,0.4,0.564317759,-0.25778985,-0.554979095,-0.55406354
316,795021,314490,0.91,0.271,0.004,-115.2,-10.1,-64.2,-8,-37.7,0.4,0.562791833,-0.258552812,-0.55406354,-0.556199835
317,797369,314490,0.925,0.204,0.034,-119.7,-13.2,-64.3,-7.6,-37.6,0,0.561174352,-0.259407331,-0.553147984,-0.558366649
318,799501,314490,0.925,0.204,0.034,-119.7,-13.2,-64.3,-7.6,-37.6,0,0.561174352,-0.259407331,-0.553147984,-0.558366649
319,801695,314500,0.953,0.136,0.064,-125.7,-19.9,-62.6,-7.6,-37.6,0,0.557756279,-0.261360515,-0.551255837,-0.562700278
320,803891,314500,0.96,0.108,0.08,-127.6,-23.2,-60.9,-7.6,-37.6,0,0.556016724,-0.2624897,-0.550340281,-0.564836573
321,806425,314500,0.984,0.064,0.114,-130.3,-29.3,-56.4,-6.6,-37.9,-0.9,0.554216132,-0.264351329,-0.549607837,-0.566423536
322,808752,314500,0.991,0.049,0.125,-130.3,-29.3,-56.4,-6.6,-37.9,-0.9,0.55241554,-0.265602588,-0.548661763,-0.568498795
323,811059,314510,0.991,0.049,0.125,-130.3,-29.3,-56.4,-6.6,-37.9,-0.9,0.55241554,-0.265602588,-0.548661763,-0.568498795
324,814901,314510,0.991,0.033,0.137,-130.6,-34.2,-49.6,-6.6,-37.9,-0.9,0.548814356,-0.268349254,-0.546800134,-0.572466201
325,817261,314510,0.995,0.036,0.156,-129.6,-36,-45.1,-6.6,-38.2,-1.8,0.547074801,-0.269814142,-0.545884579,-0.574358348
326,819473,314510,0.991,0.044,0.168,-127.7,-37.4,-40.2,-6.6,-38.2,-1.8,0.545365764,-0.271309549,-0.544969024,-0.576128422
327,821751,314520,0.991,0.044,0.168,-127.7,-37.4,-40.2,-6.6,-38.2,-1.8,0.545365764,-0.271309549,-0.544969024,-0.576128422
328,823717,314520,0.979,0.099,0.193,-121.5,-38.6,-28.8,-6.6,-38.2,-1.8,0.542161321,-0.274452956,-0.543137913,-0.579363384
329,827105,314520,0.975,0.118,0.205,-117.2,-38.3,-23,-6.7,-37.9,-2.1,0.540726951,-0.276070437,-0.542252876,-0.580767235
330,829274,314520,0.971,0.142,0.205,-112.2,-37.2,-17.7,-6.7,-37.9,-2.1,0.539384136,-0.277657399,-0.54136784,-0.582079531
331,831596,314530,0.967,0.169,0.213,-106.6,-35.5,-13,-6.7,-37.9,-2.1,0.538132878,-0.279183325,-0.540513321,-0.583300272
332,833611,314530,0.96,0.216,0.218,-100.6,-33.2,-8.8,-6.7,-37.9,-2.1,0.537034211,-0.28070925,-0.539689322,-0.584368419
333,836734,314530,0.952,0.248,0.214,-94.2,-30.6,-5.6,-6.1,-38.4,-2.6,0.5360271,-0.282113102,-0.538865322,-0.58537553
334,838816,314530,0.948,0.271,0.215,-87.6,-27.8,-3.3,-6.1,-38.4,-2.6,0.535111545,-0.283455916,-0.538102359,-0.586260567
335,841166,314540,0.924,0.323,0.212,-80.9,-25.1,-1.7,-6.1,-38.4,-2.6,0.534287545,-0.284707175,-0.537369915,-0.587084567
336,845042,314540,0.928,0.331,0.2,-74.4,-22.5,-1,-6.1,-38.4,-2.6,0.533555101,-0.285866878,-0.536698508,-0.587817011
337,847379,314540,0.932,0.366,0.189,-68.2,-20.3,-1.1,-6.7,-38,-2.9,0.532853175,-0.286904508,-0.536057619,-0.588488418
338,849698,314540,0.936,0.37,0.165,-62.6,-18.4,-1.9,-6.7,-38,-2.9,0.532212287,-0.287850581,-0.535477767,-0.589129307
339,851764,314550,0.948,0.406,0.158,-57.6,-16.7,-3.4,-6.7,-38,-2.9,0.531632435,-0.288674581,-0.534958953,-0.589739677
340,854819,314550,0.948,0.418,0.142,-53.4,-14.8,-5.3,-6.7,-38,-2.9,0.531052583,-0.289437544,-0.534470656,-0.590350047
341,857200,314550,0.925,0.434,0.135,-47.5,-9.6,-9.9,-6.2,-38.3,-3.5,0.530167547,-0.290017396,-0.534531693,-0.590807825
342,859379,314550,0.921,0.434,0.131,-47.5,-9.6,-9.9,-6.2,-38.3,-3.5,0.529618213,-0.290566729,-0.534073916,-0.591418195
343,861628,314560,0.925,0.43,0.123,-46.3,-7.1,-12.6,-6.2,-38.3,-3.5,0.52906888,-0.291055025,-0.533646657,-0.592059084
344,863718,314560,0.929,0.43,0.115,-46.1,-5.5,-15.3,-6.2,-38.3,-3.5,0.528519547,-0.291482284,-0.533219398,-0.592730491
345,866100,314560,0.936,0.426,0.115,-46.7,-5.1,-18.2,-6.4,-38.8,-3.2,0.527939695,-0.291879025,-0.532792138,-0.593462935
346,869931,314560,0.933,0.403,0.119,-47.7,-5.5,-21.1,-6.4,-38.8,-3.2,0.527298807,-0.292245247,-0.532364879,-0.594225898
347,872335,314570,0.929,0.395,0.123,-49.2,-6.3,-23.8,-6.4,-38.8,-3.2,0.526596881,-0.292641987,-0.53193762,-0.595019379
348,874073,314570,0.929,0.383,0.13,-51.4,-7.2,-25.8,-6.4,-38.8,-3.2,0.525833918,-0.293008209,-0.53154088,-0.595873898
349,877115,314570,0.933,0.344,0.13,-54.3,-8.4,-27,-6.1,-38.3,-3.8,0.525040437,-0.293435469,-0.531083102,-0.596758934
350,878660,314570,0.94,0.32,0.133,-58.2,-9.9,-27.6,-6.1,-38.3,-3.8,0.524185919,-0.293923765,-0.530625324,-0.59767449
351,882455,314580,0.944,0.296,0.133,-62.6,-11.7,-27.4,-6.1,-38.3,-3.8,0.523300882,-0.294473098,-0.53010651,-0.598620563
352,883795,314580,0.956,0.276,0.133,-67.2,-13.5,-26.8,-6.1,-38.3,-3.8,0.522354808,-0.295083468,-0.529557176,-0.599627674
353,886129,314580,0.972,0.237,0.14,-71.5,-15.4,-25.9,-5.6,-38,-3.9,0.521378216,-0.295815912,-0.528977325,-0.600665304
354,888501,314580,0.976,0.221,0.147,-75.1,-17,-25,-5.6,-38,-3.9,0.520371105,-0.296609394,-0.528305918,-0.601702933
355,892399,314590,0.976,0.205,0.151,-77.9,-18.2,-24.2,-5.6,-38,-3.9,0.519333476,-0.297433393,-0.527665029,-0.602771081
356,894652,314590,0.983,0.186,0.158,-79.6,-18.9,-23.4,-5.6,-38,-3.9,0.518295846,-0.29831843,-0.526993622,-0.60380871
357,896772,314590,0.987,0.174,0.166,-80.5,-19.4,-22.5,-6,-38.3,-4.5,0.517227699,-0.299233985,-0.526291696,-0.604876858
358,898974,314590,0.983,0.166,0.166,-80.7,-19.7,-21.4,-6,-38.3,-4.5,0.516190069,-0.300149541,-0.52558977,-0.605914487
359,901056,314600,0.976,0.162,0.162,-80.4,-19.9,-20.2,-6,-38.3,-4.5,0.515182958,-0.301095614,-0.524887844,-0.606921598
360,904693,314600,0.979,0.158,0.166,-79.6,-20,-18.9,-6,-38.3,-4.5,0.514175848,-0.302041688,-0.524185919,-0.607928709
361,906981,314600,0.968,0.162,0.166,-76.8,-20.6,-16,-5.9,-38.1,-5,0.513626514,-0.304483169,-0.523483993,-0.607776116
362,908845,314600,0.968,0.162,0.166,-76.8,-20.6,-16,-5.9,-38.1,-5,0.512649922,-0.305459761,-0.522812586,-0.608691671
363,911115,314610,0.968,0.158,0.166,-75.1,-21,-14.1,-5.9,-38.1,-5,0.511734367,-0.306405835,-0.522141179,-0.609576708
364,915168,314610,0.968,0.166,0.17,-73.3,-21.3,-11.8,-5.9,-38.1,-5,0.510818812,-0.307382427,-0.521469771,-0.610400708
365,916944,314610,0.956,0.17,0.163,-71.3,-21.8,-9.6,-5.8,-38.5,-5.8,0.509964293,-0.30835902,-0.520828883,-0.611163671
366,919200,314610,0.956,0.178,0.167,-69,-22.3,-7.5,-5.8,-38.5,-5.8,0.509170812,-0.309335612,-0.520218513,-0.611865596
367,921218,314620,0.956,0.178,0.167,-69,-22.3,-7.5,-5.8,-38.5,-5.8,0.509170812,-0.309335612,-0.520218513,-0.611865596
368,923561,314620,0.932,0.198,0.175,-64.3,-23.6,-4.5,-5.8,-38.5,-5.8,0.507614368,-0.311288797,-0.519058809,-0.613177892
369,927618,314620,0.925,0.19,0.175,-62,-24.3,-3.7,-5.8,-38.2,-5.7,0.506851405,-0.312265389,-0.518509476,-0.613727226
370,929786,314620,0.929,0.198,0.179,-59.8,-25.1,-3.4,-5.8,-38.2,-5.7,0.506118961,-0.313211463,-0.51802118,-0.61424604
371,931976,314630,0.913,0.206,0.179,-57.6,-25.8,-3.3,-5.8,-38.2,-5.7,0.505386517,-0.314157537,-0.517532884,-0.614795373
372,933573,314630,0.909,0.21,0.18,-55.6,-26.5,-3.4,-5.8,-38.2,-5.7,0.504654073,-0.31510361,-0.517105625,-0.61528367
373,937328,314630,0.909,0.217,0.184,-53.8,-27.1,-3.5,-4.8,-38.4,-6.2,0.503921628,-0.316019166,-0.516708884,-0.615741447
374,939620,314630,1.034,0.248,0.17,-52.1,-27.4,-3.4,-4.8,-38.4,-6.2,0.503219703,-0.316873684,-0.516342662,-0.616168706
375,941834,314640,1.038,0.255,0.19,-50.5,-27.2,-2.9,-4.8,-38.4,-6.2,0.502517777,-0.317789239,-0.51597644,-0.616595965
376,944089,314640,0.987,0.24,0.214,-48.8,-25.9,-1.2,-4.8,-38.4,-6.2,0.501876888,-0.318674276,-0.515610218,-0.616962188
377,946158,314640,0.975,0.244,0.214,-47,-23.1,2.9,-5.4,-38.5,-6.7,0.501327555,-0.319528794,-0.515213477,-0.617297891
378,948633,314640,0.913,0.244,0.231,-45.7,-18.6,9.3,-5.4,-38.5,-6.7,0.500930815,-0.320383312,-0.514725181,-0.617603076
379,952313,314650,0.874,0.24,0.255,-45.2,-13.2,16,-5.4,-38.5,-6.7,0.500656148,-0.321237831,-0.514145329,-0.617816706
380,954650,314650,0.924,0.263,0.243,-45.8,-7.9,20.7,-5.4,-38.5,-6.7,0.500534074,-0.322092349,-0.513473922,-0.618060854
381,956808,314650,0.991,0.274,0.245,-50.9,0.3,20.6,-5.8,-38.3,-7,0.500595111,-0.323129978,-0.512558367,-0.618243965
382,960129,314650,0.979,0.259,0.242,-50.9,0.3,20.6,-5.8,-38.3,-7,0.500503555,-0.32392346,-0.511734367,-0.618579669
383,962760,314660,0.874,0.217,0.243,-55,4.4,18.4,-5.8,-38.3,-7,0.500412,-0.324655904,-0.510818812,-0.619006928
384,965283,314660,0.772,0.171,0.252,-59.4,9.4,17.1,-5.8,-38.3,-7,0.500320444,-0.325388348,-0.509781182,-0.619556261
385,967588,314660,0.733,0.14,0.248,-62.4,14,15.7,-6,-38.1,-6.4,0.500259407,-0.326059755,-0.508682516,-0.62019715
386,969711,314660,0.78,0.14,0.248,-62.9,16.1,12.4,-6,-38.1,-6.4,0.500167852,-0.326639607,-0.507553331,-0.620868557
387,971161,314670,0.78,0.14,0.248,-62.9,16.1,12.4,-6,-38.1,-6.4,0.500167852,-0.326639607,-0.507553331,-0.620868557
388,974834,314670,0.94,0.134,0.245,-54.6,8.5,-2.7,-6,-38.1,-6.4,0.499618519,-0.327646718,-0.505722221,-0.622272408
389,976980,314670,0.936,0.126,0.252,-46.5,1.8,-9.4,-5.9,-38,-7.1,0.499191259,-0.32801294,-0.505142369,-0.622882778
390,979225,314670,0.952,0.145,0.256,-37.1,-3.6,-11.1,-5.9,-38,-7.1,0.498733482,-0.328348643,-0.504776147,-0.623401593
391,981986,314680,0.979,0.153,0.26,-27.4,-6.7,-8,-5.9,-38,-7.1,0.498336741,-0.328653829,-0.504531999,-0.623737297
392,984399,314680,0.998,0.172,0.271,-18.6,-7.6,-2.5,-5.9,-38,-7.1,0.498092593,-0.328928495,-0.504379406,-0.623920408
393,986519,314680,1.002,0.176,0.268,-11.5,-6.8,3,-4.6,-38,-7.4,0.497970519,-0.329172643,-0.504257332,-0.623950926
394,989248,314680,1.014,0.191,0.264,-6.5,-4.9,7.1,-4.6,-38,-7.4,0.497970519,-0.329386273,-0.504165777,-0.623920408
395,992128,314690,1.01,0.192,0.26,-3.4,-2.3,9.4,-4.6,-38,-7.4,0.498062075,-0.329569384,-0.504074221,-0.623828852
396,994300,314690,1.014,0.196,0.244,-1.8,0.4,9.7,-4.6,-38,-7.4,0.498184149,-0.329691458,-0.503982665,-0.623767815
397,996222,314690,1.006,0.2,0.229,-0.9,3.2,8.4,-6.1,-38.1,-7.1,0.498306223,-0.329752495,-0.50389111,-0.623706778
398,999776,314690,1.003,0.2,0.213,-0.3,5.8,6,-6.1,-38.1,-7.1,0.498458815,-0.329752495,-0.503769036,-0.62367626
399,1001128,314700,0.983,0.189,0.174,0.4,7.9,3.2,-6.1,-38.1,-7.1,0.498580889,-0.329660939,-0.503646962,-0.623706778
400,1004916,314700,0.979,0.186,0.155,1.3,9.7,0.4,-6.1,-38.1,-7.1,0.498702963,-0.329508347,-0.503555406,-0.623737297
401,1006832,314700,0.964,0.167,0.127,3.5,12,-4.6,-6.1,-38.1,-7.2,0.498886074,-0.329569384,-0.503524888,-0.623615223
402,1008668,314700,0.948,0.155,0.119,3.5,12,-4.6,-6.1,-38.1,-7.2,0.49897763,-0.329325236,-0.503463851,-0.623737297
403,1011612,314710,0.941,0.147,0.116,4.5,12.3,-6.9,-6.1,-38.1,-7.2,0.499069185,-0.329020051,-0.503433332,-0.623828852
404,1014613,314710,0.941,0.144,0.104,5.2,11.7,-9,-6.1,-38.1,-7.2,0.499099704,-0.328684347,-0.503433332,-0.623981445
405,1016162,314710,0.956,0.128,0.096,5.3,10.1,-10.7,-5.9,-37.7,-7.1,0.499099704,-0.328379162,-0.503494369,-0.624103519
406,1019108,314710,1.151,0.192,0.112,4.4,7.1,-11.5,-5.9,-37.7,-7.1,0.499069185,-0.328104495,-0.503555406,-0.624225593
407,1021854,314720,1.151,0.192,0.112,4.4,7.1,-11.5,-5.9,-37.7,-7.1,0.499069185,-0.328104495,-0.503555406,-0.624225593
408,1024637,314720,1.362,0.272,0.125,-3.3,0.1,-4.7,-5.9,-37.7,-7.1,0.498886074,-0.327921384,-0.503616443,-0.624439222
409,1026262,314720,1.218,0.179,0.131,-12.7,-1.2,8.1,-5.8,-37.8,-7.3,0.498886074,-0.328165532,-0.503372295,-0.624469741
410,1030498,314720,1.058,0.082,0.168,-27.3,1,29.3,-5.8,-37.8,-7.3,0.499099704,-0.328775903,-0.502792444,-0.624469741
411,1032049,314730,0.956,0.009,0.18,-46.1,7.2,56,-5.8,-37.8,-7.3,0.499618519,-0.329783013,-0.501693777,-0.624408704
412,1033536,314730,1.132,0.038,0.185,-67.3,15.7,82.1,-5.8,-37.8,-7.3,0.500412,-0.331186865,-0.499984741,-0.624378185
413,1036527,314730,1.034,-0.082,0.217,-88.2,23.6,101.3,-4.6,-38,-7.4,0.501419111,-0.332956938,-0.497787408,-0.624378185
414,1039392,314730,0.882,-0.206,0.214,-106.9,30.1,111.4,-4.6,-38,-7.4,0.502487259,-0.334910123,-0.495193335,-0.624561296
415,1042405,314740,0.89,-0.256,0.194,-122.2,35.3,113.4,-4.6,-38,-7.4,0.503524888,-0.336985382,-0.492324595,-0.624866482
416,1043752,314740,0.792,-0.353,0.198,-133.1,39.8,109.6,-4.6,-38,-7.4,0.504470962,-0.339091159,-0.489242225,-0.625385296
417,1046751,314740,0.808,-0.432,0.201,-138.5,43.1,100.4,-6.2,-37.5,-7.8,0.505264443,-0.34110538,-0.486129337,-0.626087222
418,1049849,314740,0.792,-0.467,0.22,-137,44.6,86.1,-6.2,-37.5,-7.8,0.505874813,-0.342905972,-0.483138524,-0.626911222
419,1051270,314750,0.87,-0.468,0.223,-128.7,44,68.5,-6.2,-37.5,-7.8,0.506332591,-0.344431898,-0.480361339,-0.627826777
420,1054379,314750,0.711,-0.576,0.209,-114.6,41.3,50.6,-6.2,-37.5,-7.8,0.506576739,-0.345683157,-0.477950377,-0.628803369
421,1057350,314750,0.871,-0.511,0.203,-75.7,30.6,25.6,-6.2,-37.2,-9,0.507217627,-0.347117527,-0.475814081,-0.629108554
422,1059659,314750,0.871,-0.511,0.203,-75.7,30.6,25.6,-6.2,-37.2,-9,0.507309183,-0.347788934,-0.474227119,-0.629840999
423,1061994,314760,1.05,-0.493,0.172,-53.2,21.6,19.4,-6.2,-37.2,-9,0.507400739,-0.34827723,-0.473128452,-0.630329295
424,1063616,314760,1.113,-0.498,0.16,-30.2,10.5,17.4,-6.2,-37.2,-9,0.507522813,-0.348643452,-0.472457045,-0.630542924
425,1066024,314760,1.129,-0.486,0.159,-8.6,0,20.9,-6.3,-37.4,-8.9,0.507766961,-0.348948637,-0.472182379,-0.630390332
426,1069398,314760,1.156,-0.471,0.151,10.4,-7.4,30.2,-6.3,-37.4,-8.9,0.508163701,-0.349253822,-0.472182379,-0.629871517
427,1071262,314770,1.156,-0.471,0.151,10.4,-7.4,30.2,-6.3,-37.4,-8.9,0.508163701,-0.349253822,-0.472182379,-0.629871517
428,1074593,314770,1.218,-0.412,0.12,39,-11.3,54.4,-6.3,-37.4,-8.9,0.509781182,-0.349833674,-0.472579119,-0.627979369
429,1076732,314770,1.234,-0.404,0.108,47.9,-10.2,62.8,-6.7,-37.3,-8.7,0.510910367,-0.350077822,-0.472853786,-0.626697592
430,1079272,314770,1.25,-0.385,0.096,53.7,-8.6,67.3,-6.7,-37.3,-8.7,0.512131108,-0.350291452,-0.473189489,-0.625324259
431,1082727,314780,1.258,-0.369,0.065,57.6,-7.3,68.3,-6.7,-37.3,-8.7,0.513443403,-0.350474563,-0.473525193,-0.623920408
432,1085019,314780,1.258,-0.365,0.041,60.4,-6.3,66.8,-6.7,-37.3,-8.7,0.514755699,-0.350566118,-0.473921934,-0.622486038
433,1087364,314780,1.254,-0.364,0.029,62.7,-6,63.9,-5.7,-37.8,-8.5,0.516037477,-0.350596637,-0.474349193,-0.621082186
434,1089495,314780,1.242,-0.375,-0.005,65.1,-6.3,60.4,-5.7,-37.8,-8.5,0.517288736,-0.350596637,-0.474837489,-0.619678335
435,1091198,314790,1.231,-0.383,-0.012,67.5,-7.4,56.8,-5.7,-37.8,-8.5,0.518478957,-0.350505081,-0.475386822,-0.618274483
436,1093535,314790,1.223,-0.399,-0.02,70.2,-8.9,53.7,-5.7,-37.8,-8.5,0.519669179,-0.350383007,-0.476027711,-0.616870632
437,1097416,314790,1.219,-0.418,-0.032,73.1,-10.5,51,-8,-37,-7.9,0.520798364,-0.350230415,-0.476729637,-0.615436262
438,1099679,314790,1.2,-0.453,-0.052,76.3,-12.1,49.4,-8,-37,-7.9,0.521897031,-0.350047304,-0.477523118,-0.614001892
439,1101809,314800,1.196,-0.464,-0.064,79.9,-13.5,48.8,-8,-37,-7.9,0.523026215,-0.349833674,-0.478377636,-0.612506485
440,1103873,314800,1.184,-0.468,-0.075,84.1,-14.4,49.3,-8,-37,-7.9,0.524185919,-0.349559008,-0.479293191,-0.610950041
441,1106084,314800,1.177,-0.483,-0.099,93.4,-14.6,52.4,-8.3,-37.2,-7.4,0.525437178,-0.349253822,-0.480300302,-0.609271523
442,1108561,314800,1.161,-0.487,-0.11,93.4,-14.6,52.4,-8.3,-37.2,-7.4,0.526688437,-0.348918119,-0.481307413,-0.607562487
443,1112537,314810,1.157,-0.483,-0.122,98.2,-13.7,54.7,-8.3,-37.2,-7.4,0.528031251,-0.348551897,-0.482345042,-0.605792413
444,1114765,314810,1.169,-0.479,-0.134,102.8,-12.6,57.6,-8.3,-37.2,-7.4,0.529435102,-0.348124638,-0.48341319,-0.603961303
445,1117137,314810,1.192,-0.487,-0.138,107.4,-11.1,61.1,-8.3,-37.4,-6.9,0.530930509,-0.34766686,-0.484481338,-0.602038636
446,1119340,314810,1.208,-0.495,-0.143,112,-9.5,65.2,-8.3,-37.4,-6.9,0.53254799,-0.347178564,-0.485580004,-0.600024415
447,1121702,314820,1.208,-0.495,-0.143,112,-9.5,65.2,-8.3,-37.4,-6.9,0.53254799,-0.347178564,-0.485580004,-0.600024415
448,1123660,314820,1.196,-0.514,-0.154,120.5,-5.3,74.3,-8.3,-37.4,-6.9,0.536088137,-0.346140934,-0.4877163,-0.595721305
449,1125984,314820,1.189,-0.51,-0.158,124.7,-2.8,78.7,-9.1,-37.1,-6.4,0.538010804,-0.345530564,-0.488753929,-0.593432417
450,1129892,314820,1.193,-0.514,-0.182,129.1,-0.5,82.7,-9.1,-37.1,-6.4,0.540025025,-0.344920194,-0.489852596,-0.591082492
451,1132174,314830,1.197,-0.517,-0.193,133.8,1.3,86.7,-9.1,-37.1,-6.4,0.542191839,-0.344218268,-0.490890225,-0.588641011
452,1134291,314830,1.212,-0.521,-0.217,139.1,2.8,90.4,-9.1,-37.1,-6.4,0.544419691,-0.343516343,-0.491958373,-0.586107974
453,1136326,314830,1.22,-0.517,-0.229,145,4,94.5,-7.8,-37.6,-5.4,0.546739097,-0.34275338,-0.493057039,-0.583452864
454,1138624,314830,1.228,-0.513,-0.245,151.8,5,98.8,-7.8,-37.6,-5.4,0.549180578,-0.341959899,-0.494186224,-0.58067568
455,1140990,314840,1.236,-0.505,-0.261,159.7,5.9,103.7,-7.8,-37.6,-5.4,0.551744133,-0.341074862,-0.495376446,-0.577745903
456,1144033,314840,1.232,-0.493,-0.288,168.6,6.5,109,-7.8,-37.6,-5.4,0.55446028,-0.340128788,-0.496566668,-0.574633015
457,1146152,314840,1.24,-0.489,-0.311,178.2,6.8,114.5,-9.6,-36.6,-4.2,0.557267983,-0.339152196,-0.497878964,-0.571367534
458,1148572,314840,1.248,-0.477,-0.331,188.1,6.7,120,-9.6,-36.6,-4.2,0.560228278,-0.338053529,-0.499252297,-0.567918943
459,1152392,314850,1.271,-0.445,-0.37,198.2,6.1,125.5,-9.6,-36.6,-4.2,0.563310648,-0.336924345,-0.500717185,-0.564256722
460,1154533,314850,1.283,-0.433,-0.386,208.1,5,130.8,-9.6,-36.6,-4.2,0.566515091,-0.335734123,-0.50224311,-0.56041139
461,1156828,314850,1.315,-0.421,-0.418,226.6,2.2,140.8,-10.4,-36.4,-3.8,0.569902646,-0.334452345,-0.503952147,-0.556169317
462,1159051,314850,1.315,-0.421,-0.418,226.6,2.2,140.8,-10.4,-36.4,-3.8,0.573290201,-0.333140049,-0.505630665,-0.551957762
463,1161169,314860,1.334,-0.405,-0.441,234.9,0.8,145.3,-10.4,-36.4,-3.8,0.576738792,-0.331797235,-0.507400739,-0.547532579
464,1163469,314860,1.35,-0.394,-0.449,242.5,0,149.3,-10.4,-36.4,-3.8,0.580248421,-0.330393384,-0.509201331,-0.542954802
465,1165993,314860,1.358,-0.394,-0.453,249.2,-0.5,152.6,-11,-36.3,-2.3,0.583849605,-0.328928495,-0.511032441,-0.538254952
466,1170422,314860,1.358,-0.394,-0.453,249.2,-0.5,152.6,-11,-36.3,-2.3,0.583849605,-0.328928495,-0.511032441,-0.538254952
467,1173030,314870,1.358,-0.394,-0.453,249.2,-0.5,152.6,-11,-36.3,-2.3,0.583849605,-0.328928495,-0.511032441,-0.538254952
468,1174924,314870,1.358,-0.394,-0.453,249.2,-0.5,152.6,-11,-36.3,-2.3,0.583849605,-0.328928495,-0.511032441,-0.538254952
469,1177178,314870,1.362,-0.389,-0.5,264.6,0.6,155.7,-11.9,-35.8,-1.2,0.598406934,-0.32248909,-0.51863155,-0.518509476
470,1179411,314870,1.358,-0.381,-0.504,266,1.9,155.1,-11.9,-35.8,-1.2,0.602069155,-0.320749535,-0.520493179,-0.513473922
471,1181630,314880,1.362,-0.358,-0.496,266.9,3.9,154.9,-11.9,-35.8,-1.2,0.605700858,-0.318948943,-0.522354808,-0.508438368
472,1183757,314880,1.33,-0.361,-0.503,267.4,6.3,155.6,-11.9,-35.8,-1.2,0.60933256,-0.317117832,-0.5241554,-0.503341777
473,1185987,314880,1.276,-0.372,-0.553,267,8.6,157.5,-11.3,-36.5,0.4,0.612994781,-0.315256203,-0.525864437,-0.498245186
474,1190044,314880,1.307,-0.364,-0.573,265.7,10.5,160.6,-11.3,-36.5,0.4,0.616687521,-0.313425092,-0.527481918,-0.493118076
475,1192168,314890,1.292,-0.379,-0.585,264.2,12.1,164.1,-11.3,-36.5,0.4,0.620380261,-0.3116245,-0.529038362,-0.48792993
476,1194283,314890,1.28,-0.375,-0.596,263.4,13.9,167.3,-11.3,-36.5,0.4,0.624103519,-0.309823908,-0.53050325,-0.482711264
477,1196697,314890,1.253,-0.331,-0.619,264.5,16.4,170.1,-13.3,-35,1.5,0.627857295,-0.308023316,-0.531907102,-0.477431562
478,1198598,314890,1.237,-0.311,-0.63,267.7,19.7,173,-13.3,-35,1.5,0.631672109,-0.306131169,-0.533249916,-0.472090823
479,1200981,314900,1.241,-0.287,-0.653,272.6,22.8,176.1,-13.3,-35,1.5,0.63554796,-0.304208502,-0.534562212,-0.46662801
480,1204690,314900,1.234,-0.259,-0.7,278.4,24.8,179.8,-13.3,-35,1.5,0.639515366,-0.302163762,-0.535843989,-0.461043123
481,1206004,314900,1.241,-0.231,-0.723,289,24,189.1,-14.5,-33.8,3.4,0.643574328,-0.300088504,-0.537125767,-0.45515305
482,1209361,314900,1.265,-0.216,-0.759,289,24,189.1,-14.5,-33.8,3.4,0.647602771,-0.298013245,-0.538407544,-0.449262978
483,1211183,314910,1.289,-0.184,-0.786,293.5,22,193.7,-14.5,-33.8,3.4,0.651661733,-0.295907468,-0.53971984,-0.443189795
484,1214471,314910,1.277,-0.105,-0.804,297.6,19.6,197.4,-14.5,-33.8,3.4,0.655690176,-0.293801691,-0.541001617,-0.436994537
485,1216716,314910,1.285,-0.093,-0.812,301.9,17.6,200.7,-15.6,-33.6,4.4,0.659749138,-0.291665395,-0.542344432,-0.430677206
486,1218638,314910,1.308,-0.085,-0.832,306,16,203.8,-15.6,-33.6,4.4,0.663777581,-0.289529099,-0.543656728,-0.424207282
487,1220983,314920,1.308,-0.085,-0.832,306,16,203.8,-15.6,-33.6,4.4,0.663777581,-0.289529099,-0.543656728,-0.424207282
488,1224677,314920,1.332,-0.003,-0.875,311.5,11.2,209.3,-15.6,-33.6,4.4,0.671773431,-0.285195471,-0.546342357,-0.410901212
489,1226306,314920,1.343,0.031,-0.867,312.4,6.8,211,-16.2,-32.6,5.7,0.675649281,-0.283059175,-0.54771569,-0.404126102
490,1230041,314920,1.351,0.059,-0.87,312.6,1.6,212.2,-16.2,-32.6,5.7,0.679464095,-0.280953398,-0.549119541,-0.397259438
491,1231259,314930,1.363,0.106,-0.87,311.8,-4.1,213.6,-16.2,-32.6,5.7,0.683156835,-0.278939177,-0.550553911,-0.390301218
492,1235472,314930,1.347,0.118,-0.869,309.7,-9.9,215.9,-16.2,-32.6,5.7,0.6867275,-0.276985992,-0.552018799,-0.383281961
493,1237761,314930,1.336,0.106,-0.881,305.8,-16.2,219.3,-16.4,-32.4,7.4,0.690176092,-0.275154881,-0.553453169,-0.376232185
494,1239963,314930,1.32,0.11,-0.877,300.5,-23.1,223.1,-16.4,-32.4,7.4,0.693533128,-0.273506882,-0.554918058,-0.369090854
495,1242242,314940,1.343,0.114,-0.866,294.8,-31,226.4,-16.4,-32.4,7.4,0.696707053,-0.272041993,-0.556382946,-0.361888485
496,1244033,314940,1.359,0.106,-0.862,289.5,-39.8,227.9,-16.4,-32.4,7.4,0.699728385,-0.270699179,-0.557908872,-0.354655599
497,1247496,314940,1.375,0.09,-0.87,285.2,-49.5,226.9,-18,-30.1,8.3,0.702536088,-0.269478439,-0.559526353,-0.347422712
498,1249764,314940,1.41,0.027,-0.903,281.4,-59.1,223.7,-18,-30.1,8.3,0.705130161,-0.268349254,-0.561235389,-0.340189825
499,1251626,314950,1.426,0.004,-0.915,276.6,-73.3,213.5,-18,-30.1,8.3,0.70741905,-0.267250587,-0.563127537,-0.333079012
500,1254674,314950,1.426,-0.011,-0.919,276.9,-74.9,207.5,-18,-30.1,8.3,0.709616382,-0.266060366,-0.565080721,-0.326029237
501,1256023,314950,1.41,-0.031,-0.88,279.9,-71.8,200.8,-18.8,-28.7,10,0.711752678,-0.264687033,-0.567003388,-0.319040498
502,1258829,314950,1.422,-0.027,-0.873,285.1,-64.9,193.3,-18.8,-28.7,10,0.713919492,-0.26310007,-0.568865017,-0.312143315
503,1261038,314960,1.433,-0.036,-0.861,291.2,-56.2,185.2,-18.8,-28.7,10,0.716147343,-0.261238441,-0.57063509,-0.305307169
504,1265047,314960,1.441,-0.036,-0.85,297.1,-47.7,177.7,-18.8,-28.7,10,0.718405713,-0.259132664,-0.572344127,-0.29853206
505,1267194,314960,1.468,-0.048,-0.827,302.4,-40.3,171.7,-19.3,-27.6,11.2,0.720694601,-0.256782739,-0.573961608,-0.291848506
506,1268615,314960,1.492,-0.053,-0.812,307.3,-34.1,167.7,-19.3,-27.6,11.2,0.723044527,-0.254280221,-0.575487533,-0.285134434
507,1271700,314970,1.492,-0.053,-0.812,307.3,-34.1,167.7,-19.3,-27.6,11.2,0.723044527,-0.254280221,-0.575487533,-0.285134434
508,1274924,314970,1.48,-0.072,-0.792,317.6,-24.2,165,-19.3,-27.6,11.2,0.727835932,-0.248786889,-0.578356273,-0.27170629
509,1277240,314970,1.484,-0.061,-0.768,323.9,-19.9,164.7,-20,-26.2,12.7,0.730307932,-0.245826594,-0.579668569,-0.264870144
510,1279693,314970,1.484,-0.061,-0.768,323.9,-19.9,164.7,-20,-26.2,12.7,0.730307932,-0.245826594,-0.579668569,-0.264870144
511,1281099,314980,1.484,-0.061,-0.768,323.9,-19.9,164.7,-20,-26.2,12.7,0.730307932,-0.245826594,-0.579668569,-0.264870144
512,1285128,314980,1.577,0.03,-0.734,349.9,-9.2,159.1,-20,-26.2,12.7,0.737876522,-0.235816523,-0.583391827,-0.243964965
513,1287161,314980,1.581,0.058,-0.733,360,-6,157.1,-20.2,-25.5,14.3,0.740470595,-0.232062746,-0.584582049,-0.236793115
514,1288771,314980,1.577,0.089,-0.729,370.1,-2.2,156.5,-20.2,-25.5,14.3,0.743095187,-0.228064821,-0.585711234,-0.22952971
515,1292246,314990,1.577,0.089,-0.729,370.1,-2.2,156.5,-20.2,-25.5,14.3,0.743095187,-0.228064821,-0.585711234,-0.22952971
516,1294360,314990,1.577,0.184,-0.748,391.1,6.5,158.8,-20.2,-25.5,14.3,0.748496963,-0.219519639,-0.587755974,-0.214545122
517,1296288,314990,1.577,0.184,-0.748,391.1,6.5,158.8,-20.2,-25.5,14.3,0.748496963,-0.219519639,-0.587755974,-0.214545122
518,1299617,314990,1.577,0.274,-0.735,414.4,15.6,161,-20.9,-23.1,15.1,0.754112369,-0.210150456,-0.589495529,-0.198919645
519,1301156,315000,1.561,0.364,-0.737,426,19.6,161.3,-20.9,-23.1,15.1,0.756981109,-0.205114902,-0.590258492,-0.190862758
520,1303632,315000,1.553,0.415,-0.736,436.6,22.5,161.5,-20.9,-23.1,15.1,0.759880367,-0.199865719,-0.590960417,-0.182653279
521,1307169,315000,1.545,0.463,-0.744,445.9,24.1,161.7,-21.7,-20.9,16.2,0.76268807,-0.194463942,-0.591601306,-0.174321726
522,1308730,315000,1.53,0.506,-0.747,453.7,23.9,161.9,-21.7,-20.9,16.2,0.76555681,-0.188909574,-0.592211676,-0.165868099
523,1312165,315010,1.483,0.605,-0.745,459.6,22.2,161.9,-21.7,-20.9,16.2,0.768272958,-0.183233131,-0.592791528,-0.157292398
524,1313674,315010,1.467,0.66,-0.744,463.4,19.3,161.9,-21.7,-20.9,16.2,0.770867031,-0.177465133,-0.59337138,-0.14865566
525,1316490,315010,1.447,0.715,-0.723,464.8,15.7,161.6,-22.2,-19,17.1,0.773369549,-0.171666616,-0.593951231,-0.139988403
526,1319357,315010,1.385,0.758,-0.686,464,12.2,160.7,-22.2,-19,17.1,0.775719474,-0.165898618,-0.594531083,-0.131290628
527,1322051,315020,1.385,0.758,-0.686,464,12.2,160.7,-22.2,-19,17.1,0.775719474,-0.165898618,-0.594531083,-0.131290628
528,1323532,315020,1.318,0.742,-0.607,457.4,10.8,155.1,-22.2,-19,17.1,0.780022584,-0.154301584,-0.595538194,-0.114108707
529,1326394,315020,1.271,0.718,-0.563,452.1,15,148.9,-22.1,-17.1,19.1,0.782067324,-0.148503067,-0.595873898,-0.105746635
530,1330005,315020,1.263,0.681,-0.438,444.8,22.8,140.1,-22.1,-17.1,19.1,0.784112064,-0.142674032,-0.59602649,-0.0976287118
531,1331822,315030,1.243,0.641,-0.368,434.6,33.9,129.7,-22.1,-17.1,19.1,0.786126286,-0.136844996,-0.595934935,-0.0898770104
532,1334518,315030,1.235,0.617,-0.286,421,47,119.7,-22.1,-17.1,19.1,0.788201544,-0.131076998,-0.595568712,-0.0824610126
533,1337529,315030,1.23,0.525,-0.17,403.8,60.4,111.5,-22.4,-15.3,19.7,0.790307321,-0.125492111,-0.594927824,-0.0754722739
534,1339055,315030,1.215,0.473,-0.115,384.1,72.5,105.9,-22.4,-15.3,19.7,0.792443617,-0.120120853,-0.59398175,-0.0688497574
535,1342342,315040,1.183,0.422,-0.068,363.6,82.2,102.8,-22.4,-15.3,19.7,0.794579913,-0.115024262,-0.592822047,-0.0625934629
536,1344711,315040,1.25,0.417,-0.042,343.6,89.2,102.4,-22.4,-15.3,19.7,0.796716208,-0.110263375,-0.591448714,-0.0565813166
537,1346689,315040,1.3,0.349,-0.02,324.8,94.1,105.5,-22.8,-13.2,20.3,0.798821986,-0.105868709,-0.589953307,-0.0507827998
538,1348824,315040,1.32,0.282,-0.037,307.1,98,112.6,-22.8,-13.2,20.3,0.800897244,-0.101840266,-0.588305307,-0.045106357
539,1351268,315050,1.262,0.181,-0.061,290.4,102.4,123.6,-22.8,-13.2,20.3,0.802972503,-0.098239082,-0.586504715,-0.0394299142
540,1354998,315050,1.09,-0.038,-0.111,275.4,107.1,136.7,-22.8,-13.2,20.3,0.805017243,-0.0950956755,-0.584551531,-0.033722953
541,1357248,315050,1.106,-0.09,-0.12,264,110.7,148.2,-23.4,-11.7,20.4,0.807061983,-0.0922574541,-0.58250679,-0.0279549547
542,1358753,315050,1.164,-0.118,-0.11,258.3,110.8,154.2,-23.4,-11.7,20.4,0.809076205,-0.0896023438,-0.580370495,-0.0222174749
543,1362397,315060,1.211,-0.181,-0.111,259.9,105.8,153,-23.4,-11.7,20.4,0.810968352,-0.0868861965,-0.578325755,-0.0164189581
544,1364120,315060,1.254,-0.241,-0.054,269.4,95.8,146.1,-23.4,-11.7,20.4,0.812738426,-0.0839259011,-0.576433607,-0.0106204413
545,1366291,315060,1.336,-0.228,-0.001,285.7,82.7,137.4,-23.5,-9.7,20.1,0.81429487,-0.080568865,-0.574755089,-0.00476088748
546,1368607,315060,1.234,-0.293,0.019,306.1,68.6,131.5,-23.5,-9.7,20.1,0.815698721,-0.0767540513,-0.573320719,0.0012817774
547,1373244,315070,1.234,-0.293,0.019,306.1,68.6,131.5,-23.5,-9.7,20.1,0.815698721,-0.0767540513,-0.573320719,0.0012817774
548,1373597,315070,1.101,-0.183,0.132,350,43.2,135.1,-23.5,-9.7,20.1,0.817957091,-0.0680257576,-0.571031831,0.0143436995
549,1376289,315070,1.159,-0.071,0.16,371.6,31.4,140.6,-23.9,-8,20.3,0.818811609,-0.0631733146,-0.570116276,0.0214239937
550,1380121,315070,1.257,0.068,0.207,392.7,20.2,145.5,-23.9,-8,20.3,0.819513535,-0.0579546495,-0.569353313,0.02887051
551,1382208,315080,1.404,0.339,0.321,412.8,11.8,151.4,-23.9,-8,20.3,0.82003235,-0.0524613178,-0.568651387,0.0367137669
552,1383702,315080,1.357,0.448,0.382,431.7,9.4,161.2,-23.9,-8,20.3,0.820490127,-0.0467543565,-0.567949461,0.0449232459
553,1387078,315080,1.396,0.537,0.449,450.6,15,176.7,-23.8,-6.6,20.5,0.820917386,-0.0408642842,-0.567003388,0.0536515397
554,1389677,315080,1.255,0.601,0.511,472.3,28,198.2,-23.8,-6.6,20.5,0.821405683,-0.0349131748,-0.565752129,0.0630207221
555,1391965,315090,1.156,0.891,0.606,500,45.8,222.4,-23.8,-6.6,20.5,0.821985534,-0.0287484359,-0.564012574,0.0731528672
556,1394419,315090,1.117,1.033,0.605,534.6,65.2,244.6,-23.8,-6.6,20.5,0.822656941,-0.0222785119,-0.561815241,0.0840479751
557,1396143,315090,0.808,1.193,0.624,575,84.7,261.7,-23.5,-4.1,20.1,0.823419904,-0.0153202918,-0.559038057,0.0957670827
558,1398823,315090,0.734,1.704,0.639,617.7,103.6,273.4,-23.5,-4.1,20.1,0.824213385,-0.00775170141,-0.555742058,0.108157598
559,1401195,315100,0.358,2.006,0.712,658.6,122.4,281.6,-23.5,-4.1,20.1,0.825067904,0.000335703604,-0.551866207,0.121189001
560,1404861,315100,0.158,2.295,0.739,690.5,140.3,286.5,-23.5,-4.1,20.1,0.825861385,0.00894192328,-0.547441023,0.134617145
561,1407064,315100,-0.138,2.745,0.808,703.8,154.6,287,-23.5,-0.7,20.2,0.826624348,0.0177617725,-0.542558061,0.148228401
562,1409487,315100,-0.138,2.745,0.808,703.8,154.6,287,-23.5,-0.7,20.2,0.826624348,0.0177617725,-0.542558061,0.148228401
563,1411269,315110,-0.236,2.69,0.829,642.2,152.6,264,-23.5,-0.7,20.2,0.827631458,0.0343028047,-0.53254799,0.17383343
564,1415207,315110,-0.236,2.69,0.829,642.2,152.6,264,-23.5,-0.7,20.2,0.827631458,0.0343028047,-0.53254799,0.17383343
565,1417162,315110,-0.152,2.066,0.526,472,95.3,207.1,-23.3,2.7,18.6,0.827509384,0.0469985046,-0.524704733,0.194067202
566,1419574,315110,0.074,1.806,0.425,371.4,52,170.7,-23.3,2.7,18.6,0.826960051,0.0515457625,-0.522354808,0.201452681
567,1421895,315120,0.074,1.806,0.425,371.4,52,170.7,-23.3,2.7,18.6,0.826960051,0.0515457625,-0.522354808,0.201452681
568,1423950,315120,0.446,1.19,0.368,197.8,-30.7,98.8,-23.3,2.7,18.6,0.825098422,0.0575579089,-0.52088992,0.211004975
569,1426282,315120,0.709,0.618,0.36,133.7,-56.3,70.7,-23.3,4.4,18,0.823938719,0.0594195379,-0.521378216,0.21375164
570,1428569,315120,0.799,0.4,0.387,83.5,-69.3,50.8,-23.3,4.4,18,0.822809534,0.0606707968,-0.522293771,0.215521714
571,1432213,315130,0.869,0.253,0.443,45.2,-73.7,39.7,-23.3,4.4,18,0.821710868,0.0613727226,-0.523483993,0.216650899
572,1434728,315130,0.876,0.068,0.531,17.2,-75.1,37,-23.3,4.4,18,0.820673238,0.0616168706,-0.524796289,0.217413862
573,1436714,315130,0.907,0.09,0.609,-1.6,-77.4,40.9,-22.8,4.6,17.9,0.819574572,0.0614947966,-0.526230659,0.217993713
574,1438643,315130,0.876,0.085,0.648,-12.8,-82.3,49.4,-22.8,4.6,17.9,0.818414869,0.0610675375,-0.527817621,0.218634602
575,1442676,315140,0.837,0.089,0.673,-17.2,-88.9,60.8,-22.8,4.6,17.9,0.817133091,0.0604876858,-0.529587695,0.219397565
576,1444928,315140,0.715,0.118,0.714,-15.4,-95.3,73.5,-22.8,4.6,17.9,0.815698721,0.0598467971,-0.531449324,0.220404675
577,1446902,315140,0.692,0.18,0.758,-7.2,-99.3,84.9,-22.6,4.9,18.9,0.814142277,0.0592059084,-0.53337199,0.221716971
578,1448868,315140,0.742,0.32,0.806,6.8,-100.4,92.1,-22.6,4.9,18.9,0.812494278,0.0587481307,-0.535233619,0.223303934
579,1451207,315150,0.632,0.454,0.904,24,-98,93.6,-22.6,4.9,18.9,0.810876797,0.0585345012,-0.536973174,0.225104526
580,1455183,315150,0.546,0.478,0.925,40.2,-92.2,90.4,-22.6,4.9,18.9,0.809289834,0.0586260567,-0.538529618,0.227057711
581,1457477,315150,0.456,0.499,0.927,52.6,-83.5,83.7,-22.2,5.2,18.9,0.807824946,0.0590227973,-0.539841914,0.229041414
582,1459492,315150,0.417,0.554,0.924,61.4,-73.6,74.7,-22.2,5.2,18.9,0.80651265,0.0595721305,-0.540910062,0.230994598
583,1462175,315160,0.37,0.642,0.879,68.6,-64.2,63.7,-22.2,5.2,18.9,0.805322428,0.0603350932,-0.541795099,0.232856227
584,1463714,315160,0.355,0.658,0.841,75.6,-56,51.8,-22.2,5.2,18.9,0.804315317,0.0613727226,-0.542466506,0.234565264
585,1467517,315160,0.355,0.67,0.806,82.6,-48.9,39.7,-22,5.9,19.3,0.803399762,0.0625934629,-0.542954802,0.236182745
586,1469466,315160,0.363,0.675,0.766,89.4,-42.1,28.4,-22,5.9,19.3,0.802636799,0.0640278329,-0.543259987,0.237678152
587,1471326,315170,0.363,0.675,0.766,89.4,-42.1,28.4,-22,5.9,19.3,0.802636799,0.0640278329,-0.543259987,0.237678152
588,1473744,315170,0.406,0.718,0.731,102.3,-29.4,8.1,-22,5.9,19.3,0.801446577,0.0675374615,-0.54341258,0.240394299
589,1476123,315170,0.433,0.741,0.731,106.9,-24.3,-0.6,-21.7,6.1,19.1,0.8009888,0.0695516831,-0.543259987,0.24161504
590,1478495,315170,0.484,0.787,0.738,108.8,-20.4,-8.5,-21.7,6.1,19.1,0.800622578,0.0716574602,-0.543015839,0.242744224
591,1481377,315180,0.504,0.822,0.742,106.9,-17.7,-15.4,-21.7,6.1,19.1,0.800347911,0.0737937559,-0.542741173,0.243690298
592,1484881,315180,0.508,0.85,0.738,100.6,-16.1,-21.5,-21.7,6.1,19.1,0.800103763,0.0758995331,-0.542466506,0.244483779
593,1486777,315180,0.519,0.87,0.723,90.3,-15.3,-26.7,-21.8,6.5,18.9,0.799890133,0.0778832362,-0.542191839,0.245063631
594,1488570,315180,0.558,0.905,0.687,76.9,-15.1,-31.2,-21.8,6.5,18.9,0.799768059,0.0796838282,-0.542008728,0.245399335
595,1491288,315190,0.574,0.917,0.664,61.3,-15.5,-34.8,-21.8,6.5,18.9,0.799645985,0.0812402722,-0.541886654,0.24549089
596,1493618,315190,0.586,0.929,0.628,44.8,-16.4,-37.7,-21.8,6.5,18.9,0.799584948,0.0825525681,-0.541856136,0.245338298
597,1496195,315190,0.621,0.949,0.562,28.1,-17.9,-39.7,-21.8,6.5,18.9,0.799523911,0.0835901975,-0.541947691,0.244941557
598,1500011,315190,0.645,0.969,0.534,11.9,-20.1,-40.6,-21.8,6.5,18.9,0.799493393,0.0844141972,-0.542161321,0.244331187
599,1501884,315200,0.653,0.989,0.511,-3.5,-22.9,-40.7,-21.8,6.5,18.9,0.799432356,0.0849330119,-0.542497024,0.243537706
600,1503503,315200,0.661,0.997,0.487,-18.8,-26.1,-40.5,-21.8,6.5,18.9,0.799371319,0.085238197,-0.542985321,0.242561113
601,1508154,315200,0.673,0.982,0.459,-34.3,-29.7,-40.8,-22,6.1,18.9,0.799310282,0.0852687155,-0.543626209,0.24140141
602,1510033,315200,0.684,0.966,0.443,-50.6,-33.6,-41.8,-22,6.1,18.9,0.799218726,0.0850550859,-0.544389172,0.239997559
603,1512120,315210,0.7,0.95,0.435,-67.1,-37.8,-43.7,-22,6.1,18.9,0.799127171,0.0846278268,-0.545304727,0.238380078
604,1514398,315210,0.735,0.891,0.414,-83,-42.1,-46.2,-22,6.1,18.9,0.799005097,0.0839259011,-0.546403394,0.23648793
605,1516600,315210,0.767,0.875,0.413,-97.4,-46.6,-48.9,-22,6.1,18.9,0.798883023,0.0830713828,-0.547624134,0.234382153
606,1518641,315210,0.798,0.851,0.412,-110,-50.8,-51.4,-22,6.1,18.9,0.79873043,0.082003235,-0.548966948,0.232093265
607,1520989,315220,0.798,0.851,0.412,-110,-50.8,-51.4,-22,6.1,18.9,0.79873043,0.082003235,-0.548966948,0.232093265
608,1525091,315220,0.872,0.752,0.39,-130,-57.4,-56.4,-22,6.1,18.9,0.798394726,0.0795312357,-0.551988281,0.226966155
609,1527387,315220,0.896,0.729,0.382,-138.4,-59.2,-59.1,-22,6.1,18.9,0.798211615,0.0781273843,-0.553605762,0.224158452
610,1529026,315220,0.908,0.686,0.365,-146,-59.8,-61.9,-22,6.1,18.9,0.798028504,0.0766319773,-0.555253761,0.221198157
611,1532225,315230,0.943,0.611,0.333,-153.2,-59,-64.8,-22,6.1,18.9,0.797845393,0.0750144963,-0.556901761,0.218115787
612,1533638,315230,0.947,0.564,0.316,-159.9,-57.3,-67.9,-22,6.1,18.9,0.797753838,0.0733359783,-0.55854976,0.214911344
613,1537344,315230,0.967,0.525,0.304,-166.1,-55.1,-71.1,-21.9,4.7,19.9,0.797692801,0.0715659047,-0.560167241,0.211554308
614,1539543,315230,0.99,0.478,0.291,-172,-52.7,-74.4,-21.9,4.7,19.9,0.797631764,0.0697347942,-0.561754204,0.208075198
615,1541029,315240,1.014,0.399,0.27,-177.4,-50.3,-77.8,-21.9,4.7,19.9,0.797631764,0.0678121281,-0.563310648,0.204443495
616,1544163,315240,1.026,0.344,0.269,-182.3,-48,-81,-21.9,4.7,19.9,0.797662282,0.0658589434,-0.564836573,0.200720237
617,1547552,315240,1.034,0.289,0.26,-186.6,-45.7,-83.7,-21.9,4.7,19.9,0.797723319,0.0638447218,-0.56633198,0.196905423
618,1549645,315240,1.038,0.207,0.263,-190.2,-43.6,-85.7,-21.9,4.7,19.9,0.797814875,0.0617694632,-0.56776635,0.192999054
619,1552161,315250,1.049,0.175,0.278,-193.1,-41.9,-86.9,-21.9,4.7,19.9,0.79790643,0.059663686,-0.56920072,0.189031648
620,1553946,315250,1.053,0.151,0.294,-195.4,-40.7,-87.3,-21.9,4.7,19.9,0.798028504,0.0575273904,-0.570604572,0.185033723
621,1557001,315250,1.057,0.104,0.313,-197.3,-39.7,-87.2,-21.9,4.7,19.9,0.798181097,0.0557878353,-0.571947386,0.180669576
622,1560219,315250,1.057,0.08,0.324,-199.2,-38.9,-86.5,-21.9,4.7,19.9,0.798272652,0.0535599841,-0.573290201,0.176641133
623,1562197,315260,1.061,0.06,0.328,-201.3,-38.1,-85.3,-21.9,4.7,19.9,0.798333689,0.0512710959,-0.574633015,0.172582171
624,1563718,315260,1.057,0.037,0.339,-203.6,-36.9,-83.9,-21.9,4.7,19.9,0.798394726,0.0489211707,-0.575945311,0.168523209
625,1567155,315260,1.041,0.001,0.347,-205.9,-35.4,-82.6,-21.9,4.7,19.9,0.798486282,0.0464796899,-0.577227088,0.164464248
626,1568498,315260,1.022,-0.017,0.351,-207.6,-33.4,-81.4,-21.9,4.7,19.9,0.798547319,0.0439771722,-0.578447829,0.160374767
627,1572008,315270,1.022,-0.017,0.351,-207.6,-33.4,-81.4,-21.9,4.7,19.9,0.798547319,0.0439771722,-0.578447829,0.160374767
628,1573704,315270,0.991,-0.044,0.339,-208.3,-28.9,-80.8,-21.9,4.7,19.9,0.79873043,0.0390026551,-0.580767235,0.152256844
629,1576949,315270,0.967,-0.059,0.332,-207.2,-27.2,-81.3,-21.9,4.7,19.9,0.798821986,0.0365306558,-0.581865902,0.148167364
630,1579101,315270,0.971,-0.063,0.32,-205.5,-26.1,-82.2,-21.9,4.7,19.9,0.798913541,0.0340586566,-0.582903531,0.144108402
631,1582145,315280,0.975,-0.059,0.308,-202.7,-25.3,-82.9,-21.9,4.7,19.9,0.798974578,0.0316782128,-0.583910642,0.140079958
632,1583750,315280,0.948,-0.062,0.297,-198.9,-24.2,-83.3,-21.9,4.7,19.9,0.799066134,0.0292977691,-0.584887234,0.136051515
633,1586168,315280,0.921,-0.058,0.29,-194.3,-22,-83.1,-22.3,-0.3,21.6,0.799127171,0.0270699179,-0.585802789,0.132114628
634,1589980,315280,0.897,-0.054,0.278,-189.1,-18.5,-82.8,-22.3,-0.3,21.6,0.799249245,0.0248725852,-0.586596271,0.128238777
635,1592414,315290,0.889,-0.046,0.271,-183.7,-14.3,-82.6,-22.3,-0.3,21.6,0.799371319,0.0227668081,-0.587328715,0.124454482
636,1594492,315290,0.862,-0.022,0.264,-178.4,-9.8,-82.9,-22.3,-0.3,21.6,0.79955443,0.0207525864,-0.587939085,0.120700705
637,1596714,315290,0.862,-0.01,0.252,-173.2,-5.9,-83.9,-22.3,-0.3,21.6,0.799768059,0.0187994018,-0.5884579,0.117007965
638,1598871,315290,0.854,-0.009,0.244,-168.3,-2.8,-85.2,-22.3,-0.3,21.6,0.800012207,0.0169682913,-0.588885159,0.113376263
639,1601128,315300,0.85,-0.001,0.237,-163.7,-0.6,-86.7,-22.3,-0.3,21.6,0.800286874,0.0152592547,-0.589251381,0.10974456
640,1604973,315300,0.843,0.021,0.225,-159.4,0.9,-88.2,-22.3,-0.3,21.6,0.800561541,0.0136112552,-0.589587085,0.106143376
641,1607416,315300,0.858,0.029,0.217,-155.2,1.9,-90.2,-22.3,-0.3,21.6,0.800836207,0.0120548112,-0.58989227,0.10257271
642,1609090,315300,0.866,0.045,0.214,-150.8,2.6,-93,-22.3,-0.3,21.6,0.801110874,0.0105899228,-0.590136418,0.0990020447
643,1612286,315310,0.85,0.088,0.218,-146.3,2.9,-96.4,-22.3,-0.3,21.6,0.80138554,0.00927762688,-0.590380566,0.0954313791
644,1613777,315310,0.85,0.115,0.23,-142.1,2.2,-100.4,-22.3,-0.3,21.6,0.801629688,0.00808740501,-0.590624714,0.0918607135
645,1616139,315310,0.862,0.135,0.23,-138.5,0.2,-104.5,-22.3,-0.3,21.6,0.801873836,0.00701925718,-0.590868862,0.0882290109
646,1618524,315310,0.882,0.154,0.226,-136.1,-3.5,-108.7,-22.3,-0.3,21.6,0.802056948,0.00604266488,-0.591174047,0.0845667898
647,1621089,315320,0.882,0.154,0.226,-136.1,-3.5,-108.7,-22.3,-0.3,21.6,0.802056948,0.00604266488,-0.591174047,0.0845667898
648,1624437,315320,1.034,0.219,0.232,-134,-15.7,-116.2,-22.3,-0.3,21.6,0.802148503,0.00433362835,-0.592059084,0.0770897549
649,1627518,315320,1.081,0.238,0.247,-133.5,-22.2,-118.7,-22.3,-0.3,21.6,0.802087466,0.00357066561,-0.592669454,0.0733054598
650,1629945,315320,1.116,0.269,0.271,-133,-27.3,-119.5,-22.3,-0.3,21.6,0.801904355,0.00280770287,-0.593340861,0.0694906461
651,1631859,315330,1.155,0.284,0.266,-132.6,-30.7,-118.3,-22.3,-0.3,21.6,0.801690725,0.00207525864,-0.594073305,0.0656758324
652,1633509,315330,1.166,0.284,0.262,-132.4,-32.7,-115.2,-22.3,-0.3,21.6,0.801446577,0.00131229591,-0.59480575,0.0619525742
653,1636755,315330,1.178,0.291,0.262,-131.7,-33.5,-110.6,-22.8,-4.5,22.3,0.801171911,0.000488296152,-0.595568712,0.0583208716
654,1639778,315330,1.229,0.342,0.262,-129.4,-32.9,-105.1,-22.8,-4.5,22.3,0.800866726,-0.000335703604,-0.596301157,0.0547807245
655,1641128,315340,1.233,0.365,0.258,-125.3,-31,-99.3,-22.8,-4.5,22.3,0.800561541,-0.00119022187,-0.597003082,0.0514236885
656,1644273,315340,1.237,0.389,0.258,-119.9,-28,-93.7,-22.8,-4.5,22.3,0.800286874,-0.00204474013,-0.597613453,0.048219245
657,1646496,315340,1.244,0.455,0.271,-114.2,-24.3,-88,-22.8,-4.5,22.3,0.800073244,-0.00286873989,-0.598162786,0.0451979125
658,1649550,315340,1.193,0.471,0.283,-109.5,-20.2,-82.2,-22.8,-4.5,22.3,0.799859615,-0.00369273965,-0.598620563,0.0423291726
659,1651931,315350,1.146,0.488,0.292,-106.1,-16.3,-76,-22.8,-4.5,22.3,0.799707022,-0.0045167394,-0.599017304,0.0395825068
660,1653866,315350,1.119,0.519,0.297,-104.3,-13.7,-69.7,-22.8,-4.5,22.3,0.799584948,-0.00543229469,-0.599353008,0.0370494705
661,1656195,315350,1.092,0.571,0.306,-104.1,-13.1,-64.2,-22.8,-4.5,22.3,0.799462874,-0.00637836848,-0.599658193,0.0345469527
662,1658511,315350,1.072,0.583,0.303,-105.4,-15,-60.1,-22.8,-4.5,22.3,0.799279763,-0.0074159978,-0.600024415,0.0321359905
663,1661312,315360,1.053,0.599,0.303,-107.9,-18.4,-57.4,-22.8,-4.5,22.3,0.799066134,-0.00854518265,-0.600421155,0.0297250282
664,1664556,315360,1.014,0.623,0.292,-111.4,-22.3,-55.4,-22.8,-4.5,22.3,0.798791467,-0.00976592303,-0.600878933,0.0272835475
665,1666045,315360,0.998,0.631,0.281,-115.6,-26,-54,-22.8,-4.5,22.3,0.798455763,-0.0110477004,-0.601428266,0.0248420667
666,1669870,315360,0.978,0.627,0.269,-120.5,-28.7,-53.2,-22.8,-4.5,22.3,0.798059023,-0.0124210334,-0.602008118,0.0223395489
667,1672389,315370,0.978,0.627,0.269,-120.5,-28.7,-53.2,-22.8,-4.5,22.3,0.798059023,-0.0124210334,-0.602008118,0.0223395489
668,1674423,315370,0.959,0.632,0.235,-130.5,-31.6,-53.2,-22.8,-4.5,22.3,0.797204505,-0.0154728843,-0.603228858,0.0171514023
669,1676070,315370,0.951,0.629,0.215,-134.9,-31.9,-53.8,-22.8,-4.5,22.3,0.796746727,-0.0170903653,-0.603839228,0.014435255
670,1679987,315370,0.944,0.633,0.204,-138.8,-31.6,-55,-22.8,-4.5,22.3,0.796319468,-0.0187688833,-0.604449599,0.0116580706
671,1681856,315380,0.936,0.618,0.172,-142.3,-30.7,-56.6,-22.8,-4.5,22.3,0.79586169,-0.0204779199,-0.605059969,0.00881984924
672,1683533,315380,0.932,0.61,0.161,-145.9,-29.5,-58.6,-22.8,-4.5,22.3,0.795403912,-0.0222174749,-0.605609302,0.00589007233
673,1686386,315380,0.928,0.598,0.153,-149.6,-28,-60.8,-22.5,-8.4,21.9,0.794946135,-0.024018067,-0.606128117,0.00286873989
674,1688762,315380,0.924,0.583,0.145,-153.3,-26.5,-63,-22.5,-8.4,21.9,0.794518876,-0.0258491775,-0.606646931,-0.000213629566
675,1691103,315390,0.928,0.563,0.137,-157.1,-24.9,-65.3,-22.5,-8.4,21.9,0.794091617,-0.0277108066,-0.607104709,-0.00341807306
676,1694825,315390,0.932,0.555,0.129,-161,-23.4,-67.5,-22.5,-8.4,21.9,0.793694876,-0.0296029542,-0.607531968,-0.00671407208
677,1697825,315390,0.936,0.54,0.124,-165.1,-22.1,-69.5,-22.5,-8.4,21.9,0.793267617,-0.0315256203,-0.607928709,-0.0100711081
678,1699928,315390,0.948,0.505,0.096,-169.6,-21.1,-71.2,-22.5,-8.4,21.9,0.792840358,-0.0335398419,-0.608294931,-0.0135502182
679,1702165,315400,0.952,0.497,0.088,-174.5,-20.3,-72.7,-22.5,-8.4,21.9,0.792413099,-0.0356151006,-0.608661153,-0.0170903653
680,1704668,315400,0.96,0.485,0.072,-179.8,-19.3,-74.3,-22.5,-8.4,21.9,0.791985839,-0.0377208777,-0.608966338,-0.0207525864
681,1706199,315400,0.98,0.466,0.056,-185.5,-18.1,-75.8,-22.5,-8.4,21.9,0.791375469,-0.0392162847,-0.609515671,-0.0250862148
682,1708694,315400,0.987,0.454,0.048,-191.3,-16.7,-77.3,-22.5,-8.4,21.9,0.790917692,-0.0415051729,-0.609759819,-0.028931547
683,1712414,315410,0.999,0.442,0.04,-197.3,-15.5,-78.7,-22.5,-8.4,21.9,0.790490432,-0.0438550981,-0.609973449,-0.0329294717
684,1714523,315410,0.999,0.426,0.04,-203.4,-14.4,-80,-22.5,-8.4,21.9,0.790032655,-0.0463270974,-0.61015656,-0.037018952
685,1716889,315410,0.988,0.411,0.028,-209.6,-13.6,-81.2,-22.5,-8.4,21.9,0.789574877,-0.0488601337,-0.610278634,-0.0411999878
686,1718585,315410,0.941,0.388,0.029,-215.7,-13.4,-82.5,-22.5,-8.4,21.9,0.789086581,-0.0514847255,-0.610400708,-0.0454420606
687,1721192,315420,0.906,0.381,0.029,-221.8,-14.3,-84.4,-22.5,-8.4,21.9,0.788537248,-0.0542008728,-0.610522782,-0.049836726
688,1723769,315420,0.921,0.377,0.013,-227.8,-17,-87.6,-22.5,-8.4,21.9,0.787926878,-0.0569170202,-0.610675375,-0.0543839839
689,1727696,315420,0.976,0.353,-0.007,-234.3,-22.2,-92.6,-22.5,-8.4,21.9,0.787224952,-0.0597857601,-0.610889004,-0.0590533158
690,1730127,315420,1.031,0.345,-0.024,-241.1,-29.4,-98.8,-22.5,-8.4,21.9,0.786370434,-0.0626545,-0.611194189,-0.0639362774
691,1732680,315430,1.074,0.34,-0.028,-248,-37.7,-105.1,-22.5,-8.4,21.9,0.785363323,-0.0655232398,-0.611621448,-0.0690023499
692,1734646,315430,1.086,0.328,-0.036,-254.7,-45.8,-110,-22.5,-8.4,21.9,0.784203619,-0.0685140538,-0.612170782,-0.074221015
693,1737552,315430,1.152,0.304,-0.042,-260.7,-52.7,-112.9,-22.2,-13.7,21.5,0.782921842,-0.0715353862,-0.61281167,-0.0795617542
694,1739786,315430,1.207,0.276,-0.063,-266,-57.9,-113.4,-22.2,-13.7,21.5,0.781517991,-0.0746787927,-0.613513596,-0.0849635304
695,1741152,315440,1.262,0.256,-0.072,-270.5,-61,-111.7,-22.2,-13.7,21.5,0.780053102,-0.0779137547,-0.614215522,-0.0903653066
696,1744565,315440,1.309,0.212,-0.073,-273.7,-62,-108.3,-22.2,-13.7,21.5,0.778527177,-0.0812402722,-0.614886929,-0.0957670827
697,1746093,315440,1.289,0.205,-0.061,-275.2,-60.4,-103.8,-22.2,-13.7,21.5,0.776970733,-0.0846278268,-0.615527818,-0.10113834
698,1748629,315440,1.265,0.193,-0.057,-275,-56.1,-98.8,-22.2,-13.7,21.5,0.775475326,-0.0881069369,-0.616046632,-0.106387524
699,1752360,315450,1.25,0.181,-0.045,-273.7,-50.1,-94.7,-22.2,-13.7,21.5,0.774040956,-0.0915555284,-0.616412854,-0.111575671
700,1754630,315450,1.246,0.185,-0.033,-272,-43.7,-92.3,-22.2,-13.7,21.5,0.772667623,-0.0950346385,-0.616657002,-0.11670278
701,1756686,315450,1.258,0.189,-0.041,-270.8,-38.6,-92.2,-22.2,-13.7,21.5,0.771355327,-0.0984527116,-0.616809595,-0.12182989
702,1759963,315450,1.262,0.177,-0.045,-270.6,-35.8,-93.8,-22.2,-13.7,21.5,0.770012513,-0.101840266,-0.616870632,-0.126956999
703,1762662,315460,1.301,0.165,-0.066,-270.9,-34.9,-96.1,-22.2,-13.7,21.5,0.768669698,-0.105197302,-0.616901151,-0.132145146
704,1764448,315460,1.305,0.165,-0.066,-270.6,-35.4,-97.6,-22.2,-13.7,21.5,0.767265847,-0.108493301,-0.616931669,-0.137333293
705,1765966,315460,1.301,0.161,-0.066,-268.8,-36.1,-97.3,-22.2,-13.7,21.5,0.765831477,-0.111819819,-0.616962188,-0.142490921
706,1768649,315460,1.273,0.158,-0.065,-265.1,-36.5,-94.8,-22.2,-13.7,21.5,0.764397107,-0.115085299,-0.616962188,-0.147556993
707,1772641,315470,1.273,0.158,-0.065,-265.1,-36.5,-94.8,-22.2,-13.7,21.5,0.764397107,-0.115085299,-0.616962188,-0.147556993
708,1774201,315470,1.258,0.155,-0.096,-254.7,-35.4,-86.1,-22.2,-13.7,21.5,0.761497848,-0.121494186,-0.616901151,-0.157261879
709,1776889,315470,1.258,0.159,-0.108,-249.2,-34.6,-82.6,-22.2,-13.7,21.5,0.760093997,-0.124607074,-0.616840114,-0.161900693
710,1778742,315470,1.266,0.174,-0.124,-243.9,-33.5,-80.6,-22.2,-13.7,21.5,0.758659627,-0.127719962,-0.616748558,-0.166417432
711,1782451,315480,1.262,0.182,-0.127,-238.8,-31.7,-79.9,-22.2,-13.7,21.5,0.757286294,-0.130710776,-0.616595965,-0.170873135
712,1784059,315480,1.242,0.194,-0.123,-234.2,-29,-79.8,-22.2,-13.7,21.5,0.755912961,-0.133610034,-0.616443373,-0.175237281
713,1787582,315480,1.238,0.191,-0.131,-230.5,-25.5,-79.9,-20.5,-20.1,19.5,0.754570147,-0.136448256,-0.616199225,-0.17957091
714,1789509,315480,1.207,0.191,-0.134,-228.1,-21.7,-79.9,-20.5,-20.1,19.5,0.753288369,-0.139194922,-0.61589404,-0.183904538
715,1791903,315490,1.219,0.191,-0.142,-226.5,-18.1,-80.2,-20.5,-20.1,19.5,0.752006592,-0.141911069,-0.615527818,-0.188207648
716,1794433,315490,1.219,0.195,-0.138,-225.3,-15,-80.8,-20.5,-20.1,19.5,0.750785852,-0.144596698,-0.61507004,-0.192510758
717,1796167,315490,1.18,0.195,-0.138,-223.9,-12.7,-81.7,-20.5,-20.1,19.5,0.749534593,-0.14722129,-0.614581744,-0.196813868
718,1798485,315490,1.176,0.195,-0.126,-222.2,-11.1,-82.8,-20.5,-20.1,19.5,0.748313852,-0.149784845,-0.614093448,-0.201116977
719,1801570,315500,1.203,0.191,-0.13,-220,-10.4,-84.1,-20.5,-20.1,19.5,0.747062593,-0.152287362,-0.613544115,-0.205389569
720,1804809,315500,1.238,0.191,-0.135,-217.4,-10.5,-85.5,-20.5,-20.1,19.5,0.745811335,-0.154728843,-0.6130253,-0.20966216
721,1806896,315500,1.258,0.186,-0.123,-214.3,-11.4,-86.2,-20.5,-20.1,19.5,0.744529557,-0.157109287,-0.612506485,-0.213904233
722,1809432,315500,1.262,0.174,-0.116,-210.6,-12.1,-85.5,-20.5,-20.1,19.5,0.74324778,-0.159459212,-0.612018189,-0.21805475
723,1811281,315510,1.25,0.182,-0.108,-206.4,-12.1,-83.1,-20.5,-20.1,19.5,0.741966002,-0.1617481,-0.611499374,-0.222113712
724,1813673,315510,1.176,0.179,-0.083,-201.8,-11,-79.2,-20.5,-20.1,19.5,0.740714743,-0.16400647,-0.61098056,-0.2260506
725,1815982,315510,1.172,0.183,-0.071,-197.6,-9,-75.1,-20.5,-20.1,19.5,0.739494003,-0.166234321,-0.610431227,-0.229865413
726,1819784,315510,1.168,0.187,-0.067,-194.5,-6.7,-72.4,-20.5,-20.1,19.5,0.7383343,-0.168462172,-0.609820856,-0.233588672
727,1821370,315520,1.168,0.187,-0.067,-194.5,-6.7,-72.4,-20.5,-20.1,19.5,0.7383343,-0.168462172,-0.609820856,-0.233588672
728,1823783,315520,1.144,0.183,-0.059,-193.3,-3.7,-72.6,-20.5,-20.1,19.5,0.736045412,-0.172795801,-0.608478042,-0.241004669
729,1827555,315520,1.129,0.175,-0.055,-195,-3.6,-74.4,-20.5,-20.1,19.5,0.73485519,-0.174962615,-0.607776116,-0.244788965
730,1829659,315520,1.121,0.167,-0.055,-197.5,-4.1,-75.8,-20.5,-20.1,19.5,0.733634449,-0.177129429,-0.60707419,-0.248603778
731,1831651,315530,1.121,0.167,-0.055,-197.5,-4.1,-75.8,-20.5,-20.1,19.5,0.733634449,-0.177129429,-0.60707419,-0.248603778
732,1834939,315530,1.105,0.144,-0.051,-202.1,-5.6,-77.2,-20.5,-20.1,19.5,0.731070894,-0.181585131,-0.605639821,-0.256324961
733,1837659,315530,1.098,0.144,-0.051,-203.7,-6.5,-77.5,-19.3,-24.8,16.2,0.72972808,-0.183812983,-0.604907376,-0.26023133
734,1839983,315530,1.09,0.136,-0.051,-204.9,-7.3,-77.7,-19.3,-24.8,16.2,0.728354747,-0.186132389,-0.604174932,-0.2641377
735,1842804,315540,1.074,0.117,-0.058,-205.8,-8,-78,-19.3,-24.8,16.2,0.726950896,-0.188390759,-0.603411969,-0.268044069
736,1845469,315540,1.07,0.113,-0.054,-206.7,-8.5,-78.6,-19.3,-24.8,16.2,0.725547044,-0.190710166,-0.602649007,-0.272011475
737,1847771,315540,1.074,0.105,-0.058,-207.8,-8.8,-79.5,-19.3,-24.8,16.2,0.724082156,-0.192999054,-0.601886044,-0.275948363
738,1849911,315540,1.07,0.097,-0.066,-209.3,-8.8,-80.8,-19.3,-24.8,16.2,0.722586749,-0.195287942,-0.601092563,-0.279946287
739,1852547,315550,1.059,0.078,-0.074,-211.3,-8.5,-82.3,-19.3,-24.8,16.2,0.721060823,-0.19757683,-0.600299081,-0.283974731
740,1854849,315550,1.051,0.074,-0.086,-213.7,-7.9,-84,-19.3,-24.8,16.2,0.719504379,-0.199896237,-0.599444563,-0.288064211
741,1857599,315550,1.043,0.055,-0.102,-219.8,-6,-87.6,-19.3,-24.8,16.2,0.717520676,-0.202368236,-0.599017304,-0.292123173
742,1859547,315550,1.028,0.048,-0.105,-219.8,-6,-87.6,-19.3,-24.8,16.2,0.715903195,-0.20474868,-0.598101749,-0.296334727
743,1861342,315560,1.035,0.032,-0.121,-223.3,-5.1,-89.2,-19.3,-24.8,16.2,0.714255196,-0.207098605,-0.597125156,-0.300607318
744,1864321,315560,1.028,0.016,-0.125,-227,-4.7,-90.8,-19.3,-24.8,16.2,0.712546159,-0.209479049,-0.596118046,-0.304971465
745,1866235,315560,1.032,0.009,-0.137,-230.6,-4.8,-92.1,-19.3,-24.8,16.2,0.710806604,-0.211890011,-0.595049898,-0.309366131
746,1869545,315560,1.032,-0.014,-0.157,-233.8,-5.5,-93.3,-19.3,-24.8,16.2,0.709006012,-0.214331492,-0.59398175,-0.313821833
747,1871857,315570,1.032,-0.014,-0.157,-233.8,-5.5,-93.3,-19.3,-24.8,16.2,0.709006012,-0.214331492,-0.59398175,-0.313821833
748,1873898,315570,1.04,-0.033,-0.169,-237.9,-8.2,-95.8,-19.3,-24.8,16.2,0.705252235,-0.219306009,-0.591814936,-0.322824793
749,1876142,315570,1.04,-0.053,-0.177,-238.8,-10,-97,-19.3,-24.8,16.2,0.703299051,-0.221778008,-0.590746788,-0.327341533
750,1879666,315570,1.044,-0.064,-0.185,-239,-11.7,-97.9,-19.3,-24.8,16.2,0.701254311,-0.224280526,-0.58967864,-0.331858272
751,1882134,315580,1.048,-0.072,-0.189,-238.5,-13.4,-98.4,-19.3,-24.8,16.2,0.699209571,-0.226752525,-0.588641011,-0.336375011
752,1884109,315580,1.048,-0.08,-0.189,-237.6,-15.1,-98.7,-19.3,-24.8,16.2,0.697103793,-0.229224525,-0.587603381,-0.340861232
753,1886210,315580,1.055,-0.096,-0.194,-236.2,-16.9,-98.5,-17,-29.3,12,0.694936979,-0.231666005,-0.586596271,-0.345286416
754,1888491,315580,1.048,-0.103,-0.19,-234.3,-18.7,-98.1,-17,-29.3,12,0.692770165,-0.234107486,-0.58558916,-0.349681082
755,1891618,315590,1.055,-0.112,-0.182,-231.9,-20.6,-97.4,-17,-29.3,12,0.690572832,-0.236518448,-0.584643086,-0.353984191
756,1893604,315590,1.067,-0.12,-0.167,-229.1,-22.7,-96.3,-17,-29.3,12,0.688344981,-0.238929411,-0.583697012,-0.358256783
757,1896762,315590,1.067,-0.128,-0.159,-226.1,-24.9,-95,-17,-29.3,12,0.686086612,-0.241309854,-0.582781457,-0.3624073
758,1899056,315590,1.079,-0.14,-0.144,-223,-27,-93.3,-17,-29.3,12,0.683828242,-0.24365978,-0.581926939,-0.36649678
759,1902102,315600,1.083,-0.148,-0.132,-219.8,-29.2,-91.6,-17,-29.3,12,0.681539354,-0.246009705,-0.58107242,-0.370494705
760,1904195,315600,1.094,-0.172,-0.101,-216.7,-31.2,-89.7,-17,-29.3,12,0.679250465,-0.248329112,-0.580248421,-0.374401074
761,1906301,315600,1.094,-0.172,-0.101,-216.7,-31.2,-89.7,-17,-29.3,12,0.679250465,-0.248329112,-0.580248421,-0.374401074
762,1908987,315600,1.118,-0.189,-0.071,-210.9,-35,-86.4,-17,-29.3,12,0.673848689,-0.254890591,-0.579912717,-0.380260628
763,1911680,315610,1.118,-0.189,-0.071,-210.9,-35,-86.4,-17,-29.3,12,0.673848689,-0.254890591,-0.579912717,-0.380260628
764,1915041,315610,1.118,-0.189,-0.071,-210.9,-35,-86.4,-17,-29.3,12,0.673848689,-0.254890591,-0.579912717,-0.380260628
765,1916591,315610,1.117,-0.244,-0.048,-202.3,-37.7,-81.3,-17,-29.3,12,0.666890469,-0.261696219,-0.577776421,-0.391033662
766,1920455,315610,1.117,-0.244,-0.044,-198.9,-37.5,-80.1,-17,-29.3,12,0.664571062,-0.263893551,-0.577074496,-0.394512772
767,1922354,315620,1.117,-0.244,-0.044,-198.9,-37.5,-80.1,-17,-29.3,12,0.664571062,-0.263893551,-0.577074496,-0.394512772
768,1924381,315620,1.117,-0.244,-0.044,-198.9,-37.5,-80.1,-17,-29.3,12,0.664571062,-0.263893551,-0.577074496,-0.394512772
769,1926094,315620,1.106,-0.224,-0.051,-185.1,-33.8,-78.5,-17,-29.3,12,0.65785699,-0.27005829,-0.574999237,-0.404461806
770,1929506,315620,1.082,-0.192,-0.054,-178.8,-32,-77.9,-17,-29.3,12,0.655720695,-0.271950438,-0.57432783,-0.407635731
771,1931605,315630,1.074,-0.172,-0.058,-171.7,-30.2,-77.2,-17,-29.3,12,0.653614917,-0.273689993,-0.573686941,-0.410718101
772,1934791,315630,1.074,-0.172,-0.058,-171.7,-30.2,-77.2,-17,-29.3,12,0.653614917,-0.273689993,-0.573686941,-0.410718101
773,1937058,315630,1.051,-0.133,-0.084,-155,-26,-75.2,-14.2,-33.9,5.1,0.649647511,-0.276833399,-0.572496719,-0.416547136
774,1939479,315630,1.028,-0.089,-0.099,-145.6,-23.4,-74.4,-14.2,-33.9,5.1,0.647785882,-0.278176214,-0.571947386,-0.419263283
775,1941672,315640,1.016,-0.069,-0.11,-135.9,-20.6,-73.7,-14.2,-33.9,5.1,0.646046327,-0.279366436,-0.57145909,-0.421887875
776,1943620,315640,1.004,-0.045,-0.13,-126,-17.9,-73.3,-14.2,-33.9,5.1,0.644367809,-0.280404065,-0.571001312,-0.424359874
777,1947010,315640,0.977,0.009,-0.14,-116.8,-15.7,-73.2,-14.4,-34.5,4.4,0.642780847,-0.281258583,-0.570574053,-0.426740318
778,1949250,315640,0.957,0.057,-0.147,-109.1,-14.4,-73.2,-14.4,-34.5,4.4,0.641254921,-0.282021546,-0.570207831,-0.429059725
779,1952494,315650,0.973,0.053,-0.147,-104,-14.5,-73.4,-14.4,-34.5,4.4,0.639728996,-0.282692953,-0.569872127,-0.431287576
780,1955062,315650,1.008,0.04,-0.14,-102.4,-15.8,-73.6,-14.4,-34.5,4.4,0.63820307,-0.28336436,-0.569597461,-0.433484909
781,1957031,315650,1.02,0.005,-0.114,-106.6,-20.1,-75.7,-13.7,-34.8,4.2,0.63615833,-0.284646138,-0.569902646,-0.435224464
782,1959205,315650,1.024,-0.01,-0.098,-106.6,-20.1,-75.7,-13.7,-34.8,4.2,0.634510331,-0.285378582,-0.569658498,-0.437482833
783,1960993,315660,1.024,-0.01,-0.098,-106.6,-20.1,-75.7,-13.7,-34.8,4.2,0.634510331,-0.285378582,-0.569658498,-0.437482833
784,1965101,315660,1.031,-0.042,-0.063,-111.3,-22.8,-79.1,-13.7,-34.8,4.2,0.631092257,-0.286904508,-0.569139683,-0.442091128
785,1966707,315660,1.047,-0.074,-0.041,-113,-23.4,-80.1,-13.3,-35.1,3.5,0.629322184,-0.287697989,-0.568865017,-0.444441053
786,1968489,315660,1.063,-0.086,-0.033,-114.9,-24,-80.1,-13.3,-35.1,3.5,0.627521592,-0.28849147,-0.568559832,-0.446821497
787,1971278,315670,1.063,-0.086,-0.033,-114.9,-24,-80.1,-13.3,-35.1,3.5,0.627521592,-0.28849147,-0.568559832,-0.446821497
788,1973635,315670,1.082,-0.134,-0.022,-120.5,-25.8,-76.9,-13.3,-35.1,3.5,0.623859371,-0.290322581,-0.567918943,-0.451582385
789,1977459,315670,1.078,-0.146,-0.026,-124.4,-26.8,-73.8,-13.3,-35.1,3.5,0.621997742,-0.29136021,-0.567522202,-0.453962828
790,1978990,315670,1.086,-0.157,-0.031,-128.4,-27.8,-70,-13.3,-35.1,3.5,0.620136113,-0.292489395,-0.567064425,-0.456312754
791,1982246,315680,1.09,-0.169,-0.031,-132,-28.8,-65.9,-13.3,-35.1,3.5,0.618274483,-0.293771172,-0.566576128,-0.458662679
792,1984400,315680,1.094,-0.189,-0.027,-134.7,-29.7,-61.9,-13.3,-35.1,3.5,0.616443373,-0.295113987,-0.565996277,-0.460982086
793,1986654,315680,1.098,-0.189,-0.019,-136.3,-30.5,-58.1,-12.8,-35.2,2,0.614581744,-0.296517838,-0.565416425,-0.463240455
794,1988862,315680,1.094,-0.193,-0.008,-136.5,-30.9,-54.6,-12.8,-35.2,2,0.612781152,-0.297982727,-0.564806055,-0.465468307
795,1991332,315690,1.094,-0.205,-0.008,-135.8,-31.2,-51.2,-12.8,-35.2,2,0.61098056,-0.299508652,-0.564165166,-0.467604602
796,1995033,315690,1.094,-0.209,0,-134.4,-31.5,-47.7,-12.8,-35.2,2,0.609210486,-0.301034577,-0.563524277,-0.469679861
797,1997664,315690,1.094,-0.205,0.003,-132.4,-31.8,-44.2,-12.2,-35.8,1.6,0.60750145,-0.302560503,-0.562883389,-0.471694082
798,1999593,315690,1.094,-0.201,0.015,-129.5,-32.1,-40.8,-12.2,-35.8,1.6,0.605822932,-0.304116947,-0.5622425,-0.473616749
799,2001977,315700,1.094,-0.19,0.031,-125.9,-32.3,-37.5,-12.2,-35.8,1.6,0.604205451,-0.305642872,-0.56163213,-0.475447859
800,2004496,315700,1.094,-0.178,0.042,-121.6,-32.5,-34.4,-12.2,-35.8,1.6,0.602618488,-0.307168798,-0.56102176,-0.477156896
801,2006245,315700,1.086,-0.17,0.05,-117.1,-32.4,-31.5,-12.3,-36,1.1,0.601123081,-0.308664205,-0.560441908,-0.478804895
802,2009443,315700,1.082,-0.155,0.062,-112.7,-31.8,-28.9,-12.3,-36,1.1,0.599658193,-0.310098575,-0.559862056,-0.480330821
803,2011714,315710,1.082,-0.139,0.07,-108.6,-30.8,-26.4,-12.3,-36,1.1,0.59828486,-0.311532945,-0.559312723,-0.481795709
804,2013534,315710,1.078,-0.135,0.071,-104.9,-29.5,-24.3,-12.3,-36,1.1,0.596942045,-0.312906278,-0.55876339,-0.483199561
805,2017167,315710,1.066,-0.123,0.079,-101.2,-28.1,-22.3,-11.7,-36,0.7,0.595660268,-0.314249092,-0.558214057,-0.484542375
806,2018589,315710,1.07,-0.104,0.075,-97.6,-26.7,-20.6,-11.7,-36,0.7,0.594470046,-0.315561388,-0.557664724,-0.485793634
807,2022422,315720,1.07,-0.104,0.075,-97.6,-26.7,-20.6,-11.7,-36,0.7,0.594470046,-0.315561388,-0.557664724,-0.485793634
808,2024172,315720,1.054,-0.076,0.072,-90.3,-24.3,-17.6,-11.7,-36,0.7,0.592181158,-0.318033387,-0.556596576,-0.488174078
809,2027197,315720,1.058,-0.041,0.068,-86.3,-23.1,-16.4,-11.7,-36,0.7,0.591143529,-0.319193091,-0.556077761,-0.489272744
810,2029413,315720,1.043,-0.025,0.065,-81.8,-21.9,-15.3,-11.7,-36,0.7,0.590136418,-0.320291757,-0.555619984,-0.490310373
811,2032540,315730,1.039,-0.013,0.061,-77.3,-20.9,-14,-11.7,-36,0.7,0.589190344,-0.321329386,-0.555131687,-0.491286966
812,2034286,315730,1.039,0.002,0.057,-73.2,-20.2,-12.3,-11.7,-36,0.7,0.588274789,-0.322336497,-0.554704428,-0.492202521
813,2036518,315730,1.011,0.01,0.034,-69.5,-19.9,-10.1,-11.2,-36.6,0.1,0.587450789,-0.323343608,-0.554277169,-0.493026521
814,2038643,315730,0.996,0.03,0.035,-65.8,-19.8,-7.8,-11.2,-36.6,0.1,0.586657308,-0.324289682,-0.553880428,-0.493789483
815,2042438,315740,0.984,0.038,0.039,-61.8,-19.5,-6,-11.2,-36.6,0.1,0.585924863,-0.325235755,-0.553514206,-0.494460891
816,2044188,315740,1.003,0.069,0.047,-57,-18.8,-5.4,-11.2,-36.6,0.1,0.585222938,-0.326090274,-0.553178503,-0.495071261
817,2046964,315740,1.003,0.085,0.051,-51.8,-17.6,-6.4,-11.4,-36.9,-0.5,0.584582049,-0.326853236,-0.552903836,-0.495681631
818,2049761,315740,1.003,0.089,0.051,-46.8,-16.2,-8.1,-11.4,-36.9,-0.5,0.58394116,-0.327524644,-0.552659688,-0.496230964
819,2052074,315750,0.996,0.093,0.051,-42.6,-14.9,-9.7,-11.4,-36.9,-0.5,0.583361309,-0.328135014,-0.552446059,-0.496749779
820,2054229,315750,0.996,0.093,0.059,-39.4,-13.9,-10.5,-11.4,-36.9,-0.5,0.582811975,-0.328653829,-0.552262947,-0.497268593
821,2056986,315750,1.019,0.1,0.075,-35.4,-12.8,-10.5,-10.9,-36.5,-0.4,0.582201605,-0.329538865,-0.552293466,-0.497360149
822,2059731,315750,1.019,0.1,0.075,-35.4,-12.8,-10.5,-10.9,-36.5,-0.4,0.581682791,-0.329996643,-0.552140873,-0.497817927
823,2061047,315760,1.019,0.1,0.075,-33.9,-12.7,-10.2,-10.9,-36.5,-0.4,0.581163976,-0.330454421,-0.551988281,-0.498275704
824,2064534,315760,1.038,0.096,0.082,-32.3,-12.9,-10.1,-10.9,-36.5,-0.4,0.58067568,-0.33088168,-0.551896725,-0.498702963
825,2066841,315760,1.038,0.088,0.086,-30.9,-13.3,-10,-11.5,-36.9,-0.6,0.580187384,-0.33127842,-0.55180517,-0.499099704
826,2069091,315760,1.042,0.088,0.097,-29.7,-13.6,-10,-11.5,-36.9,-0.6,0.579699087,-0.331705679,-0.551713614,-0.499496445
827,2071129,315770,1.054,0.083,0.097,-28.7,-13.7,-10,-11.5,-36.9,-0.6,0.579210791,-0.33210242,-0.551652577,-0.499862667
828,2074236,315770,1.054,0.076,0.105,-28.1,-13.3,-9.9,-11.5,-36.9,-0.6,0.578722495,-0.332468642,-0.55159154,-0.500228889
829,2077353,315770,1.05,0.072,0.101,-28,-12.6,-10,-11.5,-36.9,-0.6,0.578264718,-0.332834864,-0.551499985,-0.500595111
830,2079571,315770,1.05,0.064,0.105,-28.1,-11.6,-9.9,-11.5,-36.9,-0.6,0.57780694,-0.333201086,-0.551408429,-0.500961333
831,2081640,315780,1.054,0.04,0.104,-28.4,-10.6,-9.8,-11.5,-36.9,-0.6,0.577379681,-0.333567309,-0.551316874,-0.501358074
832,2084696,315780,1.054,0.032,0.104,-28.6,-9.7,-9.3,-11.5,-36.9,-0.6,0.576952422,-0.333903012,-0.5511948,-0.501754814
833,2086093,315780,1.054,0.025,0.104,-28.4,-9.1,-8.7,-11.4,-36.4,-0.1,0.576525163,-0.334269234,-0.551042207,-0.502151555
834,2088994,315780,1.058,0.013,0.108,-27.7,-8.8,-7.6,-11.4,-36.4,-0.1,0.576128422,-0.334635456,-0.550920133,-0.502517777
835,2092162,315790,1.058,0.009,0.116,-26.4,-8.6,-6.7,-11.4,-36.4,-0.1,0.5757622,-0.33497116,-0.550798059,-0.502853481
836,2094175,315790,1.058,0.005,0.12,-24.8,-8.3,-5.8,-11.4,-36.4,-0.1,0.575426496,-0.335306864,-0.550675985,-0.503158666
837,2097274,315790,1.062,-0.006,0.119,-23.2,-8,-5,-11.1,-36.3,0,0.575090793,-0.335612049,-0.550553911,-0.503433332
838,2098709,315790,1.062,-0.014,0.119,-21.6,-7.6,-4.1,-11.1,-36.3,0,0.574816126,-0.335917234,-0.550431837,-0.503707999
839,2102231,315800,1.066,-0.018,0.123,-20.4,-7.3,-3.5,-11.1,-36.3,0,0.574541459,-0.336222419,-0.550340281,-0.503921628
840,2103680,315800,1.062,-0.018,0.123,-19.5,-7,-3.1,-11.1,-36.3,0,0.574266793,-0.336497085,-0.550218207,-0.504165777
841,2106454,315800,1.05,-0.03,0.123,-18.4,-6.2,-2.9,-11.1,-36.1,0.2,0.574388867,-0.337748344,-0.549821467,-0.503616443
842,2109561,315800,1.05,-0.03,0.123,-18.4,-6.2,-2.9,-11.1,-36.1,0.2,0.574144719,-0.338023011,-0.549729911,-0.503830073
843,2110942,315810,1.042,-0.03,0.123,-17.9,-5.8,-2.7,-11.1,-36.1,0.2,0.573931089,-0.338267159,-0.549638356,-0.504013184
844,2113745,315810,1.042,-0.022,0.123,-17.3,-5.5,-2.3,-11.1,-36.1,0.2,0.57371746,-0.338511307,-0.549516282,-0.504226814
845,2116705,315810,1.027,-0.025,0.124,-16.4,-5.2,-1.6,-11.1,-36.4,-0.1,0.57350383,-0.338755455,-0.549424726,-0.504409925
846,2119707,315810,1.019,-0.021,0.124,-15.2,-5,-0.6,-11.1,-36.4,-0.1,0.573320719,-0.338999603,-0.549333171,-0.504562517
847,2121165,315820,1.019,-0.021,0.124,-15.2,-5,-0.6,-11.1,-36.4,-0.1,0.573320719,-0.338999603,-0.549333171,-0.504562517
848,2124117,315820,1.011,-0.006,0.12,-12.3,-4.8,1.8,-11.1,-36.4,-0.1,0.573046052,-0.339457381,-0.549119541,-0.504776147
849,2127148,315820,0.999,-0.002,0.121,-10.9,-4.9,3.1,-11.1,-36.4,-0.1,0.572923978,-0.339701529,-0.549058504,-0.504806665
850,2128610,315820,0.999,-0.001,0.113,-9.5,-5.1,4.2,-11.1,-36.4,-0.1,0.572832423,-0.339915159,-0.548966948,-0.504837184
851,2131608,315830,0.999,0.005,0.113,-8.2,-5.3,5.4,-11.1,-36.4,-0.1,0.572771386,-0.340159307,-0.548905911,-0.504837184
852,2134594,315830,0.992,0.017,0.105,-6.9,-5.3,6.5,-11.1,-36.4,-0.1,0.572740867,-0.340372936,-0.548844874,-0.504806665
853,2136096,315830,0.988,0.021,0.105,-5.6,-5.4,7.4,-11.2,-36.1,0,0.572710349,-0.340586566,-0.548814356,-0.50471511
854,2139234,315830,0.976,0.03,0.098,-4.2,-5.4,8.2,-11.2,-36.1,0,0.572710349,-0.340800195,-0.548753319,-0.504623554
855,2142238,315840,0.976,0.049,0.094,-2.7,-5.3,9,-11.2,-36.1,0,0.572710349,-0.341013825,-0.5487228,-0.504531999
856,2143538,315840,0.972,0.057,0.098,-1.3,-5.1,9.4,-11.2,-36.1,0,0.572740867,-0.341196936,-0.5487228,-0.504379406
857,2146608,315840,0.972,0.065,0.098,0,-5.1,9.8,-11.7,-36.2,0,0.572801904,-0.341380047,-0.548692282,-0.504226814
858,2149696,315840,0.972,0.077,0.095,1.2,-5.1,9.9,-11.7,-36.2,0,0.572862941,-0.34153264,-0.5487228,-0.504043703
859,2151165,315850,0.972,0.096,0.099,2.3,-5.2,9.9,-11.7,-36.2,0,0.572923978,-0.341685232,-0.5487228,-0.503830073
860,2154864,315850,0.972,0.104,0.107,3.2,-5.2,9.6,-11.7,-36.2,0,0.572985015,-0.341807306,-0.548753319,-0.503646962
861,2156204,315850,0.972,0.124,0.107,4.6,-5.1,8.8,-11.4,-36.2,0.1,0.573076571,-0.342265084,-0.548844874,-0.503128147
862,2159771,315850,0.972,0.127,0.111,4.6,-5.1,8.8,-11.4,-36.2,0.1,0.573168126,-0.342387158,-0.548875393,-0.502914518
863,2162019,315860,0.968,0.135,0.115,5,-5.2,8.1,-11.4,-36.2,0.1,0.573229163,-0.342478713,-0.54893643,-0.502731407
864,2164026,315860,0.968,0.147,0.111,5.2,-5.4,7.4,-11.4,-36.2,0.1,0.573290201,-0.342570269,-0.549027985,-0.502517777
865,2166909,315860,0.976,0.147,0.119,5.3,-5.5,6.7,-11.2,-36.2,0.1,0.573320719,-0.342631306,-0.549089022,-0.502334666
866,2170129,315860,0.976,0.163,0.127,5.5,-5.6,5.9,-11.2,-36.2,0.1,0.573351238,-0.342692343,-0.549180578,-0.502151555
867,2172377,315870,0.976,0.163,0.127,5.5,-5.6,5.9,-11.2,-36.2,0.1,0.573351238,-0.342692343,-0.549180578,-0.502151555
868,2174395,315870,0.98,0.162,0.127,6,-5.8,4.4,-11.2,-36.2,0.1,0.573412275,-0.342783898,-0.549394208,-0.501815851
869,2177657,315870,0.987,0.166,0.127,6.3,-5.8,3.5,-11.2,-36.2,0.1,0.573442793,-0.342814417,-0.549485763,-0.50163274
870,2179620,315870,0.999,0.17,0.131,6.5,-5.6,2.5,-11.2,-36.2,0.1,0.573442793,-0.342814417,-0.549607837,-0.501480148
871,2181279,315880,0.999,0.178,0.131,6.7,-5.2,1.4,-11.2,-36.2,0.1,0.573442793,-0.342814417,-0.54976043,-0.501358074
872,2185094,315880,1.003,0.174,0.13,6.9,-4.8,0.2,-11.2,-36.2,0.1,0.573442793,-0.342783898,-0.549882504,-0.501236
873,2187143,315880,1.015,0.178,0.13,7.3,-4.4,-0.7,-11.6,-36.3,-0.3,0.573442793,-0.342722861,-0.550035096,-0.501113926
874,2188710,315880,1.015,0.166,0.134,7.7,-4.1,-1.7,-11.6,-36.3,-0.3,0.573412275,-0.342661824,-0.550187689,-0.50102237
875,2191152,315890,1.015,0.17,0.134,7.9,-3.8,-2.7,-11.6,-36.3,-0.3,0.573412275,-0.342570269,-0.550340281,-0.500930815
876,2194811,315890,1.023,0.166,0.138,8,-3.6,-3.7,-11.6,-36.3,-0.3,0.573381756,-0.342478713,-0.550492874,-0.500839259
877,2196175,315890,1.026,0.162,0.142,8.1,-3.6,-4.7,-11.1,-35.9,-0.1,0.573351238,-0.342356639,-0.550675985,-0.500778222
878,2199412,315890,1.034,0.169,0.142,8.3,-3.5,-5.6,-11.1,-35.9,-0.1,0.573290201,-0.342204047,-0.550859096,-0.500717185
879,2202328,315900,1.03,0.166,0.142,8.7,-3.5,-6.4,-11.1,-35.9,-0.1,0.573259682,-0.342081973,-0.551042207,-0.500686666
880,2203565,315900,1.038,0.162,0.141,9,-3.3,-7.1,-11.1,-35.9,-0.1,0.573198645,-0.341898862,-0.551225318,-0.500625629
881,2207473,315900,1.038,0.165,0.149,9.6,-2.8,-8.2,-11.4,-36.5,-0.2,0.573107089,-0.341807306,-0.551499985,-0.500503555
882,2209188,315900,1.038,0.165,0.149,9.6,-2.8,-8.2,-11.4,-36.5,-0.2,0.573046052,-0.341624195,-0.551683096,-0.500473037
883,2211281,315910,1.042,0.169,0.149,9.8,-2.5,-8.7,-11.4,-36.5,-0.2,0.573015534,-0.341410566,-0.551896725,-0.500442518
884,2213540,315910,1.042,0.169,0.145,10.2,-2.1,-9.1,-11.4,-36.5,-0.2,0.572954497,-0.341196936,-0.552110355,-0.500412
885,2216318,315910,1.038,0.173,0.149,10.4,-1.8,-9.6,-11.2,-36.5,-0.3,0.57289346,-0.340983306,-0.552323984,-0.500412
886,2218538,315910,1.034,0.173,0.146,10.8,-1.5,-9.8,-11.2,-36.5,-0.3,0.572862941,-0.340739158,-0.552537614,-0.500381481
887,2222731,315920,1.034,0.173,0.146,10.8,-1.5,-9.8,-11.2,-36.5,-0.3,0.572862941,-0.340739158,-0.552537614,-0.500381481
888,2224673,315920,1.03,0.185,0.15,11.1,-0.8,-9.9,-11.2,-36.5,-0.3,0.572771386,-0.340250862,-0.552934355,-0.500350963
889,2226244,315920,1.022,0.185,0.154,11.2,-0.5,-9.7,-11.2,-36.5,-0.3,0.572740867,-0.339976196,-0.553147984,-0.500320444
890,2228503,315920,1.022,0.185,0.15,11.3,-0.3,-9.6,-11.2,-36.5,-0.3,0.572740867,-0.339732047,-0.553331095,-0.500320444
891,2233119,315930,1.015,0.197,0.146,11.3,-0.2,-9.6,-11.2,-36.5,-0.3,0.572710349,-0.339487899,-0.553544725,-0.500289926
892,2235094,315930,1.007,0.197,0.146,11.3,0,-9.5,-11.2,-36.5,-0.3,0.57267983,-0.339213233,-0.553727836,-0.500289926
893,2236770,315930,1.003,0.205,0.147,11.2,0.1,-9.4,-11,-36.3,0.5,0.572649312,-0.338969085,-0.553941465,-0.500259407
894,2238854,315930,0.995,0.213,0.151,11.2,0.3,-9,-11,-36.3,0.5,0.572649312,-0.338724937,-0.554124577,-0.500228889
895,2240986,315940,0.991,0.217,0.143,10.9,0.4,-8.7,-11,-36.3,0.5,0.572649312,-0.33845027,-0.554307688,-0.500228889
896,2245186,315940,0.983,0.217,0.147,10.5,0.6,-8.3,-11,-36.3,0.5,0.572649312,-0.338236641,-0.55446028,-0.50019837
897,2247364,315940,0.983,0.229,0.151,10,0.9,-8,-11.1,-36.7,0.2,0.572649312,-0.337992492,-0.554612873,-0.50019837
898,2249404,315940,0.968,0.241,0.151,9.4,1.2,-7.9,-11.1,-36.7,0.2,0.572618793,-0.337748344,-0.554765465,-0.500167852
899,2252230,315950,0.964,0.245,0.152,8.9,1.5,-8,-11.1,-36.7,0.2,0.572618793,-0.337534715,-0.554918058,-0.50019837
900,2253609,315950,0.964,0.252,0.156,8.2,1.8,-8.1,-11.1,-36.7,0.2,0.572618793,-0.337321085,-0.555040132,-0.50019837
901,2256888,315950,0.952,0.265,0.148,6.6,2.3,-8.3,-11.5,-36.6,0.7,0.572374645,-0.336771752,-0.555375835,-0.500473037
902,2258905,315950,0.948,0.268,0.148,6.6,2.3,-8.3,-11.5,-36.6,0.7,0.572344127,-0.336558123,-0.555467391,-0.500534074
903,2262143,315960,0.94,0.272,0.152,5.5,2.5,-8.2,-11.5,-36.6,0.7,0.572344127,-0.336375011,-0.555558947,-0.500595111
904,2263452,315960,0.94,0.28,0.149,4.3,2.6,-8,-11.5,-36.6,0.7,0.572313608,-0.3361919,-0.555619984,-0.500656148
905,2266239,315960,0.932,0.284,0.157,3,2.7,-7.7,-10.9,-36.3,0.9,0.57228309,-0.336039308,-0.555650502,-0.500717185
906,2269684,315960,0.929,0.284,0.157,1.7,2.8,-7.4,-10.9,-36.3,0.9,0.572252571,-0.335886715,-0.555711539,-0.500808741
907,2271732,315970,0.929,0.284,0.157,1.7,2.8,-7.4,-10.9,-36.3,0.9,0.572252571,-0.335886715,-0.555711539,-0.500808741
908,2274610,315970,0.921,0.284,0.165,-0.4,3.2,-7.2,-10.9,-36.3,0.9,0.572161016,-0.335642567,-0.555742058,-0.501052889
909,2276166,315970,0.929,0.28,0.157,-1.4,3.5,-7.4,-10.9,-36.3,0.9,0.572130497,-0.335520493,-0.555742058,-0.501174963
910,2279063,315970,0.932,0.28,0.16,-2.4,3.7,-7.8,-10.9,-36.3,0.9,0.57206946,-0.335428938,-0.555742058,-0.501327555
911,2282313,315980,0.932,0.28,0.16,-2.4,3.7,-7.8,-10.9,-36.3,0.9,0.57206946,-0.335428938,-0.555742058,-0.501327555
912,2284404,315980,0.925,0.265,0.164,-3.9,4.5,-8.9,-10.9,-36.3,0.9,0.571916868,-0.335215308,-0.555650502,-0.501693777
913,2287445,315980,0.94,0.261,0.16,-4.6,5,-9.5,-11.2,-36.7,0.2,0.571855831,-0.335093234,-0.555619984,-0.501907407
914,2289786,315980,0.948,0.257,0.156,-5.3,5.8,-10.1,-11.2,-36.7,0.2,0.571764275,-0.33497116,-0.555558947,-0.502151555
915,2292188,315990,0.944,0.253,0.156,-6.1,6.4,-10.7,-11.2,-36.7,0.2,0.57167272,-0.334849086,-0.555497909,-0.502395703
916,2294215,315990,0.952,0.237,0.16,-7.1,7.1,-11.3,-11.2,-36.7,0.2,0.571581164,-0.334727012,-0.555406354,-0.50267037
917,2296237,315990,0.96,0.233,0.163,-8.1,7.7,-11.8,-11.1,-36.6,0.3,0.571489608,-0.334604938,-0.555314798,-0.502975555
918,2298741,315990,0.96,0.233,0.163,-8.1,7.7,-11.8,-11.1,-36.6,0.3,0.571489608,-0.334604938,-0.555314798,-0.502975555
919,2302792,316000,0.964,0.221,0.159,-9.9,9,-12.9,-11.1,-36.6,0.3,0.571275979,-0.334330271,-0.55507065,-0.503646962
920,2305136,316000,0.968,0.213,0.155,-10.8,9.7,-13.3,-11.1,-36.6,0.3,0.571184423,-0.334208197,-0.554948576,-0.504043703
921,2307279,316000,0.972,0.201,0.155,-11.6,10.6,-13.7,-11,-36.8,0.9,0.57084872,-0.333689383,-0.554979095,-0.504684591
922,2309577,316000,0.972,0.201,0.155,-11.6,10.6,-13.7,-11,-36.8,0.9,0.570726646,-0.333567309,-0.554826502,-0.505081332
923,2311746,316010,0.979,0.197,0.159,-11.5,10.7,-13.6,-11,-36.8,0.9,0.57063509,-0.333414716,-0.55467391,-0.505478072
924,2313644,316010,0.979,0.197,0.159,-11.2,10.6,-13.6,-11,-36.8,0.9,0.570513016,-0.333292642,-0.554521317,-0.505844295
925,2316729,316010,0.979,0.197,0.162,-10.9,10.4,-13.4,-11.1,-36.9,0.6,0.570421461,-0.333140049,-0.554368725,-0.506210517
926,2319908,316010,0.983,0.197,0.166,-10.4,10.4,-13.2,-11.1,-36.9,0.6,0.570329905,-0.332987457,-0.554216132,-0.506607257
927,2322277,316020,0.983,0.197,0.166,-10.4,10.4,-13.2,-11.1,-36.9,0.6,0.570329905,-0.332987457,-0.554216132,-0.506607257
928,2324285,316020,0.979,0.201,0.163,-9.1,10.6,-13.1,-11.1,-36.9,0.6,0.570146794,-0.332682272,-0.553910947,-0.507309183
929,2327407,316020,0.972,0.201,0.167,-8.5,10.7,-12.9,-11.1,-36.9,0.6,0.570085757,-0.332499161,-0.553788873,-0.507644887
930,2329844,316020,0.987,0.197,0.155,-8.1,10.9,-12.9,-11.1,-36.9,0.6,0.569994201,-0.332346568,-0.553666799,-0.50798059
931,2332166,316030,0.975,0.201,0.163,-7.8,11,-12.8,-11.1,-36.9,0.6,0.569933164,-0.332163457,-0.553514206,-0.508316294
932,2334246,316030,0.979,0.201,0.163,-7.5,10.9,-12.7,-11.1,-36.9,0.6,0.569872127,-0.331980346,-0.553392132,-0.508651997
933,2336351,316030,0.979,0.209,0.167,-7,10.6,-12.5,-11.2,-36.8,0.1,0.56981109,-0.331797235,-0.553270058,-0.508957183
934,2339198,316030,0.979,0.213,0.167,-6.5,10.2,-12.2,-11.2,-36.8,0.1,0.569750053,-0.331614124,-0.553178503,-0.509262368
935,2342218,316040,0.975,0.213,0.171,-6.2,10,-11.8,-11.2,-36.8,0.1,0.569689016,-0.331431013,-0.553056429,-0.509567553
936,2343557,316040,0.972,0.213,0.167,-6.3,10.1,-11.9,-11.2,-36.8,0.1,0.569627979,-0.331247902,-0.552934355,-0.509872738
937,2347071,316040,0.964,0.209,0.175,-6.7,10.4,-12.1,-10.7,-36.7,0.4,0.569597461,-0.331064791,-0.552842799,-0.510177923
938,2349191,316040,0.96,0.213,0.171,-7.5,10.9,-12.5,-10.7,-36.7,0.4,0.569536424,-0.33088168,-0.552690207,-0.510513627
939,2351259,316050,0.96,0.213,0.175,-8.3,11.4,-13,-10.7,-36.7,0.4,0.569444868,-0.330729087,-0.552568133,-0.51084933
940,2354593,316050,0.952,0.209,0.171,-9.2,11.9,-13.4,-10.7,-36.7,0.4,0.569383831,-0.330545976,-0.55241554,-0.511215552
941,2356129,316050,0.952,0.205,0.175,-10.4,12.5,-14,-11,-36.8,0.5,0.569170202,-0.330088198,-0.552354503,-0.511795404
942,2359308,316050,0.952,0.205,0.175,-10.7,12.5,-14,-11,-36.8,0.5,0.569078646,-0.329905087,-0.552171392,-0.512192145
943,2361243,316060,0.952,0.205,0.179,-10.7,12.5,-14,-11,-36.8,0.5,0.568987091,-0.329752495,-0.551988281,-0.512588885
944,2364390,316060,0.952,0.205,0.171,-10.8,12.4,-13.9,-11,-36.8,0.5,0.568926054,-0.329569384,-0.551835688,-0.512985626
945,2367167,316060,0.952,0.201,0.179,-10.9,12.2,-13.6,-10.6,-36.8,0.5,0.568834498,-0.329386273,-0.551652577,-0.513382366
946,2368441,316060,0.952,0.205,0.175,-11.3,11.8,-13.1,-10.6,-36.8,0.5,0.568742943,-0.329264199,-0.551469466,-0.513748589
947,2372195,316070,0.952,0.205,0.175,-11.3,11.8,-13.1,-10.6,-36.8,0.5,0.568742943,-0.329264199,-0.551469466,-0.513748589
948,2373665,316070,0.952,0.201,0.179,-11.7,11.7,-12.5,-10.6,-36.8,0.5,0.56859035,-0.328959014,-0.551103244,-0.514511551
949,2376751,316070,0.948,0.205,0.187,-11.8,11.5,-12.1,-10.6,-36.8,0.5,0.568498795,-0.32883694,-0.550920133,-0.514908292
950,2379705,316070,0.948,0.205,0.187,-11.8,11.5,-12.1,-10.6,-36.8,0.5,0.568498795,-0.32883694,-0.550920133,-0.514908292
951,2381112,316080,0.948,0.209,0.187,-11.9,11,-11.3,-10.6,-36.8,0.5,0.568315683,-0.328592792,-0.550523392,-0.515640736
952,2384496,316080,0.948,0.205,0.183,-11.8,10.5,-10.9,-10.6,-36.8,0.5,0.568254646,-0.328501236,-0.550340281,-0.51597644
953,2386792,316080,0.948,0.213,0.183,-11.7,10.2,-10.5,-10.5,-36.7,-0.5,0.568163091,-0.32840968,-0.55015717,-0.516342662
954,2388862,316080,0.948,0.213,0.183,-11.7,10.2,-10.5,-10.5,-36.7,-0.5,0.568163091,-0.32840968,-0.55015717,-0.516342662
955,2391147,316090,0.944,0.217,0.187,-11.7,9.7,-9.8,-10.5,-36.7,-0.5,0.568010498,-0.328226569,-0.549790948,-0.517014069
956,2393479,316090,0.944,0.217,0.187,-11.6,9.6,-9.5,-10.5,-36.7,-0.5,0.567949461,-0.328165532,-0.549607837,-0.517319254
957,2397563,316090,0.948,0.217,0.183,-11.5,9.5,-9.2,-10.4,-37,-0.2,0.567857906,-0.328073977,-0.549424726,-0.517654958
958,2399686,316090,0.936,0.217,0.183,-11.4,9.5,-9,-10.4,-37,-0.2,0.567796869,-0.32801294,-0.549241615,-0.517960143
959,2401303,316100,0.94,0.225,0.179,-11.4,9.6,-8.7,-10.4,-37,-0.2,0.567735832,-0.327951903,-0.549058504,-0.518295846
960,2403807,316100,0.94,0.221,0.187,-11.4,9.5,-8.5,-10.4,-37,-0.2,0.567674795,-0.327860347,-0.548875393,-0.518601032
961,2405980,316100,0.936,0.229,0.179,-11.3,9.4,-8.2,-10.3,-36.9,-0.2,0.567430647,-0.327433088,-0.548844874,-0.519180883
962,2409567,316100,0.936,0.229,0.179,-11.3,9.4,-8.2,-10.3,-36.9,-0.2,0.567430647,-0.327433088,-0.548844874,-0.519180883
963,2411668,316110,0.94,0.225,0.175,-10.7,9,-7.6,-10.3,-36.9,-0.2,0.567308573,-0.327311014,-0.548478652,-0.519760735
964,2413761,316110,0.936,0.225,0.175,-10.3,8.8,-7.4,-10.3,-36.9,-0.2,0.567247536,-0.327249977,-0.548295541,-0.520035401
965,2416266,316110,0.936,0.229,0.175,-9.8,8.7,-7.2,-10.3,-36.8,-0.4,0.567217017,-0.32718894,-0.548142949,-0.520310068
966,2420035,316110,0.936,0.229,0.168,-9.4,8.5,-7,-10.3,-36.8,-0.4,0.56715598,-0.327097385,-0.547959838,-0.520584735
967,2422401,316120,0.936,0.229,0.168,-9.4,8.5,-7,-10.3,-36.8,-0.4,0.56715598,-0.327097385,-0.547959838,-0.520584735
968,2424555,316120,0.936,0.229,0.168,-9.4,8.5,-7,-10.3,-36.8,-0.4,0.56715598,-0.327097385,-0.547959838,-0.520584735
969,2426750,316120,0.94,0.233,0.168,-8.2,7.9,-6.5,-10.3,-36.8,-0.4,0.567033906,-0.326914274,-0.54750206,-0.521317179
970,2428772,316120,0.936,0.233,0.164,-7.8,7.7,-6.4,-10.3,-36.8,-0.4,0.567003388,-0.326853236,-0.547379986,-0.521530808
971,2431103,316130,0.936,0.229,0.164,-7.3,7.5,-6.4,-10.3,-36.8,-0.4,0.566972869,-0.326761681,-0.547227393,-0.521774957
972,2433479,316130,0.94,0.233,0.16,-6.6,7.2,-6.3,-10.3,-36.8,-0.4,0.566942351,-0.326700644,-0.547135838,-0.521958068
973,2437143,316130,0.936,0.237,0.16,-6,6.7,-6.2,-10.9,-37,-0.3,0.566881314,-0.326609088,-0.547013764,-0.522171697
974,2438633,316130,0.94,0.233,0.164,-5.3,6.2,-6,-10.9,-37,-0.3,0.566850795,-0.326548051,-0.546922208,-0.522354808
975,2441132,316140,0.94,0.229,0.164,-4.7,5.8,-5.8,-10.9,-37,-0.3,0.566820276,-0.326456496,-0.546830653,-0.522537919
976,2443839,316140,0.94,0.225,0.16,-4.2,5.4,-5.6,-10.9,-37,-0.3,0.566789758,-0.326395459,-0.546769616,-0.522690512
977,2446300,316140,0.944,0.225,0.167,-3.8,5.1,-5.5,-10.4,-37.1,-0.4,0.566759239,-0.326303903,-0.54667806,-0.522843104
978,2448631,316140,0.948,0.221,0.167,-3.6,4.9,-5.5,-10.4,-37.1,-0.4,0.566728721,-0.326242866,-0.546617023,-0.522995697
979,2452698,316150,0.948,0.217,0.163,-3.3,4.7,-5.6,-10.4,-37.1,-0.4,0.566698202,-0.326151311,-0.546555986,-0.523117771
980,2454825,316150,0.948,0.217,0.159,-3.1,4.5,-5.4,-10.4,-37.1,-0.4,0.566667684,-0.326090274,-0.546525468,-0.523270363
981,2456997,316150,0.948,0.217,0.159,-3.1,4.5,-5.4,-10.4,-37.1,-0.4,0.566667684,-0.326090274,-0.546525468,-0.523270363
982,2459455,316150,0.948,0.209,0.167,-2.7,3.8,-4.9,-10.4,-37,0,0.566148869,-0.325846126,-0.546952727,-0.523514512
983,2461214,316160,0.948,0.205,0.167,-2.6,3.5,-4.8,-10.4,-37,0,0.566118351,-0.32575457,-0.546922208,-0.523606067
984,2465490,316160,0.948,0.205,0.167,-2.5,3.3,-4.7,-10.4,-37,0,0.566087832,-0.325693533,-0.54689169,-0.523728141
985,2467819,316160,0.948,0.202,0.167,-2.4,3.1,-4.7,-10.4,-36.9,0.1,0.566057314,-0.325632496,-0.546861171,-0.523850215
986,2469897,316160,0.956,0.19,0.163,-2.1,2.9,-4.6,-10.4,-36.9,0.1,0.566026795,-0.325571459,-0.546830653,-0.523941771
987,2472009,316170,0.956,0.19,0.163,-2.1,2.9,-4.6,-10.4,-36.9,0.1,0.566026795,-0.325571459,-0.546830653,-0.523941771
988,2474168,316170,0.952,0.186,0.171,-1.5,2.4,-4.1,-10.4,-36.9,0.1,0.565965758,-0.325449385,-0.546800134,-0.524124882
989,2476531,316170,0.952,0.186,0.171,-1.5,2.4,-4.1,-10.4,-36.9,0.1,0.565965758,-0.325449385,-0.546800134,-0.524124882
990,2478536,316170,0.948,0.186,0.167,-0.8,1.8,-3.2,-10.4,-36.9,0.1,0.56593524,-0.32535783,-0.546769616,-0.524277474
991,2482817,316180,0.948,0.182,0.171,-0.5,1.5,-3,-10.4,-36.9,0.1,0.565904721,-0.325296793,-0.546769616,-0.524338511
992,2484821,316180,0.948,0.182,0.171,-0.1,1.3,-2.6,-10.4,-36.9,0.1,0.565904721,-0.325266274,-0.546769616,-0.52436903
993,2486307,316180,0.948,0.186,0.167,0.3,1,-2.1,-10.3,-36.7,-0.3,0.565874203,-0.325235755,-0.546769616,-0.524399548
994,2488875,316180,0.948,0.178,0.163,0.8,0.7,-1.7,-10.3,-36.7,-0.3,0.565874203,-0.325174718,-0.546769616,-0.524399548
995,2491777,316190,0.952,0.182,0.167,1.4,0.5,-1.4,-10.3,-36.7,-0.3,0.565874203,-0.3251442,-0.546800134,-0.524399548
996,2494591,316190,0.952,0.186,0.171,2,0.4,-1.1,-10.3,-36.7,-0.3,0.565874203,-0.325083163,-0.546830653,-0.524399548
997,2496877,316190,0.944,0.186,0.171,2.5,0.3,-0.7,-10.4,-36.8,-0.4,0.565904721,-0.325052644,-0.546861171,-0.524399548
998,2498680,316190,0.94,0.186,0.163,3,0.2,-0.4,-10.4,-36.8,-0.4,0.565904721,-0.324991607,-0.54689169,-0.52436903
999,2501259,316200,0.944,0.19,0.167,3.4,0,0,-10.4,-36.8,-0.4,0.56593524,-0.324961089,-0.546922208,-0.524338511
1000,2504459,316200,0.944,0.194,0.167,3.9,0,0.2,-10.4,-36.8,-0.4,0.565965758,-0.32493057,-0.546983245,-0.524277474
1001,2506072,316200,0.944,0.198,0.163,4.3,0,0.4,-9.9,-37,-0.6,0.565965758,-0.325205237,-0.547166356,-0.523911252
1002,2508548,316200,0.944,0.198,0.163,4.9,-0.1,0.7,-9.9,-37,-0.6,0.565996277,-0.325174718,-0.547227393,-0.523850215
1003,2512510,316210,0.948,0.202,0.167,5.5,-0.2,1,-9.9,-37,-0.6,0.566057314,-0.325113681,-0.54728843,-0.52375866
1004,2514707,316210,0.944,0.202,0.167,6,-0.2,1.5,-9.9,-37,-0.6,0.566118351,-0.325052644,-0.547349467,-0.523667104
1005,2516615,316210,0.944,0.202,0.167,6,-0.2,1.5,-9.9,-37,-0.6,0.566118351,-0.325052644,-0.547349467,-0.523667104
1006,2519077,316210,0.952,0.217,0.167,7,-0.2,2,-10.4,-37,0,0.566240425,-0.32493057,-0.547471541,-0.523453475
1007,2521072,316220,0.952,0.217,0.167,7,-0.2,2,-10.4,-37,0,0.566240425,-0.32493057,-0.547471541,-0.523453475
