sample_index,elapsed_us,device_time_ms,acc_x_g,acc_y_g,acc_z_g,gyro_x_dps,gyro_y_dps,gyro_z_dps,mag_x_ut,mag_y_ut,mag_z_ut,quat_w,quat_x,quat_y,quat_z
0,7625,448150,-0.569,-0.576,0.513,1.1,-4.9,10.2,5.1,-4.3,-22.6,0.490218818,0.121982482,0.496383557,-0.705954161
1,9113,448150,-0.565,-0.576,0.521,0.9,-4.6,9.8,5.1,-4.3,-22.6,0.490401929,0.122013001,0.496292001,-0.705862606
2,12044,448150,-0.565,-0.576,0.517,0.8,-4.4,9.5,5.1,-4.3,-22.6,0.49058504,0.122074038,0.496200446,-0.705801569
3,14899,448150,-0.569,-0.572,0.521,0.3,-4.3,8.8,5.1,-4.3,-22.6,0.490768151,0.122104556,0.49610889,-0.705710013
4,16476,448160,-0.569,-0.576,0.521,-0.9,-4.2,7.7,4.8,-4.3,-22,0.490920743,0.121677297,0.495742668,-0.705954161
5,19608,448160,-0.569,-0.576,0.521,-0.9,-4.2,7.7,4.8,-4.3,-22,0.491103854,0.121677297,0.495681631,-0.705862606
6,21459,448160,-0.569,-0.572,0.521,-1.5,-4.1,7.1,4.8,-4.3,-22,0.491256447,0.121677297,0.495651112,-0.70577105
7,24006,448160,-0.573,-0.568,0.525,-2.2,-4,6.6,4.8,-4.3,-22,0.49140904,0.121677297,0.495620594,-0.705679495
8,26736,448170,-0.577,-0.572,0.521,-2.8,-3.8,6,4.8,-4.3,-22,0.491561632,0.121646779,0.495620594,-0.705618458
9,29821,448170,-0.573,-0.568,0.529,-3.1,-3.8,5.3,4.8,-4.3,-22,0.491683706,0.12161626,0.495620594,-0.705526902
10,31343,448170,-0.577,-0.572,0.525,-3.3,-3.6,4.8,4.8,-4.3,-22,0.49180578,0.121585742,0.495620594,-0.705435347
11,34031,448170,-0.581,-0.572,0.517,-3.6,-3.5,4.1,4.8,-4.3,-22,0.491927854,0.121524705,0.495620594,-0.70537431
12,37066,448180,-0.577,-0.568,0.517,-3.8,-3.3,3.5,4.5,-4.2,-23.8,0.49201941,0.121494186,0.495620594,-0.705313272
13,40195,448180,-0.581,-0.576,0.525,-4,-3.2,2.9,4.5,-4.2,-23.8,0.492110965,0.121433149,0.495651112,-0.705221717
14,41660,448180,-0.581,-0.584,0.521,-4.1,-3,2.3,4.5,-4.2,-23.8,0.492202521,0.121372112,0.495681631,-0.70516068
15,45101,448180,-0.581,-0.587,0.525,-4.1,-2.9,1.7,4.5,-4.2,-23.8,0.492263558,0.121280557,0.495712149,-0.705130161
16,47320,448190,-0.585,-0.583,0.517,-3.9,-2.8,1.1,4.6,-4.2,-24.4,0.492324595,0.121189001,0.495742668,-0.705069124
17,49090,448190,-0.585,-0.591,0.521,-3.7,-2.8,0.5,4.6,-4.2,-24.4,0.492385632,0.121127964,0.495742668,-0.705038606
18,51511,448190,-0.585,-0.591,0.521,-3.5,-2.9,0,4.6,-4.2,-24.4,0.49241615,0.121066927,0.495773186,-0.705008087
19,53861,448190,-0.585,-0.595,0.525,-3,-2.9,-0.5,4.6,-4.2,-24.4,0.492446669,0.120975372,0.495803705,-0.704977569
20,57266,448200,-0.585,-0.599,0.521,-2.5,-2.9,-1,4.6,-4.3,-24.9,0.492477187,0.120883816,0.495803705,-0.704977569
21,59566,448200,-0.593,-0.595,0.525,-2,-2.7,-1.3,4.6,-4.3,-24.9,0.492477187,0.120792261,0.495803705,-0.704977569
22,61415,448200,-0.589,-0.595,0.529,-1.5,-2.6,-1.7,4.6,-4.3,-24.9,0.492477187,0.120700705,0.495803705,-0.704977569
23,63893,448200,-0.593,-0.591,0.525,-1,-2.4,-2,4.6,-4.3,-24.9,0.492477187,0.120639668,0.495803705,-0.705008087
24,66373,448210,-0.593,-0.591,0.525,-0.3,-2.3,-2.5,4.9,-4.4,-25.6,0.49241615,0.119998779,0.495376446,-0.705435347
25,68971,448210,-0.597,-0.591,0.529,-0.3,-2.3,-2.5,4.9,-4.4,-25.6,0.49241615,0.119937742,0.495376446,-0.705465865
26,72094,448210,-0.597,-0.595,0.529,0,-2.3,-2.8,4.9,-4.4,-25.6,0.492385632,0.119846187,0.495345927,-0.705526902
27,74155,448210,-0.597,-0.599,0.533,0.8,-2.3,-3.1,4.9,-4.4,-25.6,0.492355113,0.11978515,0.495315409,-0.705557421
28,76726,448220,-0.597,-0.595,0.529,1.5,-2.2,-3.4,4.9,-4.4,-25.6,0.492324595,0.119724113,0.49528489,-0.705618458
29,79215,448220,-0.597,-0.599,0.525,2.2,-2,-3.6,4.9,-4.4,-25.6,0.492294076,0.119693594,0.495223853,-0.705679495
30,81461,448220,-0.597,-0.595,0.529,2.8,-2,-3.7,4.9,-4.4,-25.6,0.492263558,0.119663076,0.495193335,-0.70577105
31,85606,448220,-0.601,-0.599,0.525,3.1,-1.9,-3.9,4.9,-4.4,-25.6,0.492202521,0.119602039,0.495132298,-0.705862606
32,87974,448230,-0.605,-0.591,0.526,3.3,-1.8,-3.9,4.7,-4.3,-25.1,0.492141484,0.11957152,0.495071261,-0.705923643
33,88898,448230,-0.601,-0.595,0.525,3.3,-1.8,-4,4.7,-4.3,-25.1,0.492110965,0.119541002,0.495010224,-0.706015198
34,91528,448230,-0.609,-0.591,0.518,3.3,-1.7,-4.1,4.7,-4.3,-25.1,0.492049928,0.119510483,0.494949187,-0.706106754
35,94725,448230,-0.609,-0.595,0.518,3.2,-1.6,-4.2,4.7,-4.3,-25.1,0.491988891,0.119479965,0.49488815,-0.706198309
36,97024,448240,-0.613,-0.591,0.518,3.3,-1.5,-4.4,5,-4.3,-25.4,0.491927854,0.119449446,0.494827113,-0.706289865
37,99080,448240,-0.613,-0.591,0.514,3.5,-1.4,-4.6,5,-4.3,-25.4,0.491866817,0.119388409,0.494766076,-0.70638142
38,101619,448240,-0.617,-0.591,0.51,3.6,-1.3,-4.7,5,-4.3,-25.4,0.49180578,0.119357891,0.494705039,-0.706472976
39,103986,448240,-0.617,-0.591,0.51,3.7,-1.2,-4.7,5,-4.3,-25.4,0.491714225,0.119327372,0.494613483,-0.706564531
40,107283,448250,-0.617,-0.591,0.51,3.5,-1,-4.7,4.5,-4.7,-25.5,0.491653188,0.119296854,0.494582965,-0.706656087
41,109590,448250,-0.621,-0.587,0.51,3.3,-0.9,-4.7,4.5,-4.7,-25.5,0.491592151,0.119235817,0.494552446,-0.706747642
42,111731,448250,-0.617,-0.583,0.51,3.1,-0.7,-4.8,4.5,-4.7,-25.5,0.491500595,0.119235817,0.494491409,-0.706839198
43,114182,448250,-0.617,-0.591,0.514,2.9,-0.5,-4.9,4.5,-4.7,-25.5,0.491439558,0.119205298,0.494460891,-0.706900235
44,116335,448260,-0.625,-0.586,0.503,2.7,-0.1,-5.1,4.9,-4.4,-25.4,0.491317484,0.118533891,0.493881039,-0.707510605
45,119334,448260,-0.625,-0.586,0.503,2.7,-0.1,-5.1,4.9,-4.4,-25.4,0.491256447,0.118503372,0.49385052,-0.707602161
46,121576,448260,-0.625,-0.583,0.507,2.6,0,-5.2,4.9,-4.4,-25.4,0.491164892,0.118472854,0.493820002,-0.707693716
47,123872,448260,-0.625,-0.583,0.507,2.6,0,-5.3,4.9,-4.4,-25.4,0.491073336,0.118442335,0.493789483,-0.707785272
48,126584,448270,-0.621,-0.587,0.51,2.6,0,-5.5,4.9,-4.4,-25.4,0.49098178,0.118411817,0.493758965,-0.707846309
49,129815,448270,-0.633,-0.586,0.499,2.6,0,-5.5,4.9,-4.4,-25.4,0.490890225,0.118381298,0.493728446,-0.707937864
50,132080,448270,-0.633,-0.582,0.507,2.7,0,-5.5,4.9,-4.4,-25.4,0.490798669,0.11835078,0.493728446,-0.707998901
51,134355,448270,-0.633,-0.582,0.507,2.8,0,-5.5,4.9,-4.4,-25.4,0.490707114,0.118320261,0.493697928,-0.708120975
52,136681,448280,-0.637,-0.586,0.503,2.8,0,-5.6,5.3,-4.3,-25,0.49058504,0.118259224,0.493667409,-0.708212531
53,139168,448280,-0.633,-0.586,0.499,2.8,0,-5.8,5.3,-4.3,-25,0.490493484,0.118259224,0.493636891,-0.708304086
54,141515,448280,-0.637,-0.586,0.495,2.7,0,-6.1,5.3,-4.3,-25,0.490401929,0.118198187,0.493606372,-0.708395642
55,143849,448280,-0.641,-0.582,0.495,2.7,-0.2,-6.5,5.3,-4.3,-25,0.490279855,0.118167669,0.493575854,-0.708517716
56,147081,448290,-0.645,-0.578,0.495,2.7,-0.4,-6.9,5.1,-4.3,-24.8,0.490188299,0.118106632,0.493545335,-0.708609272
57,149319,448290,-0.645,-0.582,0.491,2.9,-0.7,-7.2,5.1,-4.3,-24.8,0.490066225,0.118045595,0.493514817,-0.708731346
58,151574,448290,-0.641,-0.582,0.491,3.1,-1,-7.4,5.1,-4.3,-24.8,0.48997467,0.117984558,0.49345378,-0.70885342
59,154003,448290,-0.641,-0.582,0.495,3.2,-1.4,-7.7,5.1,-4.3,-24.8,0.489852596,0.117923521,0.493423261,-0.708975494
60,156379,448300,-0.641,-0.582,0.495,3.3,-1.7,-8,5.1,-4.4,-24.6,0.489730522,0.117831965,0.493362224,-0.709097568
61,159814,448300,-0.641,-0.59,0.495,3.3,-1.9,-8.2,5.1,-4.4,-24.6,0.489608448,0.117770928,0.493301187,-0.709219642
62,162127,448300,-0.637,-0.59,0.495,3.6,-1.9,-8.2,5.1,-4.4,-24.6,0.489516892,0.117679373,0.493270669,-0.709341716
63,164229,448300,-0.641,-0.59,0.495,3.8,-1.8,-8.2,5.1,-4.4,-24.6,0.489394818,0.117618336,0.493209632,-0.709494308
64,166570,448310,-0.637,-0.594,0.491,4.2,-1.3,-8.1,5.2,-4.5,-25.2,0.489242225,0.117343669,0.492996002,-0.709768975
65,169020,448310,-0.637,-0.594,0.491,4.2,-1.3,-8.1,5.2,-4.5,-25.2,0.489120151,0.117282632,0.492934965,-0.709891049
66,171400,448310,-0.641,-0.602,0.491,4.4,-1.3,-8.2,5.2,-4.5,-25.2,0.488998077,0.117221595,0.492873928,-0.710043641
67,174753,448310,-0.641,-0.602,0.491,4.7,-1.5,-8.3,5.2,-4.5,-25.2,0.488876003,0.117160558,0.492782373,-0.710196234
68,177021,448320,-0.649,-0.602,0.492,5.1,-1.6,-8.4,5.2,-4.5,-25.2,0.488753929,0.117099521,0.492721335,-0.710348827
69,179246,448320,-0.645,-0.602,0.495,5.2,-1.7,-8.3,5.2,-4.5,-25.2,0.488631855,0.117038484,0.49262978,-0.710501419
70,181489,448320,-0.649,-0.606,0.484,5.3,-1.6,-8.2,5.2,-4.5,-25.2,0.488509781,0.116977447,0.492568743,-0.710623493
71,183959,448320,-0.649,-0.598,0.484,5.3,-1.6,-8.3,5.2,-4.5,-25.2,0.488387707,0.11691641,0.492477187,-0.710776086
72,187503,448330,-0.661,-0.601,0.484,5.4,-1.6,-8.4,6.5,-4.2,-24.9,0.488265633,0.116855373,0.492385632,-0.710928678
73,189032,448330,-0.661,-0.594,0.484,5.8,-1.7,-8.5,6.5,-4.2,-24.9,0.488143559,0.116794336,0.492324595,-0.711111789
74,191945,448330,-0.665,-0.601,0.484,6.4,-1.9,-8.5,6.5,-4.2,-24.9,0.487990967,0.116763817,0.492202521,-0.711264382
75,194245,448330,-0.661,-0.605,0.476,7.2,-2.1,-8.6,6.5,-4.2,-24.9,0.487868892,0.11670278,0.492110965,-0.711447493
76,196490,448340,-0.661,-0.613,0.469,7.8,-2.3,-8.5,6.8,-4.2,-24.4,0.487746818,0.116672262,0.491958373,-0.711630604
77,199032,448340,-0.657,-0.613,0.468,8.3,-2.4,-8.4,6.8,-4.2,-24.4,0.487624744,0.116611225,0.491836299,-0.711813715
78,202509,448340,-0.661,-0.613,0.472,8.5,-2.4,-8.2,6.8,-4.2,-24.4,0.48750267,0.116580706,0.491714225,-0.711996826
79,203999,448340,-0.657,-0.609,0.472,8.3,-2.3,-8.3,6.8,-4.2,-24.4,0.487380596,0.116550188,0.491561632,-0.712179937
80,207041,448350,-0.653,-0.613,0.476,8,-2.1,-8.4,6.2,-4.1,-24.6,0.487228004,0.116519669,0.491439558,-0.712363048
81,209246,448350,-0.661,-0.621,0.476,8,-1.8,-8.6,6.2,-4.1,-24.6,0.48710593,0.116489151,0.491317484,-0.712546159
82,212230,448350,-0.657,-0.609,0.484,8,-1.7,-8.6,6.2,-4.1,-24.6,0.486953337,0.116428114,0.49119541,-0.71272927
83,214528,448350,-0.657,-0.609,0.492,8.1,-1.4,-8.7,6.2,-4.1,-24.6,0.486800745,0.116397595,0.491073336,-0.712912381
84,216777,448360,-0.657,-0.613,0.504,8,-0.7,-8.6,6.6,-4.6,-24.7,0.486556597,0.11630604,0.49119541,-0.713003937
85,219033,448360,-0.657,-0.605,0.511,8,-0.7,-8.6,6.6,-4.6,-24.7,0.486404004,0.11630604,0.491073336,-0.713187048
86,221607,448360,-0.653,-0.609,0.507,7.9,-0.4,-8.4,6.6,-4.6,-24.7,0.48628193,0.11630604,0.49098178,-0.713370159
87,223947,448360,-0.649,-0.606,0.515,7.6,0,-8.2,6.6,-4.6,-24.7,0.486129337,0.11630604,0.490890225,-0.71355327
88,227268,448370,-0.649,-0.598,0.523,7.3,0.2,-8.1,6.6,-4.6,-24.7,0.485976745,0.11630604,0.490798669,-0.713705863
89,229741,448370,-0.649,-0.606,0.527,6.9,0.5,-7.9,6.6,-4.6,-24.7,0.485824152,0.11630604,0.490707114,-0.713858455
90,231883,448370,-0.649,-0.609,0.535,6.5,0.8,-7.8,6.6,-4.6,-24.7,0.48567156,0.11630604,0.490646077,-0.714011048
91,234086,448370,-0.645,-0.606,0.534,6.2,1.3,-7.7,6.6,-4.6,-24.7,0.485518967,0.11630604,0.49058504,-0.71416364
92,236547,448380,-0.649,-0.609,0.542,5.9,1.7,-7.4,5.2,-4.8,-24.8,0.485366375,0.11630604,0.490524003,-0.714285714
93,238931,448380,-0.645,-0.61,0.542,5.6,2.2,-7.1,5.2,-4.8,-24.8,0.485213782,0.11630604,0.490462966,-0.714438307
94,242484,448380,-0.645,-0.61,0.534,5.3,2.5,-6.7,5.2,-4.8,-24.8,0.485091708,0.11630604,0.490432447,-0.714560381
95,244845,448380,-0.645,-0.61,0.534,4.9,2.7,-6.3,5.2,-4.8,-24.8,0.484939116,0.116367077,0.490401929,-0.714651936
96,247026,448390,-0.641,-0.614,0.534,4.5,2.9,-6,5,-5.2,-25,0.484786523,0.116397595,0.49037141,-0.71477401
97,249309,448390,-0.645,-0.613,0.531,4.2,3.1,-5.8,5,-5.2,-25,0.484664449,0.116428114,0.49037141,-0.714865566
98,251642,448390,-0.645,-0.61,0.527,3.9,3.3,-5.7,5,-5.2,-25,0.484542375,0.116458632,0.490340892,-0.714957121
99,255101,448390,-0.645,-0.61,0.523,3.8,3.7,-5.4,5,-5.2,-25,0.484389782,0.116519669,0.490340892,-0.715048677
100,257452,448400,-0.645,-0.617,0.519,3.9,4,-5.1,4.8,-4.6,-24.9,0.484267708,0.116550188,0.490340892,-0.715140233
101,259527,448400,-0.645,-0.614,0.515,4.1,4.4,-4.7,4.8,-4.6,-24.9,0.484115116,0.116641743,0.490340892,-0.715231788
102,262811,448400,-0.645,-0.614,0.515,4.3,4.7,-4.5,4.8,-4.6,-24.9,0.483993042,0.11670278,0.490310373,-0.715292825
103,264302,448400,-0.645,-0.61,0.515,4.6,5,-4.3,4.8,-4.6,-24.9,0.483870968,0.116794336,0.490310373,-0.715384381
104,267325,448410,-0.645,-0.614,0.515,4.8,5.2,-4.3,4.2,-5,-24.7,0.483687857,0.116672262,0.490218818,-0.71559801
105,269454,448410,-0.645,-0.614,0.515,5.2,5.5,-4.2,4.2,-5,-24.7,0.483535264,0.116763817,0.490188299,-0.715689566
106,271286,448410,-0.645,-0.614,0.511,5.6,5.7,-4.1,4.2,-5,-24.7,0.48341319,0.116855373,0.490188299,-0.715781121
107,274491,448410,-0.641,-0.606,0.511,6.1,5.8,-4,4.2,-5,-24.7,0.483260598,0.116977447,0.490157781,-0.715872677
108,276593,448420,-0.641,-0.602,0.507,6.6,5.8,-3.8,4.2,-5,-24.7,0.483108005,0.117099521,0.490127262,-0.715964232
109,279563,448420,-0.645,-0.606,0.507,7,6,-3.7,4.2,-5,-24.7,0.482985931,0.117221595,0.490096744,-0.716055788
110,281404,448420,-0.645,-0.598,0.507,7.5,6.1,-3.6,4.2,-5,-24.7,0.482833338,0.117374187,0.490035707,-0.716147343
111,284083,448420,-0.641,-0.602,0.503,7.9,6.2,-3.5,4.2,-5,-24.7,0.482711264,0.117496261,0.490005188,-0.716269417
112,287036,448430,-0.641,-0.594,0.503,8.3,6.3,-3.4,2.8,-4.8,-24.9,0.482558672,0.117648854,0.489944151,-0.716391491
113,290065,448430,-0.641,-0.594,0.499,8.8,6.4,-3.2,2.8,-4.8,-24.9,0.482406079,0.117831965,0.489883114,-0.716483047
114,292037,448430,-0.637,-0.586,0.499,9,6.5,-3.1,2.8,-4.8,-24.9,0.482253487,0.117984558,0.489822077,-0.716605121
115,295358,448430,-0.645,-0.586,0.495,9.2,6.6,-3.1,2.8,-4.8,-24.9,0.482131413,0.11813715,0.48976104,-0.716727195
116,297435,448440,-0.645,-0.594,0.491,9.3,6.6,-3,2,-4.7,-25.1,0.48197882,0.118320261,0.489669485,-0.716818751
117,299613,448440,-0.645,-0.59,0.491,9.3,6.6,-2.8,2,-4.7,-25.1,0.481856746,0.118503372,0.489608448,-0.716940825
118,301502,448440,-0.645,-0.586,0.503,9.3,6.7,-2.7,2,-4.7,-25.1,0.481704154,0.118655965,0.489547411,-0.717062899
119,305566,448440,-0.649,-0.59,0.503,9.4,6.7,-2.6,2,-4.7,-25.1,0.481551561,0.118839076,0.489486373,-0.717154454
120,307194,448450,-0.649,-0.586,0.495,9.4,6.7,-2.6,2.4,-4.7,-24.7,0.481429487,0.119022187,0.489394818,-0.717276528
121,309720,448450,-0.653,-0.586,0.496,9.3,6.7,-2.6,2.4,-4.7,-24.7,0.481276894,0.119205298,0.489333781,-0.717398602
122,311490,448450,-0.649,-0.586,0.492,9.1,6.7,-2.5,2.4,-4.7,-24.7,0.48115482,0.119357891,0.489272744,-0.717490158
123,314828,448450,-0.653,-0.59,0.496,9.1,6.7,-2.4,2.4,-4.7,-24.7,0.481032746,0.119541002,0.489211707,-0.717612232
124,317054,448460,-0.649,-0.59,0.488,9.1,6.6,-2.2,2.7,-4.7,-24.6,0.480910672,0.11978515,0.48915067,-0.717673269
125,319136,448460,-0.649,-0.59,0.488,9.1,6.6,-2.1,2.7,-4.7,-24.6,0.480788598,0.119937742,0.489059114,-0.717795343
126,321513,448460,-0.649,-0.59,0.499,9,6.6,-2.1,2.7,-4.7,-24.6,0.480666524,0.120120853,0.488998077,-0.717886898
127,323950,448460,-0.645,-0.586,0.495,8.8,6.4,-2.1,2.7,-4.7,-24.6,0.48054445,0.120303964,0.48893704,-0.717978454
128,326998,448470,-0.645,-0.59,0.507,8.8,6.3,-2.1,2.7,-4.7,-24.6,0.480422376,0.120456557,0.488876003,-0.718100528
129,329229,448470,-0.645,-0.594,0.503,8.7,6.1,-2.2,2.7,-4.7,-24.6,0.480269784,0.120639668,0.488814966,-0.718192083
130,331585,448470,-0.641,-0.59,0.503,8.5,6.2,-2.3,2.7,-4.7,-24.6,0.48014771,0.120792261,0.488753929,-0.718283639
131,334666,448470,-0.641,-0.586,0.507,8.3,6.3,-2.4,2.7,-4.7,-24.6,0.480025636,0.120944853,0.488692892,-0.718375195
132,337073,448480,-0.637,-0.59,0.503,8.2,6.4,-2.3,4.5,-3.5,-24.7,0.479903562,0.121127964,0.488631855,-0.71846675
133,339276,448480,-0.641,-0.586,0.511,8,6.3,-2.1,4.5,-3.5,-24.7,0.479781487,0.121280557,0.488570818,-0.718558306
134,341517,448480,-0.637,-0.582,0.511,8,6.3,-1.7,4.5,-3.5,-24.7,0.479659413,0.121433149,0.488509781,-0.718649861
135,344270,448480,-0.633,-0.578,0.511,8,6.3,-1.5,4.5,-3.5,-24.7,0.479537339,0.12161626,0.488448744,-0.718741417
136,346542,448490,-0.637,-0.586,0.515,8,6.3,-1.5,5.4,-3.5,-24.4,0.479445784,0.121768853,0.488418226,-0.718832972
137,348856,448490,-0.629,-0.586,0.514,8,6.4,-1.4,5.4,-3.5,-24.4,0.47932371,0.121951964,0.488357189,-0.718924528
138,352176,448490,-0.629,-0.582,0.518,7.9,6.6,-1.3,5.4,-3.5,-24.4,0.479201636,0.122135075,0.488296152,-0.718985565
139,354524,448490,-0.629,-0.586,0.522,7.9,6.7,-1.3,5.4,-3.5,-24.4,0.47911008,0.122287667,0.488235115,-0.71907712
140,357187,448500,-0.625,-0.59,0.522,7.7,6.8,-1.3,6,-3.2,-24.1,0.478988006,0.122470779,0.488204596,-0.719168676
141,359396,448500,-0.629,-0.594,0.522,7.6,6.7,-1.2,6,-3.2,-24.1,0.478865932,0.12265389,0.488143559,-0.719229713
142,361651,448500,-0.625,-0.594,0.526,7.6,6.7,-1.2,6,-3.2,-24.1,0.478774377,0.122806482,0.488113041,-0.71929075
143,364008,448500,-0.617,-0.594,0.526,7.6,6.6,-1.1,6,-3.2,-24.1,0.478652303,0.122989593,0.488052004,-0.719382305
144,366425,448510,-0.617,-0.595,0.522,7.8,6.6,-1.2,6.9,-3.4,-24.3,0.478560747,0.12265389,0.487533189,-0.719840083
145,369785,448510,-0.621,-0.594,0.53,8,6.6,-1.2,6.9,-3.4,-24.3,0.478438673,0.122867519,0.48750267,-0.719931639
146,372136,448510,-0.621,-0.594,0.522,8.2,6.6,-1.3,6.9,-3.4,-24.3,0.478316599,0.12305063,0.487441633,-0.720023194
147,374212,448510,-0.617,-0.598,0.518,8.3,6.6,-1.3,6.9,-3.4,-24.3,0.478225043,0.123203223,0.487380596,-0.720084231
148,376356,448520,-0.617,-0.598,0.518,8.6,6.4,-1.3,5,-5.7,-24.5,0.478102969,0.123386334,0.487319559,-0.720175787
149,379067,448520,-0.617,-0.598,0.514,8.9,6.4,-1.5,5,-5.7,-24.5,0.477980895,0.123569445,0.487228004,-0.720267342
150,381797,448520,-0.621,-0.598,0.51,9.4,6.3,-1.7,5,-5.7,-24.5,0.477858821,0.123752556,0.487166967,-0.720389416
151,384219,448520,-0.617,-0.602,0.514,10,6.2,-1.9,5,-5.7,-24.5,0.477736747,0.123935667,0.487075411,-0.720480972
152,386534,448530,-0.621,-0.598,0.51,10.4,6.1,-2.1,5.6,-4.5,-24.7,0.477614673,0.124118778,0.486983856,-0.720603046
153,389787,448530,-0.613,-0.599,0.514,10.8,5.9,-2.6,5.6,-4.5,-24.7,0.477492599,0.124301889,0.4868923,-0.72072512
154,392396,448530,-0.617,-0.602,0.514,11.3,5.9,-3.1,5.6,-4.5,-24.7,0.477340007,0.124485,0.486770226,-0.720877712
155,394677,448530,-0.617,-0.602,0.506,11.6,5.8,-3.4,5.6,-4.5,-24.7,0.477187414,0.124607074,0.486648152,-0.721030305
156,397582,448540,-0.617,-0.606,0.51,11.9,5.9,-3.6,5.4,-4.7,-24.6,0.477034822,0.124820704,0.486556597,-0.721152379
157,399960,448540,-0.613,-0.606,0.514,12.2,6.1,-4,5.4,-4.7,-24.6,0.476882229,0.125003815,0.486434523,-0.721304971
158,402195,448540,-0.617,-0.606,0.514,12.7,6.2,-4.4,5.4,-4.7,-24.6,0.476699118,0.125186926,0.486312449,-0.721488083
159,405028,448540,-0.613,-0.606,0.514,13.1,6.2,-4.7,5.4,-4.7,-24.6,0.476516007,0.125370037,0.486159856,-0.721671194
160,407347,448550,-0.613,-0.61,0.51,13.4,6,-5,5.6,-5,-24.6,0.476332896,0.125553148,0.486037782,-0.721823786
161,409655,448550,-0.621,-0.61,0.51,13.6,6,-5.2,5.6,-5,-24.6,0.476149785,0.125736259,0.485885189,-0.722006897
162,411924,448550,-0.621,-0.61,0.503,13.9,6.2,-5.5,5.6,-5,-24.6,0.475966674,0.12591937,0.485763115,-0.722220527
163,414812,448550,-0.618,-0.626,0.51,14.2,6.4,-5.9,5.6,-5,-24.6,0.475753044,0.126102481,0.485610523,-0.722403638
164,417126,448560,-0.618,-0.622,0.503,14.7,6.6,-6.4,5.6,-5.7,-24.6,0.475295267,0.125644704,0.485488449,-0.722891934
165,419320,448560,-0.618,-0.622,0.503,15,6.5,-6.8,5.6,-5.7,-24.6,0.475051119,0.125827815,0.485335856,-0.723105564
166,421625,448560,-0.618,-0.622,0.503,15.3,6.5,-7.1,5.6,-5.7,-24.6,0.474837489,0.126010926,0.485183264,-0.723319193
167,424090,448560,-0.614,-0.626,0.514,15.4,6.3,-7.4,5.6,-5.7,-24.6,0.474623859,0.126194037,0.485030671,-0.723532823
168,426643,448570,-0.614,-0.63,0.518,15.6,6.3,-7.8,5.8,-4.3,-24.2,0.474379711,0.126377148,0.48484756,-0.723776971
169,428861,448570,-0.61,-0.63,0.526,15.7,6.5,-8.1,5.8,-4.3,-24.2,0.474135563,0.126560259,0.484725486,-0.7239906
170,432214,448570,-0.61,-0.63,0.534,15.8,6.7,-8.3,5.8,-4.3,-24.2,0.473891415,0.12674337,0.484542375,-0.724234748
171,434234,448570,-0.61,-0.63,0.534,15.9,7.1,-8.3,5.8,-4.3,-24.2,0.473647267,0.126926481,0.484389782,-0.724478896
172,436473,448580,-0.61,-0.626,0.537,16,7.6,-8.3,5.6,-6.7,-24.7,0.4733726,0.127109592,0.48423719,-0.724692526
173,439133,448580,-0.61,-0.626,0.541,16.2,7.9,-8.3,5.6,-6.7,-24.7,0.473128452,0.127323222,0.484084597,-0.724936674
174,441505,448580,-0.61,-0.63,0.545,16.7,8.2,-8.2,5.6,-6.7,-24.7,0.472853786,0.127536851,0.483932005,-0.725180822
175,445754,448580,-0.61,-0.634,0.549,17.3,8.5,-8.3,5.6,-6.7,-24.7,0.472579119,0.127780999,0.483779412,-0.72542497
176,446385,448590,-0.614,-0.634,0.549,17.9,8.7,-8.4,5.3,-7.4,-24.6,0.472304453,0.127994629,0.483596301,-0.725669118
177,449629,448590,-0.622,-0.638,0.546,18.4,8.9,-8.5,5.3,-7.4,-24.6,0.472029786,0.128238777,0.48341319,-0.725943785
178,451648,448590,-0.626,-0.653,0.542,18.9,9.1,-8.7,5.3,-7.4,-24.6,0.471755119,0.128482925,0.483230079,-0.726187933
179,454613,448590,-0.626,-0.653,0.538,19.5,9.1,-8.9,5.3,-7.4,-24.6,0.471449934,0.128757591,0.483046968,-0.7264626
180,456419,448600,-0.626,-0.657,0.542,20.1,9.1,-9.2,5.3,-7.6,-24.8,0.471144749,0.12900174,0.482863857,-0.726767785
181,459300,448600,-0.626,-0.669,0.538,20.8,8.8,-9.6,5.3,-7.6,-24.8,0.470839564,0.129245888,0.482650227,-0.727042451
182,461316,448600,-0.626,-0.673,0.53,21.6,8.6,-9.9,5.3,-7.6,-24.8,0.470534379,0.129520554,0.482406079,-0.727347636
183,464542,448600,-0.623,-0.689,0.526,22.7,8.2,-10.2,5.3,-7.6,-24.8,0.470229194,0.129764702,0.482161931,-0.72768334
184,466989,448610,-0.619,-0.705,0.53,24,8.1,-10.6,5.5,-8,-24.8,0.469740898,0.129673147,0.48197882,-0.728141118
185,469024,448610,-0.623,-0.712,0.534,25.4,7.9,-11,5.5,-8,-24.8,0.469405194,0.129947813,0.481673635,-0.72850734
186,472079,448610,-0.619,-0.716,0.53,27,7.7,-11.4,5.5,-8,-24.8,0.469069491,0.13022248,0.48136845,-0.728873562
187,474464,448610,-0.619,-0.724,0.522,28.7,7.5,-11.9,5.5,-8,-24.8,0.468703269,0.130497147,0.481032746,-0.729270302
188,476522,448620,-0.615,-0.736,0.515,30.5,7.2,-12.4,5.8,-4.2,-22.5,0.468337046,0.130802332,0.480636006,-0.729697562
189,479060,448620,-0.612,-0.756,0.499,32.5,7,-13.2,5.8,-4.2,-22.5,0.467970824,0.131076998,0.480239265,-0.730155339
190,481756,448620,-0.604,-0.764,0.491,34.6,6.6,-14.1,5.8,-4.2,-22.5,0.467574084,0.131412702,0.479781487,-0.730643635
191,484777,448620,-0.6,-0.776,0.503,36.8,6.3,-15.1,5.8,-4.2,-22.5,0.467146825,0.131748405,0.479293191,-0.73116245
192,486295,448630,-0.596,-0.784,0.502,39,6,-16.1,5.7,-6.5,-25.8,0.466719565,0.132053591,0.478804895,-0.731742302
193,489349,448630,-0.596,-0.784,0.499,41.1,6.1,-17.2,5.7,-6.5,-25.8,0.466261788,0.132419813,0.478255562,-0.732322153
194,492422,448630,-0.588,-0.78,0.498,43,6.2,-18.4,5.7,-6.5,-25.8,0.465773492,0.132755516,0.47767571,-0.732932524
195,494670,448630,-0.58,-0.78,0.498,44.8,6.5,-19.7,5.7,-6.5,-25.8,0.465285195,0.133121738,0.477095859,-0.733573412
196,497016,448640,-0.568,-0.769,0.498,46.8,6.8,-21,6.1,-5.8,-25.5,0.464735862,0.13348796,0.47645497,-0.734275338
197,499263,448640,-0.56,-0.769,0.501,49,6.9,-22.4,6.1,-5.8,-25.5,0.464156011,0.133854183,0.475814081,-0.734977264
198,501437,448640,-0.552,-0.757,0.513,51.5,7.2,-23.9,6.1,-5.8,-25.5,0.46354564,0.134250923,0.475142674,-0.735740226
199,504046,448640,-0.54,-0.75,0.532,54.1,7.6,-25.2,6.1,-5.8,-25.5,0.462904752,0.134647664,0.47441023,-0.736533708
200,506389,448650,-0.524,-0.73,0.571,56.8,8.4,-26.2,6.3,-5.1,-25.7,0.462233345,0.135074923,0.473647267,-0.737357707
201,509518,448650,-0.511,-0.715,0.59,59.3,9.3,-27,6.3,-5.1,-25.7,0.461531419,0.135563219,0.472884304,-0.738212226
202,511492,448650,-0.507,-0.703,0.601,61.2,10.3,-27.6,6.3,-5.1,-25.7,0.460768456,0.136051515,0.472090823,-0.739097262
203,514184,448650,-0.499,-0.687,0.621,62.4,11.5,-28.3,6.3,-5.1,-25.7,0.460005493,0.13657033,0.471266823,-0.739982299
204,517501,448660,-0.478,-0.649,0.647,62.9,12.9,-28.8,5.9,-5.5,-25.2,0.458876308,0.136051515,0.470381787,-0.741355632
205,518985,448660,-0.47,-0.637,0.674,63.2,14.5,-29.1,5.9,-5.5,-25.2,0.458052309,0.136631367,0.469618824,-0.742240669
206,522109,448660,-0.462,-0.617,0.694,63.4,16.1,-29.3,5.9,-5.5,-25.2,0.457228309,0.137211219,0.468825343,-0.743156224
207,524362,448660,-0.454,-0.61,0.705,63.7,17.7,-29.4,5.9,-5.5,-25.2,0.456373791,0.137852107,0.46806238,-0.744041261
208,526511,448670,-0.437,-0.594,0.736,64.3,19.2,-29.3,6.4,-6.7,-23.3,0.455519272,0.138492996,0.467268899,-0.744926298
209,529004,448670,-0.433,-0.594,0.748,65,20.6,-29,6.4,-6.7,-23.3,0.454634236,0.139164403,0.466536454,-0.745811335
210,531370,448670,-0.433,-0.594,0.755,65.6,22.1,-28.6,6.4,-6.7,-23.3,0.453749199,0.139866329,0.465773492,-0.746696371
211,535566,448670,-0.429,-0.595,0.736,66,23.6,-28.1,6.4,-6.7,-23.3,0.452833644,0.14065981,0.465010529,-0.747581408
212,537097,448680,-0.426,-0.599,0.732,66.1,25.2,-27.6,6.5,-7.1,-24,0.451918088,0.141422773,0.464278085,-0.748435926
213,539081,448680,-0.426,-0.606,0.724,65.7,26.7,-27.4,6.5,-7.1,-24,0.451002533,0.142246773,0.46354564,-0.749290445
214,541484,448680,-0.43,-0.614,0.708,64.7,28.2,-27.3,6.5,-7.1,-24,0.450056459,0.143070772,0.462843715,-0.750114444
215,545633,448680,-0.426,-0.63,0.673,63.1,29.6,-27.4,6.5,-7.1,-24,0.449110385,0.143894772,0.462172308,-0.750938444
216,547826,448690,-0.431,-0.646,0.666,61.5,31,-27.7,6.8,-7.3,-23.5,0.448164312,0.144718772,0.461561937,-0.751731925
217,549863,448690,-0.439,-0.649,0.654,60.3,32.4,-28,6.8,-7.3,-23.5,0.447187719,0.14557329,0.460982086,-0.752525407
218,552077,448690,-0.443,-0.653,0.639,59.7,33.7,-28.2,6.8,-7.3,-23.5,0.446180609,0.146427808,0.460432752,-0.753288369
219,554239,448690,-0.447,-0.665,0.615,59.4,34.8,-28.5,6.8,-7.3,-23.5,0.445173498,0.147282327,0.459883419,-0.754051332
220,556456,448700,-0.451,-0.673,0.608,59.4,35.9,-29,6.7,-7.7,-23.5,0.444135868,0.148167364,0.459334086,-0.754814295
221,559089,448700,-0.455,-0.673,0.6,59.4,36.8,-29.7,6.7,-7.7,-23.5,0.443098239,0.1490524,0.458815271,-0.755577258
222,563300,448700,-0.455,-0.677,0.592,59.5,37.9,-30.5,6.7,-7.7,-23.5,0.441999573,0.149937437,0.458296457,-0.75634022
223,565553,448700,-0.467,-0.676,0.585,59.8,39.2,-31.2,6.7,-7.7,-23.5,0.440900906,0.150852992,0.457777642,-0.757103183
224,567144,448710,-0.463,-0.669,0.573,60.2,40.2,-32,7.3,-8,-22.7,0.439374981,0.150578326,0.45719779,-0.758415479
225,569540,448710,-0.463,-0.669,0.573,60.8,41.2,-32.7,7.3,-8,-22.7,0.438215278,0.151493881,0.456709494,-0.75920896
226,571696,448710,-0.463,-0.657,0.569,61.6,41.9,-33.6,7.3,-8,-22.7,0.437025056,0.152470473,0.45619068,-0.760002441
227,573953,448710,-0.459,-0.649,0.557,62.2,42.6,-34.2,7.3,-8,-22.7,0.435834834,0.153416547,0.455671865,-0.760795923
228,577453,448720,-0.459,-0.645,0.565,62.7,43.2,-34.9,7.7,-8.3,-24,0.434614093,0.154393139,0.45515305,-0.761619922
229,579830,448720,-0.459,-0.645,0.553,63.1,43.9,-35.6,7.7,-8.3,-24,0.433362835,0.155369732,0.454634236,-0.762413404
230,582117,448720,-0.455,-0.645,0.537,63.6,44.4,-36.4,7.7,-8.3,-24,0.432111576,0.156346324,0.454115421,-0.763237403
231,583959,448720,-0.455,-0.641,0.526,64.2,45,-37.3,7.7,-8.3,-24,0.430829798,0.157322916,0.453596606,-0.764091922
232,586372,448730,-0.455,-0.653,0.518,64.6,45.7,-38.3,7.9,-8.4,-21.9,0.429517502,0.158299509,0.45310831,-0.764915922
233,589028,448730,-0.463,-0.669,0.518,65,46.5,-39.4,7.9,-8.4,-21.9,0.428174688,0.159306619,0.452589496,-0.76577044
234,592282,448730,-0.464,-0.696,0.526,65.4,47.2,-40.6,7.9,-8.4,-21.9,0.426801355,0.16031373,0.452070681,-0.76659444
235,594050,448730,-0.464,-0.708,0.53,65.6,47.9,-41.7,7.9,-8.4,-21.9,0.425397504,0.161320841,0.451551866,-0.767509995
236,596936,448740,-0.468,-0.716,0.534,65.7,48.5,-42.9,7.8,-8.4,-21,0.423963134,0.162297433,0.45106357,-0.768364513
237,599067,448740,-0.468,-0.724,0.542,65.7,49.2,-44.2,7.8,-8.4,-21,0.422498245,0.163304544,0.450575274,-0.76924955
238,601650,448740,-0.472,-0.712,0.561,65.9,49.9,-45.7,7.8,-8.4,-21,0.421002838,0.164281137,0.450086978,-0.770134587
239,604592,448740,-0.468,-0.7,0.577,66,50.9,-47.2,7.8,-8.4,-21,0.419476913,0.165257729,0.4496292,-0.771050142
240,606960,448750,-0.471,-0.68,0.581,66.3,51.7,-48.4,8.3,-8.8,-20.2,0.417920469,0.166295358,0.449140904,-0.771965697
241,609047,448750,-0.458,-0.633,0.615,66.4,52.6,-49.4,8.3,-8.8,-20.2,0.416302988,0.167302469,0.448683126,-0.772850734
242,611594,448750,-0.45,-0.606,0.627,66.9,53.6,-49.9,8.3,-8.8,-20.2,0.414716025,0.168340098,0.448225349,-0.773766289
243,614727,448750,-0.442,-0.587,0.642,67.6,54.6,-50.1,8.3,-8.8,-20.2,0.413068026,0.169377728,0.447737053,-0.774681845
244,616985,448760,-0.429,-0.548,0.657,68.5,55.5,-50.1,8.6,-8.7,-20.2,0.411175878,0.169469283,0.447065645,-0.776085696
245,619141,448760,-0.425,-0.544,0.661,69.5,56.6,-49.8,8.6,-8.7,-20.2,0.40949736,0.170567949,0.446577349,-0.777001251
246,621409,448760,-0.425,-0.532,0.657,70.5,57.6,-49.6,8.6,-8.7,-20.2,0.407849361,0.171697134,0.446089053,-0.777916807
247,625115,448760,-0.425,-0.532,0.653,71.5,58.6,-49.8,8.6,-8.7,-20.2,0.406140324,0.172826319,0.445570238,-0.778832362
248,626598,448770,-0.425,-0.544,0.638,72.5,59.5,-50.5,9.3,-9.2,-23.7,0.404431288,0.173986023,0.445051424,-0.779747917
249,629611,448770,-0.442,-0.575,0.619,73.5,60.4,-51.6,9.3,-9.2,-23.7,0.402691733,0.175176244,0.444532609,-0.780693991
250,631831,448770,-0.45,-0.602,0.615,74.4,61.4,-53,9.3,-9.2,-23.7,0.400921659,0.176366466,0.444013794,-0.781640065
251,634924,448770,-0.458,-0.614,0.596,75.1,62.3,-54.4,9.3,-9.2,-23.7,0.399090548,0.177556688,0.44349498,-0.782616657
252,636505,448780,-0.463,-0.641,0.62,75.6,63.1,-55.5,9.1,-9.4,-21.5,0.397228919,0.17874691,0.442945647,-0.783562731
253,639439,448780,-0.463,-0.657,0.631,75.5,63.9,-56,9.1,-9.4,-21.5,0.39536729,0.179906613,0.442426832,-0.784539323
254,641358,448780,-0.467,-0.669,0.6,74.3,64.6,-56,9.1,-9.4,-21.5,0.393475143,0.181157872,0.441938536,-0.785485397
255,644830,448780,-0.479,-0.668,0.55,72.5,65.5,-55.7,9.1,-9.4,-21.5,0.391613514,0.182378613,0.441480758,-0.786400952
256,646474,448790,-0.484,-0.668,0.483,71.4,66.4,-55.7,10.2,-9.3,-22,0.389721366,0.183568834,0.441053499,-0.787285989
257,649495,448790,-0.475,-0.653,0.468,72.5,67,-56.5,10.2,-9.3,-22,0.387829218,0.184789575,0.440595721,-0.788201544
258,651526,448790,-0.487,-0.641,0.456,75.8,67,-58.1,10.2,-9.3,-22,0.385876034,0.186040834,0.440076907,-0.789147618
259,654667,448790,-0.503,-0.629,0.437,79.5,66.9,-59.8,10.2,-9.3,-22,0.383861812,0.187292093,0.439527573,-0.790154729
260,657008,448800,-0.527,-0.601,0.395,81.8,66.9,-60.7,10.2,-9.8,-22.4,0.381847591,0.188543352,0.438917203,-0.79116184
261,659033,448800,-0.535,-0.597,0.391,81.9,67.2,-60.8,10.2,-9.8,-22.4,0.37980285,0.18979461,0.438306833,-0.79216895
262,661419,448800,-0.534,-0.593,0.391,80.2,67.5,-60.4,10.2,-9.8,-22.4,0.377788629,0.191045869,0.437726981,-0.793145543
263,664519,448800,-0.535,-0.597,0.395,77.8,67.9,-59.9,10.2,-9.8,-22.4,0.375774407,0.192297128,0.437208167,-0.794122135
264,666409,448810,-0.534,-0.6,0.426,75.3,68.1,-60.1,11.1,-9.6,-22.5,0.373760186,0.193517869,0.436689352,-0.79503769
265,669326,448810,-0.534,-0.604,0.449,73,68.2,-60.8,11.1,-9.6,-22.5,0.371745964,0.194738609,0.436231574,-0.795922727
266,671451,448810,-0.538,-0.616,0.454,70.3,68.3,-61.7,11.1,-9.6,-22.5,0.369731742,0.195898312,0.435834834,-0.796807764
267,674025,448810,-0.543,-0.628,0.442,67.1,68.6,-62.8,11.1,-9.6,-22.5,0.367656484,0.197027497,0.43549913,-0.797662282
268,676409,448820,-0.547,-0.647,0.438,64.1,68.9,-63.8,11.4,-10.2,-20.4,0.365642262,0.198126164,0.435193945,-0.798486282
269,679734,448820,-0.539,-0.651,0.454,62.7,69.3,-65.2,11.4,-10.2,-20.4,0.363597522,0.19922483,0.434949797,-0.799310282
270,682078,448820,-0.547,-0.655,0.473,63.1,69.4,-66.8,11.4,-10.2,-20.4,0.361491745,0.200292978,0.43467513,-0.800134281
271,684280,448820,-0.567,-0.647,0.478,64.6,69.5,-68.2,11.4,-10.2,-20.4,0.359355449,0.201391644,0.434400464,-0.800958281
272,686490,448830,-0.574,-0.639,0.486,65.8,69.7,-69.2,12.3,-10.3,-20.3,0.357188635,0.202459792,0.43406476,-0.801843318
273,689138,448830,-0.578,-0.627,0.494,65.8,69.9,-69.5,12.3,-10.3,-20.3,0.355021821,0.20352794,0.433790094,-0.802697836
274,691307,448830,-0.57,-0.623,0.497,64.8,70.2,-69.4,12.3,-10.3,-20.3,0.352855007,0.204596088,0.433515427,-0.803521836
275,695559,448830,-0.566,-0.615,0.517,63.5,70.6,-69.2,12.3,-10.3,-20.3,0.350688192,0.205664235,0.433240761,-0.804345836
276,697100,448840,-0.566,-0.615,0.532,62.6,70.9,-69.3,12.9,-9.8,-19.7,0.348521378,0.206762902,0.432996612,-0.805139317
277,699253,448840,-0.566,-0.619,0.54,62.3,71.3,-69.5,12.9,-9.8,-19.7,0.346324046,0.20783105,0.432752464,-0.805932798
278,702090,448840,-0.57,-0.615,0.556,62.6,71.5,-70,12.9,-9.8,-19.7,0.344157231,0.208899197,0.432508316,-0.806726279
279,704187,448840,-0.57,-0.615,0.575,62.8,71.9,-70.2,12.9,-9.8,-19.7,0.34192938,0.209967345,0.432264168,-0.807519761
280,706330,448850,-0.574,-0.615,0.564,62.5,72.3,-70.2,13.7,-10.1,-19.2,0.339732047,0.211035493,0.43202002,-0.808282723
281,709702,448850,-0.582,-0.619,0.552,62.1,72.9,-70,13.7,-10.1,-19.2,0.337534715,0.212134159,0.431775872,-0.809076205
282,712039,448850,-0.586,-0.634,0.545,62.3,73.4,-70,13.7,-10.1,-19.2,0.335306864,0.213232826,0.431562243,-0.809808649
283,714151,448850,-0.594,-0.65,0.541,63.9,73.8,-70.5,13.7,-10.1,-19.2,0.333079012,0.214331492,0.431287576,-0.81060213
284,716445,448860,-0.606,-0.658,0.526,66.4,74,-71.5,13.9,-10.4,-19,0.330698569,0.215247047,0.431073946,-0.811456648
285,719441,448860,-0.606,-0.658,0.526,68.9,74.1,-72.4,13.9,-10.4,-19,0.328379162,0.216376232,0.430707724,-0.81225013
286,721776,448860,-0.602,-0.673,0.518,70.7,74.1,-73.1,13.9,-10.4,-19,0.326059755,0.217505417,0.430341502,-0.813104648
287,723863,448860,-0.599,-0.674,0.506,71.6,74.1,-73.3,13.9,-10.4,-19,0.32370983,0.21866512,0.429944761,-0.813928648
288,726719,448870,-0.599,-0.674,0.506,72,74.1,-73.6,12.8,-10.3,-18.9,0.321359905,0.219794305,0.429517502,-0.814783166
289,730223,448870,-0.595,-0.662,0.494,72.1,74.1,-73.9,12.8,-10.3,-18.9,0.31900998,0.22092349,0.429120762,-0.815607166
290,732323,448870,-0.598,-0.638,0.486,72.1,74.3,-74.2,12.8,-10.3,-18.9,0.316660054,0.222052675,0.428724021,-0.816431166
291,733872,448870,-0.606,-0.622,0.475,71.6,74.4,-74.4,12.8,-10.3,-18.9,0.314279611,0.22318186,0.428296762,-0.817255165
292,736985,448880,-0.614,-0.614,0.448,70.5,74.5,-74.3,15.6,-10.5,-17.8,0.311899167,0.224280526,0.42793054,-0.818079165
293,739149,448880,-0.626,-0.606,0.417,68.9,74.6,-74.2,15.6,-10.5,-17.8,0.309549242,0.225409711,0.427564318,-0.818842128
294,741464,448880,-0.618,-0.61,0.424,67.9,74.8,-74.5,15.6,-10.5,-17.8,0.307199316,0.226508377,0.427228614,-0.81960509
295,744056,448880,-0.622,-0.606,0.424,68.5,74.9,-75.2,15.6,-10.5,-17.8,0.304788354,0.227607044,0.426862392,-0.820398572
296,748245,448890,-0.634,-0.598,0.417,69.9,74.7,-75.9,16.4,-10.3,-17.7,0.30240791,0.228675192,0.42649617,-0.821161534
297,750080,448890,-0.649,-0.574,0.382,70.8,74.7,-76.3,16.4,-10.3,-17.7,0.29996643,0.229773858,0.426099429,-0.821955016
298,752306,448890,-0.653,-0.57,0.378,70.3,74.7,-75.9,16.4,-10.3,-17.7,0.297555467,0.230872524,0.425702689,-0.822717978
299,753885,448890,-0.649,-0.559,0.374,68.1,74.8,-75.3,16.4,-10.3,-17.7,0.295175024,0.231971191,0.425336467,-0.823480941
300,756456,448900,-0.645,-0.563,0.374,65.1,74.7,-74.8,16.9,-10.8,-17.4,0.292825098,0.233039338,0.425031281,-0.824182867
301,758913,448900,-0.649,-0.566,0.382,62.1,74.8,-74.4,16.9,-10.8,-17.4,0.290475173,0.234076968,0.424756615,-0.824854274
302,762073,448900,-0.657,-0.57,0.39,59.5,74.8,-74.1,16.9,-10.8,-17.4,0.288125248,0.235114597,0.424542985,-0.825464644
303,764300,448900,-0.661,-0.574,0.398,57.3,75,-73.9,16.9,-10.8,-17.4,0.285805841,0.236152226,0.424359874,-0.826075014
304,766490,448910,-0.661,-0.586,0.418,55.4,75.2,-73.9,16.8,-10.6,-17.3,0.283425398,0.237403485,0.424542985,-0.826441237
305,769234,448910,-0.661,-0.59,0.433,53.6,75.4,-73.9,16.8,-10.6,-17.3,0.281136509,0.238410596,0.424420911,-0.827021088
306,771464,448910,-0.661,-0.598,0.441,52,75.8,-73.9,16.8,-10.6,-17.3,0.278817103,0.239417707,0.424298837,-0.827539903
307,775655,448910,-0.665,-0.597,0.445,50.6,76.1,-73.8,16.8,-10.6,-17.3,0.276497696,0.240394299,0.424268319,-0.828058718
308,777949,448920,-0.673,-0.605,0.449,49.7,76.3,-73.7,15.1,-10.5,-17.2,0.274208808,0.24140141,0.424207282,-0.828577532
309,778815,448920,-0.677,-0.605,0.449,49.1,76.5,-73.6,15.1,-10.5,-17.2,0.271919919,0.242408521,0.424176763,-0.829065828
310,781442,448920,-0.677,-0.601,0.453,48.7,76.9,-73.3,15.1,-10.5,-17.2,0.269600513,0.243385113,0.424146245,-0.829523606
311,784653,448920,-0.681,-0.605,0.453,48.7,77,-73.1,15.1,-10.5,-17.2,0.267311625,0.244361705,0.424085208,-0.830011902
312,786858,448930,-0.685,-0.597,0.465,48.9,77.2,-73,18.9,-10.1,-17.3,0.265022736,0.245399335,0.424054689,-0.83046968
313,788955,448930,-0.689,-0.593,0.465,49.2,77.3,-73.1,18.9,-10.1,-17.3,0.26270333,0.246406446,0.423993652,-0.830927458
314,791490,448930,-0.689,-0.593,0.469,49.5,77.3,-73.1,18.9,-10.1,-17.3,0.260414441,0.247413556,0.423932615,-0.831385235
315,794681,448930,-0.685,-0.585,0.469,49.6,77.5,-73.2,18.9,-10.1,-17.3,0.258095035,0.248420667,0.423871578,-0.831843013
316,797034,448940,-0.684,-0.562,0.473,49.4,77.6,-73,19.5,-9.8,-16.7,0.255775628,0.249458296,0.423810541,-0.83230079
317,799220,448940,-0.692,-0.557,0.469,49.1,77.8,-72.9,19.5,-9.8,-16.7,0.253456221,0.250465407,0.423749504,-0.83272805
318,801420,448940,-0.692,-0.557,0.469,48.9,78.1,-72.5,19.5,-9.8,-16.7,0.251167333,0.251472518,0.423688467,-0.833155309
319,804174,448940,-0.692,-0.554,0.469,48.9,78.3,-71.8,19.5,-9.8,-16.7,0.248847926,0.252510147,0.423596912,-0.833552049
320,806751,448950,-0.7,-0.573,0.466,49,78.5,-71.1,20,-9.8,-16.3,0.246559038,0.253547777,0.423535875,-0.83394879
321,809056,448950,-0.697,-0.577,0.465,49.1,78.8,-70.6,20,-9.8,-16.3,0.24427015,0.254585406,0.423444319,-0.834345531
322,811348,448950,-0.701,-0.581,0.473,49.1,79.1,-70.3,20,-9.8,-16.3,0.241981262,0.255623035,0.423383282,-0.834742271
323,814623,448950,-0.709,-0.596,0.478,48.8,79.4,-70.2,20,-9.8,-16.3,0.239692373,0.256691183,0.423291726,-0.835108493
324,816932,448960,-0.717,-0.592,0.462,48.4,79.6,-70,20.4,-10,-16.1,0.237495041,0.258033998,0.423291726,-0.835322123
325,819152,448960,-0.717,-0.592,0.462,47.9,79.7,-69.9,20.4,-10,-16.1,0.235206153,0.259071627,0.423230689,-0.835688345
326,821389,448960,-0.721,-0.588,0.458,47.3,79.9,-70,20.4,-10,-16.1,0.232917264,0.260139775,0.423169652,-0.836024049
327,823967,448960,-0.729,-0.576,0.427,47,79.9,-70.1,20.4,-10,-16.1,0.230628376,0.261177404,0.423108615,-0.836359752
328,826836,448970,-0.736,-0.572,0.42,46.9,79.8,-70.1,19.5,-9.7,-15.3,0.228339488,0.262184515,0.423078097,-0.836695456
329,829018,448970,-0.74,-0.568,0.396,47,79.7,-70.1,19.5,-9.7,-15.3,0.226081118,0.263283181,0.42301706,-0.837031159
330,831362,448970,-0.748,-0.564,0.377,47.4,79.6,-70.1,19.5,-9.7,-15.3,0.22379223,0.264320811,0.422925504,-0.837336344
331,835014,448970,-0.764,-0.552,0.342,47.8,79.2,-70.2,19.5,-9.7,-15.3,0.221472823,0.265327921,0.422833949,-0.837672048
332,836506,448980,-0.768,-0.552,0.327,48.5,78.8,-70.3,19.2,-10,-15.4,0.219183935,0.266365551,0.422742393,-0.838007752
333,839042,448980,-0.776,-0.548,0.319,49.4,78.1,-70.5,19.2,-10,-15.4,0.216895047,0.267372662,0.422620319,-0.838343455
334,841398,448980,-0.772,-0.548,0.303,50.8,77.4,-70.5,19.2,-10,-15.4,0.214606159,0.268379772,0.422467727,-0.838679159
335,844782,448980,-0.78,-0.552,0.307,52.4,76.7,-70.3,19.2,-10,-15.4,0.212286752,0.269386883,0.422284616,-0.839045381
336,847124,448990,-0.78,-0.548,0.315,54.1,76.2,-70.2,18.9,-9.7,-14.9,0.209967345,0.270393994,0.422040468,-0.839411603
337,849398,448990,-0.78,-0.548,0.323,55.7,75.5,-69.9,18.9,-9.7,-14.9,0.207678457,0.271370586,0.421796319,-0.839808344
338,851492,448990,-0.776,-0.536,0.339,56.9,74.9,-69.8,18.9,-9.7,-14.9,0.20535905,0.272377697,0.421491134,-0.840205084
339,854550,448990,-0.776,-0.528,0.354,57.7,74.2,-69.8,18.9,-9.7,-14.9,0.203070162,0.273354289,0.421185949,-0.840601825
340,856922,449000,-0.78,-0.524,0.37,58.1,73.7,-69.9,17.4,-9.5,-14.2,0.200750755,0.274300363,0.420850246,-0.840998566
341,859097,449000,-0.783,-0.512,0.389,58.2,73.2,-69.9,17.4,-9.5,-14.2,0.198461867,0.275276955,0.420545061,-0.841395306
342,861373,449000,-0.787,-0.504,0.421,58.2,73,-70.1,17.4,-9.5,-14.2,0.19614246,0.276223029,0.420209357,-0.841792047
343,863984,449000,-0.791,-0.496,0.417,58,72.8,-70.1,17.4,-9.5,-14.2,0.193823054,0.277169103,0.419873653,-0.842188787
344,866426,449010,-0.818,-0.476,0.414,57.9,72.5,-70.4,18.4,-9.5,-14,0.192144536,0.279549547,0.419476913,-0.841975158
345,869630,449010,-0.818,-0.476,0.414,57.8,72.2,-70.7,18.4,-9.5,-14,0.189825129,0.280495621,0.419141209,-0.84234138
346,872099,449010,-0.818,-0.468,0.433,57.8,71.9,-71.1,18.4,-9.5,-14,0.187505722,0.281380657,0.418836024,-0.842738121
347,873840,449010,-0.806,-0.468,0.449,57.6,71.7,-71.5,18.4,-9.5,-14,0.185186316,0.282296213,0.41850032,-0.843104343
348,876881,449020,-0.806,-0.472,0.452,57.4,71.2,-71.9,23.3,-10,-13.4,0.18283639,0.283181249,0.418164617,-0.843470565
349,878953,449020,-0.794,-0.469,0.46,57.3,70.8,-72,23.3,-10,-13.4,0.180516984,0.284066286,0.417828913,-0.843867306
350,882261,449020,-0.798,-0.469,0.464,57.1,70.4,-72,23.3,-10,-13.4,0.178197577,0.284920804,0.41749321,-0.844203009
351,883994,449020,-0.798,-0.461,0.472,56.5,70.2,-71.6,23.3,-10,-13.4,0.17587817,0.285775323,0.417188025,-0.844569231
352,886338,449030,-0.806,-0.453,0.468,55.6,70.2,-71.1,19.8,-8.7,-13.4,0.173589282,0.286629841,0.416882839,-0.844904935
353,888767,449030,-0.814,-0.445,0.464,54.2,70.1,-70.5,19.8,-8.7,-13.4,0.171300394,0.287484359,0.416577654,-0.845240638
354,892095,449030,-0.821,-0.437,0.461,52.5,70,-70,19.8,-8.7,-13.4,0.169042024,0.288338878,0.416302988,-0.845515305
355,894354,449030,-0.829,-0.436,0.457,50.6,69.7,-69.3,19.8,-8.7,-13.4,0.166814173,0.289193396,0.41605884,-0.845789972
356,896489,449040,-0.837,-0.428,0.457,48.7,69.5,-68.7,20.4,-8.1,-12.7,0.16461684,0.290017396,0.41584521,-0.846064638
357,899325,449040,-0.849,-0.42,0.457,46.7,69.1,-68.3,20.4,-8.1,-12.7,0.162419507,0.290841395,0.415662099,-0.846278268
358,901351,449040,-0.861,-0.412,0.458,44.9,68.7,-68,20.4,-8.1,-12.7,0.160252693,0.291665395,0.415509507,-0.846491897
359,904358,449040,-0.861,-0.416,0.454,43.1,68.2,-67.7,20.4,-8.1,-12.7,0.158116398,0.292458876,0.415387432,-0.846675008
360,906620,449050,-0.865,-0.424,0.454,41.6,67.5,-67.3,21.4,-8,-12.3,0.15601062,0.293221839,0.415265358,-0.846858119
361,909213,449050,-0.869,-0.439,0.438,40.4,66.7,-66.8,21.4,-8,-12.3,0.153904843,0.293984802,0.415173803,-0.847041231
362,911442,449050,-0.87,-0.451,0.431,39.6,65.6,-66.5,21.4,-8,-12.3,0.151829585,0.294747765,0.415082247,-0.847193823
363,914825,449050,-0.87,-0.459,0.419,39.1,64.5,-66.1,21.4,-8,-12.3,0.149754326,0.29544969,0.41502121,-0.847346416
364,916643,449060,-0.87,-0.479,0.399,38.9,63.1,-65.8,21.9,-7.8,-12,0.148625141,0.297677541,0.414258248,-0.847132786
365,918911,449060,-0.874,-0.479,0.388,38.9,61.7,-65.5,21.9,-7.8,-12,0.14661092,0.298348949,0.414166692,-0.847285379
366,921492,449060,-0.874,-0.479,0.38,38.7,60.1,-65,21.9,-7.8,-12,0.144596698,0.298989837,0.414075137,-0.84746849
367,923841,449060,-0.87,-0.471,0.372,38.5,58.6,-64.5,21.9,-7.8,-12,0.142643513,0.299630726,0.413953063,-0.847621082
368,927258,449070,-0.878,-0.459,0.361,38.1,57,-63.7,24,-9.7,-11.7,0.140690329,0.300210578,0.413830988,-0.847804193
369,929467,449070,-0.874,-0.436,0.353,37.7,55.6,-62.9,24,-9.7,-11.7,0.138767663,0.300790429,0.413739433,-0.847956786
370,931696,449070,-0.882,-0.431,0.349,37.3,54.1,-62.1,24,-9.7,-11.7,0.136875515,0.301339763,0.413617359,-0.848139897
371,933826,449070,-0.885,-0.424,0.353,37,52.8,-61.2,24,-9.7,-11.7,0.135044404,0.301889096,0.413495285,-0.848292489
372,937061,449080,-0.897,-0.411,0.361,36.8,51.4,-60.2,24.4,-7,-11.9,0.133213294,0.30240791,0.413342692,-0.8484756
373,939315,449080,-0.901,-0.407,0.361,36.8,50.1,-59.4,24.4,-7,-11.9,0.131412702,0.302896207,0.4131901,-0.848628193
374,941587,449080,-0.909,-0.407,0.373,37.2,48.6,-58.6,24.4,-7,-11.9,0.129642628,0.303384503,0.413037507,-0.848811304
375,943843,449080,-0.913,-0.407,0.385,37.6,46.8,-57.8,24.4,-7,-11.9,0.127903073,0.303811762,0.412854396,-0.849024934
376,946431,449090,-0.905,-0.415,0.404,38.1,44.9,-56.8,24.7,-6.9,-11.4,0.126194037,0.304239021,0.412640767,-0.849208045
377,948879,449090,-0.909,-0.411,0.428,38.4,43.1,-55.8,24.7,-6.9,-11.4,0.124515519,0.30466628,0.412427137,-0.849421674
378,952086,449090,-0.905,-0.411,0.431,38.5,41.3,-54.9,24.7,-6.9,-11.4,0.122867519,0.305032502,0.412182989,-0.849665822
379,954427,449090,-0.9,-0.399,0.455,38.2,39.8,-54,24.7,-6.9,-11.4,0.121250038,0.305398724,0.411938841,-0.849879452
380,956583,449100,-0.904,-0.38,0.455,37.4,38.5,-53.1,25.6,-6.9,-11,0.119663076,0.305734428,0.411725211,-0.850093081
381,959825,449100,-0.912,-0.368,0.455,36.2,37.3,-52.2,25.6,-6.9,-11,0.11813715,0.306039613,0.411481063,-0.850306711
382,962199,449100,-0.916,-0.356,0.459,34.7,36.2,-51.4,25.6,-6.9,-11,0.116611225,0.306344798,0.411267434,-0.850520341
383,965094,449100,-0.931,-0.336,0.471,32.9,35,-50.5,25.6,-6.9,-11,0.115146336,0.306619465,0.411084323,-0.850703452
384,967317,449110,-0.959,-0.316,0.472,30.9,34,-49.6,26.1,-6.1,-10.8,0.115115818,0.308877834,0.409558397,-0.850611896
385,969530,449110,-0.959,-0.316,0.472,28.5,33.1,-48.5,26.1,-6.1,-10.8,0.113742485,0.309121982,0.409436323,-0.850764489
386,971346,449110,-0.974,-0.311,0.476,25.8,32.5,-47.5,26.1,-6.1,-10.8,0.11239967,0.309366131,0.409375286,-0.850886563
387,974649,449110,-0.994,-0.303,0.492,22.8,31.8,-46.4,26.1,-6.1,-10.8,0.111087374,0.309610279,0.409344768,-0.851008637
388,976796,449120,-1.006,-0.311,0.496,19.5,30.9,-45.1,25,-7.5,-10.9,0.109836116,0.309823908,0.409344768,-0.851069674
389,979042,449120,-1.022,-0.314,0.497,16,30,-43.9,25,-7.5,-10.9,0.108645894,0.310037538,0.409436323,-0.851100192
390,981801,449120,-1.042,-0.333,0.509,12.5,28.9,-42.7,25,-7.5,-10.9,0.107516709,0.310220649,0.409558397,-0.851130711
391,984198,449120,-1.062,-0.345,0.514,9,27.9,-41.7,25,-7.5,-10.9,0.106418043,0.310373241,0.409741508,-0.851130711
392,986332,449130,-1.078,-0.348,0.518,5.7,26.9,-40.6,25.4,-7.5,-10.6,0.105380413,0.310525834,0.409955138,-0.851069674
393,989064,449130,-1.094,-0.36,0.507,2.5,25.8,-39.4,25.4,-7.5,-10.6,0.104403821,0.310678426,0.410229804,-0.851008637
394,991942,449130,-1.126,-0.367,0.496,-0.1,24.7,-38.1,25.4,-7.5,-10.6,0.103488266,0.310800501,0.410565508,-0.8509476
395,994113,449130,-1.138,-0.37,0.492,-2.6,23.4,-37,25.4,-7.5,-10.6,0.102603229,0.310892056,0.410901212,-0.850825526
396,996402,449140,-1.154,-0.378,0.485,-4.7,22,-36,25.4,-8.7,-10.6,0.101779229,0.310953093,0.411297952,-0.85073397
397,999591,449140,-1.17,-0.385,0.478,-6.3,20.3,-35,25.4,-8.7,-10.6,0.100985748,0.31101413,0.411694693,-0.850611896
398,1001430,449140,-1.194,-0.397,0.47,-7.2,18.5,-34,25.4,-8.7,-10.6,0.100192267,0.31101413,0.412091433,-0.850489822
399,1004730,449140,-1.202,-0.408,0.463,-7.5,16.4,-33,25.4,-8.7,-10.6,0.0995208594,0.31101413,0.412488174,-0.850398267
400,1006648,449150,-1.202,-0.416,0.463,-7.2,14,-32,25.4,-10.1,-10.4,0.0988494522,0.310983612,0.412884915,-0.850306711
401,1008846,449150,-1.21,-0.424,0.463,-6.2,11.3,-30.9,25.4,-10.1,-10.4,0.0982085635,0.310892056,0.413220618,-0.850215155
402,1011415,449150,-1.214,-0.432,0.463,-4.5,8.4,-29.7,25.4,-10.1,-10.4,0.0976287118,0.310769982,0.413525803,-0.850184637
403,1014424,449150,-1.21,-0.432,0.463,-2.4,5.4,-28.4,25.4,-10.1,-10.4,0.0970488601,0.310617389,0.413769951,-0.850184637
404,1016343,449160,-1.21,-0.432,0.471,0.1,2.4,-27,25.5,-9.6,-10.5,0.0965300455,0.31040376,0.413983581,-0.850245674
405,1018924,449160,-1.214,-0.416,0.487,2.8,-0.4,-25.4,25.5,-9.6,-10.5,0.0960417493,0.31019013,0.414075137,-0.850306711
406,1021671,449160,-1.214,-0.4,0.494,5.2,-3.3,-23.9,25.5,-9.6,-10.5,0.0956144902,0.309915464,0.414136174,-0.850428785
407,1024452,449160,-1.205,-0.369,0.498,7.3,-6.2,-22.4,25.5,-9.6,-10.5,0.0951872311,0.309610279,0.414136174,-0.850581378
408,1026383,449170,-1.209,-0.349,0.494,8.7,-9.1,-21,25.5,-4.9,-9.7,0.0948210089,0.309274575,0.414105655,-0.850764489
409,1030375,449170,-1.208,-0.282,0.517,9.4,-12.1,-19.4,25.5,-4.9,-9.7,0.0945158238,0.308877834,0.414044618,-0.850978118
410,1031932,449170,-1.211,-0.251,0.517,9.4,-15.1,-17.8,25.5,-4.9,-9.7,0.0942411573,0.308481094,0.413953063,-0.851222266
411,1034920,449170,-1.207,-0.219,0.525,8.6,-18,-16.1,25.5,-4.9,-9.7,0.0940580462,0.307992798,0.413861507,-0.851435896
412,1036396,449180,-1.206,-0.192,0.537,7.2,-20.7,-14.3,25.1,-8.1,-11.5,0.0939359722,0.307504501,0.41380047,-0.851680044
413,1039270,449180,-1.21,-0.137,0.529,5.2,-23.2,-12.5,25.1,-8.1,-11.5,0.0938444166,0.306955168,0.413739433,-0.851893674
414,1042288,449180,-1.217,-0.125,0.533,2.6,-25.6,-10.6,25.1,-8.1,-11.5,0.0938444166,0.306405835,0.413708914,-0.852107303
415,1043867,449180,-1.225,-0.105,0.533,-0.6,-27.9,-8.6,25.1,-8.1,-11.5,0.0939664907,0.305795465,0.413708914,-0.852320933
416,1046627,449190,-1.233,-0.089,0.533,-4.6,-30.1,-6.8,25.5,-7.9,-11.6,0.0941496017,0.305154576,0.413769951,-0.852504044
417,1049702,449190,-1.26,-0.085,0.526,-9,-32.1,-5,25.5,-7.9,-11.6,0.0944242683,0.304513688,0.413922544,-0.852626118
418,1051418,449190,-1.264,-0.081,0.522,-13.7,-34.1,-3.4,25.5,-7.9,-11.6,0.0947599719,0.303811762,0.414136174,-0.852748192
419,1054202,449190,-1.28,-0.076,0.526,-18.4,-36,-1.6,25.5,-7.9,-11.6,0.0951567125,0.303079318,0.41441084,-0.852809229
420,1057163,449200,-1.292,-0.06,0.535,-23.3,-38.1,0.2,25.6,-7.7,-12,0.0956755272,0.302346873,0.414746544,-0.852870266
421,1059449,449200,-1.304,-0.064,0.531,-28.2,-40.2,2.1,25.6,-7.7,-12,0.0962553789,0.301553392,0.415173803,-0.852870266
422,1061761,449200,-1.316,-0.064,0.523,-33.1,-42.4,4.1,25.6,-7.7,-12,0.0969267861,0.300729392,0.415692618,-0.852839747
423,1063869,449200,-1.328,-0.059,0.516,-37.9,-44.6,6.1,25.6,-7.7,-12,0.0976897488,0.299874874,0.416241951,-0.85277871
424,1067535,449210,-1.355,-0.051,0.493,-42.5,-46.9,8.2,25.3,-7,-12.1,0.0985747856,0.298989837,0.416882839,-0.852656636
425,1069114,449210,-1.367,-0.055,0.49,-46.8,-49.2,10.4,25.3,-7,-12.1,0.0995208594,0.298043764,0.417584765,-0.852534562
426,1071539,449210,-1.375,-0.054,0.47,-51,-51.6,12.7,25.3,-7,-12.1,0.100558489,0.29709769,0.418347728,-0.85238197
427,1074305,449210,-1.383,-0.058,0.474,-54.9,-54,14.9,25.3,-7,-12.1,0.101657155,0.296121097,0.419141209,-0.852198859
428,1076467,449220,-1.403,-0.07,0.459,-58.5,-56.6,16.9,25,-6.2,-10,0.102877895,0.295083468,0.419995727,-0.851985229
429,1079000,449220,-1.407,-0.069,0.452,-61.7,-59.3,18.9,25,-6.2,-10,0.104190191,0.29401532,0.420880764,-0.851771599
430,1082447,449220,-1.412,-0.081,0.452,-64.4,-62.1,20.9,25,-6.2,-10,0.105563524,0.292916654,0.421826838,-0.851527451
431,1084735,449220,-1.428,-0.089,0.46,-66.6,-65,22.8,25,-6.2,-10,0.106997894,0.291756951,0.422742393,-0.851283303
432,1087085,449230,-1.432,-0.093,0.456,-68,-67.8,24.7,25.1,-6.1,-13.5,0.108493301,0.290566729,0.423688467,-0.851008637
433,1089206,449230,-1.444,-0.1,0.461,-68.7,-70.9,26.5,25.1,-6.1,-13.5,0.110110782,0.28931547,0.424634541,-0.850764489
434,1091479,449230,-1.452,-0.104,0.469,-68.5,-74.1,28.3,25.1,-6.1,-13.5,0.111758782,0.288033692,0.425550096,-0.850520341
435,1093845,449230,-1.475,-0.099,0.485,-67.3,-77.4,30.1,25.1,-6.1,-13.5,0.1134373,0.286721397,0.426435133,-0.850306711
436,1097089,449240,-1.487,-0.099,0.485,-65.4,-80.6,31.8,24.7,-5.5,-13.5,0.115207373,0.285348064,0.427228614,-0.8501236
437,1099328,449240,-1.503,-0.099,0.497,-62.8,-83.7,33.4,24.7,-5.5,-13.5,0.117007965,0.283974731,0.427991577,-0.849971007
438,1101484,449240,-1.515,-0.087,0.494,-59.6,-87,34.9,24.7,-5.5,-13.5,0.118808557,0.282509842,0.428662984,-0.849879452
439,1104126,449240,-1.546,-0.07,0.498,-56,-90.4,36.4,24.7,-5.5,-13.5,0.120700705,0.281044954,0.429242836,-0.849787896
440,1106315,449250,-1.566,-0.042,0.499,-52.5,-93.9,38.1,24.6,-5.7,-14,0.122592853,0.279519028,0.429731132,-0.849787896
441,1108839,449250,-1.585,-0.014,0.503,-49.3,-97.3,39.8,24.6,-5.7,-14,0.124546037,0.277962584,0.430127873,-0.849818415
442,1112172,449250,-1.608,0.021,0.484,-46.8,-100.7,41.6,24.6,-5.7,-14,0.126560259,0.276345103,0.430463576,-0.849848933
443,1114363,449250,-1.635,0.068,0.469,-45.1,-104.2,43.5,24.6,-5.7,-14,0.128604999,0.274697104,0.430768761,-0.849940489
444,1116773,449260,-1.655,0.088,0.454,-43.9,-107.8,45.5,23.8,-5.7,-14.4,0.130741295,0.272988067,0.430982391,-0.850032044
445,1119000,449260,-1.671,0.112,0.45,-43.1,-111.4,47.7,23.8,-5.7,-14.4,0.132908109,0.271248512,0.43119602,-0.850154118
446,1121357,449260,-1.694,0.137,0.447,-42.7,-115,50.1,23.8,-5.7,-14.4,0.135196997,0.269478439,0.431348613,-0.850306711
447,1124021,449260,-1.714,0.145,0.44,-42.9,-118.5,52.8,23.8,-5.7,-14.4,0.137546922,0.267647328,0.431470687,-0.850428785
448,1126328,449270,-1.726,0.157,0.444,-43.7,-122,55.7,23.2,-6.9,-13.5,0.139988403,0.265755181,0.431592761,-0.850550859
449,1129546,449270,-1.737,0.165,0.444,-45.2,-125.3,58.8,23.2,-6.9,-13.5,0.142521439,0.263863033,0.431714835,-0.850672933
450,1131855,449270,-1.757,0.177,0.441,-47.5,-128.4,62.1,23.2,-6.9,-13.5,0.145146031,0.261909848,0.431836909,-0.850764489
451,1134008,449270,-1.765,0.185,0.441,-50.5,-131.3,65.5,23.2,-6.9,-13.5,0.147892697,0.259926145,0.431989502,-0.850825526
452,1136588,449280,-1.769,0.189,0.437,-54.2,-134.1,69,23.2,-7.5,-13.6,0.150730918,0.257911924,0.432172613,-0.850856044
453,1138869,449280,-1.773,0.197,0.433,-58.6,-137,72.7,23.2,-7.5,-13.6,0.153721732,0.255867183,0.432386242,-0.850825526
454,1142337,449280,-1.781,0.186,0.422,-63.3,-139.9,76.1,23.2,-7.5,-13.6,0.156804102,0.253761406,0.432660909,-0.85073397
455,1143852,449280,-1.777,0.182,0.41,-68.1,-142.8,79.6,23.2,-7.5,-13.6,0.160008545,0.251625111,0.432996612,-0.850611896
456,1146342,449290,-1.785,0.154,0.406,-72.6,-145.6,82.8,22.1,-7.3,-13.7,0.163304544,0.249458296,0.433393353,-0.850428785
457,1148778,449290,-1.782,0.135,0.406,-76.5,-148.2,86.1,22.1,-7.3,-13.7,0.166722617,0.247230445,0.433790094,-0.850215155
458,1152168,449290,-1.774,0.087,0.399,-79.2,-150.5,89.4,22.1,-7.3,-13.7,0.170232246,0.245002594,0.434247871,-0.849940489
459,1154349,449290,-1.767,0.063,0.406,-81.2,-152.8,92.8,22.1,-7.3,-13.7,0.17383343,0.242744224,0.43467513,-0.849635304
460,1156632,449300,-1.755,0.047,0.418,-82.7,-154.7,96.8,21,-7.4,-12.3,0.17752617,0.240455336,0.43510239,-0.849269082
461,1158866,449300,-1.747,0.039,0.429,-84.3,-156.5,101.3,21,-7.4,-12.3,0.181340983,0.238227485,0.435529649,-0.84890286
462,1161379,449300,-1.735,0.063,0.421,-85.9,-157.9,106,21,-7.4,-12.3,0.185247353,0.235969115,0.435926389,-0.8484756
463,1165670,449300,-1.735,0.078,0.417,-87.6,-159.3,110.4,21,-7.4,-12.3,0.189245277,0.233710746,0.436353648,-0.848017823
464,1167957,449310,-1.738,0.157,0.386,-89,-160.5,114,20.5,-8,-13.2,0.193365276,0.231452376,0.436750389,-0.847499008
465,1170111,449310,-1.741,0.185,0.366,-89.9,-162,116.8,20.5,-8,-13.2,0.197485275,0.229163488,0.437116611,-0.846949675
466,1172444,449310,-1.745,0.212,0.354,-90,-163.8,118.8,20.5,-8,-13.2,0.201727348,0.226905118,0.437482833,-0.846400342
467,1174712,449310,-1.749,0.24,0.335,-89.7,-166,120,20.5,-8,-13.2,0.20596942,0.224585711,0.437818537,-0.84582049
468,1176946,449320,-1.752,0.267,0.311,-89.3,-168.7,120,19.1,-8,-18.5,0.210180975,0.222205267,0.438093204,-0.845240638
469,1179198,449320,-1.76,0.315,0.284,-88.9,-171.6,119.4,19.1,-8,-18.5,0.214484085,0.219763787,0.43836787,-0.844660787
470,1181416,449320,-1.771,0.331,0.277,-88.6,-174.4,118.7,19.1,-8,-18.5,0.218756676,0.217261269,0.438612018,-0.844080935
471,1183954,449320,-1.795,0.339,0.269,-88.8,-177.1,119.7,19.1,-8,-18.5,0.223090304,0.214728233,0.438825648,-0.843501083
472,1187497,449330,-1.815,0.339,0.274,-89.2,-178.9,122.5,18.8,-8.1,-15.8,0.22748497,0.212134159,0.439008759,-0.842890713
473,1189688,449330,-1.87,0.345,0.287,-89.7,-180.1,126.8,18.8,-8.1,-15.8,0.231940672,0.209631642,0.43919187,-0.842219306
474,1191936,449330,-1.91,0.357,0.288,-89.9,-180.7,131.6,18.8,-8.1,-15.8,0.23648793,0.207098605,0.439313944,-0.841486862
475,1194033,449330,-1.95,0.366,0.277,-89.7,-181.2,135.4,18.8,-8.1,-15.8,0.241126743,0.204626606,0.439405499,-0.840754418
476,1196462,449340,-2.061,0.38,0.245,-88.9,-182.1,138,17.2,-8.6,-16.8,0.245796075,0.202124088,0.439466536,-0.839960936
477,1198795,449340,-2.128,0.39,0.22,-87.6,-183.2,139,17.2,-8.6,-16.8,0.250465407,0.19962157,0.439466536,-0.839167455
478,1203077,449340,-2.184,0.395,0.186,-86,-184.8,138.9,17.2,-8.6,-16.8,0.255165258,0.197088534,0.439436018,-0.838373974
479,1204536,449340,-2.243,0.4,0.156,-83.8,-186.8,137.6,17.2,-8.6,-16.8,0.25983459,0.194524979,0.439313944,-0.837611011
480,1207364,449350,-2.33,0.426,0.131,-81,-189.6,135.4,15.5,-8.5,-17.4,0.264473403,0.191900388,0.439130833,-0.836848048
481,1209078,449350,-2.362,0.434,0.101,-77.7,-192.9,133.1,15.5,-8.5,-17.4,0.269081698,0.189214759,0.438886685,-0.836146123
482,1211321,449350,-2.398,0.435,0.067,-74.1,-196.8,132.1,15.5,-8.5,-17.4,0.273689993,0.186437574,0.438520463,-0.835444197
483,1214100,449350,-2.43,0.416,0.025,-70.5,-200.7,133,15.5,-8.5,-17.4,0.278298288,0.183629872,0.438062685,-0.83477279
484,1216398,449360,-2.479,0.374,-0.032,-67,-203.6,135.9,15.1,-8.9,-18.7,0.282998138,0.180822169,0.437513352,-0.834131901
485,1218895,449360,-2.487,0.354,-0.035,-63.9,-204.4,139.7,15.1,-8.9,-18.7,0.287728507,0.178014466,0.436841945,-0.833429975
486,1221283,449360,-2.496,0.331,-0.039,-61.1,-203,143.2,15.1,-8.9,-18.7,0.292519913,0.175328837,0.4361095,-0.83272805
487,1224526,449360,-2.489,0.284,-0.066,-58.9,-200.4,145.4,15.1,-8.9,-18.7,0.297280801,0.172673727,0.435346538,-0.831995605
488,1226453,449370,-2.473,0.256,-0.086,-57.6,-198,146.1,13,-9.2,-20.4,0.30201117,0.170079653,0.434553056,-0.831232643
489,1229786,449370,-2.454,0.228,-0.102,-57.2,-196.5,145.3,13,-9.2,-20.4,0.306741539,0.167516099,0.433759575,-0.83046968
490,1231385,449370,-2.438,0.208,-0.118,-57.2,-195.7,143.7,13,-9.2,-20.4,0.311380352,0.164952544,0.432935575,-0.82964568
491,1235105,449370,-2.379,0.179,-0.139,-57.2,-195.3,141.5,13,-9.2,-20.4,0.315988647,0.162327952,0.432111576,-0.828852199
492,1237391,449380,-2.352,0.17,-0.159,-57.1,-194.5,138.8,11.7,-9.7,-19.8,0.320535905,0.159764397,0.431348613,-0.828028199
493,1239601,449380,-2.332,0.186,-0.168,-56.9,-192.8,135.7,11.7,-9.7,-19.8,0.324991607,0.157139805,0.430524613,-0.827204199
494,1241870,449380,-2.316,0.197,-0.164,-56.5,-189.9,132.3,11.7,-9.7,-19.8,0.329355754,0.15457625,0.42976165,-0.8263802
495,1243903,449380,-2.304,0.209,-0.165,-55.7,-186.3,128.5,11.7,-9.7,-19.8,0.333628346,0.152012696,0.428968169,-0.8255562
496,1247074,449390,-2.3,0.201,-0.169,-54.6,-182.7,124.2,10.6,-9.6,-20.8,0.337748344,0.149479659,0.428205206,-0.8247322
497,1249423,449390,-2.296,0.185,-0.177,-53,-179.6,119.4,10.6,-9.6,-20.8,0.341746269,0.146977142,0.427442244,-0.823938719
498,1251491,449390,-2.301,0.153,-0.18,-50.7,-177.4,114,10.6,-9.6,-20.8,0.345591601,0.144474624,0.426679281,-0.823175756
499,1254523,449390,-2.306,0.059,-0.184,-47.3,-175.6,107.9,10.6,-9.6,-20.8,0.349314859,0.141941588,0.425855281,-0.822443312
500,1257253,449400,-2.319,0.001,-0.183,-42.8,-173.9,101.1,9.5,-10,-21.4,0.352885525,0.13943907,0.424970244,-0.821802423
501,1259170,449400,-2.332,-0.057,-0.191,-37.1,-172.3,93.9,9.5,-10,-21.4,0.35627308,0.136936552,0.424024171,-0.82125309
502,1261367,449400,-2.341,-0.179,-0.17,-30.3,-170.6,86.2,9.5,-10,-21.4,0.359477523,0.134434034,0.422986541,-0.820825831
503,1264639,449400,-2.354,-0.233,-0.15,-22.7,-168.8,77.9,9.5,-10,-21.4,0.362498856,0.131962035,0.421826838,-0.820490127
504,1267053,449410,-2.37,-0.276,-0.138,-14.1,-167,69,8.8,-10,-21.8,0.365306558,0.129490036,0.420545061,-0.820276498
505,1268808,449410,-2.387,-0.311,-0.134,-4.6,-165.4,59.3,8.8,-10,-21.8,0.367900632,0.127048555,0.419141209,-0.820215461
506,1271571,449410,-2.4,-0.35,-0.188,5.8,-164.4,48.6,8.8,-10,-21.8,0.370250557,0.124576556,0.417584765,-0.820337535
507,1274568,449410,-2.4,-0.354,-0.215,17.7,-164.3,37.2,8.8,-10,-21.8,0.372386853,0.122135075,0.41584521,-0.82064272
508,1276894,449420,-2.392,-0.347,-0.239,31.3,-165,24.9,7,-10.4,-20.7,0.374217963,0.119663076,0.413861507,-0.821161534
509,1279534,449420,-2.372,-0.32,-0.255,47.6,-166,12,7,-10.4,-20.7,0.375804926,0.117160558,0.411633656,-0.821924497
510,1282565,449420,-2.322,-0.219,-0.233,66.9,-166.9,-1.2,7,-10.4,-20.7,0.377117222,0.114719077,0.409070101,-0.822931608
511,1284946,449420,-2.293,-0.141,-0.184,89.2,-167,-15.1,7,-10.4,-20.7,0.378124332,0.112308115,0.406109806,-0.824274422
512,1287017,449430,-2.26,-0.055,-0.118,113.6,-166.2,-29.4,6.6,-10.7,-21,0.378765221,0.10995819,0.40275277,-0.825922422
513,1288898,449430,-2.218,0.042,-0.034,139.2,-164.2,-44.2,6.6,-10.7,-21,0.379070406,0.107791375,0.398998993,-0.827906125
514,1291892,449430,-2.137,0.296,0.236,164.6,-161,-59.7,6.6,-10.7,-21,0.379009369,0.105746635,0.394817957,-0.830195013
515,1294188,449430,-2.094,0.464,0.386,188.3,-156.7,-76.3,6.6,-10.7,-21,0.378551592,0.103793451,0.390301218,-0.832789087
516,1296404,449440,-2.043,0.644,0.549,208.2,-151.4,-94.1,5.9,-11.2,-20.3,0.377636036,0.10196234,0.385479293,-0.835688345
517,1299431,449440,-1.927,1.094,0.861,222.4,-145.1,-113.4,5.9,-11.2,-20.3,0.376293222,0.100192267,0.380443739,-0.838801233
518,1301372,449440,-1.863,1.34,1.022,229.9,-137.9,-134.4,5.9,-11.2,-20.3,0.374462111,0.0984221931,0.375408185,-0.842097232
519,1303782,449440,-1.824,1.5,1.118,230.4,-129.7,-157.8,5.9,-11.2,-20.3,0.372112186,0.0966521195,0.370433668,-0.845515305
520,1307037,449450,-1.81,1.642,1.16,223,-119,-185.9,5.7,-12.2,-19.7,0.369182409,0.0947599719,0.365703299,-0.849055452
521,1308912,449450,-1.042,2.914,1.558,206.3,-102.3,-224.1,5.7,-12.2,-19.7,0.365398114,0.0927152318,0.361552782,-0.852717673
522,1312046,449450,-1.011,2.772,1.894,182.3,-80.6,-271.1,5.7,-12.2,-19.7,0.360606708,0.0905484176,0.358043153,-0.856440931
523,1313874,449450,-1.008,2.791,1.639,157,-64.5,-314.7,5.7,-12.2,-19.7,0.354930265,0.0881069369,0.35523545,-0.860255745
524,1316367,449460,-0.397,2.982,1.74,134.8,-59.5,-346.8,6.3,-12.6,-19.4,0.348612934,0.0853297525,0.352885525,-0.864070559
525,1319223,449460,-0.116,2.971,1.713,113.8,-63.2,-369.7,6.3,-12.6,-19.4,0.341898862,0.082125309,0.35093234,-0.867854854
526,1321933,449460,0.159,2.886,1.596,88.1,-64.4,-395.4,6.3,-12.6,-19.4,0.334727012,0.0785851619,0.349467452,-0.871547594
527,1324790,449460,0.494,2.772,1.451,55.1,-59.8,-428.1,6.3,-12.6,-19.4,0.326944792,0.0745567186,0.348704489,-0.875148778
528,1326274,449470,1.312,2.419,1.02,16.6,-51.1,-466.9,5.3,-12.8,-18.8,0.318369091,0.0701620533,0.348765526,-0.878658406
529,1329652,449470,1.732,2.216,0.716,-23.1,-42.2,-509.7,5.3,-12.8,-18.8,0.308938871,0.0653096103,0.349681082,-0.882015442
530,1331701,449470,2.136,1.994,0.398,-58.7,-36.1,-554.4,5.3,-12.8,-18.8,0.298593097,0.0599688711,0.351329081,-0.885311441
531,1334399,449470,2.578,1.709,0.113,-85.2,-34.4,-597.9,5.3,-12.8,-18.8,0.287392804,0.0541703543,0.353495895,-0.888515885
532,1337360,449480,3.162,0.928,-0.563,-98.4,-36.9,-637.1,10.3,-11.7,-19.6,0.275429548,0.0478835414,0.355906858,-0.89168981
533,1338867,449480,3.007,0.542,-1.007,-94.7,-42.2,-668.4,10.3,-11.7,-19.6,0.262825404,0.0412915433,0.358165227,-0.894924772
534,1342131,449480,3.071,0.084,-1.191,-72.3,-49.9,-688.7,10.3,-11.7,-19.6,0.249794,0.0345469527,0.359843745,-0.898251289
535,1344410,449480,3.2,-0.382,-1.623,-31.4,-60.8,-699.3,10.3,-11.7,-19.6,0.236548967,0.0276802881,0.360637226,-0.901760918
536,1346436,449490,3.189,-2.366,-6.804,28.3,-77.7,-704.9,12,-10.4,-19.8,0.223242897,0.0207525864,0.360057375,-0.905575732
537,1349063,449490,0.308,-7.081,-7.959,138,-130.1,-704.9,12,-10.4,-19.8,0.21027253,0.0133060701,0.356975005,-0.910031434
538,1351506,449490,0.011,-8.1,-7.928,409,-263,-698.6,12,-10.4,-19.8,0.198278756,0.0045167394,0.347788934,-0.916348766
539,1354754,449490,5.891,-8.22,-8.105,863.3,-472.6,-643.2,12,-10.4,-19.8,0.188848537,-0.00604266488,0.32840968,-0.925412763
540,1356994,449500,7.914,-7.681,-5.641,1240.7,-621.2,-462.5,13.7,-11.4,-19,0.184026612,-0.0167851802,0.3005768,-0.935666982
541,1359001,449500,8.003,-7.685,3.523,1184.3,-490,-187.6,13.7,-11.4,-19,0.183782464,-0.0232551042,0.274269845,-0.943632313
542,1361942,449500,8.085,-3.857,7.818,686.1,-119.1,3.6,13.7,-11.4,-19,0.184911649,-0.0229194006,0.25962096,-0.947538682
543,1363873,449500,2.861,2.35,7.939,46.9,275.2,0.5,13.7,-11.4,-19,0.183385723,-0.0170293283,0.259773553,-0.947935423
544,1366545,449510,0.453,2.816,6.916,-412.2,452.4,-141.7,13.6,-13.5,-18.7,0.177709281,-0.0101321451,0.269997253,-0.946226386
545,1368890,449510,-1.752,7.243,5.689,-632.7,452,-254,13.6,-13.5,-18.7,0.169621876,-0.00476088748,0.284737693,-0.943449202
546,1372912,449510,-3.549,7.615,3.353,-640.8,386,-256.9,13.6,-13.5,-18.7,0.161839656,-0.000762962737,0.299295022,-0.940305795
547,1373888,449510,-4.347,7.914,-1.164,-495.4,316.3,-159.3,13.6,-13.5,-18.7,0.156468398,0.0028992584,0.310525834,-0.93755913
548,1376611,449520,-5.227,8.124,-0.11,-284.5,244,-26.6,12.2,-11.3,-18.6,0.154301584,0.00674459059,0.317178869,-0.935666982
549,1379819,449520,-5.109,8.115,-2.32,-111,182.1,55.6,12.2,-11.3,-18.6,0.154210028,0.0104678488,0.320047609,-0.93469039
550,1381948,449520,-4.366,8.098,-4.457,-33.7,145,59.9,12.2,-11.3,-18.6,0.154423658,0.0137333293,0.321207312,-0.934202094
551,1383952,449520,-1.56,7.267,-2.217,-30.4,129.1,33.6,12.2,-11.3,-18.6,0.154210028,0.0164799951,0.322244942,-0.933835871
552,1386699,449530,-2.322,3.784,-1.097,-36.2,115.5,35.6,15.4,-11.1,-18.2,0.154118473,0.0189825129,0.323374126,-0.933408612
553,1389248,449530,-3.225,1.848,-0.481,-8.8,91.6,81,15.4,-11.1,-18.2,0.155125584,0.0213629566,0.323831904,-0.93304239
554,1391419,449530,-4.35,0.602,0.493,41.5,53.4,139.1,15.4,-11.1,-18.2,0.157567064,0.0235602893,0.32309946,-0.932828761
555,1394151,449530,-4.17,-1.847,2.449,94.8,3,163.5,15.4,-11.1,-18.2,0.160832545,0.0251472518,0.321085238,-0.932920316
556,1396502,449540,-4.899,-6.541,3.568,130,-38.9,128.5,14.8,-11.6,-18.1,0.163640248,0.025696585,0.318216498,-0.933408612
557,1399090,449540,-2.15,-5.418,2.964,130.1,-58.3,15.9,14.8,-11.6,-18.1,0.164281137,0.0250862148,0.315347758,-0.934293649
558,1401543,449540,-0.473,-6.596,2.946,100.2,-56.6,-130.2,14.8,-11.6,-18.1,0.161992248,0.0234076968,0.313180944,-0.935453352
559,1404542,449540,0.035,-6.073,3.169,63,-50.4,-242.7,14.8,-11.6,-18.1,0.157322916,0.0209356975,0.31183813,-0.936765648
560,1406667,449550,0.355,-4.979,3.396,38.4,-45.1,-255,15.7,-11.9,-18.5,0.152409436,0.0184026612,0.31101413,-0.937894833
561,1409081,449550,0.624,-3.798,3.522,30.1,-35.4,-181.7,15.7,-11.9,-18.5,0.148930326,0.0165410321,0.310342723,-0.938718833
562,1411575,449550,0.55,-1.697,3.756,30.7,-20.5,-81.6,15.7,-11.9,-18.5,0.147373882,0.0156865139,0.309671316,-0.939207129
563,1414798,449550,0.245,-1.05,3.59,32.8,-6,-5,15.7,-11.9,-18.5,0.147312845,0.0156254769,0.30896939,-0.939451277
564,1416889,449560,-0.013,-0.742,3.256,34.9,1.8,29.5,15.9,-11.6,-18,0.147892697,0.0159611805,0.308267464,-0.939573351
565,1419264,449560,-0.522,-0.53,3.152,41.5,1.4,32,15.9,-11.6,-18,0.148503067,0.0163579211,0.307412946,-0.939756462
566,1421537,449560,-1.072,-0.726,3.327,55.6,-4.5,21.7,15.9,-11.6,-18,0.148960845,0.0165715506,0.306222724,-0.940061647
567,1424557,449560,-1.473,-0.921,3.221,75.3,-12.8,13.7,15.9,-11.6,-18,0.149296548,0.0166631062,0.304635762,-0.940519425
568,1426719,449570,-1.677,-1.184,2.888,90.6,-18.8,9.3,14.4,-12,-17.8,0.149601733,0.0166020692,0.302713095,-0.941099277
569,1428835,449570,-1.391,-1.51,2.35,91,-21.5,0.1,14.4,-12,-17.8,0.149693289,0.0164799951,0.300790429,-0.941709647
570,1431986,449570,-0.929,-2,1.835,73.3,-20.9,-19.9,14.4,-12,-17.8,0.149418622,0.01617481,0.299203467,-0.94225898
571,1434265,449570,-0.61,-2.157,1.761,44.1,-19,-48.9,14.4,-12,-17.8,0.148503067,0.0155949583,0.298257393,-0.942716758
572,1436512,449580,-0.329,-2.238,1.804,15.1,-17.3,-76,13.3,-11.8,-17.9,0.147038179,0.0148014771,0.29792169,-0.943052461
573,1438840,449580,0.098,-2.213,1.781,-5.1,-16.1,-91.3,13.3,-11.8,-17.9,0.145268105,0.0138554033,0.297982727,-0.943327128
574,1442482,449580,0.283,-2.095,1.768,-14.7,-16.1,-90.3,13.3,-11.8,-17.9,0.14352855,0.012878811,0.298287912,-0.943510239
575,1444747,449580,0.473,-1.883,1.758,-17,-16.7,-76.7,13.3,-11.8,-17.9,0.142063662,0.0119937742,0.298593097,-0.943662832
576,1446375,449590,0.702,-1.645,1.72,-18,-16.8,-58.5,12.4,-12.1,-17.8,0.140964995,0.011200293,0.2989288,-0.943723869
577,1449147,449590,1.109,-1.163,1.501,-22.7,-14.4,-43.2,12.4,-12.1,-17.8,0.140171514,0.0105594043,0.299356059,-0.94369335
578,1451794,449590,1.251,-0.899,1.332,-32.5,-8.7,-34.5,12.4,-12.1,-17.8,0.139530625,0.0100405896,0.300027467,-0.943601794
579,1454754,449590,1.314,-0.646,1.115,-45.1,-0.2,-31.7,12.4,-12.1,-17.8,0.138889737,0.00970488601,0.300943022,-0.943388165
580,1457035,449600,1.348,-0.407,0.879,-57.2,9,-32.4,12.1,-11.8,-18.1,0.138187811,0.00949125645,0.302163762,-0.943113498
581,1459194,449600,1.348,-0.407,0.879,-57.2,9,-32.4,12.1,-11.8,-18.1,0.138187811,0.00949125645,0.302163762,-0.943113498
582,1461564,449600,1.399,0.145,0.677,-74.3,22.4,-37.3,12.1,-11.8,-18.1,0.136448256,0.00939970092,0.305215613,-0.942381054
583,1463944,449600,1.342,0.288,0.811,-80.2,25.8,-39.3,12.1,-11.8,-18.1,0.135502182,0.00943021943,0.30692465,-0.941953795
584,1467314,449610,1.008,0.461,1.042,-86.1,28.2,-39.7,11.7,-11.1,-17.9,0.134495071,0.00949125645,0.308786279,-0.941496017
585,1469205,449610,0.77,0.49,0.993,-93,30,-39,11.7,-11.1,-17.9,0.133518479,0.00958281198,0.310800501,-0.940977203
586,1471909,449610,0.505,0.531,0.895,-101.9,30.6,-38.1,11.7,-11.1,-17.9,0.132541887,0.00964384899,0.312967315,-0.940397351
587,1474244,449610,0.25,0.548,0.753,-109.9,29.2,-37.5,11.7,-11.1,-17.9,0.131595813,0.0096743675,0.315347758,-0.939725944
588,1476378,449620,-0.142,0.388,0.518,-112.4,25.5,-36.1,16.8,-12,-18.6,0.130710776,0.00961333048,0.317728202,-0.939054537
589,1480677,449620,-0.231,0.245,0.497,-106.4,20.3,-32,16.8,-12,-18.6,0.129947813,0.00952177496,0.319986572,-0.938413648
590,1481595,449620,-0.229,0.123,0.498,-93.3,15.1,-24.4,16.8,-12,-18.6,0.129337443,0.00939970092,0.321939756,-0.937803278
591,1484642,449620,-0.155,0.027,0.508,-77.9,10.7,-15.2,16.8,-12,-18.6,0.128971221,0.00927762688,0.323557237,-0.937314982
592,1486578,449630,0.044,-0.099,0.514,-64.4,7.2,-7,13.5,-9,-18.6,0.12878811,0.00921658986,0.324900052,-0.936857204
593,1488982,449630,0.128,-0.093,0.508,-55.2,4.5,-1.6,13.5,-9,-18.6,0.128727073,0.00912503433,0.326029237,-0.936490982
594,1491667,449630,0.196,-0.071,0.526,-50.2,2.5,0.4,13.5,-9,-18.6,0.128727073,0.0090334788,0.327066866,-0.93612476
595,1493846,449630,0.202,0.066,0.643,-48,1.4,0.2,13.5,-9,-18.6,0.128757591,0.00894192328,0.328073977,-0.935789056
596,1496463,449640,0.238,0.049,0.599,-46.2,1.2,-1.2,14,-8.8,-18.5,0.128727073,0.00881984924,0.329020051,-0.935453352
597,1499777,449640,0.158,0.047,0.613,-42.1,1.5,-2.5,14,-8.8,-18.5,0.128666036,0.00872829371,0.329874569,-0.935148167
598,1501622,449640,0.067,0.045,0.607,-34.8,1.9,-2.8,14,-8.8,-18.5,0.128604999,0.00863673818,0.330545976,-0.934904019
599,1505270,449640,-0.165,-0.094,0.583,-25.9,2.3,-1.8,14,-8.8,-18.5,0.128543962,0.00860621967,0.331125828,-0.934720908
600,1507604,449650,-0.27,-0.202,0.558,-18.2,2.2,-0.6,15.1,-8.3,-18.9,0.128513443,0.00860621967,0.33149205,-0.934568316
601,1509818,449650,-0.375,-0.368,0.546,-13.2,1.6,-0.4,15.1,-8.3,-18.9,0.128513443,0.00857570116,0.331766717,-0.934507279
602,1511887,449650,-0.458,-0.555,0.557,-10.6,0.5,-2,15.1,-8.3,-18.9,0.128452406,0.00854518265,0.331980346,-0.934446242
603,1514086,449650,-0.625,-0.916,0.633,-9.5,-0.8,-5,15.1,-8.3,-18.9,0.128360851,0.00848414563,0.332193976,-0.934385205
604,1516357,449660,-0.604,-1.09,0.652,-9.9,-2.1,-9.4,16,-8.1,-18.6,0.128147221,0.00833155309,0.332377087,-0.934324168
605,1519012,449660,-0.525,-1.3,0.553,-12.1,-3.5,-14.9,16,-8.1,-18.6,0.127903073,0.00811792352,0.332621235,-0.934293649
606,1522375,449660,-0.557,-1.382,0.687,-15.4,-5.1,-19.7,16,-8.1,-18.6,0.127536851,0.00781273843,0.33292642,-0.934232612
607,1524908,449660,-0.456,-1.529,0.735,-19.1,-6.9,-22.4,16,-8.1,-18.6,0.12714011,0.00747703482,0.333292642,-0.934141057
608,1526911,449670,-0.38,-1.543,0.741,-22.2,-8.3,-22.2,15.5,-10.5,-18.7,0.126773888,0.0070802942,0.33375042,-0.934049501
609,1528865,449670,-0.289,-1.529,0.715,-25,-9.3,-20.6,15.5,-10.5,-18.7,0.126407666,0.00665303507,0.334238716,-0.933927427
610,1532019,449670,-0.217,-1.472,0.725,-27,-10,-18.6,15.5,-10.5,-18.7,0.126102481,0.00625629444,0.33475753,-0.933774834
611,1533840,449670,-0.068,-1.33,0.689,-28,-10.5,-16.9,15.5,-10.5,-18.7,0.125827815,0.00582903531,0.335306864,-0.933622242
612,1536730,449680,0.004,-1.233,0.695,-28.1,-10.8,-15.5,15.6,-8.2,-18.5,0.125614185,0.00543229469,0.335856197,-0.933469649
613,1539033,449680,0.061,-1.156,0.697,-27.7,-10.7,-14.4,15.6,-8.2,-18.5,0.125400555,0.00500503555,0.336375011,-0.933317057
614,1542688,449680,0.131,-0.985,0.706,-27.6,-10.3,-13.8,15.6,-8.2,-18.5,0.125186926,0.00463881344,0.336924345,-0.933133946
615,1543995,449680,0.148,-0.914,0.709,-28.5,-9.4,-13.7,15.6,-8.2,-18.5,0.124973296,0.00427259133,0.337473678,-0.932981353
616,1547137,449690,0.169,-0.848,0.709,-30.5,-8,-14.1,15.6,-8.1,-18.5,0.124759667,0.00390636921,0.338084048,-0.932767724
617,1549424,449690,0.17,-0.797,0.697,-33.2,-6.3,-14.9,15.6,-8.1,-18.5,0.124515519,0.00357066561,0.338724937,-0.932584613
618,1551697,449690,0.163,-0.718,0.665,-35.6,-4.7,-15.9,15.6,-8.1,-18.5,0.124210334,0.00326548051,0.339457381,-0.932370983
619,1553768,449690,0.171,-0.691,0.65,-37.1,-3.4,-16.8,15.6,-8.1,-18.5,0.123905148,0.00296029542,0.340189825,-0.932126835
620,1556747,449700,0.183,-0.664,0.634,-37.2,-2.4,-17.9,15.3,-7.8,-19,0.123569445,0.00268562883,0.340952788,-0.931913205
621,1559944,449700,0.203,-0.652,0.617,-36.4,-1.9,-18.9,15.3,-7.8,-19,0.123203223,0.00241096225,0.341685232,-0.931669057
622,1561994,449700,0.212,-0.613,0.594,-35.6,-1.7,-20.1,15.3,-7.8,-19,0.122806482,0.00213629566,0.342417676,-0.931455428
623,1563985,449700,0.204,-0.57,0.59,-35,-1.9,-21.4,15.3,-7.8,-19,0.122379223,0.00183111057,0.343119602,-0.931272317
624,1566848,449710,0.197,-0.495,0.566,-34.2,-2.3,-22.6,15.6,-7.9,-19.1,0.121921445,0.00152592547,0.343791009,-0.931058687
625,1570027,449710,0.197,-0.495,0.566,-32.2,-3.4,-23.5,15.6,-7.9,-19.1,0.121494186,0.00119022187,0.344462416,-0.930875576
626,1571570,449710,0.234,-0.441,0.549,-28.4,-5,-23.6,15.6,-7.9,-19.1,0.121036409,0.000823999756,0.34501175,-0.930722983
627,1573919,449710,0.258,-0.438,0.549,-23.3,-7.2,-22.6,15.6,-7.9,-19.1,0.120639668,0.000457777642,0.345469527,-0.930631428
628,1576693,449720,0.281,-0.438,0.544,-17.2,-9.8,-20.8,15.5,-8.1,-19.1,0.120273446,6.1037019e-05,0.345805231,-0.930539872
629,1578895,449720,0.32,-0.455,0.465,-10.1,-12.6,-18.5,15.5,-8.1,-19.1,0.119998779,-0.000335703604,0.345957823,-0.930509354
630,1581895,449720,0.364,-0.452,0.413,-2,-15.9,-16.4,15.5,-8.1,-19.1,0.11978515,-0.000793481246,0.345957823,-0.930539872
631,1583974,449720,0.424,-0.449,0.435,6.3,-19.8,-15,15.5,-8.1,-19.1,0.119632557,-0.0012817774,0.345774712,-0.930631428
632,1586440,449730,0.52,-0.408,0.448,13.6,-23.8,-14,15.7,-9.2,-19.1,0.119541002,-0.00186162908,0.345439009,-0.930784021
633,1589763,449730,0.803,-0.344,0.573,17.8,-27.3,-13.6,15.7,-9.2,-19.1,0.119449446,-0.00247199927,0.34501175,-0.930936613
634,1591972,449730,1.01,-0.388,0.837,18.6,-29.4,-13.3,15.7,-9.2,-19.1,0.119418928,-0.00311288797,0.344553972,-0.931119724
635,1594251,449730,1.182,-0.434,1.094,19.1,-29.7,-13.3,15.7,-9.2,-19.1,0.119357891,-0.00375377667,0.344096194,-0.931302835
636,1596488,449740,1.226,-0.467,1.222,25.1,-27.8,-12.8,15.6,-10,-19.3,0.119327372,-0.00436414686,0.343516343,-0.931516465
637,1599081,449740,1.173,-0.524,1.208,39.7,-24.6,-10.3,15.6,-10,-19.3,0.119296854,-0.00485244301,0.342631306,-0.93182165
638,1601367,449740,1.239,-0.597,1.152,59.5,-21.5,-4.4,15.6,-10,-19.3,0.119357891,-0.0051576281,0.341349528,-0.932279427
639,1604718,449740,1.336,-0.709,1.079,77.8,-19.9,5.4,15.6,-10,-19.3,0.119632557,-0.00531022065,0.339732047,-0.932859279
640,1606948,449750,1.458,-0.972,0.921,90.9,-19.8,19,15.1,-11.3,-19.2,0.12018189,-0.00534073916,0.3378399,-0.933469649
641,1608886,449750,1.492,-1.079,0.858,99.5,-20.2,35.1,15.1,-11.3,-19.2,0.121066927,-0.00521866512,0.335764641,-0.934110538
642,1612018,449750,1.526,-1.166,0.81,106,-20,52.1,15.1,-11.3,-19.2,0.122287667,-0.00497451704,0.33353679,-0.934720908
643,1614112,449750,1.545,-1.233,0.763,111.8,-18.9,67.5,15.1,-11.3,-19.2,0.123813593,-0.00457777642,0.331217383,-0.935361797
644,1616635,449760,1.583,-1.293,0.696,116.8,-17.4,79.7,15.1,-12,-19.2,0.125583666,-0.00402844325,0.328806421,-0.935972167
645,1620643,449760,1.595,-1.286,0.684,120.4,-16,88.4,15.1,-12,-19.2,0.127506333,-0.00338755455,0.326303903,-0.936613056
646,1621466,449760,1.6,-1.242,0.675,122.9,-14.9,94.2,15.1,-12,-19.2,0.129551073,-0.00268562883,0.323740349,-0.937192907
647,1624307,449760,1.596,-1.191,0.66,124.6,-13.9,98.4,15.1,-12,-19.2,0.13165685,-0.0019226661,0.321176794,-0.937803278
648,1627291,449770,1.563,-1.053,0.633,126.1,-12.8,102.7,14.7,-8,-17.1,0.133854183,-0.00109866634,0.318552202,-0.938383129
649,1629533,449770,1.563,-1.053,0.633,126.1,-12.8,102.7,14.7,-8,-17.1,0.133854183,-0.00109866634,0.318552202,-0.938383129
650,1631712,449770,1.497,-0.902,0.595,128.3,-9.2,113.3,14.7,-8,-17.1,0.138523515,0.000732444227,0.313241981,-0.939481796
651,1634790,449770,1.455,-0.831,0.577,128,-7.2,119,14.7,-8,-17.1,0.141026032,0.00177007355,0.310586871,-0.94000061
652,1636493,449780,1.396,-0.731,0.543,126.2,-5.2,124.7,14.7,-11.9,-19.4,0.143620106,0.0028992584,0.307992798,-0.940458388
653,1639649,449780,1.369,-0.699,0.516,123,-3.3,129.8,14.7,-11.9,-19.4,0.146275216,0.00408948027,0.305429243,-0.940885647
654,1641263,449780,1.349,-0.679,0.489,118.7,-1.4,134.3,14.7,-11.9,-19.4,0.1490524,0.00534073916,0.302987762,-0.941221351
655,1644102,449780,1.31,-0.666,0.482,114.1,0.4,137.8,14.7,-11.9,-19.4,0.151860103,0.00662251656,0.300607318,-0.941526536
656,1646334,449790,1.29,-0.662,0.498,109.6,2.4,140.5,13.9,-11.7,-19.1,0.154698325,0.00796533097,0.298348949,-0.941770684
657,1649392,449790,1.278,-0.669,0.518,105.5,4.9,143,13.9,-11.7,-19.1,0.157597583,0.0093386639,0.296182134,-0.941984313
658,1651538,449790,1.262,-0.685,0.538,101.4,7.7,145.5,13.9,-11.7,-19.1,0.16052736,0.0108035524,0.294076357,-0.942106388
659,1654027,449790,1.254,-0.688,0.562,96.8,10.8,148.3,13.9,-11.7,-19.1,0.163457137,0.0123294778,0.292092654,-0.942228462
660,1656391,449800,1.25,-0.688,0.566,91,13.7,151.4,13.5,-12.2,-18.8,0.166478469,0.0138859218,0.290231025,-0.942228462
661,1659844,449800,1.246,-0.684,0.562,84,16.5,154.7,13.5,-12.2,-18.8,0.16953032,0.0155034028,0.288521989,-0.942197943
662,1662825,449800,1.242,-0.688,0.562,76.3,19.2,158.1,13.5,-12.2,-18.8,0.17261269,0.0171819208,0.286965545,-0.942075869
663,1664355,449800,1.223,-0.676,0.547,68.3,21.8,160.9,13.5,-12.2,-18.8,0.175756096,0.0188909574,0.285561693,-0.941892758
664,1666464,449810,1.223,-0.676,0.547,68.3,21.8,160.9,13.5,-12.2,-18.8,0.175756096,0.0188909574,0.285561693,-0.941892758
665,1669659,449810,1.191,-0.663,0.525,53.4,27.2,164.2,12.9,-11.9,-17.9,0.182103946,0.0224311045,0.283272805,-0.941282388
666,1672133,449810,1.171,-0.655,0.521,46.9,30.1,164.9,12.9,-11.9,-17.9,0.185277871,0.024262215,0.28235725,-0.940916166
667,1674204,449810,1.127,-0.67,0.526,41,33.2,165.2,12.9,-11.9,-17.9,0.188451796,0.0261238441,0.281563768,-0.940458388
668,1676297,449820,1.107,-0.677,0.546,35.7,36.5,165.4,12,-12.8,-15.6,0.191595202,0.0280465102,0.280892361,-0.939970092
669,1679673,449820,1.083,-0.708,0.571,30.9,40.1,165.8,12,-12.8,-15.6,0.194738609,0.0299996948,0.28031251,-0.939451277
670,1681649,449820,1.047,-0.758,0.622,26.7,43.8,166.8,12,-12.8,-15.6,0.197882015,0.0320139164,0.279824213,-0.938871426
671,1684829,449820,1.023,-0.789,0.635,23.1,47.4,168.2,12,-12.8,-15.6,0.201025422,0.0341502121,0.279457991,-0.938230537
672,1686740,449830,0.995,-0.808,0.655,19.6,50.9,170.1,11.8,-13.1,-18.4,0.204168828,0.0363170263,0.279152806,-0.93755913
673,1689010,449830,0.967,-0.835,0.679,15.5,54.3,171.9,11.8,-13.1,-18.4,0.207342753,0.0385448775,0.278939177,-0.936857204
674,1691525,449830,0.907,-0.857,0.712,11,57.4,173.3,11.8,-13.1,-18.4,0.210516678,0.0408032472,0.278817103,-0.936063723
675,1694557,449830,0.883,-0.857,0.729,6,60.2,174.1,11.8,-13.1,-18.4,0.213690603,0.0431226539,0.278817103,-0.935239723
676,1697075,449840,0.848,-0.848,0.737,0.6,62.6,174.5,11.2,-13.1,-17.7,0.216895047,0.0454420606,0.278908658,-0.934385205
677,1699533,449840,0.82,-0.831,0.75,-4.5,64.8,174.5,11.2,-13.1,-17.7,0.220038453,0.0478225043,0.279152806,-0.933439131
678,1701749,449840,0.758,-0.783,0.763,-9.4,66.8,174.2,11.2,-13.1,-17.7,0.22318186,0.0502029481,0.279457991,-0.932462539
679,1704180,449840,0.734,-0.755,0.767,-13.4,68.8,173.8,11.2,-13.1,-17.7,0.226325266,0.0526139103,0.27988525,-0.931455428
680,1706518,449850,0.699,-0.723,0.772,-16.2,70.8,173.2,11.1,-13.3,-17.9,0.229438154,0.0550248726,0.280373547,-0.930417798
681,1708958,449850,0.672,-0.687,0.769,-17.8,72.9,172.6,11.1,-13.3,-17.9,0.232520524,0.0574663533,0.280892361,-0.929349651
682,1712134,449850,0.609,-0.63,0.767,-18.2,74.9,171.9,11.1,-13.3,-17.9,0.235572375,0.0599383526,0.281411176,-0.928281503
683,1714331,449850,0.578,-0.61,0.756,-18.1,76.7,171.3,11.1,-13.3,-17.9,0.238563189,0.0624713889,0.281960509,-0.927152318
684,1716652,449860,0.514,-0.6,0.738,-17.3,78.3,170.6,10.6,-13.8,-17.5,0.241554003,0.0650044252,0.282479324,-0.926053652
685,1718806,449860,0.491,-0.592,0.734,-16,79.6,169.6,10.6,-13.8,-17.5,0.244514298,0.06756798,0.28296762,-0.924954985
686,1721688,449860,0.459,-0.607,0.728,-14.5,80.7,168.4,10.6,-13.8,-17.5,0.247444075,0.0701620533,0.283455916,-0.9238258
687,1724013,449860,0.426,-0.638,0.732,-13.5,81.4,166.8,10.6,-13.8,-17.5,0.250312815,0.0727866451,0.283913694,-0.922696615
688,1727476,449870,0.406,-0.657,0.713,-13.1,81.9,164.8,10.2,-14.3,-16.8,0.253151036,0.0753807184,0.284340953,-0.921597949
689,1729891,449870,0.342,-0.683,0.68,-13.1,81.9,164.8,10.2,-14.3,-16.8,0.255989257,0.0779747917,0.28479873,-0.920468764
690,1732200,449870,0.322,-0.687,0.661,-13.1,82.7,162.7,10.2,-14.3,-16.8,0.258766442,0.080568865,0.285256508,-0.919309061
691,1734423,449870,0.298,-0.702,0.646,-13.1,83.8,160.6,10.2,-14.3,-16.8,0.261482589,0.0831629383,0.285683767,-0.918179876
692,1737033,449880,0.278,-0.705,0.643,-13,84.9,158.5,9.8,-14.6,-15.9,0.2641377,0.0857875301,0.286141545,-0.917020173
693,1739542,449880,0.234,-0.692,0.624,-12.8,85.8,155.7,9.8,-14.6,-15.9,0.266731773,0.088412122,0.286599322,-0.915890988
694,1741333,449880,0.211,-0.684,0.621,-12.3,86.4,152.2,9.8,-14.6,-15.9,0.269264809,0.0910061953,0.2870571,-0.914731285
695,1744363,449880,0.183,-0.668,0.626,-11.4,87.1,148.4,9.8,-14.6,-15.9,0.27170629,0.0936002686,0.287514878,-0.913632618
696,1746614,449890,0.116,-0.631,0.616,-10.5,87.7,144.3,9.4,-14.3,-15.3,0.274056215,0.0961943419,0.287942137,-0.912503433
697,1748852,449890,0.085,-0.61,0.597,-9.9,88.4,140.3,9.4,-14.3,-15.3,0.276314585,0.0987884152,0.288369396,-0.911435286
698,1751963,449890,0.065,-0.579,0.582,-10.3,89.5,136.5,9.4,-14.3,-15.3,0.278481399,0.10135197,0.288827174,-0.910336619
699,1754235,449890,0.018,-0.558,0.56,-11.8,90.4,132.9,9.4,-14.3,-15.3,0.280587176,0.103915525,0.28931547,-0.909237953
700,1756514,449900,-0.068,-0.493,0.503,-14.5,91.1,129.3,8.9,-14.7,-14.6,0.282601398,0.106448561,0.289864803,-0.908139286
701,1759750,449900,-0.119,-0.468,0.473,-18.2,91.2,125.4,8.9,-14.7,-14.6,0.284554582,0.108951079,0.290505692,-0.90704062
702,1762157,449900,-0.171,-0.448,0.459,-22.7,90.8,121,8.9,-14.7,-14.6,0.286416211,0.111362041,0.291207617,-0.905941954
703,1764261,449900,-0.23,-0.427,0.449,-27.5,89.9,116.1,8.9,-14.7,-14.6,0.288216803,0.113711966,0.292031617,-0.904812769
704,1768436,449910,-0.345,-0.4,0.448,-36.9,87.3,105.9,9.4,-14.3,-13.6,0.289834284,0.11587878,0.293069246,-0.903683584
705,1768827,449910,-0.4,-0.399,0.457,-36.9,87.3,105.9,9.4,-14.3,-13.6,0.291451765,0.118045595,0.294076357,-0.902554399
706,1772436,449910,-0.456,-0.406,0.478,-41.6,85.9,101.2,9.4,-14.3,-13.6,0.293008209,0.120120853,0.295175024,-0.901425214
707,1773996,449910,-0.507,-0.416,0.491,-46.4,84.5,97.1,9.4,-14.3,-13.6,0.294503616,0.122104556,0.296365246,-0.900265511
708,1776588,449920,-0.627,-0.425,0.49,-51.3,82.8,93.6,9.1,-15,-18.9,0.295937986,0.123996704,0.297647023,-0.899105808
709,1778931,449920,-0.682,-0.432,0.484,-56.2,80.6,90.7,9.1,-15,-18.9,0.297341838,0.125827815,0.299050874,-0.897946104
710,1782227,449920,-0.738,-0.439,0.478,-61.5,77.9,88,9.1,-15,-18.9,0.298715171,0.127506333,0.300515763,-0.896755882
711,1783895,449920,-0.853,-0.436,0.473,-67.1,74.9,85.5,9.1,-15,-18.9,0.300088504,0.129123814,0.302072207,-0.895504624
712,1787145,449930,-0.909,-0.435,0.479,-72.7,71.5,82.7,9.1,-14.9,-15.8,0.301431318,0.130588702,0.303720206,-0.894314402
713,1789325,449930,-0.96,-0.433,0.48,-77.4,67.7,79.7,9.1,-14.9,-15.8,0.302774133,0.131900998,0.305459761,-0.893063143
714,1791668,449930,-1.012,-0.424,0.501,-80.7,63.6,76.4,9.1,-14.9,-15.8,0.30405591,0.133121738,0.307229835,-0.891842402
715,1794159,449930,-1.091,-0.423,0.526,-82,59.3,73.2,9.1,-14.9,-15.8,0.305337687,0.134220405,0.308999908,-0.890621662
716,1796366,449940,-1.134,-0.421,0.535,-81.6,55.1,70.2,9.2,-14.9,-16.1,0.306558428,0.135227515,0.310739463,-0.889461959
717,1799912,449940,-1.17,-0.417,0.556,-79.6,50.8,67.5,9.2,-14.9,-16.1,0.30774865,0.136143071,0.312417982,-0.888302255
718,1801380,449940,-1.202,-0.412,0.576,-76.5,46.5,64.9,9.2,-14.9,-16.1,0.308908353,0.136936552,0.314035463,-0.887203589
719,1804572,449940,-1.245,-0.407,0.624,-72.5,42.3,62.3,9.2,-14.9,-16.1,0.310068056,0.137730033,0.315530869,-0.88616596
720,1806645,449950,-1.273,-0.406,0.652,-67.9,38.1,59.6,9.2,-14.4,-17,0.311136204,0.138431959,0.316934721,-0.885189367
721,1809023,449950,-1.296,-0.41,0.688,-62.9,34,56.4,9.2,-14.4,-17,0.312204352,0.139042329,0.318216498,-0.884243294
722,1811480,449950,-1.308,-0.405,0.72,-57.9,30.3,53.1,9.2,-14.4,-17,0.313180944,0.139591662,0.319376202,-0.883388775
723,1814047,449950,-1.327,-0.366,0.763,-53.2,27.1,50.2,9.2,-14.4,-17,0.314127018,0.140110477,0.320413831,-0.882595294
724,1817401,449960,-1.327,-0.35,0.775,-45,22,45.8,8.9,-14.1,-18,0.314981536,0.140537736,0.321298868,-0.881893368
725,1819542,449960,-1.322,-0.319,0.782,-45,22,45.8,8.9,-14.1,-18,0.315866573,0.140964995,0.322183905,-0.881191443
726,1821807,449960,-1.289,-0.26,0.785,-41.4,19.9,43.8,8.9,-14.1,-18,0.316690573,0.141392254,0.322977386,-0.880550554
727,1824015,449960,-1.273,-0.229,0.788,-37.2,18.1,41.3,8.9,-14.1,-18,0.317453536,0.141758477,0.323679312,-0.879940184
728,1827273,449970,-1.261,-0.202,0.784,-31.9,16.3,37.9,9.1,-14.4,-18.5,0.31818598,0.142124699,0.324289682,-0.879390851
729,1829375,449970,-1.245,-0.191,0.784,-25.2,14.8,33.4,9.1,-14.4,-18.5,0.31879635,0.142460402,0.324777978,-0.878933073
730,1831439,449970,-1.236,-0.155,0.783,-17.9,13.7,28,9.1,-14.4,-18.5,0.319284646,0.142796106,0.3251442,-0.878566851
731,1834723,449970,-1.236,-0.148,0.779,-10.9,13.1,22.2,9.1,-14.4,-18.5,0.319650868,0.143131809,0.32535783,-0.878292184
732,1837123,449980,-1.24,-0.132,0.772,-5,13,16.9,9.2,-14.6,-17.7,0.319895016,0.143467513,0.325510422,-0.878109073
733,1839795,449980,-1.248,-0.116,0.764,-1,13.5,12.5,9.2,-14.6,-17.7,0.320047609,0.143833735,0.325571459,-0.877956481
734,1842304,449980,-1.263,-0.096,0.756,0.8,14.5,8.9,9.2,-14.6,-17.7,0.320108646,0.144169439,0.325632496,-0.877864925
735,1845061,449980,-1.279,-0.088,0.745,0.5,15.7,6,9.2,-14.6,-17.7,0.320108646,0.144505142,0.325724052,-0.87777337
736,1847303,449990,-1.287,-0.084,0.741,-1.3,16.9,3.4,9,-14.5,-18.4,0.320078127,0.144871364,0.325846126,-0.877681814
737,1849691,449990,-1.295,-0.064,0.734,-4.5,18.2,0.9,9,-14.5,-18.4,0.319986572,0.14517655,0.326059755,-0.877590258
738,1852064,449990,-1.307,-0.052,0.695,-8.5,19.4,-1.4,9,-14.5,-18.4,0.319833979,0.145481735,0.32636494,-0.877468184
739,1854231,449990,-1.361,-0.015,0.716,-12.9,20.4,-3.8,9,-14.5,-18.4,0.319650868,0.145725883,0.326761681,-0.87734611
740,1857229,450000,-1.373,0.027,0.747,-17.1,21.1,-5.8,9.4,-14.1,-18.5,0.319437239,0.146000549,0.327280496,-0.877193518
741,1859343,450000,-1.389,0.016,0.678,-21.2,21.7,-7.8,9.4,-14.1,-18.5,0.319223609,0.146214179,0.327860347,-0.877040925
742,1861573,450000,-1.409,0.024,0.686,-25.8,22.6,-10,9.4,-14.1,-18.5,0.318948943,0.14639729,0.328531755,-0.876857814
743,1863857,450000,-1.416,0.028,0.694,-31.5,23.7,-12.9,9.4,-14.1,-18.5,0.318613239,0.146519364,0.329355754,-0.876644185
744,1866433,450010,-1.421,-0.002,0.71,-44,25.3,-19.4,9.2,-14.3,-18.5,0.318216498,0.146580401,0.330423902,-0.876369518
745,1869366,450010,-1.421,-0.022,0.714,-44,25.3,-19.4,9.2,-14.3,-18.5,0.317789239,0.14661092,0.33149205,-0.876094852
746,1871626,450010,-1.41,-0.042,0.706,-49.8,25.9,-22.2,9.2,-14.3,-18.5,0.317331462,0.14661092,0.33271279,-0.875820185
747,1874267,450010,-1.41,-0.061,0.713,-55.3,26.5,-24.5,9.2,-14.3,-18.5,0.316843165,0.146549883,0.334025086,-0.875515
748,1876348,450020,-1.406,-0.077,0.702,-60.7,27.2,-26.3,9.6,-13.7,-18.1,0.316354869,0.146458327,0.335459456,-0.875148778
749,1879438,450020,-1.387,-0.089,0.689,-65.8,27.5,-28,9.6,-13.7,-18.1,0.315805536,0.146305734,0.336985382,-0.874782556
750,1881636,450020,-1.379,-0.089,0.697,-71,27.6,-29.6,9.6,-13.7,-18.1,0.315286721,0.146153142,0.338633381,-0.874355296
751,1883900,450020,-1.375,-0.097,0.685,-76.2,27.8,-31.4,9.6,-13.7,-18.1,0.31470687,0.145908994,0.340372936,-0.873928037
752,1886492,450030,-1.351,-0.094,0.685,-81.3,28,-33,9.6,-13.1,-18.3,0.314127018,0.145634327,0.342234565,-0.87347026
753,1889927,450030,-1.335,-0.087,0.676,-85.8,27.9,-34.1,9.6,-13.1,-18.3,0.313547166,0.145329142,0.344157231,-0.872951445
754,1891403,450030,-1.319,-0.087,0.68,-89.8,27.9,-34.9,9.6,-13.1,-18.3,0.312967315,0.144993439,0.346171453,-0.87243263
755,1893802,450030,-1.307,-0.087,0.683,-93.2,28.1,-35.4,9.6,-13.1,-18.3,0.312356944,0.144627216,0.348246712,-0.871883297
756,1896566,450040,-1.279,-0.084,0.683,-95.9,28.4,-35.9,10.6,-12.7,-18.5,0.311777093,0.144230476,0.350383007,-0.871303446
757,1898867,450040,-1.267,-0.084,0.682,-98.2,28.8,-36.2,10.6,-12.7,-18.5,0.311166723,0.143833735,0.35258034,-0.870723594
758,1901893,450040,-1.256,-0.088,0.674,-99.7,29.1,-36.7,10.6,-12.7,-18.5,0.310556352,0.143436995,0.354777673,-0.870113224
759,1903978,450040,-1.248,-0.089,0.662,-100.3,29.3,-37.2,10.6,-12.7,-18.5,0.309915464,0.143009735,0.357005524,-0.869472335
760,1906508,450050,-1.22,-0.109,0.662,-99.9,29.4,-38.1,10.4,-12.3,-19,0.309274575,0.142612995,0.359202857,-0.868861965
761,1909497,450050,-1.213,-0.125,0.661,-98.2,29.3,-39.2,10.4,-12.3,-19,0.308603168,0.142185736,0.361400189,-0.868251595
762,1911475,450050,-1.197,-0.157,0.677,-95.1,29.2,-40.2,10.4,-12.3,-19,0.307931761,0.141788995,0.363505966,-0.867702261
763,1914712,450050,-1.182,-0.18,0.692,-90.8,29.2,-41.1,10.4,-12.3,-19,0.307199316,0.141392254,0.365550707,-0.867152928
764,1916388,450060,-1.142,-0.225,0.734,-78.3,29.4,-42.2,11.2,-11.5,-19.1,0.306405835,0.141087069,0.367351299,-0.866725669
765,1920245,450060,-1.126,-0.241,0.765,-78.3,29.4,-42.2,11.2,-11.5,-19.1,0.305612354,0.140781884,0.369182409,-0.86629841
766,1921973,450060,-1.111,-0.261,0.784,-70.5,29.7,-42.3,11.2,-11.5,-19.1,0.304788354,0.140537736,0.370830409,-0.865901669
767,1923883,450060,-1.079,-0.289,0.811,-62,30.2,-42,11.2,-11.5,-19.1,0.303933836,0.140354625,0.372325816,-0.865596484
768,1926302,450070,-1.068,-0.301,0.822,-52.9,30.9,-41.4,9.2,-11.5,-19.4,0.303048799,0.14026307,0.37366863,-0.865352336
769,1929262,450070,-1.048,-0.309,0.829,-43.5,31.6,-40.7,9.2,-11.5,-19.4,0.302163762,0.140232551,0.374828333,-0.865169225
770,1931412,450070,-1.036,-0.309,0.841,-34,32.4,-40.1,9.2,-11.5,-19.4,0.301248207,0.140293588,0.375804926,-0.865047151
771,1934520,450070,-1.016,-0.322,0.833,-24.3,33.2,-39.4,9.2,-11.5,-19.4,0.300302133,0.140446181,0.376598407,-0.864986114
772,1936857,450080,-1,-0.318,0.832,-14.5,34,-38.8,13.4,-11.5,-19.1,0.299295022,0.14065981,0.377208777,-0.865016633
773,1939235,450080,-1,-0.314,0.82,-5.1,34.8,-38.4,13.4,-11.5,-19.1,0.29831843,0.140964995,0.377666555,-0.865138707
774,1941339,450080,-0.992,-0.303,0.824,3.8,35.7,-38.2,13.4,-11.5,-19.1,0.297311319,0.141361736,0.377941221,-0.865291299
775,1943827,450080,-0.988,-0.279,0.8,12,36.6,-38.1,13.4,-11.5,-19.1,0.296243171,0.141819514,0.378063295,-0.865535447
776,1946790,450090,-0.988,-0.248,0.789,19.2,37.6,-37.9,13.7,-11.3,-18.9,0.295144505,0.142338328,0.378063295,-0.865810114
777,1949061,450090,-0.983,-0.224,0.773,25.4,38.7,-37.7,13.7,-11.3,-18.9,0.294045839,0.14291818,0.377941221,-0.866145817
778,1952312,450090,-0.983,-0.205,0.757,30.4,40,-37.5,13.7,-11.3,-18.9,0.292916654,0.143559069,0.377727592,-0.86651204
779,1954660,450090,-0.99,-0.13,0.73,34.4,41.4,-37.3,13.7,-11.3,-18.9,0.291756951,0.144260994,0.377483444,-0.86690878
780,1956775,450100,-0.99,-0.102,0.718,37.4,42.8,-37.1,14.1,-11.4,-18.9,0.290566729,0.144993439,0.37714774,-0.867305521
781,1959011,450100,-0.993,-0.086,0.71,39.5,44.2,-37.2,14.1,-11.4,-18.9,0.289376507,0.14578692,0.376812037,-0.86773278
782,1962897,450100,-0.989,-0.035,0.698,40.5,45.5,-37.3,14.1,-11.4,-18.9,0.288186285,0.14661092,0.376445814,-0.868160039
783,1964547,450100,-0.976,-0.008,0.698,40.4,46.7,-37.5,14.1,-11.4,-18.9,0.286935026,0.147434919,0.376079592,-0.868587298
784,1966511,450110,-0.968,0.01,0.698,36.2,48.6,-37.9,14.3,-11,-18.8,0.285714286,0.148258919,0.375835444,-0.86895352
785,1968950,450110,-0.956,0.026,0.705,36.2,48.6,-37.9,14.3,-11,-18.8,0.284463027,0.149113437,0.375560778,-0.869319742
786,1971474,450110,-0.928,0.045,0.712,32.4,49.4,-38,14.3,-11,-18.8,0.283242286,0.149937437,0.375377667,-0.869685965
787,1974074,450110,-0.916,0.048,0.708,27.7,50.4,-38.3,14.3,-11,-18.8,0.282021546,0.150730918,0.375286111,-0.869960631
788,1977265,450120,-0.904,0.052,0.711,22.1,51.5,-38.4,12.2,-11.3,-18.8,0.280800806,0.151554918,0.37531663,-0.870204779
789,1978816,450120,-0.892,0.052,0.711,15.7,52.6,-38.4,12.2,-11.3,-18.8,0.279580065,0.152317881,0.375469222,-0.870418409
790,1981998,450120,-0.868,0.047,0.706,8.7,53.8,-38.5,12.2,-11.3,-18.8,0.278359325,0.153080844,0.375743889,-0.870540483
791,1984132,450120,-0.861,0.035,0.706,1.4,55.2,-38.4,12.2,-11.3,-18.8,0.277169103,0.153813288,0.376201666,-0.87060152
792,1986437,450130,-0.857,0.031,0.71,-6.3,56.6,-38.3,13.7,-10.9,-18.7,0.2760094,0.154515213,0.376781518,-0.870571001
793,1989062,450130,-0.849,0.015,0.694,-14.1,58.2,-38.2,13.7,-10.9,-18.7,0.274849696,0.155247658,0.377544481,-0.870509964
794,1991836,450130,-0.845,-0.007,0.69,-21.8,59.6,-38,13.7,-10.9,-18.7,0.273720511,0.155949583,0.378429518,-0.870357372
795,1994824,450130,-0.846,-0.043,0.679,-29.2,60.8,-37.7,13.7,-10.9,-18.7,0.272591327,0.156620991,0.379467147,-0.870113224
796,1997206,450140,-0.842,-0.062,0.679,-36.2,61.9,-37.3,14.1,-10.9,-18.9,0.27149266,0.157261879,0.380657369,-0.869838557
797,1999375,450140,-0.839,-0.102,0.683,-42.6,62.9,-37,14.1,-10.9,-18.9,0.270424512,0.157902768,0.381969665,-0.869472335
798,2001628,450140,-0.831,-0.114,0.675,-48.2,63.6,-36.6,14.1,-10.9,-18.9,0.269356365,0.158513138,0.383373516,-0.869075594
799,2003969,450140,-0.824,-0.138,0.682,-53.4,64.3,-35.9,14.1,-10.9,-18.9,0.268318735,0.159123508,0.384899442,-0.868617817
800,2006682,450150,-0.832,-0.173,0.679,-57.9,64.9,-35.2,14.4,-10.4,-18.7,0.267311625,0.15970336,0.386516923,-0.868099002
801,2009060,450150,-0.829,-0.216,0.679,-61.8,65.5,-34.3,14.4,-10.4,-18.7,0.266304514,0.16031373,0.388164922,-0.867549669
802,2011340,450150,-0.825,-0.244,0.675,-64.6,66.2,-33.5,14.4,-10.4,-18.7,0.26535844,0.160893582,0.389904477,-0.866969817
803,2013804,450150,-0.818,-0.271,0.683,-66,66.5,-32.6,14.4,-10.4,-18.7,0.264381848,0.161503952,0.391644032,-0.866359447
804,2016984,450160,-0.811,-0.327,0.683,-64.4,66.5,-30.8,14.3,-10.2,-18.6,0.264229255,0.1633961,0.392345958,-0.865718558
805,2018774,450160,-0.807,-0.362,0.683,-64.4,66.5,-30.8,14.3,-10.2,-18.6,0.2633137,0.164036988,0.394054994,-0.865108188
806,2022235,450160,-0.804,-0.393,0.694,-62.1,66.1,-29.6,14.3,-10.2,-18.6,0.262398144,0.164677877,0.395733512,-0.864528336
807,2023987,450160,-0.8,-0.425,0.698,-59,65.6,-28.3,14.3,-10.2,-18.6,0.261513108,0.165318766,0.397320475,-0.863917966
808,2027010,450170,-0.797,-0.496,0.706,-55.2,65,-27,15.2,-10,-18.7,0.260628071,0.165990173,0.398815882,-0.863368633
809,2029232,450170,-0.786,-0.527,0.702,-50.6,64.4,-25.6,15.2,-10,-18.7,0.259773553,0.166692099,0.400219733,-0.862849818
810,2032355,450170,-0.782,-0.559,0.702,-45.1,63.7,-24.4,15.2,-10,-18.7,0.258919034,0.167424543,0.401532029,-0.862361522
811,2034103,450170,-0.779,-0.587,0.702,-39.2,62.9,-23.1,15.2,-10,-18.7,0.258064516,0.168187506,0.402722251,-0.861903745
812,2036332,450180,-0.768,-0.634,0.706,-33,62,-22,13.2,-9.7,-18.7,0.257240516,0.168980987,0.40375988,-0.861507004
813,2038824,450180,-0.768,-0.65,0.706,-26.5,61.1,-20.8,13.2,-9.7,-18.7,0.256416517,0.169804987,0.404675436,-0.8611713
814,2042251,450180,-0.768,-0.669,0.702,-20,60.2,-19.5,13.2,-9.7,-18.7,0.255592517,0.170628986,0.405468917,-0.860866115
815,2044009,450180,-0.768,-0.673,0.706,-13.5,59.2,-18.3,13.2,-9.7,-18.7,0.254768517,0.171514023,0.406109806,-0.860621967
816,2046772,450190,-0.764,-0.685,0.694,-7.1,58,-16.9,12.5,-9.7,-18.7,0.253944517,0.172429579,0.40662862,-0.860438856
817,2049562,450190,-0.764,-0.669,0.71,-0.9,56.7,-15.5,12.5,-9.7,-18.7,0.253151036,0.173345134,0.407025361,-0.860316782
818,2051886,450190,-0.76,-0.662,0.698,5.1,55.2,-14,12.5,-9.7,-18.7,0.252388073,0.174291208,0.407300027,-0.860225227
819,2054042,450190,-0.764,-0.646,0.694,11.2,53.9,-12.1,12.5,-9.7,-18.7,0.251655629,0.175237281,0.407422102,-0.860194708
820,2056800,450200,-0.759,-0.603,0.694,17,52.6,-9.9,12.2,-9.4,-18.6,0.250923185,0.176244392,0.407422102,-0.860194708
821,2059549,450200,-0.759,-0.579,0.698,22.4,51.4,-7.6,12.2,-9.4,-18.6,0.250221259,0.177251503,0.407330546,-0.860225227
822,2062802,450200,-0.755,-0.556,0.697,27.4,50.2,-5.3,12.2,-9.4,-18.6,0.24958037,0.178289132,0.407086398,-0.860316782
823,2064325,450200,-0.754,-0.52,0.689,31.8,48.8,-3,12.2,-9.4,-18.6,0.24897,0.17935728,0.406781213,-0.860408338
824,2066652,450210,-0.746,-0.505,0.693,37.8,46.2,1.2,13,-9.5,-18.1,0.248420667,0.180455947,0.406323435,-0.86056093
825,2068906,450210,-0.742,-0.485,0.701,37.8,46.2,1.2,13,-9.5,-18.1,0.247901852,0.181524094,0.405835139,-0.860713523
826,2071309,450210,-0.741,-0.477,0.705,39.3,45,2.9,13,-9.5,-18.1,0.247383038,0.182622761,0.405346843,-0.860866115
827,2074094,450210,-0.729,-0.458,0.693,39.7,44,4.5,13,-9.5,-18.1,0.24692526,0.183690909,0.404828028,-0.861018708
828,2077234,450220,-0.733,-0.446,0.696,39,42.9,5.8,17.6,-11.1,-18.1,0.246498001,0.184759056,0.404278695,-0.8611713
829,2079451,450220,-0.725,-0.435,0.688,37.3,42,7,17.6,-11.1,-18.1,0.24610126,0.185827204,0.403790399,-0.861293374
830,2081522,450220,-0.721,-0.431,0.688,34.7,41.1,8.1,17.6,-11.1,-18.1,0.245765557,0.186864834,0.403302103,-0.86138493
831,2084577,450220,-0.717,-0.411,0.684,31.6,40.4,9.1,17.6,-11.1,-18.1,0.245460372,0.187871944,0.402905362,-0.861445967
832,2087447,450230,-0.717,-0.399,0.68,28.1,39.6,10,14.8,-8.3,-18.1,0.245185705,0.188848537,0.40253914,-0.861476485
833,2088877,450230,-0.716,-0.384,0.676,24.1,38.9,11,14.8,-8.3,-18.1,0.244941557,0.18979461,0.402264473,-0.861476485
834,2092042,450230,-0.716,-0.38,0.68,19.6,38.2,12.2,14.8,-8.3,-18.1,0.244758446,0.190740684,0.402050844,-0.861415448
835,2094059,450230,-0.712,-0.36,0.672,14.8,37.6,13.3,14.8,-8.3,-18.1,0.244605853,0.191625721,0.401898251,-0.861323893
836,2097150,450240,-0.708,-0.356,0.68,9.9,36.7,14.4,15.9,-8.5,-18.2,0.244514298,0.192510758,0.401837214,-0.8611713
837,2098844,450240,-0.704,-0.356,0.672,4.9,35.9,15.4,15.9,-8.5,-18.2,0.244483779,0.193365276,0.401898251,-0.860988189
838,2102089,450240,-0.688,-0.357,0.668,0,35.1,16.2,15.9,-8.5,-18.2,0.244483779,0.194158757,0.401989807,-0.860744041
839,2103832,450240,-0.684,-0.361,0.671,-4.9,34.3,16.8,15.9,-8.5,-18.2,0.244514298,0.19492172,0.402203436,-0.860469375
840,2106321,450250,-0.676,-0.369,0.675,-9.7,33.3,17,16.9,-8.5,-18,0.244575335,0.195654164,0.402508621,-0.860133671
841,2109409,450250,-0.669,-0.377,0.683,-14.1,32.3,16.9,16.9,-8.5,-18,0.24466689,0.196325571,0.402874844,-0.859797967
842,2112400,450250,-0.657,-0.397,0.683,-18,31.3,16.6,16.9,-8.5,-18,0.244788965,0.19696646,0.403302103,-0.859401227
843,2113880,450250,-0.645,-0.405,0.69,-21.6,30.2,16.2,16.9,-8.5,-18,0.244911039,0.197546312,0.403790399,-0.859004486
844,2116543,450260,-0.63,-0.437,0.698,-27.9,28.3,16.1,17.3,-8.4,-17.8,0.245460372,0.198553423,0.403790399,-0.858607746
845,2119565,450260,-0.63,-0.437,0.698,-27.9,28.3,16.1,17.3,-8.4,-17.8,0.245643483,0.199072237,0.404370251,-0.858180486
846,2121294,450260,-0.606,-0.465,0.701,-30.3,27.5,16.3,17.3,-8.4,-17.8,0.245857112,0.199560533,0.405041658,-0.85769219
847,2123989,450260,-0.602,-0.481,0.709,-32,26.6,16.6,17.3,-8.4,-17.8,0.246070742,0.20004883,0.405713065,-0.857203894
848,2126980,450270,-0.599,-0.492,0.709,-33,25.7,16.9,16.7,-10.3,-17.9,0.246284371,0.200506607,0.406384472,-0.856715598
849,2129994,450270,-0.599,-0.512,0.713,-33.3,24.7,17.2,16.7,-10.3,-17.9,0.24652852,0.200933866,0.407055879,-0.856196783
850,2131487,450270,-0.587,-0.54,0.716,-33,23.8,17.4,16.7,-10.3,-17.9,0.246803186,0.201361126,0.407727287,-0.855708487
851,2134445,450270,-0.588,-0.552,0.712,-32.2,23,17.5,16.7,-10.3,-17.9,0.247047334,0.201757866,0.408368175,-0.855220191
852,2137565,450280,-0.588,-0.56,0.716,-30.7,22.2,17.7,17,-9.2,-17.6,0.247291482,0.202154607,0.409009064,-0.854762413
853,2139105,450280,-0.584,-0.587,0.724,-28.6,21.3,17.7,17,-9.2,-17.6,0.247596667,0.202581866,0.409558397,-0.854304636
854,2142101,450280,-0.588,-0.595,0.716,-25.7,20.4,17.8,17,-9.2,-17.6,0.247871334,0.202978607,0.410077212,-0.853907895
855,2145046,450280,-0.584,-0.603,0.724,-22.1,19.5,17.7,17,-9.2,-17.6,0.248115482,0.203344829,0.410534989,-0.853511155
856,2146489,450290,-0.58,-0.603,0.724,-17.9,18.7,17.7,17,-9.2,-17.6,0.24835963,0.203772088,0.410870693,-0.853175451
857,2149554,450290,-0.581,-0.607,0.72,-13.4,17.8,17.8,17,-9.2,-17.6,0.24857326,0.204199347,0.41114536,-0.852870266
858,2151300,450290,-0.573,-0.607,0.716,-8.6,16.9,17.8,17,-9.2,-17.6,0.248817408,0.204626606,0.411328471,-0.852626118
859,2154716,450290,-0.576,-0.599,0.712,-3.6,16,17.8,17,-9.2,-17.6,0.249000519,0.205084384,0.411389508,-0.852443007
860,2156368,450300,-0.572,-0.591,0.7,1.6,15,17.9,17,-9.2,-17.6,0.249214148,0.205511643,0.411358989,-0.852290414
861,2159430,450300,-0.572,-0.572,0.689,6.7,14.1,17.9,17,-9.2,-17.6,0.249366741,0.205999939,0.411236915,-0.85216834
862,2161669,450300,-0.568,-0.556,0.688,11.7,13.3,17.9,17,-9.2,-17.6,0.249549852,0.206457717,0.411023286,-0.852137822
863,2163826,450300,-0.564,-0.544,0.692,16.5,12.4,18.1,17,-9.2,-17.6,0.249702445,0.206946013,0.410687582,-0.852107303
864,2166752,450310,-0.555,-0.517,0.7,25,10.9,18.9,17,-9.2,-17.6,0.249977111,0.207373272,0.409680471,-0.852412488
865,2169748,450310,-0.559,-0.505,0.692,25,10.9,18.9,17,-9.2,-17.6,0.250129704,0.207861568,0.409192175,-0.852504044
866,2172126,450310,-0.555,-0.49,0.684,28.6,10.3,19.6,17,-9.2,-17.6,0.250282296,0.208410901,0.408612323,-0.852595599
867,2174244,450310,-0.563,-0.474,0.68,31.8,9.8,20.4,17,-9.2,-17.6,0.25040437,0.208929716,0.407971435,-0.852717673
868,2177468,450320,-0.559,-0.45,0.68,34.2,9.3,21.1,16.6,-8.8,-17.4,0.250556963,0.209479049,0.407300027,-0.852870266
869,2179466,450320,-0.562,-0.45,0.684,36.1,9.1,21.5,16.6,-8.8,-17.4,0.250709555,0.210028382,0.406567583,-0.853022858
870,2181408,450320,-0.558,-0.442,0.688,37.4,8.8,21.6,16.6,-8.8,-17.4,0.250862148,0.210608234,0.405835139,-0.853205969
871,2184952,450320,-0.558,-0.438,0.692,38,8.6,21.6,16.6,-8.8,-17.4,0.25101474,0.211157567,0.405072176,-0.85338908
872,2186987,450330,-0.55,-0.446,0.707,38.1,8.4,21.6,16.6,-8.8,-17.4,0.251167333,0.211737419,0.404309214,-0.853572192
873,2188965,450330,-0.55,-0.446,0.711,37.7,8.2,21.6,16.6,-8.8,-17.4,0.251319926,0.212286752,0.403546251,-0.853724784
874,2191296,450330,-0.554,-0.446,0.711,36.7,8.2,21.5,16.6,-8.8,-17.4,0.251503037,0.212836085,0.402813807,-0.853907895
875,2194676,450330,-0.554,-0.45,0.711,35.3,8.2,21.3,16.6,-8.8,-17.4,0.251655629,0.2133549,0.402081362,-0.854060488
876,2196329,450340,-0.55,-0.454,0.711,33.5,8.4,21.1,16.6,-8.8,-17.4,0.251808222,0.213873714,0.401409955,-0.85421308
877,2199244,450340,-0.55,-0.446,0.707,31.3,8.6,20.8,16.6,-8.8,-17.4,0.251991333,0.214392529,0.400769066,-0.854304636
878,2202193,450340,-0.558,-0.446,0.715,28.8,8.9,20.6,16.6,-8.8,-17.4,0.252143925,0.214911344,0.400189215,-0.85442671
879,2205408,450340,-0.562,-0.438,0.711,25.8,9.3,20.3,16.6,-8.8,-17.4,0.252327036,0.21539964,0.3996704,-0.854487747
880,2207321,450350,-0.566,-0.434,0.708,22.7,9.7,20,16.6,-8.8,-17.4,0.252510147,0.215887936,0.399212622,-0.854518265
881,2209047,450350,-0.57,-0.43,0.704,19.4,10.2,19.6,16.6,-8.8,-17.4,0.252693258,0.216345714,0.398815882,-0.854548784
882,2211537,450350,-0.57,-0.43,0.704,16.2,10.4,19.2,16.6,-8.8,-17.4,0.25287637,0.216803491,0.398480178,-0.854518265
883,2214803,450350,-0.578,-0.43,0.712,13.2,10.6,18.9,16.6,-8.8,-17.4,0.253089999,0.21723075,0.398174993,-0.854487747
884,2216729,450360,-0.574,-0.45,0.712,8.2,10.8,18.3,16.6,-8.8,-17.4,0.253730888,0.217719047,0.396862697,-0.854792932
885,2220163,450360,-0.574,-0.45,0.712,8.2,10.8,18.3,16.6,-8.8,-17.4,0.253944517,0.218115787,0.396679586,-0.854701376
886,2222394,450360,-0.567,-0.466,0.712,6.2,10.8,17.9,16.6,-8.8,-17.4,0.254158147,0.218512528,0.396526994,-0.854609821
887,2224492,450360,-0.559,-0.497,0.7,4.7,10.9,17.2,16.6,-8.8,-17.4,0.254371776,0.218909268,0.39640492,-0.854518265
888,2226370,450370,-0.551,-0.513,0.696,3.7,11,16.5,16.5,-11.4,-18.5,0.254554888,0.219275491,0.396343883,-0.854396191
889,2230599,450370,-0.548,-0.525,0.696,3,11,15.7,16.5,-11.4,-18.5,0.254737999,0.219641713,0.396252327,-0.854274117
890,2232853,450370,-0.548,-0.537,0.688,2.4,11.2,14.8,16.5,-11.4,-18.5,0.25492111,0.219946898,0.39619129,-0.854152043
891,2234965,450370,-0.544,-0.557,0.672,1.9,11.3,14,16.5,-11.4,-18.5,0.255073702,0.22031312,0.396160772,-0.854060488
892,2236523,450380,-0.552,-0.56,0.676,1.5,11.6,13.3,16.8,-10.6,-18.8,0.255195776,0.220679342,0.396130253,-0.853938414
893,2239078,450380,-0.552,-0.564,0.672,1.5,11.9,12.7,16.8,-10.6,-18.8,0.255348369,0.221015046,0.396099734,-0.85381634
894,2242568,450380,-0.553,-0.58,0.661,2.1,12.2,12.4,16.8,-10.6,-18.8,0.255439924,0.221350749,0.396069216,-0.853694266
895,2244821,450380,-0.557,-0.584,0.657,3.3,12.4,12,16.8,-10.6,-18.8,0.255561998,0.221716971,0.396038697,-0.85360271
896,2247001,450390,-0.553,-0.592,0.661,4.9,12.5,11.9,16.7,-10,-18.8,0.255653554,0.222083193,0.395947142,-0.853511155
897,2249243,450390,-0.553,-0.592,0.657,6.7,12.6,11.7,16.7,-10,-18.8,0.255714591,0.222449416,0.395825068,-0.853450117
898,2252083,450390,-0.553,-0.592,0.649,8.8,12.6,11.5,16.7,-10,-18.8,0.255775628,0.222846156,0.395702994,-0.85338908
899,2253751,450390,-0.557,-0.596,0.645,10.8,12.6,11.2,16.7,-10,-18.8,0.255836665,0.223242897,0.395489364,-0.853358562
900,2256757,450400,-0.557,-0.6,0.649,13,12.6,11,16.8,-9.5,-18.5,0.255867183,0.223639637,0.395275735,-0.853358562
901,2258784,450400,-0.557,-0.6,0.649,15.3,12.6,10.7,16.8,-9.5,-18.5,0.255867183,0.224036378,0.395001068,-0.853358562
902,2262006,450400,-0.561,-0.592,0.642,17.8,12.7,10.6,16.8,-9.5,-18.5,0.255867183,0.224463637,0.394695883,-0.853419599
903,2264890,450400,-0.557,-0.584,0.641,20.2,12.8,10.5,16.8,-9.5,-18.5,0.255867183,0.224921415,0.394329661,-0.853450117
904,2266358,450410,-0.561,-0.572,0.622,24.6,12.5,11,16.8,-9.5,-18.5,0.255714591,0.224829859,0.393749809,-0.85381634
905,2269499,450410,-0.561,-0.572,0.622,24.6,12.5,11,16.8,-9.5,-18.5,0.255684072,0.225318155,0.393292032,-0.853907895
906,2271577,450410,-0.565,-0.56,0.614,26.2,12.3,11.3,16.8,-9.5,-18.5,0.255653554,0.225775933,0.392803735,-0.853999451
907,2274471,450410,-0.568,-0.548,0.618,27.2,12.1,11.7,16.8,-9.5,-18.5,0.255653554,0.226264229,0.392315439,-0.854091006
908,2276316,450420,-0.568,-0.533,0.61,27.8,12,12.1,16.5,-11.1,-17.4,0.255623035,0.226752525,0.391796625,-0.85421308
909,2278942,450420,-0.58,-0.513,0.603,28.1,11.8,12.3,16.5,-11.1,-17.4,0.255623035,0.227210303,0.39127781,-0.854335154
910,2282159,450420,-0.58,-0.505,0.591,28.2,11.7,12.6,16.5,-11.1,-17.4,0.255623035,0.227698599,0.390758995,-0.85442671
911,2284189,450420,-0.58,-0.497,0.591,28.2,11.6,13,16.5,-11.1,-17.4,0.255623035,0.228186895,0.390240181,-0.854548784
912,2287252,450430,-0.584,-0.493,0.583,27.9,11.7,13.3,16.4,-11.2,-17.2,0.255623035,0.228675192,0.389721366,-0.854640339
913,2289557,450430,-0.591,-0.481,0.587,27,11.8,13.6,16.4,-11.2,-17.2,0.255653554,0.229163488,0.389202551,-0.854762413
914,2291867,450430,-0.595,-0.473,0.58,25.9,11.7,13.8,16.4,-11.2,-17.2,0.255684072,0.229651784,0.388714255,-0.85482345
915,2294020,450430,-0.603,-0.461,0.576,24.4,11.7,14.1,16.4,-11.2,-17.2,0.255714591,0.23014008,0.388256478,-0.854915006
916,2296432,450440,-0.607,-0.453,0.572,22.5,11.7,14.5,16.7,-11.3,-16.8,0.255775628,0.230597858,0.387829218,-0.854945524
917,2298990,450440,-0.615,-0.453,0.58,20.3,11.8,15,16.7,-11.3,-16.8,0.255836665,0.231055635,0.387432478,-0.854976043
918,2302497,450440,-0.619,-0.453,0.58,17.8,11.9,15.6,16.7,-11.3,-16.8,0.255958739,0.231513413,0.387096774,-0.854976043
919,2304825,450440,-0.623,-0.445,0.576,15.1,12,16.3,16.7,-11.3,-16.8,0.256080813,0.231971191,0.386791589,-0.854945524
920,2307034,450450,-0.63,-0.441,0.584,12.1,11.8,17,16.5,-11.5,-16,0.256233406,0.23239845,0.386547441,-0.854915006
921,2309263,450450,-0.63,-0.449,0.584,8.7,11.7,17.4,16.5,-11.5,-16,0.256416517,0.23279519,0.38636433,-0.85482345
922,2311429,450450,-0.639,-0.456,0.585,5.3,11.6,17.7,16.5,-11.5,-16,0.256630146,0.233191931,0.386242256,-0.854701376
923,2315270,450450,-0.635,-0.46,0.585,1.8,11.5,17.8,16.5,-11.5,-16,0.256843776,0.233588672,0.386181219,-0.854579302
924,2316592,450460,-0.643,-0.476,0.585,-4.6,11.3,17.7,16.5,-11.5,-16,0.257332072,0.234260079,0.385937071,-0.854335154
925,2319758,450460,-0.643,-0.484,0.573,-4.6,11.3,17.7,16.5,-11.5,-16,0.257606738,0.234595782,0.385998108,-0.854152043
926,2321937,450460,-0.643,-0.492,0.577,-7.4,11.1,17.5,16.5,-11.5,-16,0.257881405,0.234900967,0.386120182,-0.853938414
927,2324104,450460,-0.643,-0.499,0.581,-9.8,11,17.4,16.5,-11.5,-16,0.258156072,0.235206153,0.386272774,-0.853694266
928,2327223,450470,-0.651,-0.507,0.569,-11.9,10.9,17.5,17.3,-10.8,-15.5,0.258461257,0.235480819,0.386455885,-0.853419599
929,2329707,450470,-0.651,-0.507,0.562,-13.7,10.7,17.8,17.3,-10.8,-15.5,0.258766442,0.235755486,0.386669515,-0.853175451
930,2331769,450470,-0.655,-0.515,0.562,-15.2,10.4,18.1,17.3,-10.8,-15.5,0.259071627,0.236030152,0.386944182,-0.852870266
931,2333907,450470,-0.656,-0.519,0.55,-16.5,10.2,18.3,17.3,-10.8,-15.5,0.259437849,0.2362743,0.38718833,-0.852534562
932,2336481,450480,-0.663,-0.523,0.558,-17.5,10,18.7,17,-10.9,-14.8,0.259773553,0.236518448,0.387493515,-0.852259896
933,2339061,450480,-0.664,-0.531,0.558,-18.2,9.7,19.1,17,-10.9,-14.8,0.260139775,0.236762597,0.3877987,-0.851954711
934,2342051,450480,-0.664,-0.53,0.566,-18.8,9.2,19.4,17,-10.9,-14.8,0.260536515,0.237006745,0.388073366,-0.851649525
935,2345168,450480,-0.664,-0.538,0.562,-19.1,8.7,19.5,17,-10.9,-14.8,0.260902738,0.237220374,0.388378552,-0.851313822
936,2346688,450490,-0.664,-0.542,0.558,-19.1,8.1,19.6,17,-11.1,-14.6,0.261299478,0.237434004,0.388683737,-0.851008637
937,2349045,450490,-0.66,-0.538,0.562,-18.6,7.5,19.5,17,-11.1,-14.6,0.261696219,0.237617115,0.388988922,-0.850703452
938,2351380,450490,-0.66,-0.546,0.558,-17.9,6.9,19.4,17,-11.1,-14.6,0.262092959,0.237800226,0.389263588,-0.850398267
939,2354472,450490,-0.66,-0.554,0.55,-16.8,6.2,19.3,17,-11.1,-14.6,0.2624897,0.237983337,0.389507736,-0.8501236
940,2356269,450500,-0.66,-0.558,0.554,-15.4,5.4,19.3,17,-10.8,-14.7,0.262886441,0.238166448,0.389721366,-0.849848933
941,2359111,450500,-0.656,-0.562,0.554,-13.7,4.7,19.4,17,-10.8,-14.7,0.263283181,0.238349559,0.389904477,-0.849574267
942,2361390,450500,-0.656,-0.566,0.562,-12,4,19.6,17,-10.8,-14.7,0.263679922,0.238502152,0.39005707,-0.849360637
943,2364258,450500,-0.652,-0.57,0.566,-10.1,3.4,19.8,17,-10.8,-14.7,0.264076662,0.238685263,0.390148625,-0.849147008
944,2367061,450510,-0.652,-0.566,0.566,-6.3,2.4,19.9,17,-10.8,-14.7,0.264442885,0.239082003,0.390392773,-0.848780786
945,2369863,450510,-0.652,-0.566,0.566,-6.3,2.4,19.9,17,-10.8,-14.7,0.264809107,0.239265114,0.390423292,-0.848597674
946,2372013,450510,-0.652,-0.562,0.566,-4.2,1.8,19.7,17,-10.8,-14.7,0.265175329,0.239448225,0.390423292,-0.848445082
947,2373797,450510,-0.648,-0.554,0.573,-2.2,1.1,19.7,17,-10.8,-14.7,0.265541551,0.239631336,0.390362255,-0.848292489
948,2376505,450520,-0.648,-0.554,0.573,0,0.4,19.7,16.5,-11.2,-16.4,0.265907773,0.239814447,0.390270699,-0.848200934
949,2379528,450520,-0.64,-0.547,0.577,1.9,-0.2,19.8,16.5,-11.2,-16.4,0.266273995,0.23996704,0.390118107,-0.84807886
950,2381307,450520,-0.64,-0.523,0.581,3.8,-0.9,19.9,16.5,-11.2,-16.4,0.266640217,0.240150151,0.389934996,-0.848017823
951,2384278,450520,-0.636,-0.519,0.581,5.3,-1.5,20,16.5,-11.2,-16.4,0.266975921,0.240333262,0.389721366,-0.847956786
952,2386556,450530,-0.635,-0.504,0.585,6.6,-2,20.1,16.1,-11.2,-17.3,0.267342143,0.240455336,0.389477218,-0.847895749
953,2389084,450530,-0.635,-0.496,0.581,7.5,-2.3,20.4,16.1,-11.2,-17.3,0.267708365,0.240668966,0.38923307,-0.84786523
954,2391425,450530,-0.631,-0.48,0.588,8.2,-2.5,20.6,16.1,-11.2,-17.3,0.268044069,0.240852077,0.388958403,-0.847834712
955,2393762,450530,-0.623,-0.476,0.584,8.6,-2.7,20.7,16.1,-11.2,-17.3,0.268410291,0.241035188,0.388653218,-0.847804193
956,2397109,450540,-0.623,-0.472,0.584,8.8,-3,20.9,16.4,-11.2,-17.7,0.268776513,0.24118778,0.388378552,-0.847743156
957,2399360,450540,-0.627,-0.468,0.588,9,-3.2,21,16.4,-11.2,-17.7,0.269142735,0.241370891,0.388073366,-0.847712638
958,2401582,450540,-0.619,-0.465,0.6,9,-3.4,21,16.4,-11.2,-17.7,0.269539476,0.241523484,0.387768181,-0.847712638
959,2404122,450540,-0.619,-0.469,0.6,8.7,-3.5,20.9,16.4,-11.2,-17.7,0.269905698,0.241706595,0.387493515,-0.847682119
960,2406268,450550,-0.615,-0.465,0.604,8.3,-3.6,20.7,16.3,-11.1,-18.1,0.27027192,0.241859188,0.38718833,-0.847621082
961,2409226,450550,-0.615,-0.473,0.604,7.8,-3.7,20.3,16.3,-11.1,-18.1,0.270638142,0.24201178,0.386913663,-0.847590564
962,2411416,450550,-0.611,-0.473,0.611,7.3,-3.8,20,16.3,-11.1,-18.1,0.271004364,0.242133854,0.386669515,-0.847560045
963,2413990,450550,-0.607,-0.465,0.615,6.8,-3.8,19.7,16.3,-11.1,-18.1,0.271370586,0.242286447,0.386394848,-0.847529527
964,2416766,450560,-0.607,-0.469,0.623,6,-3.2,19.4,16.3,-11.1,-18.1,0.271889401,0.242469558,0.385784478,-0.847590564
965,2419747,450560,-0.599,-0.457,0.623,6,-3.2,19.4,16.3,-11.1,-18.1,0.272225105,0.242591632,0.385570849,-0.847529527
966,2422068,450560,-0.603,-0.457,0.627,5.4,-3,19.4,16.3,-11.1,-18.1,0.272591327,0.242744224,0.385326701,-0.84746849
967,2424250,450560,-0.602,-0.449,0.627,4.7,-2.8,19.4,16.3,-11.1,-18.1,0.272957549,0.242896817,0.38514359,-0.847407453
968,2426430,450570,-0.602,-0.445,0.623,3.9,-2.5,19.4,16.2,-11.5,-16.5,0.273323771,0.243018891,0.38492996,-0.847346416
969,2429072,450570,-0.598,-0.434,0.63,3.1,-2.1,19.2,16.2,-11.5,-16.5,0.273659474,0.243171484,0.384777367,-0.847285379
970,2431488,450570,-0.594,-0.426,0.618,2.3,-1.9,19,16.2,-11.5,-16.5,0.274025697,0.243293558,0.384624775,-0.847193823
971,2433764,450570,-0.598,-0.422,0.619,1.6,-1.6,18.9,16.2,-11.5,-16.5,0.2743614,0.24344615,0.384472182,-0.847102268
972,2436875,450580,-0.602,-0.418,0.619,0.9,-1.4,18.7,15.8,-11.5,-16.6,0.274727622,0.243568224,0.384350108,-0.847010712
973,2438878,450580,-0.598,-0.418,0.63,0.3,-1.1,18.5,15.8,-11.5,-16.6,0.275093844,0.243720817,0.384228034,-0.846919156
974,2441421,450580,-0.594,-0.418,0.63,-0.2,-0.7,18.2,15.8,-11.5,-16.6,0.275429548,0.243842891,0.384136479,-0.846797082
975,2444163,450580,-0.594,-0.422,0.626,-0.9,-0.4,17.6,15.8,-11.5,-16.6,0.275765252,0.243995483,0.384044923,-0.846675008
976,2446598,450590,-0.586,-0.43,0.638,-1.6,0,16.9,15.7,-11.6,-16.7,0.276070437,0.244117557,0.383983886,-0.846583453
977,2449002,450590,-0.586,-0.434,0.63,-2.3,0.1,16.3,15.7,-11.6,-16.7,0.27640614,0.244239631,0.383953368,-0.846461379
978,2452305,450590,-0.586,-0.438,0.638,-2.9,0.4,15.7,15.7,-11.6,-16.7,0.276711325,0.244361705,0.383922849,-0.846339305
979,2454561,450590,-0.579,-0.446,0.634,-3.5,0.7,15,15.7,-11.6,-16.7,0.276985992,0.244483779,0.383922849,-0.846217231
980,2456689,450600,-0.575,-0.454,0.641,-4,0.9,14.2,15.9,-11.3,-16.4,0.277260659,0.244605853,0.383922849,-0.846064638
981,2459128,450600,-0.575,-0.458,0.642,-4.3,1.1,13.3,15.9,-11.3,-16.4,0.277535325,0.244697409,0.383922849,-0.845942564
982,2461558,450600,-0.571,-0.47,0.641,-4.4,1.4,12.4,15.9,-11.3,-16.4,0.277779473,0.244819483,0.383953368,-0.84582049
983,2465205,450600,-0.571,-0.47,0.641,-4.2,1.7,11.4,15.9,-11.3,-16.4,0.277993103,0.244911039,0.383983886,-0.845728935
984,2467438,450610,-0.571,-0.481,0.638,-3.4,2.3,9.9,15.9,-11.3,-16.4,0.278389843,0.244453261,0.382976775,-0.846186712
985,2469505,450610,-0.571,-0.485,0.638,-3.4,2.3,9.9,15.9,-11.3,-16.4,0.278572954,0.244544816,0.383007294,-0.846064638
986,2471621,450610,-0.571,-0.485,0.63,-2.7,2.6,9.3,15.9,-11.3,-16.4,0.278756066,0.24466689,0.383007294,-0.845973083
987,2473932,450610,-0.571,-0.485,0.638,-1.8,2.8,8.6,15.9,-11.3,-16.4,0.27887814,0.244788965,0.383007294,-0.845912046
988,2476777,450620,-0.571,-0.493,0.634,-1,2.8,8,16.7,-11.8,-16.3,0.279030732,0.24488052,0.383007294,-0.84582049
989,2478767,450620,-0.571,-0.489,0.634,0,2.8,7.3,16.7,-11.8,-16.3,0.279122288,0.245002594,0.383007294,-0.845759453
990,2482286,450620,-0.571,-0.489,0.634,0.8,3,6.7,16.7,-11.8,-16.3,0.279213843,0.245124668,0.382946257,-0.845728935
991,2484572,450620,-0.567,-0.482,0.634,1.7,3.1,5.9,16.7,-11.8,-16.3,0.279305399,0.245246742,0.382915738,-0.845667898
992,2486516,450630,-0.571,-0.481,0.634,2.4,3.4,5.2,17,-11.8,-16.7,0.279366436,0.245338298,0.382854701,-0.845637379
993,2489316,450630,-0.571,-0.477,0.63,3.1,3.5,4.6,17,-11.8,-16.7,0.279396954,0.24549089,0.382793664,-0.845637379
994,2491361,450630,-0.575,-0.481,0.63,3.7,3.6,4.1,17,-11.8,-16.7,0.279427473,0.245612964,0.382732627,-0.845606861
995,2494227,450630,-0.567,-0.474,0.637,4.4,3.7,3.7,17,-11.8,-16.7,0.279427473,0.245735038,0.382641072,-0.845606861
996,2496516,450640,-0.567,-0.478,0.634,4.8,3.8,3.4,16.9,-12,-16.5,0.279427473,0.245887631,0.382580035,-0.845606861
997,2498963,450640,-0.563,-0.482,0.637,5.1,4,2.9,16.9,-12,-16.5,0.279427473,0.246009705,0.382488479,-0.845606861
998,2501658,450640,-0.567,-0.485,0.637,5.3,4.1,2.4,16.9,-12,-16.5,0.279427473,0.246131779,0.382396924,-0.845606861
999,2504100,450640,-0.567,-0.497,0.645,5.5,4.1,1.9,16.9,-12,-16.5,0.279396954,0.246253853,0.382305368,-0.845637379
1000,2506451,450650,-0.571,-0.505,0.642,5.7,4.1,1.5,17,-11.8,-16.5,0.279366436,0.246375927,0.382213813,-0.845637379
1001,2508966,450650,-0.568,-0.509,0.645,5.9,4.1,1.1,17,-11.8,-16.5,0.279305399,0.246498001,0.382122257,-0.845667898
1002,2512076,450650,-0.572,-0.513,0.649,6,4.3,0.8,17,-11.8,-16.5,0.279244362,0.246620075,0.382030702,-0.845698416
1003,2514333,450650,-0.576,-0.525,0.646,6.2,4.3,0.6,17,-11.8,-16.5,0.279183325,0.246742149,0.381939146,-0.845698416
1004,2516940,450660,-0.572,-0.529,0.649,6.8,4.3,0.3,17,-11.8,-16.5,0.279061251,0.246040223,0.381328776,-0.846247749
1005,2518763,450660,-0.572,-0.529,0.649,6.8,4.3,0.3,17,-11.8,-16.5,0.278969695,0.246162297,0.381267739,-0.846278268
1006,2521370,450660,-0.572,-0.529,0.649,6.8,4.3,0.3,17,-11.8,-16.5,0.278969695,0.246162297,0.381267739,-0.846278268
1007,2524719,450660,-0.572,-0.536,0.653,7.9,4,0.5,17,-11.8,-16.5,0.278847621,0.246406446,0.381023591,-0.846339305
1008,2527046,450670,-0.576,-0.536,0.657,8.3,3.9,0.6,18,-11.9,-16.7,0.278786584,0.24652852,0.380901517,-0.846400342
1009,2529327,450670,-0.572,-0.536,0.649,8.5,4.1,0.8,18,-11.9,-16.7,0.278725547,0.246681112,0.380748924,-0.84643086
1010,2531490,450670,-0.576,-0.528,0.653,8.6,4.3,1.1,18,-11.9,-16.7,0.27866451,0.246803186,0.38062685,-0.846461379
1011,2534047,450670,-0.576,-0.532,0.65,8.6,4.3,1.3,18,-11.9,-16.7,0.278603473,0.246955779,0.380474258,-0.846522416
1012,2537346,450680,-0.58,-0.524,0.65,8.4,4.3,1.4,17.8,-11.6,-16.4,0.278542436,0.247108371,0.380352184,-0.846552934
1013,2538986,450680,-0.576,-0.521,0.646,8,4.3,1.4,17.8,-11.6,-16.4,0.278481399,0.247230445,0.380199591,-0.846583453
1014,2542169,450680,-0.583,-0.513,0.646,7.4,4.3,1.4,17.8,-11.6,-16.4,0.27845088,0.247383038,0.380077517,-0.846613971
1015,2544479,450680,-0.583,-0.505,0.642,6.8,4.2,1.4,17.8,-11.6,-16.4,0.278389843,0.247505112,0.379985961,-0.84664449
1016,2546614,450690,-0.587,-0.493,0.654,6,4.1,1.6,17.5,-11.8,-16.5,0.278359325,0.247627186,0.379894406,-0.84664449
1017,2550322,450690,-0.583,-0.489,0.65,5.3,4.1,1.8,17.5,-11.8,-16.5,0.278328806,0.24774926,0.37980285,-0.846675008
1018,2552030,450690,-0.587,-0.489,0.654,4.3,4.2,1.8,17.5,-11.8,-16.5,0.278298288,0.247871334,0.379741813,-0.846675008
1019,2554443,450690,-0.587,-0.489,0.654,4.3,4.2,1.8,17.5,-11.8,-16.5,0.278298288,0.247871334,0.379741813,-0.846675008
1020,2556340,450700,-0.587,-0.485,0.65,2.5,4.5,1.7,17.4,-11.8,-16.6,0.278267769,0.248115482,0.379650258,-0.84664449
1021,2559538,450700,-0.587,-0.485,0.65,2.5,4.5,1.7,17.4,-11.8,-16.6,0.278267769,0.248115482,0.379650258,-0.84664449
