sample_index,elapsed_us,device_time_ms,acc_x_g,acc_y_g,acc_z_g,gyro_x_dps,gyro_y_dps,gyro_z_dps,mag_x_ut,mag_y_ut,mag_z_ut,quat_w,quat_x,quat_y,quat_z
0,6701,354030,0.957,-0.206,0.143,5.2,1.3,-4.5,-2.3,31.1,-14.1,0.331888791,0.495956297,-0.415265358,0.686544389
1,10732,354030,0.965,-0.206,0.15,5.2,1.3,-4.5,-2.3,31.1,-14.1,0.331919309,0.496017335,-0.415143284,0.686574908
2,12837,354030,0.965,-0.206,0.15,5.2,1.3,-4.5,-2.3,31.1,-14.1,0.331919309,0.496017335,-0.415143284,0.686574908
3,15006,354040,0.961,-0.206,0.154,4.5,0.8,-4.5,-2.5,31.2,-14.1,0.331980346,0.496139409,-0.414899136,0.686605426
4,17282,354040,0.961,-0.206,0.154,4,0.7,-4.4,-2.5,31.2,-14.1,0.332010865,0.496200446,-0.414777062,0.686635945
5,20268,354040,0.965,-0.21,0.162,4,0.7,-4.4,-2.5,31.2,-14.1,0.332041383,0.496261483,-0.414654988,0.686635945
6,22500,354040,0.965,-0.21,0.162,4,0.7,-4.4,-2.5,31.2,-14.1,0.332041383,0.496261483,-0.414654988,0.686635945
7,24732,354050,0.969,-0.206,0.166,2.8,0.7,-3.8,-3.3,31.2,-14.1,0.33210242,0.496353038,-0.414471877,0.686666463
8,26858,354050,0.969,-0.206,0.17,2.3,0.7,-3.6,-3.3,31.2,-14.1,0.332132939,0.496383557,-0.414380322,0.686666463
9,29059,354050,0.969,-0.206,0.17,2.3,0.7,-3.6,-3.3,31.2,-14.1,0.332163457,0.496444594,-0.414319285,0.686666463
10,32224,354050,0.969,-0.206,0.17,2.3,0.7,-3.6,-3.3,31.2,-14.1,0.332163457,0.496444594,-0.414319285,0.686666463
11,34958,354060,0.969,-0.202,0.17,1.2,0.5,-3.5,-3.5,31.1,-14.3,0.332255013,0.496505631,-0.414166692,0.686635945
12,37138,354060,0.965,-0.202,0.174,0.9,0.5,-3.4,-3.5,31.1,-14.3,0.33231605,0.496536149,-0.414136174,0.686635945
13,40180,354060,0.969,-0.202,0.17,0.9,0.5,-3.4,-3.5,31.1,-14.3,0.332346568,0.496566668,-0.414075137,0.686635945
14,42494,354060,0.969,-0.202,0.17,0.9,0.5,-3.4,-3.5,31.1,-14.3,0.332346568,0.496566668,-0.414075137,0.686635945
15,44619,354070,0.969,-0.202,0.174,0.5,0.4,-3.2,-3.6,30.9,-14.2,0.332438124,0.496627705,-0.413983581,0.686605426
16,47586,354070,0.965,-0.202,0.17,0.5,0.4,-3.3,-3.6,30.9,-14.2,0.332499161,0.496658223,-0.413922544,0.686574908
17,49067,354070,0.965,-0.206,0.17,0.5,0.4,-3.3,-3.6,30.9,-14.2,0.332499161,0.496658223,-0.413892026,0.686574908
18,51860,354070,0.965,-0.206,0.17,0.5,0.4,-3.3,-3.6,30.9,-14.2,0.332499161,0.496658223,-0.413892026,0.686574908
19,54312,354080,0.965,-0.206,0.17,0.5,0.4,-3.3,-3.6,30.9,-14.2,0.332499161,0.496658223,-0.413892026,0.686574908
20,56681,354080,0.961,-0.202,0.17,0.5,0.8,-4,-3.2,31,-14.4,0.332834864,0.496841334,-0.41358684,0.686483352
21,60788,354080,0.957,-0.209,0.17,0.7,1.3,-4.2,-3.2,31,-14.4,0.332956938,0.496871853,-0.413464766,0.686483352
22,63217,354080,0.957,-0.209,0.17,0.9,1.6,-4.3,-3.2,31,-14.4,0.333017975,0.496902371,-0.413373211,0.686452834
23,65249,354090,0.957,-0.209,0.17,0.9,1.6,-4.3,-3.2,31,-14.4,0.333017975,0.496902371,-0.413373211,0.686452834
24,67507,354090,0.953,-0.213,0.162,1.2,1.7,-4.3,-3.3,31.5,-13.9,0.333109531,0.49693289,-0.413312174,0.686452834
25,69151,354090,0.953,-0.217,0.162,1.7,1.9,-4.6,-3.3,31.5,-13.9,0.333231605,0.496963408,-0.413129063,0.686483352
26,73337,354090,0.957,-0.217,0.162,1.8,1.9,-4.7,-3.3,31.5,-13.9,0.333292642,0.496993927,-0.413037507,0.686483352
27,75567,354100,0.957,-0.217,0.162,1.8,1.9,-4.7,-3.3,31.5,-13.9,0.333292642,0.496993927,-0.413037507,0.686483352
28,77967,354100,0.949,-0.221,0.163,1.9,1.9,-4.8,-3.2,31.3,-14.9,0.333384198,0.497024445,-0.412945952,0.686483352
29,80171,354100,0.957,-0.221,0.155,2.1,1.7,-5,-3.2,31.3,-14.9,0.333506272,0.497085482,-0.412732322,0.686483352
30,82353,354100,0.953,-0.225,0.162,2.1,1.6,-5.1,-3.2,31.3,-14.9,0.333567309,0.497116001,-0.412640767,0.686483352
31,84472,354110,0.953,-0.225,0.162,2.1,1.6,-5.1,-3.2,31.3,-14.9,0.333567309,0.497116001,-0.412640767,0.686483352
32,86711,354110,0.957,-0.229,0.158,2,1.4,-5.2,-3.3,31.3,-13.8,0.333658864,0.497177038,-0.412549211,0.686483352
33,90747,354110,0.949,-0.233,0.159,1.6,1.1,-5.3,-3.3,31.3,-13.8,0.333780938,0.497268593,-0.4123661,0.686452834
34,92601,354110,0.949,-0.225,0.159,1.4,1,-5.3,-3.3,31.3,-13.8,0.333872494,0.497299112,-0.412274545,0.686452834
35,94352,354120,0.949,-0.225,0.159,1.4,1,-5.3,-3.3,31.3,-13.8,0.333872494,0.497299112,-0.412274545,0.686452834
36,96776,354120,0.953,-0.233,0.155,1.2,1.1,-5.2,-2.9,31.3,-12.8,0.333933531,0.49732963,-0.412182989,0.686422315
37,100816,354120,0.957,-0.233,0.155,0.9,1.1,-5.1,-2.9,31.3,-12.8,0.334025086,0.497360149,-0.412121952,0.686422315
38,103054,354120,0.957,-0.229,0.158,0.6,0.9,-4.8,-2.9,31.3,-12.8,0.334177679,0.497451704,-0.411969359,0.686361278
39,105038,354130,0.957,-0.229,0.158,0.6,0.9,-4.8,-2.9,31.3,-12.8,0.334177679,0.497451704,-0.411969359,0.686361278
40,107257,354130,0.957,-0.229,0.158,0.6,0.9,-4.8,-2.9,31.3,-12.8,0.334177679,0.497451704,-0.411969359,0.686361278
41,109320,354130,0.961,-0.229,0.158,0.4,0.5,-4.5,-3.4,31.4,-14.2,0.334177679,0.49754326,-0.411969359,0.686269723
42,113269,354130,0.961,-0.229,0.158,0.3,0.4,-4.4,-3.4,31.4,-14.2,0.334269234,0.497573778,-0.411938841,0.686239204
43,115840,354140,0.957,-0.229,0.162,0,0.5,-3.9,-3.4,31.4,-14.2,0.334391308,0.497634816,-0.411816767,0.686208686
44,118105,354140,0.957,-0.229,0.162,0,0.5,-3.9,-3.4,31.4,-14.2,0.334391308,0.497634816,-0.411816767,0.686208686
45,120557,354140,0.961,-0.221,0.166,0,0.4,-3.7,-3.2,31.3,-12.4,0.334452345,0.497665334,-0.411786248,0.686178167
46,122521,354140,0.961,-0.221,0.162,0,0.2,-3.6,-3.2,31.3,-12.4,0.334513382,0.497695853,-0.41175573,0.686147649
47,125019,354150,0.969,-0.214,0.166,0.3,0,-3.5,-3.2,31.3,-12.4,0.334604938,0.49775689,-0.411664174,0.68611713
48,126668,354150,0.969,-0.214,0.166,0.3,0,-3.5,-3.2,31.3,-12.4,0.334604938,0.49775689,-0.411664174,0.68611713
49,130577,354150,0.969,-0.214,0.166,0.6,0.1,-3.3,-3.3,31.4,-14.1,0.334635456,0.497787408,-0.411603137,0.686086612
50,132824,354150,0.965,-0.213,0.162,0.9,0.2,-3,-3.3,31.4,-14.1,0.334696493,0.497817927,-0.411572619,0.686086612
51,135207,354160,0.969,-0.206,0.162,1.4,0.4,-2.6,-3.3,31.4,-14.1,0.33475753,0.497878964,-0.411450545,0.686086612
52,137995,354160,0.969,-0.206,0.162,1.4,0.4,-2.6,-3.3,31.4,-14.1,0.33475753,0.497878964,-0.411450545,0.686086612
53,139934,354160,0.973,-0.206,0.162,1.6,0.6,-2.5,-3.8,31.2,-13.6,0.334788049,0.497909482,-0.411389508,0.686086612
54,141600,354160,0.969,-0.206,0.158,1.8,0.8,-2.3,-3.8,31.2,-13.6,0.334788049,0.497940001,-0.411328471,0.686086612
55,146361,354170,0.976,-0.198,0.158,2.3,1.2,-2.2,-3.8,31.2,-13.6,0.334849086,0.497970519,-0.411206397,0.68611713
56,146859,354170,0.976,-0.198,0.158,2.3,1.2,-2.2,-3.8,31.2,-13.6,0.334849086,0.497970519,-0.411206397,0.68611713
57,149933,354170,0.973,-0.202,0.158,2.6,1.4,-2.1,-3.3,31.1,-14.1,0.334849086,0.497970519,-0.411114841,0.686147649
58,151749,354170,0.973,-0.194,0.162,2.7,1.5,-2.1,-3.3,31.1,-14.1,0.334879604,0.498001038,-0.411053804,0.686178167
59,154124,354180,0.976,-0.198,0.162,2.8,1.6,-2,-3.3,31.1,-14.1,0.334879604,0.498001038,-0.410962249,0.686208686
60,156728,354180,0.965,-0.198,0.162,3,1.7,-2,-3.3,31.1,-14.1,0.334910123,0.498031556,-0.410901212,0.686239204
61,160385,354180,0.965,-0.198,0.162,3,1.7,-2,-3.3,31.1,-14.1,0.334910123,0.498031556,-0.410901212,0.686239204
62,162611,354180,0.965,-0.198,0.158,3.1,1.9,-1.8,-3.5,31,-15,0.335154271,0.498336741,-0.410565508,0.686056093
63,164483,354190,0.961,-0.198,0.158,3,2.1,-1.8,-3.5,31,-15,0.33518479,0.498336741,-0.410504471,0.68611713
64,166775,354190,0.965,-0.202,0.162,2.8,2.3,-1.6,-3.5,31,-15,0.33518479,0.498336741,-0.410412915,0.686147649
65,169109,354190,0.965,-0.198,0.162,2.7,2.4,-1.6,-3.5,31,-15,0.335215308,0.498336741,-0.41032136,0.686178167
66,172904,354190,0.961,-0.202,0.162,2.5,2.4,-1.5,-3.4,31.1,-15.3,0.335245827,0.498336741,-0.410260323,0.686208686
67,175099,354200,0.957,-0.206,0.158,2.4,2.5,-1.5,-3.4,31.1,-15.3,0.335245827,0.498336741,-0.410199286,0.686269723
68,177297,354200,0.953,-0.209,0.162,2.2,2.5,-1.5,-3.4,31.1,-15.3,0.335276345,0.498336741,-0.41010773,0.686300241
69,180422,354200,0.961,-0.206,0.158,2,2.5,-1.4,-3.4,31.1,-15.3,0.335306864,0.498306223,-0.410046693,0.68633076
70,182653,354200,0.953,-0.205,0.162,1.7,2.6,-1.2,-3.4,31.2,-14.6,0.335306864,0.498306223,-0.409985656,0.686361278
71,184642,354210,0.957,-0.202,0.162,1.6,2.6,-1,-3.4,31.2,-14.6,0.335337382,0.498275704,-0.409955138,0.686391797
72,186951,354210,0.953,-0.205,0.159,1.3,2.7,-0.8,-3.4,31.2,-14.6,0.335367901,0.498275704,-0.409894101,0.686422315
73,189130,354210,0.949,-0.205,0.151,1,2.7,-0.6,-3.4,31.2,-14.6,0.335398419,0.498245186,-0.409863582,0.686483352
74,192983,354210,0.953,-0.209,0.159,0.7,2.7,-0.5,-3.4,31.3,-15.1,0.335398419,0.498214667,-0.409802545,0.686513871
75,194476,354220,0.949,-0.213,0.163,0.5,2.7,-0.4,-3.4,31.3,-15.1,0.335428938,0.498184149,-0.409772027,0.686544389
76,197596,354220,0.953,-0.217,0.162,0.3,2.7,-0.4,-3.4,31.3,-15.1,0.335459456,0.498123112,-0.409741508,0.686574908
77,200486,354220,0.957,-0.209,0.162,0.2,2.6,-0.3,-3.4,31.3,-15.1,0.335489975,0.498092593,-0.40971099,0.686605426
78,202017,354220,0.957,-0.217,0.162,0.1,2.1,-0.2,-3.5,31.2,-14.2,0.335520493,0.498062075,-0.40971099,0.686605426
79,205291,354230,0.953,-0.221,0.162,0.1,2.1,-0.2,-3.5,31.2,-14.2,0.335520493,0.498031556,-0.409680471,0.686635945
80,207260,354230,0.953,-0.213,0.162,0.1,1.8,-0.1,-3.5,31.2,-14.2,0.335551012,0.498031556,-0.409649953,0.686666463
81,211227,354230,0.953,-0.209,0.162,0.1,1.6,0,-3.5,31.2,-14.2,0.335551012,0.498001038,-0.409649953,0.686666463
82,212927,354230,0.953,-0.209,0.162,0.1,1.6,0,-3.5,31.2,-14.2,0.335551012,0.498001038,-0.409649953,0.686666463
83,214147,354240,0.953,-0.217,0.166,0.2,1.3,0,-3.3,30.9,-15.3,0.335612049,0.498062075,-0.409588916,0.686605426
84,217455,354240,0.953,-0.213,0.17,0.4,1.3,0,-3.3,30.9,-15.3,0.335642567,0.498062075,-0.409588916,0.686635945
85,219407,354240,0.957,-0.213,0.17,0.4,1.3,0,-3.3,30.9,-15.3,0.335642567,0.498031556,-0.409558397,0.686666463
86,221673,354240,0.957,-0.213,0.166,0.5,1.2,0.1,-3.3,30.9,-15.3,0.335642567,0.498031556,-0.409558397,0.686666463
87,225199,354250,0.957,-0.209,0.162,0.6,1.1,0.2,-3.4,31.5,-13.1,0.335642567,0.498001038,-0.409527879,0.686696982
88,227135,354250,0.957,-0.209,0.162,0.6,1.1,0.2,-3.4,31.5,-13.1,0.335642567,0.498001038,-0.409527879,0.6867275
89,230336,354250,0.961,-0.206,0.162,0.7,1,0.2,-3.4,31.5,-13.1,0.335642567,0.497970519,-0.40949736,0.6867275
90,232567,354250,0.957,-0.205,0.174,0.8,1,0.2,-3.4,31.5,-13.1,0.335642567,0.497970519,-0.409466842,0.686758019
91,234882,354260,0.961,-0.209,0.17,0.9,0.8,0.6,-3.4,30.4,-15.1,0.335612049,0.497970519,-0.409466842,0.686788537
92,236880,354260,0.957,-0.205,0.17,0.9,0.8,0.6,-3.4,30.4,-15.1,0.335612049,0.497940001,-0.409466842,0.686819056
93,239152,354260,0.957,-0.206,0.166,0.9,0.7,0.7,-3.4,30.4,-15.1,0.33558153,0.497940001,-0.409436323,0.686819056
94,241573,354260,0.957,-0.205,0.17,0.9,0.7,0.9,-3.4,30.4,-15.1,0.33558153,0.497940001,-0.409436323,0.686849574
95,246032,354270,0.957,-0.206,0.166,0.8,0.5,0.8,-3.2,30.2,-15,0.335551012,0.497909482,-0.409436323,0.686880093
96,248242,354270,0.957,-0.198,0.166,0.7,0.2,0.7,-3.2,30.2,-15,0.335551012,0.497909482,-0.409436323,0.686880093
97,250779,354270,0.957,-0.202,0.17,0.7,0.1,0.7,-3.2,30.2,-15,0.335520493,0.497909482,-0.409405805,0.686910611
98,252656,354270,0.957,-0.194,0.166,0.6,0,0.8,-3.2,30.2,-15,0.335489975,0.497909482,-0.409405805,0.686910611
99,254144,354280,0.953,-0.198,0.166,0.6,0,1,-3.5,31,-15.1,0.335489975,0.497909482,-0.409405805,0.68694113
100,256955,354280,0.953,-0.198,0.166,0.6,0,1,-3.5,31,-15.1,0.335459456,0.497878964,-0.409405805,0.68694113
101,260622,354280,0.953,-0.194,0.174,0.4,0,1.1,-3.5,31,-15.1,0.335428938,0.497878964,-0.409436323,0.68694113
102,262519,354280,0.957,-0.198,0.166,0.4,0.1,1.1,-3.5,31,-15.1,0.335428938,0.497878964,-0.409436323,0.686971648
103,264855,354290,0.957,-0.198,0.166,0.4,0.1,1.1,-3.5,31,-15.1,0.335428938,0.497878964,-0.409436323,0.686971648
104,267349,354290,0.953,-0.198,0.166,0.4,0.3,1,-3.5,29.7,-15.3,0.335703604,0.498123112,-0.40910062,0.686849574
105,270546,354290,0.949,-0.194,0.166,0.4,0.4,0.9,-3.5,29.7,-15.3,0.335703604,0.498092593,-0.40910062,0.686849574
106,273136,354290,0.949,-0.198,0.163,0.3,0.3,0.9,-3.5,29.7,-15.3,0.335673086,0.498092593,-0.409131138,0.686880093
107,275176,354300,0.945,-0.201,0.159,0.2,0.2,1,-3.5,29.7,-15.3,0.335673086,0.498092593,-0.409131138,0.686880093
108,277344,354300,0.953,-0.202,0.159,0,0.3,1.1,-3.1,32.3,-13.1,0.335642567,0.498062075,-0.409131138,0.686880093
109,279405,354300,0.949,-0.205,0.163,0,0.4,1.1,-3.1,32.3,-13.1,0.335642567,0.498062075,-0.409131138,0.686910611
110,281549,354300,0.949,-0.205,0.159,-0.1,0.3,1.1,-3.1,32.3,-13.1,0.335612049,0.498001038,-0.409161657,0.68694113
111,285621,354310,0.949,-0.205,0.159,-0.1,0.3,1.1,-3.1,32.3,-13.1,0.335612049,0.498001038,-0.409161657,0.68694113
112,287909,354310,0.949,-0.209,0.163,-0.2,0.3,1.1,-3.5,30.5,-15.3,0.335612049,0.498001038,-0.409192175,0.68694113
113,289226,354310,0.949,-0.209,0.159,-0.3,0.2,0.9,-3.5,30.5,-15.3,0.33558153,0.497970519,-0.409192175,0.68694113
114,292766,354310,0.953,-0.209,0.155,-0.6,0.2,0.9,-3.5,30.5,-15.3,0.33558153,0.497940001,-0.409222694,0.686971648
115,295120,354320,0.953,-0.209,0.155,-0.6,0.2,0.9,-3.5,30.5,-15.3,0.33558153,0.497940001,-0.409222694,0.686971648
116,297257,354320,0.953,-0.209,0.162,-0.7,0.1,1,-3.7,30.7,-15.6,0.33558153,0.497940001,-0.409253212,0.686971648
117,300391,354320,0.957,-0.209,0.166,-0.8,0,1.1,-3.7,30.7,-15.6,0.33558153,0.497909482,-0.409283731,0.686971648
118,303252,354320,0.957,-0.209,0.166,-1,-0.3,1.2,-3.7,30.7,-15.6,0.335551012,0.497878964,-0.409344768,0.68694113
119,306172,354330,0.957,-0.209,0.166,-1,-0.3,1.2,-3.7,30.7,-15.6,0.335551012,0.497878964,-0.409344768,0.68694113
120,308447,354330,0.953,-0.209,0.162,-1,-0.3,1.2,-3.8,30.8,-15.5,0.335551012,0.497878964,-0.409375286,0.68694113
121,311161,354330,0.961,-0.206,0.166,-1,-0.2,1.3,-3.8,30.8,-15.5,0.335520493,0.497848445,-0.409436323,0.68694113
122,311587,354330,0.957,-0.206,0.166,-1.1,-0.2,1.3,-3.8,30.8,-15.5,0.335520493,0.497817927,-0.409466842,0.68694113
123,315471,354340,0.957,-0.206,0.166,-1.1,-0.2,1.3,-3.8,30.8,-15.5,0.335520493,0.497817927,-0.409466842,0.68694113
124,317614,354340,0.957,-0.206,0.166,-1.1,-0.2,1.3,-3.8,30.8,-15.5,0.335520493,0.497817927,-0.409466842,0.68694113
125,320162,354340,0.961,-0.206,0.174,-1.1,-0.4,1.3,-3.6,31.4,-15.9,0.335642567,0.497970519,-0.409344768,0.686819056
126,321864,354340,0.961,-0.206,0.17,-1.1,-0.8,1.4,-3.6,31.4,-15.9,0.335612049,0.497970519,-0.409405805,0.686819056
127,325194,354350,0.957,-0.205,0.17,-1.1,-0.8,1.4,-3.6,31.4,-15.9,0.335612049,0.497940001,-0.409466842,0.686788537
128,327478,354350,0.957,-0.205,0.17,-1.1,-0.8,1.4,-3.6,31.4,-15.9,0.335612049,0.497940001,-0.409466842,0.686788537
129,330040,354350,0.957,-0.202,0.166,-1.3,-0.7,1.5,-3.2,31.6,-14.3,0.33558153,0.497940001,-0.40949736,0.686788537
130,331585,354350,0.961,-0.206,0.166,-1.5,-0.4,1.6,-3.2,31.6,-14.3,0.33558153,0.497909482,-0.409588916,0.686788537
131,335149,354360,0.961,-0.198,0.174,-1.5,-0.4,1.6,-3.2,31.6,-14.3,0.335551012,0.497878964,-0.409649953,0.686758019
132,336863,354360,0.961,-0.198,0.174,-1.5,-0.4,1.6,-3.2,31.6,-14.3,0.335551012,0.497878964,-0.409649953,0.686758019
133,339197,354360,0.957,-0.198,0.166,-1.4,-0.4,1.3,-3.3,31.2,-14.5,0.335551012,0.497848445,-0.40971099,0.686758019
134,343258,354360,0.957,-0.198,0.166,-1.4,-0.3,1.2,-3.3,31.2,-14.5,0.335520493,0.497848445,-0.409772027,0.6867275
135,345231,354370,0.953,-0.198,0.17,-1.4,-0.3,1.2,-3.3,31.2,-14.5,0.335520493,0.497817927,-0.409802545,0.6867275
136,347128,354370,0.953,-0.198,0.17,-1.4,-0.3,1.2,-3.3,31.2,-14.5,0.335520493,0.497817927,-0.409802545,0.6867275
137,351114,354370,0.957,-0.202,0.166,-0.9,-0.2,1.2,-3.1,31.4,-14.5,0.335520493,0.497787408,-0.409863582,0.6867275
138,353367,354370,0.957,-0.198,0.17,-0.8,0,1.2,-3.1,31.4,-14.5,0.335489975,0.497787408,-0.409894101,0.6867275
139,355616,354380,0.957,-0.198,0.17,-0.8,0,1.2,-3.1,31.4,-14.5,0.335489975,0.49775689,-0.409924619,0.6867275
140,357896,354380,0.957,-0.198,0.17,-0.8,0,1.2,-3.1,31.4,-14.5,0.335489975,0.49775689,-0.409924619,0.6867275
141,360036,354380,0.949,-0.201,0.166,-0.2,0.3,0.8,-3.1,31,-14.4,0.335459456,0.497726371,-0.409924619,0.686758019
142,362017,354380,0.953,-0.198,0.162,-0.2,0.3,0.8,-3.1,31,-14.4,0.335459456,0.497726371,-0.409955138,0.686758019
143,366184,354390,0.953,-0.202,0.166,-0.1,0.3,0.8,-3.1,31,-14.4,0.335459456,0.497695853,-0.409955138,0.686758019
144,366577,354390,0.953,-0.202,0.166,-0.1,0.3,0.8,-3.1,31,-14.4,0.335459456,0.497695853,-0.409955138,0.686758019
145,370627,354390,0.953,-0.202,0.166,-0.1,0.3,0.8,-3.1,31,-14.4,0.335459456,0.497695853,-0.409955138,0.686758019
146,372584,354390,0.949,-0.201,0.166,-0.3,0.5,0.7,-3.4,31.7,-14.2,0.335673086,0.497878964,-0.409741508,0.686666463
147,376331,354400,0.949,-0.201,0.166,-0.3,0.5,0.7,-3.4,31.7,-14.2,0.335673086,0.497848445,-0.409741508,0.686666463
148,376569,354400,0.949,-0.205,0.166,-0.4,0.7,0.8,-3.4,31.7,-14.2,0.335673086,0.497848445,-0.409772027,0.686666463
149,381075,354400,0.949,-0.201,0.166,-0.7,0.7,1,-3.3,30.4,-14.4,0.335673086,0.497817927,-0.409772027,0.686666463
150,383056,354400,0.953,-0.202,0.166,-0.7,0.7,1,-3.3,30.4,-14.4,0.335673086,0.497787408,-0.409802545,0.686696982
151,385991,354410,0.953,-0.202,0.166,-0.9,0.5,1,-3.3,30.4,-14.4,0.335673086,0.49775689,-0.409833064,0.686696982
152,388297,354410,0.949,-0.205,0.166,-1.1,0.4,1,-3.3,30.4,-14.4,0.335673086,0.497726371,-0.409833064,0.686696982
153,389752,354410,0.953,-0.205,0.162,-1.5,0.3,1,-3.3,30.4,-14.4,0.335673086,0.497695853,-0.409894101,0.686696982
154,392876,354410,0.949,-0.205,0.166,-1.5,0.3,1,-3.3,30.4,-14.4,0.335673086,0.497665334,-0.409924619,0.686696982
155,394504,354420,0.949,-0.209,0.166,-1.6,0.4,1.1,-3.3,30.4,-14.4,0.335673086,0.497665334,-0.409955138,0.686696982
156,397734,354420,0.949,-0.205,0.163,-1.8,0.5,1,-3.3,30.4,-14.4,0.335703604,0.497634816,-0.409985656,0.686696982
157,399194,354420,0.949,-0.201,0.17,-2,0.5,0.9,-3.3,30.4,-14.4,0.335703604,0.497573778,-0.410016175,0.686666463
158,403053,354420,0.957,-0.205,0.17,-2,0.5,0.9,-3.3,30.4,-14.4,0.335734123,0.49754326,-0.410046693,0.686666463
159,405318,354430,0.953,-0.205,0.17,-2.1,0.5,0.9,-3.3,30.4,-14.4,0.335734123,0.497512741,-0.41010773,0.686666463
160,407517,354430,0.953,-0.205,0.17,-2.1,0.3,0.9,-3.3,30.4,-14.4,0.335734123,0.497482223,-0.410138249,0.686666463
161,409794,354430,0.961,-0.206,0.17,-2.1,0.2,0.8,-3.3,30.4,-14.4,0.335764641,0.497451704,-0.410168767,0.686635945
162,411949,354430,0.957,-0.205,0.178,-2.1,0.2,0.8,-3.3,30.4,-14.4,0.335764641,0.497451704,-0.410199286,0.686635945
163,414250,354440,0.961,-0.206,0.174,-2.1,0.3,0.7,-3.3,30.4,-14.4,0.33579516,0.497421186,-0.410260323,0.686635945
164,416691,354440,0.965,-0.206,0.17,-2.2,0.3,0.6,-3.3,30.4,-14.4,0.335825678,0.497390667,-0.410290841,0.686605426
165,420267,354440,0.965,-0.206,0.17,-2.2,0.3,0.6,-3.3,30.4,-14.4,0.335825678,0.497390667,-0.410290841,0.686605426
166,422596,354440,0.965,-0.198,0.178,-2.3,0,0.7,-3.3,30.4,-14.4,0.336008789,0.497482223,-0.410138249,0.686544389
167,424403,354450,0.965,-0.198,0.174,-2.3,0,0.7,-3.3,30.4,-14.4,0.336008789,0.497451704,-0.410168767,0.686544389
168,427740,354450,0.969,-0.198,0.17,-2.3,-0.2,0.6,-3.3,30.4,-14.4,0.336039308,0.497421186,-0.410229804,0.686513871
169,430018,354450,0.965,-0.194,0.174,-2.3,-0.2,0.6,-3.3,30.4,-14.4,0.336039308,0.497421186,-0.410260323,0.686483352
170,432199,354450,0.969,-0.194,0.17,-2.4,-0.3,0.5,-4.7,31.7,-14.5,0.336069826,0.497390667,-0.41032136,0.686483352
171,435375,354460,0.969,-0.19,0.17,-2.6,-0.2,0.5,-4.7,31.7,-14.5,0.336069826,0.497360149,-0.410351878,0.686452834
172,437518,354460,0.969,-0.198,0.17,-2.7,-0.1,0.6,-4.7,31.7,-14.5,0.336100345,0.497360149,-0.410412915,0.686422315
173,439714,354460,0.965,-0.194,0.17,-2.9,0,0.7,-4.7,31.7,-14.5,0.336130863,0.49732963,-0.410473952,0.686422315
174,441744,354460,0.965,-0.19,0.17,-3.1,0,0.9,-4.3,32.2,-14.1,0.336130863,0.497299112,-0.410534989,0.686391797
175,444118,354470,0.969,-0.186,0.17,-3.1,0,0.8,-4.3,32.2,-14.1,0.336161382,0.497268593,-0.410565508,0.686361278
176,446741,354470,0.965,-0.182,0.166,-3.2,-0.1,0.7,-4.3,32.2,-14.1,0.3361919,0.497238075,-0.410626545,0.68633076
177,450874,354470,0.965,-0.19,0.166,-3.2,0,0.6,-4.3,32.2,-14.1,0.3361919,0.497207556,-0.410687582,0.686300241
178,452920,354470,0.965,-0.186,0.162,-3.2,0,0.4,-4.3,31.7,-14.2,0.336222419,0.497177038,-0.410748619,0.686300241
179,455160,354480,0.965,-0.186,0.166,-3.2,0.2,0.3,-4.3,31.7,-14.2,0.336252937,0.497146519,-0.410809656,0.686269723
180,457676,354480,0.965,-0.186,0.158,-3.2,0.4,0.2,-4.3,31.7,-14.2,0.336313974,0.497116001,-0.410840175,0.686239204
181,459382,354480,0.961,-0.186,0.166,-3.2,0.5,0.2,-4.3,31.7,-14.2,0.336344493,0.497085482,-0.410901212,0.686208686
182,463439,354480,0.961,-0.19,0.158,-3.3,0.6,0.3,-4.5,32.2,-14.2,0.336375011,0.497054964,-0.41093173,0.686208686
183,465719,354490,0.961,-0.182,0.162,-3.4,0.6,0.3,-4.5,32.2,-14.2,0.33640553,0.496993927,-0.410992767,0.686178167
184,467998,354490,0.965,-0.186,0.154,-3.4,0.6,0.3,-4.5,32.2,-14.2,0.33640553,0.496963408,-0.411053804,0.686147649
185,469693,354490,0.961,-0.19,0.154,-3.4,0.6,0.3,-4.5,32.2,-14.2,0.336497085,0.49693289,-0.411084323,0.686147649
186,472792,354490,0.961,-0.19,0.154,-3.4,0.6,0.3,-4.5,32.2,-14.2,0.336497085,0.49693289,-0.411084323,0.686147649
187,475280,354500,0.969,-0.19,0.146,-3.9,0.7,0.2,-4.5,32.2,-14.2,0.336832789,0.497268593,-0.410870693,0.685842463
188,476859,354500,0.961,-0.194,0.154,-4.1,0.8,0.2,-4.5,32.2,-14.2,0.336893826,0.497238075,-0.41093173,0.685811945
189,479063,354500,0.965,-0.19,0.158,-4.3,1.1,0.3,-4.5,32.2,-14.2,0.336954863,0.497177038,-0.410992767,0.685781426
190,481767,354500,0.961,-0.194,0.151,-4.5,1.3,0.3,-4.5,32.2,-14.2,0.336985382,0.497116001,-0.411053804,0.685781426
191,485314,354510,0.961,-0.194,0.154,-4.8,1.5,0.2,-3.5,31.6,-13.7,0.337046419,0.497054964,-0.411114841,0.685750908
192,487513,354510,0.969,-0.194,0.158,-5.1,1.6,0.1,-3.5,31.6,-13.7,0.337137974,0.496993927,-0.411175878,0.685720389
193,489420,354510,0.969,-0.194,0.15,-5.7,1.7,0.2,-3.5,31.6,-13.7,0.337260048,0.496871853,-0.411328471,0.685659352
194,491819,354510,0.969,-0.194,0.15,-5.7,1.7,0.2,-3.5,31.6,-13.7,0.337260048,0.496871853,-0.411328471,0.685659352
195,494407,354520,0.969,-0.194,0.154,-6,1.6,0.2,-3.1,31.6,-13.5,0.337351604,0.496780297,-0.411420026,0.685628834
196,496723,354520,0.965,-0.194,0.15,-6.3,1.6,0.1,-3.1,31.6,-13.5,0.337443159,0.49671926,-0.411481063,0.685598315
197,499391,354520,0.961,-0.198,0.158,-6.7,1.8,0.3,-3.1,31.6,-13.5,0.337595752,0.496566668,-0.411664174,0.68550676
198,502711,354520,0.961,-0.198,0.158,-6.7,1.8,0.3,-3.1,31.6,-13.5,0.337595752,0.496566668,-0.411664174,0.68550676
199,504950,354530,0.965,-0.198,0.154,-7,2,0.3,-4,31.4,-13.8,0.337687307,0.496475112,-0.41175573,0.685476241
200,506651,354530,0.969,-0.202,0.15,-7.2,2.2,0.3,-4,31.4,-13.8,0.337778863,0.496383557,-0.411877804,0.685445723
201,509125,354530,0.972,-0.206,0.154,-7.5,2,0,-4,31.4,-13.8,0.337992492,0.496200446,-0.412060915,0.685354167
202,511643,354530,0.972,-0.206,0.154,-7.5,2,0,-4,31.4,-13.8,0.337992492,0.496200446,-0.412060915,0.685354167
203,515143,354540,0.976,-0.206,0.15,-7.7,2.1,-0.1,-2.8,31.9,-13.6,0.338084048,0.49610889,-0.41215247,0.68529313
204,516862,354540,0.972,-0.206,0.15,-7.9,2.3,-0.2,-2.8,31.9,-13.6,0.338206122,0.496017335,-0.412244026,0.685262612
205,520219,354540,0.976,-0.214,0.142,-8.1,2.4,-0.2,-2.8,31.9,-13.6,0.338419752,0.495834223,-0.412457656,0.685140538
206,522360,354540,0.976,-0.214,0.142,-8.1,2.4,-0.2,-2.8,31.9,-13.6,0.338419752,0.495834223,-0.412457656,0.685140538
207,524390,354550,0.976,-0.214,0.142,-8.1,2.4,-0.2,-2.8,31.9,-13.6,0.338419752,0.495834223,-0.412457656,0.685140538
208,526752,354550,0.98,-0.214,0.142,-8.6,3,-0.3,-3.5,31.2,-14.2,0.338633381,0.496047853,-0.412549211,0.684865871
209,530334,354550,0.976,-0.21,0.146,-8.8,3.1,-0.4,-3.5,31.2,-14.2,0.338755455,0.495925779,-0.412640767,0.684804834
210,532513,354550,0.98,-0.218,0.138,-8.9,3.3,-0.5,-3.5,31.2,-14.2,0.339030122,0.495712149,-0.412854396,0.684713279
211,534079,354560,0.98,-0.218,0.138,-8.9,3.3,-0.5,-3.5,31.2,-14.2,0.339030122,0.495712149,-0.412854396,0.684713279
212,538081,354560,0.984,-0.218,0.142,-9.2,3.1,-0.9,-2.8,31.5,-14.1,0.339152196,0.495590075,-0.412945952,0.684652242
213,540203,354560,0.98,-0.218,0.138,-9.5,3.1,-1.1,-2.8,31.5,-14.1,0.339457381,0.495376446,-0.413159581,0.684530168
214,542185,354560,0.984,-0.218,0.138,-9.5,3.1,-1.1,-2.8,31.5,-14.1,0.339609973,0.49528489,-0.413281655,0.684469131
215,545457,354570,0.984,-0.218,0.138,-9.5,3.1,-1.1,-2.8,31.5,-14.1,0.339609973,0.49528489,-0.413281655,0.684469131
216,547642,354570,0.984,-0.226,0.134,-9.9,3.3,-1.3,-2.9,31.4,-14.1,0.339762566,0.495162816,-0.413373211,0.684408094
217,549108,354570,0.984,-0.226,0.134,-10.2,3.1,-1.7,-2.9,31.4,-14.1,0.34009827,0.494949187,-0.413617359,0.684286019
218,553081,354570,0.984,-0.226,0.134,-10.2,3.1,-1.7,-2.9,31.4,-14.1,0.340250862,0.494827113,-0.413708914,0.684194464
219,554538,354580,0.984,-0.226,0.134,-10.2,3.1,-1.7,-2.9,31.4,-14.1,0.340250862,0.494827113,-0.413708914,0.684194464
220,556623,354580,0.984,-0.222,0.138,-10.8,2.8,-2.2,-2.7,31.6,-14.4,0.340433973,0.494735557,-0.413830988,0.684133427
221,560080,354580,0.984,-0.222,0.138,-11.2,2.7,-2.7,-2.7,31.6,-14.4,0.340800195,0.494521928,-0.414075137,0.683950316
222,563579,354580,0.984,-0.222,0.138,-11.2,2.7,-2.7,-2.7,31.6,-14.4,0.340983306,0.494430372,-0.414197211,0.68385876
223,564093,354590,0.984,-0.222,0.138,-11.2,2.7,-2.7,-2.7,31.6,-14.4,0.340983306,0.494430372,-0.414197211,0.68385876
224,566573,354590,0.98,-0.222,0.138,-11.5,2.4,-2.9,-2.7,31.5,-13.9,0.341166417,0.494338816,-0.414319285,0.683736686
225,570919,354590,0.988,-0.214,0.138,-11.7,2.3,-3,-2.7,31.5,-13.9,0.341563158,0.494155705,-0.414532914,0.683553575
226,573099,354590,0.988,-0.214,0.138,-12.1,2.3,-3.2,-2.7,31.5,-13.9,0.341776788,0.49406415,-0.414685507,0.683431501
227,574789,354600,0.988,-0.214,0.138,-12.1,2.3,-3.2,-2.7,31.5,-13.9,0.341776788,0.49406415,-0.414685507,0.683431501
228,576766,354600,0.988,-0.214,0.138,-12.1,2.3,-3.2,-2.7,31.5,-13.9,0.341776788,0.49406415,-0.414685507,0.683431501
229,580628,354600,0.988,-0.214,0.138,-13.1,2.2,-3.5,-4.5,31.7,-14.1,0.341959899,0.494308298,-0.414929655,0.683004242
230,582380,354600,0.984,-0.21,0.138,-13.5,2.1,-3.7,-4.5,31.7,-14.1,0.342417676,0.494125187,-0.415204321,0.682760094
231,585651,354610,0.988,-0.21,0.134,-13.8,2.1,-3.7,-4.5,31.7,-14.1,0.342631306,0.494003113,-0.415356914,0.682607501
232,588089,354610,0.988,-0.21,0.134,-13.8,2.1,-3.7,-4.5,31.7,-14.1,0.342631306,0.494003113,-0.415356914,0.682607501
233,589662,354610,0.988,-0.198,0.134,-14.5,2.2,-3.7,-2.5,31.1,-13.8,0.342875454,0.493911557,-0.415509507,0.682485427
234,592819,354610,0.992,-0.198,0.134,-14.9,2.3,-3.6,-2.5,31.1,-13.8,0.343333232,0.493667409,-0.41584521,0.682210761
235,595040,354620,0.988,-0.187,0.13,-15.1,2.3,-3.7,-2.5,31.1,-13.8,0.34357738,0.493545335,-0.416028321,0.682058168
236,598170,354620,0.988,-0.187,0.13,-15.1,2.3,-3.7,-2.5,31.1,-13.8,0.34357738,0.493545335,-0.416028321,0.682058168
237,600390,354620,0.988,-0.183,0.134,-15.3,2.2,-3.4,-2.6,31.4,-13.8,0.343821528,0.49345378,-0.416211432,0.681936094
238,602466,354620,0.996,-0.175,0.134,-15.3,2.1,-3.3,-2.6,31.4,-13.8,0.344309824,0.493209632,-0.416547136,0.681630909
239,604989,354630,1.004,-0.187,0.13,-15.2,2,-3.2,-2.6,31.4,-13.8,0.344523453,0.493087558,-0.416730247,0.681508835
240,606669,354630,1.004,-0.187,0.13,-15.2,2,-3.2,-2.6,31.4,-13.8,0.344523453,0.493087558,-0.416730247,0.681508835
241,610449,354630,0.996,-0.163,0.146,-14.7,2.4,-2.5,-2.4,31.8,-13.9,0.344737083,0.492965484,-0.416913358,0.681386761
242,612755,354630,0.996,-0.152,0.138,-14.5,3,-1.9,-2.4,31.8,-13.9,0.345164342,0.492660298,-0.417249062,0.681142613
243,614355,354640,1,-0.156,0.13,-14.6,3.7,-1.4,-2.4,31.8,-13.9,0.345377972,0.492538224,-0.417432173,0.681051057
244,616593,354640,1,-0.156,0.13,-14.6,3.7,-1.4,-2.4,31.8,-13.9,0.345377972,0.492538224,-0.417432173,0.681051057
245,619725,354640,1,-0.144,0.13,-16.9,4.4,-1.6,-2.8,31.4,-13.2,0.345866268,0.492202521,-0.417798395,0.680806909
246,622782,354640,0.996,-0.144,0.126,-16.9,4.4,-1.6,-2.8,31.4,-13.2,0.346110416,0.49201941,-0.418012024,0.680654317
247,625355,354650,1.004,-0.148,0.13,-17.4,4.3,-1.7,-2.8,31.4,-13.2,0.346354564,0.491836299,-0.418225654,0.680562761
248,627461,354650,1.004,-0.148,0.13,-17.4,4.3,-1.7,-2.8,31.4,-13.2,0.346354564,0.491836299,-0.418225654,0.680562761
249,629243,354650,1.004,-0.148,0.13,-17.4,4.3,-1.7,-2.8,31.4,-13.2,0.346354564,0.491836299,-0.418225654,0.680562761
250,633146,354650,1,-0.14,0.13,-18.2,3.9,-1.7,-3.7,31.9,-13.6,0.347636341,0.492782373,-0.418042543,0.679311502
251,635047,354660,0.996,-0.144,0.138,-18.7,4.1,-1.8,-3.7,31.9,-13.6,0.347911008,0.492599261,-0.418286691,0.679189428
252,636883,354660,0.996,-0.144,0.138,-19.4,4.3,-1.9,-3.7,31.9,-13.6,0.348185675,0.49241615,-0.418530839,0.679036836
253,639129,354660,0.996,-0.144,0.138,-19.4,4.3,-1.9,-3.7,31.9,-13.6,0.348185675,0.49241615,-0.418530839,0.679036836
254,641959,354660,0.992,-0.144,0.146,-21.2,4.5,-2,-3.3,31.8,-13.6,0.348765526,0.491988891,-0.419049654,0.678731651
255,645658,354670,0.992,-0.148,0.15,-22.1,4.7,-1.9,-3.3,31.8,-13.6,0.34910123,0.491775262,-0.419293802,0.67854854
256,647315,354670,0.992,-0.148,0.15,-23,4.8,-1.6,-3.3,31.8,-13.6,0.349406415,0.491531114,-0.419598987,0.678365429
257,650147,354670,0.992,-0.148,0.15,-23,4.8,-1.6,-3.3,31.8,-13.6,0.349406415,0.491531114,-0.419598987,0.678365429
258,651944,354670,0.988,-0.144,0.158,-25,5.2,-1.2,-3.3,31.8,-13.6,0.350077822,0.491012299,-0.420239875,0.678029725
259,654278,354680,0.984,-0.147,0.158,-26.1,5.4,-1.1,-3.3,31.8,-13.6,0.350413526,0.490707114,-0.420545061,0.677816095
260,658143,354680,0.984,-0.147,0.158,-27.2,5.6,-1,-3.3,31.8,-13.6,0.350779748,0.490462966,-0.420911283,0.677632984
261,660412,354680,0.984,-0.147,0.158,-27.2,5.6,-1,-3.3,31.8,-13.6,0.350779748,0.490462966,-0.420911283,0.677632984
262,662654,354680,0.988,-0.155,0.15,-29.1,6,-0.7,-3.3,31.8,-13.6,0.351542711,0.489852596,-0.421674245,0.677205725
263,665013,354690,0.98,-0.151,0.154,-29.9,6.2,-0.6,-3.3,31.8,-13.6,0.351908933,0.489547411,-0.422040468,0.676992096
264,667338,354690,0.984,-0.159,0.146,-30.6,6.3,-0.6,-3.3,31.8,-13.6,0.352305673,0.489211707,-0.422437208,0.676747948
265,669192,354690,0.984,-0.159,0.146,-30.6,6.3,-0.6,-3.3,31.8,-13.6,0.352305673,0.489211707,-0.422437208,0.676747948
266,671559,354690,0.984,-0.151,0.15,-31.8,6.6,-0.9,-3.3,31.8,-13.6,0.353160192,0.4885403,-0.423261208,0.676320688
267,675414,354700,0.977,-0.155,0.154,-32.2,6.8,-1,-3.3,31.8,-13.6,0.353556932,0.488204596,-0.423688467,0.67607654
268,677909,354700,0.977,-0.155,0.162,-32.7,6.8,-1,-3.3,31.8,-13.6,0.353984191,0.487868892,-0.424085208,0.675832392
269,680269,354700,0.977,-0.155,0.162,-32.7,6.8,-1,-3.3,31.8,-13.6,0.353984191,0.487868892,-0.424085208,0.675832392
270,682718,354700,0.977,-0.155,0.162,-32.7,6.8,-1,-3.3,31.8,-13.6,0.353984191,0.487868892,-0.424085208,0.675832392
271,685777,354710,0.961,-0.147,0.162,-34.3,6.3,-0.4,-3.4,32.2,-13.3,0.355265969,0.487624744,-0.424573504,0.675038911
272,688657,354710,0.961,-0.143,0.17,-34.8,5.9,0,-3.4,32.2,-13.3,0.355693228,0.487289041,-0.4250618,0.674764245
273,690827,354710,0.953,-0.147,0.166,-35.3,5.7,0.2,-3.4,32.2,-13.3,0.356120487,0.486922819,-0.425519578,0.674489578
274,693155,354710,0.953,-0.147,0.166,-35.3,5.7,0.2,-3.4,32.2,-13.3,0.356120487,0.486922819,-0.425519578,0.674489578
275,695157,354720,0.945,-0.131,0.17,-36,5.5,0.4,-3.6,32.2,-11.5,0.356975005,0.486190374,-0.42649617,0.673970763
276,697444,354720,0.942,-0.127,0.178,-36.3,5.5,0.7,-3.6,32.2,-11.5,0.357402264,0.485824152,-0.427014985,0.673696097
277,699433,354720,0.938,-0.131,0.174,-36.7,5.6,1,-3.6,32.2,-11.5,0.357829524,0.485427412,-0.427503281,0.67342143
278,701852,354720,0.938,-0.131,0.174,-36.7,5.6,1,-3.6,32.2,-11.5,0.357829524,0.485427412,-0.427503281,0.67342143
279,705902,354730,0.934,-0.123,0.167,-37.6,6,1,-3.4,32.4,-11.1,0.35871456,0.484664449,-0.42854091,0.672841578
280,708007,354730,0.934,-0.123,0.17,-37.9,6.1,0.9,-3.4,32.4,-11.1,0.35914182,0.484267708,-0.429059725,0.672566912
281,710335,354730,0.926,-0.119,0.167,-38,6.1,0.8,-3.4,32.4,-11.1,0.359599597,0.483870968,-0.429578539,0.672292245
282,712544,354730,0.926,-0.119,0.167,-38,6.1,0.8,-3.4,32.4,-11.1,0.359599597,0.483870968,-0.429578539,0.672292245
283,714438,354740,0.922,-0.123,0.159,-38.3,6.4,0.8,-3.8,32.3,-10.7,0.360515152,0.483046968,-0.430616169,0.671712394
284,716640,354740,0.922,-0.123,0.163,-38.6,6.6,0.9,-3.8,32.3,-10.7,0.360942412,0.482650227,-0.431134983,0.671437727
285,720663,354740,0.914,-0.123,0.163,-38.9,6.8,1.1,-3.8,32.3,-10.7,0.361430708,0.482222968,-0.431684317,0.671132542
286,722881,354740,0.914,-0.123,0.163,-38.9,6.8,1.1,-3.8,32.3,-10.7,0.361430708,0.482222968,-0.431684317,0.671132542
287,725158,354750,0.906,-0.119,0.159,-39.6,7.1,1.3,-3.8,32.3,-10.7,0.362346263,0.48136845,-0.432752464,0.67055269
288,727362,354750,0.906,-0.119,0.159,-40,7.1,1.5,-3.8,32.3,-10.7,0.362804041,0.480941191,-0.433301798,0.670278024
289,729416,354750,0.906,-0.115,0.159,-40.4,6.9,1.7,-3.8,32.3,-10.7,0.363261818,0.480513932,-0.433851131,0.669972839
290,731722,354750,0.906,-0.115,0.159,-40.4,6.9,1.7,-3.8,32.3,-10.7,0.363261818,0.480513932,-0.433851131,0.669972839
291,734885,354760,0.906,-0.115,0.159,-40.4,6.9,1.7,-3.8,32.3,-10.7,0.363261818,0.480513932,-0.433851131,0.669972839
292,737985,354760,0.91,-0.115,0.151,-41.6,6.4,2,-2.9,33.1,-11.6,0.364421522,0.479812006,-0.434766686,0.669240394
293,739390,354760,0.906,-0.115,0.155,-42,6.4,2.2,-2.9,33.1,-11.6,0.364909818,0.479354228,-0.435346538,0.668935209
294,742825,354760,0.91,-0.119,0.155,-42.4,6.3,2.3,-2.9,33.1,-11.6,0.365367595,0.478896451,-0.435956908,0.668630024
295,744276,354770,0.91,-0.115,0.155,-42.6,6.3,2.5,-3,32.9,-11.3,0.365825373,0.478438673,-0.43653676,0.668294321
296,747667,354770,0.91,-0.115,0.151,-42.9,6.2,2.7,-3,32.9,-11.3,0.366313669,0.477980895,-0.43714713,0.667958617
297,749764,354770,0.906,-0.115,0.151,-43.2,6.2,2.7,-3,32.9,-11.3,0.366771447,0.477523118,-0.4377575,0.667653432
298,751899,354770,0.91,-0.111,0.151,-43.5,6.4,2.8,-3,32.9,-11.3,0.367259743,0.477034822,-0.43836787,0.667317728
299,754284,354780,0.914,-0.115,0.151,-43.8,6.4,2.8,-3,33.1,-11.6,0.367717521,0.476577044,-0.43897824,0.666982025
300,756531,354780,0.918,-0.111,0.151,-44.3,6.5,3,-3,33.1,-11.6,0.368205817,0.476088748,-0.439619129,0.666646321
301,761170,354780,0.918,-0.115,0.151,-44.7,6.6,3.1,-3,33.1,-11.6,0.368694113,0.475600452,-0.440260018,0.666310617
302,763296,354780,0.918,-0.115,0.155,-45.2,6.9,3.2,-3,33.1,-11.6,0.369182409,0.475081637,-0.440870388,0.665974914
303,765087,354790,0.918,-0.111,0.151,-45.7,7.1,3.3,-3.2,33.2,-11.9,0.369670705,0.474623859,-0.441511277,0.66563921
304,766947,354790,0.922,-0.115,0.143,-46.3,7.4,3.3,-3.2,33.2,-11.9,0.370159001,0.474105045,-0.442182684,0.665303507
305,771008,354790,0.922,-0.123,0.147,-46.9,7.6,3.4,-3.2,33.2,-11.9,0.370677816,0.47358623,-0.442823572,0.664967803
306,773432,354790,0.926,-0.119,0.139,-47.6,7.9,3.3,-3.2,33.2,-11.9,0.371196631,0.473036897,-0.44349498,0.664601581
307,775636,354800,0.926,-0.127,0.143,-48.3,8.2,3.4,-3.5,33.2,-11.8,0.371745964,0.472487564,-0.444166387,0.664265877
308,777890,354800,0.934,-0.131,0.147,-49.1,8.7,3.3,-3.5,33.2,-11.8,0.372264779,0.471938231,-0.444837794,0.663899655
309,780122,354800,0.934,-0.131,0.139,-49.9,9.3,3.3,-3.5,33.2,-11.8,0.37284463,0.471358379,-0.445509201,0.663533433
310,782282,354800,0.934,-0.143,0.135,-50.7,9.8,3.2,-3.5,33.2,-11.8,0.373393963,0.470778527,-0.446211127,0.663167211
311,784296,354810,0.934,-0.143,0.135,-50.7,9.8,3.2,-3.5,33.2,-11.8,0.373393963,0.470778527,-0.446211127,0.663167211
312,786654,354810,0.941,-0.151,0.135,-52.2,10.9,2.9,-2.9,33.6,-11.6,0.374462111,0.470686972,-0.446485794,0.662465285
313,790344,354810,0.945,-0.151,0.131,-52.9,11.3,2.6,-2.9,33.6,-11.6,0.375072481,0.470046083,-0.447157201,0.662068545
314,791873,354810,0.945,-0.166,0.131,-53.7,11.7,2.4,-2.9,33.6,-11.6,0.37571337,0.469435713,-0.447889645,0.661702322
315,795076,354820,0.945,-0.166,0.131,-54.3,11.9,2,-2.9,33.6,-11.6,0.376354259,0.468794824,-0.448591571,0.661305582
316,797337,354820,0.953,-0.186,0.131,-54.9,12,1.7,-3.2,33.8,-10.9,0.376995148,0.468153935,-0.449293497,0.660908841
317,800361,354820,0.953,-0.186,0.131,-55.6,11.9,1.6,-3.2,33.8,-10.9,0.377666555,0.467482528,-0.450025941,0.660481582
318,802707,354820,0.957,-0.19,0.131,-56.2,11.7,1.4,-3.2,33.8,-10.9,0.378337962,0.466841639,-0.450727866,0.660054323
319,804816,354830,0.957,-0.202,0.135,-56.9,11.5,1.2,-3.2,33.8,-10.9,0.379009369,0.466200751,-0.451490829,0.659627064
320,807913,354830,0.961,-0.21,0.131,-57.3,11.2,1.1,-3.1,33.6,-11.5,0.379680776,0.465559862,-0.452223273,0.659199805
321,809338,354830,0.965,-0.214,0.127,-57.5,11,0.9,-3.1,33.6,-11.5,0.380382702,0.464918973,-0.452955718,0.658742027
322,812687,354830,0.972,-0.218,0.131,-57.6,10.8,0.7,-3.1,33.6,-11.5,0.381054109,0.464247566,-0.45371868,0.658284249
323,815031,354840,0.976,-0.226,0.127,-57.6,10.8,0.7,-3.1,33.6,-11.5,0.381725517,0.463606677,-0.454451125,0.657826472
324,817250,354840,0.972,-0.237,0.131,-57.9,10.2,0.2,-3,33.8,-11,0.382427442,0.462996307,-0.455214087,0.657368694
325,820293,354840,0.972,-0.237,0.131,-58,10,0,-3,33.8,-11,0.383098849,0.462355419,-0.455946532,0.656880398
326,822543,354840,0.972,-0.241,0.131,-58.2,9.7,-0.1,-3,33.8,-11,0.383800775,0.461745048,-0.456709494,0.656392102
327,824819,354850,0.972,-0.249,0.127,-58.2,9.7,-0.1,-3,33.8,-11,0.384472182,0.46110416,-0.457472457,0.655934324
328,826884,354850,0.976,-0.257,0.123,-58.6,9.3,-0.4,-3,33.8,-8.8,0.385174108,0.460493789,-0.458204901,0.65541551
329,829145,354850,0.976,-0.257,0.123,-58.6,9.3,-0.4,-3,33.8,-8.8,0.385174108,0.460493789,-0.458204901,0.65541551
330,832228,354850,0.972,-0.268,0.127,-58.8,9,-0.7,-3,33.8,-8.8,0.386547441,0.459242531,-0.459730827,0.654408399
331,835271,354860,0.968,-0.276,0.127,-58.8,9,-0.7,-3,33.8,-8.8,0.387249367,0.45863216,-0.460493789,0.653920103
332,837510,354860,0.968,-0.276,0.127,-58.8,9,-0.7,-3,33.8,-8.8,0.387249367,0.45863216,-0.460493789,0.653920103
333,839700,354860,0.968,-0.284,0.119,-58.7,8.6,-1.1,-3.8,33.9,-10.3,0.387859737,0.458052309,-0.461348308,0.653309732
334,842829,354860,0.964,-0.288,0.123,-58.7,8.5,-1.3,-3.8,33.9,-10.3,0.388531144,0.457472457,-0.46211127,0.652821436
335,844975,354870,0.96,-0.296,0.119,-58.8,8.6,-1.5,-3.8,33.9,-10.3,0.38923307,0.456862087,-0.462843715,0.652302622
336,847583,354870,0.96,-0.3,0.119,-58.8,8.6,-1.5,-3.8,33.9,-10.3,0.389934996,0.456251717,-0.463606677,0.651783807
337,849411,354870,0.956,-0.3,0.116,-58.5,8.7,-1.8,-3.5,33.5,-10.1,0.390636921,0.455641346,-0.464339122,0.651264992
338,851689,354870,0.956,-0.3,0.119,-58.1,8.5,-1.9,-3.5,33.5,-10.1,0.391308329,0.455030976,-0.465071566,0.650746178
339,855675,354880,0.952,-0.311,0.116,-57.6,8.3,-2.2,-3.5,33.5,-10.1,0.392010254,0.454451125,-0.46580401,0.650196844
340,857838,354880,0.952,-0.311,0.116,-57.6,8.3,-2.2,-3.5,33.5,-10.1,0.392010254,0.454451125,-0.46580401,0.650196844
341,860163,354880,0.952,-0.311,0.116,-57.6,8.3,-2.2,-3.5,33.5,-10.1,0.392010254,0.454451125,-0.46580401,0.650196844
342,862394,354880,0.952,-0.311,0.116,-57.6,8.3,-2.2,-3.5,33.5,-10.1,0.392010254,0.454451125,-0.46580401,0.650196844
343,864453,354890,0.952,-0.311,0.116,-57.6,8.3,-2.2,-3.5,33.5,-10.1,0.392010254,0.454451125,-0.46580401,0.650196844
344,866773,354890,0.948,-0.323,0.116,-55.9,8.3,-3.3,-3.3,33.3,-9.7,0.395428327,0.451582385,-0.46928312,0.647602771
345,870617,354890,0.948,-0.323,0.116,-55.9,8.3,-3.3,-3.3,33.3,-9.7,0.395428327,0.451582385,-0.46928312,0.647602771
346,872894,354890,0.941,-0.327,0.12,-55,8.6,-4.4,-3.3,32.9,-9.3,0.396832179,0.450483718,-0.470625935,0.646565142
347,875132,354900,0.941,-0.327,0.12,-55,8.6,-4.4,-3.3,32.9,-9.3,0.396832179,0.450483718,-0.470625935,0.646565142
348,877297,354900,0.944,-0.338,0.112,-54.7,8.6,-4.8,-3.3,32.9,-9.3,0.398205512,0.449385052,-0.471938231,0.645496994
349,879461,354900,0.944,-0.346,0.108,-54.6,8.7,-5.7,-3.2,35.4,-7.4,0.398907437,0.448835719,-0.472548601,0.645008698
350,881676,354900,0.948,-0.35,0.116,-54.6,8.7,-6.1,-3.2,35.4,-7.4,0.399639882,0.448316904,-0.473189489,0.644459365
351,885621,354910,0.948,-0.35,0.116,-54.6,8.7,-6.1,-3.2,35.4,-7.4,0.399639882,0.448316904,-0.473189489,0.644459365
352,887913,354910,0.952,-0.358,0.116,-54.5,8.6,-6.5,-3.2,35.4,-7.4,0.401043733,0.447248756,-0.474440748,0.643391217
353,890132,354910,0.952,-0.358,0.116,-54.5,8.6,-6.5,-3.2,35.4,-7.4,0.401043733,0.447248756,-0.474440748,0.643391217
354,892536,354910,0.956,-0.378,0.12,-54.6,8.4,-7.1,-3.6,34,-9.6,0.400982696,0.446333201,-0.475936155,0.642994476
355,895193,354920,0.964,-0.386,0.123,-54.7,8.2,-7.2,-3.6,34,-9.6,0.401684622,0.445783868,-0.476546525,0.642445143
356,897394,354920,0.964,-0.386,0.127,-54.7,8.2,-7.2,-3.6,34,-9.6,0.402417066,0.445295572,-0.477187414,0.64189581
357,899378,354920,0.964,-0.386,0.127,-54.7,8.2,-7.2,-3.6,34,-9.6,0.402417066,0.445295572,-0.477187414,0.64189581
358,902271,354920,0.964,-0.386,0.127,-54.7,8.2,-7.2,-3.6,34,-9.6,0.402417066,0.445295572,-0.477187414,0.64189581
359,905510,354930,0.976,-0.405,0.131,-54.9,8,-7.5,-3.7,34,-9.8,0.40458388,0.443739128,-0.479049043,0.640217292
360,907069,354930,0.968,-0.405,0.135,-54.9,8,-7.5,-3.7,34,-9.8,0.405316324,0.443220313,-0.479659413,0.63963744
361,909932,354930,0.968,-0.405,0.135,-54.9,8,-7.5,-3.7,34,-9.8,0.405316324,0.443220313,-0.479659413,0.63963744
362,913010,354930,0.972,-0.421,0.139,-54.8,7.7,-7,-3.7,34,-9.8,0.406720176,0.442182684,-0.480910672,0.638508255
363,914297,354940,0.972,-0.421,0.143,-54.5,7.8,-6.8,-3.7,34,-9.8,0.407422102,0.441663869,-0.481551561,0.637958922
364,917517,354940,0.972,-0.421,0.143,-54.5,7.8,-6.8,-3.7,34,-9.8,0.407422102,0.441663869,-0.481551561,0.637958922
365,920626,354940,0.968,-0.432,0.155,-54.2,7.9,-6.6,-3.7,34,-9.8,0.408825953,0.44062624,-0.48280282,0.636829737
366,922863,354940,0.96,-0.444,0.151,-53.1,8.4,-6.3,-3.7,34,-9.8,0.409527879,0.440076907,-0.483382672,0.636310923
367,924357,354950,0.964,-0.448,0.155,-53.1,8.4,-6.3,-3.7,34,-9.8,0.410199286,0.439558092,-0.483993042,0.635761589
368,927525,354950,0.956,-0.452,0.155,-52.5,8.6,-6.2,-3.7,34,-9.8,0.410901212,0.439039277,-0.484572893,0.635242775
369,930479,354950,0.96,-0.46,0.163,-51.9,8.7,-6.1,-3.7,34,-9.8,0.411572619,0.438520463,-0.485152745,0.63472396
370,931859,354950,0.944,-0.479,0.159,-50.3,9.4,-5.9,-3.1,35.5,-6.3,0.412244026,0.437971129,-0.485732597,0.634235664
371,934858,354960,0.94,-0.483,0.163,-50.3,9.4,-5.9,-3.1,35.5,-6.3,0.412884915,0.437482833,-0.48628193,0.633716849
372,937908,354960,0.933,-0.494,0.163,-48.8,10.2,-5.8,-3.1,35.5,-6.3,0.414197211,0.436445204,-0.487350078,0.632770775
373,939245,354960,0.933,-0.494,0.163,-48.8,10.2,-5.8,-3.1,35.5,-6.3,0.414197211,0.436445204,-0.487350078,0.632770775
374,942400,354960,0.933,-0.494,0.163,-48.8,10.2,-5.8,-3.1,35.5,-6.3,0.414197211,0.436445204,-0.487350078,0.632770775
375,945459,354970,0.913,-0.514,0.152,-46.7,10.8,-5.8,-3.1,35.5,-6.3,0.414288766,0.435346538,-0.488357189,0.632709738
376,946939,354970,0.913,-0.521,0.156,-46.7,10.8,-5.8,-3.1,35.5,-6.3,0.414929655,0.434827723,-0.488845485,0.632251961
377,949936,354970,0.905,-0.529,0.16,-45.9,10.9,-5.6,-3.1,35.5,-6.3,0.415570544,0.434308908,-0.489303262,0.631824702
378,953086,354970,0.901,-0.541,0.148,-44.8,10.9,-5.4,-3.1,35.5,-6.3,0.416180914,0.433820612,-0.489791559,0.631397443
379,955244,354980,0.897,-0.541,0.148,-42.2,10.8,-5.1,-3.1,35.3,-6.9,0.416760765,0.433332316,-0.490218818,0.631000702
380,956592,354980,0.893,-0.548,0.145,-42.2,10.8,-5.1,-3.1,35.3,-6.9,0.417340617,0.43284402,-0.490646077,0.630603961
381,959868,354980,0.893,-0.552,0.141,-40.7,10.7,-5,-3.1,35.3,-6.9,0.417920469,0.432386242,-0.491073336,0.630207221
382,962926,354980,0.889,-0.568,0.145,-39.1,10.5,-4.8,-3.1,35.3,-6.9,0.418439283,0.431928465,-0.491470077,0.629840999
383,964238,354990,0.893,-0.576,0.133,-35.6,10.2,-4.3,-3.1,35.7,-6.6,0.418988617,0.431531724,-0.491836299,0.629535813
384,967404,354990,0.893,-0.576,0.141,-35.6,10.2,-4.3,-3.1,35.7,-6.6,0.419476913,0.431104465,-0.492172002,0.62920011
385,970543,354990,0.897,-0.592,0.133,-33.8,9.9,-4.1,-3.1,35.7,-6.6,0.419965209,0.430707724,-0.492507706,0.628894925
386,972749,354990,0.897,-0.591,0.141,-31.9,9.5,-3.8,-3.1,35.7,-6.6,0.420392468,0.430310984,-0.492812891,0.62858974
387,974909,355000,0.901,-0.599,0.137,-28,8.8,-3.3,-3.1,35.7,-6.6,0.420819727,0.42997528,-0.493087558,0.628345592
388,977950,355000,0.913,-0.607,0.137,-28,8.8,-3.3,-3.1,35.7,-6.6,0.421216468,0.429639576,-0.493362224,0.628101444
389,979612,355000,0.913,-0.611,0.14,-26.1,8.4,-2.9,-3.1,35.7,-6.6,0.421613208,0.429303873,-0.493636891,0.627857295
390,982534,355000,0.92,-0.611,0.144,-24.2,7.9,-2.4,-3.1,35.7,-6.6,0.421948912,0.428998688,-0.49385052,0.627674184
391,985543,355010,0.92,-0.627,0.144,-20.7,7,-1.3,-3.6,35.3,-5.9,0.422254097,0.428724021,-0.49406415,0.627491073
392,986940,355010,0.924,-0.631,0.148,-20.7,7,-1.3,-3.6,35.3,-5.9,0.422528764,0.428449355,-0.494277779,0.627307962
393,989924,355010,0.92,-0.631,0.152,-19.1,6.6,-0.7,-3.6,35.3,-5.9,0.42280343,0.428205206,-0.494460891,0.62715537
394,993127,355010,0.924,-0.643,0.156,-17.6,6.1,0,-3.6,35.3,-5.9,0.42301706,0.427961058,-0.494613483,0.627033296
395,995252,355020,0.924,-0.643,0.156,-17.6,6.1,0,-3.6,35.3,-5.9,0.42301706,0.427961058,-0.494613483,0.627033296
396,996590,355020,0.916,-0.666,0.168,-13.1,5.2,2.1,-3.2,35.3,-5.8,0.423352763,0.427503281,-0.494949187,0.626850185
397,999978,355020,0.913,-0.67,0.176,-11.5,5.3,2.9,-3.2,35.3,-5.8,0.423474837,0.427289651,-0.495101779,0.626819666
398,1002211,355020,0.913,-0.67,0.176,-10,5.5,3.6,-3.2,35.3,-5.8,0.423596912,0.42710654,-0.495223853,0.626789148
399,1004294,355030,0.913,-0.67,0.176,-10,5.5,3.6,-3.2,35.3,-5.8,0.423596912,0.42710654,-0.495223853,0.626789148
400,1006498,355030,0.885,-0.704,0.184,-7.1,6.4,5.2,-3.5,35.2,-5.6,0.423718986,0.426679281,-0.495406964,0.626819666
401,1009403,355030,0.885,-0.704,0.184,-5.7,6.9,5.8,-3.5,35.2,-5.6,0.423780023,0.426465651,-0.495468001,0.626880703
402,1012766,355030,0.862,-0.72,0.189,-5.7,6.9,5.8,-3.5,35.2,-5.6,0.42384106,0.426252022,-0.495559557,0.62694174
403,1014922,355040,0.862,-0.72,0.189,-5.7,6.9,5.8,-3.5,35.2,-5.6,0.42384106,0.426252022,-0.495559557,0.62694174
404,1017729,355040,0.83,-0.743,0.181,-1.4,7.4,7.8,-3.5,35.1,-5.9,0.423810541,0.425855281,-0.495620594,0.62715537
405,1019123,355040,0.83,-0.743,0.181,0,7.4,8.2,-3.5,35.1,-5.9,0.423780023,0.425641652,-0.495620594,0.627307962
406,1022862,355040,0.819,-0.774,0.186,0,7.4,8.2,-3.5,35.1,-5.9,0.423749504,0.425458541,-0.495620594,0.627460555
407,1025115,355050,0.803,-0.781,0.186,3.2,7.4,8.7,-2.7,34.6,-6,0.423688467,0.425305948,-0.495590075,0.627643666
408,1027481,355050,0.795,-0.797,0.186,4.9,7.4,8.7,-2.7,34.6,-6,0.423596912,0.425153356,-0.495529038,0.627857295
409,1029209,355050,0.791,-0.816,0.178,6.8,7.2,8.4,-2.7,34.6,-6,0.423505356,0.425000763,-0.495468001,0.628070925
410,1032534,355050,0.795,-0.84,0.182,6.8,7.2,8.4,-2.7,34.6,-6,0.4234138,0.424878689,-0.495376446,0.628284555
411,1034697,355060,0.779,-0.871,0.175,10.6,6.4,7.7,-3.5,35.5,-5.8,0.423261208,0.424817652,-0.495254372,0.628528703
412,1037514,355060,0.775,-0.882,0.163,12.7,5.9,7.6,-3.5,35.5,-5.8,0.423108615,0.424756615,-0.495071261,0.628803369
413,1040566,355060,0.775,-0.902,0.159,14.8,5.3,7.7,-3.5,35.5,-5.8,0.422925504,0.424756615,-0.49488815,0.629078036
414,1042194,355060,0.771,-0.914,0.159,14.8,5.3,7.7,-3.5,35.5,-5.8,0.422742393,0.424726096,-0.494735557,0.629352702
415,1045185,355070,0.771,-0.914,0.159,14.8,5.3,7.7,-3.5,35.5,-5.8,0.422742393,0.424726096,-0.494735557,0.629352702
416,1046545,355070,0.771,-0.937,0.148,19,3.9,8.2,-4.3,35.8,-5.9,0.422498245,0.424756615,-0.494491409,0.629688406
417,1049742,355070,0.767,-0.968,0.136,21.5,3,8.4,-4.3,35.8,-5.9,0.42219306,0.424817652,-0.494247261,0.63002411
418,1051863,355070,0.775,-0.992,0.136,27.5,-0.3,9,-4.3,35.8,-5.9,0.421491134,0.425092318,-0.493697928,0.630756554
419,1054116,355080,0.775,-0.992,0.136,27.5,-0.3,9,-4.3,35.8,-5.9,0.421491134,0.425092318,-0.493697928,0.630756554
420,1057543,355080,0.786,-1.004,0.136,31,-2.8,9.4,-4.2,35.7,-6.4,0.421033357,0.425305948,-0.493392743,0.631153294
421,1059909,355080,0.802,-1.016,0.143,34.9,-5.4,10,-4.2,35.7,-6.4,0.420514542,0.425611133,-0.493057039,0.631550035
422,1061867,355080,0.817,-1.032,0.147,43.2,-10.4,12.3,-4.2,35.7,-6.4,0.419232765,0.426343577,-0.492294076,0.632496109
423,1064214,355090,0.817,-1.032,0.147,43.2,-10.4,12.3,-4.2,35.7,-6.4,0.419232765,0.426343577,-0.492294076,0.632496109
424,1067412,355090,0.837,-1.02,0.162,47.8,-12.7,13.9,-4.3,35.7,-6.5,0.418439283,0.426831874,-0.491897336,0.633014924
425,1069474,355090,0.841,-1.028,0.166,52.7,-14.7,15.8,-4.3,35.7,-6.5,0.417584765,0.427350688,-0.491439558,0.633594775
426,1071655,355090,0.872,-1.033,0.165,61.9,-18.1,19.5,-4.3,35.7,-6.5,0.415601062,0.428510392,-0.490462966,0.634876553
427,1075137,355100,0.872,-1.033,0.165,61.9,-18.1,19.5,-4.3,35.7,-6.5,0.415601062,0.428510392,-0.490462966,0.634876553
428,1076811,355100,0.876,-1.013,0.181,66.2,-19.7,21.4,-2.1,34.8,-6.8,0.414471877,0.42915128,-0.489913633,0.635608997
429,1080499,355100,0.876,-1.001,0.185,70.3,-21.2,23.5,-2.1,34.8,-6.8,0.413251137,0.429822687,-0.489333781,0.63637196
430,1082511,355100,0.888,-0.986,0.189,78.8,-24.2,27.8,-2.1,34.8,-6.8,0.410565508,0.431287576,-0.488143559,0.638050478
431,1085184,355110,0.888,-0.986,0.189,78.8,-24.2,27.8,-2.1,34.8,-6.8,0.410565508,0.431287576,-0.488143559,0.638050478
432,1087267,355110,0.888,-0.974,0.2,82.8,-25.6,29.9,-3.6,35,-7.5,0.40910062,0.432050539,-0.48750267,0.638935514
433,1089306,355110,0.888,-0.958,0.2,86.5,-26.9,31.9,-3.6,35,-7.5,0.407544176,0.432874538,-0.486800745,0.639912107
434,1093116,355110,0.884,-0.943,0.192,94.1,-28.8,34.9,-3.6,35,-7.5,0.404248177,0.434583575,-0.485396893,0.641926328
435,1095504,355120,0.884,-0.943,0.192,94.1,-28.8,34.9,-3.6,35,-7.5,0.404248177,0.434583575,-0.485396893,0.641926328
436,1097792,355120,0.884,-0.943,0.192,94.1,-28.8,34.9,-3.6,35,-7.5,0.404248177,0.434583575,-0.485396893,0.641926328
437,1100291,355120,0.849,-0.923,0.189,105.9,-31,36.5,-3.4,35.2,-7.5,0.400585955,0.436475723,-0.483718375,0.644184698
438,1102597,355120,0.838,-0.915,0.185,110.1,-31.7,36.5,-3.4,35.2,-7.5,0.398693808,0.437513352,-0.48280282,0.645344401
439,1105617,355130,0.826,-0.907,0.182,110.1,-31.7,36.5,-3.4,35.2,-7.5,0.39680166,0.438520463,-0.481856746,0.646534623
440,1108257,355130,0.826,-0.907,0.182,110.1,-31.7,36.5,-3.4,35.2,-7.5,0.39680166,0.438520463,-0.481856746,0.646534623
441,1110147,355130,0.81,-0.883,0.159,123.1,-33,35.1,-2.9,34.5,-8.5,0.392773217,0.440809351,-0.479689932,0.649037141
442,1112451,355130,0.798,-0.887,0.147,126.9,-33.3,34.4,-2.9,34.5,-8.5,0.390728477,0.441999573,-0.47849971,0.650349437
443,1114472,355140,0.806,-0.891,0.135,126.9,-33.3,34.4,-2.9,34.5,-8.5,0.388653218,0.443189795,-0.477309488,0.651631214
444,1116817,355140,0.806,-0.879,0.123,132.7,-33.3,33.2,-2.4,34.2,-8.6,0.386547441,0.444441053,-0.476027711,0.652974029
445,1120109,355140,0.771,-0.883,0.112,135.4,-33.3,32.8,-2.4,34.2,-8.6,0.384411145,0.445722831,-0.474715415,0.654347362
446,1122285,355140,0.771,-0.894,0.097,135.4,-33.3,32.8,-2.4,34.2,-8.6,0.38227485,0.44697409,-0.4733726,0.655690176
447,1125778,355150,0.763,-0.906,0.081,137.9,-33.1,32.5,-2.4,34.2,-8.6,0.380138554,0.448286386,-0.471999268,0.657063509
448,1128066,355150,0.759,-0.898,0.054,141.6,-32.1,32.6,-2.3,33.8,-9.4,0.377941221,0.449568163,-0.470534379,0.65846736
449,1130363,355150,0.755,-0.898,0.046,143.4,-31.6,33.3,-2.3,33.8,-9.4,0.37571337,0.45084994,-0.469069491,0.65990173
450,1132433,355150,0.755,-0.898,0.03,143.4,-31.6,33.3,-2.3,33.8,-9.4,0.373516037,0.452162236,-0.467574084,0.6613361
451,1134423,355160,0.759,-0.902,0.011,145.2,-31,34.4,-2.3,33.8,-9.4,0.371257668,0.453413495,-0.466078677,0.66277047
452,1136798,355160,0.77,-0.907,-0.008,148.1,-29.9,37.2,-2.2,33.8,-10.1,0.368938261,0.454695273,-0.464552751,0.664296396
453,1140094,355160,0.778,-0.915,-0.012,149.4,-29.9,38.7,-2.2,33.8,-10.1,0.366588336,0.455916013,-0.462996307,0.665822321
454,1142339,355160,0.786,-0.907,-0.012,149.4,-29.9,38.7,-2.2,33.8,-10.1,0.364238411,0.457167272,-0.461470382,0.667317728
455,1144460,355170,0.794,-0.903,-0.016,150.9,-30.5,40.5,-2.2,33.8,-10.1,0.36179693,0.458388012,-0.459913938,0.668874172
456,1146759,355170,0.794,-0.903,-0.016,150.9,-30.5,40.5,-2.2,33.8,-10.1,0.36179693,0.458388012,-0.459913938,0.668874172
457,1150575,355170,0.813,-0.872,-0.021,154.6,-33.3,44.5,-2,33.2,-11,0.359294412,0.459639271,-0.458357494,0.670430616
458,1152965,355170,0.821,-0.865,-0.029,156.5,-35.1,47.1,-2,33.2,-11,0.356700339,0.460921049,-0.45680105,0.672017579
459,1154463,355180,0.833,-0.834,-0.025,159.1,-37.6,53.6,-2,33.2,-11,0.351237526,0.463423566,-0.453749199,0.675222022
460,1156779,355180,0.833,-0.834,-0.025,159.1,-37.6,53.6,-2,33.2,-11,0.351237526,0.463423566,-0.453749199,0.675222022
461,1160193,355180,0.856,-0.818,-0.022,159.3,-37.7,57.3,-1.8,33.3,-11.7,0.348399304,0.464644307,-0.45228431,0.676839503
462,1161688,355180,0.86,-0.807,-0.018,159.2,-37.4,61.2,-1.8,33.3,-11.7,0.345500046,0.46580401,-0.450819422,0.678487503
463,1164140,355190,0.856,-0.787,-0.018,159.6,-37,68.5,-1.8,33.3,-11.7,0.339548936,0.467970824,-0.448011719,0.681875057
464,1166623,355190,0.856,-0.787,-0.018,159.6,-37,68.5,-1.8,33.3,-11.7,0.339548936,0.467970824,-0.448011719,0.681875057
465,1171222,355190,0.864,-0.764,-0.014,160.7,-37.5,71.6,-1.6,32.6,-12.1,0.336466567,0.469008454,-0.446638386,0.683584094
466,1173262,355190,0.845,-0.775,-0.018,162.2,-38.5,73.9,-1.6,32.6,-12.1,0.33332316,0.470046083,-0.445234535,0.68529313
467,1175648,355200,0.868,-0.764,-0.018,166.2,-40.6,76.3,-1.6,32.6,-12.1,0.326883755,0.47215186,-0.442426832,0.68877224
468,1177864,355200,0.868,-0.764,-0.018,166.2,-40.6,76.3,-1.6,32.6,-12.1,0.326883755,0.47215186,-0.442426832,0.68877224
469,1179734,355200,0.872,-0.748,-0.01,169.1,-41.5,76.5,-1.9,31.8,-13.2,0.323587756,0.473250526,-0.440992462,0.690511795
470,1183099,355200,0.853,-0.752,-0.006,173.1,-42.2,76,-1.9,31.8,-13.2,0.32023072,0.474379711,-0.439436018,0.692281869
471,1185453,355210,0.853,-0.756,-0.014,181.4,-43.1,74.5,-1.9,31.8,-13.2,0.313425092,0.476729637,-0.436170537,0.695852535
472,1187898,355210,0.853,-0.756,-0.014,181.4,-43.1,74.5,-1.9,31.8,-13.2,0.313425092,0.476729637,-0.436170537,0.695852535
473,1189829,355210,0.856,-0.752,-0.018,184.3,-43.2,72.8,-0.2,31.1,-13.2,0.309976501,0.477950377,-0.434430982,0.697653127
474,1192863,355210,0.856,-0.756,-0.018,186.2,-43,70.9,-0.2,31.1,-13.2,0.306558428,0.479171117,-0.432599872,0.6994232
475,1195256,355220,0.927,-0.671,-0.027,188.1,-41.8,67.6,-0.2,31.1,-13.2,0.299722282,0.481673635,-0.428846095,0.702963347
476,1197357,355220,0.927,-0.671,-0.027,188.1,-41.8,67.6,-0.2,31.1,-13.2,0.299722282,0.481673635,-0.428846095,0.702963347
477,1199656,355220,0.927,-0.671,-0.027,188.1,-41.8,67.6,-0.2,31.1,-13.2,0.299722282,0.481673635,-0.428846095,0.702963347
478,1201718,355220,0.813,-0.798,-0.072,176.4,-33.4,74.9,0.2,31,-14.2,0.293038728,0.483718375,-0.425336467,0.706534013
479,1205377,355230,0.79,-0.814,-0.087,176.4,-33.4,74.9,0.2,31,-14.2,0.28971221,0.484664449,-0.423596912,0.708273568
480,1207628,355230,0.774,-0.833,-0.098,170.8,-30.4,76.9,0.2,31,-14.2,0.28644673,0.485488449,-0.421979431,0.710013123
481,1209912,355230,0.774,-0.833,-0.098,170.8,-30.4,76.9,0.2,31,-14.2,0.28644673,0.485488449,-0.421979431,0.710013123
482,1212126,355230,0.821,-0.806,-0.103,175.4,-37.3,69.7,0,30.2,-15.1,0.279915769,0.487411115,-0.418561357,0.71333964
483,1214314,355240,0.825,-0.791,-0.099,175.4,-37.3,69.7,0,30.2,-15.1,0.27661977,0.488418226,-0.416791284,0.714957121
484,1216518,355240,0.836,-0.779,-0.088,183.3,-42.9,68.2,0,30.2,-15.1,0.273201697,0.489577929,-0.414899136,0.716574602
485,1219728,355240,0.836,-0.779,-0.088,183.3,-42.9,68.2,0,30.2,-15.1,0.273201697,0.489577929,-0.414899136,0.716574602
486,1221779,355240,0.848,-0.756,-0.1,201.5,-51.7,78.2,0.2,29.9,-15.7,0.265633106,0.492172002,-0.410870693,0.719962157
487,1224994,355250,0.84,-0.756,-0.115,201.5,-51.7,78.2,0.2,29.9,-15.7,0.261787774,0.493423261,-0.408856471,0.721640675
488,1227249,355250,0.86,-0.725,-0.131,203.5,-51.3,83.4,0.2,29.9,-15.7,0.257820368,0.494613483,-0.40684225,0.72338023
489,1229285,355250,0.86,-0.725,-0.131,203.5,-51.3,83.4,0.2,29.9,-15.7,0.257820368,0.494613483,-0.40684225,0.72338023
490,1232411,355250,0.824,-0.663,-0.26,213,-51.4,90.7,-0.7,29.1,-16.9,0.249488815,0.496993927,-0.402691733,0.727011933
491,1234640,355260,0.843,-0.659,-0.304,220.5,-54.5,90,-0.7,29.1,-16.9,0.245185705,0.498275704,-0.400463881,0.728812525
492,1237817,355260,0.843,-0.659,-0.304,220.5,-54.5,90,-0.7,29.1,-16.9,0.240882595,0.499526963,-0.398205512,0.730643635
493,1240112,355260,0.843,-0.659,-0.304,220.5,-54.5,90,-0.7,29.1,-16.9,0.240882595,0.499526963,-0.398205512,0.730643635
494,1242305,355260,0.871,-0.598,-0.382,252.7,-74.2,82.9,0.8,28.4,-17.3,0.23157445,0.502883999,-0.392895291,0.734214301
495,1245411,355270,0.859,-0.601,-0.378,263.3,-81,80.7,0.8,28.4,-17.3,0.226691488,0.504806665,-0.389965514,0.735984375
496,1247559,355270,0.859,-0.601,-0.378,263.3,-81,80.7,0.8,28.4,-17.3,0.221808527,0.506698813,-0.387005219,0.73772393
497,1249037,355270,0.859,-0.601,-0.378,263.3,-81,80.7,0.8,28.4,-17.3,0.221808527,0.506698813,-0.387005219,0.73772393
498,1252131,355270,0.894,-0.586,-0.328,276.3,-92.7,75.5,1,27.8,-18.2,0.216742454,0.508896146,-0.383831294,0.739371929
499,1254132,355280,0.988,-0.552,-0.283,276.3,-97.5,71.6,1,27.8,-18.2,0.2117069,0.511154515,-0.38062685,0.740928373
500,1257019,355280,0.992,-0.576,-0.267,271.5,-100.7,67.8,1,27.8,-18.2,0.206732383,0.513473922,-0.377422407,0.742362743
501,1260151,355280,0.985,-0.563,-0.201,262.9,-101,66.2,1,27.8,-18.2,0.20187994,0.515732292,-0.374401074,0.743675039
502,1263248,355280,0.97,-0.543,-0.063,251.3,-97.1,68.1,0.7,26.7,-19.3,0.197149571,0.517838069,-0.371501816,0.744926298
503,1265288,355290,0.935,-0.585,-0.02,237.2,-87.9,73.1,0.7,26.7,-19.3,0.192571795,0.519699698,-0.368846706,0.746147038
504,1266747,355290,0.888,-0.623,0.008,204.9,-59.4,81.8,0.7,26.7,-19.3,0.184026612,0.522354808,-0.364268929,0.748680074
505,1269737,355290,0.888,-0.623,0.008,204.9,-59.4,81.8,0.7,26.7,-19.3,0.184026612,0.522354808,-0.364268929,0.748680074
506,1272796,355290,0.854,-0.556,0.032,191.2,-45.1,81.5,0.9,25.6,-19.5,0.180150761,0.523209326,-0.362254707,0.750022889
507,1275088,355300,0.939,-0.468,-0.008,182.4,-33.2,78,0.9,25.6,-19.5,0.176519059,0.523850215,-0.360271004,0.751365703
508,1277236,355300,1.185,-0.328,-0.107,176.4,-14.2,70.2,0.9,25.6,-19.5,0.169835505,0.524674215,-0.356242561,0.754264962
509,1280479,355300,1.185,-0.328,-0.107,176.4,-14.2,70.2,0.9,25.6,-19.5,0.169835505,0.524674215,-0.356242561,0.754264962
510,1281880,355300,1.845,-0.129,-0.323,176.6,-3.1,73.8,0.4,24.9,-20.6,0.166570025,0.524796289,-0.354197821,0.755851924
511,1285332,355310,1.742,-0.261,-0.446,179.1,14.2,91.6,0.4,24.9,-20.6,0.163090915,0.524521622,-0.352244636,0.757744072
512,1287461,355310,1.506,-0.488,-0.594,201.5,73.3,182.5,0.4,24.9,-20.6,0.154362621,0.521591845,-0.348948637,0.763084811
513,1289598,355310,1.506,-0.488,-0.594,201.5,73.3,182.5,0.4,24.9,-20.6,0.154362621,0.521591845,-0.348948637,0.763084811
514,1291909,355310,1.343,-0.485,-0.528,228.2,107.7,242.4,1,24.2,-21.1,0.148564104,0.518692587,-0.347544786,0.766838588
515,1294143,355320,0.996,-0.272,-0.55,310.5,152.6,338.2,1,24.2,-21.1,0.133579516,0.510818812,-0.344065676,0.776390881
516,1297991,355320,1.507,-0.445,-0.536,350.9,156.3,361.1,1,24.2,-21.1,0.12469863,0.506454665,-0.341685232,0.781762139
517,1300277,355320,1.507,-0.445,-0.536,350.9,156.3,361.1,1,24.2,-21.1,0.12469863,0.506454665,-0.341685232,0.781762139
518,1302583,355320,1.368,-0.199,-0.287,388.6,162.4,348.8,2.1,22.4,-22,0.115665151,0.502090518,-0.338419752,0.787347026
519,1304459,355330,1.459,-0.099,-0.214,378.3,178.2,321.5,2.1,22.4,-22,0.107303079,0.497573778,-0.33497116,0.792870876
520,1306772,355330,1.448,-0.082,-0.128,378.3,178.2,321.5,2.1,22.4,-22,0.0989410077,0.492996002,-0.33149205,0.798272652
521,1310566,355330,1.362,-0.065,-0.111,346.8,199.6,288.3,2.1,22.4,-22,0.0916165654,0.488174078,-0.328104495,0.803491317
522,1312087,355330,1.207,0.054,0.052,239.7,242.2,222.4,3.7,20.7,-22.4,0.0868861965,0.482772301,-0.325785089,0.808191168
523,1315176,355340,0.961,0.055,0.084,239.7,242.2,222.4,3.7,20.7,-22.4,0.082125309,0.477370525,-0.323404645,0.8128605
524,1317361,355340,0.805,0.05,0.067,181.1,257.6,198.5,3.7,20.7,-22.4,0.0785546434,0.471694082,-0.321787164,0.817133091
525,1319461,355340,0.695,0.024,0.018,128.3,264.9,185.9,3.7,20.7,-22.4,0.075777459,0.465865047,-0.320963164,0.821069979
526,1321766,355340,0.464,-0.031,-0.149,51.6,256.9,192.1,5.1,19.9,-21.6,0.0736106449,0.460005493,-0.321543016,0.824335459
527,1324078,355350,0.303,-0.118,-0.255,51.6,256.9,192.1,5.1,19.9,-21.6,0.0714438307,0.454115421,-0.322122868,0.827570421
528,1327004,355350,0.204,-0.207,-0.351,32,249.1,204.2,5.1,19.9,-21.6,0.069185461,0.448225349,-0.323191015,0.830561235
529,1329879,355350,0.243,-0.22,-0.407,26.6,243.8,217.2,5.1,19.9,-21.6,0.0667134617,0.442304758,-0.324442274,0.833429975
530,1332858,355350,0.301,-0.17,-0.427,57.1,241.6,237.6,7.2,19.3,-23.8,0.0635395367,0.436292611,-0.325327311,0.836481826
531,1334331,355360,0.349,-0.1,-0.409,57.1,241.6,237.6,7.2,19.3,-23.8,0.0603350932,0.430249947,-0.326212348,0.839503159
532,1337270,355360,0.349,-0.01,-0.311,87.5,241.3,246.9,7.2,19.3,-23.8,0.0567644276,0.424176763,-0.326609088,0.842707602
533,1340091,355360,0.46,0.085,-0.192,118.9,239.2,259.6,7.2,19.3,-23.8,0.0525833918,0.418073061,-0.326517533,0.84603412
534,1342003,355360,0.508,-0.019,0.08,141,234,277.1,7.9,18.8,-22,0.0478530229,0.411908322,-0.326151311,0.849482711
535,1344274,355370,0.641,-0.36,0.27,144.9,224.5,298,7.9,18.8,-22,0.0426038392,0.405774102,-0.325907163,0.852809229
536,1348117,355370,0.625,-0.574,0.42,132.8,206.7,316.3,7.9,18.8,-22,0.037018952,0.399792474,-0.326029237,0.855830561
537,1349820,355370,0.758,-0.689,0.472,120.8,173.8,322,7.9,18.8,-22,0.0311899167,0.394329661,-0.326425977,0.858455153
538,1351734,355370,0.758,-0.689,0.472,120.8,173.8,322,7.9,18.8,-22,0.0311899167,0.394329661,-0.326425977,0.858455153
539,1355594,355380,1.281,-0.608,0.396,157.8,56.5,274.5,9.5,18.1,-21.4,0.0250862148,0.391399884,-0.325785089,0.860225227
540,1357710,355380,1.535,-0.48,0.281,229.7,-55.2,191.4,9.5,18.1,-21.4,0.0130619221,0.389751885,-0.321359905,0.862880337
541,1359841,355380,1.706,-0.566,0.204,229.7,-55.2,191.4,9.5,18.1,-21.4,0.00711081271,0.389507736,-0.318674276,0.864070559
542,1362322,355380,1.706,-0.566,0.204,229.7,-55.2,191.4,9.5,18.1,-21.4,0.00711081271,0.389507736,-0.318674276,0.864070559
543,1364296,355390,1.979,-0.625,0.203,230.6,-82.8,147.6,9.8,16.4,-22,0.00177007355,0.390087588,-0.315591906,0.864986114
544,1367467,355390,1.861,-0.604,0.084,180.9,-45.1,157.7,9.8,16.4,-22,0.00802636799,-0.390118107,0.310861538,-0.866634114
545,1370368,355390,1.819,-0.58,0.096,180.9,-45.1,157.7,9.8,16.4,-22,0.0128482925,-0.389873959,0.30875576,-0.867458113
546,1372739,355390,1.819,-0.58,0.096,180.9,-45.1,157.7,9.8,16.4,-22,0.0128482925,-0.389873959,0.30875576,-0.867458113
547,1374109,355400,1.526,-0.453,0.168,128.1,6.2,217.4,9.8,16.4,-22,0.0229499191,-0.386944182,0.307107761,-0.869106113
548,1376545,355400,1.441,-0.479,0.256,114.6,10.7,240.7,9.8,16.4,-22,0.0284127323,-0.385082553,0.307016205,-0.869838557
549,1379287,355400,1.382,-0.567,0.335,114.6,10.7,240.7,9.8,16.4,-22,0.033845027,-0.383159886,0.306863613,-0.870540483
550,1382555,355400,1.382,-0.567,0.335,114.6,10.7,240.7,9.8,16.4,-22,0.033845027,-0.383159886,0.306863613,-0.870540483
551,1384029,355410,1.05,-0.749,0.338,77.8,4.8,291.2,10.3,14,-24.9,0.0459303568,-0.378917814,0.308481094,-0.871242409
552,1387817,355410,0.983,-0.803,0.277,79,-3,298.2,10.3,14,-24.9,0.0522782067,-0.376903592,0.309457686,-0.871456038
553,1389195,355410,1.022,-0.772,0.334,79,-3,298.2,10.3,14,-24.9,0.0586260567,-0.374828333,0.310373241,-0.871578112
554,1391607,355410,1.022,-0.772,0.334,79,-3,298.2,10.3,14,-24.9,0.0586260567,-0.374828333,0.310373241,-0.871578112
555,1395504,355420,1.336,-0.204,0.876,108.6,-26.3,292.7,10.3,14,-24.9,0.0652790918,-0.373210852,0.310678426,-0.871700186
556,1397090,355420,2.558,0.81,1.004,135.8,-37.2,261.8,10.3,14,-24.9,0.0781884213,-0.370525224,0.309945982,-0.872066408
557,1401196,355420,3.241,1.067,0.748,133.8,-31.2,244.9,10.3,14,-24.9,0.0841395306,-0.369212928,0.309335612,-0.872280038
558,1403093,355420,3.241,1.067,0.748,133.8,-31.2,244.9,10.3,14,-24.9,0.0841395306,-0.369212928,0.309335612,-0.872280038
559,1404659,355430,5.042,1.91,-0.43,143.1,-39.4,201.5,10.3,14,-24.9,0.0893887143,-0.368358409,0.30814539,-0.872554704
560,1407766,355430,5.504,2.445,-1.14,143.1,-39.4,201.5,10.3,14,-24.9,0.0946378979,-0.367442854,0.306955168,-0.872768334
561,1409821,355430,5.362,2.843,-1.698,191.4,-87.7,152.2,10.3,14,-24.9,0.0996734519,-0.367717521,0.304361095,-0.873043001
562,1413363,355430,4.714,3.272,-1.824,277.2,-172,72,10.3,14,-24.9,0.104403821,-0.369884335,0.299264504,-0.873317667
563,1415126,355440,2.789,3.76,-1.397,462,-332.2,-135.9,8.9,9.6,-25.6,0.10769982,-0.376018555,0.288583026,-0.873897519
564,1416719,355440,2.356,3.823,-1.201,502.6,-334.3,-221.9,8.9,9.6,-25.6,0.109683523,-0.382580035,0.276375622,-0.874752037
565,1419058,355440,1.776,3.892,-0.983,502.6,-334.3,-221.9,8.9,9.6,-25.6,0.111636708,-0.389049959,0.264107181,-0.875423444
566,1421718,355440,1.087,4.382,-0.791,498.3,-270.6,-277.3,8.9,9.6,-25.6,0.112125004,-0.394573809,0.251533555,-0.876583148
567,1424225,355450,1.087,4.382,-0.791,498.3,-270.6,-277.3,8.9,9.6,-25.6,0.112125004,-0.394573809,0.251533555,-0.876583148
568,1427925,355450,-1.131,6.572,-0.163,401.4,94.5,-251.1,8.9,9.6,-25.6,0.108676412,-0.394268624,0.231025117,-0.882778405
569,1430332,355450,-1.596,6.463,-0.021,401.4,94.5,-251.1,8.9,9.6,-25.6,0.106814783,-0.392742698,0.221350749,-0.88616596
570,1432638,355450,-1.845,6.176,0.266,349.5,216.3,-194.8,8.9,9.6,-25.6,0.105014191,-0.388653218,0.213415937,-0.890133366
571,1434208,355460,-1.845,6.176,0.266,349.5,216.3,-194.8,8.9,9.6,-25.6,0.105014191,-0.388653218,0.213415937,-0.890133366
572,1437801,355460,-1.991,3.512,0.735,-266.2,337.2,58.5,10.5,8.2,-23.9,0.100283822,-0.375438704,0.220007935,-0.894741661
573,1439774,355460,-1.808,2.534,0.499,-570.3,242.1,113.2,10.5,8.2,-23.9,0.0966521195,-0.371379742,0.232581561,-0.893642994
574,1442895,355460,-1.515,1.938,0.255,-570.3,242.1,113.2,10.5,8.2,-23.9,0.0930204169,-0.367259743,0.24509415,-0.892391736
575,1445462,355470,-1.515,1.938,0.255,-570.3,242.1,113.2,10.5,8.2,-23.9,0.0930204169,-0.367259743,0.24509415,-0.892391736
576,1447309,355470,-0.594,0.924,-0.084,-979.9,-43.8,54,10.3,12.2,-23.9,0.0864284188,-0.369731742,0.264473403,-0.886471145
577,1449549,355470,0.546,0.045,-0.147,-1017.9,-244.5,-162,10.3,12.2,-23.9,0.0681478317,-0.382366405,0.301461837,-0.870754112
578,1452820,355470,1.869,-0.378,-0.01,-956.4,-283.1,-269.4,10.3,12.2,-23.9,0.0568865017,-0.390850551,0.316873684,-0.862300485
579,1455234,355480,1.869,-0.378,-0.01,-956.4,-283.1,-269.4,10.3,12.2,-23.9,0.0568865017,-0.390850551,0.316873684,-0.862300485
580,1457535,355480,4.065,-1.127,0.619,-822.4,-275.7,-380.5,8.8,16.4,-23,0.0446180609,-0.399578845,0.328714866,-0.854548784
581,1459115,355480,4.463,-1.228,0.502,-822.4,-275.7,-380.5,8.8,16.4,-23,0.0323191015,-0.408185064,0.340372936,-0.84643086
582,1463092,355480,5.042,-2.468,-0.03,-791.4,-248.2,-347.3,8.8,16.4,-23,0.0206915494,-0.415814692,0.351664785,-0.838435011
583,1465369,355490,5.465,-4.003,-0.9,-793.8,-221.1,-244,8.8,16.4,-23,0.0107425153,-0.422009949,0.363811151,-0.830286569
584,1466828,355490,5.465,-4.003,-0.9,-793.8,-221.1,-244,8.8,16.4,-23,0.0107425153,-0.422009949,0.363811151,-0.830286569
585,1469083,355490,2.368,-7.585,-2.355,-794.6,-315.9,311.4,7.9,19.5,-22,0.00808740501,-0.428907132,0.396588031,-0.811578722
586,1472518,355490,2.368,-7.585,-2.355,-794.6,-315.9,311.4,7.9,19.5,-22,0.00891140477,-0.431867428,0.413434248,-0.801507614
587,1474219,355500,0.422,-6.934,-1.545,-728.1,-365.6,454.2,7.9,19.5,-22,0.0132755516,-0.434217353,0.430310984,-0.791253395
588,1477256,355500,0.422,-6.934,-1.545,-728.1,-365.6,454.2,7.9,19.5,-22,0.0132755516,-0.434217353,0.430310984,-0.791253395
589,1479568,355500,-0.664,-4.246,0.157,-310.3,-71.4,295.4,8.1,22.7,-19.4,0.0213629566,-0.432935575,0.450544755,-0.780419324
590,1481733,355500,-0.868,-3.656,0.312,-310.3,-71.4,295.4,8.1,22.7,-19.4,0.0241706595,-0.431379131,0.458571123,-0.776543474
591,1484219,355510,-1.175,-3.255,0.427,-146,118.2,144.4,8.1,22.7,-19.4,0.0240485855,-0.427991577,0.462477493,-0.776085696
592,1488515,355510,-1.175,-3.255,0.427,-146,118.2,144.4,8.1,22.7,-19.4,0.0240485855,-0.427991577,0.462477493,-0.776085696
593,1490639,355510,-1.491,-2.401,0.658,116.9,354,-32.9,9,21.4,-21.1,0.0209967345,-0.422254097,0.460341197,-0.780571917
594,1492564,355510,-1.026,-1.812,0.422,249.8,320.4,-23.8,9,21.4,-21.1,0.0170903653,-0.410992767,0.45228431,-0.791314432
595,1494131,355520,-0.21,-1.666,0.289,249.8,320.4,-23.8,9,21.4,-21.1,0.0157475509,-0.405590991,0.447828608,-0.796655171
596,1497578,355520,-0.21,-1.666,0.289,249.8,320.4,-23.8,9,21.4,-21.1,0.0157475509,-0.405590991,0.447828608,-0.796655171
597,1500389,355520,0.645,-1.287,0.139,261.9,157.7,42.1,9.9,20.1,-21.6,0.0172734764,-0.40232551,0.443708609,-0.800561541
598,1501794,355520,0.915,-1.131,0.122,247.2,97.3,66.4,9.9,20.1,-21.6,0.0196539201,-0.39988403,0.44001587,-0.803765984
599,1505293,355530,0.903,-0.967,0.063,212.6,79.6,88.1,9.9,20.1,-21.6,0.0250251778,-0.395336772,0.433759575,-0.809228797
600,1507231,355530,0.903,-0.967,0.063,212.6,79.6,88.1,9.9,20.1,-21.6,0.0250251778,-0.395336772,0.433759575,-0.809228797
601,1510183,355530,0.804,-0.429,0.252,178.8,99.5,81.7,10.3,19,-22.2,0.0270699179,-0.39271218,0.431348613,-0.811731315
602,1512278,355530,0.624,-0.493,0.189,178.8,99.5,81.7,10.3,19,-22.2,0.029114658,-0.390087588,0.428937651,-0.814203314
603,1514271,355540,0.645,-0.364,0.278,159.4,86.4,76.9,10.3,19,-22.2,0.0310068056,-0.387707144,0.426831874,-0.816400647
604,1517955,355540,0.708,-0.329,0.379,139.1,59.2,75.5,10.3,19,-22.2,0.0329905087,-0.385845515,0.425031281,-0.818140202
605,1520074,355540,0.708,-0.329,0.379,139.1,59.2,75.5,10.3,19,-22.2,0.0329905087,-0.385845515,0.425031281,-0.818140202
606,1521758,355540,0.565,0.024,0.428,94.8,-10.9,88.3,10.5,18.6,-22.1,0.0378429518,-0.384258553,0.422833949,-0.819788202
607,1524272,355550,0.529,0.005,0.397,94.8,-10.9,88.3,10.5,18.6,-22.1,0.040314951,-0.383556627,0.421887875,-0.820490127
608,1526655,355550,0.58,-0.046,0.404,79.5,-14,88.5,10.5,18.6,-22.1,0.0426953948,-0.382915738,0.421185949,-0.82103946
609,1530792,355550,0.58,-0.046,0.404,79.5,-14,88.5,10.5,18.6,-22.1,0.0426953948,-0.382915738,0.421185949,-0.82103946
610,1532478,355550,0.685,-0.445,0.532,49.2,-3.7,42.6,10.9,19.7,-20.8,0.0455030976,-0.382030702,0.420270394,-0.821771905
611,1535059,355560,0.74,-0.298,0.558,49.2,-3.7,42.6,10.9,19.7,-20.8,0.046723838,-0.38166448,0.419751579,-0.822138127
612,1536730,355560,0.74,-0.298,0.558,63.1,-4.5,25.1,10.9,19.7,-20.8,0.0477309488,-0.38145085,0.418836024,-0.822656941
613,1540214,355560,0.74,-0.298,0.558,63.1,-4.5,25.1,10.9,19.7,-20.8,0.0477309488,-0.38145085,0.418836024,-0.822656941
614,1542980,355560,1.026,-0.049,0.498,97.9,-4.6,11.4,11.2,18.1,-21.5,0.0487990967,-0.381328776,0.417157506,-0.823480941
615,1545341,355570,1.053,-0.01,0.45,81.8,8.5,18.5,11.2,18.1,-21.5,0.0507827998,-0.380657369,0.414227729,-0.825159459
616,1548275,355570,1.049,-0.006,0.438,81.8,8.5,18.5,11.2,18.1,-21.5,0.0517288736,-0.380260628,0.412915433,-0.82595294
617,1550431,355570,1.049,-0.006,0.438,81.8,8.5,18.5,11.2,18.1,-21.5,0.0517288736,-0.380260628,0.412915433,-0.82595294
618,1552696,355570,0.975,0.021,0.471,41.8,18.3,29.1,11,18,-22,0.0524307993,-0.379619739,0.412427137,-0.826441237
619,1554745,355580,0.924,0.018,0.484,28.9,16,31.3,11,18,-22,0.0531022065,-0.379009369,0.412182989,-0.826807459
620,1556866,355580,0.846,-0.085,0.474,17.5,5,24.4,11,18,-22,0.0542313913,-0.378185369,0.411938841,-0.827204199
621,1560850,355580,0.846,-0.085,0.474,17.5,5,24.4,11,18,-22,0.0542313913,-0.378185369,0.411938841,-0.827204199
622,1563314,355580,0.846,-0.085,0.474,17.5,5,24.4,11,18,-22,0.0542313913,-0.378185369,0.411938841,-0.827204199
623,1565889,355590,0.799,-0.158,0.522,15.1,3.4,4.2,10.8,17.9,-21.9,0.0547196875,-0.377941221,0.411511582,-0.827509384
624,1567870,355590,0.76,-0.13,0.522,15.1,3.4,4.2,10.8,17.9,-21.9,0.05487228,-0.377819147,0.411267434,-0.827661977
625,1569417,355590,0.717,-0.086,0.507,13.8,7,1.2,10.8,17.9,-21.9,0.0549638356,-0.377666555,0.411023286,-0.827845088
626,1571786,355590,0.717,-0.086,0.507,13.8,7,1.2,10.8,17.9,-21.9,0.0549638356,-0.377666555,0.411023286,-0.827845088
627,1575779,355600,0.588,0.051,0.447,-12.1,16.2,0.9,11.1,18.4,-21.5,0.054628132,-0.377117222,0.411267434,-0.827997681
628,1577828,355600,0.588,0.012,0.439,-12.1,16.2,0.9,11.1,18.4,-21.5,0.0543839839,-0.376842555,0.411511582,-0.828028199
629,1580270,355600,0.635,-0.093,0.454,-28.9,16.4,1.7,11.1,18.4,-21.5,0.0539872433,-0.376567888,0.412091433,-0.827906125
630,1581956,355600,0.635,-0.093,0.454,-28.9,16.4,1.7,11.1,18.4,-21.5,0.0539872433,-0.376567888,0.412091433,-0.827906125
631,1584160,355610,0.779,-0.298,0.503,-54.7,15,1.1,10.9,17.8,-21.1,0.0534684286,-0.376354259,0.413098544,-0.827539903
632,1586584,355610,0.919,-0.192,0.429,-35.1,19,-6.2,10.9,17.8,-21.1,0.0522782067,-0.375865963,0.414654988,-0.827051607
633,1590517,355610,0.876,-0.164,0.379,-35.1,19,-6.2,10.9,17.8,-21.1,0.0517288736,-0.375621815,0.415265358,-0.826899014
634,1592531,355610,0.876,-0.164,0.379,-35.1,19,-6.2,10.9,17.8,-21.1,0.0517288736,-0.375621815,0.415265358,-0.826899014
635,1594250,355620,0.802,-0.132,0.283,14.2,31.3,-20.7,11.1,18.2,-21.1,0.0511795404,-0.375225074,0.414868618,-0.827295755
636,1596711,355620,0.798,-0.109,0.263,32.9,37.4,-27.2,11.1,18.2,-21.1,0.0506302072,-0.374767296,0.414075137,-0.827936644
637,1599448,355620,0.751,-0.1,0.221,44.8,40.8,-39.5,11.1,18.2,-21.1,0.0492873928,-0.373851741,0.411999878,-0.829462569
638,1601633,355620,0.751,-0.1,0.221,44.8,40.8,-39.5,11.1,18.2,-21.1,0.0492873928,-0.373851741,0.411999878,-0.829462569
639,1605530,355630,0.657,-0.145,0.242,41,37.4,-46.9,11.1,17.7,-21,0.0484328745,-0.373516037,0.410901212,-0.830195013
640,1607835,355630,0.598,-0.195,0.267,34.4,30.6,-55.2,11.1,17.7,-21,0.0474562822,-0.373455,0.409863582,-0.830805383
641,1609978,355630,0.547,-0.257,0.288,27.2,20.2,-64.2,11.1,17.7,-21,0.0463270974,-0.373638112,0.408856471,-0.83129368
642,1611907,355630,0.54,-0.284,0.343,20.6,6.1,-74.8,11.1,17.7,-21,0.0450758385,-0.374187445,0.407879879,-0.831598865
643,1614282,355640,0.54,-0.284,0.343,20.6,6.1,-74.8,11.1,17.7,-21,0.0450758385,-0.374187445,0.407879879,-0.831598865
644,1618713,355640,0.645,-0.39,0.435,9.4,-29.3,-102.2,11,18.2,-21.4,0.043549913,-0.375591296,0.40684225,-0.831537828
645,1620846,355640,0.931,-0.45,0.469,-0.2,-58.9,-130.9,11,18.2,-21.4,0.0400402844,-0.379711295,0.404614399,-0.830927458
646,1622405,355640,0.954,-0.497,0.453,-0.2,-58.9,-130.9,11,18.2,-21.4,0.0381786554,-0.381939146,0.403485214,-0.830561235
647,1625471,355650,0.954,-0.497,0.453,-0.2,-58.9,-130.9,11,18.2,-21.4,0.0381786554,-0.381939146,0.403485214,-0.830561235
648,1627791,355650,1.133,-0.477,0.461,-9.7,-61.7,-146.1,10.4,18.3,-21.1,0.0359813227,-0.384350108,0.402386547,-0.830072939
649,1630032,355650,1.083,-0.456,0.462,-14.6,-51.9,-146.1,10.4,18.3,-21.1,0.033661916,-0.38657796,0.401409955,-0.829615162
650,1632305,355650,1.265,-0.561,0.369,-20.4,-38.2,-140,10.4,18.3,-21.1,0.028931547,-0.390423292,0.399700919,-0.828791162
651,1634300,355660,1.265,-0.561,0.369,-20.4,-38.2,-140,10.4,18.3,-21.1,0.028931547,-0.390423292,0.399700919,-0.828791162
652,1637902,355660,1.179,-0.58,0.347,-34.1,-8.5,-114.5,9.1,19.5,-20.8,0.0266121403,-0.391613514,0.399334696,-0.828485977
653,1640078,355660,1.132,-0.583,0.305,-39.3,5.7,-101.3,9.1,19.5,-20.8,0.0244148076,-0.392406995,0.399182104,-0.828272347
654,1642380,355660,1.214,-0.468,0.197,-45,28.6,-85.2,9.1,19.5,-20.8,0.0200201422,-0.393139439,0.399273659,-0.827997681
655,1644459,355670,1.214,-0.468,0.197,-45,28.6,-85.2,9.1,19.5,-20.8,0.0200201422,-0.393139439,0.399273659,-0.827997681
656,1646775,355670,1.077,-0.454,0.157,-47.3,37,-80.1,8.6,19.8,-21,0.0178838466,-0.393200476,0.399456771,-0.827936644
657,1649142,355670,0.921,-0.428,0.14,-49.9,43.6,-74.3,8.6,19.8,-21,0.0157170324,-0.393047884,0.399761956,-0.827875607
658,1651581,355670,0.898,-0.431,0.144,-52.2,47.6,-68.4,8.6,19.8,-21,0.0136417737,-0.392834254,0.400128178,-0.827875607
659,1656063,355680,0.886,-0.439,0.168,-53.7,47.8,-64.8,8.6,19.8,-21,0.0115665151,-0.392529069,0.400555437,-0.82781457
660,1657879,355680,0.874,-0.427,0.215,-54.4,45.3,-64.8,8.6,20.3,-20.9,0.00955229347,-0.392284921,0.400982696,-0.827753533
661,1660235,355680,0.839,-0.414,0.22,-54.4,42.1,-67.5,8.6,20.3,-20.9,0.00750755333,-0.392132328,0.401409955,-0.827661977
662,1661758,355680,0.804,-0.394,0.22,-54.4,40.1,-71.4,8.6,20.3,-20.9,0.00537125767,-0.392040773,0.401776177,-0.827509384
663,1664172,355690,0.789,-0.374,0.221,-54.8,39.6,-75.4,8.6,20.3,-20.9,0.00320444349,-0.392010254,0.402111881,-0.82738731
664,1668066,355690,0.789,-0.374,0.221,-54.8,39.6,-75.4,8.6,20.3,-20.9,0.00320444349,-0.392010254,0.402111881,-0.82738731
665,1670366,355690,0.66,-0.341,0.211,-58.2,40.2,-83.8,8.7,20.4,-20.7,0.000854518265,-0.392010254,0.402447584,-0.827234718
666,1672593,355690,0.519,-0.374,0.183,-60.6,39.6,-89.3,8.7,20.4,-20.7,0.001617481,0.392071291,-0.402783288,0.827021088
667,1674671,355700,0.469,-0.314,0.191,-62.5,36.7,-96.6,8.7,20.4,-20.7,0.00680562761,0.392437513,-0.403393658,0.826532792
668,1677805,355700,0.469,-0.314,0.191,-62.5,36.7,-96.6,8.7,20.4,-20.7,0.00680562761,0.392437513,-0.403393658,0.826532792
669,1679967,355700,0.484,-0.291,0.195,-62.3,20.3,-118.8,10.5,20.2,-20.5,0.0096743675,0.393108921,-0.403485214,0.826136052
670,1682964,355700,0.512,-0.28,0.21,-61.6,7.6,-131.2,10.5,20.2,-20.5,0.0126346629,0.394116031,-0.403485214,0.825647755
671,1685313,355710,0.491,-0.397,0.152,-64.3,-20.1,-148.9,10.5,20.2,-20.5,0.0186773278,0.397106845,-0.403241066,0.824182867
672,1687647,355710,0.491,-0.397,0.152,-64.3,-20.1,-148.9,10.5,20.2,-20.5,0.0186773278,0.397106845,-0.403241066,0.824182867
673,1689907,355710,0.519,-0.378,0.163,-65.4,-34.4,-153.9,8.5,20.8,-20.4,0.0217291787,0.399029511,-0.403118992,0.823267312
674,1691816,355710,0.55,-0.425,0.127,-63.5,-49,-157.7,8.5,20.8,-20.4,0.0247199927,0.401287881,-0.402905362,0.822199164
675,1695321,355720,0.593,-0.411,0.138,-48.9,-77.5,-164.5,8.5,20.8,-20.4,0.0302438429,0.406598102,-0.402020325,0.81981872
676,1697673,355720,0.593,-0.411,0.138,-48.9,-77.5,-164.5,8.5,20.8,-20.4,0.0302438429,0.406598102,-0.402020325,0.81981872
677,1699220,355720,0.597,-0.403,0.158,-38,-89.3,-168.1,8.2,21.3,-20.9,0.0328073977,0.409649953,-0.401257363,0.818567461
678,1702526,355720,0.679,-0.384,0.164,-26.6,-99.5,-171.9,8.2,21.3,-20.9,0.0352488784,0.412915433,-0.40028077,0.817316202
679,1704883,355730,0.714,-0.338,0.187,-16.7,-108.7,-175.3,8.2,21.3,-20.9,0.0375682852,0.416364025,-0.39906003,0.816034425
680,1706818,355730,0.765,-0.3,0.197,-8.8,-117,-178,8.2,21.3,-20.9,0.0397961364,0.419995727,-0.397717215,0.814752647
681,1709273,355730,0.765,-0.308,0.197,-3.8,-124,-179.3,7.4,21.5,-21.1,0.041932432,0.423749504,-0.396221809,0.813409833
682,1711562,355730,0.836,-0.258,0.235,-1.7,-129.3,-179.2,7.4,21.5,-21.1,0.0440382092,0.427564318,-0.394726402,0.8120365
683,1714071,355740,0.852,-0.262,0.223,-2.5,-133.2,-178.1,7.4,21.5,-21.1,0.0460524308,0.431470687,-0.393230995,0.810571612
684,1717654,355740,0.86,-0.235,0.235,-5.4,-135.9,-177,7.4,21.5,-21.1,0.0480666524,0.435377056,-0.391796625,0.809076205
685,1719849,355740,0.86,-0.235,0.235,-5.4,-135.9,-177,7.4,21.5,-21.1,0.0480666524,0.435377056,-0.391796625,0.809076205
686,1721903,355740,0.969,-0.198,0.229,-17.1,-138,-178,7.1,22,-21.3,0.0522782067,0.443250832,-0.389294107,0.805749687
687,1725078,355750,0.981,-0.221,0.213,-25.4,-137.3,-180.5,7.1,22,-21.3,0.0545670949,0.447157201,-0.388134404,0.803979614
688,1728072,355750,1.012,-0.226,0.197,-35.2,-134.9,-184,7.1,22,-21.3,0.0570085757,0.451033052,-0.387127293,0.802117985
689,1729333,355750,1.012,-0.226,0.197,-35.2,-134.9,-184,7.1,22,-21.3,0.0570085757,0.451033052,-0.387127293,0.802117985
690,1732542,355750,1.094,-0.177,0.175,-58,-123.4,-193.1,5.9,22.5,-21.2,0.0599078341,0.45475631,-0.386394848,0.8001648
691,1735584,355760,1.16,-0.197,0.116,-70,-114.8,-197.5,5.9,22.5,-21.2,0.0659810175,0.462019715,-0.385021516,0.796166875
692,1737144,355760,1.203,-0.183,0.091,-80.9,-105.2,-200.9,5.9,22.5,-21.2,0.0693990905,0.46540727,-0.384563738,0.794122135
693,1740316,355760,1.203,-0.183,0.091,-80.9,-105.2,-200.9,5.9,22.5,-21.2,0.0693990905,0.46540727,-0.384563738,0.794122135
694,1742190,355760,1.245,-0.191,0.059,-95.6,-85.7,-202.8,5.1,22.9,-21.3,0.0731833857,0.468428602,-0.384289071,0.792138432
695,1745294,355770,1.265,-0.188,0.047,-100.3,-75.9,-200,5.1,22.9,-21.3,0.0770287179,0.471266823,-0.384075442,0.790185247
696,1747637,355770,1.284,-0.2,0.015,-104.6,-66.2,-194.3,5.1,22.9,-21.3,0.0847193823,0.476638081,-0.383770257,0.786309397
697,1749908,355770,1.284,-0.2,0.015,-104.6,-66.2,-194.3,5.1,22.9,-21.3,0.0847193823,0.476638081,-0.383770257,0.786309397
698,1751886,355770,1.272,-0.216,0,-113.2,-46.8,-177.6,4.3,23.6,-21.1,0.0885647145,0.47871334,-0.383953368,0.784539323
699,1754222,355780,1.257,-0.223,0,-118.4,-37.2,-168.7,4.3,23.6,-21.1,0.0923795282,0.48054445,-0.384289071,0.782830287
700,1758113,355780,1.221,-0.246,-0.01,-124.8,-27.8,-161,4.3,23.6,-21.1,0.100039674,0.483657338,-0.385235145,0.779473251
701,1760406,355780,1.221,-0.246,-0.01,-124.8,-27.8,-161,4.3,23.6,-21.1,0.100039674,0.483657338,-0.385235145,0.779473251
702,1762682,355780,1.182,-0.273,-0.021,-142.1,-8.8,-150.4,4,24.1,-20.6,0.10400708,0.484756005,-0.386120182,0.77785577
703,1764906,355790,1.159,-0.292,-0.024,-152.5,0.8,-147.2,4,24.1,-20.6,0.108127079,0.485641041,-0.387157811,0.77620777
704,1767990,355790,1.108,-0.338,-0.027,-163.1,11,-144.9,4,24.1,-20.6,0.116519669,0.487136448,-0.389355144,0.772972808
705,1770314,355790,1.108,-0.338,-0.027,-163.1,11,-144.9,4,24.1,-20.6,0.116519669,0.487136448,-0.389355144,0.772972808
706,1772715,355790,1.022,-0.403,-0.037,-181.9,32.7,-140.2,3.3,24.4,-20,0.121097446,0.487319559,-0.390850551,0.771385846
707,1774997,355800,0.994,-0.418,-0.037,-188.8,43.9,-137.2,3.3,24.4,-20,0.125797296,0.487228004,-0.392437513,0.769890439
708,1776863,355800,0.951,-0.472,-0.036,-193.6,55,-134,3.3,24.4,-20,0.130558184,0.486922819,-0.394116031,0.76842555
709,1779248,355800,0.935,-0.472,-0.032,-196.3,65.6,-131.2,3.3,24.4,-20,0.135410627,0.486373486,-0.395825068,0.767052217
710,1781578,355800,0.885,-0.506,-0.023,-196.8,75.1,-129.2,2.4,25.7,-19.8,0.140324107,0.485641041,-0.397503586,0.76577044
711,1784116,355810,0.881,-0.498,-0.019,-195.6,83.3,-128.1,2.4,25.7,-19.8,0.145237587,0.484756005,-0.399151585,0.764549699
712,1787432,355810,0.865,-0.502,-0.014,-193,89.6,-127.7,2.4,25.7,-19.8,0.150181585,0.483748894,-0.400738548,0.763389996
713,1789946,355810,0.822,-0.583,-0.014,-189.8,93.7,-128,2.4,25.7,-19.8,0.155156102,0.482680746,-0.402233955,0.76229133
714,1791818,355810,0.826,-0.587,-0.006,-185.4,94.9,-129,4.2,26.4,-18.5,0.160069582,0.481612598,-0.403637806,0.761223182
715,1794160,355820,0.857,-0.568,0,-179.3,92.7,-131.5,4.2,26.4,-18.5,0.164952544,0.480605487,-0.404889065,0.760124516
716,1798117,355820,0.873,-0.564,0,-171.4,86.8,-135.4,4.2,26.4,-18.5,0.169774468,0.47972045,-0.40601825,0.759025849
717,1800528,355820,0.896,-0.569,0.008,-162.9,78.2,-139.7,4.2,26.4,-18.5,0.174474319,0.479079562,-0.406964324,0.757896664
718,1802712,355820,0.947,-0.577,0.014,-155.8,68.2,-142.4,3.8,27,-18.4,0.179082614,0.478591266,-0.407788324,0.756675924
719,1804912,355830,0.963,-0.585,0.018,-150.8,57.6,-142.4,3.8,27,-18.4,0.183507797,0.478316599,-0.408551286,0.755363628
720,1806758,355830,0.994,-0.586,0.018,-147.5,46.8,-140.2,3.8,27,-18.4,0.187780389,0.478194525,-0.409314249,0.753959777
721,1810355,355830,1.021,-0.575,0.029,-145.2,36.2,-136.5,3.8,27,-18.4,0.191869869,0.478225043,-0.410138249,0.75246437
722,1812589,355830,1.127,-0.541,0.042,-143.6,26.3,-131.9,3.5,27.5,-17.2,0.19574572,0.478377636,-0.410992767,0.750907926
723,1814853,355840,1.166,-0.534,0.046,-143.1,18,-126.5,3.5,27.5,-17.2,0.199438459,0.478591266,-0.411938841,0.749259926
724,1816873,355840,1.193,-0.542,0.041,-144.8,12.3,-120.2,3.5,27.5,-17.2,0.203070162,0.478835414,-0.413006989,0.74755089
725,1819195,355840,1.205,-0.57,0.041,-148.9,10,-113.4,3.5,27.5,-17.2,0.206579791,0.478988006,-0.414197211,0.745811335
726,1822974,355840,1.205,-0.57,0.041,-148.9,10,-113.4,3.5,27.5,-17.2,0.206579791,0.478988006,-0.414197211,0.745811335
727,1824266,355850,1.248,-0.621,0.021,-160,15.8,-101.5,3,28.6,-17.2,0.210028382,0.478957488,-0.415662099,0.74407178
728,1827433,355850,1.263,-0.618,0.024,-163.9,22,-98.1,3,28.6,-17.2,0.217017121,0.47849971,-0.41871395,0.740623188
729,1829505,355850,1.275,-0.61,0.036,-166.4,29.6,-96.6,3,28.6,-17.2,0.220618305,0.478133488,-0.420270394,0.73894467
730,1831754,355850,1.275,-0.61,0.036,-166.4,29.6,-96.6,3,28.6,-17.2,0.220618305,0.478133488,-0.420270394,0.73894467
731,1835580,355860,1.252,-0.61,0.071,-169.5,48.3,-96.3,1,29.1,-16.6,0.224372082,0.477401044,-0.421735282,0.737449263
732,1837224,355860,1.186,-0.632,0.081,-171.3,58.3,-95.3,1,29.1,-16.6,0.231971191,0.475753044,-0.424695578,0.734458449
733,1839192,355860,1.135,-0.643,0.089,-173.2,67.6,-93.4,1,29.1,-16.6,0.235908078,0.474654378,-0.426160466,0.733054598
734,1842455,355860,1.135,-0.643,0.089,-173.2,67.6,-93.4,1,29.1,-16.6,0.235908078,0.474654378,-0.426160466,0.733054598
735,1844903,355870,1.021,-0.66,0.092,-174.2,82.4,-88.2,2.5,29.7,-16,0.239875484,0.473250526,-0.427594836,0.731833857
736,1847900,355870,0.92,-0.694,0.097,-171.6,88.1,-86,2.5,29.7,-16,0.247810297,0.47032075,-0.430402539,0.729422895
737,1850148,355870,0.885,-0.705,0.102,-166.3,92.6,-84.9,2.5,29.7,-16,0.251747185,0.468764306,-0.431684317,0.728354747
738,1852412,355870,0.885,-0.705,0.102,-166.3,92.6,-84.9,2.5,29.7,-16,0.251747185,0.468764306,-0.431684317,0.728354747
739,1854738,355880,0.865,-0.646,0.11,-147.8,95.4,-86.2,2.2,30.1,-15.1,0.25553148,0.46723838,-0.43263039,0.727439192
740,1856756,355880,0.889,-0.588,0.098,-136.7,93.1,-87.8,2.2,30.1,-15.1,0.262947478,0.464278085,-0.434308908,0.725699637
741,1860634,355880,0.889,-0.584,0.063,-127.3,89.4,-88.3,2.2,30.1,-15.1,0.266487625,0.462965789,-0.43488876,0.724875637
742,1862169,355880,0.889,-0.584,0.063,-127.3,89.4,-88.3,2.2,30.1,-15.1,0.266487625,0.462965789,-0.43488876,0.724875637
743,1865462,355890,0.873,-0.588,0.051,-121.2,85.5,-84.6,2.2,30.9,-15.1,0.269875179,0.46171453,-0.435468612,0.724082156
744,1867714,355890,0.838,-0.611,0.044,-123.8,87.9,-82.2,2.2,30.9,-15.1,0.27661977,0.459089938,-0.436628315,0.722525712
745,1869963,355890,0.838,-0.63,0.04,-127.3,92.1,-80.8,2.2,30.9,-15.1,0.280037843,0.45762505,-0.437269204,0.721732231
746,1872173,355890,0.838,-0.63,0.04,-127.3,92.1,-80.8,2.2,30.9,-15.1,0.280037843,0.45762505,-0.437269204,0.721732231
747,1874881,355900,0.853,-0.65,0.028,-126.8,95.9,-81.1,1.9,31,-13.8,0.283486435,0.456129643,-0.437849055,0.720969268
748,1877950,355900,0.861,-0.631,0.016,-120.5,92.3,-82,1.9,31,-13.8,0.286873989,0.454695273,-0.43836787,0.720236824
749,1880230,355900,0.865,-0.619,0.02,-110.8,85.8,-83.3,1.9,31,-13.8,0.290078433,0.453444014,-0.438734092,0.719504379
750,1882449,355900,0.888,-0.619,0.02,-99,77.7,-84.7,1.9,31,-13.8,0.293130284,0.452406384,-0.438947722,0.718771935
751,1884894,355910,0.924,-0.608,0.019,-86.4,69.9,-85.9,0.9,31.2,-13.3,0.295999023,0.451582385,-0.439008759,0.718070009
752,1887314,355910,0.931,-0.593,0.023,-74,63.2,-86.3,0.9,31.2,-13.3,0.298715171,0.450941496,-0.438917203,0.717429121
753,1889419,355910,0.928,-0.573,0.034,-62.5,58.2,-86.7,0.9,31.2,-13.3,0.301217689,0.4504532,-0.438673055,0.716849269
754,1891775,355910,0.936,-0.538,0.054,-52.6,54.8,-87,0.9,31.2,-13.3,0.303628651,0.450086978,-0.438276315,0.716299936
755,1895606,355920,0.94,-0.499,0.073,-45.6,52,-87.2,0.9,31.6,-12.8,0.305948057,0.449812311,-0.437788018,0.71581164
756,1897423,355920,0.948,-0.499,0.089,-42.2,49.5,-86.8,0.9,31.6,-12.8,0.308175909,0.449568163,-0.437238685,0.715292825
757,1899692,355920,0.948,-0.487,0.104,-42.4,46.6,-85.9,0.9,31.6,-12.8,0.310373241,0.449385052,-0.436750389,0.71477401
758,1901672,355920,0.94,-0.491,0.112,-45.4,43.2,-84.6,0.9,31.6,-12.8,0.312570574,0.449201941,-0.436353648,0.714194159
759,1905687,355930,0.932,-0.491,0.116,-50,39.4,-83,0.6,31.7,-12.8,0.314737388,0.449049348,-0.436017945,0.713522752
760,1907906,355930,0.932,-0.491,0.116,-55.1,35.7,-81.3,0.6,31.7,-12.8,0.316873684,0.448866237,-0.435865352,0.712790307
761,1910036,355930,0.932,-0.514,0.112,-60.1,32.2,-79.9,0.6,31.7,-12.8,0.31900998,0.448713645,-0.435773797,0.711996826
762,1911548,355930,0.936,-0.514,0.105,-64.6,29.7,-78.9,0.6,31.7,-12.8,0.321146275,0.448561052,-0.435804315,0.711111789
763,1914426,355940,0.913,-0.537,0.101,-68.3,28.6,-78.5,0.4,32,-11.5,0.323313089,0.448377941,-0.435895871,0.710196234
764,1917447,355940,0.913,-0.537,0.101,-70.6,29,-78.8,0.4,32,-11.5,0.325479904,0.448164312,-0.436017945,0.70925016
765,1920376,355940,0.885,-0.521,0.106,-71,31,-79.8,0.4,32,-11.5,0.327707755,0.447950682,-0.4361095,0.708304086
766,1921737,355940,0.854,-0.478,0.118,-69.7,34,-80.7,0.4,32,-11.5,0.329966124,0.447706534,-0.436140019,0.707388531
767,1924788,355950,0.854,-0.478,0.118,-69.7,34,-80.7,0.4,32,-11.5,0.329966124,0.447706534,-0.436140019,0.707388531
768,1926776,355950,0.807,-0.461,0.111,-64.8,40,-78.5,0.2,32.3,-10.4,0.331125828,0.447462386,-0.437574389,0.706137272
769,1929935,355950,0.803,-0.461,0.099,-62.8,42,-75.1,0.2,32.3,-10.4,0.333292642,0.447065645,-0.437482833,0.705404828
770,1933054,355950,0.796,-0.434,0.099,-61.7,43.3,-71.8,0.2,32.3,-10.4,0.335398419,0.446638386,-0.437421796,0.704702902
771,1934398,355960,0.796,-0.426,0.091,-61.3,44.3,-69.7,0.2,32.3,-10.4,0.337504196,0.446180609,-0.437360759,0.704031495
772,1937436,355960,0.776,-0.457,0.06,-61.5,44.9,-69.4,-0.5,32.5,-11.8,0.339579455,0.445692312,-0.437299722,0.703390606
773,1939338,355960,0.764,-0.461,0.037,-61.9,45.6,-70.8,-0.5,32.5,-11.8,0.341715751,0.445204016,-0.437208167,0.702688681
774,1942514,355960,0.756,-0.414,0.053,-61.7,46.3,-74,-0.5,32.5,-11.8,0.343882565,0.444746239,-0.437116611,0.702017273
775,1944710,355970,0.753,-0.406,0.045,-60.5,46.8,-78.3,-0.5,32.5,-11.8,0.346140934,0.444318979,-0.436902982,0.701284829
776,1947773,355970,0.725,-0.402,0.034,-58.3,46.7,-82.4,-0.8,32.5,-11.2,0.348399304,0.443952757,-0.436658834,0.700582904
777,1949829,355970,0.71,-0.39,0.03,-55.7,45.6,-84.3,-0.8,32.5,-11.2,0.350657674,0.443647572,-0.436353648,0.699850459
778,1952882,355970,0.713,-0.374,0.03,-53.1,43,-82.9,-0.8,32.5,-11.2,0.352855007,0.443372906,-0.436017945,0.699118015
779,1954284,355980,0.717,-0.366,0.022,-50.8,38.9,-79.2,-0.8,32.5,-11.2,0.354930265,0.443128758,-0.435743278,0.698385571
780,1956594,355980,0.706,-0.35,0.026,-49.4,33.9,-74.7,-1,32.7,-10.7,0.356852931,0.442945647,-0.43549913,0.697683645
781,1959806,355980,0.721,-0.347,0.022,-49.5,28.7,-71.4,-1,32.7,-10.7,0.35871456,0.442793054,-0.435346538,0.696920682
782,1963023,355980,0.741,-0.335,0.03,-51.3,23.8,-70.2,-1,32.7,-10.7,0.360484634,0.442701498,-0.435254982,0.696096683
783,1965172,355990,0.761,-0.316,0.029,-54.5,19.8,-71.1,-1,32.7,-10.7,0.362285226,0.442640461,-0.435224464,0.695211646
784,1966546,355990,0.784,-0.313,0.044,-58.6,16.8,-72.9,-1.4,32.7,-10.8,0.364116337,0.442609943,-0.435285501,0.694235054
785,1970305,355990,0.773,-0.289,0.068,-63,15.1,-74.1,-1.4,32.7,-10.8,0.366008484,0.442579424,-0.435407575,0.693197424
786,1972494,355990,0.753,-0.269,0.092,-67.6,14.5,-73.5,-1.4,32.7,-10.8,0.367900632,0.442518387,-0.435590686,0.692098758
787,1975324,356000,0.73,-0.276,0.096,-72.9,14.2,-70.9,-1.4,32.7,-10.8,0.369823298,0.442396313,-0.435895871,0.691000092
788,1976852,356000,0.73,-0.276,0.096,-72.9,14.2,-70.9,-1.4,32.7,-10.8,0.369823298,0.442396313,-0.435895871,0.691000092
789,1980499,356000,0.73,-0.339,0.089,-86.9,12.6,-63.2,-1.4,32.7,-10.8,0.371715445,0.442091128,-0.436506241,0.689779351
790,1982069,356000,0.737,-0.362,0.092,-86.9,12.6,-63.2,-1.4,32.7,-10.8,0.373638112,0.441816462,-0.437086093,0.688558611
791,1985176,356010,0.741,-0.401,0.104,-100.4,10.7,-59.9,-1.4,32.7,-10.8,0.377513962,0.44102298,-0.438673055,0.6859035
792,1987379,356010,0.741,-0.401,0.104,-100.4,10.7,-59.9,-1.4,32.7,-10.8,0.377513962,0.44102298,-0.438673055,0.6859035
793,1990482,356010,0.741,-0.429,0.1,-106.6,11.1,-59.8,-2.1,33.4,-10.1,0.379558702,0.440565203,-0.43958861,0.684499649
794,1991820,356010,0.741,-0.444,0.112,-106.6,11.1,-59.8,-2.1,33.4,-10.1,0.381572924,0.440076907,-0.440504166,0.683095798
795,1995055,356020,0.737,-0.452,0.12,-107.8,11.3,-57.2,-2.1,33.4,-10.1,0.385601367,0.439069796,-0.442426832,0.680257576
796,1997196,356020,0.737,-0.452,0.12,-107.8,11.3,-57.2,-2.1,33.4,-10.1,0.385601367,0.439069796,-0.442426832,0.680257576
797,1999076,356020,0.741,-0.472,0.128,-110.4,9.3,-52.1,-2.3,33.3,-9.9,0.387524033,0.438489944,-0.443464461,0.678853725
798,2002288,356020,0.741,-0.472,0.124,-110.4,9.3,-52.1,-2.3,33.3,-9.9,0.389446699,0.437910092,-0.444532609,0.677419355
799,2004413,356030,0.753,-0.484,0.128,-113,7.5,-49,-2.3,33.3,-9.9,0.391308329,0.437330241,-0.445661794,0.675984985
800,2007523,356030,0.745,-0.487,0.12,-116,5.4,-46,-2.3,33.3,-9.9,0.393139439,0.436689352,-0.446882534,0.674520096
801,2009399,356030,0.753,-0.488,0.128,-121.8,1.3,-39.8,-2.7,33.5,-9.9,0.394909513,0.436017945,-0.448286386,0.672994171
802,2012640,356030,0.768,-0.492,0.123,-124.1,-0.4,-36.9,-2.7,33.5,-9.9,0.396618549,0.435316019,-0.449751274,0.671437727
803,2015088,356040,0.78,-0.496,0.127,-124.1,-0.4,-36.9,-2.7,33.5,-9.9,0.398327586,0.434614093,-0.451246681,0.669911802
804,2017112,356040,0.796,-0.496,0.127,-125.6,-2,-33.9,-2.7,33.5,-9.9,0.400006104,0.433881649,-0.452772607,0.668355358
805,2020252,356040,0.823,-0.504,0.126,-126.2,-4.1,-28.6,-3.1,33.9,-10.3,0.401562548,0.433118686,-0.454359569,0.666798914
806,2022270,356040,0.831,-0.504,0.126,-125,-4.5,-26.2,-3.1,33.9,-10.3,0.403088473,0.432355724,-0.45597705,0.665303507
807,2025779,356050,0.843,-0.505,0.134,-122.8,-4.5,-23.9,-3.1,33.9,-10.3,0.404553362,0.431562243,-0.457564013,0.6638081
808,2027675,356050,0.846,-0.509,0.13,-122.8,-4.5,-23.9,-3.1,33.9,-10.3,0.40601825,0.43079928,-0.459150975,0.662343211
809,2029131,356050,0.846,-0.509,0.13,-122.8,-4.5,-23.9,-3.1,33.9,-10.3,0.40601825,0.43079928,-0.459150975,0.662343211
810,2032904,356050,0.862,-0.501,0.145,-112.6,-3.7,-16.9,-2.6,34.4,-8.4,0.406811731,0.429731132,-0.461195715,0.661122471
811,2034243,356060,0.858,-0.485,0.149,-109.3,-4.2,-15.1,-2.6,34.4,-8.4,0.408001953,0.428968169,-0.462660604,0.659840693
812,2037368,356060,0.858,-0.485,0.149,-106.4,-5.3,-13.6,-2.6,34.4,-8.4,0.409161657,0.428205206,-0.464094974,0.658589434
813,2040271,356060,0.87,-0.485,0.153,-104.2,-7.1,-12.3,-2.6,34.4,-8.4,0.410229804,0.427533799,-0.465559862,0.657368694
814,2041725,356060,0.87,-0.485,0.153,-104.2,-7.1,-12.3,-2.6,34.4,-8.4,0.410229804,0.427533799,-0.465559862,0.657368694
815,2045200,356070,0.862,-0.481,0.145,-101.2,-11.5,-10.8,-3.2,34.3,-7.9,0.412244026,0.426221503,-0.46845912,0.654896695
816,2047249,356070,0.862,-0.497,0.145,-99.9,-13.4,-10.1,-3.2,34.3,-7.9,0.413159581,0.425641652,-0.46989349,0.653645436
817,2050067,356070,0.862,-0.505,0.137,-98.2,-15,-9.5,-3.2,34.3,-7.9,0.414075137,0.4250618,-0.471358379,0.652424696
818,2052912,356070,0.862,-0.505,0.137,-98.2,-15,-9.5,-3.2,34.3,-7.9,0.414075137,0.4250618,-0.471358379,0.652424696
819,2054441,356080,0.854,-0.513,0.134,-96.1,-16.6,-8.9,-3,34.8,-7.7,0.414899136,0.424512467,-0.472792749,0.651203955
820,2056683,356080,0.854,-0.52,0.13,-90.2,-19.4,-7.7,-3,34.8,-7.7,0.41645558,0.423566393,-0.475569933,0.648792993
821,2059672,356080,0.862,-0.528,0.129,-86.7,-20.6,-7.3,-3,34.8,-7.7,0.417126988,0.423139134,-0.476912748,0.64763329
822,2062902,356080,0.862,-0.528,0.129,-86.7,-20.6,-7.3,-3,34.8,-7.7,0.417126988,0.423139134,-0.476912748,0.64763329
823,2064977,356090,0.854,-0.528,0.126,-82.9,-21.6,-7.1,-3.2,34.9,-7.2,0.417767876,0.422742393,-0.478225043,0.646504105
824,2066838,356090,0.854,-0.536,0.126,-79,-22.4,-6.8,-3.2,34.9,-7.2,0.418378246,0.422437208,-0.479476302,0.645405438
825,2070116,356090,0.854,-0.524,0.134,-71.4,-24,-6.6,-3.2,34.9,-7.2,0.419415876,0.421887875,-0.481856746,0.64333018
826,2071651,356090,0.854,-0.524,0.134,-71.4,-24,-6.6,-3.2,34.9,-7.2,0.419415876,0.421887875,-0.481856746,0.64333018
827,2074854,356100,0.85,-0.536,0.141,-68.3,-25,-6.7,-3.3,34.4,-6.9,0.419873653,0.421674245,-0.482985931,0.642323069
828,2077988,356100,0.862,-0.556,0.137,-66,-26,-7,-3.3,34.4,-6.9,0.420300913,0.421521653,-0.484084597,0.641315958
829,2080100,356100,0.862,-0.556,0.133,-64.2,-27.1,-7.3,-3.3,34.4,-6.9,0.420697653,0.421399579,-0.485152745,0.640308847
830,2081766,356100,0.866,-0.56,0.141,-62.6,-28.2,-7.5,-3.3,34.4,-6.9,0.421094394,0.421277505,-0.486220893,0.639332255
831,2085232,356110,0.866,-0.56,0.141,-62.6,-28.2,-7.5,-3.3,34.4,-6.9,0.421094394,0.421277505,-0.486220893,0.639332255
832,2086696,356110,0.878,-0.568,0.149,-55.9,-31.4,-6.7,-3,35.7,-4.8,0.419904172,0.419995727,-0.488631855,0.639088107
833,2089181,356110,0.882,-0.572,0.157,-55.9,-31.4,-6.7,-3,35.7,-4.8,0.420178838,0.419995727,-0.489638966,0.638142033
834,2093056,356110,0.893,-0.568,0.152,-53,-32.2,-5.9,-3,35.7,-4.8,0.420392468,0.419995727,-0.490615558,0.637226478
835,2095282,356120,0.901,-0.572,0.156,-49.8,-32.8,-5.1,-3,35.7,-4.8,0.420575579,0.420056764,-0.491592151,0.636341441
836,2096880,356120,0.913,-0.564,0.164,-43.4,-33.6,-3.1,-3.5,35,-7,0.420667135,0.42014832,-0.492446669,0.63554796
837,2099241,356120,0.925,-0.557,0.168,-43.4,-33.6,-3.1,-3.5,35,-7,0.42075869,0.420270394,-0.493331706,0.634754479
838,2101566,356120,0.932,-0.557,0.171,-40.3,-33.8,-1.8,-3.5,35,-7,0.420789209,0.420392468,-0.494186224,0.633991516
839,2106264,356130,0.948,-0.549,0.171,-37.3,-33.9,-0.6,-3.5,35,-7,0.42075869,0.420514542,-0.495010224,0.633259072
840,2108591,356130,0.952,-0.541,0.179,-31.8,-33.4,2.2,-3.5,35,-7,0.420667135,0.420667135,-0.495773186,0.632648701
841,2110424,356130,0.956,-0.538,0.183,-31.8,-33.4,2.2,-3.5,35,-7,0.420575579,0.420819727,-0.496536149,0.632007813
842,2112483,356130,0.968,-0.526,0.19,-29.1,-33,3.6,-3.5,35,-7,0.420392468,0.420941801,-0.497299112,0.631427961
843,2114406,356140,0.976,-0.514,0.19,-26.4,-32.5,5,-3.5,35,-7,0.420239875,0.421094394,-0.498001038,0.630878628
844,2116635,356140,0.983,-0.503,0.19,-21.1,-31.4,7.6,-3.5,35,-7,0.419995727,0.421246986,-0.498641926,0.63042085
845,2120508,356140,0.995,-0.495,0.19,-21.1,-31.4,7.6,-3.5,35,-7,0.419721061,0.421430097,-0.499282815,0.629993591
846,2122719,356140,0.999,-0.487,0.205,-18.4,-30.6,8.8,-3.5,35,-7,0.419446394,0.42158269,-0.499923704,0.629566332
847,2125009,356150,1.003,-0.48,0.205,-15.7,-29.7,10,-3.5,35,-7,0.419141209,0.421735282,-0.500503555,0.629230628
848,2127427,356150,1.003,-0.472,0.205,-11.5,-27.8,12.2,-3.5,35,-7,0.418774987,0.421857356,-0.50102237,0.628955962
849,2129307,356150,1.015,-0.456,0.209,-11.5,-27.8,12.2,-3.5,35,-7,0.418408765,0.422009949,-0.501541185,0.628681295
850,2131616,356150,1.019,-0.453,0.205,-9.9,-27,13.3,-3.5,35,-7,0.418012024,0.422132023,-0.502059999,0.628437147
851,2134975,356160,1.019,-0.453,0.205,-8.6,-26.2,14.3,-3.5,35,-7,0.417615284,0.422284616,-0.502548296,0.628254036
852,2136925,356160,1.019,-0.453,0.205,-8.6,-26.2,14.3,-3.5,35,-7,0.417615284,0.422284616,-0.502548296,0.628254036
853,2140046,356160,1.011,-0.445,0.193,-6.8,-24,16.5,-3.2,36.3,-3.9,0.417188025,0.422345653,-0.503006073,0.628101444
854,2142250,356160,1.015,-0.445,0.181,-5.5,-20.8,18.6,-3.2,36.3,-3.9,0.416333506,0.422437208,-0.50389111,0.627887814
855,2144287,356170,1.015,-0.445,0.181,-4.6,-19.1,19.3,-3.2,36.3,-3.9,0.415875729,0.422437208,-0.504318369,0.627857295
856,2146556,356170,1.015,-0.445,0.181,-4.6,-19.1,19.3,-3.2,36.3,-3.9,0.415875729,0.422437208,-0.504318369,0.627857295
857,2150004,356170,1.019,-0.445,0.177,-3.5,-17.7,19.9,-2.8,35.5,-5.9,0.415448469,0.422437208,-0.50471511,0.627826777
858,2152303,356170,1.019,-0.437,0.169,-1.2,-15.3,21,-2.8,35.5,-5.9,0.414532914,0.422345653,-0.505417035,0.627857295
859,2154471,356180,1.019,-0.433,0.173,-0.1,-14.6,21.5,-2.8,35.5,-5.9,0.414105655,0.422345653,-0.505752739,0.627918332
860,2156665,356180,1.019,-0.433,0.173,-0.1,-14.6,21.5,-2.8,35.5,-5.9,0.414105655,0.422345653,-0.505752739,0.627918332
861,2160692,356180,1.023,-0.425,0.173,0.8,-14,22.1,-3.1,36.2,-5.9,0.413647877,0.422315134,-0.506088443,0.628009888
862,2162935,356180,1.027,-0.422,0.173,2.4,-13.2,23.3,-3.1,36.2,-5.9,0.412671285,0.42219306,-0.506668294,0.628223518
863,2165048,356190,1.031,-0.418,0.173,3,-12.9,23.8,-3.1,36.2,-5.9,0.412182989,0.422132023,-0.506973479,0.628345592
864,2166715,356190,1.031,-0.418,0.173,3,-12.9,23.8,-3.1,36.2,-5.9,0.412182989,0.422132023,-0.506973479,0.628345592
865,2169103,356190,1.031,-0.406,0.173,3.5,-12.6,24.1,-3,36.2,-6,0.411664174,0.422070986,-0.507278665,0.628498184
866,2172618,356190,1.038,-0.394,0.181,4.4,-11.8,24.5,-3,36.2,-6,0.410626545,0.421948912,-0.507827998,0.628803369
867,2174330,356200,1.035,-0.394,0.177,5,-11.2,24.8,-3,36.2,-6,0.410138249,0.421857356,-0.508072146,0.62898648
868,2176661,356200,1.035,-0.394,0.177,5,-11.2,24.8,-3,36.2,-6,0.410138249,0.421857356,-0.508072146,0.62898648
869,2179782,356200,1.038,-0.383,0.181,5.4,-10.5,25.2,-3,36.2,-6,0.409619434,0.421796319,-0.508316294,0.629169591
870,2183196,356200,1.038,-0.375,0.177,6.3,-9.3,25.4,-3,36.2,-6,0.408612323,0.42158269,-0.508774071,0.629566332
871,2184989,356210,1.031,-0.363,0.181,6.8,-8.6,25.5,-3,36.2,-6,0.408093509,0.421491134,-0.50901822,0.62981048
872,2186565,356210,1.031,-0.363,0.181,6.8,-8.6,25.5,-3,36.2,-6,0.408093509,0.421491134,-0.50901822,0.62981048
873,2190573,356210,1.031,-0.351,0.181,7.7,-7.3,25.5,-2.6,35.8,-5.2,0.407605213,0.42136906,-0.509201331,0.630054628
874,2192627,356210,1.035,-0.344,0.177,8.2,-6.9,25.5,-2.6,35.8,-5.2,0.407086398,0.421246986,-0.509384442,0.630298776
875,2194815,356220,1.031,-0.343,0.181,8.2,-6.9,25.5,-2.6,35.8,-5.2,0.406598102,0.421155431,-0.509567553,0.630542924
876,2196773,356220,1.035,-0.34,0.181,8.5,-6.5,25.3,-2.6,35.8,-5.2,0.406079287,0.421033357,-0.509750664,0.630817591
877,2199155,356220,1.031,-0.328,0.181,9.2,-5.6,24.8,-2.8,36,-5.1,0.405590991,0.420911283,-0.509903256,0.631092257
878,2201594,356220,1.027,-0.328,0.181,9.5,-4.8,24.5,-2.8,36,-5.1,0.405133213,0.420789209,-0.51002533,0.631366924
879,2204190,356230,1.023,-0.328,0.177,9.5,-4.8,24.5,-2.8,36,-5.1,0.404644917,0.420667135,-0.510177923,0.631641591
880,2207790,356230,1.023,-0.324,0.185,9.8,-3.8,24.2,-2.8,36,-5.1,0.404156621,0.420545061,-0.510299997,0.631916257
881,2209301,356230,1.015,-0.32,0.177,9.6,-1.8,23.5,-2.9,35.9,-5.6,0.403729362,0.420392468,-0.510391552,0.632221442
882,2211725,356230,1.011,-0.316,0.177,9.3,-1,23.1,-2.9,35.9,-5.6,0.403332621,0.420239875,-0.510483108,0.632526627
883,2214060,356240,1.007,-0.316,0.177,9.3,-1,23.1,-2.9,35.9,-5.6,0.402905362,0.420056764,-0.510574664,0.632831812
884,2218656,356240,1.004,-0.316,0.177,8.8,-0.3,22.7,-2.9,35.9,-5.6,0.402508621,0.419904172,-0.510666219,0.633106479
885,2220760,356240,0.992,-0.312,0.174,7.7,1.5,22,-3,36.4,-5.2,0.402142399,0.419690542,-0.510757775,0.633411664
886,2223027,356240,0.988,-0.308,0.174,7,2.7,21.8,-3,36.4,-5.2,0.401806696,0.419476913,-0.510818812,0.633716849
887,2225373,356250,0.976,-0.307,0.17,7,2.7,21.8,-3,36.4,-5.2,0.401470992,0.419263283,-0.510910367,0.633991516
888,2227734,356250,0.968,-0.311,0.166,6.4,3.7,21.6,-3,36.4,-5.2,0.401165807,0.419019135,-0.510971404,0.634296701
889,2229810,356250,0.953,-0.311,0.159,4.8,5.4,21.2,-1.6,34.8,-5.2,0.400860622,0.418744469,-0.51106296,0.634601886
890,2232012,356250,0.953,-0.319,0.155,4,6,20.8,-1.6,34.8,-5.2,0.400616474,0.418439283,-0.511154515,0.634876553
891,2234192,356260,0.949,-0.323,0.151,4,6,20.8,-1.6,34.8,-5.2,0.400372326,0.418195135,-0.511215552,0.635151219
892,2238048,356260,0.949,-0.319,0.151,3.1,6.5,20.3,-1.6,34.8,-5.2,0.400128178,0.41788995,-0.511307108,0.635425886
893,2240924,356260,0.949,-0.319,0.151,3.1,6.5,20.3,-1.6,34.8,-5.2,0.400128178,0.41788995,-0.511307108,0.635425886
894,2243221,356260,0.917,-0.33,0.152,1.8,7,18.9,-3.3,36.1,-5.2,0.39988403,0.417584765,-0.511398663,0.635700552
895,2245276,356270,0.917,-0.338,0.144,1.8,7.2,18.4,-3.3,36.1,-5.2,0.399700919,0.41727958,-0.511490219,0.6359447
896,2247542,356270,0.91,-0.334,0.148,1.8,7.2,18.4,-3.3,36.1,-5.2,0.399517808,0.417004913,-0.511581774,0.636188849
897,2249768,356270,0.906,-0.334,0.148,1.8,7.3,17.9,-3.3,36.1,-5.2,0.399334696,0.416699728,-0.511642811,0.636432997
898,2251809,356270,0.898,-0.345,0.148,1.7,7.3,17,-3.5,36.4,-5.5,0.399151585,0.416425062,-0.511703848,0.636677145
899,2254074,356280,0.89,-0.349,0.148,1.6,7.3,16.5,-3.5,36.4,-5.5,0.398998993,0.416150395,-0.511764885,0.636890774
900,2256552,356280,0.894,-0.353,0.148,1.6,7.3,16.5,-3.5,36.4,-5.5,0.3988464,0.415875729,-0.511825922,0.637134922
901,2260109,356280,0.894,-0.349,0.144,1.4,7.3,16,-3.5,36.4,-5.5,0.398663289,0.415631581,-0.511886959,0.637348552
902,2262390,356280,0.89,-0.353,0.144,1.6,7,15.1,-3.5,36.4,-5.2,0.398541215,0.415356914,-0.511947996,0.637562181
903,2264593,356290,0.886,-0.353,0.144,1.8,6.8,14.6,-3.5,36.4,-5.2,0.398388623,0.415112766,-0.512009033,0.637775811
904,2267674,356290,0.89,-0.357,0.14,1.8,6.8,14.6,-3.5,36.4,-5.2,0.39823603,0.414868618,-0.512039552,0.637989441
905,2269923,356290,0.89,-0.353,0.144,2,6.7,14.2,-3.5,36.4,-5.2,0.398113956,0.414654988,-0.512100589,0.63820307
906,2272111,356290,0.894,-0.357,0.144,2.8,6.5,13.5,-3.4,36.3,-5.2,0.397961364,0.41441084,-0.512131108,0.6384167
907,2275083,356300,0.898,-0.349,0.144,3.2,6.3,13.2,-3.4,36.3,-5.2,0.397808771,0.414227729,-0.512131108,0.638599811
908,2276545,356300,0.894,-0.353,0.14,3.2,6.3,13.2,-3.4,36.3,-5.2,0.397686697,0.4140141,-0.512161626,0.63881344
909,2279387,356300,0.906,-0.349,0.136,3.6,6.1,12.9,-3.4,36.3,-5.2,0.397534104,0.41380047,-0.512161626,0.63902707
910,2282542,356300,0.906,-0.345,0.136,4.2,5.9,12.4,-1.4,35.3,-5.3,0.397381512,0.413617359,-0.512161626,0.639240699
911,2284028,356310,0.906,-0.338,0.144,4.2,5.9,12.4,-1.4,35.3,-5.3,0.397228919,0.413434248,-0.512161626,0.639454329
912,2286789,356310,0.906,-0.338,0.136,4.4,5.7,12.3,-1.4,35.3,-5.3,0.397076327,0.413251137,-0.512161626,0.639667959
913,2289356,356310,0.913,-0.334,0.136,4.6,5.6,12.2,-1.4,35.3,-5.3,0.396954253,0.413098544,-0.512161626,0.63985107
914,2292819,356310,0.913,-0.334,0.136,4.6,5.6,12.2,-1.4,35.3,-5.3,0.396954253,0.413098544,-0.512161626,0.63985107
915,2294775,356320,0.917,-0.318,0.136,4,4.9,12,-2.7,36,-5.7,0.396710105,0.412793359,-0.512253182,0.640125736
916,2297645,356320,0.917,-0.314,0.128,4,4.9,12,-2.7,36,-5.7,0.396557512,0.412640767,-0.512253182,0.640339366
917,2299016,356320,0.921,-0.314,0.136,3.7,4.6,11.8,-2.7,36,-5.7,0.39640492,0.412457656,-0.512253182,0.640522477
918,2302229,356320,0.917,-0.311,0.132,3.6,4.3,11.6,-2.7,36,-5.7,0.396252327,0.412305063,-0.5122837,0.640705588
919,2305123,356330,0.921,-0.307,0.136,3.6,4.2,11.2,-2.6,35.6,-5.4,0.396099734,0.41215247,-0.5122837,0.640888699
920,2306799,356330,0.921,-0.303,0.132,3.6,4.1,10.9,-2.6,35.6,-5.4,0.39597766,0.411999878,-0.512314219,0.641041292
921,2309142,356330,0.921,-0.303,0.136,3.6,4,10.5,-2.6,35.6,-5.4,0.395825068,0.411847285,-0.512314219,0.641224403
922,2312539,356330,0.921,-0.307,0.132,3.6,3.8,10.3,-2.6,35.6,-5.4,0.395702994,0.411725211,-0.512314219,0.641376995
923,2314614,356340,0.917,-0.299,0.128,3.4,3.7,10,-2.1,36.1,-5.6,0.39558092,0.411572619,-0.512344737,0.641529588
924,2317663,356340,0.917,-0.295,0.128,3.1,3.7,9.6,-2.1,36.1,-5.6,0.395458846,0.411450545,-0.512344737,0.64168218
925,2319071,356340,0.917,-0.303,0.132,2.6,3.6,9,-2.1,36.1,-5.6,0.395336772,0.411328471,-0.512344737,0.641834773
926,2322112,356340,0.917,-0.299,0.132,2.1,3.6,8.5,-2.1,36.1,-5.6,0.395245216,0.411206397,-0.512375256,0.641956847
927,2325348,356350,0.917,-0.303,0.128,1.6,3.6,7.9,-1.7,35.9,-5.3,0.395153661,0.411053804,-0.512375256,0.642078921
928,2326791,356350,0.917,-0.303,0.136,1.1,3.6,7.4,-1.7,35.9,-5.3,0.395092624,0.41093173,-0.512405774,0.642200995
929,2329099,356350,0.917,-0.307,0.132,0.6,3.7,6.9,-1.7,35.9,-5.3,0.395001068,0.410809656,-0.512436293,0.64229255
930,2333079,356350,0.913,-0.318,0.128,0.2,3.9,6.4,-1.7,35.9,-5.3,0.39497055,0.410687582,-0.512436293,0.642384106
931,2335468,356360,0.91,-0.314,0.128,0,4.1,5.9,-1.7,35.5,-5.6,0.394940031,0.410565508,-0.512466811,0.642475661
932,2337754,356360,0.913,-0.322,0.136,-0.3,4.2,5.5,-1.7,35.5,-5.6,0.394909513,0.410443434,-0.51249733,0.642567217
933,2339794,356360,0.909,-0.342,0.136,-0.4,4.2,4.9,-1.7,35.5,-5.6,0.394878994,0.410199286,-0.512527848,0.64271981
934,2341980,356360,0.909,-0.342,0.136,-0.4,4.2,4.9,-1.7,35.5,-5.6,0.394878994,0.410199286,-0.512527848,0.64271981
935,2345741,356370,0.909,-0.342,0.136,-0.4,4.2,4.9,-1.7,35.5,-5.6,0.394878994,0.410199286,-0.512527848,0.64271981
936,2347828,356370,0.898,-0.33,0.148,-0.1,5.1,3.9,-1.3,35.6,-5.4,0.394848476,0.410077212,-0.512527848,0.642780847
937,2350078,356370,0.894,-0.333,0.152,-0.1,5.6,2.9,-1.3,35.6,-5.4,0.394878994,0.409985656,-0.512527848,0.642841884
938,2352249,356370,0.89,-0.322,0.156,-0.1,5.7,2.1,-1.3,35.6,-5.4,0.394909513,0.409863582,-0.51249733,0.642933439
939,2354337,356380,0.89,-0.322,0.148,-0.4,5.6,1.8,-1.3,35.6,-5.4,0.394940031,0.409772027,-0.512466811,0.642994476
940,2356742,356380,0.886,-0.329,0.152,-1,5,2.3,-1.1,35.6,-5.6,0.39497055,0.409649953,-0.512466811,0.643024995
941,2359066,356380,0.89,-0.341,0.156,-1.8,4.1,2.7,-1.1,35.6,-5.6,0.395001068,0.409558397,-0.512466811,0.643086032
942,2362863,356380,0.894,-0.341,0.148,-3.7,2.3,3.2,-1.1,35.6,-5.6,0.395001068,0.409344768,-0.512588885,0.64311655
943,2365148,356390,0.894,-0.341,0.148,-3.7,2.3,3.2,-1.1,35.6,-5.6,0.395001068,0.409344768,-0.512588885,0.64311655
944,2367312,356390,0.894,-0.345,0.152,-4.6,1.7,3,-0.9,35.4,-5.3,0.395062105,0.409253212,-0.512649922,0.643086032
945,2369345,356390,0.894,-0.357,0.148,-5.1,1.3,2.6,-0.9,35.4,-5.3,0.395062105,0.409161657,-0.512741478,0.643086032
946,2372469,356390,0.894,-0.357,0.152,-5.2,0.7,2.2,-0.9,35.4,-5.3,0.395123142,0.408978545,-0.51289407,0.643024995
947,2375425,356400,0.894,-0.357,0.152,-5.2,0.7,2.2,-0.9,35.4,-5.3,0.395123142,0.408978545,-0.51289407,0.643024995
948,2377175,356400,0.894,-0.361,0.148,-4.9,0.5,2.3,-1.2,35.4,-5.8,0.395153661,0.408917508,-0.512985626,0.642994476
949,2379341,356400,0.894,-0.365,0.144,-4.8,0.2,2.4,-1.2,35.4,-5.8,0.395153661,0.408825953,-0.513077181,0.642963958
950,2381734,356400,0.898,-0.365,0.152,-4.6,-0.5,2.5,-1.2,35.4,-5.8,0.395153661,0.40867336,-0.513260292,0.642902921
951,2385430,356410,0.898,-0.365,0.152,-4.6,-0.5,2.5,-1.2,35.4,-5.8,0.395153661,0.40867336,-0.513260292,0.642902921
952,2387471,356410,0.898,-0.369,0.148,-4.5,-0.8,2.4,-2.3,35.7,-5.3,0.395153661,0.408642842,-0.513351848,0.642841884
953,2390626,356410,0.898,-0.373,0.152,-4.4,-1.1,2.4,-2.3,35.7,-5.3,0.395153661,0.408612323,-0.513443403,0.642811365
954,2392824,356410,0.902,-0.373,0.14,-3.7,-1.7,2.7,-2.3,35.7,-5.3,0.395092624,0.408520768,-0.513626514,0.642750328
955,2394168,356420,0.902,-0.373,0.14,-3.7,-1.7,2.7,-2.3,35.7,-5.3,0.395092624,0.408520768,-0.513626514,0.642750328
956,2396682,356420,0.902,-0.373,0.14,-3.7,-1.7,2.7,-2.3,35.7,-5.3,0.395092624,0.408520768,-0.513626514,0.642750328
957,2400733,356420,0.902,-0.381,0.148,-2.7,-2.3,2.9,-0.7,35.7,-5.2,0.394787439,0.408093509,-0.5139317,0.642994476
958,2402634,356420,0.902,-0.381,0.144,-2.2,-2.6,2.9,-0.7,35.7,-5.2,0.394726402,0.40806299,-0.514023255,0.642963958
959,2404829,356430,0.902,-0.381,0.144,-1.5,-3.3,3.2,-0.7,35.7,-5.2,0.394604328,0.40806299,-0.514175848,0.642933439
960,2406695,356430,0.902,-0.381,0.144,-1.5,-3.3,3.2,-0.7,35.7,-5.2,0.394604328,0.40806299,-0.514175848,0.642933439
961,2411666,356430,0.909,-0.381,0.148,-1.1,-3.8,3.4,-0.8,35.8,-5.4,0.394512772,0.40806299,-0.514236885,0.642902921
962,2411666,356430,0.906,-0.377,0.152,0,-4.6,3.8,-0.8,35.8,-5.4,0.394299142,0.408093509,-0.514389477,0.642872402
963,2414204,356440,0.906,-0.377,0.152,0.6,-4.9,4,-0.8,35.8,-5.4,0.394207587,0.408124027,-0.514481033,0.642872402
964,2417511,356440,0.906,-0.377,0.152,0.6,-4.9,4,-0.8,35.8,-5.4,0.394207587,0.408124027,-0.514481033,0.642872402
965,2419405,356440,0.909,-0.369,0.148,1.2,-5.4,4.2,-0.8,35.8,-5.4,0.394054994,0.408185064,-0.51454207,0.642902921
966,2421528,356440,0.909,-0.369,0.144,2.3,-6.1,4.5,-0.8,35.8,-5.4,0.393780328,0.40827662,-0.514664144,0.642902921
967,2424759,356450,0.909,-0.369,0.144,2.3,-6.1,4.5,-0.8,35.8,-5.4,0.393627735,0.408337657,-0.514725181,0.642902921
968,2426962,356450,0.909,-0.369,0.144,2.3,-6.1,4.5,-0.8,35.8,-5.4,0.393627735,0.408337657,-0.514725181,0.642902921
969,2429172,356450,0.913,-0.361,0.152,3.9,-6.9,5.2,-0.8,35.8,-5.4,0.393261513,0.408459731,-0.514816736,0.642963958
970,2432541,356450,0.909,-0.357,0.148,4.3,-7,5.3,-0.8,35.8,-5.4,0.393047884,0.408551286,-0.514877773,0.642994476
971,2434659,356460,0.909,-0.357,0.148,4.3,-7,5.3,-0.8,35.8,-5.4,0.392864772,0.408612323,-0.514908292,0.643024995
972,2437632,356460,0.909,-0.357,0.148,4.3,-7,5.3,-0.8,35.8,-5.4,0.392864772,0.408612323,-0.514908292,0.643024995
973,2439613,356460,0.913,-0.349,0.152,5.8,-7,5.6,-1.9,35.6,-5.3,0.392437513,0.408795434,-0.514999847,0.64311655
974,2442765,356460,0.917,-0.35,0.144,5.8,-7,5.6,-1.9,35.6,-5.3,0.392223884,0.40888699,-0.515030366,0.643177587
975,2444945,356470,0.917,-0.353,0.156,6.1,-7,5.7,-1.9,35.6,-5.3,0.392010254,0.408948027,-0.515030366,0.643238624
976,2447762,356470,0.917,-0.353,0.156,6.1,-7,5.7,-1.9,35.6,-5.3,0.392010254,0.408948027,-0.515030366,0.643238624
977,2449392,356470,0.917,-0.353,0.156,6.1,-7,5.7,-1.9,35.6,-5.3,0.392010254,0.408948027,-0.515030366,0.643238624
978,2451734,356470,0.917,-0.346,0.148,7.1,-6.7,6,-1.9,35.6,-5.3,0.39149144,0.408825953,-0.515030366,0.643635365
979,2455745,356480,0.921,-0.35,0.144,7.3,-6.7,6,-1.9,35.6,-5.3,0.39127781,0.40888699,-0.515060884,0.64372692
980,2457284,356480,0.917,-0.349,0.152,7.3,-6.7,6,-1.9,35.6,-5.3,0.391033662,0.408978545,-0.515060884,0.643787957
981,2459147,356480,0.917,-0.349,0.152,7.3,-6.7,6,-1.9,35.6,-5.3,0.391033662,0.408978545,-0.515060884,0.643787957
982,2462018,356480,0.917,-0.346,0.14,8.1,-6.3,6.4,-1.2,35.5,-5.6,0.390575884,0.409161657,-0.515060884,0.643971068
983,2464378,356490,0.925,-0.35,0.144,8.1,-6.3,6.4,-1.2,35.5,-5.6,0.390362255,0.409253212,-0.515060884,0.644062624
984,2466673,356490,0.921,-0.35,0.136,8.4,-6.2,6.5,-1.2,35.5,-5.6,0.390118107,0.409344768,-0.515030366,0.64415418
985,2470485,356490,0.921,-0.35,0.136,8.4,-6.2,6.5,-1.2,35.5,-5.6,0.390118107,0.409344768,-0.515030366,0.64415418
986,2472944,356490,0.921,-0.354,0.136,9,-6,6.8,-1.1,35.8,-5.4,0.38962981,0.40949736,-0.515030366,0.644367809
987,2474817,356500,0.921,-0.35,0.136,9,-6,6.8,-1.1,35.8,-5.4,0.389385662,0.409588916,-0.514999847,0.644459365
988,2477985,356500,0.921,-0.354,0.14,9.2,-6,6.8,-1.1,35.8,-5.4,0.389141514,0.409680471,-0.514969329,0.644581439
989,2480144,356500,0.925,-0.354,0.14,9.7,-6,7.1,-1.1,35.8,-5.4,0.388866848,0.409772027,-0.514969329,0.644703513
990,2482229,356500,0.929,-0.35,0.132,9.8,-6.2,7.2,-1.1,35.8,-5.4,0.3886227,0.409863582,-0.51493881,0.644795068
991,2486159,356510,0.925,-0.354,0.136,9.8,-6.2,7.2,-1.1,35.8,-5.4,0.388348033,0.409955138,-0.514908292,0.644917142
992,2488573,356510,0.925,-0.35,0.136,10,-6.3,7.3,-1.1,35.8,-5.4,0.388103885,0.410046693,-0.514908292,0.645039216
993,2490222,356510,0.933,-0.346,0.136,10.3,-6.4,7.3,-1.3,35.6,-5.2,0.387829218,0.410138249,-0.514877773,0.64516129
994,2492648,356510,0.929,-0.35,0.136,10.3,-6.4,7.3,-1.3,35.6,-5.2,0.387554552,0.410229804,-0.514847255,0.645283364
995,2494154,356520,0.933,-0.35,0.136,10.4,-6.3,7.3,-1.3,35.6,-5.2,0.387279885,0.41032136,-0.514816736,0.645405438
996,2497720,356520,0.937,-0.346,0.14,10.5,-6.2,7.4,-1.3,35.6,-5.2,0.387005219,0.410412915,-0.514786218,0.645496994
997,2499762,356520,0.937,-0.346,0.14,10.5,-6.2,7.4,-1.3,35.6,-5.2,0.387005219,0.410412915,-0.514786218,0.645496994
998,2501866,356520,0.941,-0.35,0.143,10.6,-6.5,7.7,-1.3,35.9,-5.8,0.386730552,0.410504471,-0.514755699,0.645680105
999,2504061,356530,0.941,-0.342,0.139,10.7,-6.6,7.7,-1.3,35.9,-5.8,0.386455885,0.410596026,-0.514725181,0.645802179
1000,2507565,356530,0.945,-0.346,0.139,10.7,-6.6,7.7,-1.3,35.9,-5.8,0.386181219,0.410687582,-0.514694662,0.645924253
1001,2509329,356530,0.941,-0.35,0.143,10.8,-6.5,7.8,-1.3,35.9,-5.8,0.385906552,0.410779138,-0.514664144,0.646046327
1002,2511615,356530,0.945,-0.338,0.139,10.6,-6.3,7.9,-1.2,35.4,-4,0.385631886,0.410870693,-0.514633625,0.64619892
1003,2515316,356540,0.949,-0.342,0.143,10.6,-6.3,7.9,-1.2,35.4,-4,0.385326701,0.410962249,-0.514633625,0.646320994
1004,2516710,356540,0.945,-0.334,0.139,10.5,-6.3,7.9,-1.2,35.4,-4,0.385052034,0.411053804,-0.514603107,0.646443068
1005,2520054,356540,0.945,-0.338,0.143,10.4,-6.3,7.9,-1.2,35.4,-4,0.384777367,0.41114536,-0.514572588,0.646565142
1006,2522218,356540,0.949,-0.342,0.139,10.3,-6.5,7.9,-0.8,35.8,-3.5,0.384502701,0.411236915,-0.51454207,0.646687216
1007,2524027,356550,0.949,-0.342,0.139,10.3,-6.5,7.9,-0.8,35.8,-3.5,0.384228034,0.411328471,-0.51454207,0.64680929
1008,2526565,356550,0.953,-0.331,0.147,10.2,-6.3,7.9,-0.8,35.8,-3.5,0.383953368,0.411420026,-0.514511551,0.646961882
1009,2529760,356550,0.952,-0.338,0.147,10.2,-6.2,7.9,-0.8,35.8,-3.5,0.383678701,0.411481063,-0.514481033,0.647083956
1010,2533510,356550,0.949,-0.334,0.143,10.2,-6,7.8,-1.6,35.6,-7.9,0.383404035,0.411572619,-0.514481033,0.64720603
1011,2535674,356560,0.952,-0.335,0.143,10.2,-5.9,7.6,-1.6,35.6,-7.9,0.383129368,0.411664174,-0.514450514,0.647328104
1012,2537696,356560,0.953,-0.331,0.147,10.2,-5.7,7.5,-1.6,35.6,-7.9,0.38288522,0.41175573,-0.514419996,0.647450179
1013,2539200,356560,0.956,-0.331,0.147,10.2,-5.6,7.4,-1.6,35.6,-7.9,0.382610553,0.411816767,-0.514389477,0.647572253
1014,2543112,356560,0.953,-0.331,0.147,10,-5.5,7.4,-0.9,35.6,-5.3,0.382366405,0.411908322,-0.514358959,0.647694327
1015,2544637,356570,0.949,-0.331,0.147,10,-5.4,7.3,-0.9,35.6,-5.3,0.382122257,0.411969359,-0.51432844,0.647816401
1016,2548052,356570,0.949,-0.331,0.147,9.8,-5.4,7.1,-0.9,35.6,-5.3,0.381847591,0.412060915,-0.514297922,0.647938475
1017,2549830,356570,0.949,-0.331,0.147,9.8,-5.5,6.9,-0.9,35.6,-5.3,0.381603442,0.41215247,-0.514267403,0.648060549
1018,2551601,356570,0.949,-0.331,0.147,9.8,-5.5,6.9,-0.9,35.6,-5.3,0.381603442,0.41215247,-0.514267403,0.648060549
1019,2555555,356580,0.945,-0.33,0.147,9.7,-5.6,6.8,-0.8,35.7,-5.4,0.38166448,0.4123661,-0.5139317,0.648152104
1020,2557475,356580,0.945,-0.33,0.147,9.6,-5.4,6.7,-0.8,35.7,-5.4,0.381420331,0.412457656,-0.513901181,0.648274178
1021,2559416,356580,0.945,-0.327,0.139,9.5,-5.3,6.7,-0.8,35.7,-5.4,0.381176183,0.412549211,-0.513870663,0.648396252
1022,2562500,356580,0.949,-0.323,0.143,9.4,-5.3,6.6,-0.8,35.7,-5.4,0.380932035,0.41257973,-0.513840144,0.648487808
1023,2564280,356590,0.949,-0.327,0.143,9.4,-5.4,6.5,-1.1,35.7,-6,0.380687887,0.412701804,-0.513809626,0.648609882
1024,2567665,356590,0.949,-0.323,0.147,9.2,-5.3,6.4,-1.1,35.7,-6,0.380474258,0.412793359,-0.513779107,0.648701437
1025,2570158,356590,0.949,-0.323,0.143,9,-5.1,6.4,-1.1,35.7,-6,0.38023011,0.412854396,-0.513748589,0.648823511
1026,2573235,356590,0.949,-0.323,0.139,8.9,-5,6.3,-1.1,35.7,-6,0.38001648,0.412945952,-0.51371807,0.648945585
1027,2575365,356600,0.949,-0.319,0.143,8.9,-4.8,6.1,-1.3,35.3,-5.7,0.379772332,0.413006989,-0.513687551,0.649037141
1028,2577233,356600,0.953,-0.319,0.139,9,-4.6,5.9,-1.3,35.3,-5.7,0.379558702,0.413068026,-0.513657033,0.649159215
1029,2580769,356600,0.949,-0.319,0.139,9.1,-4.4,5.5,-1.3,35.3,-5.7,0.379131443,0.413220618,-0.513565477,0.649372845
1030,2582543,356600,0.949,-0.319,0.139,9.1,-4.4,5.5,-1.3,35.3,-5.7,0.379131443,0.413220618,-0.513565477,0.649372845
1031,2584942,356610,0.949,-0.319,0.135,9.1,-4.4,5.4,-1.1,35.5,-7.2,0.378917814,0.413312174,-0.513534959,0.6494644
1032,2586802,356610,0.949,-0.319,0.131,9,-4.3,5.1,-1.1,35.5,-7.2,0.378734703,0.413403729,-0.513473922,0.649586474
1033,2589186,356610,0.949,-0.319,0.139,8.6,-4,4.6,-1.1,35.5,-7.2,0.378337962,0.413556322,-0.513382366,0.649769585
1034,2592856,356610,0.949,-0.319,0.139,8.6,-4,4.6,-1.1,35.5,-7.2,0.378337962,0.413556322,-0.513382366,0.649769585
1035,2594799,356620,0.949,-0.323,0.135,8.3,-3.8,4.4,-1.1,35.4,-6,0.378154851,0.413617359,-0.513351848,0.649861141
