sample_index,elapsed_us,device_time_ms,acc_x_g,acc_y_g,acc_z_g,gyro_x_dps,gyro_y_dps,gyro_z_dps,mag_x_ut,mag_y_ut,mag_z_ut,quat_w,quat_x,quat_y,quat_z
0,4442,2015950,0.988,0.036,-0.038,0,0.4,0,-34.3,5.8,26.9,0.157353435,0.706869716,-0.134342479,0.676381726
1,5619,2015950,0.985,0.04,-0.034,0,0.4,0.1,-34.3,5.8,26.9,0.157353435,0.706869716,-0.134342479,0.676381726
2,7581,2015950,0.988,0.044,-0.034,0,0.2,0.1,-34.4,5.9,27,0.157353435,0.706869716,-0.134342479,0.676381726
3,10488,2015950,0.988,0.04,-0.038,0.1,0.1,0.1,-34.4,5.9,27,0.157322916,0.706869716,-0.134342479,0.676381726
4,12941,2015960,0.985,0.04,-0.034,0,0,0,-34.4,5.9,27,0.157322916,0.706869716,-0.134342479,0.676381726
5,15151,2015960,0.985,0.044,-0.03,0,0,0,-34.4,5.9,27,0.157322916,0.706869716,-0.13431196,0.676381726
6,17829,2015960,0.981,0.036,-0.038,0,0,-0.1,-35.3,6.2,27.1,0.157322916,0.706869716,-0.13431196,0.676381726
7,21779,2015960,0.985,0.036,-0.026,0,0,0,-35.3,6.2,27.1,0.157353435,0.706869716,-0.13431196,0.676381726
8,24061,2015970,0.985,0.04,-0.034,0,0,0,-35.3,6.2,27.1,0.157353435,0.706869716,-0.13431196,0.676381726
9,26372,2015970,0.985,0.04,-0.038,0,0,0,-35.3,6.2,27.1,0.157353435,0.706869716,-0.13431196,0.676381726
10,28583,2015970,0.988,0.036,-0.034,0,-0.1,0,-35.1,6,27.4,0.157353435,0.706869716,-0.13431196,0.676381726
11,30819,2015970,0.988,0.04,-0.034,0,-0.3,0,-35.1,6,27.4,0.157353435,0.706869716,-0.134342479,0.676381726
12,33035,2015980,0.988,0.036,-0.034,0,-0.3,0,-35.1,6,27.4,0.157353435,0.706869716,-0.134342479,0.676381726
13,35323,2015980,0.985,0.036,-0.038,-0.1,-0.1,0,-35.1,6,27.4,0.157353435,0.706869716,-0.134342479,0.676381726
14,37641,2015980,0.985,0.04,-0.038,0,0.1,0,-35.2,5.9,27.4,0.157322916,0.706869716,-0.134372997,0.676381726
15,40242,2015980,0.985,0.036,-0.038,0,0.1,0,-35.2,5.9,27.4,0.157322916,0.706869716,-0.134372997,0.676381726
16,43654,2015990,0.985,0.044,-0.042,0,0.2,0,-35.2,5.9,27.4,0.157322916,0.706869716,-0.134372997,0.676381726
17,45811,2015990,0.981,0.04,-0.038,0,0.2,0,-35.2,5.9,27.4,0.157322916,0.706869716,-0.134342479,0.676381726
18,48095,2015990,0.985,0.04,-0.034,0,0.2,0,-35.4,6.5,27.5,0.157322916,0.706869716,-0.134342479,0.676381726
19,50435,2015990,0.985,0.036,-0.038,0,0,0,-35.4,6.5,27.5,0.157322916,0.706869716,-0.134342479,0.676381726
20,52640,2016000,0.985,0.04,-0.038,0,0,0,-35.4,6.5,27.5,0.157322916,0.706869716,-0.134342479,0.676381726
21,56288,2016000,0.985,0.036,-0.034,0,0,0,-35.4,6.5,27.5,0.157322916,0.706869716,-0.134342479,0.676381726
22,58636,2016000,0.985,0.04,-0.034,0,0,0,-35.3,5.7,27.4,0.157322916,0.706839198,-0.134342479,0.676381726
23,60836,2016000,0.985,0.04,-0.038,0,0,0,-35.3,5.7,27.4,0.157322916,0.706839198,-0.134342479,0.676381726
24,63123,2016010,0.985,0.036,-0.038,0,0,0,-35.3,5.7,27.4,0.157322916,0.706839198,-0.134342479,0.676381726
25,65333,2016010,0.985,0.04,-0.03,0,-0.1,0,-35.3,5.7,27.4,0.157322916,0.706869716,-0.134372997,0.676381726
26,67689,2016010,0.985,0.04,-0.038,0,-0.1,0,-35.1,6.2,26.6,0.157322916,0.706869716,-0.134372997,0.676381726
27,71198,2016010,0.985,0.044,-0.042,0,-0.1,0,-35.1,6.2,26.6,0.157322916,0.706869716,-0.134372997,0.676381726
28,73431,2016020,0.988,0.04,-0.042,0,-0.1,0,-35.1,6.2,26.6,0.157322916,0.706869716,-0.134372997,0.676381726
29,75633,2016020,0.988,0.044,-0.03,0,-0.1,0,-35.1,6.2,26.6,0.157322916,0.706869716,-0.134372997,0.676381726
30,77898,2016020,0.985,0.036,-0.034,0,0,0,-35.6,5.9,28.1,0.157322916,0.706869716,-0.134372997,0.676381726
31,80168,2016020,0.988,0.04,-0.034,0,0.1,0,-35.6,5.9,28.1,0.157322916,0.706869716,-0.134372997,0.676381726
32,82991,2016030,0.988,0.044,-0.038,0,0.1,0,-35.6,5.9,28.1,0.157322916,0.706869716,-0.134342479,0.676381726
33,85135,2016030,0.985,0.036,-0.03,-0.1,0,0,-35.6,5.9,28.1,0.157322916,0.706869716,-0.134372997,0.676381726
34,88400,2016030,0.985,0.04,-0.034,0,0,0,-35.4,6.4,28.5,0.157322916,0.706839198,-0.134372997,0.676381726
35,90633,2016030,0.985,0.04,-0.034,0,0,0,-35.4,6.4,28.5,0.157322916,0.706839198,-0.134372997,0.676381726
36,92863,2016040,0.981,0.04,-0.034,0,0,0,-35.4,6.4,28.5,0.157322916,0.706839198,-0.134372997,0.676412244
37,95237,2016040,0.985,0.04,-0.026,0,0,0,-35.4,6.4,28.5,0.157322916,0.706839198,-0.134372997,0.676412244
38,98046,2016040,0.985,0.04,-0.03,0,0,0,-35.2,6.1,28.8,0.157322916,0.706839198,-0.134372997,0.676412244
39,100398,2016040,0.988,0.044,-0.026,0,0,0.1,-35.2,6.1,28.8,0.157322916,0.706839198,-0.134372997,0.676412244
40,102723,2016050,0.988,0.04,-0.038,0,-0.1,0,-35.2,6.1,28.8,0.157292398,0.706839198,-0.134372997,0.676412244
41,105330,2016050,0.988,0.04,-0.038,0,-0.2,0,-35.2,6.1,28.8,0.157292398,0.706839198,-0.134372997,0.676381726
42,107648,2016050,0.988,0.044,-0.038,0,-0.2,0,-35.6,6,28.8,0.157292398,0.706869716,-0.134372997,0.676381726
43,110417,2016050,0.988,0.04,-0.03,0,0,0,-35.6,6,28.8,0.157292398,0.706869716,-0.134372997,0.676381726
44,113811,2016060,0.985,0.036,-0.038,-0.1,0.1,0,-35.6,6,28.8,0.157292398,0.706869716,-0.134372997,0.676381726
45,116320,2016060,0.985,0.04,-0.038,-0.1,0.1,0,-35.6,6,28.8,0.157292398,0.706839198,-0.134372997,0.676381726
46,118516,2016060,0.985,0.044,-0.034,0,0.1,0.1,-35.2,5.7,25.3,0.157292398,0.706839198,-0.134372997,0.676412244
47,120719,2016060,0.988,0.036,-0.034,0,0.1,0,-35.2,5.7,25.3,0.157292398,0.706839198,-0.134372997,0.676412244
48,122966,2016070,0.988,0.036,-0.042,0,0.1,0,-35.2,5.7,25.3,0.157292398,0.706839198,-0.134372997,0.676412244
49,125206,2016070,0.981,0.04,-0.038,0,0.1,-0.1,-35.2,5.7,25.3,0.157292398,0.706839198,-0.134372997,0.676412244
50,127861,2016070,0.981,0.036,-0.038,0,0.1,0,-35.2,6,27.2,0.157292398,0.706839198,-0.134372997,0.676412244
51,130105,2016070,0.985,0.036,-0.034,0,0.1,0,-35.2,6,27.2,0.157292398,0.706839198,-0.134372997,0.676412244
52,134250,2016080,0.981,0.036,-0.034,0,0,0.1,-35.2,6,27.2,0.157292398,0.706839198,-0.134372997,0.676412244
53,136521,2016080,0.985,0.04,-0.042,0.1,0,0,-35.2,6,27.2,0.157292398,0.706839198,-0.134372997,0.676412244
54,138727,2016080,0.985,0.044,-0.034,0.1,0,0,-35.2,6,26.5,0.157261879,0.706869716,-0.134403516,0.676381726
55,141068,2016080,0.981,0.04,-0.03,0.1,0,-0.1,-35.2,6,26.5,0.157261879,0.706869716,-0.134403516,0.676381726
56,143587,2016090,0.985,0.04,-0.03,0,0,-0.1,-35.2,6,26.5,0.157261879,0.706869716,-0.134403516,0.676381726
57,145874,2016090,0.985,0.04,-0.038,0,0,0,-35.2,6,26.5,0.157261879,0.706869716,-0.134403516,0.676381726
58,148043,2016090,0.985,0.04,-0.034,0,0,0,-35.3,6,26,0.157261879,0.706869716,-0.134403516,0.676381726
59,150279,2016090,0.985,0.044,-0.034,0,-0.1,0,-35.3,6,26,0.157261879,0.706869716,-0.134403516,0.676381726
60,152893,2016100,0.985,0.04,-0.038,0,-0.1,0,-35.3,6,26,0.157261879,0.706869716,-0.134403516,0.676381726
61,155188,2016100,0.985,0.04,-0.038,0,-0.1,0,-35.3,6,26,0.157261879,0.706869716,-0.134403516,0.676381726
62,157587,2016100,0.985,0.036,-0.034,0,0,0,-35.3,5.9,25.5,0.157261879,0.706869716,-0.134403516,0.676381726
63,160811,2016100,0.988,0.04,-0.03,0,0.1,0,-35.3,5.9,25.5,0.157261879,0.706869716,-0.134403516,0.676381726
64,163093,2016110,0.988,0.036,-0.034,0,0.1,0,-35.3,5.9,25.5,0.157261879,0.706869716,-0.134403516,0.676381726
65,165348,2016110,0.985,0.036,-0.03,0,0.1,0,-35.3,5.9,25.5,0.157261879,0.706869716,-0.134403516,0.676381726
66,167927,2016110,0.988,0.036,-0.03,0,0.1,0.1,-35.4,6.1,27,0.157261879,0.706869716,-0.134403516,0.676381726
67,171404,2016110,0.985,0.04,-0.03,0,0.1,0.1,-35.4,6.1,27,0.157261879,0.706869716,-0.134403516,0.676381726
68,174413,2016120,0.985,0.036,-0.038,0,0,0,-35.4,6.1,27,0.157261879,0.706869716,-0.134403516,0.676381726
69,176631,2016120,0.985,0.04,-0.038,0,0,-0.1,-35.4,6.1,27,0.157261879,0.706869716,-0.134403516,0.676381726
70,178844,2016120,0.988,0.04,-0.034,0,-0.2,-0.2,-35.5,5.9,27.4,0.157261879,0.706869716,-0.134403516,0.676381726
71,181042,2016120,0.985,0.04,-0.038,0,-0.3,-0.1,-35.5,5.9,27.4,0.157261879,0.706869716,-0.134403516,0.676381726
72,182715,2016130,0.985,0.04,-0.034,0,-0.2,0,-35.5,5.9,27.4,0.157261879,0.706869716,-0.134403516,0.676381726
73,185481,2016130,0.985,0.04,-0.034,0.1,-0.1,0,-35.5,5.9,27.4,0.157261879,0.706869716,-0.134403516,0.676381726
74,188703,2016130,0.988,0.04,-0.034,0,-0.1,-0.1,-35.7,5.8,27,0.157292398,0.706869716,-0.134372997,0.676351207
75,190893,2016130,0.992,0.04,-0.038,0,-0.1,-0.1,-35.7,5.8,27,0.157292398,0.706869716,-0.134372997,0.676351207
76,193250,2016140,0.988,0.04,-0.034,0,-0.1,-0.1,-35.7,5.8,27,0.157292398,0.706900235,-0.134372997,0.676351207
77,195525,2016140,0.985,0.036,-0.034,0,-0.1,0,-35.7,5.8,27,0.157292398,0.706900235,-0.134372997,0.676351207
78,197643,2016140,0.985,0.036,-0.034,0,0,0,-35.4,5.7,27.5,0.157292398,0.706900235,-0.134372997,0.676351207
79,200320,2016140,0.985,0.04,-0.034,0.1,0,0,-35.4,5.7,27.5,0.157292398,0.706900235,-0.134372997,0.676351207
80,202582,2016150,0.981,0.036,-0.034,0,0,0,-35.4,5.7,27.5,0.157292398,0.706900235,-0.134372997,0.676351207
81,206075,2016150,0.985,0.04,-0.03,0,0,0,-35.4,5.7,27.5,0.157292398,0.706900235,-0.134372997,0.676351207
82,207644,2016150,0.985,0.036,-0.034,0,0.1,0.1,-35.4,5.6,27.3,0.157261879,0.706900235,-0.134372997,0.676351207
83,210405,2016150,0.981,0.04,-0.038,0,0,0,-35.4,5.6,27.3,0.157261879,0.706900235,-0.134372997,0.676351207
84,212801,2016160,0.985,0.044,-0.03,0,0.1,0,-35.4,5.6,27.3,0.157292398,0.706869716,-0.134372997,0.676351207
85,215530,2016160,0.988,0.036,-0.03,0,0,-0.1,-35.4,5.6,27.3,0.157292398,0.706869716,-0.134372997,0.676351207
86,217930,2016160,0.988,0.036,-0.034,0.1,0,-0.1,-35.4,6.6,28.2,0.157292398,0.706900235,-0.134372997,0.676351207
87,220359,2016160,0.988,0.044,-0.034,0.1,-0.1,-0.1,-35.4,6.6,28.2,0.157292398,0.706900235,-0.134372997,0.676351207
88,222658,2016170,0.985,0.04,-0.042,0,-0.1,0,-35.4,6.6,28.2,0.157292398,0.706900235,-0.134372997,0.676351207
89,225135,2016170,0.988,0.044,-0.046,0,0,0,-35.4,6.6,28.2,0.157292398,0.706900235,-0.134372997,0.676351207
90,228557,2016170,0.985,0.04,-0.038,-0.1,0,0,-35.2,4.8,26.4,0.157292398,0.706900235,-0.134372997,0.676351207
91,230711,2016170,0.988,0.04,-0.038,-0.1,0,0,-35.2,4.8,26.4,0.157292398,0.706900235,-0.134372997,0.676351207
92,232927,2016180,0.985,0.04,-0.034,-0.1,0,0,-35.2,4.8,26.4,0.157292398,0.706900235,-0.134403516,0.676351207
93,235611,2016180,0.988,0.04,-0.038,-0.1,0,0,-35.2,4.8,26.4,0.157292398,0.706900235,-0.134403516,0.676351207
94,238159,2016180,0.985,0.04,-0.038,0,0,-0.1,-34.9,4.4,26.4,0.157292398,0.706900235,-0.134372997,0.676320688
95,240651,2016180,0.985,0.04,-0.038,0.1,0,-0.1,-34.9,4.4,26.4,0.157292398,0.706900235,-0.134372997,0.676320688
96,242790,2016190,0.981,0.04,-0.034,0,0,-0.1,-34.9,4.4,26.4,0.157292398,0.706930754,-0.134372997,0.676320688
97,245567,2016190,0.981,0.036,-0.034,0,0,-0.1,-34.9,4.4,26.4,0.157292398,0.706930754,-0.134372997,0.676320688
98,247741,2016190,0.988,0.04,-0.026,0,0.1,0,-35.3,4,26.1,0.157292398,0.706900235,-0.134372997,0.676320688
99,251895,2016190,0.985,0.044,-0.038,0,0.1,0,-35.3,4,26.1,0.157292398,0.706900235,-0.134372997,0.676320688
100,252791,2016200,0.988,0.04,-0.038,0,0.2,0,-35.3,4,26.1,0.157292398,0.706900235,-0.134372997,0.676320688
101,255303,2016200,0.985,0.04,-0.03,0,0.1,-0.1,-35.3,4,26.1,0.157292398,0.706900235,-0.134372997,0.676351207
102,257602,2016200,0.988,0.036,-0.038,0,0,-0.1,-35,4.1,26.1,0.157292398,0.706900235,-0.134372997,0.676320688
103,261173,2016200,0.985,0.04,-0.034,0,-0.1,-0.1,-35,4.1,26.1,0.157292398,0.706900235,-0.134372997,0.676320688
104,264087,2016210,0.985,0.036,-0.034,0,-0.1,0,-35,4.1,26.1,0.157292398,0.706900235,-0.134372997,0.676320688
105,266305,2016210,0.981,0.04,-0.034,0.1,-0.1,0.2,-35,4.1,26.1,0.157292398,0.706930754,-0.134372997,0.676320688
106,268030,2016210,0.985,0.036,-0.034,0.1,0,0.2,-35.2,7.8,27.4,0.157292398,0.706930754,-0.134372997,0.676320688
107,270293,2016210,0.988,0.04,-0.038,0.1,0.1,0.1,-35.2,7.8,27.4,0.157292398,0.706900235,-0.134372997,0.676320688
108,272617,2016220,0.985,0.04,-0.042,0,0.1,0,-35.2,7.8,27.4,0.157292398,0.706900235,-0.134372997,0.676320688
109,275255,2016220,0.985,0.04,-0.034,0,0.1,0,-35.2,7.8,27.4,0.157292398,0.706900235,-0.134372997,0.676351207
110,279331,2016220,0.985,0.04,-0.03,0,0.1,0,-34.8,5.3,26.7,0.157292398,0.706900235,-0.134372997,0.676351207
111,281443,2016220,0.988,0.04,-0.038,0,0,0,-34.8,5.3,26.7,0.157292398,0.706900235,-0.134372997,0.676351207
112,283757,2016230,0.992,0.04,-0.038,0,0,0,-34.8,5.3,26.7,0.157292398,0.706900235,-0.134372997,0.676351207
113,286251,2016230,0.981,0.04,-0.034,0,0,0.1,-34.8,5.3,26.7,0.157292398,0.706900235,-0.134372997,0.676351207
114,287995,2016230,0.985,0.04,-0.038,0,0,0.1,-35.3,5.8,26.3,0.157292398,0.706900235,-0.134372997,0.676351207
115,290169,2016230,0.985,0.04,-0.034,0,0,0,-35.3,5.8,26.3,0.157292398,0.706900235,-0.134372997,0.676351207
116,293203,2016240,0.985,0.04,-0.042,0,0.1,0,-35.3,5.8,26.3,0.157292398,0.706900235,-0.134372997,0.676351207
117,295428,2016240,0.985,0.04,-0.042,0,0.1,0,-35.3,5.8,26.3,0.157292398,0.706900235,-0.134372997,0.676351207
118,297735,2016240,0.988,0.04,-0.038,0,0.1,0,-34.9,6.8,26.7,0.157292398,0.706900235,-0.134372997,0.676351207
119,300308,2016240,0.985,0.04,-0.038,0.1,0.1,0,-34.9,6.8,26.7,0.157292398,0.706900235,-0.134372997,0.676351207
120,302699,2016250,0.985,0.04,-0.03,0,0.2,0,-34.9,6.8,26.7,0.157292398,0.706900235,-0.134372997,0.676351207
121,305972,2016250,0.985,0.036,-0.038,0,0.2,0,-34.9,6.8,26.7,0.157292398,0.706900235,-0.134372997,0.676351207
122,309133,2016250,0.985,0.04,-0.034,0,0.2,0,-34.7,7,26.3,0.157292398,0.706900235,-0.134372997,0.676351207
123,311248,2016250,0.985,0.04,-0.038,0,0.1,0,-34.7,7,26.3,0.157292398,0.706900235,-0.134372997,0.676351207
124,313572,2016260,0.985,0.04,-0.034,0,0,0,-34.7,7,26.3,0.157292398,0.706900235,-0.134372997,0.676351207
125,315828,2016260,0.988,0.04,-0.034,0,-0.1,0,-34.7,7,26.3,0.157292398,0.706900235,-0.134372997,0.676351207
126,318048,2016260,0.988,0.04,-0.034,0,-0.1,0,-35.1,6.2,26.9,0.157292398,0.706900235,-0.134372997,0.676351207
127,320260,2016260,0.981,0.036,-0.03,0,-0.1,-0.1,-35.1,6.2,26.9,0.157292398,0.706900235,-0.134372997,0.676351207
128,322970,2016270,0.988,0.036,-0.03,0,0,0,-35.1,6.2,26.9,0.157292398,0.706900235,-0.134372997,0.676351207
129,325113,2016270,0.985,0.04,-0.03,0,0,0,-35.1,6.2,26.9,0.157292398,0.706900235,-0.134372997,0.676351207
130,329276,2016270,0.985,0.036,-0.038,0,0.1,0,-35.5,6,27,0.157292398,0.706900235,-0.134372997,0.676351207
131,331444,2016270,0.985,0.04,-0.034,0,0,0,-35.5,6,27,0.157261879,0.706900235,-0.134372997,0.676351207
132,333105,2016280,0.985,0.036,-0.038,0,-0.1,0,-35.5,6,27,0.157261879,0.706900235,-0.134372997,0.676351207
133,335157,2016280,0.985,0.04,-0.034,0,-0.3,0,-35.5,6,27,0.157261879,0.706900235,-0.134372997,0.676351207
134,337854,2016280,0.988,0.044,-0.042,0,-0.3,0,-35.5,6,26.8,0.157261879,0.706930754,-0.134372997,0.676320688
135,341679,2016280,0.988,0.04,-0.038,0.1,-0.2,-0.1,-35.5,6,26.8,0.157261879,0.706930754,-0.134372997,0.676320688
136,343934,2016290,0.985,0.04,-0.042,0.1,-0.1,-0.1,-35.5,6,26.8,0.157261879,0.706930754,-0.134372997,0.676320688
137,346154,2016290,0.985,0.04,-0.038,0.1,0,-0.1,-35.5,6,26.8,0.157261879,0.706930754,-0.134372997,0.676320688
138,348339,2016290,0.985,0.04,-0.034,0,0,0,-35.5,6,26.7,0.157261879,0.706930754,-0.134372997,0.676320688
139,350591,2016290,0.985,0.04,-0.038,0,0,0,-35.5,6,26.7,0.157261879,0.706930754,-0.134372997,0.676320688
140,352926,2016300,0.988,0.036,-0.034,0,0,0,-35.5,6,26.7,0.157261879,0.706930754,-0.134372997,0.676320688
141,355160,2016300,0.985,0.036,-0.034,0,-0.1,0,-35.5,6,26.7,0.157261879,0.706930754,-0.134372997,0.676320688
142,358049,2016300,0.985,0.044,-0.038,0,0,0,-35.8,6.4,27,0.157261879,0.706930754,-0.134372997,0.676320688
143,360294,2016300,0.985,0.04,-0.042,0,0,0,-35.8,6.4,27,0.157261879,0.706930754,-0.134372997,0.676320688
144,364148,2016310,0.985,0.044,-0.03,0,0,0,-35.8,6.4,27,0.157261879,0.706930754,-0.134372997,0.676320688
145,365172,2016310,0.988,0.036,-0.038,0,0,0,-35.8,6.4,27,0.157261879,0.706930754,-0.134372997,0.676320688
146,367730,2016310,0.985,0.036,-0.03,0,0,0,-35.1,4.7,27.1,0.157261879,0.706930754,-0.134372997,0.676320688
147,371984,2016310,0.985,0.04,-0.026,-0.1,0,0,-35.1,4.7,27.1,0.157261879,0.706930754,-0.134372997,0.676320688
148,372702,2016320,0.985,0.04,-0.038,-0.1,-0.1,0,-35.1,4.7,27.1,0.157261879,0.706930754,-0.134372997,0.676320688
149,375508,2016320,0.985,0.04,-0.038,0,-0.1,0,-35.1,4.7,27.1,0.157261879,0.706930754,-0.134372997,0.676320688
150,377773,2016320,0.985,0.036,-0.042,0,-0.1,0,-36.1,7,27.4,0.157261879,0.706930754,-0.134372997,0.676320688
151,381701,2016320,0.981,0.036,-0.038,0,0,0,-36.1,7,27.4,0.157261879,0.706930754,-0.134372997,0.676320688
152,383999,2016330,0.988,0.04,-0.034,0,0.1,0,-36.1,7,27.4,0.157261879,0.706930754,-0.134372997,0.676320688
153,386308,2016330,0.988,0.036,-0.038,0,0.1,0.1,-36.1,7,27.4,0.157261879,0.706930754,-0.134372997,0.676320688
154,388751,2016330,0.988,0.044,-0.038,0,0.1,0.1,-37.4,6.9,27.1,0.157231361,0.706961272,-0.134434034,0.67629017
155,391088,2016330,0.988,0.044,-0.038,0,0.1,0,-37.4,6.9,27.1,0.157231361,0.706961272,-0.134434034,0.67629017
156,393306,2016340,0.985,0.032,-0.038,0,0.1,0,-37.4,6.9,27.1,0.157231361,0.706961272,-0.134434034,0.67629017
157,395693,2016340,0.985,0.04,-0.034,0,0,0,-37.4,6.9,27.1,0.157231361,0.706961272,-0.134434034,0.67629017
158,397922,2016340,0.985,0.04,-0.038,0,0,0,-37.4,7.3,27.2,0.157200842,0.706961272,-0.134434034,0.67629017
159,400803,2016340,0.985,0.036,-0.03,0,-0.1,0,-37.4,7.3,27.2,0.157200842,0.706961272,-0.134434034,0.67629017
160,403119,2016350,0.985,0.036,-0.038,0,0,0,-37.4,7.3,27.2,0.157200842,0.706961272,-0.134434034,0.67629017
161,405324,2016350,0.981,0.04,-0.038,0,0,0,-37.4,7.3,27.2,0.157200842,0.706961272,-0.134434034,0.67629017
162,407866,2016350,0.985,0.04,-0.038,0,0,0,-38.1,7.1,27.2,0.157200842,0.706961272,-0.134434034,0.67629017
163,410116,2016350,0.988,0.036,-0.034,0,0,0,-38.1,7.1,27.2,0.157200842,0.706961272,-0.134434034,0.67629017
164,412726,2016360,0.985,0.036,-0.03,0,0,0,-38.1,7.1,27.2,0.157200842,0.706961272,-0.134434034,0.67629017
165,415960,2016360,0.988,0.04,-0.03,0,0,0,-38.1,7.1,27.2,0.157200842,0.706961272,-0.134434034,0.67629017
166,418184,2016360,0.985,0.04,-0.034,-0.1,0,0,-34.2,5.6,27.3,0.157200842,0.706961272,-0.134434034,0.67629017
167,420356,2016360,0.985,0.036,-0.03,0,-0.1,0,-34.2,5.6,27.3,0.157200842,0.706961272,-0.134434034,0.67629017
168,422637,2016370,0.988,0.044,-0.03,0,-0.1,0,-34.2,5.6,27.3,0.157200842,0.706961272,-0.134434034,0.67629017
169,425306,2016370,0.985,0.04,-0.034,0,-0.1,0,-34.2,5.6,27.3,0.157200842,0.706961272,-0.134434034,0.67629017
170,428674,2016370,0.988,0.036,-0.034,0,-0.2,0,-36.8,6.5,27.1,0.157200842,0.706961272,-0.134434034,0.67629017
171,431569,2016370,0.988,0.04,-0.038,0,-0.1,0,-36.8,6.5,27.1,0.157200842,0.706961272,-0.134434034,0.676259651
172,433788,2016380,0.985,0.04,-0.034,0.1,-0.1,0.1,-36.8,6.5,27.1,0.157200842,0.706991791,-0.134434034,0.676259651
173,435418,2016380,0.985,0.04,-0.034,0,-0.1,0.1,-36.8,6.5,27.1,0.157200842,0.706991791,-0.134434034,0.676259651
174,437672,2016380,0.985,0.036,-0.034,0,-0.1,0.1,-36.2,6.6,27.4,0.157200842,0.706991791,-0.134464553,0.676259651
175,440363,2016380,0.985,0.036,-0.034,-0.1,0,0,-36.2,6.6,27.4,0.157200842,0.706991791,-0.134464553,0.676259651
176,444219,2016390,0.985,0.04,-0.038,-0.1,0,0,-36.2,6.6,27.4,0.157200842,0.706991791,-0.134464553,0.676259651
177,446453,2016390,0.985,0.032,-0.03,-0.1,0.1,0,-36.2,6.6,27.4,0.157200842,0.706991791,-0.134464553,0.676259651
178,448737,2016390,0.985,0.04,-0.038,-0.1,0.2,0,-35.2,6.9,27.2,0.157200842,0.706961272,-0.134464553,0.676259651
179,450989,2016390,0.988,0.04,-0.034,-0.1,0.1,0,-35.2,6.9,27.2,0.157200842,0.706961272,-0.134464553,0.676259651
180,453164,2016400,0.985,0.036,-0.034,-0.1,0,0,-35.2,6.9,27.2,0.157200842,0.706961272,-0.134464553,0.67629017
181,455442,2016400,0.988,0.04,-0.026,-0.1,0,0,-35.2,6.9,27.2,0.157200842,0.706961272,-0.134464553,0.676259651
182,457701,2016400,0.985,0.036,-0.034,0,0,0,-35.3,6.7,27.3,0.157200842,0.706961272,-0.134464553,0.676259651
183,461129,2016400,0.988,0.036,-0.038,0,0,0,-35.3,6.7,27.3,0.157200842,0.706961272,-0.134464553,0.676259651
184,463483,2016410,0.985,0.04,-0.034,0,0,0,-35.3,6.7,27.3,0.157200842,0.706961272,-0.134464553,0.67629017
185,465703,2016410,0.988,0.04,-0.038,0,0,0,-35.3,6.7,27.3,0.157200842,0.706961272,-0.134464553,0.67629017
186,468079,2016410,0.981,0.044,-0.042,-0.1,0,-0.1,-35.3,6,27.1,0.157200842,0.706961272,-0.134464553,0.676259651
187,470237,2016410,0.985,0.044,-0.034,-0.1,-0.1,-0.1,-35.3,6,27.1,0.157200842,0.706961272,-0.134464553,0.676259651
188,472850,2016420,0.981,0.036,-0.038,0,-0.1,0,-35.3,6,27.1,0.157231361,0.706961272,-0.134464553,0.676259651
189,475169,2016420,0.988,0.044,-0.03,0,0,0,-35.3,6,27.1,0.157200842,0.706961272,-0.134464553,0.676259651
190,478422,2016420,0.988,0.044,-0.03,0,0,0,-35.3,6,27.2,0.157200842,0.706961272,-0.134464553,0.676259651
191,480594,2016420,0.988,0.04,-0.038,0,0.1,0,-35.3,6,27.2,0.157231361,0.706961272,-0.134464553,0.676259651
192,482933,2016430,0.988,0.036,-0.042,0,0,0,-35.3,6,27.2,0.157231361,0.706961272,-0.134464553,0.676259651
193,485461,2016430,0.988,0.04,-0.034,0,0,0,-35.3,6,27.2,0.157231361,0.706961272,-0.134464553,0.676259651
194,488824,2016430,0.985,0.04,-0.034,0,-0.1,0,-35.3,6.1,27,0.157231361,0.706991791,-0.134464553,0.676259651
195,491093,2016430,0.988,0.04,-0.038,0,0,0,-35.3,6.1,27,0.157231361,0.706991791,-0.134464553,0.676259651
196,492648,2016440,0.988,0.036,-0.034,0,0,0,-35.3,6.1,27,0.157231361,0.706991791,-0.134464553,0.676259651
197,495289,2016440,0.985,0.036,-0.038,0,0,0,-35.3,6.1,27,0.157231361,0.706991791,-0.134464553,0.676259651
198,497543,2016440,0.988,0.036,-0.038,0,0,0,-35.7,6.1,27.4,0.157231361,0.706991791,-0.134464553,0.676259651
199,501617,2016440,0.988,0.04,-0.034,0,0,-0.1,-35.7,6.1,27.4,0.157231361,0.706991791,-0.134464553,0.676259651
200,503827,2016450,0.988,0.04,-0.034,0,0,-0.1,-35.7,6.1,27.4,0.157231361,0.706991791,-0.134464553,0.676259651
201,506095,2016450,0.985,0.036,-0.038,0,0,-0.1,-35.7,6.1,27.4,0.157231361,0.706991791,-0.134464553,0.676259651
202,507760,2016450,0.985,0.04,-0.034,0,0.1,-0.1,-35.4,5.9,27.2,0.157231361,0.706991791,-0.134464553,0.676259651
203,510495,2016450,0.988,0.044,-0.034,0,0.1,0,-35.4,5.9,27.2,0.157231361,0.706991791,-0.134434034,0.676259651
204,512711,2016460,0.988,0.04,-0.038,0,0.2,0,-35.4,5.9,27.2,0.157231361,0.706991791,-0.134434034,0.676259651
205,516787,2016460,0.981,0.04,-0.034,0,0.2,0.1,-35.4,5.9,27.2,0.157231361,0.706991791,-0.134464553,0.676259651
206,518943,2016460,0.981,0.036,-0.038,0,0.2,0.1,-36.2,6,27.2,0.157231361,0.706991791,-0.134464553,0.676259651
207,521289,2016460,0.988,0.04,-0.03,0,0.2,0.1,-36.2,6,27.2,0.157231361,0.706961272,-0.134464553,0.676259651
208,524279,2016470,0.988,0.044,-0.034,0,0.2,0,-36.2,6,27.2,0.157231361,0.706961272,-0.134464553,0.676259651
209,526617,2016470,0.988,0.04,-0.03,0,0.2,0,-36.2,6,27.2,0.157231361,0.706961272,-0.134464553,0.67629017
210,528832,2016470,0.988,0.036,-0.034,0,0.1,0,-34.2,6.1,27.3,0.157231361,0.706961272,-0.134464553,0.67629017
211,531028,2016470,0.988,0.04,-0.042,0,0,0,-34.2,6.1,27.3,0.157231361,0.706961272,-0.134464553,0.67629017
212,533279,2016480,0.985,0.04,-0.03,0,0,0,-34.2,6.1,27.3,0.157231361,0.706961272,-0.134464553,0.67629017
213,535593,2016480,0.988,0.04,-0.042,0,0,0,-34.2,6.1,27.3,0.157231361,0.706961272,-0.134464553,0.676259651
214,537684,2016480,0.985,0.04,-0.038,0,0,-0.1,-34.2,6.2,27.5,0.157231361,0.706991791,-0.134464553,0.676259651
215,540467,2016480,0.985,0.04,-0.038,0,0,-0.1,-34.2,6.2,27.5,0.157231361,0.706991791,-0.134464553,0.676259651
216,542665,2016490,0.985,0.036,-0.042,-0.1,0.1,-0.1,-34.2,6.2,27.5,0.157231361,0.706991791,-0.134464553,0.676259651
217,546772,2016490,0.985,0.04,-0.034,0,0.1,0,-34.2,6.2,27.5,0.157231361,0.706991791,-0.134464553,0.676259651
218,549004,2016490,0.988,0.044,-0.034,0,0.1,0,-34.3,6.2,26.9,0.157231361,0.706991791,-0.134464553,0.676259651
219,551314,2016490,0.977,0.036,-0.037,-0.1,0.2,0,-34.3,6.2,26.9,0.157231361,0.706961272,-0.134464553,0.676259651
220,553515,2016500,0.985,0.036,-0.034,-0.1,0.1,0,-34.3,6.2,26.9,0.157231361,0.706961272,-0.134464553,0.676259651
221,556302,2016500,0.981,0.04,-0.034,-0.1,0,0,-34.3,6.2,26.9,0.157231361,0.706961272,-0.134464553,0.676259651
222,559364,2016500,0.985,0.04,-0.038,0,-0.1,0,-34.7,5.5,26.8,0.157231361,0.706961272,-0.134464553,0.676259651
223,560150,2016500,0.985,0.04,-0.038,0,-0.2,0,-34.7,5.5,26.8,0.157231361,0.706991791,-0.134464553,0.676259651
224,562683,2016510,0.988,0.04,-0.042,0,-0.2,-0.1,-34.7,5.5,26.8,0.157231361,0.706991791,-0.134464553,0.676259651
225,566150,2016510,0.988,0.04,-0.034,0,-0.1,0,-34.7,5.5,26.8,0.157231361,0.706991791,-0.134464553,0.676259651
226,568460,2016510,0.985,0.044,-0.034,-0.1,0,0,-36.2,6.2,27.2,0.157231361,0.706991791,-0.134464553,0.676259651
227,570721,2016510,0.985,0.044,-0.034,-0.1,0,0,-36.2,6.2,27.2,0.157231361,0.706991791,-0.134464553,0.676259651
228,572963,2016520,0.985,0.04,-0.038,0,0,0,-36.2,6.2,27.2,0.157261879,0.706991791,-0.134464553,0.676259651
229,575193,2016520,0.988,0.04,-0.038,0,0,0,-36.2,6.2,27.2,0.157261879,0.706991791,-0.134464553,0.676259651
230,578885,2016520,0.981,0.04,-0.042,0,0.1,0,-34.5,5.8,26.9,0.157231361,0.706991791,-0.134464553,0.676259651
231,581130,2016520,0.988,0.036,-0.034,0,0.2,0.1,-34.5,5.8,26.9,0.157231361,0.706961272,-0.134495071,0.676259651
232,583472,2016530,0.985,0.044,-0.034,0,0.2,0,-34.5,5.8,26.9,0.157231361,0.706961272,-0.134495071,0.676259651
233,586411,2016530,0.981,0.036,-0.034,0,0.1,0,-34.5,5.8,26.9,0.157231361,0.706961272,-0.134495071,0.676259651
234,588140,2016530,0.988,0.04,-0.034,0,0.1,0,-34.5,5.9,26.9,0.157231361,0.706961272,-0.134495071,0.676259651
235,590489,2016530,0.988,0.04,-0.034,0,0.2,0,-34.5,5.9,26.9,0.157231361,0.706961272,-0.134495071,0.676259651
236,592677,2016540,0.981,0.04,-0.034,0,0.1,0,-34.5,5.9,26.9,0.157231361,0.706961272,-0.134495071,0.676259651
237,596859,2016540,0.985,0.04,-0.026,0,0.1,0,-34.5,5.9,26.9,0.157231361,0.706961272,-0.134495071,0.676259651
238,597714,2016540,0.985,0.04,-0.034,0,0,0,-34.6,6,27.1,0.157231361,0.706961272,-0.134495071,0.676259651
239,601266,2016540,0.985,0.04,-0.038,0,0,0,-34.6,6,27.1,0.157231361,0.706961272,-0.134495071,0.676259651
240,603648,2016550,0.988,0.044,-0.034,0,0,0,-34.6,6,27.1,0.157261879,0.706961272,-0.134495071,0.676259651
241,605881,2016550,0.988,0.036,-0.038,0,0,0,-34.6,6,27.1,0.157261879,0.706961272,-0.134495071,0.676259651
242,608387,2016550,0.985,0.036,-0.038,0,0.1,0,-34.5,6,26.5,0.157261879,0.706961272,-0.134495071,0.676259651
243,610642,2016550,0.988,0.044,-0.038,0.1,0.1,0,-34.5,6,26.5,0.157261879,0.706961272,-0.134495071,0.676259651
244,612975,2016560,0.985,0.04,-0.03,0.1,0.1,-0.1,-34.5,6,26.5,0.157261879,0.706961272,-0.134495071,0.676259651
245,615215,2016560,0.985,0.04,-0.034,0,0.1,-0.2,-34.5,6,26.5,0.157261879,0.706961272,-0.134464553,0.676259651
246,617818,2016560,0.981,0.04,-0.038,0,0,-0.1,-35.4,6.1,27,0.157261879,0.706961272,-0.134464553,0.676259651
247,621187,2016560,0.985,0.04,-0.038,0,0,-0.1,-35.4,6.1,27,0.157261879,0.706961272,-0.134464553,0.676259651
248,624258,2016570,0.985,0.04,-0.034,-0.1,0,0,-35.4,6.1,27,0.157261879,0.706961272,-0.134464553,0.676259651
249,626492,2016570,0.985,0.04,-0.038,-0.1,0,0.1,-35.4,6.1,27,0.157261879,0.706961272,-0.134495071,0.676259651
250,628749,2016570,0.985,0.036,-0.038,0,0,0,-34.8,6.1,27.2,0.157261879,0.706961272,-0.134495071,0.676259651
251,630990,2016570,0.985,0.04,-0.038,0,0,0,-34.8,6.1,27.2,0.157261879,0.706961272,-0.134495071,0.676259651
252,633228,2016580,0.981,0.04,-0.038,0,-0.1,0,-34.8,6.1,27.2,0.157261879,0.706961272,-0.134495071,0.676259651
253,635557,2016580,0.992,0.04,-0.038,0,-0.1,0,-34.8,6.1,27.2,0.157261879,0.706961272,-0.134495071,0.676259651
254,637717,2016580,0.988,0.04,-0.034,0,0,0.1,-35.3,6.1,27.6,0.157231361,0.706991791,-0.134495071,0.676229133
255,640244,2016580,0.988,0.044,-0.038,0,0,0.1,-35.3,6.1,27.6,0.157231361,0.706991791,-0.134495071,0.676229133
256,642579,2016590,0.985,0.036,-0.038,0,0.1,0.1,-35.3,6.1,27.6,0.157231361,0.706991791,-0.134495071,0.676229133
257,645979,2016590,0.985,0.04,-0.034,0,0,0,-35.3,6.1,27.6,0.157231361,0.706991791,-0.134495071,0.676229133
258,648182,2016590,0.985,0.04,-0.034,0,0.1,0,-35.1,6.2,28,0.157231361,0.706991791,-0.134495071,0.676229133
259,650390,2016590,0.985,0.036,-0.034,0,0,-0.1,-35.1,6.2,28,0.157231361,0.706991791,-0.134495071,0.676229133
260,652724,2016600,0.985,0.04,-0.03,0,0,0,-35.1,6.2,28,0.157231361,0.706991791,-0.134495071,0.676229133
261,655418,2016600,0.985,0.04,-0.03,0,0,0,-35.1,6.2,28,0.157231361,0.706991791,-0.134495071,0.676229133
262,657551,2016600,0.988,0.04,-0.03,0,0.1,0,-35.2,5.7,28.2,0.157261879,0.706991791,-0.134495071,0.676259651
263,661768,2016600,0.985,0.04,-0.034,0,0.1,0,-35.2,5.7,28.2,0.157261879,0.706991791,-0.134495071,0.676259651
264,663945,2016610,0.985,0.04,-0.038,0,0.1,0,-35.2,5.7,28.2,0.157261879,0.706991791,-0.134495071,0.676259651
265,666194,2016610,0.981,0.044,-0.038,0,0,0,-35.2,5.7,28.2,0.157261879,0.706961272,-0.134495071,0.676259651
266,667678,2016610,0.985,0.04,-0.034,0,0,0,-35.2,6,25.6,0.157261879,0.706961272,-0.134495071,0.676259651
267,670346,2016610,0.985,0.044,-0.03,0,0,0,-35.2,6,25.6,0.157261879,0.706961272,-0.134495071,0.676259651
268,672550,2016620,0.985,0.04,-0.038,0,0,-0.1,-35.2,6,25.6,0.157261879,0.706961272,-0.134495071,0.676259651
269,676652,2016620,0.985,0.04,-0.034,0,0,0,-35.2,6,25.6,0.157261879,0.706961272,-0.134495071,0.676259651
270,678951,2016620,0.988,0.04,-0.034,0,0.1,0,-35.7,5.9,27.8,0.157261879,0.706961272,-0.134495071,0.676259651
271,681152,2016620,0.988,0.044,-0.034,0,0.1,0,-35.7,5.9,27.8,0.157261879,0.706961272,-0.134495071,0.676259651
272,683321,2016630,0.988,0.04,-0.038,0,0.1,0,-35.7,5.9,27.8,0.157261879,0.706961272,-0.134495071,0.676259651
273,685625,2016630,0.985,0.04,-0.034,0,0.1,0,-35.7,5.9,27.8,0.157261879,0.706961272,-0.134495071,0.676259651
274,687923,2016630,0.985,0.036,-0.034,0.1,0,0,-35.5,5.9,27.8,0.157261879,0.706961272,-0.134464553,0.676259651
275,690124,2016630,0.985,0.044,-0.038,0.1,0,0,-35.5,5.9,27.8,0.157261879,0.706961272,-0.134464553,0.676259651
276,692724,2016640,0.985,0.036,-0.034,0,0,0,-35.5,5.9,27.8,0.157261879,0.706961272,-0.134464553,0.676259651
277,696905,2016640,0.985,0.04,-0.038,0,0,0.1,-35.5,5.9,27.8,0.157261879,0.706961272,-0.134464553,0.676259651
278,697559,2016640,0.985,0.04,-0.034,0,0.1,0,-35.7,6,28.4,0.157261879,0.706961272,-0.134464553,0.676259651
279,700665,2016640,0.985,0.04,-0.038,0,0,0,-35.7,6,28.4,0.157261879,0.706961272,-0.134464553,0.676259651
280,703010,2016650,0.988,0.04,-0.034,-0.1,0,-0.1,-35.7,6,28.4,0.157261879,0.706961272,-0.134464553,0.676259651
281,705285,2016650,0.985,0.04,-0.034,0,-0.1,0,-35.7,6,28.4,0.157261879,0.706961272,-0.134464553,0.676259651
282,707912,2016650,0.988,0.04,-0.03,0,-0.2,0,-35.4,6.2,27.8,0.157261879,0.706961272,-0.134464553,0.676259651
283,711260,2016650,0.985,0.04,-0.034,0,-0.2,0,-35.4,6.2,27.8,0.157261879,0.706991791,-0.134495071,0.676259651
284,712624,2016660,0.985,0.036,-0.034,0,-0.1,0,-35.4,6.2,27.8,0.157261879,0.706991791,-0.134495071,0.676259651
285,715183,2016660,0.985,0.036,-0.038,0,0,0,-35.4,6.2,27.8,0.157261879,0.706991791,-0.134464553,0.676259651
286,717670,2016660,0.985,0.036,-0.034,0,0.2,0,-35.5,6,25.6,0.157261879,0.706991791,-0.134464553,0.676259651
287,720308,2016660,0.985,0.044,-0.03,0,0.3,0,-35.5,6,25.6,0.157261879,0.706961272,-0.134464553,0.676259651
288,723030,2016670,0.988,0.036,-0.03,0,0.3,0,-35.5,6,25.6,0.157261879,0.706961272,-0.134464553,0.676259651
289,725541,2016670,0.985,0.04,-0.034,0,0.1,0,-35.5,6,25.6,0.157261879,0.706961272,-0.134464553,0.676259651
290,727767,2016670,0.988,0.04,-0.026,0,-0.1,0,-35.3,5.8,26.7,0.157261879,0.706961272,-0.134464553,0.676259651
291,730519,2016670,0.985,0.032,-0.03,0,-0.3,0,-35.3,5.8,26.7,0.157261879,0.706961272,-0.134464553,0.676259651
292,732910,2016680,0.985,0.04,-0.034,0,-0.3,0,-35.3,5.8,26.7,0.157261879,0.706961272,-0.134464553,0.676259651
293,736871,2016680,0.985,0.044,-0.038,0,-0.1,0,-35.3,5.8,26.7,0.157261879,0.706991791,-0.134464553,0.676259651
294,737566,2016680,0.985,0.044,-0.034,0,0,0,-35.5,5.7,25.9,0.157261879,0.706930754,-0.134464553,0.67629017
295,740344,2016680,0.985,0.044,-0.034,0,0,0,-35.5,5.7,25.9,0.157261879,0.706930754,-0.134464553,0.67629017
296,744522,2016690,0.985,0.036,-0.034,0,0,0,-35.5,5.7,25.9,0.157261879,0.706930754,-0.134464553,0.67629017
297,745188,2016690,0.985,0.04,-0.042,0.1,-0.1,0,-35.5,5.7,25.9,0.157261879,0.706961272,-0.134464553,0.67629017
298,749201,2016690,0.992,0.04,-0.038,0,-0.1,-0.1,-35.5,6,26,0.157261879,0.706961272,-0.134464553,0.67629017
299,751401,2016690,0.985,0.044,-0.038,0,0,-0.1,-35.5,6,26,0.157261879,0.706961272,-0.134464553,0.67629017
300,754488,2016700,0.985,0.04,-0.03,0,0,0,-35.5,6,26,0.157261879,0.706961272,-0.134464553,0.67629017
301,755286,2016700,0.985,0.04,-0.034,0,0.1,0,-35.5,6,26,0.157261879,0.706961272,-0.134464553,0.67629017
302,757764,2016700,0.985,0.032,-0.038,0,0.1,0,-35.4,6.3,25.6,0.157261879,0.706961272,-0.134464553,0.67629017
303,760400,2016700,0.988,0.036,-0.042,0,0,0,-35.4,6.3,25.6,0.157261879,0.706961272,-0.134464553,0.67629017
304,762916,2016710,0.988,0.044,-0.034,0,-0.1,0,-35.4,6.3,25.6,0.157261879,0.706961272,-0.134464553,0.67629017
305,765200,2016710,0.988,0.044,-0.038,0,-0.1,0,-35.4,6.3,25.6,0.157261879,0.706961272,-0.134464553,0.67629017
306,767803,2016710,0.985,0.04,-0.038,0,-0.1,0,-35.2,5.9,27.2,0.157261879,0.706961272,-0.134464553,0.67629017
307,770199,2016710,0.988,0.04,-0.034,0.1,0,0,-35.2,5.9,27.2,0.157261879,0.706961272,-0.134464553,0.67629017
308,773520,2016720,0.981,0.036,-0.038,0,0,0,-35.2,5.9,27.2,0.157261879,0.706961272,-0.134464553,0.67629017
309,775475,2016720,0.985,0.04,-0.038,0,0,0,-35.2,5.9,27.2,0.157261879,0.706961272,-0.134464553,0.67629017
310,777745,2016720,0.985,0.036,-0.034,0,0,0,-35.5,5.7,27,0.157261879,0.706961272,-0.134464553,0.67629017
311,781852,2016720,0.985,0.032,-0.046,0,0,0,-35.5,5.7,27,0.157261879,0.706961272,-0.134464553,0.67629017
312,782764,2016730,0.985,0.04,-0.038,0,0.1,0,-35.5,5.7,27,0.157261879,0.706961272,-0.134464553,0.67629017
313,786840,2016730,0.985,0.04,-0.038,0,0.1,0,-35.5,5.7,27,0.157261879,0.706961272,-0.134464553,0.67629017
314,789421,2016730,0.988,0.036,-0.038,0,0,0,-35.3,5.9,27,0.157231361,0.706991791,-0.134495071,0.676259651
315,791623,2016730,0.988,0.04,-0.038,0,0,0,-35.3,5.9,27,0.157231361,0.706991791,-0.134495071,0.676259651
316,793739,2016740,0.992,0.04,-0.03,0,0,0,-35.3,5.9,27,0.157231361,0.706991791,-0.134495071,0.676259651
317,796091,2016740,0.988,0.04,-0.034,0,0,0,-35.3,5.9,27,0.157231361,0.706991791,-0.134495071,0.676259651
318,798316,2016740,0.985,0.04,-0.034,0,0,0,-35.7,5.7,26.7,0.157231361,0.706991791,-0.134495071,0.676259651
319,800565,2016740,0.985,0.036,-0.038,0,0,0,-35.7,5.7,26.7,0.157231361,0.706991791,-0.134495071,0.676259651
320,802855,2016750,0.981,0.036,-0.038,0,0,0,-35.7,5.7,26.7,0.157231361,0.706991791,-0.134495071,0.676259651
321,805518,2016750,0.981,0.04,-0.034,0,-0.1,0,-35.7,5.7,26.7,0.157231361,0.706991791,-0.134495071,0.676259651
322,807842,2016750,0.981,0.04,-0.03,0,-0.1,-0.1,-35.2,5.1,27.1,0.157231361,0.706991791,-0.134495071,0.676229133
323,810104,2016750,0.981,0.04,-0.042,0,-0.1,-0.1,-35.2,5.1,27.1,0.157231361,0.706991791,-0.134495071,0.676229133
324,812684,2016760,0.985,0.044,-0.038,0,-0.1,-0.1,-35.2,5.1,27.1,0.157231361,0.706991791,-0.134495071,0.676229133
325,816111,2016760,0.985,0.04,-0.034,0,-0.1,0,-35.2,5.1,27.1,0.157231361,0.706991791,-0.134495071,0.676229133
326,818637,2016760,0.985,0.04,-0.034,0,-0.1,0,-35.3,7.3,28.3,0.157231361,0.706991791,-0.134495071,0.676229133
327,820987,2016760,0.985,0.044,-0.034,0,-0.1,0,-35.3,7.3,28.3,0.157231361,0.706991791,-0.134495071,0.676229133
328,823190,2016770,0.985,0.048,-0.034,0,-0.2,0.1,-35.3,7.3,28.3,0.157231361,0.706991791,-0.134495071,0.676229133
329,825411,2016770,0.988,0.04,-0.03,0,-0.2,0.1,-35.3,7.3,28.3,0.157231361,0.707022309,-0.134495071,0.676229133
330,827697,2016770,0.988,0.044,-0.042,0,-0.3,0.1,-35.6,4.8,25.9,0.157231361,0.707022309,-0.134495071,0.676229133
331,830550,2016770,0.988,0.04,-0.042,0,-0.1,0,-35.6,4.8,25.9,0.157231361,0.707022309,-0.134495071,0.676229133
332,832951,2016780,0.992,0.04,-0.03,-0.1,-0.1,0,-35.6,4.8,25.9,0.157231361,0.707022309,-0.134495071,0.676229133
333,835357,2016780,0.988,0.044,-0.03,0,0,-0.1,-35.6,4.8,25.9,0.157231361,0.707022309,-0.134495071,0.676198614
334,837701,2016780,0.985,0.036,-0.034,0,0,-0.1,-35.3,4.5,25.5,0.157231361,0.707022309,-0.134464553,0.676198614
335,841811,2016780,0.988,0.04,-0.03,0,0,-0.1,-35.3,4.5,25.5,0.157231361,0.707022309,-0.134464553,0.676198614
336,842699,2016790,0.985,0.04,-0.034,0,0,-0.1,-35.3,4.5,25.5,0.157261879,0.707022309,-0.134464553,0.676198614
337,845430,2016790,0.985,0.04,-0.034,0,0,-0.1,-35.3,4.5,25.5,0.157261879,0.707022309,-0.134464553,0.676198614
338,848118,2016790,0.985,0.04,-0.038,0,0,-0.1,-35.3,4.2,25.8,0.157261879,0.707022309,-0.134464553,0.676198614
339,851040,2016790,0.985,0.04,-0.046,0,0,0,-35.3,4.2,25.8,0.157261879,0.707022309,-0.134464553,0.676198614
340,853332,2016800,0.988,0.04,-0.034,0,0,0,-35.3,4.2,25.8,0.157261879,0.707022309,-0.134464553,0.676198614
341,855304,2016800,0.988,0.04,-0.038,0,0,0,-35.3,4.2,25.8,0.157261879,0.707052828,-0.134464553,0.676198614
342,857625,2016800,0.992,0.04,-0.034,0,0,0,-35.3,4.8,26,0.157261879,0.707052828,-0.134464553,0.676198614
343,861338,2016800,0.992,0.04,-0.034,0,-0.1,0,-35.3,4.8,26,0.157261879,0.707052828,-0.134464553,0.676198614
344,863576,2016810,0.988,0.036,-0.03,0,-0.1,0,-35.3,4.8,26,0.157261879,0.707052828,-0.134464553,0.676198614
345,865933,2016810,0.992,0.044,-0.034,-0.1,-0.2,0.2,-35.3,4.8,26,0.157261879,0.707052828,-0.134495071,0.676168096
346,868128,2016810,0.985,0.036,-0.038,-0.1,-0.1,0.1,-35.3,7.6,27.2,0.157261879,0.707052828,-0.134495071,0.676168096
347,870365,2016810,0.985,0.04,-0.038,-0.1,-0.1,0,-35.3,7.6,27.2,0.157261879,0.707052828,-0.134495071,0.676168096
348,872655,2016820,0.985,0.04,-0.038,0,0,0,-35.3,7.6,27.2,0.157261879,0.707052828,-0.134495071,0.676168096
349,876051,2016820,0.985,0.036,-0.038,0,0,0,-35.3,7.6,27.2,0.157261879,0.707052828,-0.134495071,0.676168096
350,878271,2016820,0.985,0.04,-0.034,0,0.1,0,-35.2,5.7,27,0.157261879,0.707052828,-0.134495071,0.676168096
351,880517,2016820,0.985,0.04,-0.034,0,0.1,0,-35.2,5.7,27,0.157261879,0.707052828,-0.134495071,0.676168096
352,882771,2016830,0.981,0.04,-0.038,0,0,-0.1,-35.2,5.7,27,0.157261879,0.707052828,-0.134495071,0.676168096
353,885421,2016830,0.985,0.04,-0.03,0,0,-0.1,-35.2,5.7,27,0.157261879,0.707052828,-0.134495071,0.676168096
354,887800,2016830,0.988,0.04,-0.03,0,-0.1,0,-35.4,6.5,26.7,0.157261879,0.707052828,-0.134464553,0.676168096
355,891808,2016830,0.988,0.04,-0.03,0,-0.1,0,-35.4,6.5,26.7,0.157261879,0.707052828,-0.134495071,0.676168096
356,894431,2016840,0.985,0.04,-0.038,0,-0.1,0,-35.4,6.5,26.7,0.157261879,0.707052828,-0.134495071,0.676168096
357,895358,2016840,0.988,0.04,-0.042,0,-0.1,0,-35.4,6.5,26.7,0.157261879,0.707052828,-0.134495071,0.676168096
358,897884,2016840,0.985,0.04,-0.046,0,-0.1,0,-35,7.1,26.9,0.157261879,0.707052828,-0.134495071,0.676168096
359,901276,2016840,0.988,0.04,-0.034,0.1,0,0,-35,7.1,26.9,0.157261879,0.707052828,-0.134495071,0.676168096
360,903518,2016850,0.985,0.044,-0.038,0,0.1,0,-35,7.1,26.9,0.157261879,0.707052828,-0.134495071,0.676168096
361,905694,2016850,0.985,0.04,-0.034,0,0.2,0,-35,7.1,26.9,0.157261879,0.707052828,-0.134495071,0.676168096
362,908522,2016850,0.988,0.04,-0.03,0,0.1,0,-35.5,7.2,27.4,0.157261879,0.707052828,-0.134495071,0.676168096
363,910707,2016850,0.988,0.04,-0.034,-0.1,0,0,-35.5,7.2,27.4,0.157261879,0.707052828,-0.134495071,0.676168096
364,913002,2016860,0.981,0.044,-0.034,-0.1,0,0,-35.5,7.2,27.4,0.157261879,0.707052828,-0.134495071,0.676168096
365,915226,2016860,0.985,0.04,-0.03,0,0.1,-0.1,-35.5,7.2,27.4,0.157261879,0.707052828,-0.134495071,0.676198614
366,919712,2016860,0.981,0.04,-0.034,0,0.2,-0.1,-35.1,5.9,27.1,0.157261879,0.707022309,-0.134495071,0.676198614
367,920469,2016860,0.988,0.04,-0.034,0.1,0.2,0,-35.1,5.9,27.1,0.157261879,0.707022309,-0.134464553,0.676198614
368,923154,2016870,0.988,0.036,-0.03,0.1,0.2,0,-35.1,5.9,27.1,0.157261879,0.707022309,-0.134464553,0.676198614
369,925005,2016870,0.985,0.044,-0.034,0.1,0.1,0,-35.1,5.9,27.1,0.157261879,0.707022309,-0.134464553,0.676198614
370,929444,2016870,0.992,0.04,-0.038,0,0,0,-35.4,6.1,27.4,0.157261879,0.707022309,-0.134464553,0.676198614
371,930087,2016870,0.981,0.04,-0.038,0,0,0,-35.4,6.1,27.4,0.157261879,0.707022309,-0.134464553,0.676198614
372,933186,2016880,0.985,0.036,-0.038,0,0,0,-35.4,6.1,27.4,0.157261879,0.707022309,-0.134464553,0.676198614
373,935402,2016880,0.988,0.044,-0.038,0,0,0,-35.4,6.1,27.4,0.157261879,0.707022309,-0.134464553,0.676198614
374,937769,2016880,0.988,0.036,-0.042,0,0,0,-35.3,6.1,27.4,0.157261879,0.707052828,-0.134464553,0.676168096
375,939994,2016880,0.988,0.04,-0.034,0,0,0,-35.3,6.1,27.4,0.157261879,0.707052828,-0.134464553,0.676168096
376,942627,2016890,0.981,0.04,-0.042,0,0,-0.1,-35.3,6.1,27.4,0.157261879,0.707052828,-0.134464553,0.676168096
377,946165,2016890,0.985,0.04,-0.034,0,0,0,-35.3,6.1,27.4,0.157261879,0.707052828,-0.134464553,0.676168096
378,948465,2016890,0.985,0.044,-0.042,0.1,0,0,-35.7,5.8,27.2,0.157261879,0.707052828,-0.134464553,0.676168096
379,950650,2016890,0.985,0.04,-0.03,0.1,0,0,-35.7,5.8,27.2,0.157261879,0.707052828,-0.134464553,0.676168096
380,953022,2016900,0.985,0.044,-0.038,0.1,0,0,-35.7,5.8,27.2,0.157261879,0.707052828,-0.134464553,0.676168096
381,955176,2016900,0.988,0.036,-0.034,0.1,0,0,-35.7,5.8,27.2,0.157261879,0.707052828,-0.134464553,0.676168096
382,958026,2016900,0.985,0.044,-0.038,0,0,0,-36.5,5.9,27.1,0.157261879,0.707052828,-0.134464553,0.676168096
383,960276,2016900,0.981,0.04,-0.038,0,0.1,0,-36.5,5.9,27.1,0.157261879,0.707052828,-0.134464553,0.676168096
384,962430,2016910,0.985,0.04,-0.03,0,0,0,-36.5,5.9,27.1,0.157261879,0.707052828,-0.134464553,0.676168096
385,965026,2016910,0.985,0.04,-0.038,0,0,0.1,-36.5,5.9,27.1,0.157261879,0.707052828,-0.134464553,0.676168096
386,967647,2016910,0.988,0.044,-0.038,0,0,0,-34.6,4.6,27.2,0.157261879,0.707052828,-0.134464553,0.676168096
387,969997,2016910,0.992,0.036,-0.034,0,0,0,-34.6,4.6,27.2,0.157261879,0.707052828,-0.134464553,0.676168096
388,973232,2016920,0.985,0.036,-0.034,0,0,0,-34.6,4.6,27.2,0.157261879,0.707052828,-0.134464553,0.676168096
389,975512,2016920,0.988,0.036,-0.034,0,0,0,-34.6,4.6,27.2,0.157261879,0.707052828,-0.134464553,0.676168096
390,977721,2016920,0.985,0.036,-0.03,0,0,0,-36,7.8,26.9,0.157261879,0.707052828,-0.134464553,0.676168096
391,979961,2016920,0.988,0.04,-0.038,0,0,0,-36,7.8,26.9,0.157231361,0.707052828,-0.134464553,0.676168096
392,984193,2016930,0.985,0.044,-0.03,0,0,0,-36,7.8,26.9,0.157231361,0.707052828,-0.134464553,0.676168096
393,985003,2016930,0.981,0.04,-0.03,0,0,0,-36,7.8,26.9,0.157231361,0.707052828,-0.134464553,0.676168096
394,987590,2016930,0.985,0.044,-0.042,0,0,0,-37,7.2,27,0.157261879,0.707022309,-0.134464553,0.676198614
395,990332,2016930,0.985,0.032,-0.038,0,0,0,-37,7.2,27,0.157261879,0.707022309,-0.134464553,0.676198614
396,992500,2016940,0.985,0.04,-0.026,0,0,-0.1,-37,7.2,27,0.157261879,0.707022309,-0.134464553,0.676198614
397,995049,2016940,0.985,0.04,-0.038,0,0,-0.1,-37,7.2,27,0.157261879,0.707022309,-0.134464553,0.676198614
398,997483,2016940,0.985,0.04,-0.03,0,0,-0.1,-37.4,7.2,27.3,0.157261879,0.707052828,-0.134434034,0.676198614
399,1001609,2016940,0.985,0.04,-0.03,0,0,-0.1,-37.4,7.2,27.3,0.157261879,0.707052828,-0.134434034,0.676198614
400,1002679,2016950,0.988,0.04,-0.038,0,0,0,-37.4,7.2,27.3,0.157261879,0.707052828,-0.134434034,0.676198614
401,1005046,2016950,0.985,0.044,-0.042,0,0,0,-37.4,7.2,27.3,0.157261879,0.707052828,-0.134434034,0.676198614
402,1008380,2016950,0.985,0.036,-0.038,-0.1,0,0.1,-36.9,7.3,27.5,0.157261879,0.707022309,-0.134434034,0.676198614
403,1010565,2016950,0.988,0.036,-0.034,0,0,0.1,-36.9,7.3,27.5,0.157261879,0.707022309,-0.134464553,0.676198614
404,1012667,2016960,0.985,0.04,-0.034,0,0,0.1,-36.9,7.3,27.5,0.157261879,0.707022309,-0.134464553,0.676198614
405,1015278,2016960,0.985,0.04,-0.034,0,0,0,-36.9,7.3,27.5,0.157261879,0.707052828,-0.134464553,0.676198614
406,1017817,2016960,0.985,0.036,-0.034,0,0,0,-34.3,5.6,27.1,0.157261879,0.707052828,-0.134464553,0.676198614
407,1020591,2016960,0.988,0.036,-0.034,0,0,-0.1,-34.3,5.6,27.1,0.157261879,0.707052828,-0.134464553,0.676198614
408,1022629,2016970,0.988,0.036,-0.034,0,0,0,-34.3,5.6,27.1,0.157261879,0.707052828,-0.134464553,0.676198614
409,1025006,2016970,0.985,0.04,-0.034,0.1,0,0,-34.3,5.6,27.1,0.157261879,0.707052828,-0.134434034,0.676198614
410,1028326,2016970,0.985,0.04,-0.038,0,0,0,-36.2,6.5,26.8,0.157261879,0.707052828,-0.134464553,0.676198614
411,1030632,2016970,0.985,0.04,-0.034,0,-0.1,0.1,-36.2,6.5,26.8,0.157261879,0.707052828,-0.134464553,0.676198614
412,1032876,2016980,0.985,0.04,-0.034,0,-0.3,0,-36.2,6.5,26.8,0.157261879,0.707052828,-0.134464553,0.676198614
413,1035147,2016980,0.985,0.036,-0.038,0,-0.3,-0.1,-36.2,6.5,26.8,0.157261879,0.707052828,-0.134464553,0.676168096
414,1037873,2016980,0.988,0.044,-0.03,0,-0.1,-0.1,-35.4,6.4,27,0.157261879,0.707052828,-0.134464553,0.676168096
415,1040300,2016980,0.988,0.044,-0.03,0,-0.1,-0.1,-35.4,6.4,27,0.157261879,0.707052828,-0.134464553,0.676168096
416,1042547,2016990,0.988,0.044,-0.038,0,0,0,-35.4,6.4,27,0.157261879,0.707052828,-0.134464553,0.676168096
417,1045945,2016990,0.985,0.04,-0.038,0,0,0,-35.4,6.4,27,0.157261879,0.707052828,-0.134464553,0.676168096
418,1048247,2016990,0.985,0.04,-0.034,0,0,0,-35.2,6.2,27,0.157261879,0.707083346,-0.134464553,0.676168096
419,1050487,2016990,0.985,0.044,-0.038,0,0,0,-35.2,6.2,27,0.157261879,0.707083346,-0.134464553,0.676168096
420,1052739,2017000,0.985,0.044,-0.034,0,0,0,-35.2,6.2,27,0.157261879,0.707083346,-0.134464553,0.676168096
421,1054980,2017000,0.985,0.04,-0.03,0,0,0,-35.2,6.2,27,0.157261879,0.707083346,-0.134464553,0.676168096
422,1058464,2017000,0.988,0.04,-0.042,0,0,0,-34.4,6.3,27.2,0.157261879,0.707083346,-0.134464553,0.676168096
423,1060635,2017000,0.988,0.036,-0.034,0,0,-0.1,-34.4,6.3,27.2,0.157261879,0.707083346,-0.134464553,0.676168096
424,1062934,2017010,0.985,0.04,-0.03,0,0,-0.1,-34.4,6.3,27.2,0.157261879,0.707083346,-0.134464553,0.676168096
425,1065278,2017010,0.988,0.044,-0.038,0,-0.1,0,-34.4,6.3,27.2,0.157261879,0.707083346,-0.134464553,0.676168096
426,1068857,2017010,0.985,0.036,-0.038,0,-0.1,0,-35.4,6,27.1,0.157261879,0.707083346,-0.134464553,0.676168096
427,1069987,2017010,0.988,0.04,-0.034,0,-0.1,0,-35.4,6,27.1,0.157261879,0.707083346,-0.134464553,0.676137577
428,1073298,2017020,0.985,0.036,-0.038,0,0,0,-35.4,6,27.1,0.157261879,0.707083346,-0.134464553,0.676137577
429,1075486,2017020,0.985,0.036,-0.034,0,0,0,-35.4,6,27.1,0.157261879,0.707083346,-0.134464553,0.676137577
430,1077762,2017020,0.985,0.04,-0.03,0,0,0,-35.7,6.2,27.4,0.157261879,0.707083346,-0.134464553,0.676137577
431,1080012,2017020,0.988,0.04,-0.038,0,0,0,-35.7,6.2,27.4,0.157261879,0.707083346,-0.134464553,0.676137577
432,1082694,2017030,0.985,0.04,-0.034,0,0,-0.1,-35.7,6.2,27.4,0.157261879,0.707083346,-0.134464553,0.676137577
433,1084975,2017030,0.988,0.04,-0.038,0.1,-0.1,0,-35.7,6.2,27.4,0.157261879,0.707083346,-0.134464553,0.676137577
434,1088752,2017030,0.985,0.04,-0.034,0.1,-0.1,-0.1,-36,5.9,27.1,0.157261879,0.707083346,-0.134434034,0.676137577
435,1089943,2017030,0.985,0.04,-0.034,0.1,-0.1,-0.1,-36,5.9,27.1,0.157261879,0.707083346,-0.134434034,0.676137577
436,1092747,2017040,0.985,0.044,-0.03,0.1,-0.1,-0.1,-36,5.9,27.1,0.157261879,0.707083346,-0.134434034,0.676137577
437,1096020,2017040,0.985,0.036,-0.038,0.1,-0.1,0,-36,5.9,27.1,0.157261879,0.707083346,-0.134434034,0.676137577
438,1098348,2017040,0.985,0.04,-0.03,0,0,0,-35.6,6.4,27,0.157261879,0.707083346,-0.134434034,0.676137577
439,1100514,2017040,0.988,0.04,-0.038,0,0.1,0,-35.6,6.4,27,0.157261879,0.707083346,-0.134434034,0.676137577
440,1102762,2017050,0.988,0.04,-0.038,0,0.1,0,-35.6,6.4,27,0.157261879,0.707083346,-0.134434034,0.676137577
441,1105020,2017050,0.988,0.04,-0.034,0,0,0,-35.6,6.4,27,0.157261879,0.707083346,-0.134434034,0.676137577
442,1107536,2017050,0.985,0.04,-0.038,0,0,0,-35.6,6,27.2,0.157261879,0.707083346,-0.134434034,0.676137577
443,1110994,2017050,0.988,0.048,-0.038,0,-0.1,0,-35.6,6,27.2,0.157261879,0.707083346,-0.134434034,0.676137577
444,1113112,2017060,0.985,0.036,-0.038,0,-0.1,0,-35.6,6,27.2,0.157261879,0.707083346,-0.134434034,0.676137577
445,1115473,2017060,0.988,0.036,-0.034,-0.1,-0.1,0,-35.6,6,27.2,0.157261879,0.707083346,-0.134434034,0.676137577
446,1117789,2017060,0.985,0.036,-0.034,0,-0.1,0,-36.7,6.1,27.2,0.157261879,0.707083346,-0.134434034,0.676137577
447,1120053,2017060,0.985,0.04,-0.042,0,0,0,-36.7,6.1,27.2,0.157261879,0.707083346,-0.134434034,0.676137577
448,1123776,2017070,0.981,0.036,-0.034,0,0,0,-36.7,6.1,27.2,0.157261879,0.707083346,-0.134434034,0.676137577
449,1126020,2017070,0.988,0.044,-0.038,0,0,0,-36.7,6.1,27.2,0.157261879,0.707083346,-0.134434034,0.676137577
450,1127546,2017070,0.992,0.048,-0.03,0,0,0,-34.4,6.1,26.8,0.157261879,0.707083346,-0.134434034,0.676137577
451,1130165,2017070,0.988,0.036,-0.038,0,0,0,-34.4,6.1,26.8,0.157261879,0.707083346,-0.134434034,0.676137577
452,1132397,2017080,0.988,0.036,-0.038,0,0.1,0,-34.4,6.1,26.8,0.157261879,0.707083346,-0.134434034,0.676137577
453,1135478,2017080,0.985,0.04,-0.038,0,0.1,0,-34.4,6.1,26.8,0.157261879,0.707083346,-0.134434034,0.676137577
454,1137690,2017080,0.981,0.04,-0.034,0,0,0,-34.2,6.2,26.8,0.157261879,0.707113865,-0.134434034,0.676137577
455,1139978,2017080,0.985,0.036,-0.038,0,0,0,-34.2,6.2,26.8,0.157261879,0.707113865,-0.134434034,0.676137577
456,1142537,2017090,0.988,0.04,-0.034,0,0,0,-34.2,6.2,26.8,0.157261879,0.707113865,-0.134434034,0.676137577
457,1144921,2017090,0.985,0.04,-0.034,0,0,-0.1,-34.2,6.2,26.8,0.157261879,0.707113865,-0.134434034,0.676137577
458,1148269,2017090,0.985,0.04,-0.038,0,0,-0.1,-34.1,5.8,26.7,0.157261879,0.707113865,-0.134434034,0.676137577
459,1150457,2017090,0.985,0.04,-0.034,0,0,0,-34.1,5.8,26.7,0.157261879,0.707113865,-0.134434034,0.676137577
460,1152715,2017100,0.985,0.036,-0.038,0,0.1,0,-34.1,5.8,26.7,0.157261879,0.707083346,-0.134434034,0.676137577
461,1154991,2017100,0.985,0.04,-0.034,-0.1,0,0,-34.1,5.8,26.7,0.157292398,0.707083346,-0.134434034,0.676137577
462,1159167,2017100,0.985,0.04,-0.034,-0.1,0,0,-34,6.4,27.2,0.157292398,0.707083346,-0.134434034,0.676137577
463,1161502,2017100,0.988,0.044,-0.034,0,0,0,-34,6.4,27.2,0.157292398,0.707083346,-0.134434034,0.676137577
464,1163466,2017110,0.988,0.04,-0.03,0,0,0,-34,6.4,27.2,0.157292398,0.707083346,-0.134434034,0.676137577
465,1165893,2017110,0.985,0.036,-0.03,0.1,0,0,-34,6.4,27.2,0.157292398,0.707083346,-0.134434034,0.676137577
466,1168156,2017110,0.988,0.04,-0.034,0.1,0,0,-35.7,5.8,27.1,0.157292398,0.707083346,-0.134434034,0.676137577
467,1171175,2017110,0.988,0.036,-0.038,0,0.1,0,-35.7,5.8,27.1,0.157292398,0.707083346,-0.134434034,0.676137577
468,1173359,2017120,0.985,0.04,-0.034,-0.1,0.1,-0.1,-35.7,5.8,27.1,0.157292398,0.707083346,-0.134434034,0.676137577
469,1176330,2017120,0.988,0.044,-0.038,-0.1,0.1,-0.1,-35.7,5.8,27.1,0.157292398,0.707083346,-0.134434034,0.676137577
470,1177526,2017120,0.985,0.044,-0.034,-0.1,0.2,-0.1,-34.6,6.1,27.1,0.157292398,0.707083346,-0.134434034,0.676137577
471,1180014,2017120,0.985,0.036,-0.03,0,0.2,0,-34.6,6.1,27.1,0.157292398,0.707083346,-0.134434034,0.676137577
472,1182640,2017130,0.985,0.036,-0.038,0,0.1,0,-34.6,6.1,27.1,0.157292398,0.707083346,-0.134434034,0.676137577
473,1185100,2017130,0.985,0.04,-0.034,0,0.1,0,-34.6,6.1,27.1,0.157292398,0.707083346,-0.134434034,0.676137577
474,1188226,2017130,0.988,0.032,-0.038,0,0,0,-34.9,6.1,27,0.157292398,0.707052828,-0.134434034,0.676168096
475,1190597,2017130,0.988,0.032,-0.038,0,0,0,-34.9,6.1,27,0.157292398,0.707052828,-0.134434034,0.676168096
476,1192770,2017140,0.985,0.044,-0.042,0,0,0,-34.9,6.1,27,0.157292398,0.707052828,-0.134434034,0.676168096
477,1195218,2017140,0.988,0.036,-0.042,0,-0.1,0,-34.9,6.1,27,0.157292398,0.707052828,-0.134434034,0.676168096
478,1198967,2017140,0.988,0.04,-0.034,0,-0.1,0,-34.9,6.2,27.3,0.157292398,0.707083346,-0.134434034,0.676168096
479,1200496,2017140,0.988,0.036,-0.034,0,-0.1,0,-34.9,6.2,27.3,0.157292398,0.707083346,-0.134434034,0.676168096
480,1202824,2017150,0.988,0.04,-0.038,0,0,0,-34.9,6.2,27.3,0.157292398,0.707083346,-0.134434034,0.676168096
481,1205588,2017150,0.988,0.04,-0.038,0,0.1,0.1,-34.9,6.2,27.3,0.157292398,0.707083346,-0.134434034,0.676168096
482,1207831,2017150,0.988,0.04,-0.034,0,0.1,0,-35.1,6.1,27,0.157292398,0.707052828,-0.134434034,0.676168096
483,1211214,2017150,0.985,0.04,-0.034,-0.1,0,0,-35.1,6.1,27,0.157292398,0.707052828,-0.134434034,0.676168096
484,1213535,2017160,0.985,0.04,-0.038,-0.1,0,0,-35.1,6.1,27,0.157292398,0.707052828,-0.134434034,0.676168096
485,1215698,2017160,0.985,0.04,-0.034,0,0,0.1,-35.1,6.1,27,0.157292398,0.707052828,-0.134464553,0.676168096
486,1217975,2017160,0.985,0.04,-0.034,0,0,0.1,-35.3,5.9,27,0.157292398,0.707052828,-0.134464553,0.676168096
487,1220256,2017160,0.985,0.044,-0.038,0,0,0,-35.3,5.9,27,0.157292398,0.707052828,-0.134464553,0.676168096
488,1222774,2017170,0.985,0.036,-0.038,0,-0.1,0,-35.3,5.9,27,0.157292398,0.707052828,-0.134464553,0.676168096
489,1226078,2017170,0.981,0.04,-0.034,0,-0.1,0,-35.3,5.9,27,0.157292398,0.707052828,-0.134464553,0.676168096
490,1228242,2017170,0.985,0.04,-0.034,0,0,0,-35.3,6,27.5,0.157292398,0.707052828,-0.134464553,0.676168096
491,1230489,2017170,0.988,0.04,-0.034,0,0,0.1,-35.3,6,27.5,0.157292398,0.707052828,-0.134464553,0.676168096
492,1232709,2017180,0.985,0.04,-0.034,0,0,0,-35.3,6,27.5,0.157292398,0.707052828,-0.134464553,0.676168096
493,1236519,2017180,0.985,0.04,-0.034,0.1,0.1,0.1,-35.3,6,27.5,0.157292398,0.707052828,-0.134464553,0.676168096
494,1238726,2017180,0.985,0.04,-0.034,0.1,0.1,0.1,-35.3,6,27.5,0.157292398,0.707052828,-0.134464553,0.676168096
495,1241051,2017180,0.985,0.044,-0.034,0.1,0.2,0,-35.4,6.1,27.7,0.157292398,0.707052828,-0.134434034,0.676168096
496,1242917,2017190,0.988,0.04,-0.034,0.1,0.2,-0.1,-35.4,6.1,27.7,0.157292398,0.707052828,-0.134434034,0.676198614
497,1245246,2017190,0.992,0.04,-0.03,0.1,0.2,-0.1,-35.4,6.1,27.7,0.157292398,0.707052828,-0.134434034,0.676198614
498,1247936,2017190,0.985,0.04,-0.038,0.1,0.2,-0.1,-35.5,6.1,28.5,0.157292398,0.707022309,-0.134434034,0.676198614
499,1251276,2017190,0.985,0.04,-0.038,0,0.1,-0.1,-35.5,6.1,28.5,0.157292398,0.707022309,-0.134434034,0.676198614
500,1254304,2017200,0.988,0.04,-0.03,0,0,0,-35.5,6.1,28.5,0.157292398,0.707022309,-0.134434034,0.676198614
501,1256607,2017200,0.985,0.036,-0.038,0,0,0,-35.5,6.1,28.5,0.157292398,0.707022309,-0.134434034,0.676198614
502,1258758,2017200,0.988,0.04,-0.034,0.1,0,0,-35.6,6.5,28.7,0.157292398,0.707022309,-0.134434034,0.676198614
503,1260972,2017200,0.988,0.036,-0.038,0,0.1,0,-35.6,6.5,28.7,0.157292398,0.707022309,-0.134434034,0.676198614
504,1263202,2017210,0.988,0.036,-0.042,0,0.2,0,-35.6,6.5,28.7,0.157292398,0.707022309,-0.134434034,0.676198614
505,1265146,2017210,0.985,0.04,-0.042,0,0.1,0,-35.6,6.5,28.7,0.157292398,0.707022309,-0.134434034,0.676198614
506,1267875,2017210,0.985,0.04,-0.034,0,0,-0.1,-35.4,5.8,25.4,0.157292398,0.707022309,-0.134434034,0.676198614
507,1270997,2017210,0.985,0.04,-0.038,0,0,-0.1,-35.4,5.8,25.4,0.157292398,0.707022309,-0.134403516,0.676198614
508,1273338,2017220,0.985,0.04,-0.03,0,0,0,-35.4,5.8,25.4,0.157292398,0.707022309,-0.134403516,0.676198614
509,1276260,2017220,0.985,0.04,-0.038,0,0,0,-35.4,5.8,25.4,0.157292398,0.707022309,-0.134403516,0.676198614
510,1279302,2017220,0.985,0.04,-0.034,0,0,0,-35.1,6,28,0.157292398,0.707022309,-0.134403516,0.676198614
511,1281492,2017220,0.985,0.036,-0.034,0,0,0,-35.1,6,28,0.157292398,0.707022309,-0.134403516,0.676198614
512,1283735,2017230,0.985,0.04,-0.038,0,0,0,-35.1,6,28,0.157292398,0.707022309,-0.134403516,0.676198614
513,1286024,2017230,0.985,0.04,-0.03,0,0,0,-35.1,6,28,0.157292398,0.707022309,-0.134403516,0.676198614
514,1288269,2017230,0.985,0.04,-0.038,0,-0.1,0.1,-35.2,6.4,27.9,0.157292398,0.707022309,-0.134434034,0.676229133
515,1290452,2017230,0.985,0.04,-0.038,0,-0.1,0.1,-35.2,6.4,27.9,0.157292398,0.707022309,-0.134434034,0.676229133
516,1292702,2017240,0.985,0.04,-0.038,0,-0.1,0.1,-35.2,6.4,27.9,0.157292398,0.707022309,-0.134434034,0.676229133
517,1295774,2017240,0.985,0.04,-0.038,0,-0.1,0.1,-35.2,6.4,27.9,0.157292398,0.707022309,-0.134434034,0.676229133
518,1298097,2017240,0.985,0.04,-0.038,0,-0.1,0.1,-35.2,6.4,27.9,0.157292398,0.707022309,-0.134434034,0.676229133
519,1300213,2017240,0.985,0.04,-0.038,0,-0.1,0.1,-35.2,6.4,27.9,0.157292398,0.707022309,-0.134434034,0.676229133
520,1303483,2017250,0.985,0.04,-0.038,0,-0.1,0.1,-35.2,6.4,27.9,0.157292398,0.707022309,-0.134434034,0.676229133
521,1305514,2017250,0.985,0.04,-0.038,0,-0.1,0.1,-35.2,6.4,27.9,0.157292398,0.707022309,-0.134434034,0.676229133
522,1307726,2017250,0.985,0.04,-0.038,0,-0.1,0.1,-35.2,6.4,27.9,0.157292398,0.707022309,-0.134434034,0.676229133
523,1311928,2017250,0.988,0.036,-0.034,0,-0.1,0,-35,6.2,25.3,0.157292398,0.707022309,-0.134434034,0.676198614
524,1312603,2017260,0.988,0.04,-0.038,0,-0.2,0,-35,6.2,25.3,0.157292398,0.707022309,-0.134434034,0.676198614
525,1315504,2017260,0.988,0.04,-0.042,0,-0.1,0,-35,6.2,25.3,0.157292398,0.707022309,-0.134434034,0.676198614
526,1317914,2017260,0.985,0.04,-0.038,0,-0.1,0,-35.2,6.4,26.5,0.157292398,0.707022309,-0.134434034,0.676198614
527,1320670,2017260,0.988,0.04,-0.034,0,-0.1,0,-35.2,6.4,26.5,0.157292398,0.707022309,-0.134434034,0.676198614
528,1322856,2017270,0.988,0.04,-0.034,0,-0.1,0,-35.2,6.4,26.5,0.157292398,0.707022309,-0.134434034,0.676198614
529,1325503,2017270,-6.464,-1.096,-0.763,-0.1,0.4,-0.2,-35.2,6.4,26.5,0.157292398,0.707022309,-0.134434034,0.676198614
530,1327952,2017270,4.698,-1.922,-8.127,-7,37.4,-1.9,-35,6.2,26.9,0.157536546,0.706442457,-0.134372997,0.676747948
531,1330469,2017270,6.197,-1.53,-8.175,-5.7,172.3,-15.9,-35,6.2,26.9,0.158360546,0.70393994,-0.133610034,0.679342021
532,1332728,2017280,3.09,1.69,-8.07,56.4,308.2,-39.5,-35,6.2,26.9,0.159001434,0.699667348,-0.131076998,0.68407239
533,1335368,2017280,3.272,8.013,-0.116,187.8,315.4,-61.5,-35,6.2,26.9,0.157933287,0.695760979,-0.126255074,0.689199499
534,1337651,2017280,0.765,7.501,8.015,284.4,154.1,-63.2,-37.2,8.2,25.5,0.15500351,0.694570757,-0.120487075,0.692068239
535,1341718,2017280,4.208,-7.554,6.097,148.4,-32.2,-38.1,-37.2,8.2,25.5,0.153233436,0.695669424,-0.117770928,0.69185461
536,1343996,2017290,-5.867,1.695,7.378,-121,-91.3,11,-37.2,8.2,25.5,0.154667806,0.696584979,-0.120090335,0.690176092
537,1346269,2017290,-5.067,8.104,8.198,-266.7,-3.4,42.5,-37.2,8.2,25.5,0.158055361,0.695638905,-0.124759667,0.689565722
538,1348086,2017290,-0.313,0.469,-1.777,-184.8,98.1,38.8,-36.9,7.1,26,0.160557878,0.693411054,-0.127780999,0.690664388
539,1350310,2017290,1.276,-4.605,-8.011,-60.2,93,4.5,-36.9,7.1,26,0.161656545,0.691763054,-0.128452406,0.691946165
540,1352690,2017300,0.182,-1.332,0.962,-40.9,-16.8,-20.8,-36.9,7.1,26,0.162541581,0.691946165,-0.128818628,0.691488388
541,1356205,2017300,0.526,1.593,-1.399,-36.9,-96.5,-28.2,-36.9,7.1,26,0.163243507,0.693350017,-0.129276406,0.689840388
542,1358562,2017300,0.039,-0.435,-3.783,17.8,-71.5,-25.7,-36.1,7,26,0.16318247,0.694570757,-0.128879666,0.688711203
543,1361518,2017300,-1.06,-2.989,-2.131,57.9,5.6,-15.8,-36.1,7,26,0.162541581,0.69472335,-0.127750481,0.688894314
544,1363676,2017310,-0.114,-2.178,3.45,33.2,54.5,-0.4,-36.1,7,26,0.162205878,0.694021424,-0.127048555,0.68980987
545,1366024,2017310,2.833,2.013,3.784,-4.1,29.2,11.9,-36.1,7,26,0.162175359,0.693533128,-0.127170629,0.690298166
546,1368170,2017310,3.023,1.409,2.287,-9.3,-43.5,15.1,-36,6.4,27.7,0.16196173,0.69411298,-0.127719962,0.689657277
547,1370381,2017310,0.073,0.248,-0.503,7.2,-87.6,10.5,-36,6.4,27.7,0.161442915,0.695425275,-0.128055666,0.6883755
548,1372655,2017320,0.378,1.445,-1.014,20,-59.6,3.3,-36,6.4,27.7,0.1609241,0.696371349,-0.128025147,0.6875515
549,1375262,2017320,0.736,1.01,-0.589,26.5,1.5,-2.4,-36,6.4,27.7,0.160557878,0.696462905,-0.127597888,0.687643056
550,1378738,2017320,1.302,-0.227,-0.639,26.8,33.1,-5.2,-36.5,6,26.6,0.16031373,0.696066164,-0.126987518,0.688192389
551,1381061,2017320,1.462,0.542,-1.053,16,23.6,-4.2,-36.5,6,26.6,0.160222175,0.695791498,-0.126590777,0.688589129
552,1383284,2017330,0.89,0.507,-1.243,2.4,3.8,-1.2,-36.5,6,26.6,0.160191656,0.695730461,-0.12652974,0.688650166
553,1385481,2017330,0.341,-0.112,-0.801,-4.9,-2.3,1.2,-36.5,6,26.6,0.160252693,0.695760979,-0.126621296,0.688589129
554,1387731,2017330,1.049,-0.346,-0.654,-9,1.9,2.9,-36.1,5.4,26.7,0.160344249,0.695669424,-0.126804407,0.688619648
555,1390425,2017330,1.392,-0.105,-0.297,-11.6,0.4,3.7,-36.1,5.4,26.7,0.160466323,0.695638905,-0.127048555,0.688589129
556,1392649,2017340,1.572,0.086,-0.17,-8.3,-10.3,3.4,-36.1,5.4,26.7,0.16052736,0.695730461,-0.127262185,0.688436537
557,1396777,2017340,1.533,0.125,-0.396,0.1,-18.5,2.2,-36.1,5.4,26.7,0.160435804,0.696005127,-0.12735374,0.68816187
558,1399099,2017340,1.153,0.727,-0.401,8.8,-14.3,0.8,-36.4,5,26.5,0.160252693,0.696249275,-0.127262185,0.687978759
559,1401070,2017340,1.122,0.771,-0.213,14.2,-1.6,-0.3,-36.4,5,26.5,0.160039064,0.696340831,-0.127048555,0.687978759
560,1403272,2017350,1.159,0.321,-0.491,13.1,8.3,-0.6,-36.4,5,26.5,0.159855953,0.696249275,-0.126834925,0.688131352
561,1405654,2017350,1.028,0.32,0.19,6.3,10.1,-0.3,-36.4,5,26.5,0.159794916,0.696127201,-0.126682333,0.688314463
562,1408604,2017350,0.974,0.124,0.243,-2.1,5.7,0.2,-36.3,4,26.8,0.159855953,0.696035646,-0.126712851,0.688406018
563,1411535,2017350,0.899,-0.288,0.149,-8.2,0.5,0.6,-36.3,4,26.8,0.159947508,0.696005127,-0.126834925,0.6883755
564,1413756,2017360,0.875,-0.3,0.224,-10.3,-2,0.6,-36.3,4,26.8,0.160100101,0.695974609,-0.127018036,0.688314463
565,1416112,2017360,1.033,0.152,0.708,-8.9,-2.6,0.2,-36.3,4,26.8,0.160222175,0.696005127,-0.127170629,0.688253426
566,1418315,2017360,1.157,0.06,0.532,-4.9,-2.8,-0.1,-36.1,8,28.3,0.160283212,0.696005127,-0.127231666,0.688192389
567,1420417,2017360,1.134,0.147,0.536,-0.8,-3.4,-0.4,-36.1,8,28.3,0.16031373,0.696066164,-0.127262185,0.688131352
568,1422822,2017370,0.962,0.151,0.091,1.4,-3.1,-0.6,-36.1,8,28.3,0.160283212,0.696127201,-0.127231666,0.688100833
569,1425485,2017370,0.895,-0.017,-0.258,1.8,-1.1,-0.5,-36.1,8,28.3,0.160252693,0.69615772,-0.127170629,0.688070315
570,1427727,2017370,0.836,-0.025,-0.139,0.5,1.9,-0.4,-36.1,5.4,26.1,0.160252693,0.696127201,-0.127170629,0.688100833
571,1431786,2017370,0.918,0.072,-0.012,-1.3,3.5,-0.1,-36.1,5.4,26.1,0.16031373,0.696066164,-0.127170629,0.68816187
572,1432604,2017380,1.032,-0.069,0.293,-2.9,2.4,0.1,-36.1,5.4,26.1,0.160344249,0.696005127,-0.127231666,0.688192389
573,1436693,2017380,1.016,-0.088,0.239,-3.9,-0.3,0.5,-36.1,5.4,26.1,0.160374767,0.696005127,-0.127292703,0.688192389
574,1437558,2017380,0.934,0.052,-0.252,-3.8,-1.9,0.7,-36,5.3,26.2,0.160435804,0.696035646,-0.127384259,0.688131352
575,1440173,2017380,0.914,0.005,-0.337,-2.4,-0.6,0.8,-36,5.3,26.2,0.160466323,0.696035646,-0.127414777,0.688131352
576,1444229,2017390,0.96,-0.03,-0.35,-0.3,1.9,0.8,-36,5.3,26.2,0.160466323,0.695974609,-0.127445296,0.68816187
577,1446502,2017390,1.047,0.043,-0.169,1.2,3,0.7,-36,5.3,26.2,0.160435804,0.69594409,-0.127414777,0.688222907
578,1448692,2017390,1.078,0.118,0.025,1.9,1.4,0.7,-36.2,5.6,26.2,0.160374767,0.69594409,-0.127384259,0.688253426
579,1450943,2017390,0.985,0.084,0.322,2.1,-1,0.7,-36.2,5.6,26.2,0.160344249,0.69594409,-0.127384259,0.688222907
580,1452882,2017400,0.981,0.116,0.188,1.9,-2.1,0.7,-36.2,5.6,26.2,0.16031373,0.695974609,-0.12735374,0.688192389
581,1455257,2017400,0.962,0.12,0.13,1.3,-1.3,0.6,-36.2,5.6,26.2,0.160283212,0.696005127,-0.12735374,0.688192389
582,1457711,2017400,0.977,-0.045,-0.002,0.4,0.1,0.6,-35.8,5.9,26.4,0.160252693,0.696005127,-0.12735374,0.688192389
583,1461598,2017400,1.023,0.032,-0.043,-0.3,1,0.5,-35.8,5.9,26.4,0.160252693,0.696005127,-0.12735374,0.688222907
584,1463802,2017410,1.016,0.056,-0.031,-0.6,0.9,0.5,-35.8,5.9,26.4,0.160252693,0.695974609,-0.127384259,0.688222907
585,1466171,2017410,0.981,0.052,-0.042,-0.4,0.3,0.6,-35.8,5.9,26.4,0.160252693,0.695974609,-0.127384259,0.688222907
586,1469156,2017410,0.938,0.112,-0.013,0,0.1,0.9,-36.2,7.5,27.3,0.160252693,0.695974609,-0.127414777,0.688253426
587,1471300,2017410,0.957,0.064,-0.049,0,0.2,1.3,-36.2,7.5,27.3,0.160222175,0.69594409,-0.127445296,0.688253426
588,1473572,2017420,0.992,0.016,-0.112,-0.4,0.2,1.7,-36.2,7.5,27.3,0.160222175,0.69594409,-0.127475814,0.688253426
589,1475557,2017420,1.008,0.048,-0.066,-1.2,-0.1,2.2,-36.2,7.5,27.3,0.160191656,0.69594409,-0.127506333,0.688253426
590,1477862,2017420,0.996,0.028,-0.054,-1.9,-0.7,2.4,-36.5,6.5,26.7,0.160191656,0.69594409,-0.127597888,0.688253426
591,1480149,2017420,0.984,0.017,-0.053,-2.2,-0.9,2.5,-36.5,6.5,26.7,0.160161138,0.69594409,-0.127658925,0.688253426
592,1482842,2017430,0.977,0.021,-0.116,-2.4,-0.7,2.5,-36.5,6.5,26.7,0.160161138,0.695913572,-0.127750481,0.688222907
593,1485155,2017430,0.934,-0.013,-0.06,-2.3,-0.5,2.5,-36.5,6.5,26.7,0.160161138,0.695913572,-0.127811518,0.688222907
594,1487666,2017430,0.965,0.013,-0.174,-2.2,-0.5,2.5,-36.1,7.3,26.9,0.160039064,0.696066164,-0.128025147,0.688070315
595,1490176,2017430,0.965,0.013,-0.174,-1.9,-0.9,2.7,-36.1,7.3,26.9,0.160008545,0.696066164,-0.128086184,0.688039796
596,1492921,2017440,0.965,-0.014,-0.049,-1.8,-1.7,2.9,-36.1,7.3,26.9,0.160008545,0.696096683,-0.128147221,0.688009278
597,1495118,2017440,0.981,-0.018,-0.014,-1.4,-2.6,3,-36.1,7.3,26.9,0.159978027,0.696127201,-0.128238777,0.687978759
598,1499360,2017440,0.989,0.025,0.079,-1.1,-3.3,3.1,-36.3,6.8,27,0.159947508,0.69615772,-0.128330332,0.687948241
599,1501547,2017440,0.993,0.052,0.173,-0.7,-3.8,3,-36.3,6.8,27,0.159886471,0.696188238,-0.128391369,0.687887204
600,1503715,2017450,0.985,0.068,0.22,-0.2,-4,3,-36.3,6.8,27,0.159825434,0.696249275,-0.128452406,0.687856685
601,1506090,2017450,0.977,0.088,0.22,0,-3.6,2.9,-36.3,6.8,27,0.159764397,0.696279794,-0.128513443,0.687795648
602,1508343,2017450,0.966,0.08,0.177,0.2,-3,2.8,-36.3,7.4,27,0.159733879,0.696340831,-0.12857448,0.68776513
603,1510758,2017450,0.977,0.072,0.095,0.1,-2.3,2.8,-36.3,7.4,27,0.159672842,0.696371349,-0.128604999,0.687734611
604,1512831,2017460,0.985,0.064,0.04,-0.1,-2,2.7,-36.3,7.4,27,0.159611805,0.696401868,-0.128666036,0.687734611
605,1515157,2017460,0.985,0.021,0.024,-0.7,-2,2.6,-36.3,7.4,27,0.159581286,0.696401868,-0.128727073,0.687704093
606,1517790,2017460,0.981,0.001,0.016,-1.5,-2.4,2.5,-36.1,6,27.3,0.159581286,0.696432386,-0.12878811,0.687673574
607,1521950,2017460,0.965,0.017,-0.025,-2.1,-2.9,2.4,-36.1,6,27.3,0.159550768,0.696462905,-0.128879666,0.687612537
608,1522619,2017470,0.961,0.001,-0.072,-2.3,-3.2,2.4,-36.1,6,27.3,0.159550768,0.696493423,-0.128940703,0.687582018
609,1525671,2017470,0.949,-0.029,-0.115,-2.1,-3.2,2.4,-36.1,6,27.3,0.159550768,0.696523942,-0.129032258,0.687520981
610,1528022,2017470,0.941,-0.025,-0.146,-1.7,-2.8,2.6,-36.3,7.2,27.5,0.159520249,0.69655446,-0.129093295,0.687490463
611,1530182,2017470,0.949,-0.002,-0.127,-1.2,-2.5,2.7,-36.3,7.2,27.5,0.159489731,0.696584979,-0.129184851,0.687459944
612,1532848,2017480,0.961,-0.006,-0.115,-0.8,-2.6,2.8,-36.3,7.2,27.5,0.159459212,0.696615497,-0.129245888,0.687429426
613,1535290,2017480,0.98,-0.006,-0.085,-0.6,-3,2.7,-36.3,7.2,27.5,0.159398175,0.696646016,-0.129306925,0.687398907
614,1539010,2017480,1.004,0.017,-0.007,-0.5,-3.5,2.6,-36.5,7.1,27.4,0.159062471,0.697103793,-0.129673147,0.68694113
615,1541312,2017480,1.02,0.032,0.015,-0.4,-3.7,2.5,-36.5,7.1,27.4,0.159001434,0.69716483,-0.129734184,0.686880093
616,1543574,2017490,1.027,0.044,0.026,-0.2,-3.5,2.3,-36.5,7.1,27.4,0.158970916,0.697195349,-0.129764702,0.686849574
617,1545867,2017490,1.043,0.052,0.034,0,-3,2.2,-36.5,7.1,27.4,0.158940397,0.697256386,-0.129825739,0.686788537
618,1548886,2017490,1.035,0.087,0.038,0.3,-2.6,2,-37,7.2,27.5,0.15887936,0.697286905,-0.129856258,0.686758019
619,1551890,2017490,1.031,0.095,0.022,0.5,-2.7,1.9,-37,7.2,27.5,0.158848842,0.697317423,-0.129886776,0.6867275
620,1552708,2017500,1.031,0.103,0.014,0.6,-3.1,1.9,-37,7.2,27.5,0.158787805,0.697347942,-0.129917295,0.686696982
621,1555432,2017500,1.028,0.107,0.03,0.2,-3.6,1.8,-37,7.2,27.5,0.158757286,0.697408979,-0.129947813,0.686635945
622,1559391,2017500,1.02,0.068,0.054,-0.5,-4.1,1.9,-37.6,7.1,27.7,0.158726768,0.697470016,-0.13000885,0.686574908
623,1560058,2017500,1.008,0.044,0.055,-1.6,-4.8,2,-37.6,7.1,27.7,0.158696249,0.697531053,-0.130069887,0.686513871
624,1563024,2017510,1,0.052,0.047,-2.7,-5.7,2.1,-37.6,7.1,27.7,0.158696249,0.69759209,-0.130161443,0.686422315
625,1565334,2017510,0.973,0.025,0.048,-3.3,-6.5,2.1,-37.6,7.1,27.7,0.158696249,0.697683645,-0.130283517,0.68633076
626,1567890,2017510,0.961,0.017,0.052,-3.5,-7.3,2.2,-34.9,4.9,27.5,0.158696249,0.697775201,-0.130375072,0.686208686
627,1570208,2017510,0.973,0.021,0.06,-3.3,-8.3,2.3,-34.9,4.9,27.5,0.158696249,0.697866756,-0.130497147,0.686086612
628,1573555,2017520,0.977,-0.002,0.028,-3.1,-9.6,2.5,-34.9,4.9,27.5,0.158665731,0.69798883,-0.130619221,0.685934019
629,1575847,2017520,0.965,-0.014,0.025,-3.1,-10.8,2.7,-34.9,4.9,27.5,0.158635212,0.698141423,-0.130741295,0.685781426
630,1578033,2017520,0.93,-0.009,0.045,-3.3,-11.2,2.9,-37.3,7.2,27.2,0.158604694,0.698294015,-0.130893887,0.685598315
631,1580380,2017520,0.915,-0.005,0.054,-3.4,-10.9,3.2,-37.3,7.2,27.2,0.158574175,0.698446608,-0.131015961,0.685445723
632,1583106,2017530,0.93,-0.017,0.1,-3.7,-11,3.5,-37.3,7.2,27.2,0.158574175,0.698568682,-0.131168554,0.685262612
633,1585162,2017530,0.934,-0.037,0.1,-4.3,-12.5,3.7,-37.3,7.2,27.2,0.158543657,0.698751793,-0.131351665,0.685079501
634,1588512,2017530,0.938,-0.056,0.077,-5.2,-15.1,3.9,-37.4,7.7,27.4,0.158421583,0.698782311,-0.131595813,0.685018464
635,1590852,2017530,0.926,-0.029,0.108,-5.7,-17,3.9,-37.4,7.7,27.4,0.158421583,0.698995941,-0.131809442,0.684743797
636,1593088,2017540,0.934,-0.005,0.143,-5.4,-17.5,3.9,-37.4,7.7,27.4,0.158391064,0.699209571,-0.131992553,0.684499649
637,1595214,2017540,0.934,0.002,0.171,-4.5,-16.7,3.9,-37.4,7.7,27.4,0.158360546,0.699453719,-0.132206183,0.684224982
638,1597917,2017540,0.946,-0.013,0.17,-3.9,-15.7,4,-37.1,7.4,27.6,0.158330027,0.699667348,-0.132358776,0.683980834
639,1600417,2017540,1.004,0.025,0.207,-3.5,-15,4.3,-37.1,7.4,27.6,0.15826899,0.699850459,-0.132541887,0.683767205
640,1602663,2017550,0.927,0.124,0.237,-3.5,-15,4.3,-37.1,7.4,27.6,0.158207953,0.700064089,-0.132724998,0.683553575
641,1605407,2017550,1.071,0.139,0.248,-2.9,-15.1,4.4,-37.1,7.4,27.6,0.158146916,0.7002472,-0.13287759,0.683309427
642,1607800,2017550,0.926,0.065,0.069,-1.9,-15.5,4.3,-36.7,7.4,27.2,0.158055361,0.700460829,-0.133030183,0.683095798
643,1610221,2017550,0.923,0.096,0.026,-0.9,-15.7,3.8,-36.7,7.4,27.2,0.157963805,0.700674459,-0.133152257,0.68285165
644,1612630,2017560,0.911,0.159,0.073,-0.4,-15.2,3.1,-36.7,7.4,27.2,0.157902768,0.700918607,-0.133274331,0.68263802
645,1616712,2017560,0.95,0.198,0.111,0.2,-13.9,2.3,-36.7,7.4,27.2,0.157811213,0.701101718,-0.133335368,0.68242439
646,1617677,2017560,0.852,0.12,0.016,1.4,-12.4,1.7,-34.6,5.8,27.4,0.157719657,0.701284829,-0.133396405,0.682241279
647,1620243,2017560,0.852,0.124,0.012,2.4,-11.5,1,-34.6,5.8,27.4,0.157628101,0.70146794,-0.133396405,0.682088687
648,1622657,2017570,0.86,0.152,0.031,2.6,-11.4,0.7,-34.6,5.8,27.4,0.157567064,0.701651051,-0.133426923,0.681936094
649,1625219,2017570,0.903,0.144,0.014,2.3,-12.7,0.6,-34.6,5.8,27.4,0.15744499,0.701834162,-0.133426923,0.681722465
650,1628310,2017570,0.923,0.12,0.006,2.1,-15.2,0.5,-35.9,6,27.6,0.157383953,0.70207831,-0.133457442,0.681508835
651,1630605,2017570,0.95,0.108,-0.002,2.1,-18.5,0.2,-35.9,6,27.6,0.157292398,0.702352977,-0.13348796,0.681234169
652,1632802,2017580,0.981,0.088,-0.022,1.8,-21.6,0,-35.9,6,27.6,0.157200842,0.702688681,-0.133548997,0.680898465
653,1636264,2017580,1.039,0.059,-0.063,1.2,-23.9,-0.1,-35.9,6,27.6,0.157109287,0.703054903,-0.133610034,0.680532243
654,1639356,2017580,1.078,0.024,-0.119,0.3,-25.4,0,-35,5.9,27.5,0.157139805,0.703451643,-0.133610034,0.680135502
655,1640124,2017580,1.078,0.024,-0.119,0.3,-25.4,0,-35,5.9,27.5,0.15704825,0.703817866,-0.13370159,0.679738762
656,1642691,2017590,1.089,0.031,-0.143,0,-25.1,0.3,-35,5.9,27.5,0.156956694,0.704184088,-0.133793146,0.679372539
657,1646853,2017590,1.105,0.027,-0.124,-0.2,-24.2,0.6,-35,5.9,27.5,0.156895657,0.70455031,-0.133884701,0.678975799
658,1647676,2017590,1.093,0.016,-0.123,-0.4,-22.8,0.6,-34.4,6.1,26.9,0.15683462,0.704886013,-0.133976257,0.678640095
659,1650287,2017590,1.066,0,-0.158,-0.2,-20.8,0.5,-34.4,6.1,26.9,0.156773583,0.705191198,-0.134067812,0.67833491
660,1654326,2017600,1.042,0.008,-0.294,-0.2,-18.5,0.4,-34.4,6.1,26.9,0.156712546,0.705465865,-0.134128849,0.678029725
661,1655109,2017600,1.039,0.008,-0.278,-0.2,-16.4,0.2,-34.4,6.1,26.9,0.156651509,0.705710013,-0.134189886,0.677785577
662,1657783,2017600,1.023,0.004,-0.254,-0.2,-14.7,0.2,-34.4,6,26.9,0.156620991,0.705923643,-0.134250923,0.677541429
663,1660443,2017600,1.011,0.012,-0.313,0,-13.4,0,-34.4,6,26.9,0.156559954,0.706106754,-0.13431196,0.677358318
664,1662685,2017610,1.015,0.028,-0.329,0.4,-12.2,-0.1,-34.4,6,26.9,0.156529435,0.706289865,-0.134342479,0.677175207
665,1666857,2017610,1.019,0.032,-0.321,0.8,-11.1,-0.2,-34.4,6,26.9,0.156468398,0.706472976,-0.134372997,0.676992096
666,1669070,2017610,1.027,0.031,-0.321,1.4,-10.3,-0.1,-35.1,6.2,27,0.15643788,0.706625568,-0.134372997,0.676839503
667,1670305,2017610,1.042,0.039,-0.314,1.9,-9.5,-0.1,-35.1,6.2,27,0.156376843,0.706778161,-0.134372997,0.676686911
668,1674355,2017620,1.046,0.051,-0.31,2.2,-8.8,0,-35.1,6.2,27,0.156315806,0.706900235,-0.134372997,0.676564837
669,1676163,2017620,1.054,0.067,-0.295,2.4,-7.9,0,-35.1,6.2,27,0.156254769,0.707022309,-0.134372997,0.676442763
670,1678406,2017620,1.054,0.071,-0.259,2.6,-6.8,0.1,-34.5,5.9,27.3,0.156193731,0.707144383,-0.134342479,0.676351207
671,1680708,2017620,1.05,0.075,-0.244,2.8,-5.5,0.2,-34.5,5.9,27.3,0.156132694,0.707235939,-0.134342479,0.676259651
672,1682955,2017630,1.054,0.083,-0.216,2.8,-4.1,0.2,-34.5,5.9,27.3,0.156071657,0.707296976,-0.13431196,0.676229133
673,1685229,2017630,1.051,0.095,-0.197,2.6,-2.7,0.2,-34.5,5.9,27.3,0.15601062,0.707358013,-0.134281442,0.676168096
674,1687719,2017630,1.039,0.091,-0.157,1.9,0,0.1,-34.6,6,27.3,0.155980102,0.707663198,-0.134250923,0.675893429
675,1690203,2017630,1.035,0.087,-0.126,1.9,0,0.1,-34.6,6,27.3,0.155949583,0.707663198,-0.134220405,0.675893429
676,1693888,2017640,1.023,0.083,-0.106,1.4,1.2,0.1,-34.6,6,27.3,0.155919065,0.707632679,-0.134189886,0.675923948
677,1695205,2017640,1.008,0.083,-0.082,0.8,2.3,0.1,-34.6,6,27.3,0.155919065,0.707602161,-0.134189886,0.675954466
678,1699137,2017640,0.981,0.072,-0.046,0.1,3.3,0.1,-34.6,6.5,27.1,0.155919065,0.707571642,-0.134159368,0.676015503
679,1700723,2017640,0.973,0.064,-0.022,-0.4,4.1,0.1,-34.6,6.5,27.1,0.155949583,0.707510605,-0.134159368,0.67607654
680,1702914,2017650,0.961,0.056,-0.014,-0.9,4.5,0,-34.6,6.5,27.1,0.155980102,0.70741905,-0.134159368,0.676137577
681,1705158,2017650,0.954,0.041,0.005,-1.4,4.5,0,-34.6,6.5,27.1,0.15601062,0.707358013,-0.134159368,0.676198614
682,1707809,2017650,0.954,0.037,0.013,-1.8,4.4,0,-34.7,5.9,27.1,0.156041139,0.707296976,-0.134189886,0.676259651
683,1710118,2017650,0.957,0.033,0.017,-2,4.1,0.1,-34.7,5.9,27.1,0.156102176,0.70720542,-0.134189886,0.676320688
684,1714179,2017660,0.961,0.033,0.025,-2,3.6,0.1,-34.7,5.9,27.1,0.156132694,0.707144383,-0.134220405,0.676381726
685,1716199,2017660,0.973,0.029,0.032,-1.9,3.2,0.1,-34.7,5.9,27.1,0.156163213,0.707113865,-0.134250923,0.676412244
686,1719284,2017660,0.985,0.025,0.032,-1.8,2.7,0.2,-34.7,5.9,27.1,0.156193731,0.707052828,-0.134250923,0.676473281
687,1721425,2017660,0.985,0.029,0.036,-1.7,2.2,0.3,-34.7,5.9,27.1,0.15622425,0.707022309,-0.134281442,0.6765038
688,1723686,2017670,0.985,0.025,0.04,-1.5,1.7,0.2,-34.7,5.9,27.1,0.156254769,0.706991791,-0.13431196,0.6765038
689,1725912,2017670,0.981,0.029,0.036,-1.2,1.4,0.1,-34.7,5.9,27.1,0.156285287,0.706961272,-0.13431196,0.676534318
690,1728190,2017670,0.981,0.025,0.04,-0.9,1.2,0,-33.8,6.1,27.4,0.156285287,0.706930754,-0.134342479,0.676534318
691,1730412,2017670,0.969,0.029,0.032,-0.6,1,0,-33.8,6.1,27.4,0.156315806,0.706930754,-0.134342479,0.676564837
692,1732738,2017680,0.95,0.025,0.029,-0.4,0.8,0,-33.8,6.1,27.4,0.156315806,0.706900235,-0.134342479,0.676564837
693,1735367,2017680,0.946,0.037,0.033,0,0.7,0,-33.8,6.1,27.4,0.156315806,0.706900235,-0.134342479,0.676595355
694,1737618,2017680,0.946,0.037,0.025,0.5,0.2,0,-33.2,6.2,27.2,0.156315806,0.706778161,-0.13431196,0.676686911
695,1741722,2017680,0.954,0.037,0.021,0.5,0.2,0,-33.2,6.2,27.2,0.156315806,0.706778161,-0.13431196,0.676686911
696,1743937,2017690,0.961,0.037,0.017,0.7,-0.3,0,-33.2,6.2,27.2,0.156315806,0.706808679,-0.13431196,0.676686911
697,1746189,2017690,0.969,0.037,0.009,0.7,-1.1,0,-33.2,6.2,27.2,0.156285287,0.706808679,-0.13431196,0.676686911
698,1748468,2017690,0.977,0.04,0.005,0.7,-1.9,0,-33.1,6.3,27,0.156254769,0.706839198,-0.134281442,0.676656392
699,1750681,2017690,0.989,0.044,-0.003,0.7,-2.6,0,-33.1,6.3,27,0.156254769,0.706900235,-0.134281442,0.676625874
700,1752935,2017700,0.989,0.044,-0.003,0.7,-2.6,0,-33.1,6.3,27,0.156254769,0.706900235,-0.134281442,0.676625874
701,1755168,2017700,1,0.044,-0.027,0.7,-3.2,0,-33.1,6.3,27,0.15622425,0.706991791,-0.134281442,0.676534318
702,1757772,2017700,1.004,0.048,-0.034,0.6,-3.1,0.1,-33.4,5.9,27,0.156193731,0.707022309,-0.134281442,0.676473281
703,1761967,2017700,0.996,0.044,-0.046,0.5,-3.1,0.1,-33.4,5.9,27,0.156163213,0.707083346,-0.13431196,0.676442763
704,1762587,2017710,0.992,0.044,-0.046,0.5,-2.9,0.1,-33.4,5.9,27,0.156163213,0.707113865,-0.13431196,0.676381726
705,1765736,2017710,0.992,0.044,-0.046,0.5,-2.9,0.1,-33.4,5.9,27,0.156163213,0.707113865,-0.13431196,0.676381726
706,1767559,2017710,0.992,0.044,-0.046,0.5,-2.9,0.1,-33.4,5.9,27,0.156163213,0.707113865,-0.13431196,0.676381726
707,1770110,2017710,0.992,0.044,-0.046,0.5,-2.9,0.1,-33.4,5.9,27,0.156163213,0.707113865,-0.13431196,0.676381726
708,1773512,2017720,0.988,0.04,-0.065,0.1,-2.3,0.1,-33.4,5.9,27,0.156102176,0.707266457,-0.13431196,0.676229133
709,1775607,2017720,0.984,0.04,-0.085,0.2,-2.1,0.1,-33.4,5.9,27,0.156071657,0.707296976,-0.134342479,0.676198614
710,1777947,2017720,0.988,0.036,-0.081,0.2,-2,0.2,-34.8,6.1,26.9,0.156071657,0.707358013,-0.134342479,0.676168096
711,1780472,2017720,0.988,0.036,-0.081,0.2,-2,0.2,-34.8,6.1,26.9,0.156071657,0.707358013,-0.134342479,0.676168096
712,1784645,2017730,0.988,0.036,-0.081,0.2,-2,0.2,-34.8,6.1,26.9,0.156071657,0.707358013,-0.134342479,0.676168096
713,1785239,2017730,1.004,0.044,-0.078,0.2,-1.8,0,-34.8,6.1,26.9,0.156041139,0.70741905,-0.134342479,0.67607654
714,1788444,2017730,1.004,0.044,-0.078,0.2,-1.8,0,-34.8,6.1,26.9,0.156041139,0.70741905,-0.134342479,0.67607654
715,1790635,2017730,1,0.044,-0.077,0.4,-1.5,0.2,-34.7,6,26.9,0.155980102,0.707632679,-0.134372997,0.675893429
716,1792890,2017740,1.004,0.044,-0.074,0.4,-1.4,0.2,-34.7,6,26.9,0.155949583,0.707632679,-0.134372997,0.675862911
717,1795150,2017740,1,0.048,-0.07,0.2,-1.1,0.2,-34.7,6,26.9,0.155949583,0.707663198,-0.134372997,0.675862911
718,1798942,2017740,0.996,0.044,-0.066,0.2,-0.6,0,-34.9,6,27.1,0.155949583,0.707663198,-0.134372997,0.675862911
719,1800505,2017740,0.992,0.044,-0.065,0.1,-0.2,0,-34.9,6,27.1,0.155949583,0.707663198,-0.134372997,0.675832392
720,1802742,2017750,0.988,0.044,-0.065,0.1,0.1,0,-34.9,6,27.1,0.155919065,0.707663198,-0.134372997,0.675862911
721,1805336,2017750,0.985,0.044,-0.061,0,0.3,0,-34.9,6,27.1,0.155919065,0.707663198,-0.134372997,0.675862911
722,1807661,2017750,0.985,0.04,-0.061,0,0.4,0,-34.9,5.7,26.9,0.155949583,0.707663198,-0.134372997,0.675862911
723,1810681,2017750,0.981,0.044,-0.045,-0.1,0.4,0,-34.9,5.7,26.9,0.155949583,0.707663198,-0.134372997,0.675862911
724,1812944,2017760,0.985,0.04,-0.034,-0.1,0.2,0,-34.9,5.7,26.9,0.155949583,0.707663198,-0.134372997,0.675862911
725,1815623,2017760,0.985,0.04,-0.042,-0.1,0.3,0,-34.9,5.7,26.9,0.155949583,0.707632679,-0.134372997,0.675862911
726,1817859,2017760,0.985,0.036,-0.03,-0.1,0.3,0,-34.9,5.7,26.9,0.155949583,0.707632679,-0.134372997,0.675893429
727,1820889,2017760,0.992,0.04,-0.03,-0.1,0.2,0,-34.9,5.7,26.9,0.155949583,0.707632679,-0.134372997,0.675893429
728,1822650,2017770,0.992,0.044,-0.026,-0.1,0.2,0,-34.9,5.7,26.9,0.155949583,0.707632679,-0.134372997,0.675893429
729,1826884,2017770,0.988,0.04,-0.022,-0.1,0.3,0,-34.9,5.7,26.9,0.155949583,0.707632679,-0.134403516,0.675893429
730,1827571,2017770,0.988,0.04,-0.014,-0.2,0.4,0.1,-35,5.9,27.6,0.155949583,0.707602161,-0.134403516,0.675893429
731,1830505,2017770,0.985,0.036,-0.01,-0.2,0.4,0,-35,5.9,27.6,0.155949583,0.707602161,-0.134403516,0.675893429
732,1832763,2017780,0.985,0.04,-0.018,-0.2,0.4,0,-35,5.9,27.6,0.155980102,0.707602161,-0.134403516,0.675923948
733,1836575,2017780,0.985,0.04,-0.01,-0.2,0.4,0,-35,5.9,27.6,0.155980102,0.707602161,-0.134403516,0.675923948
734,1837689,2017780,0.977,0.036,-0.018,-0.1,0.5,0,-34.6,6,28.3,0.15601062,0.707449568,-0.134372997,0.67607654
735,1841975,2017780,0.977,0.036,-0.018,-0.1,0.5,0,-34.6,6,28.3,0.15601062,0.70741905,-0.134372997,0.67607654
736,1844062,2017790,0.973,0.037,-0.018,-0.1,0.5,0.1,-34.6,6,28.3,0.15601062,0.70741905,-0.134372997,0.676107059
737,1846346,2017790,0.977,0.036,-0.014,-0.1,0.4,0.1,-34.6,6,28.3,0.156041139,0.70741905,-0.134372997,0.676107059
738,1848027,2017790,0.981,0.036,-0.018,0,0.1,0.1,-34.7,6,29,0.15601062,0.70741905,-0.134372997,0.676107059
739,1850376,2017790,0.985,0.036,-0.014,0,0,0.1,-34.7,6,29,0.15601062,0.70741905,-0.134372997,0.676107059
740,1853049,2017800,0.985,0.032,-0.022,0,-0.2,0.1,-34.7,6,29,0.15601062,0.70741905,-0.134372997,0.676107059
741,1855460,2017800,0.988,0.04,-0.026,0,-0.4,0,-34.7,6,29,0.15601062,0.70741905,-0.134372997,0.676107059
742,1857721,2017800,0.992,0.04,-0.026,0.1,-0.4,0,-35.1,6.1,29.4,0.15601062,0.70741905,-0.134372997,0.67607654
743,1860108,2017800,0.988,0.04,-0.026,0.1,-0.4,0,-35.1,6.1,29.4,0.15601062,0.707449568,-0.134372997,0.67607654
744,1862690,2017810,0.985,0.044,-0.03,0.2,-0.4,0,-35.1,6.1,29.4,0.15601062,0.707449568,-0.134372997,0.67607654
745,1866485,2017810,0.981,0.04,-0.038,0.2,-0.3,0,-35.1,6.1,29.4,0.15601062,0.707449568,-0.134372997,0.67607654
746,1868683,2017810,0.981,0.044,-0.034,0.1,-0.4,0,-35.1,6.1,29.4,0.155980102,0.707449568,-0.134372997,0.67607654
747,1870985,2017810,0.981,0.04,-0.038,0,-0.4,0.1,-35.1,6.1,29.4,0.155980102,0.707449568,-0.134372997,0.676046022
748,1873211,2017820,0.981,0.04,-0.038,0,-0.4,0,-35.1,6.1,29.4,0.155980102,0.707480087,-0.134403516,0.676046022
749,1875480,2017820,0.985,0.036,-0.038,0,-0.4,0,-35.1,6.1,29.4,0.155980102,0.707480087,-0.134403516,0.676046022
750,1878143,2017820,0.988,0.04,-0.034,0,-0.6,0,-34.9,6.5,27.1,0.155980102,0.707480087,-0.134403516,0.676046022
751,1880420,2017820,0.985,0.04,-0.042,0.1,-0.7,0,-34.9,6.5,27.1,0.155980102,0.707510605,-0.134403516,0.676015503
752,1882678,2017830,0.996,0.04,-0.042,0.1,-0.9,0,-34.9,6.5,27.1,0.155980102,0.707510605,-0.134403516,0.676015503
753,1885319,2017830,0.996,0.04,-0.046,0,-1.1,0,-34.9,6.5,27.1,0.155980102,0.707541124,-0.134403516,0.675984985
754,1887779,2017830,0.996,0.036,-0.042,0,-0.7,0.1,-34.5,6,27.2,0.155980102,0.707571642,-0.134403516,0.675954466
755,1890245,2017830,0.996,0.04,-0.038,0,-0.7,0.1,-34.5,6,27.2,0.155949583,0.707602161,-0.134403516,0.675923948
756,1894352,2017840,0.992,0.044,-0.042,0,-0.5,0.1,-34.5,6,27.2,0.155949583,0.707602161,-0.134403516,0.675923948
757,1895101,2017840,0.992,0.044,-0.038,0.1,-0.3,0.1,-34.5,6,27.2,0.155949583,0.707602161,-0.134403516,0.675923948
758,1897721,2017840,0.988,0.044,-0.038,0.1,-0.1,0.1,-34.7,6.5,27.1,0.155949583,0.707602161,-0.134403516,0.675923948
759,1901042,2017840,0.985,0.04,-0.034,0.1,0,0.1,-34.7,6.5,27.1,0.155949583,0.707602161,-0.134403516,0.675923948
760,1903270,2017850,0.981,0.036,-0.042,0,0,0.1,-34.7,6.5,27.1,0.155949583,0.707602161,-0.134403516,0.675923948
761,1905512,2017850,0.985,0.036,-0.042,0,-0.1,0.1,-34.7,6.5,27.1,0.155949583,0.707602161,-0.134403516,0.675923948
762,1907771,2017850,0.985,0.044,-0.046,0,-0.2,0,-34.5,6.2,26.3,0.155949583,0.707602161,-0.134403516,0.675923948
763,1910437,2017850,0.985,0.04,-0.038,0,-0.3,0,-34.5,6.2,26.3,0.155919065,0.707602161,-0.134403516,0.675893429
764,1912550,2017860,0.985,0.04,-0.042,0,-0.3,0,-34.5,6.2,26.3,0.155919065,0.707632679,-0.134403516,0.675893429
765,1916725,2017860,0.985,0.04,-0.034,0,-0.3,0,-34.5,6.2,26.3,0.155919065,0.707632679,-0.134434034,0.675893429
766,1917553,2017860,0.988,0.04,-0.046,0,-0.2,0,-34.5,6.2,26.3,0.155919065,0.707632679,-0.134434034,0.675893429
767,1920130,2017860,0.992,0.04,-0.038,0,-0.2,0,-34.5,6.2,26.3,0.155919065,0.707632679,-0.134434034,0.675893429
768,1924162,2017870,0.988,0.044,-0.042,0,-0.3,0,-34.5,6.2,26.3,0.155919065,0.707632679,-0.134434034,0.675893429
769,1926382,2017870,0.988,0.044,-0.034,0,-0.3,0,-34.5,6.2,26.3,0.155919065,0.707632679,-0.134434034,0.675862911
770,1928634,2017870,0.992,0.048,-0.03,0,-0.1,0,-34.7,6,26.9,0.155919065,0.707632679,-0.134434034,0.675862911
771,1930891,2017870,0.988,0.04,-0.034,0,0,0,-34.7,6,26.9,0.155919065,0.707632679,-0.134434034,0.675862911
772,1933136,2017880,0.988,0.044,-0.034,0,0.1,0.1,-34.7,6,26.9,0.155919065,0.707632679,-0.134434034,0.675862911
773,1935746,2017880,0.981,0.04,-0.042,0,0.2,0.1,-34.7,6,26.9,0.155919065,0.707632679,-0.134434034,0.675893429
774,1937656,2017880,0.981,0.04,-0.026,0,0.2,0.1,-34.8,5.9,26.7,0.155980102,0.707632679,-0.134372997,0.675893429
775,1939936,2017880,0.981,0.04,-0.026,0,0.2,0.1,-34.8,5.9,26.7,0.155980102,0.707632679,-0.134372997,0.675893429
776,1942594,2017890,0.981,0.04,-0.026,0,0.2,0.1,-34.8,5.9,26.7,0.155980102,0.707632679,-0.134372997,0.675893429
777,1944926,2017890,0.977,0.033,-0.037,0,0,0.2,-34.8,5.9,26.7,0.155980102,0.707602161,-0.134403516,0.675893429
778,1948957,2017890,0.985,0.036,-0.034,0,-0.1,0.2,-34.7,6.2,26.7,0.155980102,0.707632679,-0.134403516,0.675893429
779,1950141,2017890,0.985,0.04,-0.034,-0.1,-0.2,0.2,-34.7,6.2,26.7,0.155980102,0.707632679,-0.134403516,0.675893429
780,1952474,2017900,0.985,0.04,-0.03,-0.1,-0.2,0.2,-34.7,6.2,26.7,0.155980102,0.707632679,-0.134403516,0.675893429
781,1955384,2017900,0.988,0.04,-0.038,0,-0.2,0.2,-34.7,6.2,26.7,0.155949583,0.707632679,-0.134403516,0.675893429
782,1957796,2017900,0.988,0.036,-0.034,0,-0.3,0.1,-34.8,5.7,26.8,0.155949583,0.707632679,-0.134403516,0.675893429
783,1960333,2017900,0.992,0.044,-0.034,0,-0.3,0.1,-34.8,5.7,26.8,0.155949583,0.707632679,-0.134434034,0.675893429
784,1962675,2017910,0.992,0.044,-0.034,0.1,-0.3,0,-34.8,5.7,26.8,0.155949583,0.707632679,-0.134434034,0.675862911
785,1965891,2017910,0.988,0.04,-0.034,0.1,-0.3,0,-34.8,5.7,26.8,0.155949583,0.707632679,-0.134434034,0.675862911
786,1968008,2017910,0.988,0.04,-0.038,0,-0.3,0,-34.8,5.7,26.8,0.155949583,0.707663198,-0.134434034,0.675862911
787,1970724,2017910,0.981,0.04,-0.034,0,-0.3,0,-34.8,5.7,26.8,0.155949583,0.707663198,-0.134434034,0.675862911
788,1972584,2017920,0.977,0.036,-0.03,0,-0.3,0,-34.8,5.7,26.8,0.155949583,0.707663198,-0.134434034,0.675862911
789,1977118,2017920,0.981,0.036,-0.038,0,-0.3,0,-34.8,5.7,26.8,0.155949583,0.707663198,-0.134434034,0.675832392
790,1977907,2017920,0.981,0.04,-0.034,0,-0.4,0,-34.7,5.8,26.7,0.155949583,0.707663198,-0.134434034,0.675832392
791,1980160,2017920,0.985,0.036,-0.034,0,-0.3,0,-34.7,5.8,26.7,0.155949583,0.707663198,-0.134434034,0.675832392
792,1982745,2017930,0.985,0.044,-0.03,0,-0.3,0,-34.7,5.8,26.7,0.155949583,0.707693716,-0.134434034,0.675832392
793,1986129,2017930,0.985,0.036,-0.03,0,-0.2,0,-34.7,5.8,26.7,0.155949583,0.707693716,-0.134434034,0.675832392
794,1988316,2017930,0.985,0.036,-0.034,0,-0.1,0,-35.1,4.8,26.5,0.155949583,0.707663198,-0.134403516,0.675862911
795,1990639,2017930,0.985,0.04,-0.034,0,-0.1,0,-35.1,4.8,26.5,0.155949583,0.707663198,-0.134403516,0.675862911
796,1993331,2017940,0.988,0.04,-0.038,0,-0.2,0,-35.1,4.8,26.5,0.155949583,0.707663198,-0.134403516,0.675862911
797,1995070,2017940,0.988,0.04,-0.038,0,-0.2,0,-35.1,4.8,26.5,0.155949583,0.707663198,-0.134403516,0.675862911
798,1998917,2017940,0.985,0.04,-0.034,0,-0.1,0,-34.9,4.6,26.7,0.155949583,0.707663198,-0.134403516,0.675862911
799,1999997,2017940,0.988,0.036,-0.034,0,-0.1,0,-34.9,4.6,26.7,0.155949583,0.707663198,-0.134403516,0.675832392
800,2002544,2017950,0.992,0.044,-0.034,0.1,0,0,-34.9,4.6,26.7,0.155949583,0.707663198,-0.134403516,0.675862911
801,2007037,2017950,0.988,0.044,-0.038,0.1,0,0,-34.9,4.6,26.7,0.155949583,0.707663198,-0.134403516,0.675862911
802,2007471,2017950,0.988,0.036,-0.038,0.1,0,0,-35.1,4,26.4,0.155949583,0.707663198,-0.134403516,0.675862911
803,2011051,2017950,0.985,0.032,-0.038,0.1,0,-0.1,-35.1,4,26.4,0.155949583,0.707663198,-0.134403516,0.675862911
804,2012703,2017960,0.985,0.04,-0.034,0,0,-0.1,-35.1,4,26.4,0.155949583,0.707663198,-0.134403516,0.675862911
805,2015106,2017960,0.977,0.04,-0.034,0,-0.1,-0.1,-35.1,4,26.4,0.155949583,0.707663198,-0.134403516,0.675832392
806,2019377,2017960,0.985,0.036,-0.038,0,-0.3,0,-35.1,4,26.4,0.155949583,0.707663198,-0.134403516,0.675832392
807,2020214,2017960,0.981,0.044,-0.038,0,-0.3,0,-35.1,4,26.4,0.155949583,0.707693716,-0.134403516,0.675832392
808,2024168,2017970,0.985,0.04,-0.034,0,-0.2,0,-35.1,4,26.4,0.155949583,0.707693716,-0.134403516,0.675832392
809,2026438,2017970,0.992,0.04,-0.034,0.1,-0.1,0,-35.1,4,26.4,0.155949583,0.707693716,-0.134403516,0.675832392
810,2027639,2017970,0.988,0.044,-0.03,0.1,-0.1,0,-35.3,4.9,26,0.155949583,0.707693716,-0.134403516,0.675832392
811,2029850,2017970,0.988,0.04,-0.03,0,-0.1,0,-35.3,4.9,26,0.155949583,0.707693716,-0.134403516,0.675832392
812,2033219,2017980,0.988,0.04,-0.034,0,-0.1,0,-35.3,4.9,26,0.155949583,0.707693716,-0.134403516,0.675832392
813,2035277,2017980,0.985,0.04,-0.034,0,0,0.1,-35.3,4.9,26,0.155949583,0.707693716,-0.134403516,0.675832392
814,2037965,2017980,0.985,0.044,-0.038,0,0,0.1,-35.4,5.1,26,0.155980102,0.707663198,-0.134372997,0.675862911
815,2041399,2017980,0.985,0.04,-0.034,0,0,0.1,-35.4,5.1,26,0.155980102,0.707632679,-0.134372997,0.675862911
816,2043591,2017990,0.985,0.044,-0.038,0,0,0,-35.4,5.1,26,0.155980102,0.707663198,-0.134372997,0.675862911
817,2046643,2017990,0.981,0.04,-0.042,0,0,0,-35.4,5.1,26,0.155980102,0.707663198,-0.134372997,0.675862911
818,2048807,2017990,0.985,0.04,-0.038,-0.1,0,0,-35.2,5.5,25.7,0.155980102,0.707663198,-0.134372997,0.675862911
819,2051103,2017990,0.985,0.044,-0.034,-0.1,0,0,-35.2,5.5,25.7,0.155980102,0.707663198,-0.134372997,0.675862911
820,2054260,2018000,0.985,0.036,-0.034,-0.1,-0.1,0,-35.2,5.5,25.7,0.155980102,0.707663198,-0.134372997,0.675862911
821,2055080,2018000,0.981,0.036,-0.034,0,-0.1,0,-35.2,5.5,25.7,0.155980102,0.707663198,-0.134372997,0.675862911
822,2058719,2018000,0.988,0.04,-0.042,0,-0.2,0,-35.3,6.2,25.9,0.155980102,0.707663198,-0.134372997,0.675862911
823,2059871,2018000,0.988,0.04,-0.034,0,-0.3,0,-35.3,6.2,25.9,0.155980102,0.707663198,-0.134372997,0.675862911
824,2063486,2018010,0.988,0.04,-0.038,0,-0.2,0,-35.3,6.2,25.9,0.155980102,0.707663198,-0.134372997,0.675862911
825,2065183,2018010,0.988,0.04,-0.034,0,-0.1,0,-35.3,6.2,25.9,0.155980102,0.707663198,-0.134372997,0.675832392
826,2069684,2018010,0.988,0.04,-0.034,0,0,0.1,-35.3,6.2,25.9,0.155980102,0.707663198,-0.134372997,0.675832392
827,2070337,2018010,0.988,0.044,-0.038,0,0,0.1,-35.3,6.2,25.9,0.155980102,0.707663198,-0.134372997,0.675832392
828,2074205,2018020,0.985,0.036,-0.03,0,0,0,-35.3,6.2,25.9,0.155980102,0.707663198,-0.134372997,0.675832392
829,2074990,2018020,0.981,0.04,-0.038,0,0,0,-35.3,6.2,25.9,0.155980102,0.707663198,-0.134372997,0.675832392
830,2077593,2018020,0.981,0.04,-0.038,0,0,0,-35.2,6.2,27.2,0.155980102,0.707663198,-0.134372997,0.675832392
831,2079892,2018020,0.985,0.04,-0.034,0,-0.1,0,-35.2,6.2,27.2,0.155980102,0.707663198,-0.134403516,0.675832392
832,2082770,2018030,0.985,0.036,-0.03,0,-0.1,0.1,-35.2,6.2,27.2,0.155980102,0.707663198,-0.134403516,0.675832392
833,2084909,2018030,0.988,0.04,-0.03,0,-0.3,0,-35.2,6.2,27.2,0.155980102,0.707663198,-0.134403516,0.675832392
834,2088481,2018030,0.985,0.04,-0.03,0,-0.3,0,-35,6.6,26.8,0.155980102,0.707632679,-0.134372997,0.675862911
835,2090582,2018030,0.985,0.04,-0.03,0,-0.3,-0.1,-35,6.6,26.8,0.155980102,0.707663198,-0.134372997,0.675862911
836,2092907,2018040,0.992,0.044,-0.03,0,-0.3,0,-35,6.6,26.8,0.155980102,0.707663198,-0.134372997,0.675862911
837,2096841,2018040,0.988,0.04,-0.03,0,-0.3,0,-35,6.6,26.8,0.155980102,0.707663198,-0.134372997,0.675862911
838,2097567,2018040,0.992,0.04,-0.034,0,-0.1,0,-35,6.7,27,0.155980102,0.707663198,-0.134372997,0.675862911
839,2100607,2018040,0.988,0.04,-0.03,0,0,0,-35,6.7,27,0.155980102,0.707663198,-0.134372997,0.675862911
840,2102890,2018050,0.988,0.044,-0.034,0,0,0,-35,6.7,27,0.155980102,0.707663198,-0.134372997,0.675862911
841,2107195,2018050,0.985,0.04,-0.034,0,0,0,-35,6.7,27,0.155980102,0.707663198,-0.134372997,0.675862911
842,2108088,2018050,0.988,0.04,-0.034,0.1,0,0,-35,6.7,26.9,0.155980102,0.707663198,-0.134372997,0.675862911
843,2110601,2018050,0.985,0.04,-0.034,0.1,-0.1,0,-35,6.7,26.9,0.155980102,0.707663198,-0.134372997,0.675862911
844,2112436,2018060,0.985,0.044,-0.03,0,-0.1,0,-35,6.7,26.9,0.155980102,0.707663198,-0.134372997,0.675832392
845,2115155,2018060,0.985,0.036,-0.038,0,-0.1,0,-35,6.7,26.9,0.155980102,0.707663198,-0.134372997,0.675832392
846,2119245,2018060,0.985,0.036,-0.038,0,-0.1,0,-35,6.7,26.9,0.155980102,0.707663198,-0.134372997,0.675832392
847,2121479,2018060,0.985,0.036,-0.038,0,-0.1,0.1,-35,6.7,26.9,0.155980102,0.707663198,-0.134372997,0.675832392
848,2122569,2018070,0.988,0.044,-0.034,0,-0.1,0,-35,6.7,26.9,0.155980102,0.707663198,-0.134372997,0.675832392
849,2126746,2018070,0.988,0.04,-0.03,0,-0.1,0,-35,6.7,26.9,0.155980102,0.707693716,-0.134372997,0.675832392
850,2127548,2018070,0.988,0.04,-0.034,0,-0.2,0,-34.7,5.5,27.2,0.155980102,0.707693716,-0.134372997,0.675832392
851,2130382,2018070,0.988,0.04,-0.03,0,-0.1,0,-34.7,5.5,27.2,0.155980102,0.707693716,-0.134403516,0.675832392
852,2132583,2018080,0.988,0.04,-0.038,0,-0.2,0,-34.7,5.5,27.2,0.155980102,0.707693716,-0.134403516,0.675832392
853,2136727,2018080,0.992,0.04,-0.034,0,-0.3,0,-34.7,5.5,27.2,0.155980102,0.707693716,-0.134403516,0.675801874
854,2138871,2018080,0.988,0.04,-0.03,0,-0.3,0,-34.7,5.5,27.2,0.15601062,0.707663198,-0.134372997,0.675832392
855,2141131,2018080,0.985,0.044,-0.034,0,-0.3,0,-34.7,5.5,27.2,0.15601062,0.707663198,-0.134372997,0.675832392
856,2143442,2018090,0.985,0.04,-0.038,0,-0.2,0,-34.7,5.5,27.2,0.15601062,0.707693716,-0.134372997,0.675832392
857,2145658,2018090,0.981,0.044,-0.042,0,-0.1,0,-34.7,5.5,27.2,0.15601062,0.707693716,-0.134372997,0.675832392
858,2147677,2018090,0.985,0.04,-0.038,0,0,0,-34.7,5.5,27.2,0.15601062,0.707693716,-0.134372997,0.675832392
859,2150423,2018090,0.981,0.04,-0.038,0,0.1,0,-34.7,5.5,27.2,0.15601062,0.707693716,-0.134372997,0.675832392
860,2152637,2018100,0.985,0.04,-0.034,0,0.1,0,-34.7,5.5,27.2,0.15601062,0.707663198,-0.134372997,0.675832392
861,2156387,2018100,0.985,0.036,-0.042,0,0,0,-34.7,5.5,27.2,0.15601062,0.707663198,-0.134372997,0.675832392
862,2158571,2018100,0.985,0.04,-0.034,0,0,0,-34.7,5.5,27.2,0.15601062,0.707663198,-0.134372997,0.675832392
863,2160724,2018100,0.985,0.036,-0.038,0,-0.1,0,-34.7,5.5,27.2,0.15601062,0.707663198,-0.134372997,0.675832392
864,2162927,2018110,0.988,0.036,-0.034,0,-0.1,0,-34.7,5.5,27.2,0.15601062,0.707693716,-0.134372997,0.675832392
865,2165325,2018110,0.988,0.04,-0.034,0,-0.1,0,-34.7,5.5,27.2,0.15601062,0.707693716,-0.134372997,0.675832392
866,2167897,2018110,0.988,0.04,-0.034,0.1,-0.1,0,-34.7,5.5,27.2,0.15601062,0.707693716,-0.134372997,0.675832392
867,2170108,2018110,0.985,0.04,-0.038,0.1,-0.2,0,-34.7,5.5,27.2,0.15601062,0.707693716,-0.134372997,0.675832392
868,2173491,2018120,0.985,0.04,-0.034,0,-0.1,0,-34.7,5.5,27.2,0.15601062,0.707693716,-0.134372997,0.675801874
869,2175785,2018120,0.985,0.04,-0.034,0,-0.1,0,-34.7,5.5,27.2,0.15601062,0.707693716,-0.134372997,0.675801874
870,2178049,2018120,0.985,0.036,-0.034,0,-0.1,0,-34,4.6,27.1,0.15601062,0.707693716,-0.134372997,0.675801874
871,2180553,2018120,0.985,0.04,-0.038,0,-0.2,0,-34,4.6,27.1,0.15601062,0.707693716,-0.134372997,0.675801874
872,2182863,2018130,0.985,0.04,-0.038,0,-0.1,0,-34,4.6,27.1,0.15601062,0.707693716,-0.134372997,0.675801874
873,2186948,2018130,0.985,0.04,-0.034,0,-0.1,0,-34,4.6,27.1,0.155980102,0.707693716,-0.134372997,0.675801874
874,2187823,2018130,0.985,0.04,-0.034,0,-0.1,0,-34,4.6,27.1,0.15601062,0.707693716,-0.134372997,0.675801874
875,2189990,2018130,0.988,0.04,-0.038,0,-0.1,0.1,-34,4.6,27.1,0.15601062,0.707693716,-0.134372997,0.675801874
876,2192594,2018140,0.988,0.04,-0.038,0,-0.1,0.1,-34,4.6,27.1,0.15601062,0.707693716,-0.134372997,0.675801874
877,2196085,2018140,0.988,0.04,-0.034,0,-0.3,0.1,-34,4.6,27.1,0.15601062,0.707724235,-0.134372997,0.675801874
878,2198416,2018140,0.985,0.04,-0.038,0,-0.3,0,-34,4.6,27.1,0.15601062,0.707724235,-0.134372997,0.675801874
879,2200364,2018140,0.988,0.04,-0.03,0.1,-0.3,0,-34,4.6,27.1,0.155980102,0.707724235,-0.134372997,0.675801874
880,2203105,2018150,0.988,0.04,-0.042,0.1,-0.1,0,-34,4.6,27.1,0.155980102,0.707724235,-0.134372997,0.675771355
881,2205210,2018150,0.985,0.04,-0.038,0.1,0,0,-34,4.6,27.1,0.155980102,0.707724235,-0.134372997,0.675801874
882,2207655,2018150,0.985,0.04,-0.038,0.1,0.1,0,-34,4.6,27.1,0.155980102,0.707724235,-0.134372997,0.675801874
883,2211788,2018150,0.981,0.044,-0.038,0.1,0.1,0.1,-34,4.6,27.1,0.155980102,0.707724235,-0.134372997,0.675801874
884,2214101,2018160,0.985,0.036,-0.038,0,0.1,0.1,-34,4.6,27.1,0.155980102,0.707724235,-0.134372997,0.675801874
885,2216235,2018160,0.981,0.036,-0.03,0,0.1,0,-34,4.6,27.1,0.155980102,0.707724235,-0.134372997,0.675801874
886,2218488,2018160,0.985,0.04,-0.034,0,0,0,-34,4.6,27.1,0.155980102,0.707724235,-0.134372997,0.675801874
887,2220738,2018160,0.988,0.04,-0.034,0,0,0,-34,4.6,27.1,0.155980102,0.707724235,-0.134372997,0.675801874
888,2223423,2018170,0.981,0.032,-0.038,0,-0.2,0,-34,4.6,27.1,0.155980102,0.707724235,-0.134372997,0.675801874
889,2225201,2018170,0.985,0.036,-0.03,0,-0.3,0,-34,4.6,27.1,0.155980102,0.707724235,-0.134372997,0.675801874
890,2228703,2018170,0.992,0.036,-0.038,-0.1,-0.3,0,-34.2,5.7,26.9,0.155980102,0.707724235,-0.134372997,0.675771355
891,2230987,2018170,0.988,0.04,-0.034,-0.1,-0.2,0,-34.2,5.7,26.9,0.155980102,0.707724235,-0.134372997,0.675771355
892,2233306,2018180,0.988,0.044,-0.034,0,-0.2,0,-34.2,5.7,26.9,0.155980102,0.707724235,-0.134372997,0.675771355
893,2235603,2018180,0.992,0.04,-0.034,0,-0.2,0,-34.2,5.7,26.9,0.155980102,0.707724235,-0.134372997,0.675771355
894,2237843,2018180,0.988,0.04,-0.042,0,-0.1,0,-34.2,5.7,26.9,0.15601062,0.707724235,-0.134342479,0.675771355
895,2240565,2018180,0.988,0.04,-0.042,0,0,0,-34.2,5.7,26.9,0.15601062,0.707724235,-0.134342479,0.675771355
896,2242710,2018190,0.985,0.036,-0.034,0,0,0,-34.2,5.7,26.9,0.15601062,0.707724235,-0.134342479,0.675801874
897,2246910,2018190,0.985,0.036,-0.042,0,0,0.1,-34.2,5.7,26.9,0.15601062,0.707724235,-0.134342479,0.675801874
898,2247636,2018190,0.985,0.036,-0.038,-0.1,0,0.2,-34.2,5.7,26.9,0.15601062,0.707724235,-0.134372997,0.675801874
899,2251403,2018190,0.981,0.04,-0.034,0,-0.1,0.1,-34.2,5.7,26.9,0.15601062,0.707724235,-0.134372997,0.675771355
900,2253552,2018200,0.985,0.04,-0.034,0,-0.1,0,-34.2,5.7,26.9,0.15601062,0.707724235,-0.134372997,0.675771355
901,2255920,2018200,0.985,0.036,-0.034,0,-0.1,0,-34.2,5.7,26.9,0.15601062,0.707724235,-0.134372997,0.675771355
902,2258863,2018200,0.985,0.04,-0.03,0,-0.1,0,-34.2,5.7,26.9,0.155980102,0.707724235,-0.134372997,0.675771355
903,2261177,2018200,0.985,0.036,-0.034,0,-0.2,0.1,-34.2,5.7,26.9,0.155980102,0.707724235,-0.134372997,0.675771355
904,2264233,2018210,0.988,0.04,-0.038,0,-0.3,0.1,-34.2,5.7,26.9,0.155980102,0.707724235,-0.134372997,0.675771355
905,2266479,2018210,0.985,0.04,-0.034,0.1,-0.3,0,-34.2,5.7,26.9,0.155980102,0.707754753,-0.134372997,0.675771355
906,2268749,2018210,0.988,0.044,-0.034,0.1,-0.2,0,-34.2,5.7,26.9,0.155980102,0.707754753,-0.134372997,0.675771355
907,2271033,2018210,0.988,0.048,-0.03,0.1,-0.1,0,-34.2,5.7,26.9,0.155980102,0.707754753,-0.134372997,0.675771355
908,2273246,2018220,0.988,0.044,-0.034,0,-0.2,0,-34.2,5.7,26.9,0.155980102,0.707754753,-0.134372997,0.675771355
909,2275818,2018220,0.988,0.04,-0.034,0,-0.3,0,-34.2,5.7,26.9,0.155980102,0.707754753,-0.134372997,0.675740837
910,2277720,2018220,0.988,0.036,-0.038,0,-0.3,0,-35,6.2,27,0.155980102,0.707754753,-0.134372997,0.675740837
911,2280211,2018220,0.985,0.04,-0.038,0,-0.1,0,-35,6.2,27,0.155980102,0.707754753,-0.134372997,0.675740837
912,2284450,2018230,0.981,0.04,-0.038,0,0,0,-35,6.2,27,0.155980102,0.707754753,-0.134372997,0.675740837
913,2285230,2018230,0.985,0.036,-0.034,0,0,0,-35,6.2,27,0.155980102,0.707754753,-0.134372997,0.675740837
914,2289254,2018230,0.981,0.04,-0.038,0,0,0,-34.8,6.1,26.7,0.155980102,0.707754753,-0.134372997,0.675740837
915,2290072,2018230,0.985,0.04,-0.042,0,0,0,-34.8,6.1,26.7,0.155980102,0.707754753,-0.134372997,0.675740837
916,2292730,2018240,0.988,0.036,-0.034,0,0,0,-34.8,6.1,26.7,0.155980102,0.707754753,-0.134372997,0.675740837
917,2296686,2018240,0.988,0.04,-0.038,-0.1,-0.1,0,-34.8,6.1,26.7,0.155980102,0.707754753,-0.134372997,0.675740837
918,2297516,2018240,0.988,0.044,-0.038,-0.1,-0.1,0,-34.5,6.2,27.5,0.155980102,0.707754753,-0.134403516,0.675740837
919,2301072,2018240,0.992,0.04,-0.034,-0.1,-0.1,0,-34.5,6.2,27.5,0.155980102,0.707754753,-0.134403516,0.675740837
920,2303417,2018250,0.992,0.04,-0.03,0,-0.1,0,-34.5,6.2,27.5,0.155980102,0.707754753,-0.134403516,0.675740837
921,2305690,2018250,0.992,0.04,-0.034,0,0,0,-34.5,6.2,27.5,0.155980102,0.707785272,-0.134403516,0.675740837
922,2307868,2018250,0.985,0.036,-0.038,0,0,0,-34.5,6.1,27.5,0.155980102,0.707754753,-0.134403516,0.675740837
923,2310501,2018250,0.985,0.04,-0.042,0,0.1,0,-34.5,6.1,27.5,0.155980102,0.707754753,-0.134403516,0.675740837
924,2312938,2018260,0.985,0.036,-0.038,0,0.1,0,-34.5,6.1,27.5,0.155980102,0.707754753,-0.134403516,0.675740837
925,2315206,2018260,0.981,0.044,-0.042,0,0.1,0,-34.5,6.1,27.5,0.155980102,0.707754753,-0.134403516,0.675740837
926,2319344,2018260,0.985,0.036,-0.034,0,0,-0.1,-34.4,6.2,27,0.155980102,0.707754753,-0.134403516,0.675740837
927,2320256,2018260,0.985,0.04,-0.026,0,0,-0.1,-34.4,6.2,27,0.155980102,0.707754753,-0.134403516,0.675740837
928,2322824,2018270,0.981,0.04,-0.038,0,-0.1,0,-34.4,6.2,27,0.155980102,0.707754753,-0.134403516,0.675740837
929,2325184,2018270,0.988,0.036,-0.038,0,-0.2,-0.1,-34.4,6.2,27,0.155980102,0.707785272,-0.134403516,0.675740837
930,2327603,2018270,0.988,0.036,-0.042,0,-0.3,-0.1,-36.2,6.1,27,0.155980102,0.707785272,-0.134372997,0.675740837
931,2330975,2018270,0.988,0.04,-0.034,0,-0.2,-0.1,-36.2,6.1,27,0.155980102,0.707785272,-0.134372997,0.675740837
932,2332764,2018280,0.988,0.044,-0.038,0,-0.2,0,-36.2,6.1,27,0.155980102,0.707785272,-0.134372997,0.675710318
933,2335420,2018280,0.992,0.04,-0.038,0.1,-0.2,0,-36.2,6.1,27,0.155980102,0.707785272,-0.134372997,0.675710318
934,2337688,2018280,0.988,0.044,-0.034,0.2,-0.2,0.1,-33.3,5.8,26.7,0.155980102,0.70781579,-0.134372997,0.675710318
935,2340274,2018280,0.992,0.04,-0.034,0.1,-0.2,0,-33.3,5.8,26.7,0.155980102,0.70781579,-0.134372997,0.675710318
936,2344128,2018290,0.985,0.04,-0.034,0,-0.1,0,-33.3,5.8,26.7,0.155980102,0.70781579,-0.134372997,0.675710318
937,2346332,2018290,0.985,0.04,-0.038,0,0,0,-33.3,5.8,26.7,0.155980102,0.70781579,-0.134372997,0.675710318
938,2348592,2018290,0.985,0.04,-0.034,0,0,0.1,-33.7,5.7,26.6,0.155980102,0.70781579,-0.134372997,0.675710318
939,2351645,2018290,0.981,0.04,-0.034,0.1,0,0.1,-33.7,5.7,26.6,0.155980102,0.70781579,-0.134372997,0.675710318
940,2353556,2018300,0.985,0.036,-0.034,0.1,0,0,-33.7,5.7,26.6,0.155980102,0.70781579,-0.134372997,0.675710318
941,2355158,2018300,0.981,0.036,-0.042,0,0,0,-33.7,5.7,26.6,0.155980102,0.70781579,-0.134372997,0.675710318
942,2357909,2018300,0.981,0.036,-0.042,0,-0.1,0,-33.6,5.9,26.8,0.155980102,0.70781579,-0.134372997,0.675710318
943,2361897,2018300,0.988,0.036,-0.042,-0.1,-0.1,-0.1,-33.6,5.9,26.8,0.155980102,0.70781579,-0.134372997,0.675710318
944,2362767,2018310,0.988,0.036,-0.038,-0.1,-0.3,-0.1,-33.6,5.9,26.8,0.155980102,0.70781579,-0.134372997,0.6756798
945,2365371,2018310,0.988,0.036,-0.038,0,-0.3,-0.1,-33.6,5.9,26.8,0.155980102,0.70781579,-0.134372997,0.6756798
946,2368595,2018310,0.992,0.036,-0.034,0,-0.1,0,-33.5,5.7,26.9,0.155980102,0.70781579,-0.134372997,0.6756798
947,2370912,2018310,0.992,0.032,-0.034,0,-0.1,0,-33.5,5.7,26.9,0.155980102,0.70781579,-0.134372997,0.6756798
948,2373136,2018320,0.988,0.04,-0.042,0,0,0,-33.5,5.7,26.9,0.155980102,0.70781579,-0.134372997,0.6756798
949,2375359,2018320,0.988,0.04,-0.034,0,0.1,0,-33.5,5.7,26.9,0.155980102,0.70781579,-0.134372997,0.6756798
950,2378377,2018320,0.985,0.04,-0.042,0.1,0.1,0,-35.1,6,26.8,0.155980102,0.70781579,-0.134372997,0.6756798
951,2380375,2018320,0.985,0.04,-0.042,0.1,0.1,0,-35.1,6,26.8,0.155980102,0.70781579,-0.134372997,0.6756798
952,2382822,2018330,0.988,0.04,-0.042,0.1,0,0,-35.1,6,26.8,0.155980102,0.70781579,-0.134372997,0.6756798
953,2385268,2018330,0.985,0.04,-0.038,0.1,0,-0.1,-35.1,6,26.8,0.155980102,0.70781579,-0.134372997,0.6756798
954,2389023,2018330,0.985,0.044,-0.034,0.1,0,0,-34.5,5.9,27.1,0.155980102,0.707876827,-0.134342479,0.675649281
955,2390670,2018330,0.985,0.044,-0.034,0.1,-0.1,0,-34.5,5.9,27.1,0.155980102,0.707876827,-0.134342479,0.675649281
956,2392759,2018340,0.985,0.036,-0.034,0,0,0,-34.5,5.9,27.1,0.155980102,0.707876827,-0.134342479,0.675649281
957,2395466,2018340,0.985,0.036,-0.038,0,0,0,-34.5,5.9,27.1,0.155980102,0.707876827,-0.134342479,0.675649281
958,2397796,2018340,0.985,0.04,-0.038,0,0.1,0,-35,6.2,27,0.155980102,0.707876827,-0.134342479,0.675649281
959,2400050,2018340,0.988,0.04,-0.034,0,0.1,0,-35,6.2,27,0.155980102,0.707876827,-0.134342479,0.675649281
960,2404163,2018350,0.988,0.04,-0.038,0,0,-0.1,-35,6.2,27,0.155980102,0.707876827,-0.134342479,0.675649281
961,2406143,2018350,0.988,0.04,-0.03,0,0,-0.2,-35,6.2,27,0.155980102,0.707876827,-0.134342479,0.675649281
962,2408413,2018350,0.985,0.036,-0.038,0,0,-0.1,-34.4,6.4,27.2,0.155980102,0.707876827,-0.134342479,0.675649281
963,2410591,2018350,0.988,0.044,-0.03,0,0.1,-0.1,-34.4,6.4,27.2,0.155980102,0.707876827,-0.134342479,0.675649281
964,2412730,2018360,0.988,0.036,-0.03,-0.1,0.2,-0.1,-34.4,6.4,27.2,0.155980102,0.707846309,-0.134342479,0.675649281
965,2415471,2018360,0.985,0.04,-0.034,-0.1,0.2,0,-34.4,6.4,27.2,0.155980102,0.707846309,-0.134342479,0.675649281
966,2417646,2018360,0.985,0.04,-0.034,-0.1,0,0,-34.6,5.9,27,0.155980102,0.707846309,-0.134342479,0.675649281
967,2421028,2018360,0.985,0.04,-0.038,0,0,0,-34.6,5.9,27,0.155980102,0.707846309,-0.134342479,0.675649281
968,2423326,2018370,0.977,0.04,-0.034,0,0,0,-34.6,5.9,27,0.155980102,0.707846309,-0.134342479,0.675649281
969,2425627,2018370,0.985,0.04,-0.038,0,-0.1,0,-34.6,5.9,27,0.155980102,0.707846309,-0.134342479,0.675649281
970,2427854,2018370,0.985,0.036,-0.038,0,-0.1,0,-35,5.9,26.6,0.155980102,0.707876827,-0.134342479,0.675649281
971,2430117,2018370,0.988,0.04,-0.034,0.1,-0.3,0,-35,5.9,26.6,0.155980102,0.707876827,-0.134342479,0.675649281
972,2432701,2018380,0.985,0.04,-0.034,0,-0.2,0,-35,5.9,26.6,0.155980102,0.707876827,-0.134342479,0.675649281
973,2435057,2018380,0.988,0.032,-0.038,0,-0.1,0,-35,5.9,26.6,0.155980102,0.707876827,-0.134342479,0.675649281
974,2438540,2018380,0.992,0.04,-0.03,0,-0.1,0,-34.9,6,27.2,0.155980102,0.707846309,-0.134342479,0.675649281
975,2440769,2018380,0.988,0.044,-0.042,0,-0.1,0,-34.9,6,27.2,0.155980102,0.707846309,-0.134342479,0.675649281
976,2443034,2018390,0.992,0.04,-0.034,0,-0.1,0,-34.9,6,27.2,0.155980102,0.707876827,-0.134342479,0.675649281
977,2445121,2018390,0.988,0.036,-0.038,0,0,0,-34.9,6,27.2,0.155980102,0.707876827,-0.134342479,0.675649281
978,2447925,2018390,0.985,0.044,-0.034,0,0,0,-34.7,5.9,28.1,0.155980102,0.707876827,-0.134342479,0.675649281
979,2450426,2018390,0.988,0.04,-0.034,0,0,0,-34.7,5.9,28.1,0.155980102,0.707876827,-0.134342479,0.675649281
980,2452674,2018400,0.985,0.04,-0.034,0,0,-0.1,-34.7,5.9,28.1,0.155980102,0.707876827,-0.134342479,0.675649281
981,2455199,2018400,0.985,0.044,-0.03,0,0,-0.1,-34.7,5.9,28.1,0.155980102,0.707876827,-0.134342479,0.675649281
982,2458629,2018400,0.981,0.04,-0.038,0,0.1,-0.1,-34.9,6.5,28.5,0.155980102,0.707876827,-0.134342479,0.675649281
983,2460856,2018400,0.981,0.044,-0.038,-0.1,0.1,-0.1,-34.9,6.5,28.5,0.155980102,0.707846309,-0.134342479,0.675649281
984,2463539,2018410,0.985,0.04,-0.038,-0.1,0.1,-0.1,-34.9,6.5,28.5,0.155980102,0.707846309,-0.134342479,0.675649281
985,2465706,2018410,0.985,0.04,-0.038,-0.1,0,0,-34.9,6.5,28.5,0.155980102,0.707846309,-0.134342479,0.675649281
986,2467950,2018410,0.988,0.04,-0.038,-0.1,0,0,-34.9,5.8,29.2,0.15601062,0.707846309,-0.134342479,0.675649281
987,2470295,2018410,0.988,0.044,-0.034,0,0,0,-34.9,5.8,29.2,0.15601062,0.707846309,-0.134342479,0.675649281
988,2474133,2018420,0.988,0.04,-0.034,0,0,0,-34.9,5.8,29.2,0.15601062,0.707846309,-0.134342479,0.675649281
989,2475297,2018420,0.988,0.044,-0.034,0,0,0,-34.9,5.8,29.2,0.15601062,0.707846309,-0.134342479,0.675649281
990,2477526,2018420,0.988,0.044,-0.034,0,0.1,0,-34.8,6,25.3,0.15601062,0.707846309,-0.134342479,0.675649281
991,2480813,2018420,0.985,0.04,-0.034,0,0.1,0.1,-34.8,6,25.3,0.155980102,0.707846309,-0.134342479,0.675649281
992,2483779,2018430,0.981,0.036,-0.034,0,0.1,0.1,-34.8,6,25.3,0.155980102,0.707846309,-0.134342479,0.675649281
993,2486355,2018430,0.985,0.04,-0.034,0,0.1,0.1,-34.8,6,25.3,0.155980102,0.707846309,-0.134342479,0.675649281
994,2488631,2018430,0.985,0.036,-0.038,0,0,0,-35,6.2,27.7,0.15601062,0.70781579,-0.134342479,0.6756798
995,2490888,2018430,0.985,0.04,-0.038,0,0,0,-35,6.2,27.7,0.15601062,0.70781579,-0.134342479,0.6756798
996,2492849,2018440,0.981,0.04,-0.038,-0.1,-0.1,0,-35,6.2,27.7,0.15601062,0.70781579,-0.134342479,0.6756798
997,2495227,2018440,0.985,0.04,-0.042,0,-0.2,0,-35,6.2,27.7,0.15601062,0.70781579,-0.134342479,0.6756798
998,2497812,2018440,0.985,0.04,-0.034,0,-0.2,0,-34.7,6,27.2,0.15601062,0.70781579,-0.134342479,0.6756798
999,2500148,2018440,0.988,0.036,-0.034,0.1,-0.1,0.1,-34.7,6,27.2,0.15601062,0.70781579,-0.134342479,0.6756798
1000,2504256,2018450,0.985,0.04,-0.038,0,-0.1,0,-34.7,6,27.2,0.15601062,0.707846309,-0.134342479,0.6756798
1001,2505097,2018450,0.988,0.04,-0.034,0,-0.1,0,-34.7,6,27.2,0.15601062,0.707846309,-0.134342479,0.6756798
1002,2508708,2018450,0.988,0.04,-0.034,0.1,-0.1,0,-34.8,6,27,0.15601062,0.707846309,-0.134342479,0.6756798
1003,2511669,2018450,0.985,0.04,-0.038,0.1,-0.1,-0.1,-34.8,6,27,0.15601062,0.707846309,-0.134342479,0.6756798
1004,2513823,2018460,0.988,0.04,-0.03,0,0,0,-34.8,6,27,0.15601062,0.707846309,-0.134342479,0.675649281
1005,2515355,2018460,0.985,0.04,-0.038,0,0,0,-34.8,6,27,0.15601062,0.707846309,-0.134342479,0.675649281
1006,2517637,2018460,0.985,0.04,-0.03,-0.1,0.1,0.1,-34.9,6,26.2,0.15601062,0.707846309,-0.134342479,0.6756798
1007,2520354,2018460,0.985,0.044,-0.046,-0.1,0.1,0,-34.9,6,26.2,0.15601062,0.707846309,-0.134342479,0.6756798
1008,2524619,2018470,0.988,0.04,-0.038,-0.1,0.1,0,-34.9,6,26.2,0.15601062,0.707846309,-0.134342479,0.6756798
1009,2525623,2018470,0.985,0.036,-0.034,0,0.1,0,-34.9,6,26.2,0.15601062,0.707846309,-0.134342479,0.6756798
1010,2527829,2018470,0.981,0.044,-0.038,0,0.1,0,-34.8,5.9,26.3,0.15601062,0.70781579,-0.134342479,0.6756798
1011,2531954,2018470,0.985,0.029,-0.034,0,0.1,0,-34.8,5.9,26.3,0.15601062,0.70781579,-0.134342479,0.6756798
1012,2532780,2018480,0.985,0.036,-0.038,0,0.1,0,-34.8,5.9,26.3,0.15601062,0.70781579,-0.134342479,0.6756798
1013,2536564,2018480,0.988,0.044,-0.038,0,0,0,-34.8,5.9,26.3,0.15601062,0.70781579,-0.134342479,0.6756798
1014,2538843,2018480,0.992,0.04,-0.038,0.1,-0.1,0,-35,6,26.1,0.15601062,0.70781579,-0.134342479,0.6756798
1015,2541049,2018480,0.992,0.04,-0.038,0.1,-0.2,0,-35,6,26.1,0.15601062,0.70781579,-0.134342479,0.6756798
1016,2543291,2018490,0.988,0.044,-0.026,0.1,-0.2,0,-35,6,26.1,0.15601062,0.707846309,-0.134342479,0.6756798
1017,2545615,2018490,0.988,0.044,-0.034,0,-0.3,-0.1,-35,6,26.1,0.15601062,0.707846309,-0.134342479,0.6756798
1018,2547775,2018490,0.988,0.04,-0.034,0,-0.2,-0.1,-34.6,6,26.2,0.15601062,0.707846309,-0.134342479,0.675649281
1019,2550151,2018490,0.985,0.04,-0.034,-0.1,-0.1,-0.1,-34.6,6,26.2,0.15601062,0.707846309,-0.134342479,0.675649281
1020,2552927,2018500,0.985,0.04,-0.034,0,0,0,-34.6,6,26.2,0.15601062,0.707846309,-0.134342479,0.675649281
1021,2556871,2018500,0.988,0.04,-0.034,0,0,0.1,-34.6,6,26.2,0.15601062,0.707846309,-0.134342479,0.675649281
1022,2558477,2018500,0.985,0.04,-0.038,0,0.1,0.1,-34.6,5.7,26.4,0.15601062,0.707846309,-0.134342479,0.675649281
1023,2560722,2018500,0.985,0.04,-0.038,0,0,0.1,-34.6,5.7,26.4,0.15601062,0.707846309,-0.134342479,0.6756798
1024,2563394,2018510,0.985,0.036,-0.038,0,0,0.1,-34.6,5.7,26.4,0.15601062,0.707846309,-0.134342479,0.6756798
1025,2565274,2018510,0.981,0.04,-0.038,0,-0.1,0.1,-34.6,5.7,26.4,0.15601062,0.707846309,-0.134342479,0.675649281
1026,2567896,2018510,0.988,0.036,-0.034,0,-0.1,0,-34.9,6.2,26.1,0.15601062,0.707846309,-0.134342479,0.675649281
1027,2571305,2018510,0.985,0.04,-0.034,0,-0.1,0,-34.9,6.2,26.1,0.15601062,0.707846309,-0.134342479,0.675649281
1028,2574375,2018520,0.985,0.04,-0.03,0,-0.1,0,-34.9,6.2,26.1,0.15601062,0.707846309,-0.134342479,0.675649281
1029,2576926,2018520,0.988,0.04,-0.038,0,-0.1,0,-34.9,6.2,26.1,0.15601062,0.707846309,-0.134342479,0.675649281
1030,2577977,2018520,0.985,0.044,-0.03,0,-0.1,0,-35,6,27.6,0.15601062,0.707846309,-0.134342479,0.675649281
1031,2581321,2018520,0.985,0.04,-0.038,0,0,0,-35,6,27.6,0.15601062,0.707846309,-0.134342479,0.675649281
1032,2583046,2018530,0.985,0.036,-0.038,0,0,0,-35,6,27.6,0.15601062,0.707846309,-0.134342479,0.675649281
1033,2585315,2018530,0.981,0.04,-0.038,0,0.1,0,-35,6,27.6,0.15601062,0.707846309,-0.134342479,0.675649281
1034,2587663,2018530,0.985,0.04,-0.034,0,0.2,0,-35.2,5.6,25.9,0.156041139,0.707846309,-0.134342479,0.675649281
1035,2590315,2018530,0.981,0.04,-0.034,0,0.2,0,-35.2,5.6,25.9,0.156041139,0.707846309,-0.134342479,0.675649281
1036,2594299,2018540,0.988,0.04,-0.034,0,0.2,0,-35.2,5.6,25.9,0.156041139,0.707846309,-0.134342479,0.6756798
1037,2595851,2018540,0.985,0.036,-0.038,0,0.2,0,-35.2,5.6,25.9,0.156041139,0.70781579,-0.134342479,0.6756798
1038,2598129,2018540,0.988,0.036,-0.03,0,0.1,0,-35,4.6,26.1,0.156041139,0.70781579,-0.134342479,0.6756798
1039,2600344,2018540,0.988,0.04,-0.034,0,0,0,-35,4.6,26.1,0.156041139,0.70781579,-0.134342479,0.6756798
1040,2604071,2018550,0.985,0.044,-0.034,-0.1,-0.1,0,-35,4.6,26.1,0.156041139,0.70781579,-0.134342479,0.6756798
1041,2606432,2018550,0.985,0.04,-0.03,0,-0.1,0,-35,4.6,26.1,0.156041139,0.707846309,-0.134342479,0.6756798
1042,2607587,2018550,0.988,0.04,-0.034,0,-0.1,0,-34.7,4.1,26.1,0.156041139,0.707846309,-0.134342479,0.6756798
1043,2610871,2018550,0.988,0.04,-0.03,0,-0.1,0,-34.7,4.1,26.1,0.156041139,0.707846309,-0.134342479,0.6756798
1044,2613501,2018560,0.988,0.044,-0.038,0,-0.1,0,-34.7,4.1,26.1,0.156041139,0.707846309,-0.134342479,0.675649281
1045,2615916,2018560,0.985,0.036,-0.034,0.1,-0.1,0,-34.7,4.1,26.1,0.156041139,0.707846309,-0.134342479,0.675649281
1046,2618063,2018560,0.985,0.036,-0.034,0,0,0,-35.2,3.7,26.3,0.156041139,0.707846309,-0.134342479,0.675649281
1047,2620316,2018560,0.985,0.036,-0.034,0,-0.1,0,-35.2,3.7,26.3,0.156041139,0.707846309,-0.134342479,0.675649281
1048,2623075,2018570,0.988,0.04,-0.038,0,-0.1,0,-35.2,3.7,26.3,0.156041139,0.707846309,-0.134342479,0.675649281
1049,2625170,2018570,0.988,0.04,-0.034,0,-0.1,-0.1,-35.2,3.7,26.3,0.156041139,0.707846309,-0.134342479,0.675649281
1050,2627674,2018570,0.985,0.036,-0.038,0,-0.1,-0.1,-34.9,7.6,27.7,0.156041139,0.707846309,-0.134342479,0.675649281
1051,2631630,2018570,0.985,0.04,-0.034,0,-0.2,-0.1,-34.9,7.6,27.7,0.156041139,0.707846309,-0.134342479,0.675649281
1052,2633866,2018580,0.988,0.04,-0.042,0,-0.3,0,-34.9,7.6,27.7,0.156041139,0.707846309,-0.134342479,0.675649281
1053,2635532,2018580,0.992,0.04,-0.038,0,-0.3,0,-34.9,7.6,27.7,0.156041139,0.707876827,-0.134342479,0.675649281
1054,2637744,2018580,0.988,0.044,-0.034,0,-0.1,0,-34.7,5.1,26.2,0.156041139,0.707876827,-0.134342479,0.675618763
1055,2640415,2018580,0.985,0.04,-0.038,0,-0.1,0,-34.7,5.1,26.2,0.156041139,0.707876827,-0.134342479,0.675618763
1056,2642706,2018590,0.985,0.04,-0.042,0,-0.1,0,-34.7,5.1,26.2,0.156041139,0.707876827,-0.134342479,0.675618763
1057,2646616,2018590,0.985,0.036,-0.03,0,0,0,-34.7,5.1,26.2,0.156041139,0.707876827,-0.134342479,0.675618763
1058,2648852,2018590,0.985,0.04,-0.034,0.1,0,0.1,-34.7,5.4,26.2,0.156041139,0.707876827,-0.134342479,0.675618763
1059,2651051,2018590,0.985,0.044,-0.034,0,0,0,-34.7,5.4,26.2,0.156041139,0.707876827,-0.134342479,0.675618763
1060,2653331,2018600,0.985,0.044,-0.038,0,0,0,-34.7,5.4,26.2,0.156041139,0.707876827,-0.134342479,0.675618763
1061,2655648,2018600,0.985,0.04,-0.03,0,0,0,-34.7,5.4,26.2,0.156041139,0.707876827,-0.134342479,0.675618763
1062,2657790,2018600,0.985,0.04,-0.038,0,0.1,0,-34.9,5.4,26,0.156041139,0.707876827,-0.134342479,0.675618763
1063,2660152,2018600,0.985,0.04,-0.034,0,0.1,0,-34.9,5.4,26,0.156041139,0.707876827,-0.134342479,0.675618763
1064,2663433,2018610,0.988,0.036,-0.038,0,0,0,-34.9,5.4,26,0.156041139,0.707876827,-0.134342479,0.675618763
1065,2665578,2018610,0.988,0.04,-0.042,0,0,0,-34.9,5.4,26,0.156041139,0.707876827,-0.134342479,0.675618763
1066,2667863,2018610,0.981,0.044,-0.034,0,-0.1,0,-34.6,6.7,26.1,0.156041139,0.707876827,-0.134342479,0.675618763
1067,2670164,2018610,0.988,0.04,-0.038,0,-0.1,0,-34.6,6.7,26.1,0.156041139,0.707876827,-0.134342479,0.675618763
1068,2673058,2018620,0.985,0.036,-0.038,0,-0.1,0,-34.6,6.7,26.1,0.156041139,0.707876827,-0.134342479,0.675618763
1069,2675351,2018620,0.988,0.036,-0.034,0,-0.1,0,-34.6,6.7,26.1,0.156041139,0.707876827,-0.134342479,0.675618763
1070,2677605,2018620,0.985,0.044,-0.038,0,-0.1,0,-34.7,6.6,27,0.156041139,0.707876827,-0.134342479,0.675618763
1071,2682043,2018620,0.988,0.04,-0.038,0,-0.1,0,-34.7,6.6,27,0.156041139,0.707876827,-0.134342479,0.675618763
1072,2682516,2018630,0.988,0.04,-0.034,0,0,0,-34.7,6.6,27,0.156041139,0.707876827,-0.134342479,0.675618763
1073,2686798,2018630,0.988,0.04,-0.038,0,0.1,0,-34.7,6.6,27,0.156041139,0.707876827,-0.134342479,0.675618763
1074,2687618,2018630,0.985,0.04,-0.038,0.1,0.1,0.1,-35.2,6.3,27,0.156071657,0.707876827,-0.13431196,0.675618763
1075,2691650,2018630,0.985,0.04,-0.038,0.1,0.1,0.1,-35.2,6.3,27,0.156071657,0.707876827,-0.13431196,0.675618763
1076,2692580,2018640,0.988,0.036,-0.03,0,0,0,-35.2,6.3,27,0.156071657,0.707876827,-0.13431196,0.675618763
1077,2696989,2018640,0.985,0.036,-0.034,0,0,0,-35.2,6.3,27,0.156071657,0.707876827,-0.13431196,0.675618763
1078,2698153,2018640,0.981,0.04,-0.038,0,0.1,0,-35.2,6.2,27.4,0.156071657,0.707876827,-0.13431196,0.675618763
1079,2700601,2018640,0.985,0.04,-0.038,0,0,0,-35.2,6.2,27.4,0.156071657,0.707876827,-0.13431196,0.675618763
1080,2702874,2018650,0.988,0.04,-0.034,0,0,0,-35.2,6.2,27.4,0.156071657,0.707876827,-0.13431196,0.675618763
1081,2705637,2018650,0.988,0.04,-0.034,-0.1,0,0,-35.2,6.2,27.4,0.156071657,0.707876827,-0.13431196,0.675618763
1082,2707880,2018650,0.992,0.04,-0.038,-0.1,-0.1,0,-34.7,6.7,27.1,0.156071657,0.707876827,-0.13431196,0.675618763
1083,2711077,2018650,0.988,0.044,-0.034,0,-0.1,0,-34.7,6.7,27.1,0.156071657,0.707876827,-0.13431196,0.675618763
1084,2712706,2018660,0.985,0.044,-0.038,0,-0.1,0,-34.7,6.7,27.1,0.156071657,0.707876827,-0.13431196,0.675618763
1085,2715508,2018660,0.985,0.04,-0.038,0,0,0,-34.7,6.7,27.1,0.156071657,0.707876827,-0.13431196,0.675618763
1086,2717786,2018660,0.988,0.04,-0.034,0,0,0,-35,6.6,26.9,0.156071657,0.707876827,-0.13431196,0.675618763
1087,2721900,2018660,0.988,0.04,-0.034,0,0.1,0,-35,6.6,26.9,0.156071657,0.707876827,-0.13431196,0.675618763
