sample_index,elapsed_us,device_time_ms,acc_x_g,acc_y_g,acc_z_g,gyro_x_dps,gyro_y_dps,gyro_z_dps,mag_x_ut,mag_y_ut,mag_z_ut,quat_w,quat_x,quat_y,quat_z
0,3193,1745470,0.965,-0.092,0.201,-2.3,2.9,2.3,-4.7,26.7,-15.6,0.0848414563,-0.626453444,-0.0302438429,-0.774224067
1,6334,1745470,0.961,-0.092,0.197,-1.9,2.7,2.4,-4.7,26.7,-15.6,0.0848719749,-0.626392407,-0.0301522874,-0.774254585
2,10039,1745480,0.961,-0.092,0.205,-1.6,2.5,2.4,-5,26.8,-15.6,0.0848719749,-0.626361888,-0.0300912503,-0.774285104
3,10487,1745480,0.958,-0.096,0.205,-1.4,2.6,2.4,-5,26.8,-15.6,0.0849024934,-0.62633137,-0.0300302133,-0.774315622
4,14909,1745480,0.961,-0.088,0.209,-1.2,2.6,2.2,-5,26.8,-15.6,0.0849330119,-0.626270333,-0.0299691763,-0.774346141
5,17173,1745480,0.958,-0.092,0.205,-1.1,2.6,2.1,-5,26.8,-15.6,0.0849635304,-0.626239814,-0.0299081393,-0.774376659
6,19411,1745490,0.958,-0.092,0.205,-1.1,2.6,2.1,-5,26.8,-15.6,0.0849635304,-0.626239814,-0.0299081393,-0.774376659
7,21393,1745490,0.954,-0.092,0.201,-0.8,2.6,1.9,-6.1,26.9,-15.9,0.085238197,-0.626209296,-0.0295419172,-0.774376659
8,23661,1745490,0.954,-0.088,0.201,-0.7,2.7,1.8,-6.1,26.9,-15.9,0.0852687155,-0.626178777,-0.0294808802,-0.774407178
9,25881,1745490,0.954,-0.088,0.194,-0.7,2.8,1.7,-6.1,26.9,-15.9,0.0852687155,-0.62611774,-0.0294198431,-0.774468215
10,28413,1745500,0.958,-0.084,0.201,-0.7,2.9,1.7,-4.4,27.2,-16,0.085299234,-0.626056703,-0.0294198431,-0.774498733
11,30610,1745500,0.954,-0.088,0.197,-0.9,2.9,1.7,-4.4,27.2,-16,0.0853297525,-0.626026185,-0.0293588061,-0.774529252
12,35087,1745500,0.961,-0.088,0.197,-1.2,2.9,1.7,-4.4,27.2,-16,0.0853297525,-0.625965148,-0.0292977691,-0.774590289
13,37407,1745500,0.957,-0.096,0.197,-1.3,2.9,1.6,-4.4,27.2,-16,0.085360271,-0.625934629,-0.0292672506,-0.774620808
14,39725,1745510,0.961,-0.092,0.197,-1.4,2.8,1.4,-4.7,27,-15.5,0.085360271,-0.625873592,-0.0291756951,-0.774651326
15,41975,1745510,0.961,-0.092,0.197,-1.4,2.7,1.3,-4.7,27,-15.5,0.085360271,-0.625843074,-0.0291756951,-0.774681845
16,44234,1745510,0.958,-0.092,0.201,-1.5,2.6,1.1,-4.7,27,-15.5,0.085360271,-0.625812555,-0.029114658,-0.774712363
17,46254,1745510,0.961,-0.096,0.197,-1.5,2.5,1.1,-4.7,27,-15.5,0.085360271,-0.625751518,-0.029053621,-0.774742882
18,48516,1745520,0.965,-0.096,0.201,-1.6,2.4,1.1,-4.4,27,-15.9,0.085360271,-0.625721,-0.0290231025,-0.7747734
19,50962,1745520,0.969,-0.096,0.201,-1.8,2.2,1,-4.4,27,-15.9,0.085360271,-0.625690481,-0.028931547,-0.774803919
20,53674,1745520,0.973,-0.092,0.205,-1.8,2,0.9,-4.4,27,-15.9,0.0853297525,-0.625659963,-0.028931547,-0.774834437
21,55962,1745520,0.969,-0.092,0.209,-1.8,1.8,0.8,-4.4,27,-15.9,0.0853297525,-0.625629444,-0.02887051,-0.774864956
22,58422,1745530,0.973,-0.096,0.209,-1.7,1.7,0.7,-4.4,27,-15.5,0.0853297525,-0.625598926,-0.0288094729,-0.774895474
23,60675,1745530,0.969,-0.092,0.213,-1.7,1.7,0.6,-4.4,27,-15.5,0.085299234,-0.625568407,-0.0288094729,-0.774925993
24,62998,1745530,0.969,-0.092,0.213,-1.7,1.6,0.5,-4.4,27,-15.5,0.085299234,-0.625568407,-0.0287484359,-0.774925993
25,67460,1745530,0.973,-0.088,0.213,-1.7,1.5,0.4,-4.4,27,-15.5,0.0852687155,-0.625537889,-0.0286873989,-0.774956511
26,69667,1745540,0.973,-0.088,0.213,-1.7,1.5,0.4,-4.4,27,-15.5,0.0852687155,-0.625537889,-0.0286873989,-0.774956511
27,72084,1745540,0.965,-0.084,0.213,-1.5,1.1,0.3,-5.3,27.1,-15.9,0.0854518265,-0.625537889,-0.0283822138,-0.774956511
28,74371,1745540,0.969,-0.092,0.213,-1.4,1.1,0.2,-5.3,27.1,-15.9,0.0854518265,-0.625537889,-0.0283211768,-0.774956511
29,76247,1745540,0.965,-0.084,0.213,-1.3,1.1,0,-5.3,27.1,-15.9,0.085421308,-0.62550737,-0.0283211768,-0.77498703
30,78600,1745550,0.965,-0.088,0.209,-1.2,1.1,0,-5.3,27.1,-15.6,0.085421308,-0.625476852,-0.0283211768,-0.77498703
31,81025,1745550,0.965,-0.084,0.213,-0.9,1.2,-0.1,-5.3,27.1,-15.6,0.0853907895,-0.625476852,-0.0282906583,-0.775017548
32,83316,1745550,0.965,-0.084,0.213,-0.6,1.2,-0.2,-5.3,27.1,-15.6,0.0853907895,-0.625446333,-0.0282906583,-0.775017548
33,85542,1745550,0.965,-0.088,0.209,-0.4,1.3,-0.4,-5.3,27.1,-15.6,0.0853907895,-0.625415815,-0.0282906583,-0.775048067
34,90128,1745560,0.965,-0.088,0.205,-0.1,1.3,-0.5,-5.1,27.2,-15.8,0.085360271,-0.625415815,-0.0282906583,-0.775078585
35,90583,1745560,0.965,-0.088,0.201,0,1.3,-0.5,-5.1,27.2,-15.8,0.085360271,-0.625385296,-0.0282906583,-0.775078585
36,93023,1745560,0.965,-0.096,0.205,0.1,1.3,-0.7,-5.1,27.2,-15.8,0.085360271,-0.625354778,-0.0282906583,-0.775109104
37,97620,1745560,0.961,-0.088,0.209,0.3,1.4,-0.9,-5.1,27.2,-15.8,0.0853297525,-0.625324259,-0.0283211768,-0.775139622
38,98199,1745570,0.961,-0.088,0.201,0.5,1.4,-1.2,-5.3,27,-15.4,0.0853297525,-0.625293741,-0.0283211768,-0.775139622
39,100541,1745570,0.965,-0.092,0.205,0.8,1.5,-1.4,-5.3,27,-15.4,0.0853297525,-0.625293741,-0.0283211768,-0.775170141
40,103156,1745570,0.961,-0.088,0.201,1.1,1.3,-1.6,-5.3,27,-15.4,0.085299234,-0.625263222,-0.0284127323,-0.775200659
41,106995,1745570,0.965,-0.088,0.197,1.3,1.1,-1.7,-5.3,27,-15.4,0.085299234,-0.625232704,-0.0284432508,-0.775200659
42,108840,1745580,0.965,-0.088,0.197,1.4,0.8,-1.8,-4.8,27.5,-15.6,0.0852687155,-0.625202185,-0.0285042879,-0.775231178
43,111132,1745580,0.965,-0.084,0.201,1.6,0.6,-2,-4.8,27.5,-15.6,0.0852687155,-0.625202185,-0.0285348064,-0.775231178
44,113026,1745580,0.969,-0.084,0.197,1.7,0.5,-2.2,-4.8,27.5,-15.6,0.0852687155,-0.625171667,-0.0285653249,-0.775261696
45,116531,1745580,0.965,-0.08,0.197,1.8,0.3,-2.3,-4.8,27.5,-15.6,0.085238197,-0.625171667,-0.0286568804,-0.775261696
46,119625,1745590,0.965,-0.08,0.197,1.8,0.3,-2.3,-4.8,27.5,-15.6,0.085238197,-0.625171667,-0.0286568804,-0.775261696
47,121501,1745590,0.965,-0.077,0.197,1.8,0,-2.5,-5.2,26.9,-15.7,0.085421308,-0.625354778,-0.0285348064,-0.775109104
48,123869,1745590,0.969,-0.077,0.197,1.6,-0.1,-2.7,-5.2,26.9,-15.7,0.0853907895,-0.625354778,-0.0285653249,-0.775109104
49,126128,1745590,0.969,-0.073,0.201,1.3,-0.1,-2.7,-5.2,26.9,-15.7,0.085360271,-0.625354778,-0.0286568804,-0.775109104
50,128333,1745600,0.969,-0.069,0.197,1,-0.2,-2.6,-5.4,26.9,-15.5,0.0853297525,-0.625354778,-0.0286873989,-0.775109104
51,130821,1745600,0.973,-0.073,0.201,0.7,-0.3,-2.5,-5.4,26.9,-15.5,0.085299234,-0.625354778,-0.0287484359,-0.775109104
52,133010,1745600,0.969,-0.069,0.201,0.4,-0.6,-2.5,-5.4,26.9,-15.5,0.0852687155,-0.625354778,-0.0288094729,-0.775109104
53,136862,1745600,0.969,-0.069,0.201,0.1,-0.7,-2.5,-5.4,26.9,-15.5,0.085238197,-0.625385296,-0.0288094729,-0.775078585
54,138703,1745610,0.969,-0.069,0.197,0,-0.7,-2.5,-5.2,26.9,-14.6,0.0851771599,-0.625385296,-0.02887051,-0.775078585
55,140585,1745610,0.965,-0.073,0.193,-0.3,-0.7,-2.5,-5.2,26.9,-14.6,0.0851466414,-0.625385296,-0.0289010285,-0.775078585
56,144349,1745610,0.969,-0.065,0.201,-0.5,-0.6,-2.5,-5.2,26.9,-14.6,0.0850550859,-0.625415815,-0.028931547,-0.775078585
57,146589,1745610,0.969,-0.077,0.201,-0.6,-0.4,-2.5,-5.2,26.9,-14.6,0.0850245674,-0.625415815,-0.028931547,-0.775078585
58,148815,1745620,0.965,-0.073,0.205,-0.8,-0.5,-2.5,-5.2,27.2,-14.1,0.0849635304,-0.625415815,-0.028931547,-0.775078585
59,150966,1745620,0.969,-0.08,0.201,-1,-0.5,-2.6,-5.2,27.2,-14.1,0.0849024934,-0.625446333,-0.028992584,-0.775078585
60,153613,1745620,0.965,-0.08,0.201,-1.1,-0.6,-2.7,-5.2,27.2,-14.1,0.0848414563,-0.625446333,-0.0290231025,-0.775078585
61,155537,1745620,0.969,-0.081,0.193,-1.2,-0.6,-2.7,-5.2,27.2,-14.1,0.0847804193,-0.625446333,-0.0290231025,-0.775078585
62,158193,1745630,0.969,-0.08,0.201,-1.1,-0.6,-2.8,-5.4,27.2,-13.7,0.0847193823,-0.625476852,-0.029053621,-0.775078585
63,160532,1745630,0.965,-0.084,0.201,-1.2,-0.6,-2.9,-5.4,27.2,-13.7,0.0846583453,-0.625476852,-0.029053621,-0.775048067
64,164547,1745630,0.969,-0.088,0.201,-1.1,-0.6,-2.8,-5.4,27.2,-13.7,0.0845667898,-0.625476852,-0.029053621,-0.775048067
65,166054,1745630,0.973,-0.084,0.205,-1.1,-0.6,-2.8,-5.4,27.2,-13.7,0.0845362712,-0.62550737,-0.029114658,-0.775048067
66,168047,1745640,0.973,-0.084,0.205,-1.1,-0.6,-2.8,-5.4,27.2,-13.7,0.0845362712,-0.62550737,-0.029114658,-0.775048067
67,171436,1745640,0.973,-0.092,0.213,-0.8,-0.5,-2.9,-5.2,27.2,-17.5,0.0846888638,-0.625721,-0.0287789544,-0.774864956
68,173703,1745640,0.973,-0.088,0.209,-0.8,-0.4,-3,-5.2,27.2,-17.5,0.0846278268,-0.625721,-0.0288094729,-0.774864956
69,177533,1745640,0.969,-0.092,0.209,-0.7,-0.4,-3.2,-5.2,27.2,-17.5,0.0845667898,-0.625721,-0.0288094729,-0.774864956
70,180139,1745650,0.965,-0.096,0.209,-0.5,-0.6,-3.3,-5,27.3,-15,0.0845057527,-0.625751518,-0.02887051,-0.774864956
71,180814,1745650,0.969,-0.092,0.213,-0.4,-0.6,-3.3,-5,27.3,-15,0.0844447157,-0.625751518,-0.028931547,-0.774864956
72,183099,1745650,0.969,-0.092,0.213,-0.3,-0.6,-3.2,-5,27.3,-15,0.0843836787,-0.625751518,-0.028931547,-0.774864956
73,186897,1745650,0.969,-0.092,0.205,-0.2,-0.6,-3.2,-5,27.3,-15,0.0843226417,-0.625782037,-0.028992584,-0.774864956
74,188945,1745660,0.965,-0.092,0.209,-0.2,-0.7,-3.3,-5.2,27.1,-15.1,0.0842616047,-0.625782037,-0.029053621,-0.774864956
75,192167,1745660,0.969,-0.088,0.209,-0.2,-0.9,-3.4,-5.2,27.1,-15.1,0.0842005676,-0.625812555,-0.029053621,-0.774834437
76,194605,1745660,0.977,-0.092,0.209,-0.1,-1.2,-3.5,-5.2,27.1,-15.1,0.0841395306,-0.625812555,-0.0291451765,-0.774834437
77,196270,1745660,0.969,-0.084,0.205,0,-1.4,-3.6,-5.2,27.1,-15.1,0.0840784936,-0.625843074,-0.0291756951,-0.774834437
78,198541,1745670,0.973,-0.081,0.213,0.1,-1.5,-3.5,-5.4,27.1,-15.3,0.0840174566,-0.625873592,-0.0292367321,-0.774803919
79,200570,1745670,0.969,-0.088,0.213,0.3,-1.5,-3.5,-5.4,27.1,-15.3,0.0839564196,-0.625873592,-0.0292977691,-0.774803919
80,203348,1745670,0.973,-0.081,0.205,0.5,-1.6,-3.4,-5.4,27.1,-15.3,0.0838953825,-0.625904111,-0.0293588061,-0.7747734
81,205508,1745670,0.977,-0.077,0.201,0.5,-1.7,-3.4,-5.4,27.1,-15.3,0.083864864,-0.625934629,-0.0294198431,-0.7747734
82,210255,1745680,0.973,-0.077,0.209,0.6,-1.7,-3.3,-5.2,27.5,-15.9,0.083803827,-0.625965148,-0.0294808802,-0.774742882
83,210596,1745680,0.973,-0.073,0.205,0.7,-1.8,-3.3,-5.2,27.5,-15.9,0.0837733085,-0.625965148,-0.0295419172,-0.774712363
84,214868,1745680,0.973,-0.073,0.209,0.7,-1.9,-3.3,-5.2,27.5,-15.9,0.0837122715,-0.626026185,-0.0296029542,-0.774712363
85,216935,1745680,0.973,-0.069,0.205,0.7,-2,-3.1,-5.2,27.5,-15.9,0.083681753,-0.626056703,-0.0296639912,-0.774681845
86,218941,1745690,0.973,-0.069,0.205,0.7,-2,-3.1,-5.2,27.5,-15.9,0.083681753,-0.626056703,-0.0296639912,-0.774681845
87,221129,1745690,0.973,-0.065,0.201,0.5,-1.9,-2.8,-5.4,26.8,-15.9,0.08374279,-0.626209296,-0.0295419172,-0.774529252
88,223344,1745690,0.973,-0.065,0.201,0.5,-1.8,-2.7,-5.4,26.8,-15.9,0.0837122715,-0.626239814,-0.0296029542,-0.774529252
89,225837,1745690,0.973,-0.065,0.201,0.6,-1.8,-2.6,-5.4,26.8,-15.9,0.083681753,-0.626270333,-0.0296334727,-0.774498733
90,228109,1745700,0.973,-0.061,0.193,0.7,-1.8,-2.5,-5.2,27,-15,0.0836512345,-0.626300851,-0.0296639912,-0.774468215
91,230506,1745700,0.973,-0.065,0.197,0.7,-1.8,-2.3,-5.2,27,-15,0.0835901975,-0.62633137,-0.0297555467,-0.774468215
92,234914,1745700,0.969,-0.061,0.197,0.7,-1.8,-2.3,-5.2,27,-15,0.0835901975,-0.626361888,-0.0297860652,-0.774407178
93,237175,1745700,0.973,-0.061,0.201,0.6,-1.8,-2.3,-5.2,27,-15,0.0835596789,-0.626392407,-0.0298471023,-0.774407178
94,239423,1745710,0.973,-0.061,0.205,0.5,-1.8,-2.2,-5.2,27,-16,0.0835291604,-0.626422926,-0.0298776208,-0.774407178
95,241429,1745710,0.973,-0.061,0.205,0.4,-1.7,-2.1,-5.2,27,-16,0.0834986419,-0.626453444,-0.0299081393,-0.774376659
96,243757,1745710,0.977,-0.069,0.201,0.3,-1.7,-2.2,-5.2,27,-16,0.0834376049,-0.626483963,-0.0299691763,-0.774346141
97,245932,1745710,0.973,-0.069,0.205,0.2,-1.6,-2.2,-5.2,27,-16,0.0834070864,-0.626514481,-0.0299996948,-0.774346141
98,248383,1745720,0.973,-0.069,0.209,0.2,-1.5,-2.1,-5.5,27.1,-16.1,0.0833765679,-0.626514481,-0.0300302133,-0.774315622
99,250697,1745720,0.969,-0.077,0.201,0.1,-1.3,-2.1,-5.5,27.1,-16.1,0.0833460494,-0.626545,-0.0300302133,-0.774315622
100,252996,1745720,0.969,-0.077,0.201,-0.1,-1.1,-2,-5.5,27.1,-16.1,0.0833155309,-0.626575518,-0.0300912503,-0.774285104
101,257508,1745720,0.973,-0.073,0.201,-0.4,-1,-1.9,-5.5,27.1,-16.1,0.0832850124,-0.626575518,-0.0301217689,-0.774285104
102,259703,1745730,0.973,-0.081,0.205,-0.5,-1,-1.8,-5.5,26.9,-16.2,0.0832239753,-0.626606037,-0.0301522874,-0.774254585
103,262050,1745730,0.973,-0.081,0.193,-0.6,-1.2,-1.8,-5.5,26.9,-16.2,0.0831934568,-0.626606037,-0.0301522874,-0.774254585
104,263886,1745730,0.965,-0.08,0.201,-0.7,-1.2,-1.8,-5.5,26.9,-16.2,0.0831019013,-0.626636555,-0.0301522874,-0.774254585
105,266109,1745730,0.965,-0.08,0.205,-0.8,-1.2,-1.9,-5.5,26.9,-16.2,0.0831019013,-0.626667074,-0.0301522874,-0.774224067
106,268427,1745740,0.965,-0.08,0.205,-0.8,-1.2,-1.9,-5.5,26.9,-16.2,0.0831019013,-0.626667074,-0.0301522874,-0.774224067
107,270901,1745740,0.969,-0.077,0.205,-0.6,-1.3,-1.8,-5.8,27,-14.9,0.0832850124,-0.626850185,-0.0298776208,-0.774071474
108,273250,1745740,0.969,-0.08,0.205,-0.6,-1.4,-1.9,-5.8,27,-14.9,0.0832239753,-0.626880703,-0.0299081393,-0.774040956
109,275494,1745740,0.965,-0.08,0.205,-0.6,-1.4,-2,-5.8,27,-14.9,0.0831934568,-0.626911222,-0.0299081393,-0.774040956
110,279928,1745750,0.973,-0.081,0.205,-0.6,-1.5,-2.1,-5.3,27,-16.4,0.0831629383,-0.62694174,-0.0299081393,-0.774010437
111,282220,1745750,0.965,-0.077,0.197,-0.5,-1.7,-2,-5.3,27,-16.4,0.0831019013,-0.626972259,-0.0299691763,-0.773979919
112,284411,1745750,0.973,-0.077,0.205,-0.3,-1.8,-1.9,-5.3,27,-16.4,0.0830713828,-0.627002777,-0.0299996948,-0.773979919
113,286330,1745750,0.973,-0.077,0.209,0,-1.8,-1.8,-5.3,27,-16.4,0.0830408643,-0.627033296,-0.0299996948,-0.7739494
114,288623,1745760,0.973,-0.065,0.213,0.1,-1.8,-2,-5.4,26.5,-16.3,0.0830103458,-0.627063814,-0.0300302133,-0.773918882
115,290901,1745760,0.977,-0.069,0.205,0.2,-1.8,-2,-5.4,26.5,-16.3,0.0829798273,-0.627094333,-0.0300912503,-0.773918882
116,293412,1745760,0.969,-0.065,0.209,0.3,-1.9,-2,-5.4,26.5,-16.3,0.0829493088,-0.627124851,-0.0301217689,-0.773888363
117,295752,1745760,0.977,-0.065,0.205,0.5,-1.8,-2,-5.4,26.5,-16.3,0.0829187902,-0.62715537,-0.0301522874,-0.773857845
118,297947,1745770,0.973,-0.065,0.205,0.5,-1.8,-1.9,-5.5,26.3,-16.4,0.0828882717,-0.627185888,-0.0302133244,-0.773827326
119,302394,1745770,0.969,-0.061,0.209,0.7,-1.8,-1.7,-5.5,26.3,-16.4,0.0828577532,-0.627216407,-0.0302438429,-0.773827326
120,304662,1745770,0.977,-0.065,0.205,0.7,-1.7,-1.6,-5.5,26.3,-16.4,0.0828272347,-0.627216407,-0.0302743614,-0.773796808
121,306834,1745770,0.973,-0.057,0.205,0.9,-1.6,-1.5,-5.5,26.3,-16.4,0.0828272347,-0.627246925,-0.0302743614,-0.773766289
122,308964,1745780,0.973,-0.061,0.201,1,-1.3,-1.5,-5.5,25.8,-16.2,0.0828272347,-0.627277444,-0.0303659169,-0.773766289
123,311115,1745780,0.973,-0.057,0.197,1,-1.3,-1.5,-5.5,25.8,-16.2,0.0827967162,-0.627307962,-0.0303964354,-0.773735771
124,313440,1745780,0.981,-0.053,0.201,1,-1.2,-1.4,-5.5,25.8,-16.2,0.0827967162,-0.627307962,-0.0303964354,-0.773735771
125,315957,1745780,0.981,-0.053,0.197,1,-1.2,-1.3,-5.5,25.8,-16.2,0.0827661977,-0.627338481,-0.030487991,-0.773705252
126,318188,1745790,0.981,-0.053,0.197,1,-1.2,-1.3,-5.5,25.8,-16.2,0.0827661977,-0.627338481,-0.030487991,-0.773705252
127,322758,1745790,0.977,-0.053,0.205,0.6,-1.3,-1.2,-5.5,28.2,-14.6,0.0827661977,-0.627521592,-0.0305185095,-0.77355266
128,323042,1745790,0.981,-0.057,0.201,0.4,-1.4,-1.2,-5.5,28.2,-14.6,0.0827356792,-0.62755211,-0.0305185095,-0.77355266
129,327143,1745790,0.977,-0.053,0.201,0.1,-1.5,-1.1,-5.5,28.2,-14.6,0.0827356792,-0.62755211,-0.0305795465,-0.773522141
130,329465,1745800,0.981,-0.053,0.205,0,-1.5,-1.1,-5.6,26.7,-16.7,0.0827051607,-0.627582629,-0.0305795465,-0.773491623
131,331456,1745800,0.977,-0.053,0.205,0,-1.5,-1,-5.6,26.7,-16.7,0.0827051607,-0.627613147,-0.030610065,-0.773491623
132,333641,1745800,0.977,-0.049,0.205,-0.1,-1.5,-0.9,-5.6,26.7,-16.7,0.0826746422,-0.627643666,-0.030610065,-0.773461104
133,335942,1745800,0.989,-0.053,0.205,-0.3,-1.5,-0.8,-5.6,26.7,-16.7,0.0826136052,-0.627674184,-0.0306405835,-0.773430586
134,337996,1745810,0.977,-0.053,0.209,-0.4,-1.5,-0.8,-5.5,26.8,-16.9,0.0826136052,-0.627704703,-0.0306405835,-0.773430586
135,342464,1745810,0.981,-0.057,0.209,-0.6,-1.5,-0.7,-5.5,26.8,-16.9,0.0826136052,-0.627735221,-0.0306405835,-0.773400067
136,344729,1745810,0.973,-0.053,0.209,-0.7,-1.3,-0.7,-5.5,26.8,-16.9,0.0825830866,-0.627735221,-0.0306405835,-0.773400067
137,346925,1745810,0.981,-0.053,0.205,-0.9,-1,-0.7,-5.5,26.8,-16.9,0.0825525681,-0.62776574,-0.0306405835,-0.773369549
138,348864,1745820,0.981,-0.057,0.209,-1.1,-0.9,-0.7,-5.3,27.1,-16.4,0.0825220496,-0.627796258,-0.030610065,-0.773369549
139,351018,1745820,0.977,-0.057,0.205,-1.3,-0.9,-0.6,-5.3,27.1,-16.4,0.0824915311,-0.627796258,-0.030610065,-0.773369549
140,353596,1745820,0.973,-0.057,0.205,-1.4,-0.9,-0.6,-5.3,27.1,-16.4,0.0824610126,-0.627826777,-0.030610065,-0.77333903
141,356221,1745820,0.977,-0.061,0.209,-1.6,-0.8,-0.7,-5.3,27.1,-16.4,0.0824304941,-0.627826777,-0.0305795465,-0.77333903
142,358539,1745830,0.973,-0.053,0.201,-1.7,-0.6,-0.8,-5.2,27.5,-16.9,0.0823999756,-0.627857295,-0.0305185095,-0.77333903
143,361252,1745830,0.973,-0.057,0.201,-1.8,-0.4,-0.7,-5.2,27.5,-16.9,0.0823389386,-0.627857295,-0.0305185095,-0.77333903
144,364429,1745830,0.973,-0.061,0.205,-1.7,-0.1,-0.8,-5.2,27.5,-16.9,0.0823084201,-0.627857295,-0.0305185095,-0.77333903
145,366428,1745830,0.977,-0.057,0.205,-1.5,0,-0.7,-5.2,27.5,-16.9,0.0822779015,-0.627857295,-0.0305185095,-0.77333903
146,368518,1745840,0.977,-0.057,0.205,-1.5,0,-0.7,-5.2,27.5,-16.9,0.0822779015,-0.627857295,-0.0305185095,-0.77333903
147,371188,1745840,0.973,-0.061,0.209,-1.1,0,-0.9,-5.7,27.5,-15.6,0.082247383,-0.627948851,-0.0304574725,-0.773277993
148,373564,1745840,0.973,-0.057,0.205,-1.1,-0.1,-1.1,-5.7,27.5,-15.6,0.0822168645,-0.627948851,-0.0303964354,-0.773277993
149,375735,1745840,0.977,-0.057,0.205,-0.9,-0.3,-1.2,-5.7,27.5,-15.6,0.082186346,-0.627948851,-0.0304574725,-0.773277993
150,378309,1745850,0.981,-0.053,0.209,-0.9,-0.3,-1.3,-5.6,26.7,-15.3,0.082125309,-0.627979369,-0.0304574725,-0.773277993
151,380467,1745850,0.977,-0.057,0.209,-0.8,-0.4,-1.3,-5.6,26.7,-15.3,0.0820947905,-0.627979369,-0.0304574725,-0.773247475
152,384761,1745850,0.977,-0.057,0.213,-0.8,-0.6,-1.4,-5.6,26.7,-15.3,0.082064272,-0.627979369,-0.0304574725,-0.773247475
153,387031,1745850,0.981,-0.057,0.209,-0.8,-0.7,-1.3,-5.6,26.7,-15.3,0.0820337535,-0.628009888,-0.0304574725,-0.773247475
154,388725,1745860,0.985,-0.046,0.201,-0.7,-0.9,-1.3,-5,27.4,-15.4,0.082003235,-0.628009888,-0.030487991,-0.773247475
155,390786,1745860,0.985,-0.046,0.209,-0.7,-0.9,-1.3,-5,27.4,-15.4,0.0819727165,-0.628040407,-0.030487991,-0.773216956
156,393283,1745860,0.985,-0.042,0.209,-0.8,-0.9,-1.4,-5,27.4,-15.4,0.0819421979,-0.628040407,-0.030487991,-0.773216956
157,395600,1745860,0.981,-0.046,0.205,-0.9,-0.8,-1.4,-5,27.4,-15.4,0.0818811609,-0.628070925,-0.030487991,-0.773216956
158,399809,1745870,0.989,-0.038,0.205,-1.1,-0.7,-1.5,-5.5,27.3,-15.5,0.0818506424,-0.628070925,-0.030487991,-0.773216956
159,401783,1745870,0.985,-0.038,0.205,-1.2,-0.6,-1.5,-5.5,27.3,-15.5,0.0818201239,-0.628101444,-0.030487991,-0.773186438
160,403763,1745870,0.985,-0.034,0.205,-1.3,-0.6,-1.5,-5.5,27.3,-15.5,0.0817590869,-0.628101444,-0.030487991,-0.773186438
161,406103,1745870,0.989,-0.034,0.208,-1.4,-0.7,-1.5,-5.5,27.3,-15.5,0.0817285684,-0.628131962,-0.030487991,-0.773186438
162,407993,1745880,0.993,-0.03,0.204,-1.6,-0.8,-1.5,-5.3,28,-15.7,0.0816370128,-0.628131962,-0.030487991,-0.773186438
163,410565,1745880,0.993,-0.026,0.204,-1.9,-1.1,-1.5,-5.3,28,-15.7,0.0816064943,-0.628162481,-0.030487991,-0.773155919
164,414886,1745880,0.989,-0.026,0.201,-2.2,-1.2,-1.5,-5.3,28,-15.7,0.0815454573,-0.628192999,-0.0304574725,-0.773155919
165,417112,1745880,0.985,-0.026,0.197,-2.6,-1.3,-1.4,-5.3,28,-15.7,0.0814844203,-0.628192999,-0.0303964354,-0.773125401
166,419216,1745890,0.985,-0.026,0.197,-2.6,-1.3,-1.4,-5.3,28,-15.7,0.0814844203,-0.628192999,-0.0303964354,-0.773125401
167,421320,1745890,0.985,-0.026,0.205,-3.3,-1.4,-1.3,-5.5,26.6,-15.8,0.0812097537,-0.628345592,-0.0305795465,-0.773064364
168,423582,1745890,0.985,-0.026,0.201,-3.6,-1.4,-1.3,-5.5,26.6,-15.8,0.0811181982,-0.628345592,-0.0305185095,-0.773033845
169,425800,1745890,0.989,-0.026,0.201,-4,-1.2,-1.3,-5.5,26.6,-15.8,0.0810266427,-0.62837611,-0.030487991,-0.773033845
170,428386,1745900,0.981,-0.026,0.201,-4.4,-1.2,-1.2,-5.8,27.3,-15.3,0.0809656056,-0.628406629,-0.0303964354,-0.773033845
171,432120,1745900,0.985,-0.03,0.201,-4.7,-1.1,-1.2,-5.8,27.3,-15.3,0.0808740501,-0.628437147,-0.0303659169,-0.773003327
172,434415,1745900,0.981,-0.03,0.197,-4.8,-1.1,-1.2,-5.8,27.3,-15.3,0.0807824946,-0.628467666,-0.0302743614,-0.773003327
173,436409,1745900,0.977,-0.03,0.201,-5,-1.1,-1.2,-5.8,27.3,-15.3,0.0806604205,-0.628498184,-0.0302438429,-0.773003327
174,438645,1745910,0.977,-0.03,0.197,-5.2,-1,-1.2,-6.4,27.9,-15.5,0.0805993835,-0.628528703,-0.0301522874,-0.772972808
175,440599,1745910,0.981,-0.038,0.193,-5.4,-0.8,-1.2,-6.4,27.9,-15.5,0.080507828,-0.628559221,-0.0300912503,-0.772972808
176,445135,1745910,0.973,-0.042,0.189,-5.5,-0.7,-1.2,-6.4,27.9,-15.5,0.0804162725,-0.628559221,-0.0300302133,-0.772972808
177,447266,1745910,0.969,-0.053,0.189,-5.7,-0.5,-1.1,-6.4,27.9,-15.5,0.0802941984,-0.62858974,-0.0299081393,-0.772972808
178,449355,1745920,0.973,-0.049,0.193,-5.8,-0.5,-1,-6.5,27.9,-15.4,0.0801721244,-0.62858974,-0.0298776208,-0.772972808
179,451115,1745920,0.969,-0.053,0.189,-5.9,-0.4,-1,-6.5,27.9,-15.4,0.0801110874,-0.628620258,-0.0297860652,-0.772972808
180,453163,1745920,0.973,-0.049,0.189,-5.9,-0.3,-1.1,-6.5,27.9,-15.4,0.0800195318,-0.628650777,-0.0296639912,-0.772972808
181,455653,1745920,0.969,-0.053,0.185,-6,-0.3,-1.1,-6.5,27.9,-15.4,0.0798974578,-0.628650777,-0.0296029542,-0.772972808
182,457992,1745930,0.965,-0.053,0.193,-5.9,-0.2,-1.1,-6.9,28,-15.9,0.0798059023,-0.628681295,-0.0295113987,-0.772972808
183,462024,1745930,0.969,-0.061,0.193,-5.9,-0.2,-1.3,-6.9,28,-15.9,0.0796838282,-0.628681295,-0.0294198431,-0.772972808
184,463652,1745930,0.969,-0.061,0.189,-5.9,-0.3,-1.5,-6.9,28,-15.9,0.0795922727,-0.628711814,-0.0293588061,-0.772972808
185,465961,1745930,0.969,-0.057,0.197,-5.8,-0.5,-1.6,-6.9,28,-15.9,0.0794701987,-0.628711814,-0.0292977691,-0.772972808
186,468378,1745940,0.969,-0.057,0.197,-5.8,-0.5,-1.6,-6.9,28,-15.9,0.0794701987,-0.628711814,-0.0292977691,-0.772972808
187,470666,1745940,0.973,-0.057,0.197,-5.5,-0.6,-1.6,-4.9,26.3,-15.6,0.0793176061,-0.628833888,-0.029053621,-0.772911771
188,474781,1745940,0.973,-0.057,0.197,-5.5,-0.6,-1.7,-4.9,26.3,-15.6,0.0791955321,-0.628864406,-0.0290231025,-0.772911771
189,477064,1745940,0.969,-0.061,0.201,-5.4,-0.5,-1.7,-4.9,26.3,-15.6,0.0791039766,-0.628864406,-0.028931547,-0.772911771
190,479451,1745950,0.969,-0.053,0.201,-5.5,-0.3,-1.7,-6.8,27.7,-15.7,0.0789819025,-0.628894925,-0.0289010285,-0.772911771
191,481109,1745950,0.973,-0.057,0.193,-5.5,-0.1,-1.6,-6.8,27.7,-15.7,0.078890347,-0.628894925,-0.0288094729,-0.772911771
192,483562,1745950,0.969,-0.053,0.197,-5.5,-0.2,-1.6,-6.8,27.7,-15.7,0.0787987915,-0.628894925,-0.0287484359,-0.772911771
193,485670,1745950,0.969,-0.053,0.197,-5.5,-0.2,-1.6,-6.8,27.7,-15.7,0.0786767174,-0.628925443,-0.0286873989,-0.772911771
194,489770,1745960,0.969,-0.053,0.201,-5.5,-0.3,-1.6,-6.6,27.5,-15.6,0.0785851619,-0.628925443,-0.0285653249,-0.772911771
195,491334,1745960,0.969,-0.049,0.193,-5.7,-0.3,-1.7,-6.6,27.5,-15.6,0.0784630879,-0.628955962,-0.0285348064,-0.772911771
196,494165,1745960,0.973,-0.045,0.193,-5.9,-0.3,-1.8,-6.6,27.5,-15.6,0.0783410138,-0.628955962,-0.0284432508,-0.772911771
197,495545,1745960,0.973,-0.038,0.193,-6,-0.3,-1.8,-6.6,27.5,-15.6,0.0782189398,-0.62898648,-0.0283822138,-0.772911771
198,498417,1745970,0.969,-0.041,0.193,-6.2,-0.3,-1.7,-6.7,27.5,-15.5,0.0781273843,-0.62898648,-0.0282906583,-0.772911771
199,501558,1745970,0.973,-0.042,0.193,-6.3,-0.3,-1.5,-6.7,27.5,-15.5,0.0780053102,-0.629016999,-0.0281991028,-0.772911771
200,503081,1745970,0.977,-0.038,0.193,-6.4,-0.3,-1.6,-6.7,27.5,-15.5,0.0778832362,-0.629016999,-0.0281380657,-0.772942289
201,505620,1745970,0.977,-0.034,0.189,-6.4,-0.3,-1.7,-6.7,27.5,-15.5,0.0777916807,-0.629047517,-0.0280465102,-0.772942289
202,509307,1745980,0.981,-0.042,0.189,-6.5,-0.3,-1.8,-6.2,27.7,-15.4,0.0776696066,-0.629047517,-0.0279549547,-0.772942289
203,511286,1745980,0.981,-0.038,0.181,-6.5,-0.3,-1.8,-6.2,27.7,-15.4,0.0775475326,-0.629078036,-0.0278328806,-0.772942289
204,513628,1745980,0.985,-0.038,0.189,-6.6,-0.1,-1.8,-6.2,27.7,-15.4,0.0774254585,-0.629078036,-0.0278023621,-0.772942289
205,515842,1745980,0.985,-0.042,0.185,-6.6,0,-1.7,-6.2,27.7,-15.4,0.0773033845,-0.629108554,-0.0277108066,-0.772942289
206,518231,1745990,0.985,-0.042,0.185,-6.6,0,-1.7,-6.2,27.7,-15.4,0.0773033845,-0.629108554,-0.0277108066,-0.772942289
207,520479,1745990,0.993,-0.038,0.177,-6.7,0.6,-1.8,-5.3,27.2,-15.7,0.0769371624,-0.629291665,-0.0276497696,-0.772820215
208,525041,1745990,0.993,-0.046,0.177,-6.9,0.9,-1.8,-5.3,27.2,-15.7,0.0768150884,-0.629291665,-0.0275582141,-0.772850734
209,527253,1745990,0.993,-0.042,0.181,-7,1.1,-1.7,-5.3,27.2,-15.7,0.0766930143,-0.629291665,-0.02743614,-0.772850734
210,529571,1746000,1,-0.05,0.177,-7.2,1.1,-1.5,-6.5,27.1,-15.4,0.0765709403,-0.629291665,-0.0273445845,-0.772881252
211,531405,1746000,0.997,-0.05,0.181,-7.3,1.1,-1.3,-6.5,27.1,-15.4,0.0764488662,-0.629261147,-0.0272225105,-0.772911771
212,533849,1746000,0.997,-0.054,0.177,-7.6,1,-1.3,-6.5,27.1,-15.4,0.0763267922,-0.629261147,-0.0271004364,-0.772942289
213,536053,1746000,0.997,-0.05,0.185,-8,0.8,-1.1,-6.5,27.1,-15.4,0.0761741997,-0.629261147,-0.0269783624,-0.772942289
214,538701,1746010,0.997,-0.05,0.181,-8.4,0.6,-1,-5.6,27.1,-15.4,0.0760521256,-0.629261147,-0.0268562883,-0.772972808
215,540969,1746010,0.997,-0.046,0.181,-8.8,0.5,-0.9,-5.6,27.1,-15.4,0.0759300516,-0.629261147,-0.0267342143,-0.772972808
216,544935,1746010,0.993,-0.05,0.185,-9.2,0.3,-0.8,-5.6,27.1,-15.4,0.075777459,-0.629291665,-0.0265816218,-0.773003327
217,547195,1746010,0.993,-0.05,0.185,-9.5,0.2,-0.6,-5.6,27.1,-15.4,0.0756248665,-0.629291665,-0.0264290292,-0.773003327
218,549548,1746020,0.989,-0.05,0.189,-9.8,0,-0.5,-5.4,27.3,-15.5,0.0755027924,-0.629291665,-0.0262459181,-0.773003327
219,551817,1746020,0.993,-0.054,0.185,-10.1,-0.1,-0.5,-5.4,27.3,-15.5,0.0753501999,-0.629322184,-0.0261238441,-0.773003327
220,553764,1746020,0.985,-0.046,0.185,-10.4,-0.2,-0.5,-5.4,27.3,-15.5,0.0751976073,-0.629352702,-0.0259407331,-0.773003327
221,556098,1746020,0.993,-0.046,0.185,-10.6,-0.3,-0.3,-5.4,27.3,-15.5,0.0750450148,-0.629383221,-0.025757622,-0.773003327
222,558241,1746030,0.985,-0.046,0.189,-10.7,-0.2,-0.2,-5.1,27.1,-14.8,0.0748924223,-0.629383221,-0.0256050295,-0.773033845
223,562239,1746030,0.981,-0.05,0.185,-10.7,0,-0.2,-5.1,27.1,-14.8,0.0747398297,-0.629413739,-0.0253913999,-0.773033845
224,564595,1746030,0.981,-0.049,0.189,-10.6,0.2,-0.2,-5.1,27.1,-14.8,0.0745872372,-0.629413739,-0.0252388073,-0.773033845
225,566770,1746030,0.977,-0.049,0.181,-10.4,0.3,-0.3,-5.1,27.1,-14.8,0.0744346446,-0.629444258,-0.0250251778,-0.773033845
226,568766,1746040,0.977,-0.049,0.181,-10.4,0.3,-0.3,-5.1,27.1,-14.8,0.0744346446,-0.629444258,-0.0250251778,-0.773033845
227,570967,1746040,0.973,-0.053,0.181,-10.1,0.3,-0.5,-5.9,27.2,-15.1,0.074098941,-0.629627369,-0.0247505112,-0.772942289
228,574944,1746040,0.977,-0.057,0.177,-9.8,0.5,-0.5,-5.9,27.2,-15.1,0.073976867,-0.629627369,-0.0245979186,-0.772942289
229,577055,1746040,0.973,-0.053,0.174,-9.7,0.8,-0.6,-5.9,27.2,-15.1,0.0738242744,-0.629627369,-0.0244148076,-0.772972808
230,578550,1746050,0.973,-0.061,0.177,-9.5,1.2,-0.7,-5.4,27.2,-15,0.0736716819,-0.629627369,-0.0242927335,-0.773003327
231,581599,1746050,0.969,-0.057,0.17,-9.3,1.4,-0.7,-5.4,27.2,-15,0.0735190893,-0.62959685,-0.024140141,-0.773033845
232,583087,1746050,0.977,-0.053,0.173,-9.2,1.6,-0.7,-5.4,27.2,-15,0.0733970153,-0.62959685,-0.0239875484,-0.773064364
233,586953,1746050,0.973,-0.057,0.174,-9,1.5,-0.7,-5.4,27.2,-15,0.0732444227,-0.629566332,-0.0238044374,-0.773064364
234,589110,1746060,0.977,-0.057,0.173,-9,1.5,-0.7,-5.4,27.1,-14.9,0.0731223487,-0.629566332,-0.0236823634,-0.773094882
235,590624,1746060,0.973,-0.053,0.174,-9,1.4,-0.8,-5.4,27.1,-14.9,0.0729697562,-0.629566332,-0.0235602893,-0.773125401
236,594404,1746060,0.973,-0.049,0.174,-9.1,1.2,-0.9,-5.4,27.1,-14.9,0.0728476821,-0.629535813,-0.0234076968,-0.773155919
237,596741,1746060,0.981,-0.05,0.173,-9.1,0.9,-0.9,-5.4,27.1,-14.9,0.0726950896,-0.629535813,-0.0232856227,-0.773186438
238,598825,1746070,0.977,-0.046,0.177,-9.2,0.7,-0.8,-5.4,27.4,-15.2,0.0725730155,-0.629535813,-0.0231330302,-0.773186438
239,600996,1746070,0.981,-0.05,0.177,-9.4,0.6,-0.7,-5.4,27.4,-15.2,0.072420423,-0.629566332,-0.0229499191,-0.773216956
240,605132,1746070,0.981,-0.05,0.169,-9.7,0.5,-0.5,-5.4,27.4,-15.2,0.0722678304,-0.629566332,-0.0228278451,-0.773216956
241,607419,1746070,0.989,-0.042,0.169,-9.9,0.5,-0.5,-5.4,27.4,-15.2,0.0721152379,-0.629566332,-0.022644734,-0.773216956
242,609650,1746080,0.997,-0.046,0.173,-10.2,0.2,-0.5,-5.6,26.8,-14.8,0.0719931639,-0.629566332,-0.022461623,-0.773247475
243,612016,1746080,0.993,-0.046,0.177,-10.6,0,-0.4,-5.6,26.8,-14.8,0.0718405713,-0.62959685,-0.0223090304,-0.773247475
244,613843,1746080,0.993,-0.046,0.177,-10.9,-0.3,-0.2,-5.6,26.8,-14.8,0.0716574602,-0.629627369,-0.0220954009,-0.773247475
245,616042,1746080,0.997,-0.038,0.169,-11.3,-0.6,0,-5.6,26.8,-14.8,0.0715048677,-0.629657888,-0.0219428083,-0.773247475
246,618371,1746090,0.997,-0.038,0.169,-11.3,-0.6,0,-5.6,26.8,-14.8,0.0715048677,-0.629657888,-0.0219428083,-0.773247475
247,620893,1746090,1.001,-0.038,0.181,-12,-0.9,0.4,-5.6,26.8,-14.8,0.0711386456,-0.629963073,-0.0216071047,-0.773033845
248,623212,1746090,1.004,-0.034,0.173,-12.4,-0.8,0.5,-5.6,26.8,-14.8,0.070986053,-0.629993591,-0.0213629566,-0.773033845
249,625520,1746090,1.004,-0.034,0.173,-12.7,-0.8,0.6,-5.6,26.8,-14.8,0.070802942,-0.63002411,-0.0211798456,-0.773033845
250,628101,1746100,1.004,-0.034,0.177,-12.9,-0.7,0.8,-4.7,27.7,-15,0.0706503494,-0.630054628,-0.0209356975,-0.773033845
251,630750,1746100,1.004,-0.038,0.173,-13.2,-0.6,0.9,-4.7,27.7,-15,0.0704672384,-0.630085147,-0.0206915494,-0.773003327
252,635161,1746100,1.001,-0.042,0.181,-13.3,-0.5,1,-4.7,27.7,-15,0.0703146458,-0.630115665,-0.0204474013,-0.773003327
253,637472,1746100,0.997,-0.042,0.169,-13.5,-0.3,1.1,-4.7,27.7,-15,0.0701620533,-0.630146184,-0.0202032533,-0.773003327
254,640251,1746110,1,-0.042,0.173,-13.7,-0.1,1.1,-4.5,28.1,-15,0.0699789422,-0.630176702,-0.0199591052,-0.773003327
255,640610,1746110,0.993,-0.042,0.173,-13.8,0,1.2,-4.5,28.1,-15,0.0697958312,-0.630176702,-0.0197149571,-0.773033845
256,645297,1746110,0.989,-0.038,0.169,-13.9,0.2,1.2,-4.5,28.1,-15,0.0696432386,-0.630207221,-0.019470809,-0.773033845
257,645550,1746110,0.989,-0.042,0.169,-14,0.3,1.2,-4.5,28.1,-15,0.0694296091,-0.630207221,-0.019226661,-0.773033845
258,648857,1746120,0.985,-0.05,0.165,-13.9,0.5,1.2,-4.1,27.7,-15.3,0.069307535,-0.630237739,-0.0189214759,-0.773033845
259,650979,1746120,0.985,-0.042,0.165,-13.7,0.6,1.1,-4.1,27.7,-15.3,0.069124424,-0.630237739,-0.0186773278,-0.773064364
260,655215,1746120,0.985,-0.042,0.165,-13.5,0.8,0.9,-4.1,27.7,-15.3,0.0689413129,-0.630237739,-0.0184331797,-0.773064364
261,657467,1746120,0.985,-0.046,0.162,-13.3,1,0.8,-4.1,27.7,-15.3,0.0687887204,-0.630237739,-0.0181890316,-0.773094882
262,658231,1746130,0.985,-0.054,0.158,-13.2,1.2,0.7,-4.4,27.8,-14.6,0.0686056093,-0.630237739,-0.0180059206,-0.773125401
263,660644,1746130,0.985,-0.05,0.165,-13.3,1.5,0.5,-4.4,27.8,-14.6,0.0684530168,-0.630237739,-0.0177617725,-0.773155919
264,665224,1746130,0.989,-0.05,0.161,-13.4,1.7,0.1,-4.4,27.8,-14.6,0.0682699057,-0.630237739,-0.0175176244,-0.773186438
265,665643,1746130,0.985,-0.05,0.158,-13.5,2,-0.1,-4.4,27.8,-14.6,0.0680867946,-0.630207221,-0.0173039949,-0.773216956
266,668058,1746140,0.985,-0.05,0.158,-13.5,2,-0.1,-4.4,27.8,-14.6,0.0680867946,-0.630207221,-0.0173039949,-0.773216956
267,670512,1746140,0.985,-0.058,0.162,-13.9,2.4,-0.7,-4.4,27.8,-14.6,0.067629017,-0.630481887,-0.0168462172,-0.773033845
268,674559,1746140,0.981,-0.065,0.166,-14.2,2.4,-0.8,-4.4,27.8,-14.6,0.0674153874,-0.630451369,-0.0166020692,-0.773064364
269,676924,1746140,0.989,-0.061,0.165,-14.6,2.3,-0.9,-4.4,27.8,-14.6,0.0672017579,-0.630451369,-0.0163579211,-0.773125401
270,678774,1746150,0.989,-0.065,0.165,-15,2.2,-1.1,-5.4,27.6,-14.8,0.0669881283,-0.63042085,-0.01617481,-0.773155919
271,680854,1746150,0.989,-0.065,0.165,-15.5,2.1,-1.2,-5.4,27.6,-14.8,0.0667439802,-0.63042085,-0.0159306619,-0.773186438
272,683042,1746150,0.989,-0.069,0.165,-15.9,1.9,-1.4,-5.4,27.6,-14.8,0.0664998321,-0.630390332,-0.0156254769,-0.773216956
273,685894,1746150,0.989,-0.069,0.169,-16.6,1.5,-1.7,-5.4,27.6,-14.8,0.0662556841,-0.630390332,-0.0154118473,-0.773247475
274,688041,1746160,1,-0.081,0.173,-17.3,1,-2,-5.5,27.3,-14.7,0.0659810175,-0.63042085,-0.0151371807,-0.773277993
275,690539,1746160,0.996,-0.081,0.169,-18,0.4,-2.3,-5.5,27.3,-14.7,0.0656758324,-0.63042085,-0.0148625141,-0.773308512
276,694734,1746160,0.996,-0.077,0.165,-18.6,0,-2.4,-5.5,27.3,-14.7,0.0654011658,-0.630451369,-0.0145878475,-0.773308512
277,697127,1746160,0.996,-0.073,0.173,-19,-0.2,-2.3,-5.5,27.3,-14.7,0.0650959807,-0.630481887,-0.0142826624,-0.773308512
278,699548,1746170,0.993,-0.077,0.177,-19.2,-0.5,-2.3,-5.1,27.8,-14.7,0.0647907956,-0.630512406,-0.0140079958,-0.773308512
279,701205,1746170,1,-0.077,0.177,-19.2,-0.9,-2.3,-5.1,27.8,-14.7,0.0644856105,-0.630573443,-0.0137028108,-0.773308512
280,703402,1746170,0.993,-0.073,0.177,-19.3,-1.4,-2.4,-5.1,27.8,-14.7,0.0641804254,-0.630603961,-0.0134281442,-0.773308512
281,705788,1746170,0.993,-0.073,0.185,-19.4,-1.9,-2.7,-5.1,27.8,-14.7,0.0638447218,-0.630664998,-0.0131229591,-0.773277993
282,708110,1746180,0.989,-0.069,0.185,-19.5,-2.5,-2.9,-5.5,27.6,-14.8,0.0635395367,-0.630726035,-0.0128482925,-0.773247475
283,710816,1746180,0.989,-0.069,0.193,-19.6,-3.1,-3.2,-5.5,27.6,-14.8,0.0632038331,-0.630817591,-0.0125736259,-0.773216956
284,713384,1746180,0.985,-0.069,0.193,-19.7,-3.7,-3.3,-5.5,27.6,-14.8,0.0628681295,-0.630909146,-0.0122989593,-0.773186438
285,715558,1746180,0.977,-0.065,0.197,-19.8,-4.2,-3.4,-5.5,27.6,-14.8,0.0625324259,-0.631000702,-0.0119937742,-0.773125401
286,720111,1746190,0.977,-0.065,0.197,-19.8,-4.2,-3.4,-5.5,27.6,-14.8,0.0625324259,-0.631000702,-0.0119937742,-0.773125401
287,720652,1746190,0.969,-0.061,0.193,-19.7,-4.8,-3.4,-5.5,27.6,-14.8,0.0619525742,-0.631305887,-0.0113528855,-0.772942289
288,723154,1746190,0.961,-0.057,0.189,-19.4,-5.1,-3.3,-5.5,27.6,-14.8,0.0616168706,-0.631427961,-0.0110782189,-0.772881252
289,727604,1746190,0.958,-0.057,0.189,-18.9,-5.4,-3.2,-5.5,27.6,-14.8,0.0613116855,-0.631550035,-0.0108035524,-0.772820215
290,728021,1746200,0.954,-0.053,0.193,-18.5,-5.6,-3.3,-5.9,27.2,-13.9,0.0610065004,-0.631672109,-0.0105594043,-0.77272866
291,730597,1746200,0.95,-0.049,0.194,-18.2,-5.5,-3.2,-5.9,27.2,-13.9,0.0606707968,-0.631794183,-0.0102847377,-0.772667623
292,734881,1746200,0.942,-0.049,0.186,-17.9,-5.2,-3.1,-5.9,27.2,-13.9,0.0603961303,-0.631885739,-0.0100405896,-0.772606586
293,737218,1746200,0.938,-0.053,0.182,-17.6,-4.8,-3.1,-5.9,27.2,-13.9,0.0600909452,-0.632007813,-0.00979644154,-0.772545549
294,739058,1746210,0.934,-0.049,0.186,-17.5,-4.4,-3.1,-6,27.4,-12.9,0.0597857601,-0.632099368,-0.00955229347,-0.772484512
295,741232,1746210,0.93,-0.053,0.182,-17.2,-4.2,-3.2,-6,27.4,-12.9,0.0595110935,-0.632190924,-0.00930814539,-0.772453993
296,743611,1746210,0.918,-0.048,0.182,-16.8,-3.9,-3.3,-6,27.4,-12.9,0.0592059084,-0.632282479,-0.00909451582,-0.772392956
297,745873,1746210,0.915,-0.045,0.175,-16.4,-3.5,-3.3,-6,27.4,-12.9,0.0589312418,-0.632343516,-0.00885036775,-0.772362438
298,748446,1746220,0.915,-0.048,0.175,-16.1,-3,-3.3,-6.2,27.9,-12.4,0.0586260567,-0.632435072,-0.00863673818,-0.772331919
299,751147,1746220,0.907,-0.052,0.175,-15.8,-2.5,-3.3,-6.2,27.9,-12.4,0.0583513901,-0.632496109,-0.00842310862,-0.772301401
300,754678,1746220,0.907,-0.048,0.171,-15.5,-2.1,-3.3,-6.2,27.9,-12.4,0.058107242,-0.632557146,-0.00820947905,-0.772270882
301,756376,1746220,0.903,-0.056,0.171,-15.5,-2,-3.3,-6.2,27.9,-12.4,0.0578325755,-0.632587664,-0.00799584948,-0.772240364
302,758691,1746230,0.903,-0.048,0.163,-15.5,-2,-3.3,-6.1,27.4,-11.7,0.0575579089,-0.632648701,-0.00778221992,-0.772240364
303,760909,1746230,0.907,-0.052,0.171,-15.5,-2.1,-3.3,-6.1,27.4,-11.7,0.0572832423,-0.632709738,-0.00756859035,-0.772209845
304,763734,1746230,0.903,-0.04,0.167,-15.5,-2.3,-3.5,-6.1,27.4,-11.7,0.0570085757,-0.632770775,-0.00735496078,-0.772179327
305,767029,1746230,0.907,-0.041,0.167,-15.5,-2.6,-3.6,-6.1,27.4,-11.7,0.0567339091,-0.632831812,-0.00714133122,-0.772148808
306,768954,1746240,0.907,-0.041,0.167,-15.5,-2.6,-3.6,-6.1,27.4,-11.7,0.0567339091,-0.632831812,-0.00714133122,-0.772148808
307,771169,1746240,0.915,-0.029,0.163,-15.5,-3.4,-3.7,-6.1,27.4,-11.7,0.0561845759,-0.633014924,-0.00671407208,-0.772026734
308,773474,1746240,0.922,-0.029,0.159,-15.6,-3.8,-3.7,-6.1,27.4,-11.7,0.0559099094,-0.633106479,-0.00653096103,-0.771996216
309,777729,1746240,0.926,-0.017,0.167,-15.8,-4.2,-3.8,-6.1,27.4,-11.7,0.0556047243,-0.633198035,-0.00631733146,-0.771935179
310,778161,1746250,0.926,-0.014,0.163,-16.1,-4.6,-4,-6.5,27.9,-13.2,0.0553300577,-0.63328959,-0.0061037019,-0.771874142
311,780706,1746250,0.934,-0.01,0.162,-16.1,-4.6,-4,-6.5,27.9,-13.2,0.0550248726,-0.633381146,-0.00589007233,-0.771813105
312,783109,1746250,0.934,-0.01,0.159,-16.3,-5.1,-4.1,-6.5,27.9,-13.2,0.0547196875,-0.63350322,-0.00567644276,-0.771752068
313,787491,1746250,0.942,-0.002,0.154,-16.3,-5.9,-4.2,-6.5,27.9,-13.2,0.0544450209,-0.633625294,-0.0054628132,-0.771691031
314,788026,1746260,0.954,0.005,0.166,-16.1,-6.7,-4.3,-5.9,27.8,-13,0.0541398358,-0.633747368,-0.00527970214,-0.771599475
315,790527,1746260,0.954,0.008,0.162,-15.9,-7.7,-4.4,-5.9,27.8,-13,0.0538346507,-0.63389996,-0.00506607257,-0.77150792
316,794876,1746260,0.962,0.012,0.162,-15.8,-8.6,-4.4,-5.9,27.8,-13,0.0535599841,-0.634052553,-0.00488296152,-0.771385846
317,796523,1746260,0.969,0.02,0.166,-15.7,-9.5,-4.4,-5.9,27.8,-13,0.053254799,-0.634235664,-0.00466933195,-0.771263771
318,798985,1746270,0.981,0.02,0.165,-15.7,-10.2,-4.4,-6.1,27.9,-13.2,0.0529496139,-0.634418775,-0.00448622089,-0.771111179
319,801224,1746270,0.985,0.027,0.158,-15.8,-11,-4.6,-6.1,27.9,-13.2,0.0526749474,-0.634632405,-0.00430310984,-0.770989105
320,803231,1746270,0.985,0.035,0.161,-16.1,-11.7,-4.6,-6.1,27.9,-13.2,0.0523697623,-0.634846034,-0.00411999878,-0.770836512
321,805875,1746270,0.997,0.039,0.161,-16.7,-12.3,-4.8,-6.1,27.9,-13.2,0.0520340587,-0.635059664,-0.00390636921,-0.770653401
322,808069,1746280,0.997,0.043,0.153,-17.5,-12.6,-4.8,-6,27.9,-14,0.0517288736,-0.635303812,-0.00369273965,-0.770500809
323,810591,1746280,1.001,0.051,0.149,-18.7,-12.8,-5,-6,27.9,-14,0.0513626514,-0.63554796,-0.00344859157,-0.770317698
324,815183,1746280,1.001,0.054,0.145,-20,-12.8,-5.2,-6,27.9,-14,0.0509964293,-0.635792108,-0.00320444349,-0.770134587
325,815692,1746280,1.001,0.054,0.149,-21.5,-12.5,-5.4,-6,27.9,-14,0.0506302072,-0.636005737,-0.00292977691,-0.769981994
326,818192,1746290,1.001,0.054,0.149,-21.5,-12.5,-5.4,-6,27.9,-14,0.0506302072,-0.636005737,-0.00292977691,-0.769981994
327,822655,1746290,1.004,0.047,0.134,-24.6,-11.7,-5.7,-6,27.9,-14,0.0495620594,-0.636555071,-0.00250251778,-0.769615772
328,823077,1746290,1.001,0.05,0.134,-26.1,-11.1,-5.8,-6,27.9,-14,0.0491042817,-0.6367687,-0.00216681417,-0.769463179
329,825575,1746290,0.997,0.051,0.126,-27.7,-10.8,-6,-6,27.9,-14,0.0486159856,-0.63698233,-0.00180059206,-0.769310587
330,828058,1746300,0.997,0.051,0.122,-29.1,-10.4,-6.4,-6.1,28,-13.7,0.0480971709,-0.637195959,-0.00140385144,-0.769188513
331,832314,1746300,0.989,0.047,0.126,-30.7,-10,-6.9,-6.1,28,-13.7,0.0475478378,-0.63737907,-0.000976592303,-0.76903592
332,834606,1746300,0.993,0.047,0.122,-32.1,-9.7,-7.3,-6.1,28,-13.7,0.0469985046,-0.6375927,-0.000549333171,-0.768913846
333,836899,1746300,0.993,0.051,0.122,-33.3,-9.5,-7.5,-6.1,28,-13.7,0.0463881344,-0.637775811,-0.000122074038,-0.768791772
334,838745,1746310,0.989,0.055,0.118,-34.4,-9.4,-7.8,-6.2,28,-13.8,0.0457777642,-0.637989441,0.000305185095,-0.768669698
335,841115,1746310,0.989,0.058,0.118,-35.2,-9.4,-8.3,-6.2,28,-13.8,0.0451368755,-0.638172552,0.000762962737,-0.768547624
336,843318,1746310,0.993,0.051,0.118,-36,-9.4,-8.8,-6.2,28,-13.8,0.0444654683,-0.638355663,0.00125125889,-0.76842555
337,845836,1746310,0.989,0.047,0.118,-36.7,-9.3,-9.3,-6.2,28,-13.8,0.0438245796,-0.638569292,0.00173955504,-0.768303476
338,848203,1746320,0.985,0.055,0.122,-37.2,-9.2,-9.9,-6.1,28,-14,0.0431531724,-0.638752403,0.00219733268,-0.768181402
339,850461,1746320,0.985,0.051,0.122,-37.6,-9,-10.6,-6.1,28,-14,0.0424512467,-0.638935514,0.00268562883,-0.768059328
340,855052,1746320,0.981,0.043,0.118,-38,-8.8,-11.2,-6.1,28,-14,0.0417188025,-0.639118625,0.00314340648,-0.767937254
341,855485,1746320,0.981,0.043,0.122,-38.4,-8.6,-11.9,-6.1,28,-14,0.0409863582,-0.639301737,0.00363170263,-0.76781518
342,857985,1746330,0.981,0.039,0.126,-38.9,-8.4,-12.6,-6.5,28.4,-13.6,0.0402233955,-0.639484848,0.00408948027,-0.767723624
343,860961,1746330,0.981,0.035,0.126,-39.4,-8.2,-13.3,-6.5,28.4,-13.6,0.0394604328,-0.63963744,0.00454725791,-0.76760155
344,863143,1746330,0.981,0.027,0.126,-40,-8.1,-14.1,-6.5,28.4,-13.6,0.0386669515,-0.639820551,0.00503555406,-0.767509995
345,865524,1746330,0.977,0.027,0.122,-40.6,-8,-14.8,-6.5,28.4,-13.6,0.0378429518,-0.640003662,0.00549333171,-0.767387921
346,868008,1746340,0.977,0.027,0.122,-40.6,-8,-14.8,-6.5,28.4,-13.6,0.0378429518,-0.640003662,0.00549333171,-0.767387921
347,872147,1746340,0.981,0.016,0.122,-42,-7.7,-15.9,-6.5,28.4,-13.6,0.0356761376,-0.640675069,0.00592059084,-0.766930143
348,874469,1746340,0.977,0.012,0.119,-42.7,-7.5,-16.5,-6.5,28.4,-13.6,0.0348216193,-0.640827662,0.00640888699,-0.766838588
349,876254,1746340,0.985,0.012,0.114,-43.4,-7.4,-17.1,-6.5,28.4,-13.6,0.0339365825,-0.640980255,0.00689718314,-0.766747032
350,878681,1746350,0.981,0.008,0.118,-44.2,-7.2,-17.8,-6.2,28.5,-13,0.0329905087,-0.641132847,0.00735496078,-0.766655477
351,880944,1746350,0.985,0.004,0.114,-45,-7.2,-18.4,-6.2,28.5,-13,0.0320749535,-0.64128544,0.00787377544,-0.766563921
352,883688,1746350,0.977,0.008,0.115,-45.9,-7.2,-19.2,-6.2,28.5,-13,0.0311288797,-0.641438032,0.0083620716,-0.766472365
353,886169,1746350,0.985,0.004,0.114,-46.8,-7.3,-19.9,-6.2,28.5,-13,0.0301217689,-0.641590625,0.00885036775,-0.766350291
354,888342,1746360,0.989,0.004,0.107,-47.6,-7.5,-20.5,-6.7,28.5,-12.4,0.029114658,-0.641773736,0.00936918241,-0.766258736
355,891028,1746360,0.989,0,0.107,-48.4,-7.7,-21.1,-6.7,28.5,-12.4,0.0280770287,-0.641926328,0.00985747856,-0.76616718
356,893721,1746360,0.985,-0.007,0.107,-49.3,-8.1,-21.7,-6.7,28.5,-12.4,0.0270393994,-0.642109439,0.0103762932,-0.766045106
357,895939,1746360,0.988,-0.015,0.107,-50.1,-8.4,-22.3,-6.7,28.5,-12.4,0.0259712516,-0.64229255,0.0108951079,-0.765923032
358,898277,1746370,0.985,-0.007,0.111,-50.8,-8.6,-22.8,-6.9,28.1,-12.3,0.0248725852,-0.642445143,0.0114139225,-0.765800958
359,900907,1746370,0.985,-0.007,0.107,-51.4,-8.8,-23.2,-6.9,28.1,-12.3,0.0237739189,-0.642628254,0.0119632557,-0.765678884
360,903001,1746370,0.981,-0.007,0.111,-51.9,-9.1,-23.6,-6.9,28.1,-12.3,0.022644734,-0.642811365,0.0124820704,-0.76555681
361,907498,1746370,0.977,-0.007,0.111,-52.4,-9.5,-24,-6.9,28.1,-12.3,0.0214850307,-0.643024995,0.0130314035,-0.765404218
362,907961,1746380,0.985,-0.007,0.107,-52.8,-10,-24.5,-6.6,27.6,-12.2,0.0203558458,-0.643208106,0.0135502182,-0.765282144
363,910578,1746380,0.977,-0.007,0.107,-53.3,-10.4,-24.9,-6.6,27.6,-12.2,0.019165624,-0.643421735,0.0140995514,-0.765129551
364,914876,1746380,0.977,-0.011,0.107,-53.8,-10.7,-25.1,-6.6,27.6,-12.2,0.0180364391,-0.643635365,0.014618366,-0.76494644
365,917225,1746380,0.969,-0.015,0.103,-54.4,-10.8,-25.4,-6.6,27.6,-12.2,0.0168462172,-0.643848994,0.0151676992,-0.764793847
366,919331,1746390,0.969,-0.015,0.103,-54.4,-10.8,-25.4,-6.6,27.6,-12.2,0.0168462172,-0.643848994,0.0151676992,-0.764793847
367,921352,1746390,0.961,-0.007,0.103,-55.2,-10.7,-26.5,-6.6,27.6,-12.2,0.0140995514,-0.644947661,0.0159611805,-0.763908811
368,923605,1746390,0.961,-0.003,0.099,-55.7,-10.5,-27,-6.6,27.6,-12.2,0.012878811,-0.645130772,0.0164799951,-0.763756218
369,925885,1746390,0.965,-0.003,0.099,-56,-10.1,-27.3,-6.6,27.6,-12.2,0.0116275521,-0.645344401,0.0170293283,-0.763603626
370,928366,1746400,0.961,0,0.091,-56.5,-9.8,-27.7,-7.6,28.1,-12.3,0.0103762932,-0.645496994,0.0175786615,-0.763451033
371,930658,1746400,0.957,-0.007,0.095,-56.9,-9.6,-28,-7.6,28.1,-12.3,0.00912503433,-0.645710623,0.0181279946,-0.763298441
372,933094,1746400,0.953,0,0.088,-57.3,-9.4,-28.3,-7.6,28.1,-12.3,0.00784325694,-0.645893735,0.0186773278,-0.763145848
373,937543,1746400,0.957,-0.003,0.08,-57.6,-9.1,-28.6,-7.6,28.1,-12.3,0.00656147954,-0.646046327,0.0192571795,-0.762993255
374,937958,1746410,0.957,0.004,0.076,-57.6,-8.9,-28.8,-7.3,27.8,-12.2,0.00527970214,-0.646229438,0.0197759941,-0.762840663
375,942147,1746410,0.961,0.004,0.072,-57.6,-8.8,-29.1,-7.3,27.8,-12.2,0.00396740623,-0.646382031,0.0203558458,-0.76268807
376,944488,1746410,0.969,0.008,0.068,-57.4,-8.6,-29.3,-7.3,27.8,-12.2,0.00268562883,-0.646565142,0.0208746605,-0.762535478
377,946267,1746410,0.977,0.012,0.075,-57.3,-8.4,-29.6,-7.3,27.8,-12.2,0.00137333293,-0.646717734,0.0214239937,-0.762413404
378,948664,1746420,0.981,0.011,0.068,-57.2,-8.4,-29.9,-7.6,27.8,-11.7,9.15555284e-05,-0.646870327,0.0219428083,-0.762260811
379,950888,1746420,0.996,0.015,0.071,-57.2,-8.4,-30.2,-7.6,27.8,-11.7,0.00119022187,0.647022919,-0.022461623,0.762108219
380,955075,1746420,1,0.019,0.071,-57.4,-8.4,-30.2,-7.6,27.8,-11.7,0.00250251778,0.647175512,-0.0230109561,0.761955626
381,955493,1746420,1.004,0.023,0.071,-57.7,-8.5,-30.2,-7.6,27.8,-11.7,0.00381481368,0.647328104,-0.0235297708,0.761803034
382,958010,1746430,1.012,0.027,0.071,-58.1,-8.6,-30.2,-8.1,28.1,-11.5,0.0051576281,0.647480697,-0.0240485855,0.761650441
383,962653,1746430,1.016,0.034,0.083,-58.5,-8.6,-30.2,-8.1,28.1,-11.5,0.00646992401,0.64763329,-0.0246284371,0.761497848
384,963081,1746430,1.016,0.038,0.083,-58.9,-8.6,-30.2,-8.1,28.1,-11.5,0.00778221992,0.647785882,-0.0251472518,0.761345256
385,965500,1746430,1.024,0.05,0.078,-59.3,-8.9,-30.2,-8.1,28.1,-11.5,0.00912503433,0.647938475,-0.0257271035,0.761162145
386,969317,1746440,1.024,0.05,0.078,-59.3,-8.9,-30.2,-8.1,28.1,-11.5,0.00912503433,0.647938475,-0.0257271035,0.761162145
387,971338,1746440,1.024,0.073,0.074,-60.2,-9.9,-30,-8.1,28.1,-11.5,0.0119632557,0.648548845,-0.0267342143,0.760582293
388,973369,1746440,1.024,0.073,0.074,-60.9,-10.1,-29.7,-8.1,28.1,-11.5,0.0133365886,0.648731956,-0.027314066,0.760399182
389,975791,1746440,1.028,0.073,0.067,-61.7,-10,-29.4,-8.1,28.1,-11.5,0.0146794031,0.648884548,-0.0279244362,0.760185553
390,978533,1746450,1.031,0.073,0.063,-62.5,-9.6,-29.2,-8.4,29,-10.2,0.016052736,0.649037141,-0.0285653249,0.760002441
391,981155,1746450,1.039,0.061,0.055,-63.2,-8.9,-29.1,-8.4,29,-10.2,0.0174260689,0.649189734,-0.0291756951,0.75981933
392,983435,1746450,1.043,0.065,0.055,-63.9,-8.2,-29,-8.4,29,-10.2,0.0187994018,0.649311808,-0.0298471023,0.759666738
393,986448,1746450,1.051,0.065,0.054,-64.6,-7.4,-28.9,-8.4,29,-10.2,0.0202032533,0.649403363,-0.0305185095,0.759514145
394,988675,1746460,1.047,0.053,0.051,-65.5,-6.7,-28.7,-8.5,29.3,-10,0.0216071047,0.649525437,-0.0311899167,0.759361553
395,990890,1746460,1.051,0.053,0.039,-66.7,-6,-28.3,-8.5,29.3,-10,0.0230109561,0.649616993,-0.0318918424,0.75920896
396,993026,1746460,1.047,0.045,0.051,-68.2,-5.2,-27.9,-8.5,29.3,-10,0.0244148076,0.649708548,-0.0326242866,0.759056368
397,997571,1746460,1.043,0.034,0.039,-69.7,-4.3,-27.4,-8.5,29.3,-10,0.025879696,0.649739067,-0.0334177679,0.758934294
398,997979,1746470,1.043,0.03,0.035,-71.2,-3.2,-26.9,-8.9,29.4,-9.7,0.027314066,0.649769585,-0.0342112491,0.758842738
399,1000809,1746470,1.031,0.026,0.031,-72.8,-2.2,-26.4,-8.9,29.4,-9.7,0.0288094729,0.649800104,-0.0350352489,0.758720664
400,1005045,1746470,1.031,0.018,0.031,-74.3,-1.3,-26.1,-8.9,29.4,-9.7,0.0302743614,0.649800104,-0.0358897671,0.758629109
401,1005635,1746470,1.023,0.01,0.028,-75.6,-0.5,-25.7,-8.9,29.4,-9.7,0.0317697684,0.649769585,-0.0367748039,0.758537553
402,1007972,1746480,1.019,0.011,0.024,-76.9,0.2,-25.6,-9.1,29.6,-9,0.0332956938,0.649739067,-0.0376903592,0.758476516
403,1012499,1746480,1.015,0.007,0.016,-78.1,1,-25.5,-9.1,29.6,-9,0.0348216193,0.64967803,-0.0386059145,0.758415479
404,1014711,1746480,1.008,0.007,0.02,-79.3,2,-25.5,-9.1,29.6,-9,0.0363780633,0.649586474,-0.0395825068,0.758354442
405,1016966,1746480,1.007,-0.004,0.008,-80.4,3,-25.6,-9.1,29.6,-9,0.0379345073,0.649494919,-0.0405285806,0.758293405
406,1018956,1746490,1.007,-0.004,0.008,-80.4,3,-25.6,-9.1,29.6,-9,0.0379345073,0.649494919,-0.0405285806,0.758293405
407,1021176,1746490,1.011,-0.016,0.004,-82,5,-26.1,-9.1,29.6,-9,0.0411694693,0.649922178,-0.0424817652,0.757683035
408,1023427,1746490,1.011,-0.031,-0.006,-82.7,5.8,-26.6,-9.1,29.6,-9,0.0427564318,0.649769585,-0.043488876,0.757652516
409,1025960,1746490,1.015,-0.035,-0.006,-83.4,6.3,-26.9,-9.1,29.6,-9,0.0444044313,0.649616993,-0.0444654683,0.757621998
410,1028234,1746500,1.023,-0.036,-0.014,-84,6.8,-27.4,-9.2,29.2,-8.2,0.0460524308,0.649403363,-0.0454420606,0.757621998
411,1030494,1746500,1.027,-0.043,-0.014,-84.5,7.2,-27.8,-9.2,29.2,-8.2,0.0477309488,0.649250771,-0.0464186529,0.757621998
412,1035016,1746500,1.031,-0.051,-0.014,-84.8,7.6,-28.3,-9.2,29.2,-8.2,0.0494094668,0.64906766,-0.0474562822,0.757591479
413,1037369,1746500,1.038,-0.063,-0.019,-85.1,7.9,-28.9,-9.2,29.2,-8.2,0.0510574664,0.648884548,-0.0484328745,0.757591479
414,1039510,1746510,1.046,-0.063,-0.011,-85.3,8.1,-29.4,-9,29.3,-8,0.0527665029,0.648670919,-0.0494094668,0.757591479
415,1041860,1746510,1.058,-0.079,-0.019,-85.4,8.3,-30,-9,29.3,-8,0.0544755394,0.648487808,-0.0503860591,0.757560961
416,1043727,1746510,1.062,-0.079,-0.015,-85.8,8.5,-30.5,-9,29.3,-8,0.056245613,0.648274178,-0.0513626514,0.757560961
417,1045947,1746510,1.062,-0.083,-0.015,-86,8.5,-31.1,-9,29.3,-8,0.057985168,0.648060549,-0.0523392438,0.757560961
418,1048546,1746520,1.066,-0.083,-0.011,-86.3,8.5,-31.6,-9.9,28.9,-7.5,0.0597552416,0.647846919,-0.0533158361,0.757530442
419,1050489,1746520,1.077,-0.079,-0.004,-86.4,8.3,-32,-9.9,28.9,-7.5,0.0614947966,0.64763329,-0.0542924284,0.757499924
420,1053022,1746520,1.077,-0.083,-0.007,-86.6,8.2,-32.3,-9.9,28.9,-7.5,0.0632648701,0.64741966,-0.0552079836,0.757469405
421,1057573,1746520,1.077,-0.087,-0.007,-87,8.3,-32.4,-9.9,28.9,-7.5,0.0650349437,0.647175512,-0.0561845759,0.757438887
422,1058025,1746530,1.085,-0.087,-0.008,-87.4,8.5,-32.6,-10,29.1,-7.7,0.0668355358,0.646961882,-0.0571611682,0.757408368
423,1060559,1746530,1.077,-0.087,0.003,-87.6,8.8,-32.7,-10,29.1,-7.7,0.0686361278,0.646717734,-0.0581377606,0.75737785
424,1065036,1746530,1.081,-0.087,-0.004,-87.7,9.2,-32.7,-10,29.1,-7.7,0.0704062014,0.646473586,-0.0591143529,0.757347331
425,1067263,1746530,1.081,-0.091,0,-87.6,9.7,-32.7,-10,29.1,-7.7,0.0722067934,0.646229438,-0.0600909452,0.757316813
426,1069510,1746540,1.081,-0.091,0,-87.6,9.7,-32.7,-10,29.1,-7.7,0.0722067934,0.646229438,-0.0600909452,0.757316813
427,1071243,1746540,1.077,-0.091,-0.007,-87.7,10.5,-32.9,-10,29.1,-7.7,0.0755638295,0.646046327,-0.0622882778,0.756950591
428,1073640,1746540,1.077,-0.099,-0.007,-87.8,11,-33,-10,29.1,-7.7,0.0773644215,0.645771661,-0.0632648701,0.756920072
429,1075672,1746540,1.077,-0.103,-0.004,-87.9,11.7,-33,-10,29.1,-7.7,0.0791650136,0.645466475,-0.0642414624,0.756920072
430,1079893,1746550,1.066,-0.107,-0.019,-87.8,12.7,-33.1,-10.9,29.8,-6.4,0.0809656056,0.64516129,-0.0652180548,0.756920072
431,1082089,1746550,1.066,-0.111,-0.015,-87.5,13.9,-33,-10.9,29.8,-6.4,0.0827661977,0.644825587,-0.0661641285,0.756920072
432,1085104,1746550,1.062,-0.118,-0.015,-87.1,15.2,-33,-10.9,29.8,-6.4,0.0845362712,0.644459365,-0.0671102023,0.756950591
433,1085640,1746550,1.062,-0.122,-0.019,-86.5,16.3,-33.1,-10.9,29.8,-6.4,0.0863368633,0.644062624,-0.0680562761,0.756981109
434,1088055,1746560,1.062,-0.138,-0.019,-85.8,17.2,-33.3,-10.9,29.8,-6.4,0.0881069369,0.643665883,-0.0689413129,0.757042146
435,1090505,1746560,1.054,-0.149,-0.023,-85.1,18.1,-33.5,-10.9,29.8,-6.4,0.0899075289,0.643269143,-0.0698568682,0.757103183
436,1093147,1746560,1.054,-0.157,-0.023,-84.3,19,-33.6,-10.9,29.8,-6.4,0.0916776025,0.642841884,-0.070741905,0.75716422
437,1097610,1746560,1.046,-0.165,-0.022,-83.5,20,-33.7,-10.9,29.8,-6.4,0.0934171575,0.642384106,-0.0715964232,0.757255776
438,1097988,1746570,1.046,-0.173,-0.022,-82.5,20.9,-33.8,-10.9,29.8,-6.4,0.0951872311,0.641926328,-0.0724509415,0.757347331
439,1102116,1746570,1.05,-0.185,-0.022,-81.5,21.7,-34,-10.9,29.8,-6.4,0.0969267861,0.641438032,-0.0732749413,0.757469405
440,1104396,1746570,1.05,-0.189,-0.022,-80.5,22.3,-34.2,-10.9,29.8,-6.4,0.0986358226,0.640949736,-0.074098941,0.757560961
441,1106377,1746570,1.069,-0.201,-0.023,-79.7,22.5,-34.4,-10.9,29.8,-6.4,0.100375378,0.64046144,-0.0748619037,0.757683035
442,1108575,1746580,1.077,-0.212,-0.023,-79,22.7,-34.7,-10.9,29.8,-6.4,0.102084414,0.639973144,-0.075655385,0.75777459
443,1110811,1746580,1.089,-0.217,-0.023,-78.3,23,-34.8,-10.9,29.8,-6.4,0.103793451,0.639484848,-0.0763878292,0.757896664
444,1113461,1746580,1.1,-0.244,-0.027,-77.7,23.6,-34.7,-10.9,29.8,-6.4,0.105471969,0.638966033,-0.077150792,0.758018738
445,1115634,1746580,1.1,-0.244,-0.031,-77.4,24.5,-34.3,-10.9,29.8,-6.4,0.107181005,0.638447218,-0.0778832362,0.758140812
446,1120101,1746590,1.108,-0.26,-0.027,-77.2,25.8,-34,-10.9,29.8,-6.4,0.108859523,0.637897885,-0.0786461989,0.758293405
447,1120518,1746590,1.116,-0.268,-0.027,-77.1,27.2,-33.7,-10.9,29.8,-6.4,0.110538041,0.637318033,-0.0793786431,0.758476516
448,1124810,1746590,1.123,-0.288,-0.035,-76.9,28.7,-33.3,-10.9,29.8,-6.4,0.112216559,0.636707663,-0.0801110874,0.758659627
449,1127427,1746590,1.135,-0.303,-0.036,-76.7,30,-33.1,-10.9,29.8,-6.4,0.113864559,0.636066774,-0.0808435316,0.758842738
450,1129582,1746600,1.135,-0.303,-0.039,-76.2,31.1,-33,-10.2,28.6,-4.9,0.115543077,0.635425886,-0.0815759758,0.759056368
451,1131276,1746600,1.139,-0.303,-0.043,-75.4,32.4,-33.1,-10.2,28.6,-4.9,0.117191076,0.634754479,-0.0822779015,0.759300516
452,1134497,1746600,1.162,-0.327,-0.048,-74.4,33.9,-33.2,-10.2,28.6,-4.9,0.118839076,0.634052553,-0.0829798273,0.759544664
453,1136390,1746600,1.178,-0.343,-0.048,-73.4,35.7,-33.1,-10.2,28.6,-4.9,0.120456557,0.633350627,-0.0836512345,0.75981933
454,1138614,1746610,1.182,-0.359,-0.044,-72.6,37.5,-33,-10.2,28.6,-4.9,0.122074038,0.632587664,-0.0842921232,0.760124516
455,1140837,1746610,1.189,-0.39,-0.048,-72.1,39.6,-32.7,-10.2,28.6,-4.9,0.123691519,0.631794183,-0.0849330119,0.760429701
456,1143474,1746610,1.193,-0.406,-0.044,-71.5,41.7,-32.2,-10.2,28.6,-4.9,0.125278481,0.630970183,-0.0855433821,0.760795923
457,1146107,1746610,1.197,-0.418,-0.048,-70.9,43.8,-31.5,-10.2,28.6,-4.9,0.126865444,0.630115665,-0.0861842708,0.761192663
458,1148256,1746620,1.201,-0.441,-0.04,-70.2,45.9,-30.9,-10.2,28.6,-4.9,0.128452406,0.62920011,-0.0867946409,0.761589404
459,1152494,1746620,1.201,-0.488,-0.029,-69.7,47.9,-30.4,-10.2,28.6,-4.9,0.129978332,0.628254036,-0.0874050111,0.762047182
460,1154610,1746620,1.201,-0.515,-0.029,-69.4,49.8,-30,-10.2,28.6,-4.9,0.131534776,0.627307962,-0.0879848628,0.762504959
461,1156243,1746620,1.193,-0.539,-0.028,-69.6,51.6,-29.5,-10.2,28.6,-4.9,0.13309122,0.626300851,-0.0886257515,0.762993255
462,1158412,1746630,1.181,-0.574,-0.024,-70.2,53.4,-29,-10.2,28.6,-4.9,0.134617145,0.625263222,-0.0892361217,0.763481552
463,1160513,1746630,1.177,-0.644,-0.012,-71,55.2,-28.6,-10.2,28.6,-4.9,0.136173589,0.624195074,-0.0898464919,0.764030885
464,1164517,1746630,1.165,-0.675,0,-71.9,56.9,-28.3,-10.2,28.6,-4.9,0.137730033,0.623065889,-0.0905178991,0.764580218
465,1166142,1746630,1.165,-0.714,0.007,-73,58.3,-28.3,-10.2,28.6,-4.9,0.139316996,0.621936705,-0.0911587878,0.765129551
466,1168636,1746640,1.146,-0.803,0.027,-73.9,59.5,-28.6,-10.2,28.6,-4.9,0.140934477,0.620777001,-0.091830195,0.765709403
467,1170671,1746640,1.146,-0.842,0.035,-74.8,60.4,-28.9,-10.2,28.6,-4.9,0.142551958,0.619586779,-0.0925016022,0.766289254
468,1173401,1746640,1.134,-0.885,0.059,-75.5,61.2,-29.3,-10.2,28.6,-4.9,0.144169439,0.618396558,-0.0931730094,0.766869106
469,1175510,1746640,1.126,-0.92,0.078,-75.8,62.2,-29.6,-10.2,28.6,-4.9,0.145817438,0.617175817,-0.0938444166,0.767448958
470,1179934,1746650,1.095,-0.997,0.114,-76,63.1,-29.6,-12.1,28.1,-4.1,0.147465438,0.615924558,-0.0945158238,0.768059328
471,1182163,1746650,1.087,-1.029,0.122,-76.1,64,-29.2,-12.1,28.1,-4.1,0.149113437,0.614673299,-0.0951872311,0.768669698
472,1184483,1746650,1.067,-1.071,0.134,-76.4,64.6,-28.4,-12.1,28.1,-4.1,0.150761437,0.613391522,-0.0958891568,0.769280068
473,1186348,1746650,1.063,-1.11,0.139,-76.6,64.7,-27.4,-12.1,28.1,-4.1,0.152378918,0.612109745,-0.0965910825,0.769890439
474,1188532,1746660,1.028,-1.176,0.155,-76.3,64.4,-26.2,-12.1,28.1,-4.1,0.15396588,0.610827967,-0.0972624897,0.770500809
475,1190843,1746660,1.016,-1.215,0.155,-75.1,64,-24.7,-12.1,28.1,-4.1,0.155491806,0.60954619,-0.0980254524,0.771111179
476,1194440,1746660,1.008,-1.246,0.159,-72.6,63.4,-22.5,-12.1,28.1,-4.1,0.157017731,0.608264412,-0.0987273782,0.771721549
477,1195995,1746660,1,-1.3,0.152,-68.6,62.7,-19.8,-12.1,28.1,-4.1,0.158391064,0.607013153,-0.0993987854,0.772331919
478,1198181,1746670,0.992,-1.312,0.144,-63,61.7,-16.5,-12.1,28.1,-4.1,0.159642323,0.605792413,-0.100039674,0.772942289
479,1201868,1746670,0.969,-1.323,0.137,-55.7,60.5,-12.6,-12.1,28.1,-4.1,0.160710471,0.604602191,-0.100589007,0.773583178
480,1203732,1746670,0.945,-1.319,0.133,-46.8,59.4,-7.9,-12.1,28.1,-4.1,0.161595508,0.603473006,-0.101077303,0.774254585
481,1205700,1746670,0.941,-1.335,0.106,-36.6,58.2,-2.8,-12.1,28.1,-4.1,0.162266915,0.602343822,-0.101443525,0.774925993
482,1209797,1746680,0.941,-1.339,0.094,-25.8,56.8,2.3,-12.1,28.1,-4.1,0.162694174,0.601306192,-0.101718192,0.775627918
483,1212006,1746680,0.945,-1.339,0.09,-14.6,54.8,7,-12.1,28.1,-4.1,0.162877285,0.600299081,-0.101870785,0.776329844
484,1213724,1746680,0.957,-1.331,0.07,-2.9,52.5,11.1,-12.1,28.1,-4.1,0.162846767,0.599383526,-0.101870785,0.77703177
485,1216045,1746680,0.957,-1.339,0.063,9.2,50.3,14.8,-12.1,28.1,-4.1,0.1625721,0.598529008,-0.101718192,0.777764214
486,1218292,1746690,0.949,-1.331,0.055,21.9,48.4,18,-12.4,28,-3.9,0.162114322,0.597735527,-0.101413007,0.778527177
487,1220863,1746690,0.98,-1.348,0.043,34.5,46.6,21.2,-12.4,28,-3.9,0.16135136,0.597033601,-0.100955229,0.779290139
488,1223177,1746690,0.988,-1.352,0.023,46.7,44.8,24.1,-12.4,28,-3.9,0.160466323,0.596362194,-0.100314341,0.780053102
489,1227628,1746690,0.999,-1.36,0.011,58.4,43,26.8,-12.4,28,-3.9,0.159337138,0.595782342,-0.0995208594,0.780846583
490,1228039,1746700,1.003,-1.364,0.011,69.4,41.6,29,-12.8,27.8,-4,0.158055361,0.595233009,-0.0985747856,0.781640065
491,1232085,1746700,1.015,-1.38,0.011,79.4,40.5,30.9,-12.8,27.8,-4,0.156559954,0.594775231,-0.0974761193,0.782433546
492,1234458,1746700,1.019,-1.407,0.015,88.5,39.5,32.7,-12.8,27.8,-4,0.154942473,0.594317454,-0.0962553789,0.783227027
493,1236874,1746700,1.011,-1.407,0.023,96.6,38.6,34.6,-12.8,27.8,-4,0.153172399,0.593920713,-0.0949125645,0.784051027
494,1238800,1746710,1.023,-1.43,0.026,104,37.7,36.9,-10.8,28.2,-4.5,0.151280251,0.593523972,-0.0934781945,0.784875027
495,1241410,1746710,1.03,-1.454,0.034,110.9,36.6,39.1,-10.8,28.2,-4.5,0.149235511,0.593188269,-0.0919827876,0.785699026
496,1243599,1746710,1.026,-1.462,0.034,117.7,35.3,41.6,-10.8,28.2,-4.5,0.147068697,0.592883084,-0.0903958251,0.786523026
497,1245856,1746710,1.022,-1.458,0.03,124.3,33.9,44.6,-10.8,28.2,-4.5,0.14474929,0.592608417,-0.088717307,0.787347026
498,1249498,1746720,1.011,-1.454,0.038,131.1,32.3,48.2,-10.5,28.2,-4.9,0.14230781,0.592364269,-0.086977752,0.788171026
499,1251910,1746720,0.995,-1.434,0.031,137.7,30.8,52.7,-10.5,28.2,-4.9,0.139683218,0.592150639,-0.0852076785,0.788995025
500,1253844,1746720,0.999,-1.422,0.023,144,29.4,57.7,-10.5,28.2,-4.9,0.136875515,0.591998047,-0.0833765679,0.789819025
501,1256148,1746720,0.991,-1.41,0.023,149.8,28.4,62.9,-10.5,28.2,-4.9,0.13391522,0.591814936,-0.0815149388,0.790643025
502,1258449,1746730,0.991,-1.395,0.003,155.1,27.6,68.4,-10.6,28.3,-5.4,0.130771813,0.591662343,-0.0796533097,0.791467025
503,1260534,1746730,1.003,-1.383,-0.019,160.4,27.2,73.9,-10.6,28.3,-5.4,0.127475814,0.591540269,-0.0777306436,0.792321543
504,1264337,1746730,1.003,-1.364,-0.023,165.9,27.5,79.5,-10.6,28.3,-5.4,0.123996704,0.591387677,-0.075838496,0.793145543
505,1266143,1746730,0.999,-1.34,-0.031,172.2,28.7,85.4,-10.6,28.3,-5.4,0.120334483,0.591204566,-0.0738853114,0.79403058
506,1268181,1746740,0.952,-1.273,-0.066,179.5,30.8,91.9,-9.7,28.7,-6.3,0.116489151,0.590990936,-0.0718710898,0.794946135
507,1270513,1746740,0.933,-1.246,-0.089,187.4,33.6,98.7,-9.7,28.7,-6.3,0.11239967,0.590716269,-0.0697958312,0.795922727
508,1274913,1746740,0.909,-1.226,-0.12,194.8,36.8,105.4,-9.7,28.7,-6.3,0.108127079,0.590380566,-0.067690054,0.796960356
509,1277185,1746740,0.893,-1.206,-0.159,201,39.6,111.5,-9.7,28.7,-6.3,0.10361034,0.589983825,-0.0655232398,0.797997986
510,1279258,1746750,0.909,-1.207,-0.214,205.4,41.3,116.9,-11,28.4,-7.5,0.0990325632,0.589556566,-0.0633564257,0.799096652
511,1281239,1746750,0.92,-1.203,-0.23,208.5,41.9,121.3,-11,28.4,-7.5,0.0942716758,0.589098788,-0.06122013,0.8001648
512,1283479,1746750,0.905,-1.184,-0.237,211.1,41.7,124.9,-11,28.4,-7.5,0.0894497513,0.588641011,-0.0590227973,0.801232948
513,1286015,1746750,0.881,-1.136,-0.256,214.3,41,127.4,-11,28.4,-7.5,0.0845057527,0.588152715,-0.0568559832,0.802270577
514,1289487,1746760,0.889,-1.133,-0.272,218.4,39.8,128.8,-9,28.6,-8.3,0.0795007172,0.587694937,-0.0545976135,0.803277688
515,1291312,1746760,0.928,-1.13,-0.289,223,37.4,129,-9,28.6,-8.3,0.0744346446,0.587267678,-0.0522782067,0.804223762
516,1293256,1746760,0.951,-1.126,-0.309,227.5,33.2,128.2,-9,28.6,-8.3,0.069307535,0.586901456,-0.049836726,0.805108798
517,1297023,1746760,1.01,-1.104,-0.345,231.7,27.7,127,-9,28.6,-8.3,0.0641193884,0.586626789,-0.0473952452,0.80590228
518,1298766,1746770,1.033,-1.085,-0.361,235.6,21.2,126.4,-8.1,28.6,-9.4,0.0588702048,0.58641316,-0.0448316904,0.806573687
519,1301239,1746770,1.049,-1.058,-0.381,238.9,14.6,127,-8.1,28.6,-9.4,0.0536210211,0.586352123,-0.0422376171,0.807153539
520,1303165,1746770,1.068,-1.047,-0.401,241.2,8.2,128.8,-8.1,28.6,-9.4,0.048280282,0.586352123,-0.0395825068,0.807611316
521,1306931,1746770,1.096,-1.008,-0.425,242.5,2.4,131.3,-8.1,28.6,-9.4,0.0428785058,0.586443678,-0.037018952,0.807977538
522,1308745,1746780,1.127,-1.009,-0.441,243.2,-3.1,133.9,-7.4,28.6,-10.7,0.0373851741,0.586596271,-0.0344553972,0.808252205
523,1311078,1746780,1.162,-1.001,-0.454,243.6,-8.8,136.9,-7.4,28.6,-10.7,0.0318613239,0.586840419,-0.0319223609,0.808404798
524,1313258,1746780,1.275,-1.015,-0.479,244.2,-15.2,141.1,-7.4,28.6,-10.7,0.0262153996,0.587176122,-0.0294198431,0.808465835
525,1317202,1746780,1.318,-0.989,-0.484,245.6,-21.8,147.1,-7.4,28.6,-10.7,0.0204474013,0.587603381,-0.0269783624,0.808435316
526,1318935,1746790,1.361,-0.986,-0.493,247.9,-28.4,155,-6.8,28.4,-11.4,0.0145268105,0.588091678,-0.0246284371,0.808252205
527,1320969,1746790,1.419,-0.979,-0.502,251.1,-33.9,164.1,-6.8,28.4,-11.4,0.00839259011,0.588671529,-0.0223090304,0.807977538
528,1323534,1746790,1.478,-0.953,-0.53,255.5,-37.8,174.3,-6.8,28.4,-11.4,0.00201422163,0.589281899,-0.0200201422,0.807641835
529,1325500,1746790,1.497,-0.918,-0.542,261.6,-39.5,185.4,-6.8,28.4,-11.4,0.00460829493,-0.58989227,0.0178228095,-0.807245094
530,1328041,1746800,1.49,-0.875,-0.558,269.9,-38.8,197.7,-6.3,28.3,-12.8,0.0115665151,-0.590472121,0.0155949583,-0.806787317
531,1331386,1746800,1.459,-0.823,-0.569,280.5,-36,211,-6.3,28.3,-12.8,0.0189214759,-0.590929899,0.0133671072,-0.806360057
532,1333773,1746800,1.373,-0.705,-0.599,292.7,-31.7,225.4,-6.3,28.3,-12.8,0.0266121403,-0.591296121,0.0111087374,-0.80590228
533,1335747,1746800,1.353,-0.662,-0.611,304.8,-27.2,239.7,-6.3,28.3,-12.8,0.0348216193,-0.591509751,0.00885036775,-0.805475021
534,1339286,1746810,1.346,-0.607,-0.63,315.7,-24.1,253.6,-5.8,28.1,-13.5,0.0433362835,-0.591631825,0.00653096103,-0.804986724
535,1341173,1746810,1.369,-0.545,-0.678,324.9,-23.7,266.3,-5.8,28.1,-13.5,0.0522171697,-0.591662343,0.00424207282,-0.804437391
536,1343466,1746810,1.392,-0.522,-0.702,332.8,-26,277.7,-5.8,28.1,-13.5,0.0613727226,-0.591692862,0.00195318461,-0.803796503
537,1345716,1746810,1.416,-0.499,-0.718,339.9,-30.4,287.4,-5.8,28.1,-13.5,0.070802942,-0.59172338,-0.000305185095,-0.802972503
538,1348198,1746820,1.451,-0.488,-0.73,347,-35.6,295.8,-4.4,28.2,-15.1,0.0804773095,-0.591784417,-0.00259407331,-0.802026429
539,1350446,1746820,1.482,-0.465,-0.746,354.4,-40.7,302.5,-4.4,28.2,-15.1,0.090334788,-0.591875973,-0.00497451704,-0.800897244
540,1354746,1746820,1.517,-0.497,-0.763,362.3,-45.1,307.4,-4.4,28.2,-15.1,0.100375378,-0.59193701,-0.0074159978,-0.799645985
541,1356939,1746820,1.548,-0.474,-0.763,370.8,-48.7,310.1,-4.4,28.2,-15.1,0.11056856,-0.591998047,-0.0100100711,-0.798211615
542,1359263,1746830,1.599,-0.491,-0.768,380.3,-51.5,310.5,-3,27.2,-15.9,0.120853298,-0.592028565,-0.0127262185,-0.79668569
543,1361240,1746830,1.592,-0.459,-0.741,390.6,-53.2,307.9,-3,27.2,-15.9,0.131229591,-0.591967528,-0.0156865139,-0.795007172
544,1363556,1746830,1.58,-0.385,-0.701,401.8,-53.1,302,-3,27.2,-15.9,0.141636402,-0.591814936,-0.0188909574,-0.793298135
545,1365779,1746830,1.576,-0.408,-0.69,413.6,-50.7,293.6,-3,27.2,-15.9,0.152043214,-0.591479232,-0.0224311045,-0.791497543
546,1368327,1746840,1.585,-0.314,-0.619,425.5,-46.4,284.7,-1.4,26.8,-17.5,0.162419507,-0.590990936,-0.0262459181,-0.789696951
547,1370503,1746840,1.621,-0.236,-0.565,436.2,-40.6,277.2,-1.4,26.8,-17.5,0.172795801,-0.590258492,-0.0303353984,-0.787896359
548,1374209,1746840,1.629,-0.209,-0.538,445.2,-34.2,272.9,-1.4,26.8,-17.5,0.183172094,-0.589312418,-0.0346079897,-0.786065249
549,1376314,1746840,1.625,-0.166,-0.534,451.8,-28,272.6,-1.4,26.8,-17.5,0.193639943,-0.588152715,-0.0389721366,-0.784234138
550,1378496,1746850,1.758,-0.059,-0.56,455.9,-22.7,277.3,0,25.4,-20.8,0.204199347,-0.5868099,-0.0433057649,-0.78234199
551,1381812,1746850,1.813,0.123,-0.554,457.5,-17.5,286.8,0,25.4,-20.8,0.214911344,-0.585283975,-0.0475173193,-0.780327769
552,1383774,1746850,1.872,0.216,-0.575,456.1,-10.1,301.4,0,25.4,-20.8,0.225806452,-0.583605457,-0.051454207,-0.778283029
553,1386164,1746850,2.064,0.447,-0.602,449.2,2.9,321.2,0,25.4,-20.8,0.237006745,-0.581652272,-0.0549638356,-0.776177252
554,1388408,1746860,2.181,0.523,-0.64,433.9,24.5,346.5,0.8,24.3,-20.8,0.248390149,-0.579363384,-0.0578020569,-0.774101993
555,1390895,1746860,2.22,0.592,-0.664,409.6,54,376.3,0.8,24.3,-20.8,0.259987182,-0.576677755,-0.059663686,-0.772179327
556,1393090,1746860,2.267,0.658,-0.693,379.6,87.5,407.5,0.8,24.3,-20.8,0.27170629,-0.573534349,-0.0604266488,-0.770409253
557,1396771,1746860,2.166,0.742,-0.726,349.5,118.1,436.3,0.8,24.3,-20.8,0.283547472,-0.569994201,-0.0601519822,-0.768791772
558,1398929,1746870,2.08,0.727,-0.736,324.2,138.9,458.5,2.5,22.6,-21.5,0.29544969,-0.566209906,-0.0590227973,-0.767174291
559,1401054,1746870,1.966,0.671,-0.746,306.7,143,471.9,2.5,22.6,-21.5,0.307290872,-0.562425611,-0.0574053163,-0.765465255
560,1403293,1746870,1.939,0.73,-0.742,298.3,127.5,475.9,2.5,22.6,-21.5,0.319040498,-0.558824427,-0.0556657613,-0.763389996
561,1407264,1746870,1.939,0.811,-0.824,297.4,94.9,471.3,2.5,22.6,-21.5,0.330607013,-0.555711539,-0.0542313913,-0.76085696
562,1409501,1746880,1.872,0.847,-0.885,298.7,54.1,461,4.5,21.5,-22.3,0.341898862,-0.553178503,-0.053193762,-0.75777459
563,1411819,1746880,1.771,0.935,-0.919,295,17.1,448.7,4.5,21.5,-22.3,0.352885525,-0.551164281,-0.0525223548,-0.754234443
564,1413762,1746880,1.693,1.026,-0.921,280.5,-6.9,438.3,4.5,21.5,-22.3,0.363444929,-0.549577319,-0.0519119846,-0.75041963
565,1415984,1746880,1.74,1.018,-0.883,252,-17,431.5,4.5,21.5,-22.3,0.373485519,-0.54832606,-0.0509964293,-0.746452223
566,1418446,1746890,1.799,1.001,-0.782,211.3,-19.9,427.2,6.1,19.8,-23,0.382946257,-0.547379986,-0.0495010224,-0.742454299
567,1420738,1746890,1.858,0.926,-0.733,164.2,-24.4,423.5,6.1,19.8,-23,0.391705069,-0.546830653,-0.0473036897,-0.738425855
568,1423032,1746890,1.587,0.58,-0.668,118.2,-35.2,419.9,6.1,19.8,-23,0.399822993,-0.546800134,-0.0444654683,-0.734244819
569,1426784,1746890,1.375,0.282,-0.722,78,-53.2,417.4,6.1,19.8,-23,0.407391583,-0.547349467,-0.0412305063,-0.729880673
570,1428853,1746900,1.084,-0.115,-0.845,46,-77,414.3,7.3,18.9,-25.9,0.414441359,-0.548509171,-0.0376903592,-0.725180822
571,1431099,1746900,0.934,-0.547,-0.959,25.5,-104,404.7,7.3,18.9,-25.9,0.421033357,-0.550248726,-0.0342112491,-0.720236824
572,1433295,1746900,1.335,-1.05,-0.938,22.5,-129.2,379.8,7.3,18.9,-25.9,0.427167577,-0.552323984,-0.0311899167,-0.715140233
573,1435463,1746900,1.565,-1.159,-0.837,40.7,-146.3,336.5,7.3,18.9,-25.9,0.432813501,-0.554429762,-0.029114658,-0.710196234
574,1438177,1746910,1.604,-1.3,-0.751,76.6,-150.7,281.4,8.3,18.9,-24.5,0.437971129,-0.556199835,-0.0283211768,-0.705648976
575,1440645,1746910,1.663,-1.39,-0.627,119.7,-141.4,228.9,8.3,18.9,-24.5,0.442854091,-0.557390057,-0.0287484359,-0.701651051
576,1444334,1746910,1.538,-1.435,-0.652,158.1,-121.5,194.3,8.3,18.9,-24.5,0.447676016,-0.557817316,-0.0299691763,-0.69820246
577,1446733,1746910,1.222,-1.406,-0.689,183.9,-98.1,187.2,8.3,18.9,-24.5,0.45271157,-0.557634205,-0.0314645833,-0.695028535
578,1448230,1746920,1.087,-1.173,-0.526,195.3,-80.5,209.6,7.7,17.6,-25.3,0.458174383,-0.557054353,-0.0326548051,-0.691824091
579,1452306,1746920,2.811,0.201,1.881,194.1,-79.3,255.4,7.7,17.6,-25.3,0.464339122,-0.556474502,-0.0332346568,-0.68816187
580,1454438,1746920,5.53,1.202,3.363,180.2,-104.6,311.6,7.7,17.6,-25.3,0.471114231,-0.556443983,-0.0332346568,-0.683584094
581,1456155,1746920,8.025,2.098,3.534,152.8,-166.7,364.9,7.7,17.6,-25.3,0.478255562,-0.557603687,-0.0328073977,-0.677663503
582,1458818,1746930,8.012,3.52,1.054,125.5,-271.6,409,8.3,16.3,-26.5,0.485610523,-0.560563982,-0.0325022126,-0.66994232
583,1461118,1746930,7.953,5.01,-1.993,129.9,-402.1,441.8,8.3,16.3,-26.5,0.493331706,-0.56532487,-0.0332956938,-0.660206915
584,1463374,1746930,6.481,7.364,-6.582,207.4,-512.7,453.4,8.3,16.3,-26.5,0.501998962,-0.570726646,-0.0361644337,-0.648762474
585,1465852,1746930,3.682,7.865,-8.077,402.5,-554.5,415.9,8.3,16.3,-26.5,0.512375256,-0.574419385,-0.0427564318,-0.636890774
586,1468038,1746940,-1.006,7.949,-7.121,754.5,-496,290,7,15.4,-27.7,0.525284585,-0.573015534,-0.0551774651,-0.626606037
587,1470479,1746940,-0.742,7.964,-3.215,1210.2,-331.5,64.7,7,15.4,-27.7,0.540696432,-0.563554796,-0.0746787927,-0.620014039
588,1474848,1746940,0.158,7.966,0.041,1618.6,-85.5,-222.8,7,15.4,-27.7,0.55711539,-0.544877468,-0.100283822,-0.61854915
589,1477050,1746940,0.866,7.961,1.582,1769.4,177,-494.5,7,15.4,-27.7,0.571398053,-0.519486068,-0.127780999,-0.622302927
590,1478795,1746950,1.275,7.957,2.025,1577.6,374.6,-680.5,6.1,7.3,-28.4,0.58067568,-0.492446669,-0.152165288,-0.630176702
591,1481085,1746950,0.992,7.765,1.854,1117.9,457.5,-749.4,6.1,7.3,-28.4,0.583605457,-0.46928312,-0.169713431,-0.640552995
592,1483562,1746950,0.513,6.579,1.395,574,435.7,-709.8,6.1,7.3,-28.4,0.581041902,-0.453138829,-0.179387799,-0.651783807
593,1486661,1746950,-0.39,3.703,-0.014,100.8,360.5,-594.2,6.1,7.3,-28.4,0.5749382,-0.444349498,-0.182134465,-0.662404248
594,1488694,1746960,-0.475,2.359,-0.437,-240.6,288.1,-442.1,7.4,5.5,-28.8,0.567308573,-0.441419721,-0.179296243,-0.671651357
595,1490860,1746960,-0.574,1.673,-0.36,-466,249,-289,7.4,5.5,-28.8,0.559495834,-0.442365795,-0.172154912,-0.679403058
596,1493313,1746960,-0.657,1.093,-0.126,-617.6,240.2,-159.4,7.4,5.5,-28.8,0.552018799,-0.445692312,-0.161595508,-0.6859035
597,1495651,1746960,-0.764,0.049,0.112,-732.7,240.7,-65.4,7.4,5.5,-28.8,0.544694357,-0.450605792,-0.148350475,-0.691518906
598,1498310,1746970,-0.792,-0.344,0.125,-835.4,228.9,-10.7,8.5,7.9,-28.2,0.536942656,-0.456984161,-0.13309122,-0.696462905
599,1500660,1746970,-0.743,-0.775,0.085,-937.2,193.8,2.3,8.5,7.9,-28.2,0.528092288,-0.464918973,-0.116519669,-0.700949126
600,1504368,1746970,-0.699,-1.265,-0.031,-1039.2,135.1,-27.6,8.5,7.9,-28.2,0.517349773,-0.474623859,-0.0993377483,-0.705099643
601,1506389,1746970,-0.35,-1.881,-0.256,-1134.1,61,-99.6,8.5,7.9,-28.2,0.504043703,-0.486129337,-0.082186346,-0.709097568
602,1508619,1746980,-0.125,-2.206,-0.31,-1210.4,-16.9,-206.5,9.4,12.4,-26.9,0.487777337,-0.499160741,-0.0658284249,-0.713095492
603,1511169,1746980,0.139,-2.437,-0.201,-1255.6,-89,-333.2,9.4,12.4,-26.9,0.468611713,-0.513229774,-0.0508133183,-0.717184973
604,1513370,1746980,0.669,-3.218,-0.041,-1261.1,-151.1,-457.7,9.4,12.4,-26.9,0.446943571,-0.527756584,-0.0377513962,-0.721274453
605,1517371,1746980,1.377,-4.059,-0.053,-1227.1,-203.8,-556,9.4,12.4,-26.9,0.423718986,-0.542222358,-0.0268257698,-0.72502823
606,1519792,1746990,3.038,-5.843,-0.264,-1163.5,-247.2,-608.8,8.9,18.4,-24.6,0.400006104,-0.556321909,-0.0178838466,-0.728110599
607,1522262,1746990,4.837,-8,-1.281,-1095.4,-285.9,-597.9,8.9,18.4,-24.6,0.376934111,-0.569963683,-0.0102237007,-0.730002747
608,1524488,1746990,3.998,-8.112,-3.896,-1045.5,-333.5,-497.3,8.9,18.4,-24.6,0.355815302,-0.583574938,-0.00250251778,-0.72994171
609,1526788,1746990,3.08,-8.101,-3.19,-987.4,-394.7,-298.1,8.9,18.4,-24.6,0.338358715,-0.597338786,0.00631733146,-0.72707297
610,1528812,1747000,2.142,-7.448,-1.596,-849.9,-446.8,-40,6.3,23.4,-20.2,0.326639607,-0.610553301,0.015991699,-0.721243934
611,1531136,1747000,1.595,-5.571,-0.003,-584.4,-451.1,194.1,6.3,23.4,-20.2,0.322031312,-0.621662038,0.0245368816,-0.71355327
612,1533291,1747000,1.383,-2.866,1.761,-234.6,-390.1,335.7,6.3,23.4,-20.2,0.324259163,-0.629169591,0.0299996948,-0.705740532
613,1535855,1747000,1.425,-2.213,1.853,91.4,-283.1,377,6.3,23.4,-20.2,0.33149205,-0.632587664,0.0317697684,-0.699209571
614,1538161,1747010,1.359,-1.862,1.665,308.7,-163.7,356.7,6.2,23.2,-22,0.341288491,-0.632587664,0.0307626576,-0.694540239
615,1540824,1747010,1.231,-1.398,0.939,403.2,-57,319.1,6.2,23.2,-22,0.351695303,-0.630176702,0.0286568804,-0.691579943
616,1543058,1747010,1.151,-1.321,0.521,417.3,26.7,287.6,6.2,23.2,-22,0.361735893,-0.626361888,0.0264900662,-0.689962462
617,1546717,1747010,1.075,-1.22,0.158,406.9,87.8,265.7,6.2,23.2,-22,0.371227149,-0.62163152,0.0247199927,-0.689260537
618,1548969,1747020,0.976,-1.055,-0.121,410.8,129.9,248.3,6.9,21.2,-23.2,0.380443739,-0.616168706,0.0229499191,-0.689199499
619,1551168,1747020,0.897,-0.755,-0.52,441.4,156.6,229.9,6.9,21.2,-23.2,0.389721366,-0.610003967,0.0207220679,-0.689565722
620,1553545,1747020,0.9,-0.56,-0.641,492.6,169.7,209.2,6.9,21.2,-23.2,0.399334696,-0.603137303,0.0175481429,-0.690237129
621,1555718,1747020,0.932,-0.37,-0.725,549.9,170.2,187.9,6.9,21.2,-23.2,0.409283731,-0.595660268,0.0132145146,-0.690969573
622,1559715,1747030,0.949,0.117,-0.734,601.2,160.8,170.2,8.3,19.4,-24.7,0.419598987,-0.587755974,0.00778221992,-0.69164098
623,1561287,1747030,0.923,0.349,-0.687,640.1,145.3,160.7,8.3,19.4,-24.7,0.430158391,-0.579607532,0.00152592547,-0.692068239
624,1563746,1747030,0.916,0.619,-0.632,666.7,128.3,162,8.3,19.4,-24.7,0.440961943,-0.571337016,-0.00524918363,-0.692129276
625,1566019,1747030,0.929,0.892,-0.547,684.6,112.2,173.9,8.3,19.4,-24.7,0.452101199,-0.563005463,-0.0123599963,-0.691702017
626,1568296,1747040,0.823,1.45,-0.311,697.4,97.6,193.2,8.8,16.6,-25.9,0.46354564,-0.554643391,-0.0195318461,-0.690694906
627,1570748,1747040,0.774,1.729,-0.138,705.7,83.6,215.2,8.8,16.6,-25.9,0.475295267,-0.546250801,-0.0267036958,-0.689138462
628,1574898,1747040,0.682,2.017,0.097,708.3,69.3,235.1,8.8,16.6,-25.9,0.487258522,-0.537919248,-0.033845027,-0.687032685
629,1576980,1747040,0.622,2.289,0.364,702.2,53.5,247.5,8.8,16.6,-25.9,0.499191259,-0.529770806,-0.0408948027,-0.684408094
630,1579265,1747050,0.404,2.78,0.876,682.6,35.4,247.7,9.8,15.2,-25.6,0.510757775,-0.521958068,-0.0478225043,-0.681447798
631,1581279,1747050,0.328,2.946,1.041,641.7,15.1,232.1,9.8,15.2,-25.6,0.521469771,-0.514755699,-0.0545365764,-0.678273873
632,1583280,1747050,0.23,2.972,1.09,569.7,-5.7,199.6,9.8,15.2,-25.6,0.530747398,-0.508560442,-0.0607928709,-0.675191504
633,1585774,1747050,0.024,2.497,0.817,460.1,-25.8,151.8,9.8,15.2,-25.6,0.538041322,-0.503799554,-0.0661946471,-0.672505875
634,1587996,1747060,0.119,2.064,0.554,316.3,-44.3,91.9,9.7,11.7,-27.5,0.54280221,-0.500839259,-0.0703451643,-0.670461135
635,1592051,1747060,0.3,1.763,0.359,156.2,-62.2,22.1,9.7,11.7,-27.5,0.544724876,-0.499923704,-0.0731223487,-0.669270913
636,1594367,1747060,0.432,1.53,0.224,5.1,-79.2,-55,9.7,11.7,-27.5,0.543839839,-0.500930815,-0.0747398297,-0.669057283
637,1596360,1747060,0.699,1.091,0.094,-115.7,-93.3,-135,9.7,11.7,-27.5,0.540452284,-0.503463851,-0.0756248665,-0.669820246
638,1598581,1747070,0.804,0.898,0.101,-198.5,-101.6,-210.1,9.5,11.4,-27.5,0.53501999,-0.506912442,-0.0762352367,-0.671498764
639,1600994,1747070,0.917,0.704,0.118,-247,-103.8,-272.7,9.5,11.4,-27.5,0.528092288,-0.51084933,-0.0768456069,-0.673940245
640,1603083,1747070,1.034,0.589,0.159,-270.7,-102.3,-317.7,9.5,11.4,-27.5,0.520218513,-0.51493881,-0.0775780511,-0.676870022
641,1606330,1747070,1.224,0.301,0.223,-280.5,-101.2,-343,9.5,11.4,-27.5,0.511795404,-0.518997772,-0.0784325694,-0.680074465
642,1608594,1747080,1.283,0.175,0.261,-286.4,-103.6,-348.2,8.5,13,-27.4,0.503189184,-0.523117771,-0.0792870876,-0.68324839
643,1610941,1747080,1.326,0.058,0.3,-295.9,-110.7,-333.6,8.5,13,-27.4,0.494613483,-0.527420881,-0.0798974578,-0.68611713
644,1613087,1747080,1.348,-0.286,0.3,-313.1,-121.9,-301.4,8.5,13,-27.4,0.48628193,-0.532059694,-0.0799890133,-0.688467055
645,1617661,1747080,1.367,-0.423,0.277,-338.1,-136.2,-255.8,8.5,13,-27.4,0.478225043,-0.537217322,-0.0793176061,-0.690176092
646,1619809,1747090,1.382,-0.556,0.257,-367,-151.8,-202.6,7.7,15.1,-27,0.470595416,-0.542954802,-0.0777306436,-0.691091647
647,1621945,1747090,1.366,-0.728,0.211,-394.2,-166.5,-148,7.7,15.1,-27,0.463362529,-0.549241615,-0.0752586444,-0.691274758
648,1623318,1747090,1.369,-0.947,0.203,-413.7,-177.1,-96.9,7.7,15.1,-27,0.456648457,-0.555925169,-0.0719626453,-0.690786462
649,1626908,1747090,1.329,-1.11,0.196,-421.5,-181.2,-52.2,7.7,15.1,-27,0.4504532,-0.562730796,-0.0680562761,-0.689748833
650,1629158,1747100,1.321,-1.169,0.212,-416.3,-178.3,-14.5,6.8,16.6,-26.1,0.444837794,-0.569475387,-0.0637226478,-0.688283944
651,1631391,1747100,1.266,-1.402,0.202,-399.2,-169.7,16.2,6.8,16.6,-26.1,0.439863277,-0.575884274,-0.0591143529,-0.686544389
652,1633752,1747100,1.223,-1.437,0.211,-372.1,-157.3,40.9,6.8,16.6,-26.1,0.435590686,-0.581835383,-0.0545670949,-0.684621723
653,1636363,1747100,1.199,-1.507,0.211,-337.1,-143.1,59.4,6.8,16.6,-26.1,0.431989502,-0.587237159,-0.0501419111,-0.682607501
654,1638669,1747110,1.18,-1.526,0.227,-296.2,-127.3,72,6.5,17.8,-25.5,0.429120762,-0.591998047,-0.0460219123,-0.680623798
655,1641757,1747110,1.125,-1.576,0.213,-251.6,-110.3,80.2,6.5,17.8,-25.5,0.426953948,-0.596057009,-0.0422681356,-0.678670614
656,1643180,1747110,1.097,-1.579,0.198,-205.5,-92.3,85.9,6.5,17.8,-25.5,0.425458541,-0.599414045,-0.0389721366,-0.676839503
657,1646272,1747110,1.086,-1.548,0.213,-159.5,-73.9,90.7,6.5,17.8,-25.5,0.424634541,-0.602038636,-0.0361033967,-0.675160985
658,1648559,1747120,1.098,-1.434,0.252,-114.6,-56,95.5,6.4,19.1,-24.9,0.424512467,-0.60402234,-0.0336924345,-0.67363506
659,1651786,1747120,1.096,-1.121,0.345,-73.3,-39.2,101,6.4,19.1,-24.9,0.425000763,-0.605334635,-0.0316476943,-0.672231208
660,1653884,1747120,1.068,-1.062,0.342,-40.3,-24.4,109.2,6.4,19.1,-24.9,0.426038392,-0.606128117,-0.0297860652,-0.670918912
661,1656169,1747120,1.069,-1.004,0.342,-19,-12.8,122,6.4,19.1,-24.9,0.427564318,-0.606585894,-0.0280465102,-0.669637135
662,1658017,1747130,1.081,-0.898,0.338,-8.8,-5,140.3,6.3,19.2,-25.2,0.429486984,-0.606830042,-0.0261238441,-0.668263802
663,1660923,1747130,1.112,-0.821,0.337,-4.9,-1.1,161.3,6.3,19.2,-25.2,0.431775872,-0.606982635,-0.0239265114,-0.666737877
664,1664949,1747130,1.108,-0.782,0.341,-2.5,-0.2,180.4,6.3,19.2,-25.2,0.434369945,-0.607104709,-0.0214850307,-0.66502884
665,1666372,1747130,1.101,-0.754,0.349,1.7,-1,193.2,6.3,19.2,-25.2,0.437177648,-0.607165746,-0.0189825129,-0.663167211
666,1668762,1747140,1.172,-0.603,0.367,9.6,-3.3,196.8,6.6,19.1,-25,0.440168462,-0.607196265,-0.0165410321,-0.661244545
667,1671151,1747140,1.203,-0.549,0.37,21.1,-7.2,190.9,6.6,19.1,-25,0.443189795,-0.607165746,-0.014374218,-0.65929136
668,1673464,1747140,1.195,-0.517,0.37,35.3,-12.3,176.8,6.6,19.1,-25,0.446180609,-0.60707419,-0.0126651814,-0.657399213
669,1676294,1747140,1.219,-0.451,0.354,50.2,-17.8,157,6.6,19.1,-25,0.449110385,-0.606860561,-0.0114749596,-0.655629139
670,1678504,1747150,1.27,-0.315,0.388,64.5,-22.2,134.2,7.3,17.9,-24.9,0.45188757,-0.606585894,-0.0108340709,-0.65398114
671,1681795,1747150,1.271,-0.26,0.395,76.5,-24,111.1,7.3,17.9,-24.9,0.454451125,-0.606189154,-0.0107119968,-0.65254677
672,1683790,1747150,1.247,-0.256,0.368,84.6,-22.4,89.9,7.3,17.9,-24.9,0.456862087,-0.605700858,-0.0109256264,-0.651326029
673,1686059,1747150,1.192,-0.22,0.381,88.2,-16.8,71.7,7.3,17.9,-24.9,0.459028901,-0.605059969,-0.0114139225,-0.650379955
674,1689540,1747160,1.224,-0.127,0.423,88,-7.6,56.9,6.8,18.4,-24.7,0.461012604,-0.604297006,-0.0119937742,-0.64967803
675,1691100,1747160,1.213,-0.122,0.439,85.2,3.9,45.3,6.8,18.4,-24.7,0.462782678,-0.603411969,-0.0125431074,-0.649250771
676,1694323,1747160,1.181,-0.142,0.424,79.8,16.6,37.2,6.8,18.4,-24.7,0.46436964,-0.60237434,-0.0130314035,-0.64906766
677,1695748,1747160,1.154,-0.137,0.437,72.1,29.2,32.5,6.8,18.4,-24.7,0.465773492,-0.601245155,-0.0133365886,-0.649098178
678,1698844,1747170,1.13,-0.16,0.441,63,40.6,30.6,7,18.1,-25,0.467055269,-0.600024415,-0.0133976257,-0.649311808
679,1701354,1747170,1.115,-0.187,0.445,54.6,50.4,30.8,7,18.1,-25,0.468214972,-0.598773156,-0.0132450331,-0.649647511
680,1703571,1747170,1.111,-0.207,0.445,48.1,58,32.8,7,18.1,-25,0.469313639,-0.59746086,-0.0129093295,-0.650044252
681,1706748,1747170,1.033,-0.26,0.466,44.2,63.8,36.4,7,18.1,-25,0.470442824,-0.596118046,-0.0124210334,-0.650502029
682,1708896,1747180,0.982,-0.29,0.475,42.8,68.3,40.9,6.4,17.9,-24.9,0.471602527,-0.594714194,-0.0117801447,-0.650959807
683,1711153,1747180,0.935,-0.317,0.484,43.8,71.6,45.2,6.4,17.9,-24.9,0.472823267,-0.593249306,-0.0110782189,-0.651387066
684,1713314,1747180,0.915,-0.344,0.504,46.7,73.2,48.1,6.4,17.9,-24.9,0.474135563,-0.59172338,-0.0103762932,-0.651844844
685,1717378,1747180,0.908,-0.363,0.52,51.1,72.7,49.4,6.4,17.9,-24.9,0.475508896,-0.590197455,-0.00970488601,-0.652241585
686,1719339,1747190,0.904,-0.371,0.528,56.3,70.4,50,6.5,17.4,-25.4,0.476943266,-0.588610492,-0.00912503433,-0.652638325
687,1720864,1747190,0.904,-0.394,0.52,61.5,67,50.5,6.5,17.4,-25.4,0.478469192,-0.58702353,-0.00866725669,-0.65294351
688,1724163,1747190,0.931,-0.43,0.504,66.7,63.4,51.5,6.5,17.4,-25.4,0.480086673,-0.585436567,-0.00830103458,-0.653218177
689,1726251,1747190,0.993,-0.392,0.503,72.6,60.1,52.6,6.5,17.4,-25.4,0.481765191,-0.583819086,-0.00802636799,-0.653401288
690,1728532,1747200,1.013,-0.381,0.487,79,57.5,53.9,9.2,16.4,-25.3,0.483535264,-0.582171087,-0.00787377544,-0.65355388
691,1730482,1747200,1.024,-0.354,0.42,84.2,55.1,54.7,9.2,16.4,-25.3,0.485396893,-0.580492569,-0.00778221992,-0.653675954
692,1734561,1747200,1.013,-0.303,0.389,86.3,52,54.4,9.2,16.4,-25.3,0.487289041,-0.578844569,-0.00778221992,-0.653736991
693,1736747,1747200,0.981,-0.275,0.342,83.7,46.8,51.6,9.2,16.4,-25.3,0.489089633,-0.577318644,-0.00781273843,-0.65376751
694,1738868,1747210,1.001,-0.245,0.314,76.1,39.3,45.4,7.9,17.1,-25.4,0.490707114,-0.575945311,-0.00790429395,-0.65376751
695,1740945,1747210,1.051,-0.238,0.247,63.4,31,36.7,7.9,17.1,-25.4,0.49201941,-0.574816126,-0.00802636799,-0.653736991
696,1743250,1747210,1.059,-0.254,0.219,46.8,24.7,28.1,7.9,17.1,-25.4,0.493026521,-0.573961608,-0.00808740501,-0.653736991
697,1746139,1747210,1.023,-0.296,0.204,27.4,23.5,22.2,7.9,17.1,-25.4,0.493667409,-0.573351238,-0.00793481246,-0.653798029
698,1748333,1747220,0.96,-0.331,0.174,7.1,28.7,19.4,7.9,16.8,-25,0.49406415,-0.572862941,-0.00747703482,-0.653950621
699,1751636,1747220,0.82,-0.364,0.142,-11.8,39.4,17.8,7.9,16.8,-25,0.494155705,-0.572435682,-0.00668355358,-0.654225288
700,1753214,1747220,0.773,-0.359,0.143,-28.2,52.5,14.6,7.9,16.8,-25,0.494033631,-0.571977905,-0.00552385022,-0.654744102
701,1756342,1747220,0.737,-0.397,0.135,-41.6,65,8.2,7.9,16.8,-25,0.493636891,-0.571489608,-0.00411999878,-0.655476547
702,1758672,1747230,0.698,-0.439,0.172,-52,74.6,-0.1,7.8,17.1,-25.4,0.492996002,-0.571001312,-0.0025635548,-0.656392102
703,1760719,1747230,0.702,-0.455,0.207,-59.5,81.2,-7.4,7.8,17.1,-25.4,0.492141484,-0.570482498,-0.000946073794,-0.657490768
704,1763795,1747230,0.624,-0.508,0.244,-64.3,85.7,-10.5,7.8,17.1,-25.4,0.49119541,-0.569933164,0.000732444227,-0.65868099
705,1766164,1747230,0.534,-0.558,0.23,-65.9,88.6,-7.9,7.8,17.1,-25.4,0.490249336,-0.569353313,0.00253303629,-0.659871212
706,1768409,1747240,0.445,-0.525,0.231,-63.7,89.9,0.1,9,17.2,-24.5,0.489455855,-0.568742943,0.00442518387,-0.660969878
707,1771386,1747240,0.417,-0.489,0.22,-57,89.5,11.6,9,17.2,-24.5,0.488906522,-0.568071535,0.00634784997,-0.661946471
708,1773659,1747240,0.296,-0.55,0.187,-46.9,88.2,23.2,9,17.2,-24.5,0.488662374,-0.567278054,0.00823999756,-0.662800989
709,1775846,1747240,0.166,-0.626,0.123,-33.8,86,31.6,9,17.2,-24.5,0.488662374,-0.566393017,0.0100405896,-0.663502915
710,1779088,1747250,0.359,-0.352,0.166,-16.1,81.7,34.2,10.2,16.9,-24.6,0.48893704,-0.565385907,0.0115665151,-0.664143803
711,1781172,1747250,0.194,-0.498,0.111,5.7,74.7,31.8,10.2,16.9,-24.6,0.489455855,-0.564226203,0.0126956999,-0.664723655
712,1784365,1747250,0.19,-0.486,0.107,30.7,65.7,25.2,10.2,16.9,-24.6,0.490188299,-0.562944426,0.0132450331,-0.665272988
713,1785741,1747250,0.174,-0.443,0.052,57.8,55.2,14.6,10.2,16.9,-24.6,0.491103854,-0.561510056,0.0131839961,-0.665822321
714,1788173,1747260,0.261,-0.307,0.097,87.4,43.1,-1.1,9.8,16.9,-24.7,0.492141484,-0.559953612,0.0123599963,-0.666371654
715,1790404,1747260,0.246,-0.26,0.094,118.8,29.2,-22.4,9.8,16.9,-24.7,0.49324015,-0.558244575,0.0106814783,-0.667012543
716,1794154,1747260,0.242,-0.209,0.117,148.8,13.8,-47.7,9.8,16.9,-24.7,0.494369335,-0.556443983,0.00808740501,-0.667714469
717,1795601,1747260,0.317,-0.042,0.151,173.9,-2.4,-74.6,9.8,16.9,-24.7,0.495376446,-0.554612873,0.00460829493,-0.668538469
718,1798617,1747270,0.34,-0.019,0.119,191.5,-19.1,-100.9,10.1,16.2,-24.9,0.496230964,-0.552842799,0.000396740623,-0.669392987
719,1801771,1747270,0.411,0.072,0.133,201,-36,-125.5,10.1,16.2,-24.9,0.496810816,-0.551164281,-0.00442518387,-0.670308542
720,1803677,1747270,0.474,0.165,0.132,201.9,-52.7,-148,10.1,16.2,-24.9,0.497054964,-0.549729911,-0.00973540452,-0.671254616
721,1806936,1747270,0.517,0.223,0.131,195.7,-69.2,-168.6,10.1,16.2,-24.9,0.496902371,-0.548570208,-0.0153813288,-0.67220069
722,1809262,1747280,0.552,0.261,0.138,183.6,-85.7,-187.6,9.9,15.7,-25.5,0.49632252,-0.547776727,-0.0212408826,-0.673146764
723,1811386,1747280,0.638,0.299,0.128,167.2,-102.6,-205.1,9.9,15.7,-25.5,0.495254372,-0.547349467,-0.0272225105,-0.6740318
724,1813592,1747280,0.803,0.413,0.148,147.9,-119.5,-221,9.9,15.7,-25.5,0.493697928,-0.547379986,-0.0333567309,-0.674886319
725,1815861,1747280,0.869,0.455,0.163,126,-135.6,-234.5,9.9,15.7,-25.5,0.491622669,-0.547837764,-0.0394909513,-0.675710318
726,1818315,1747290,0.963,0.481,0.165,100.9,-149.7,-244.7,8.9,15.4,-26,0.489089633,-0.548753319,-0.0455030976,-0.676442763
727,1820562,1747290,1.049,0.538,0.202,71.9,-160.5,-251.3,8.9,15.4,-26,0.4860683,-0.550065615,-0.0512710959,-0.67711417
728,1823837,1747290,1.214,0.547,0.215,38.7,-167.3,-253.7,8.9,15.4,-26,0.48258919,-0.551835688,-0.0566728721,-0.67772454
729,1826169,1747290,1.295,0.534,0.198,2,-170.3,-252.6,8.9,15.4,-26,0.478652303,-0.554002503,-0.0615253151,-0.678304392
730,1828538,1747300,1.389,0.509,0.192,-37,-169.5,-249.1,7,15.3,-26.3,0.474288156,-0.556566057,-0.0657673879,-0.678914762
731,1831191,1747300,1.498,0.453,0.175,-76.2,-165,-244.7,7,15.3,-26.3,0.46949675,-0.559434797,-0.069307535,-0.679525132
732,1833691,1747300,1.556,0.408,0.146,-114.2,-156.6,-240.5,7,15.3,-26.3,0.464278085,-0.562547685,-0.0721762749,-0.680227058
733,1835979,1747300,1.552,0.354,0.127,-149.4,-144.2,-236.2,7,15.3,-26.3,0.458693197,-0.565813166,-0.0743125706,-0.681081576
734,1838561,1747310,1.532,0.256,0.112,-181.2,-128.1,-231.5,7.1,15.9,-26.1,0.452803125,-0.569139683,-0.0757469405,-0.682088687
735,1840515,1747310,1.454,0.109,0.086,-208.7,-108.9,-226.4,7.1,15.9,-26.1,0.446638386,-0.572435682,-0.0765404218,-0.683309427
736,1845022,1747310,1.414,0.043,0.071,-230.7,-88.1,-220.9,7.1,15.9,-26.1,0.440321055,-0.575640126,-0.0766930143,-0.684713279
737,1847182,1747310,1.375,-0.026,0.064,-247.1,-67.1,-214.8,7.1,15.9,-26.1,0.433881649,-0.57863094,-0.0763573107,-0.68633076
738,1849590,1747320,1.32,-0.115,0.05,-258.6,-46.6,-207.4,5.9,16.9,-26,0.427411725,-0.581408124,-0.075533311,-0.688131352
739,1851851,1747320,1.222,-0.218,0.032,-266.4,-26.9,-198.7,5.9,16.9,-26,0.421002838,-0.583971679,-0.0743125706,-0.690054018
740,1854497,1747320,1.155,-0.307,0.014,-271.4,-8.1,-188.6,5.9,16.9,-26,0.414654988,-0.586260567,-0.0726950896,-0.692098758
741,1856305,1747320,1.1,-0.365,0.003,-274.2,9.8,-177.5,5.9,16.9,-26,0.408490249,-0.588274789,-0.070741905,-0.694265572
742,1858798,1747330,0.974,-0.523,-0.001,-275.2,26.6,-165.9,5.6,18.3,-25.5,0.402478103,-0.590075381,-0.0684530168,-0.696493423
743,1860738,1747330,0.935,-0.519,0,-274.4,41.8,-154.7,5.6,18.3,-25.5,0.396649068,-0.591601306,-0.0659199805,-0.698782311
744,1863028,1747330,0.881,-0.565,0.004,-271.6,54.6,-144.4,5.6,18.3,-25.5,0.391003143,-0.592883084,-0.0631733146,-0.701101718
745,1867144,1747330,0.818,-0.634,-0.002,-266.7,64.5,-135.7,5.6,18.3,-25.5,0.38554033,-0.59398175,-0.0602740562,-0.703451643
746,1869327,1747340,0.732,-0.671,0,-259.8,71.3,-129.3,5.2,19.4,-24.7,0.380291147,-0.594897305,-0.0573747978,-0.705801569
747,1872151,1747340,0.681,-0.706,0.004,-259.8,71.3,-129.3,5.2,19.4,-24.7,0.375011444,-0.595782342,-0.0544450209,-0.708120975
748,1873889,1747340,0.63,-0.775,-0.006,-251.6,75.2,-125.1,5.2,19.4,-24.7,0.369884335,-0.596514786,-0.0515457625,-0.710379345
749,1876019,1747340,0.591,-0.79,-0.009,-241.8,76.3,-123.3,5.2,19.4,-24.7,0.364909818,-0.597125156,-0.0488296152,-0.712637715
750,1878000,1747350,0.544,-0.75,0.007,-229.9,75.1,-124.1,3.6,20.5,-23.8,0.360057375,-0.597643971,-0.0462660604,-0.714835047
751,1882509,1747350,0.521,-0.746,0,-215.3,71.9,-127.8,3.6,20.5,-23.8,0.355327006,-0.59807123,-0.0439771722,-0.717001862
752,1885143,1747350,0.493,-0.73,0,-198.4,67.2,-133.6,3.6,20.5,-23.8,0.350688192,-0.598437452,-0.0421155431,-0.71907712
753,1885586,1747350,0.458,-0.706,0,-180.7,61.7,-139.9,3.6,20.5,-23.8,0.346171453,-0.598712119,-0.0406506546,-0.72112186
754,1888867,1747360,0.451,-0.678,-0.003,-163.3,55.8,-144.9,5.4,21.6,-23.2,0.341807306,-0.598925748,-0.0395519883,-0.723075045
755,1891325,1747360,0.447,-0.655,-0.01,-146.7,49.2,-148.3,5.4,21.6,-23.2,0.337595752,-0.59910886,-0.0387890255,-0.724936674
756,1893414,1747360,0.435,-0.635,-0.006,-130.5,41.7,-150.3,5.4,21.6,-23.2,0.33353679,-0.599261452,-0.0383617664,-0.726706748
757,1896041,1747360,0.478,-0.55,-0.011,-114.4,33.1,-151.9,5.4,21.6,-23.2,0.329660939,-0.599444563,-0.0383312479,-0.728324229
758,1898200,1747370,0.502,-0.531,-0.015,-97.8,23,-154.3,5.2,22.1,-23.1,0.325937681,-0.599658193,-0.0386059145,-0.729819636
759,1902282,1747370,0.533,-0.457,-0.012,-81.1,11.9,-158.2,5.2,22.1,-23.1,0.322367016,-0.599902341,-0.0393078402,-0.73116245
760,1904525,1747370,0.631,-0.365,-0.014,-64.9,0.2,-163.6,5.2,22.1,-23.1,0.318918424,-0.600207526,-0.0404065065,-0.732352672
761,1906337,1747370,0.69,-0.304,-0.015,-50,-11.3,-170.2,5.2,22.1,-23.1,0.315530869,-0.600573748,-0.041932432,-0.733451338
762,1908699,1747380,0.741,-0.261,-0.017,-37.2,-22.7,-177.8,4.3,22,-22.9,0.312173833,-0.601031526,-0.0438245796,-0.734397412
763,1910967,1747380,0.823,-0.192,-0.01,-27,-33.2,-185.9,4.3,22,-22.9,0.308786279,-0.601580859,-0.0460524308,-0.73525193
764,1913343,1747380,0.96,-0.117,-0.005,-19.9,-43,-194.2,4.3,22,-22.9,0.305368206,-0.602191229,-0.0485549486,-0.736014893
765,1915828,1747380,1.062,-0.04,0.011,-16.2,-51.9,-201.9,4.3,22,-22.9,0.301858577,-0.602923673,-0.0513016144,-0.7366863
766,1918095,1747390,1.144,-0.002,0.033,-21.3,-69.5,-212.8,3.8,22.1,-22.3,0.298074282,-0.603930784,-0.0542008728,-0.737174596
767,1920689,1747390,1.215,0.015,0.048,-21.3,-69.5,-212.8,3.8,22.1,-22.3,0.294289987,-0.604937895,-0.0571306497,-0.737662893
768,1924898,1747390,1.391,0.114,0.095,-30.2,-78.4,-215.1,3.8,22.1,-22.3,0.290322581,-0.606097598,-0.0599688711,-0.738029115
769,1927230,1747390,1.473,0.136,0.109,-42.4,-86.2,-215.1,3.8,22.1,-22.3,0.286172063,-0.607470931,-0.0626850185,-0.738303781
770,1929317,1747400,1.52,0.135,0.132,-57,-91.5,-212.9,1.3,22.3,-22.6,0.281868954,-0.608996857,-0.0651570177,-0.738486892
771,1931304,1747400,1.595,0.177,0.173,-74.3,-93.1,-208.5,1.3,22.3,-22.6,0.277382733,-0.610675375,-0.0672933134,-0.738639485
772,1933537,1747400,1.614,0.154,0.185,-94.5,-90.6,-202.4,1.3,22.3,-22.6,0.272713401,-0.612384411,-0.0690328684,-0.738761559
773,1935766,1747400,1.571,0.104,0.201,-117.9,-84,-194.8,1.3,22.3,-22.6,0.267860958,-0.614154485,-0.0702230903,-0.738975188
774,1938290,1747410,1.497,0.019,0.195,-144,-73.7,-186.5,0.6,22.7,-22.2,0.262825404,-0.61589404,-0.0708334605,-0.739249855
775,1940518,1747410,1.344,-0.153,0.19,-170.9,-60.5,-177.4,0.6,22.7,-22.2,0.25757622,-0.617542039,-0.070802942,-0.739738151
776,1945199,1747410,1.273,-0.226,0.188,-195.5,-45.7,-168.3,0.6,22.7,-22.2,0.252143925,-0.619129002,-0.0701925718,-0.74037904
777,1945587,1747410,1.211,-0.284,0.193,-214.4,-31,-160.3,0.6,22.7,-22.2,0.246589557,-0.620532853,-0.0690633869,-0.741142003
778,1948039,1747420,1.152,-0.334,0.194,-225.3,-17.6,-154.4,-0.1,23.3,-21.7,0.241004669,-0.621814631,-0.0675984985,-0.742057558
779,1950769,1747420,1.066,-0.371,0.196,-228,-6,-151.8,-0.1,23.3,-21.7,0.235450301,-0.62285226,-0.0659810175,-0.743095187
780,1953362,1747420,1.027,-0.382,0.208,-223.8,3.9,-151.6,-0.1,23.3,-21.7,0.229956969,-0.623706778,-0.064394055,-0.744254891
781,1955651,1747420,1,-0.405,0.213,-215.6,12.5,-152.1,-0.1,23.3,-21.7,0.224555193,-0.624378185,-0.062898648,-0.745475631
782,1960119,1747430,0.964,-0.452,0.206,-205.7,19.6,-151.3,-0.6,24.2,-20.9,0.219336528,-0.624835963,-0.0615253151,-0.746757408
783,1960501,1747430,0.964,-0.46,0.186,-195.3,24.6,-148.7,-0.6,24.2,-20.9,0.214270455,-0.625171667,-0.0602435377,-0.748039186
784,1963195,1747430,0.964,-0.471,0.159,-185.1,26.7,-144.9,-0.6,24.2,-20.9,0.209418012,-0.625385296,-0.0590838343,-0.749320963
785,1965553,1747430,0.932,-0.514,0.128,-174.7,26.5,-141.7,-0.6,24.2,-20.9,0.20474868,-0.625568407,-0.058046205,-0.750541704
786,1969841,1747440,0.956,-0.444,0.112,-151.1,24.5,-144.1,-1,24.5,-20.5,0.200354015,-0.625659963,-0.0574053163,-0.751701407
787,1972211,1747440,1.007,-0.363,0.146,-151.1,24.5,-144.1,-1,24.5,-20.5,0.195928831,-0.625721,-0.0567949461,-0.75286111
788,1974342,1747440,1.051,-0.281,0.18,-137.1,24.2,-151.2,-1,24.5,-20.5,0.191625721,-0.625721,-0.056489761,-0.753990295
789,1976470,1747440,1.2,-0.186,0.228,-123.9,23.4,-160.9,-1,24.5,-20.5,0.187292093,-0.625659963,-0.0565507981,-0.755149998
790,1979627,1747450,1.301,-0.164,0.262,-115.1,20.4,-171.1,-2,25,-20.3,0.182927946,-0.625568407,-0.0569170202,-0.756248665
791,1981913,1747450,1.387,-0.185,0.276,-113.5,14.1,-179.2,-2,25,-20.3,0.178441725,-0.625568407,-0.0574053163,-0.757286294
792,1983791,1747450,1.43,-0.213,0.279,-119.2,4.9,-184.1,-2,25,-20.3,0.173772393,-0.625690481,-0.0579546495,-0.758201849
793,1986132,1747450,1.477,-0.343,0.263,-129.5,-4.4,-185.5,-2,25,-20.3,0.16891995,-0.626026185,-0.0583513901,-0.759025849
794,1988295,1747460,1.476,-0.405,0.255,-139.9,-11.1,-184,-2.4,25.1,-18.9,0.163945433,-0.626483963,-0.0585955382,-0.759697256
795,1990872,1747460,1.472,-0.476,0.247,-145.9,-12.7,-180.2,-2.4,25.1,-18.9,0.158940397,-0.626972259,-0.0586870937,-0.760368664
796,1993055,1747460,1.452,-0.546,0.22,-145,-9.4,-175.1,-2.4,25.1,-18.9,0.154057436,-0.627399518,-0.0587176122,-0.761009552
797,1997542,1747460,1.347,-0.443,0.187,-136.7,-2.4,-169.3,-2.4,25.1,-18.9,0.149357585,-0.627674184,-0.0587786493,-0.761711478
798,1999808,1747470,1.363,-0.368,0.245,-122.1,5.8,-163.4,-3.1,25.5,-17.8,0.144993439,-0.62776574,-0.0589617603,-0.762474441
799,2002046,1747470,1.363,-0.356,0.261,-104.6,12.1,-158.6,-3.1,25.5,-17.8,0.140934477,-0.627674184,-0.0593585009,-0.763267922
800,2004356,1747470,1.321,-0.266,0.289,-89.4,13.9,-155.5,-3.1,25.5,-17.8,0.137119663,-0.627521592,-0.0599383526,-0.764061403
801,2006357,1747470,1.266,-0.183,0.294,-80.9,10.2,-154,-3.1,25.5,-17.8,0.133457442,-0.627399518,-0.0606707968,-0.764763329
802,2008574,1747480,1.251,-0.124,0.266,-81.1,2.4,-153.2,-3.9,25.4,-17,0.129795221,-0.627368999,-0.0614032411,-0.765343181
803,2010771,1747480,1.258,-0.089,0.235,-89.4,-7.3,-152.4,-3.9,25.4,-17,0.126010926,-0.62755211,-0.0620136113,-0.76577044
804,2013297,1747480,1.332,-0.106,0.159,-104,-16.9,-151.8,-3.9,25.4,-17,0.122043519,-0.627887814,-0.0624103519,-0.766106143
805,2015643,1747480,1.328,-0.044,0.143,-121.7,-24.4,-152.4,-3.9,25.4,-17,0.117770928,-0.628406629,-0.0625324259,-0.766319773
806,2019339,1747490,1.305,0.006,0.148,-149.9,-26.4,-155.5,-4.7,25.3,-15.8,0.113101596,-0.629016999,-0.0622272408,-0.766563921
807,2021376,1747490,1.293,-0.008,0.144,-149.9,-26.4,-155.5,-4.7,25.3,-15.8,0.108401746,-0.629627369,-0.0619220557,-0.766777551
808,2023677,1747490,1.285,-0.055,0.117,-156.8,-21.8,-154.8,-4.7,25.3,-15.8,0.10361034,-0.630146184,-0.0614642781,-0.767052217
809,2025889,1747490,1.273,-0.078,0.117,-159.7,-15.7,-151.6,-4.7,25.3,-15.8,0.0988494522,-0.630542924,-0.0609149449,-0.767387921
810,2028432,1747500,1.207,-0.022,0.134,-159.8,-9.4,-147.6,-5.5,26,-19.3,0.0941801202,-0.630848109,-0.0603045747,-0.767784661
811,2030715,1747500,1.215,-0.034,0.157,-158.2,-3.3,-145,-5.5,26,-19.3,0.0895718253,-0.63103122,-0.059602649,-0.768211921
812,2034379,1747500,1.211,0.012,0.161,-156.7,2.1,-144.8,-5.5,26,-19.3,0.0849635304,-0.631122776,-0.0589922788,-0.768730735
813,2036452,1747500,1.25,-0.003,0.157,-156.5,6.6,-146.7,-5.5,26,-19.3,0.0803552355,-0.631092257,-0.0583819086,-0.769280068
814,2038732,1747510,1.278,-0.004,0.152,-158.5,10.1,-149.7,-6.1,26.1,-16.1,0.0756859035,-0.631000702,-0.0577715384,-0.769890439
815,2040899,1747510,1.352,-0.04,0.123,-162.5,12.7,-152.6,-6.1,26.1,-16.1,0.0708944975,-0.630848109,-0.0571306497,-0.770500809
816,2043470,1747510,1.344,-0.009,0.127,-167.9,15.3,-154.7,-6.1,26.1,-16.1,0.066011536,-0.630664998,-0.0563982055,-0.771141697
817,2045747,1747510,1.363,-0.025,0.119,-173.8,18.5,-155.3,-6.1,26.1,-16.1,0.0610065004,-0.630390332,-0.0555742058,-0.771843623
818,2047996,1747520,1.344,0.006,0.123,-179.4,22.8,-154.1,-6.8,26.3,-16.2,0.0559404279,-0.630054628,-0.0546586505,-0.772576067
819,2052515,1747520,1.324,-0.017,0.1,-184.8,28.2,-151.5,-6.8,26.3,-16.2,0.0509048738,-0.629627369,-0.0535905026,-0.77333903
820,2052941,1747520,1.301,-0.024,0.101,-190.2,34.3,-148.3,-6.8,26.3,-16.2,0.0458388012,-0.629078036,-0.0523697623,-0.774193548
821,2055529,1747520,1.277,-0.051,0.09,-195,40.6,-144.7,-6.8,26.3,-16.2,0.0407727287,-0.628406629,-0.0510269478,-0.775109104
822,2060028,1747530,1.249,-0.152,0.063,-198.5,46.6,-141.1,-7,26.4,-15.7,0.0356761376,-0.627613147,-0.0495620594,-0.776085696
823,2060470,1747530,1.206,-0.156,0.064,-199.6,52,-137.2,-7,26.4,-15.7,0.0307016205,-0.626758629,-0.0480056154,-0.777092807
824,2063052,1747530,1.105,-0.083,0.089,-198.2,56.5,-132.3,-7,26.4,-15.7,0.025818659,-0.625782037,-0.0464186529,-0.778160955
825,2067513,1747530,1.09,-0.107,0.074,-194.9,60.5,-126.5,-7,26.4,-15.7,0.0210577715,-0.624713889,-0.0448011719,-0.779259621
826,2067979,1747540,1.066,-0.142,0.011,-192.1,63.6,-120.3,-7.8,26.8,-15.2,0.0164494766,-0.623584704,-0.0431531724,-0.780358287
827,2070522,1747540,1.058,-0.169,-0.019,-191.4,65.5,-114.9,-7.8,26.8,-15.2,0.0119632557,-0.622425001,-0.0414441359,-0.781456954
828,2073157,1747540,1.03,-0.176,-0.03,-193,65.9,-110.8,-7.8,26.8,-15.2,0.00750755333,-0.621265297,-0.0396435438,-0.78255562
829,2075763,1747540,0.995,-0.235,-0.068,-195.4,65.1,-107.4,-7.8,26.8,-15.2,0.00308236946,-0.620075076,-0.0377513962,-0.783593249
830,2078194,1747550,0.971,-0.246,-0.091,-196.8,63.5,-104.1,-8.5,26.8,-14.4,0.0012817774,0.618915372,0.0357676931,0.784630879
831,2080530,1747550,0.955,-0.269,-0.107,-196.7,61.6,-100.3,-8.5,26.8,-14.4,0.00561540574,0.617755669,0.03378399,0.785607471
832,2083301,1747550,0.928,-0.281,-0.134,-194.9,59.5,-96.3,-8.5,26.8,-14.4,0.00982696005,0.616626484,0.0317392499,0.786523026
833,2085533,1747550,0.861,-0.299,-0.152,-191.8,57.6,-91.8,-8.5,26.8,-14.4,0.0139469588,0.615527818,0.0296639912,0.787408063
834,2089370,1747560,0.83,-0.303,-0.155,-188.3,55.7,-86.9,-8.4,27.3,-14,0.0179448836,0.61445967,0.0276497696,0.788232063
835,2091194,1747560,0.791,-0.306,-0.147,-184.9,53.8,-81.4,-8.4,27.3,-14,0.0217902158,0.613391522,0.0255745109,0.789025544
836,2093371,1747560,0.775,-0.325,-0.146,-181.8,51.5,-75.9,-8.4,27.3,-14,0.0255134739,0.612384411,0.0234382153,0.789788507
837,2096063,1747560,0.775,-0.321,-0.099,-178.7,48.7,-70.4,-8.4,27.3,-14,0.029053621,0.611407819,0.0213629566,0.790459914
838,2098720,1747570,0.779,-0.333,-0.095,-175.4,45.7,-65.2,-8.8,27.4,-13.3,0.0325022126,0.610461745,0.019226661,0.791100803
839,2100970,1747570,0.783,-0.352,-0.099,-171.9,42.6,-60.5,-8.8,27.4,-13.3,0.0358287301,0.609576708,0.0170903653,0.791711173
840,2103199,1747570,0.779,-0.36,-0.064,-168.3,39.7,-56.1,-8.8,27.4,-13.3,0.0390331736,0.60872219,0.0149845882,0.792260506
841,2107137,1747570,0.772,-0.371,-0.04,-164.9,36.9,-52.2,-8.8,27.4,-13.3,0.0421155431,0.607928709,0.0128482925,0.792748802
842,2109884,1747580,0.764,-0.363,-0.017,-161.4,34.4,-48.3,-9.2,27.4,-12.8,0.0450758385,0.607165746,0.0107425153,0.79320658
843,2112033,1747580,0.787,-0.387,-0.013,-157.6,32.3,-44.1,-9.2,27.4,-12.8,0.0479445784,0.606433302,0.00863673818,0.79360332
844,2114483,1747580,0.811,-0.415,0.028,-153.9,30.5,-39.7,-9.2,27.4,-12.8,0.0506607257,0.605731376,0.00653096103,0.794000061
845,2116867,1747580,0.807,-0.415,0.056,-150.1,29.1,-35.4,-9.2,27.4,-12.8,0.053254799,0.605059969,0.00442518387,0.794366283
846,2118544,1747590,0.819,-0.438,0.079,-146.2,28.1,-31.1,-9.5,28.1,-12.3,0.0556962798,0.604388562,0.00231940672,0.794701987
847,2120794,1747590,0.823,-0.454,0.099,-141.9,27.6,-26.6,-9.5,28.1,-12.3,0.058046205,0.603747673,0.000244148076,0.79503769
848,2123433,1747590,0.815,-0.481,0.134,-137.5,27.5,-22,-9.5,28.1,-12.3,0.0602435377,0.603076266,-0.00177007355,0.795373394
849,2127073,1747590,0.815,-0.485,0.146,-133.2,27.7,-17.6,-9.5,28.1,-12.3,0.0622882778,0.602435377,-0.00381481368,0.795709098
850,2128937,1747600,0.811,-0.488,0.154,-128.8,27.8,-13.3,-9.6,27.7,-10.6,0.0642414624,0.60176397,-0.00585955382,0.796044801
851,2131263,1747600,0.819,-0.527,0.185,-124.8,27.7,-9.1,-9.6,27.7,-10.6,0.066011536,0.601092563,-0.00784325694,0.796380505
852,2134713,1747600,0.808,-0.523,0.197,-120.9,27.5,-5.3,-9.6,27.7,-10.6,0.0677205725,0.600451674,-0.00985747856,0.79668569
853,2137053,1747600,0.773,-0.503,0.213,-117,27.4,-1.6,-9.6,27.7,-10.6,0.0692770165,0.599810785,-0.0118106632,0.797021393
854,2138996,1747610,0.753,-0.499,0.214,-113.1,27.6,1.9,-9.7,27.6,-10.4,0.070741905,0.599139378,-0.0137638478,0.797357097
855,2142741,1747610,0.773,-0.515,0.209,-109.6,27.7,5.3,-9.7,27.6,-10.4,0.0720847194,0.598498489,-0.0157170324,0.797692801
856,2143228,1747610,0.769,-0.507,0.217,-106.6,27.7,8.4,-9.7,27.6,-10.4,0.0733359783,0.597827082,-0.0176396985,0.798028504
857,2145632,1747610,0.769,-0.503,0.221,-103.9,27.2,11.1,-9.7,27.6,-10.4,0.0744956816,0.597186193,-0.0195318461,0.798364208
858,2147988,1747620,0.804,-0.523,0.209,-100.8,26.2,13.4,-9.2,28,-10.5,0.075594348,0.596545305,-0.0214239937,0.798699911
859,2152199,1747620,0.796,-0.503,0.221,-97.1,24.9,15.3,-9.2,28,-10.5,0.0766014588,0.595965453,-0.0232856227,0.798974578
860,2154535,1747620,0.8,-0.496,0.244,-92.7,23.3,17.2,-9.2,28,-10.5,0.0775170141,0.595385601,-0.0250862148,0.799279763
861,2156301,1747620,0.796,-0.484,0.252,-87.8,21.6,18.8,-9.2,28,-10.5,0.0783410138,0.594836268,-0.0268257698,0.799523911
862,2158604,1747630,0.824,-0.461,0.251,-82.9,19.5,20.2,-9.2,27.3,-9.7,0.0790734581,0.594347972,-0.0285042879,0.799768059
863,2162184,1747630,0.851,-0.465,0.251,-78.6,16.8,21.5,-9.2,27.3,-9.7,0.0797448653,0.593890194,-0.0301217689,0.799981689
864,2165071,1747630,0.867,-0.458,0.258,-75,13.7,22.5,-9.2,27.3,-9.7,0.0803247169,0.593523972,-0.0317087313,0.800134281
865,2165589,1747630,0.871,-0.422,0.266,-71.6,10.4,23.4,-9.2,27.3,-9.7,0.0808435316,0.593188269,-0.0332346568,0.800256355
866,2168006,1747640,0.871,-0.422,0.266,-71.6,10.4,23.4,-9.2,27.3,-9.7,0.0808435316,0.593188269,-0.0332346568,0.800256355
867,2171557,1747640,0.898,-0.376,0.25,-64.4,3.9,25.4,-9.2,27.6,-9.7,0.0799890133,0.592944121,-0.0383312479,0.800317392
868,2174990,1747640,0.906,-0.372,0.246,-61.2,1,26.4,-9.2,27.6,-9.7,0.0803247169,0.592791528,-0.0397350993,0.800317392
869,2175538,1747640,0.914,-0.361,0.23,-58.5,-1.5,27.3,-9.2,27.6,-9.7,0.0805993835,0.592699973,-0.0411389508,0.800286874
870,2177971,1747650,0.914,-0.337,0.234,-55.9,-4,28.1,-9.3,28.9,-8.2,0.0808435316,0.592638936,-0.0424817652,0.800256355
871,2180608,1747650,0.918,-0.326,0.222,-52.8,-6.6,28.8,-9.3,28.9,-8.2,0.0809961241,0.592638936,-0.0437940611,0.8001648
872,2183115,1747650,0.918,-0.318,0.206,-49,-9.2,29.5,-9.3,28.9,-8.2,0.0811181982,0.592699973,-0.04504532,0.800042726
873,2185561,1747650,0.922,-0.314,0.195,-44.9,-12.1,30,-9.3,28.9,-8.2,0.0811487167,0.592791528,-0.0462355419,0.799890133
874,2189979,1747660,0.922,-0.31,0.195,-41,-15.4,30.4,-9.1,27.7,-10.1,0.0811487167,0.592944121,-0.0473647267,0.799707022
875,2190494,1747660,0.922,-0.306,0.187,-37.1,-18.9,30.6,-9.1,27.7,-10.1,0.0810876797,0.593188269,-0.0484328745,0.799462874
876,2194665,1747660,0.922,-0.295,0.183,-33.1,-22.4,30.7,-9.1,27.7,-10.1,0.0809350871,0.593493454,-0.0494705039,0.799188208
877,2196955,1747660,0.929,-0.283,0.187,-28.6,-25.7,31,-9.1,27.7,-10.1,0.0807519761,0.593859676,-0.0504165777,0.798883023
878,2198913,1747670,0.933,-0.275,0.179,-23.7,-28.4,31.4,-9.2,27.9,-10,0.0804773095,0.594286935,-0.0512710959,0.798547319
879,2201197,1747670,0.937,-0.268,0.186,-18.7,-30.4,32,-9.2,27.9,-10,0.0801110874,0.594714194,-0.0520340587,0.798181097
880,2204516,1747670,0.945,-0.256,0.186,-14,-31.9,32.6,-9.2,27.9,-10,0.0796838282,0.595233009,-0.0527665029,0.797814875
881,2206344,1747670,0.953,-0.244,0.178,-9.4,-32.5,33.1,-9.2,27.9,-10,0.0791955321,0.595751823,-0.0534379101,0.797448653
882,2208678,1747680,0.949,-0.233,0.186,-5.1,-32.2,33.5,-8.8,27.9,-9.7,0.0786461989,0.59624012,-0.0540482803,0.79708243
883,2210737,1747680,0.949,-0.221,0.182,-1,-31.3,34.1,-8.8,27.9,-9.7,0.0780358287,0.596758934,-0.0545365764,0.796716208
884,2213381,1747680,0.953,-0.209,0.174,2.7,-29.9,34.6,-8.8,27.9,-9.7,0.0773644215,0.59724723,-0.0549638356,0.796411023
885,2215535,1747680,0.945,-0.19,0.17,5.8,-28.1,35.3,-8.8,27.9,-9.7,0.0766319773,0.597705008,-0.0554216132,0.796105838
886,2220100,1747690,0.945,-0.19,0.17,5.8,-28.1,35.3,-8.8,27.9,-9.7,0.0766319773,0.597705008,-0.0554216132,0.796105838
887,2220540,1747690,0.945,-0.19,0.163,10.3,-24,36.7,-8.8,27.8,-9.6,0.0730002747,0.599322489,-0.0588091678,0.794946135
888,2223042,1747690,0.93,-0.193,0.155,11.7,-22,37.3,-8.8,27.8,-9.6,0.0721762749,0.599688711,-0.0591143529,0.794732505
889,2227460,1747690,0.941,-0.186,0.151,13,-20.2,38.1,-8.8,27.8,-9.6,0.0712912381,0.600024415,-0.0594195379,0.794549394
890,2229774,1747700,0.937,-0.178,0.151,14.7,-18.7,39.1,-8.5,29.3,-8.1,0.0704062014,0.600299081,-0.059724723,0.794396802
891,2232070,1747700,0.93,-0.158,0.143,16.8,-17.2,40,-8.5,29.3,-8.1,0.0694296091,0.600573748,-0.0599688711,0.794244209
892,2234252,1747700,0.926,-0.154,0.139,18.4,-15.7,40.6,-8.5,29.3,-8.1,0.0685140538,0.600817896,-0.0602130192,0.794122135
893,2236190,1747700,0.926,-0.158,0.132,18.6,-14.5,40.8,-8.5,29.3,-8.1,0.0675374615,0.601062044,-0.0604571673,0.79403058
894,2238516,1747710,0.922,-0.166,0.132,17.4,-13.8,40.6,-8.5,29,-9.2,0.0665913877,0.601275674,-0.0607013153,0.793908506
895,2240772,1747710,0.91,-0.162,0.148,15.4,-13.5,40.6,-8.5,29,-9.2,0.0656453139,0.601458785,-0.0609759819,0.79381695
896,2243179,1747710,0.894,-0.169,0.148,13.8,-13.5,40.6,-8.5,29,-9.2,0.0647602771,0.601672414,-0.0613116855,0.793725394
897,2245505,1747710,0.891,-0.165,0.148,13.1,-13.7,40.9,-8.5,29,-9.2,0.0638447218,0.601855525,-0.0616168706,0.793633839
898,2249986,1747720,0.887,-0.165,0.16,13.6,-14.1,41.2,-8.3,29.2,-9.5,0.0629291665,0.602069155,-0.0619525742,0.793511765
899,2252230,1747720,0.898,-0.169,0.159,15.1,-14.7,41.7,-8.3,29.2,-9.5,0.0619830927,0.602282785,-0.0622577593,0.793389691
900,2254477,1747720,0.898,-0.162,0.163,17.3,-15.6,42.1,-8.3,29.2,-9.5,0.0610065004,0.602526933,-0.0625324259,0.793267617
901,2256688,1747720,0.898,-0.165,0.163,19.3,-16.6,42,-8.3,29.2,-9.5,0.0599993896,0.602801599,-0.062776574,0.793145543
902,2258728,1747730,0.895,-0.158,0.175,20.5,-17.7,41.5,-8.3,29.9,-10,0.0589922788,0.603076266,-0.0629902036,0.79299295
903,2260959,1747730,0.887,-0.161,0.179,21.1,-18.9,40.6,-8.3,29.9,-10,0.057985168,0.603350932,-0.0631733146,0.792809839
904,2263516,1747730,0.887,-0.153,0.187,21.6,-20.4,39.8,-8.3,29.9,-10,0.0569780572,0.603686636,-0.0633564257,0.792626728
905,2265747,1747730,0.891,-0.134,0.203,22.4,-22,39.1,-8.3,29.9,-10,0.0560014649,0.604052858,-0.0635090182,0.792413099
906,2267967,1747740,0.891,-0.134,0.203,22.4,-22,39.1,-8.3,29.9,-10,0.0560014649,0.604052858,-0.0635090182,0.792413099
907,2272443,1747740,0.907,-0.114,0.234,25.4,-24.7,38.3,-8.1,29.8,-9.9,0.0534684286,0.605059969,-0.0643024995,0.791741691
908,2274748,1747740,0.923,-0.111,0.257,27.3,-25.2,38.3,-8.1,29.8,-9.9,0.0524002808,0.605456709,-0.0643635365,0.791497543
909,2276883,1747740,0.93,-0.076,0.225,29.1,-24.6,38.7,-8.1,29.8,-9.9,0.0513016144,0.60585345,-0.0644245735,0.791253395
910,2279295,1747750,0.938,-0.064,0.209,30.2,-22.9,39.1,-7.5,29.1,-9.3,0.0502029481,0.606250191,-0.0644245735,0.791039766
911,2281253,1747750,0.95,-0.061,0.201,29.9,-20.7,39.1,-7.5,29.1,-9.3,0.0491042817,0.606585894,-0.064455092,0.790856655
912,2283482,1747750,0.965,-0.065,0.209,27.4,-19.3,38.4,-7.5,29.1,-9.3,0.0480361339,0.606891079,-0.064516129,0.790673544
913,2286003,1747750,0.977,-0.053,0.213,23.4,-19.8,37.3,-7.5,29.1,-9.3,0.0470595416,0.607196265,-0.0646076846,0.790490432
914,2288218,1747760,0.977,-0.045,0.224,18.6,-21.4,35.9,-7.5,29,-9.3,0.0461745048,0.607531968,-0.0647907956,0.790276803
915,2290455,1747760,0.977,-0.045,0.22,14.5,-23.4,34.8,-7.5,29,-9.3,0.0453505051,0.60789819,-0.0650349437,0.790002136
916,2294991,1747760,0.989,-0.053,0.22,11.3,-24.8,33.9,-7.5,29,-9.3,0.0445570238,0.608294931,-0.0653096103,0.78972747
917,2297261,1747760,1.008,-0.05,0.216,9,-25.6,33.1,-7.5,29,-9.3,0.0438550981,0.608691671,-0.0656147954,0.789452803
918,2299475,1747770,1.012,-0.054,0.228,7.3,-25.6,32.4,-7.2,29.2,-9.4,0.0431531724,0.609088412,-0.065950499,0.789147618
919,2301747,1747770,1.02,-0.054,0.224,6.2,-25,31.5,-7.2,29.2,-9.4,0.0424817652,0.609485153,-0.0662862026,0.788842433
920,2303738,1747770,1.032,-0.05,0.223,5.5,-24.1,30.6,-7.2,29.2,-9.4,0.0418408765,0.609881893,-0.0666219062,0.788567766
921,2305972,1747770,1.032,-0.05,0.216,5.1,-23.2,29.8,-7.2,29.2,-9.4,0.0412305063,0.610217597,-0.0669576098,0.7882931
922,2309973,1747780,1.036,-0.05,0.208,4.4,-22.8,29,-7.4,29.1,-9.1,0.0406506546,0.610583819,-0.0672933134,0.788018433
923,2312278,1747780,1.044,-0.058,0.2,3.1,-22.9,28.2,-7.4,29.1,-9.1,0.0400708029,0.610950041,-0.067629017,0.787743767
924,2314241,1747780,1.043,-0.058,0.184,1.2,-23.4,27.3,-7.4,29.1,-9.1,0.0395519883,0.611316263,-0.0679647206,0.787438581
925,2316197,1747780,1.047,-0.07,0.168,-1.2,-24.1,26.4,-7.4,29.1,-9.1,0.0390942106,0.611682485,-0.0683919797,0.787133396
926,2318372,1747790,1.047,-0.07,0.168,-1.2,-24.1,26.4,-7.4,29.1,-9.1,0.0390942106,0.611682485,-0.0683919797,0.787133396
927,2322403,1747790,1.051,-0.082,0.172,-7.2,-25.1,24.5,-7.8,29.3,-8.9,0.0382702109,0.612598041,-0.0693380535,0.786400952
928,2324613,1747790,1.039,-0.09,0.176,-10.4,-25.5,23.7,-7.8,29.3,-8.9,0.0379650258,0.612994781,-0.0698568682,0.78603473
929,2326897,1747790,1.032,-0.101,0.176,-13.2,-25.9,22.9,-7.8,29.3,-8.9,0.0377208777,0.613391522,-0.0704062014,0.785699026
930,2328939,1747800,1.024,-0.101,0.181,-15.5,-26.1,22,-6.9,28.8,-9.1,0.0375072481,0.613788263,-0.070986053,0.785332804
931,2331225,1747800,1.016,-0.109,0.188,-17.1,-26.3,21.1,-6.9,28.8,-9.1,0.0373241371,0.614185003,-0.0715964232,0.784997101
932,2333324,1747800,1.012,-0.116,0.2,-17.9,-26.4,20.3,-6.9,28.8,-9.1,0.037141026,0.614612262,-0.0722067934,0.784630879
933,2336386,1747800,1.008,-0.12,0.193,-18,-26.5,19.5,-6.9,28.8,-9.1,0.0370494705,0.615009003,-0.0727866451,0.784234138
934,2338664,1747810,1.004,-0.124,0.204,-17.4,-26.5,18.7,-8,30.1,-9,0.036896878,0.615405744,-0.0733359783,0.783867916
935,2340889,1747810,0.989,-0.128,0.201,-16.1,-26.2,18.1,-8,30.1,-9,0.0367748039,0.615833003,-0.0738853114,0.783501694
936,2343846,1747810,0.985,-0.128,0.205,-14.4,-25.6,17.5,-8,30.1,-9,0.0366222114,0.616229743,-0.0744041261,0.78316599
937,2346192,1747810,0.977,-0.124,0.205,-12.4,-24.7,16.9,-8,30.1,-9,0.0364696188,0.616595965,-0.0748619037,0.782830287
938,2348404,1747820,0.973,-0.12,0.209,-10.3,-23.8,16.1,-8.3,30.3,-9.1,0.0362865078,0.616992706,-0.0752891629,0.782494583
939,2352435,1747820,0.969,-0.123,0.201,-8.4,-23.3,15.1,-8.3,30.3,-9.1,0.0361033967,0.617358928,-0.075655385,0.782189398
940,2354590,1747820,0.969,-0.12,0.209,-6.7,-22.9,14.1,-8.3,30.3,-9.1,0.0359202857,0.61772515,-0.0759605701,0.781884213
941,2356920,1747820,0.961,-0.112,0.205,-5.2,-22.7,13.1,-8.3,30.3,-9.1,0.0357371746,0.618060854,-0.0762657552,0.781579028
942,2358911,1747830,0.965,-0.112,0.205,-4.1,-22.6,12.1,-8.6,30.5,-8.9,0.0355540635,0.618427076,-0.0765099033,0.781273843
943,2361197,1747830,0.957,-0.108,0.205,-3.1,-22.4,11.1,-8.6,30.5,-8.9,0.0353709525,0.618793298,-0.0767235328,0.780968657
944,2363431,1747830,0.957,-0.104,0.205,-2.5,-22.3,10.1,-8.6,30.5,-8.9,0.0351878414,0.61915952,-0.0769371624,0.780663472
945,2367358,1747830,0.957,-0.1,0.201,-2,-22.1,9.2,-8.6,30.5,-8.9,0.0350047304,0.619525742,-0.0770897549,0.780358287
946,2369694,1747840,0.957,-0.1,0.201,-2,-22.1,9.2,-8.6,30.5,-8.9,0.0350047304,0.619525742,-0.0770897549,0.780358287
947,2371998,1747840,0.965,-0.096,0.201,-2,-21.2,7.4,-9.1,30.5,-8.5,0.0346079897,0.620258187,-0.0775780511,0.779747917
948,2373851,1747840,0.965,-0.096,0.197,-2.3,-20.7,6.4,-9.1,30.5,-8.5,0.0344553972,0.62059389,-0.0777306436,0.779473251
949,2376185,1747840,0.973,-0.092,0.201,-2.5,-20.3,5.4,-9.1,30.5,-8.5,0.0343943602,0.620929594,-0.0778527177,0.779198584
950,2378429,1747850,0.973,-0.096,0.201,-2.7,-19.8,4.4,-6.1,28.9,-8.9,0.0343333232,0.621265297,-0.0779747917,0.778923917
951,2382454,1747850,0.981,-0.096,0.205,-2.7,-19.3,3.6,-6.1,28.9,-8.9,0.0342722861,0.621570482,-0.0780663472,0.778679769
952,2384648,1747850,0.981,-0.089,0.201,-2.8,-18.8,2.8,-6.1,28.9,-8.9,0.0342112491,0.621906186,-0.0781884213,0.778405103
953,2386921,1747850,0.993,-0.089,0.212,-3,-18.2,2.2,-6.1,28.9,-8.9,0.0342112491,0.622211371,-0.0782799768,0.778160955
954,2388893,1747860,0.997,-0.089,0.208,-3.4,-17.4,1.6,-7.7,29.8,-9,0.0341807306,0.622486038,-0.0783715323,0.777916807
955,2391149,1747860,0.997,-0.085,0.212,-4.2,-16.6,1.1,-7.7,29.8,-9,0.0342112491,0.622760704,-0.0784630879,0.777672658
956,2393402,1747860,1.001,-0.089,0.22,-5.3,-16,0.6,-7.7,29.8,-9,0.0342112491,0.623035371,-0.0785851619,0.777459029
957,2395944,1747860,1.004,-0.085,0.216,-6.6,-15.4,0.2,-7.7,29.8,-9,0.0343028047,0.623279519,-0.0787072359,0.777245399
958,2398108,1747870,1.004,-0.085,0.216,-7.8,-14.8,0,-7.2,30.3,-8.6,0.0343638417,0.623523667,-0.0788598285,0.77703177
959,2400426,1747870,1.008,-0.089,0.22,-8.7,-14.2,-0.1,-7.2,30.3,-8.6,0.0344553972,0.623767815,-0.079012421,0.77681814
960,2404865,1747870,1.016,-0.081,0.228,-9.4,-13.7,-0.2,-7.2,30.3,-8.6,0.0345774712,0.624011963,-0.0791955321,0.776604511
961,2407212,1747870,1.012,-0.089,0.224,-10,-13.1,-0.2,-7.2,30.3,-8.6,0.0346995453,0.624225593,-0.0793481246,0.7764214
962,2409406,1747880,1.012,-0.085,0.22,-10.4,-12.5,-0.1,-6.8,29.9,-8.7,0.0348216193,0.624408704,-0.0795312357,0.77620777
963,2411444,1747880,1.02,-0.085,0.231,-10.6,-11.9,0,-6.8,29.9,-8.7,0.0349436934,0.624622333,-0.0797448653,0.776024659
964,2413636,1747880,1.024,-0.085,0.227,-10.6,-11.4,0,-6.8,29.9,-8.7,0.0350657674,0.624805445,-0.0799279763,0.775872066
965,2415623,1747880,1.032,-0.077,0.235,-10.5,-10.9,-0.1,-6.8,29.9,-8.7,0.0351878414,0.624988556,-0.0801110874,0.775688955
966,2419723,1747890,1.032,-0.077,0.235,-10.5,-10.9,-0.1,-6.8,29.9,-8.7,0.0351878414,0.624988556,-0.0801110874,0.775688955
967,2421983,1747890,1.036,-0.074,0.235,-9.9,-10,-0.2,-6.3,30.1,-9,0.0354319895,0.625263222,-0.0804773095,0.775414289
968,2423880,1747890,1.036,-0.074,0.231,-9.6,-9.4,-0.1,-6.3,30.1,-9,0.035523545,0.625415815,-0.0806604205,0.775261696
969,2426218,1747890,1.04,-0.066,0.231,-9.1,-8.7,0,-6.3,30.1,-9,0.0356456191,0.625537889,-0.0808130131,0.775139622
970,2428568,1747900,1.04,-0.062,0.235,-8.6,-8.1,0.1,-7,29.7,-8.5,0.0357371746,0.625690481,-0.0809656056,0.775017548
971,2430902,1747900,1.044,-0.058,0.231,-8,-7.3,0.1,-7,29.7,-8.5,0.0358287301,0.625812555,-0.0811181982,0.774895474
972,2434934,1747900,1.044,-0.058,0.227,-7.4,-6.5,0.2,-7,29.7,-8.5,0.0359202857,0.625904111,-0.0812402722,0.774803919
973,2436873,1747900,1.044,-0.054,0.227,-6.7,-5.6,0.4,-7,29.7,-8.5,0.0360118412,0.625965148,-0.0813623463,0.774712363
974,2439229,1747910,1.044,-0.054,0.227,-6,-4.6,0.7,-6.6,30.1,-8.6,0.0360728782,0.626056703,-0.0814844203,0.774620808
975,2441366,1747910,1.04,-0.046,0.215,-5.4,-3.5,0.9,-6.6,30.1,-8.6,0.0361033967,0.62611774,-0.0816064943,0.774559771
976,2443656,1747910,1.04,-0.046,0.219,-4.8,-2.5,1.2,-6.6,30.1,-8.6,0.0361644337,0.626148259,-0.0816980499,0.774529252
977,2445897,1747910,1.036,-0.046,0.215,-4.6,-1.5,1.5,-6.6,30.1,-8.6,0.0361644337,0.626178777,-0.0817896054,0.774498733
978,2449410,1747920,1.032,-0.046,0.208,-4.6,-0.3,1.8,-6.8,29.5,-8.5,0.0362254707,0.626178777,-0.0819116794,0.774498733
979,2451789,1747920,1.028,-0.046,0.204,-4.6,0.7,2.2,-6.8,29.5,-8.5,0.0362559893,0.626148259,-0.082003235,0.774498733
980,2453713,1747920,1.028,-0.046,0.2,-4.8,1.8,2.5,-6.8,29.5,-8.5,0.0362865078,0.62611774,-0.082125309,0.774498733
981,2456082,1747920,1.02,-0.05,0.196,-4.9,2.8,2.8,-6.8,29.5,-8.5,0.0362865078,0.626056703,-0.082247383,0.774559771
982,2458170,1747930,1.012,-0.054,0.196,-5.2,3.9,3.2,-6.8,29.8,-8.9,0.0363170263,0.625965148,-0.0823694571,0.774590289
983,2460682,1747930,1.004,-0.065,0.196,-5.4,4.8,3.5,-6.8,29.8,-8.9,0.0363475448,0.625904111,-0.0825220496,0.774651326
984,2464392,1747930,1.008,-0.069,0.196,-5.5,5.6,4,-6.8,29.8,-8.9,0.0363780633,0.625782037,-0.0826746422,0.774712363
985,2466294,1747930,1.008,-0.073,0.185,-5.8,6.4,4.3,-6.8,29.8,-8.9,0.0363780633,0.625659963,-0.0828272347,0.774803919
986,2468251,1747940,1.008,-0.073,0.185,-5.8,6.4,4.3,-6.8,29.8,-8.9,0.0363780633,0.625659963,-0.0828272347,0.774803919
987,2472301,1747940,0.996,-0.089,0.185,-6.6,8,5,-6.9,29.7,-8.7,0.0365001373,0.62550737,-0.0830713828,0.774895474
988,2474636,1747940,0.996,-0.093,0.185,-7,8.7,5.4,-6.9,29.7,-8.7,0.0365001373,0.625324259,-0.0832544939,0.775017548
989,2476774,1747940,0.989,-0.1,0.185,-7.3,9.4,5.7,-6.9,29.7,-8.7,0.0365306558,0.625141148,-0.0834681234,0.775139622
990,2478844,1747950,0.985,-0.1,0.181,-7.6,10,5.9,-7.9,29.7,-8.4,0.0365611744,0.624958037,-0.0836512345,0.775261696
991,2481236,1747950,0.989,-0.108,0.181,-7.8,10.6,6.2,-7.9,29.7,-8.4,0.0365611744,0.624774926,-0.083864864,0.77538377
992,2483581,1747950,0.977,-0.108,0.185,-8.1,11.2,6.6,-7.9,29.7,-8.4,0.0365916929,0.624561296,-0.0840784936,0.775536363
