sample_index,elapsed_us,device_time_ms,acc_x_g,acc_y_g,acc_z_g,gyro_x_dps,gyro_y_dps,gyro_z_dps,mag_x_ut,mag_y_ut,mag_z_ut,quat_w,quat_x,quat_y,quat_z
0,6109,1178050,0.981,0.044,-0.026,0,-0.1,-0.1,-35,5.2,25.9,0.166447951,0.703268532,-0.142124699,0.676351207
1,8844,1178060,0.988,0.044,-0.022,0,0,0,-35,5.2,25.9,0.166447951,0.703268532,-0.142124699,0.676351207
2,12012,1178060,0.981,0.04,-0.018,0,0.1,0,-35,5.2,25.9,0.166447951,0.703268532,-0.142124699,0.676351207
3,14144,1178060,0.988,0.04,-0.034,0,0.1,0.1,-35,5.2,25.9,0.166447951,0.703268532,-0.142124699,0.676351207
4,16471,1178060,0.988,0.04,-0.03,0,0,0.1,-35.1,5,25.5,0.166447951,0.703268532,-0.142124699,0.676351207
5,18605,1178070,0.981,0.044,-0.026,0,-0.1,0,-35.1,5,25.5,0.166447951,0.703268532,-0.142124699,0.676351207
6,21734,1178070,0.985,0.04,-0.03,0,-0.1,0,-35.1,5,25.5,0.166447951,0.703268532,-0.142124699,0.676351207
7,24653,1178070,0.985,0.036,-0.026,0,0,0,-35.1,5,25.5,0.166447951,0.703268532,-0.142155217,0.676351207
8,26320,1178070,0.985,0.036,-0.026,0,0,0,-34.9,5.7,25.9,0.166447951,0.703268532,-0.142155217,0.676351207
9,29117,1178080,0.988,0.032,-0.026,0,0,0,-34.9,5.7,25.9,0.166447951,0.703268532,-0.142155217,0.676351207
10,32123,1178080,0.992,0.04,-0.03,0,0,0,-34.9,5.7,25.9,0.166447951,0.703268532,-0.142155217,0.676351207
11,33605,1178080,0.988,0.04,-0.026,0,0,0,-34.9,5.7,25.9,0.166447951,0.703268532,-0.142155217,0.676351207
12,36593,1178080,0.988,0.04,-0.026,0,0,0,-34.9,5.7,25.9,0.166447951,0.703268532,-0.142155217,0.676351207
13,39368,1178090,0.981,0.04,-0.026,0,-0.1,0,-35.2,6.7,26.7,0.166417432,0.703238014,-0.142155217,0.676381726
14,40957,1178090,0.988,0.044,-0.026,0,-0.1,0,-35.2,6.7,26.7,0.166417432,0.703238014,-0.142185736,0.676381726
15,44147,1178090,0.981,0.04,-0.03,0,-0.1,0,-35.2,6.7,26.7,0.166417432,0.703238014,-0.142185736,0.676381726
16,47112,1178090,0.985,0.036,-0.034,0,-0.1,0,-35.2,6.3,26.9,0.166417432,0.703238014,-0.142185736,0.676381726
17,48679,1178100,0.985,0.04,-0.026,0,-0.1,0,-35.2,6.3,26.9,0.166417432,0.703238014,-0.142185736,0.676381726
18,51643,1178100,0.985,0.04,-0.026,0,-0.1,0,-35.2,6.3,26.9,0.166417432,0.703238014,-0.142185736,0.676381726
19,54595,1178100,0.988,0.036,-0.03,0,-0.1,0,-35.2,6.3,26.9,0.166417432,0.703268532,-0.142185736,0.676381726
20,55955,1178100,0.988,0.048,-0.026,0,-0.1,0,-35.1,7.1,26.7,0.166417432,0.703268532,-0.142185736,0.676381726
21,58945,1178110,0.985,0.044,-0.03,0,0,0,-35.1,7.1,26.7,0.166417432,0.703268532,-0.142185736,0.676351207
22,61894,1178110,0.992,0.04,-0.034,0.1,0,0,-35.1,7.1,26.7,0.166417432,0.703268532,-0.142155217,0.676381726
23,63618,1178110,0.985,0.04,-0.022,0.1,0,0,-35.1,7.1,26.7,0.166417432,0.703268532,-0.142155217,0.676381726
24,67235,1178110,0.985,0.044,-0.026,0.1,0,0,-35.1,6.7,26.9,0.166417432,0.703268532,-0.142155217,0.676381726
25,68593,1178120,0.981,0.036,-0.026,0,0,0,-35.1,6.7,26.9,0.166417432,0.703268532,-0.142155217,0.676381726
26,71903,1178120,0.981,0.04,-0.03,0,0,0,-35.1,6.7,26.9,0.166417432,0.703268532,-0.142155217,0.676381726
27,73522,1178120,0.981,0.044,-0.026,0.1,0,0,-35.1,6.7,26.9,0.166417432,0.703268532,-0.142155217,0.676381726
28,77957,1178120,0.985,0.04,-0.026,0.1,0.1,0,-35.6,7.1,26.7,0.166417432,0.703268532,-0.142155217,0.676381726
29,78479,1178130,0.985,0.04,-0.026,0,0.1,0,-35.6,7.1,26.7,0.166417432,0.703268532,-0.142155217,0.676381726
30,81627,1178130,0.981,0.04,-0.03,0,0.1,0,-35.6,7.1,26.7,0.166417432,0.703238014,-0.142155217,0.676381726
31,83923,1178130,0.988,0.044,-0.026,-0.1,0,-0.1,-35.6,7.1,26.7,0.166417432,0.703238014,-0.142155217,0.676381726
32,86143,1178130,0.988,0.044,-0.026,-0.1,0,-0.1,-35.6,7.1,26.7,0.166417432,0.703238014,-0.142155217,0.676381726
33,88764,1178140,0.985,0.04,-0.034,0,0,0,-35.3,5.1,26.7,0.166417432,0.703238014,-0.142155217,0.676381726
34,92876,1178140,0.985,0.036,-0.03,0,0,0,-35.3,5.1,26.7,0.166417432,0.703238014,-0.142155217,0.676381726
35,95277,1178140,0.988,0.044,-0.03,0.1,0,0.1,-35.3,5.1,26.7,0.166417432,0.703238014,-0.142155217,0.676381726
36,96051,1178140,0.988,0.04,-0.026,0.1,0,0,-35.2,6.5,27,0.166417432,0.703238014,-0.142155217,0.676381726
37,99624,1178150,0.988,0.04,-0.026,0.1,0,0,-35.2,6.5,27,0.166417432,0.703238014,-0.142155217,0.676381726
38,101993,1178150,0.985,0.04,-0.03,0,0,0,-35.2,6.5,27,0.166417432,0.703238014,-0.142155217,0.676381726
39,104081,1178150,0.985,0.04,-0.034,0,-0.1,0,-35.2,6.5,27,0.166417432,0.703238014,-0.142155217,0.676381726
40,106515,1178150,0.985,0.036,-0.03,0,-0.1,0,-35.2,6.7,26.7,0.166417432,0.703238014,-0.142155217,0.676381726
41,108791,1178160,0.985,0.044,-0.03,0,-0.1,0,-35.2,6.7,26.7,0.166417432,0.703238014,-0.142155217,0.676381726
42,111550,1178160,0.985,0.036,-0.022,0,-0.1,0,-35.2,6.7,26.7,0.166417432,0.703238014,-0.142155217,0.676381726
43,114597,1178160,0.985,0.04,-0.026,0,-0.1,0,-35.2,6.7,26.7,0.166417432,0.703268532,-0.142155217,0.676381726
44,116268,1178160,0.985,0.044,-0.03,0,-0.1,0,-36.3,6.4,26.8,0.166417432,0.703268532,-0.142155217,0.676381726
45,118785,1178170,0.988,0.04,-0.022,0,-0.1,0,-36.3,6.4,26.8,0.166417432,0.703268532,-0.142155217,0.676351207
46,121126,1178170,0.985,0.044,-0.026,0,-0.1,0,-36.3,6.4,26.8,0.166417432,0.703268532,-0.142155217,0.676351207
47,123922,1178170,0.985,0.04,-0.034,0,0,0,-36.3,6.4,26.8,0.166447951,0.703268532,-0.142155217,0.676351207
48,126741,1178170,0.985,0.036,-0.03,0,0,0,-36.7,6.5,27,0.166447951,0.703268532,-0.142155217,0.676351207
49,129015,1178180,0.985,0.04,-0.026,0,-0.1,0,-36.7,6.5,27,0.166447951,0.703268532,-0.142155217,0.676351207
50,131350,1178180,0.988,0.04,-0.026,0,-0.1,0,-36.7,6.5,27,0.166447951,0.703268532,-0.142155217,0.676351207
51,133688,1178180,0.988,0.036,-0.03,0,0,0,-36.7,6.5,27,0.166447951,0.703268532,-0.142155217,0.676351207
52,136531,1178180,0.988,0.036,-0.03,0,0,0,-36.7,6.5,27,0.166447951,0.703268532,-0.142155217,0.676351207
53,138804,1178190,0.985,0.036,-0.03,0,0,0,-34.3,4.5,26.7,0.166417432,0.703238014,-0.142185736,0.676381726
54,141253,1178190,0.985,0.036,-0.03,0,0,0,-34.3,4.5,26.7,0.166417432,0.703238014,-0.142185736,0.676381726
55,143943,1178190,0.985,0.04,-0.03,0,0.1,0,-34.3,4.5,26.7,0.166417432,0.703238014,-0.142185736,0.676381726
56,146120,1178190,0.985,0.044,-0.03,0,0,-0.1,-37,7.5,26.6,0.166417432,0.703238014,-0.142185736,0.676381726
57,148799,1178200,0.985,0.036,-0.03,0,0,0,-37,7.5,26.6,0.166417432,0.703238014,-0.142185736,0.676381726
58,152051,1178200,0.985,0.04,-0.03,0,0,0,-37,7.5,26.6,0.166417432,0.703238014,-0.142185736,0.676381726
59,153723,1178200,0.985,0.044,-0.026,0,0,0,-37,7.5,26.6,0.166417432,0.703238014,-0.142185736,0.676381726
60,156475,1178200,0.985,0.036,-0.026,0,0,0,-36.6,7,26.5,0.166417432,0.703238014,-0.142185736,0.676381726
61,159345,1178210,0.985,0.036,-0.03,0,0,0,-36.6,7,26.5,0.166417432,0.703238014,-0.142185736,0.676381726
62,161666,1178210,0.988,0.04,-0.03,0,0.1,0,-36.6,7,26.5,0.166417432,0.703238014,-0.142185736,0.676381726
63,163891,1178210,0.985,0.04,-0.034,0,0,0,-36.6,7,26.5,0.166417432,0.703238014,-0.142185736,0.676381726
64,166138,1178210,0.985,0.04,-0.026,0,0,0,-36.7,7.3,26.4,0.166417432,0.703238014,-0.142185736,0.676381726
65,168510,1178220,0.985,0.04,-0.026,0,0,0,-36.7,7.3,26.4,0.166417432,0.703238014,-0.142185736,0.676381726
66,172020,1178220,0.985,0.04,-0.026,0,0,0,-36.7,7.3,26.4,0.166417432,0.703238014,-0.142185736,0.676381726
67,173610,1178220,0.988,0.04,-0.034,0,0,0,-36.7,7.3,26.4,0.166417432,0.703238014,-0.142185736,0.676381726
68,176440,1178220,0.985,0.04,-0.022,0,0,0,-36.5,7.1,26.6,0.166417432,0.703238014,-0.142185736,0.676381726
69,179512,1178230,0.988,0.04,-0.022,0,0,0,-36.5,7.1,26.6,0.166417432,0.703238014,-0.142185736,0.676381726
70,181503,1178230,0.992,0.044,-0.03,0,-0.1,0,-36.5,7.1,26.6,0.166417432,0.703238014,-0.142185736,0.676381726
71,183833,1178230,0.988,0.04,-0.034,0,-0.1,0,-36.5,7.1,26.6,0.166417432,0.703238014,-0.142185736,0.676381726
72,186185,1178230,0.988,0.04,-0.034,0,-0.1,0,-36.5,7.1,26.6,0.166417432,0.703238014,-0.142185736,0.676381726
73,188606,1178240,0.988,0.044,-0.03,0,0,0,-34.5,5.8,26.8,0.166417432,0.703238014,-0.142155217,0.676381726
74,191303,1178240,0.988,0.036,-0.038,0,0,0,-34.5,5.8,26.8,0.166417432,0.703238014,-0.142155217,0.676381726
75,194515,1178240,0.985,0.04,-0.034,0,0,0.2,-34.5,5.8,26.8,0.166417432,0.703238014,-0.142185736,0.676381726
76,196858,1178240,0.988,0.04,-0.026,-0.1,0.1,0.2,-36.3,6,26.9,0.166417432,0.703238014,-0.142185736,0.676381726
77,199054,1178250,0.985,0.044,-0.03,0,0.1,0,-36.3,6,26.9,0.166417432,0.703238014,-0.142185736,0.676381726
78,201258,1178250,0.985,0.04,-0.03,0,0,0,-36.3,6,26.9,0.166417432,0.703238014,-0.142185736,0.676381726
79,203585,1178250,0.981,0.04,-0.026,0,0,0,-36.3,6,26.9,0.166417432,0.703238014,-0.142185736,0.676381726
80,206184,1178250,0.981,0.04,-0.03,0,-0.1,0,-35.2,6,26.9,0.166417432,0.703238014,-0.142185736,0.676381726
81,209384,1178260,0.985,0.04,-0.034,0,-0.1,0,-35.2,6,26.9,0.166417432,0.703238014,-0.142185736,0.676381726
82,211373,1178260,0.988,0.04,-0.03,0,-0.1,0,-35.2,6,26.9,0.166417432,0.703238014,-0.142185736,0.676381726
83,213636,1178260,0.988,0.044,-0.022,0,-0.1,0,-35.2,6,26.9,0.166417432,0.703238014,-0.142185736,0.676381726
84,216348,1178260,0.992,0.04,-0.026,0,-0.1,0,-35,6.3,27.1,0.166417432,0.703238014,-0.142185736,0.676381726
85,219482,1178270,0.988,0.044,-0.026,0,0,0,-35,6.3,27.1,0.166417432,0.703238014,-0.142185736,0.676381726
86,221302,1178270,0.988,0.044,-0.034,0.1,0,0,-35,6.3,27.1,0.166417432,0.703238014,-0.142185736,0.676381726
87,223614,1178270,0.985,0.04,-0.03,0,0.1,0,-35,6.3,27.1,0.166417432,0.703238014,-0.142185736,0.676381726
88,226925,1178270,0.985,0.04,-0.03,0,0.1,0,-34.7,6,26.8,0.166417432,0.703238014,-0.142185736,0.676381726
89,228809,1178280,0.985,0.04,-0.026,0,0.1,0,-34.7,6,26.8,0.166417432,0.703238014,-0.142185736,0.676381726
90,231052,1178280,0.988,0.044,-0.03,0,0.1,0,-34.7,6,26.8,0.166417432,0.703238014,-0.142185736,0.676381726
91,234507,1178280,0.988,0.04,-0.03,0,0.2,0,-34.7,6,26.8,0.166417432,0.703238014,-0.142185736,0.676381726
92,236116,1178280,0.988,0.04,-0.03,0,0.2,0,-34.7,6,26.8,0.166417432,0.703238014,-0.142185736,0.676381726
93,239747,1178290,0.981,0.036,-0.026,0,0.1,0,-35.8,6,26.9,0.166447951,0.703238014,-0.142155217,0.676381726
94,242053,1178290,0.985,0.04,-0.034,0,0,0,-35.8,6,26.9,0.166447951,0.703238014,-0.142155217,0.676381726
95,243716,1178290,0.985,0.04,-0.026,0,-0.1,0,-35.8,6,26.9,0.166447951,0.703238014,-0.142155217,0.676381726
96,246811,1178290,0.985,0.04,-0.026,0,-0.2,0,-34.6,5.7,27.1,0.166447951,0.703238014,-0.142185736,0.676381726
97,248556,1178300,0.988,0.036,-0.03,0,-0.1,0,-34.6,5.7,27.1,0.166447951,0.703238014,-0.142185736,0.676381726
98,252026,1178300,0.985,0.036,-0.022,0,0,0,-34.6,5.7,27.1,0.166447951,0.703238014,-0.142185736,0.676381726
99,253554,1178300,0.988,0.036,-0.03,0,0.1,0,-34.6,5.7,27.1,0.166447951,0.703238014,-0.142185736,0.676381726
100,256666,1178300,0.988,0.04,-0.03,0,0,0,-35,5.7,27.2,0.166447951,0.703238014,-0.142185736,0.676381726
101,258842,1178310,0.988,0.04,-0.026,0,0,0,-35,5.7,27.2,0.166447951,0.703238014,-0.142185736,0.676381726
102,261189,1178310,0.985,0.036,-0.026,0,-0.1,0,-35,5.7,27.2,0.166447951,0.703238014,-0.142185736,0.676381726
103,264624,1178310,0.988,0.04,-0.03,0.1,0,0,-35,5.7,27.2,0.166447951,0.703238014,-0.142185736,0.676381726
104,266106,1178310,0.985,0.044,-0.026,0.1,0.1,0.1,-34.6,5.6,27.4,0.166417432,0.703238014,-0.142185736,0.676381726
105,269333,1178320,0.985,0.04,-0.03,0.1,0.1,0.2,-34.6,5.6,27.4,0.166417432,0.703238014,-0.142185736,0.676381726
106,271670,1178320,0.985,0.044,-0.026,0.1,0.1,0.1,-34.6,5.6,27.4,0.166417432,0.703238014,-0.142185736,0.676381726
107,273812,1178320,0.981,0.044,-0.03,0,0,0,-34.6,5.6,27.4,0.166417432,0.703238014,-0.142185736,0.676381726
108,276199,1178320,0.985,0.036,-0.03,0,0,0,-34.9,6.1,27,0.166417432,0.703238014,-0.142155217,0.676381726
109,279771,1178330,0.985,0.04,-0.026,0,0,0,-34.9,6.1,27,0.166417432,0.703238014,-0.142155217,0.676381726
110,281254,1178330,0.985,0.036,-0.026,0,-0.1,0,-34.9,6.1,27,0.166417432,0.703238014,-0.142155217,0.676381726
111,283619,1178330,0.988,0.04,-0.026,0,0,0,-34.9,6.1,27,0.166417432,0.703238014,-0.142185736,0.676381726
112,286304,1178330,0.988,0.04,-0.026,0,0,0,-34.9,6.1,27,0.166417432,0.703238014,-0.142185736,0.676381726
113,289438,1178340,0.988,0.04,-0.022,0,0.1,0,-36.7,5.9,26.7,0.166417432,0.703207495,-0.142185736,0.676412244
114,291603,1178340,0.988,0.036,-0.026,0,0.1,0,-36.7,5.9,26.7,0.166417432,0.703207495,-0.142185736,0.676412244
115,293858,1178340,0.988,0.04,-0.026,0,0.1,0,-36.7,5.9,26.7,0.166417432,0.703207495,-0.142185736,0.676412244
116,296221,1178340,0.985,0.036,-0.034,0,0,0,-33.5,5.8,27.1,0.166417432,0.703207495,-0.142185736,0.676412244
117,299329,1178350,0.988,0.036,-0.026,0,0,0,-33.5,5.8,27.1,0.166417432,0.703207495,-0.142185736,0.676412244
118,301052,1178350,0.985,0.04,-0.026,0,0,0,-33.5,5.8,27.1,0.166417432,0.703207495,-0.142185736,0.676412244
119,304594,1178350,0.981,0.04,-0.026,0,0,0,-33.5,5.8,27.1,0.166417432,0.703207495,-0.142185736,0.676412244
120,306851,1178350,0.981,0.036,-0.026,0,-0.1,0,-33.9,6.5,27,0.166417432,0.703207495,-0.142185736,0.676412244
121,309029,1178360,0.981,0.04,-0.026,0,-0.1,0,-33.9,6.5,27,0.166417432,0.703207495,-0.142185736,0.676412244
122,311223,1178360,0.981,0.04,-0.026,0,0,0,-33.9,6.5,27,0.166417432,0.703207495,-0.142185736,0.676412244
123,314267,1178360,0.981,0.036,-0.038,0,-0.1,0,-33.9,6.5,27,0.166417432,0.703207495,-0.142185736,0.676412244
124,316300,1178360,0.985,0.04,-0.034,0,0,0,-33.7,5.8,26.7,0.166417432,0.703207495,-0.142185736,0.676412244
125,318533,1178370,0.981,0.04,-0.03,0,-0.1,0,-33.7,5.8,26.7,0.166417432,0.703207495,-0.142185736,0.676412244
126,321151,1178370,0.985,0.04,-0.03,0.1,0,0,-33.7,5.8,26.7,0.166386914,0.703207495,-0.142185736,0.676412244
127,324622,1178370,0.985,0.04,-0.03,0.1,0,0,-33.7,5.8,26.7,0.166386914,0.703207495,-0.142185736,0.676412244
128,326836,1178370,0.988,0.04,-0.03,0.1,0,0,-34,6,27,0.166386914,0.703207495,-0.142185736,0.676412244
129,329067,1178380,0.988,0.04,-0.022,0,0.1,0,-34,6,27,0.166386914,0.703207495,-0.142185736,0.676412244
130,331300,1178380,0.988,0.04,-0.03,0,0.1,0,-34,6,27,0.166386914,0.703207495,-0.142185736,0.676412244
131,333606,1178380,0.985,0.044,-0.022,0,0,0,-34,6,27,0.166386914,0.703207495,-0.142185736,0.676412244
132,336356,1178380,0.985,0.044,-0.022,0,0,0,-34,6,27,0.166386914,0.703207495,-0.142185736,0.676412244
133,339536,1178390,0.985,0.036,-0.026,0.1,0,0,-35.4,5.8,26.8,0.166386914,0.703207495,-0.142185736,0.676442763
134,341054,1178390,0.985,0.04,-0.03,0,0,0,-35.4,5.8,26.8,0.166386914,0.703207495,-0.142185736,0.676442763
135,343542,1178390,0.977,0.04,-0.03,0,0,0,-35.4,5.8,26.8,0.166386914,0.703207495,-0.142185736,0.676442763
136,347060,1178390,0.988,0.04,-0.03,0,0.1,0,-34.8,6.2,27.3,0.166386914,0.703207495,-0.142185736,0.676442763
137,348573,1178400,0.985,0.04,-0.03,0,0.1,0,-34.8,6.2,27.3,0.166417432,0.703176977,-0.142185736,0.676442763
138,352261,1178400,0.985,0.044,-0.026,-0.1,0.1,0,-34.8,6.2,27.3,0.166417432,0.703176977,-0.142185736,0.676442763
139,354502,1178400,0.985,0.044,-0.026,0,0.1,0,-34.8,6.2,27.3,0.166417432,0.703176977,-0.142185736,0.676442763
140,356183,1178400,0.985,0.036,-0.026,0,0,0,-35,6,26.9,0.166417432,0.703176977,-0.142185736,0.676442763
141,358626,1178410,0.988,0.044,-0.03,0,0,0,-35,6,26.9,0.166417432,0.703176977,-0.142185736,0.676442763
142,361968,1178410,0.988,0.036,-0.034,0,0,0.1,-35,6,26.9,0.166417432,0.703176977,-0.142185736,0.676442763
143,364178,1178410,0.985,0.036,-0.03,0,0,0.1,-35,6,26.9,0.166417432,0.703176977,-0.142185736,0.676442763
144,366345,1178410,0.985,0.04,-0.03,0.1,0,0.1,-34.8,6.2,26.7,0.166386914,0.703176977,-0.142185736,0.676442763
145,368478,1178420,0.992,0.04,-0.034,0.1,0,0.1,-34.8,6.2,26.7,0.166386914,0.703176977,-0.142185736,0.676442763
146,371464,1178420,0.988,0.044,-0.026,0,-0.1,0,-34.8,6.2,26.7,0.166386914,0.703176977,-0.142185736,0.676442763
147,374294,1178420,0.985,0.04,-0.026,0,-0.1,0,-34.8,6.2,26.7,0.166386914,0.703176977,-0.142185736,0.676442763
148,376123,1178420,0.988,0.04,-0.026,0,-0.1,0,-35.1,6.3,26.9,0.166386914,0.703176977,-0.142185736,0.676442763
149,379639,1178430,0.981,0.044,-0.03,0,0,0,-35.1,6.3,26.9,0.166386914,0.703176977,-0.142185736,0.676442763
150,381184,1178430,0.985,0.04,-0.026,0,0,0,-35.1,6.3,26.9,0.166386914,0.703176977,-0.142185736,0.676442763
151,383696,1178430,0.981,0.04,-0.026,-0.1,0,0,-35.1,6.3,26.9,0.166386914,0.703176977,-0.142185736,0.676442763
152,387095,1178430,0.981,0.04,-0.026,-0.1,0,0,-35.1,6.3,26.9,0.166386914,0.703176977,-0.142185736,0.676442763
153,388639,1178440,0.985,0.04,-0.03,0,0,-0.1,-35.2,5.8,26.5,0.166417432,0.703176977,-0.142185736,0.676442763
154,391765,1178440,0.985,0.036,-0.03,0,0.1,-0.1,-35.2,5.8,26.5,0.166417432,0.703176977,-0.142155217,0.676442763
155,394563,1178440,0.988,0.04,-0.022,0.1,0.1,0,-35.2,5.8,26.5,0.166417432,0.703176977,-0.142155217,0.676442763
156,396063,1178440,0.981,0.044,-0.026,0.1,0.1,0,-35.2,5.6,27.4,0.166417432,0.703176977,-0.142155217,0.676442763
157,399857,1178450,0.985,0.04,-0.026,0.1,0,0,-35.2,5.6,27.4,0.166417432,0.703176977,-0.142155217,0.676442763
158,402079,1178450,0.988,0.04,-0.03,0.1,0,0,-35.2,5.6,27.4,0.166417432,0.703176977,-0.142155217,0.676442763
159,403617,1178450,0.988,0.04,-0.03,0,0,0,-35.2,5.6,27.4,0.166417432,0.703176977,-0.142155217,0.676442763
160,406240,1178450,0.985,0.04,-0.026,0,0,0,-35,5.8,28,0.166417432,0.703176977,-0.142155217,0.676442763
161,409561,1178460,0.981,0.044,-0.026,0,0,0,-35,5.8,28,0.166417432,0.703176977,-0.142155217,0.676442763
162,411928,1178460,0.985,0.036,-0.034,0,0,0,-35,5.8,28,0.166417432,0.703176977,-0.142155217,0.676442763
163,413788,1178460,0.981,0.04,-0.026,0,0,0,-35,5.8,28,0.166417432,0.703176977,-0.142155217,0.676442763
164,416099,1178460,0.985,0.044,-0.03,0,0,0,-35.4,5.6,28.3,0.166417432,0.703176977,-0.142155217,0.676442763
165,419328,1178470,0.988,0.044,-0.022,0,0,-0.1,-35.4,5.6,28.3,0.166417432,0.703176977,-0.142155217,0.676442763
166,421153,1178470,0.985,0.04,-0.03,0,0,0,-35.4,5.6,28.3,0.166417432,0.703176977,-0.142155217,0.676442763
167,423508,1178470,0.988,0.04,-0.03,0,0,0,-35.4,5.6,28.3,0.166417432,0.703176977,-0.142155217,0.676442763
168,426997,1178470,0.981,0.044,-0.026,0,-0.1,0,-35,5.9,28.8,0.166417432,0.703176977,-0.142155217,0.676442763
169,428550,1178480,0.981,0.036,-0.026,0,-0.2,0,-35,5.9,28.8,0.166417432,0.703176977,-0.142155217,0.676442763
170,431070,1178480,0.985,0.036,-0.03,0,-0.1,0,-35,5.9,28.8,0.166417432,0.703176977,-0.142155217,0.676442763
171,434566,1178480,0.985,0.04,-0.034,0,0,-0.1,-35,5.9,28.8,0.166417432,0.703176977,-0.142155217,0.676442763
172,436806,1178480,0.985,0.04,-0.034,0,0,-0.1,-35,5.9,28.8,0.166417432,0.703176977,-0.142155217,0.676442763
173,438656,1178490,0.985,0.048,-0.03,0,0.1,0,-35.2,5.8,25.2,0.166417432,0.703176977,-0.142155217,0.676442763
174,441043,1178490,0.988,0.044,-0.022,0,0,0,-35.2,5.8,25.2,0.166417432,0.703176977,-0.142185736,0.676442763
175,444646,1178490,0.988,0.044,-0.022,0,-0.1,0,-35.2,5.8,25.2,0.166417432,0.703176977,-0.142185736,0.676442763
176,446233,1178490,0.992,0.04,-0.03,0,-0.1,0,-34.8,6.2,27.6,0.166417432,0.703176977,-0.142185736,0.676442763
177,448510,1178500,0.992,0.044,-0.026,0,-0.1,0,-34.8,6.2,27.6,0.166417432,0.703176977,-0.142185736,0.676442763
178,451062,1178500,0.985,0.04,-0.03,0,0,0,-34.8,6.2,27.6,0.166417432,0.703176977,-0.142185736,0.676442763
179,453592,1178500,0.985,0.044,-0.03,0,0,0,-34.8,6.2,27.6,0.166417432,0.703176977,-0.142185736,0.676442763
180,456999,1178500,0.985,0.04,-0.026,0,0,0,-34.7,5.7,27.6,0.166417432,0.703176977,-0.142185736,0.676442763
181,458614,1178510,0.985,0.04,-0.034,0,0,0,-34.7,5.7,27.6,0.166417432,0.703176977,-0.142185736,0.676442763
182,461311,1178510,0.981,0.04,-0.034,0,0,0,-34.7,5.7,27.6,0.166417432,0.703176977,-0.142185736,0.676442763
183,463566,1178510,0.985,0.04,-0.038,0,0,0,-34.7,5.7,27.6,0.166417432,0.703176977,-0.142185736,0.676442763
184,466987,1178510,0.985,0.036,-0.026,0,0.1,0,-34.6,5.8,27.2,0.166417432,0.703176977,-0.142185736,0.676442763
185,469274,1178520,0.985,0.04,-0.03,0,0.1,0,-34.6,5.8,27.2,0.166417432,0.703176977,-0.142185736,0.676442763
186,471388,1178520,0.985,0.04,-0.022,0,0,0,-34.6,5.8,27.2,0.166417432,0.703176977,-0.142185736,0.676442763
187,473744,1178520,0.988,0.044,-0.026,0,-0.1,0,-34.6,5.8,27.2,0.166417432,0.703176977,-0.142185736,0.676442763
188,476483,1178520,0.988,0.04,-0.038,0,-0.2,0,-35.4,6,26.5,0.166417432,0.703176977,-0.142185736,0.676442763
189,479501,1178530,0.988,0.036,-0.03,0,-0.2,0,-35.4,6,26.5,0.166417432,0.703176977,-0.142185736,0.676442763
190,481065,1178530,0.985,0.04,-0.03,0,-0.2,0,-35.4,6,26.5,0.166417432,0.703176977,-0.142185736,0.676442763
191,484370,1178530,0.988,0.04,-0.026,0,-0.1,0,-35.4,6,26.5,0.166417432,0.703207495,-0.142185736,0.676442763
192,486138,1178530,0.988,0.04,-0.026,0,-0.1,0,-35.4,6,26.5,0.166417432,0.703207495,-0.142185736,0.676442763
193,489530,1178540,0.988,0.04,-0.03,0,0,0,-35,6.1,26.2,0.166386914,0.703207495,-0.142185736,0.676412244
194,491097,1178540,0.985,0.044,-0.03,0,0.1,0,-35,6.1,26.2,0.166386914,0.703207495,-0.142185736,0.676412244
195,493597,1178540,0.985,0.04,-0.03,0,0.2,0,-35,6.1,26.2,0.166386914,0.703207495,-0.142185736,0.676412244
196,497828,1178540,0.985,0.044,-0.026,0,0.2,0,-35.4,6.1,26.7,0.166386914,0.703207495,-0.142185736,0.676412244
197,500045,1178550,0.981,0.036,-0.034,0,0.2,0,-35.4,6.1,26.7,0.166386914,0.703207495,-0.142185736,0.676442763
198,502248,1178550,0.985,0.036,-0.03,0,0.1,0,-35.4,6.1,26.7,0.166386914,0.703207495,-0.142185736,0.676442763
199,504550,1178550,0.988,0.044,-0.03,0,0,0,-35.4,6.1,26.7,0.166386914,0.703176977,-0.142185736,0.676442763
200,506821,1178550,0.985,0.044,-0.026,0,0,0,-34.9,6.5,26.7,0.166417432,0.703176977,-0.142185736,0.676442763
201,509033,1178560,0.992,0.044,-0.026,0,0,0,-34.9,6.5,26.7,0.166417432,0.703176977,-0.142185736,0.676442763
202,511256,1178560,0.985,0.036,-0.026,0,0,0,-34.9,6.5,26.7,0.166386914,0.703176977,-0.142185736,0.676442763
203,514690,1178560,0.985,0.044,-0.03,0,0,0,-34.9,6.5,26.7,0.166386914,0.703176977,-0.142185736,0.676442763
204,516202,1178560,0.988,0.04,-0.026,0,0,0,-35.1,6.2,26.3,0.166386914,0.703176977,-0.142185736,0.676442763
205,520089,1178570,0.985,0.036,-0.022,0,0.1,0,-35.1,6.2,26.3,0.166417432,0.703176977,-0.142185736,0.676442763
206,522267,1178570,0.985,0.04,-0.034,0,0.1,0,-35.1,6.2,26.3,0.166417432,0.703176977,-0.142185736,0.676442763
207,523762,1178570,0.985,0.04,-0.034,0,0.1,0,-35.1,6.2,26.3,0.166417432,0.703176977,-0.142185736,0.676442763
208,526096,1178570,0.985,0.04,-0.022,0,0.1,0,-34.9,6.1,26.6,0.166417432,0.703176977,-0.142185736,0.676442763
209,529771,1178580,0.985,0.04,-0.026,0,0.1,0,-34.9,6.1,26.6,0.166417432,0.703176977,-0.142185736,0.676442763
210,532148,1178580,0.985,0.044,-0.022,0,0.3,0,-34.9,6.1,26.6,0.166417432,0.703176977,-0.142185736,0.676442763
211,534488,1178580,0.988,0.04,-0.026,0,0.4,0,-34.9,6.1,26.6,0.166417432,0.703176977,-0.142185736,0.676442763
212,536555,1178580,0.988,0.04,-0.026,0,0.4,0,-34.9,6.1,26.6,0.166417432,0.703176977,-0.142185736,0.676442763
213,538752,1178590,0.985,0.04,-0.026,0,0.2,0,-35.2,6.1,27.5,0.166417432,0.70311594,-0.142185736,0.6765038
214,541306,1178590,0.985,0.04,-0.034,0,0.1,0,-35.2,6.1,27.5,0.166417432,0.70311594,-0.142185736,0.6765038
215,544807,1178590,0.988,0.036,-0.026,0,0,0,-35.2,6.1,27.5,0.166417432,0.70311594,-0.142185736,0.6765038
216,546369,1178590,0.985,0.036,-0.03,0,0,0,-35.2,5.3,26.2,0.166417432,0.70311594,-0.142185736,0.6765038
217,549546,1178600,0.988,0.04,-0.022,0,-0.1,0,-35.2,5.3,26.2,0.166417432,0.70311594,-0.142185736,0.6765038
218,551040,1178600,0.985,0.048,-0.026,0,0,0,-35.2,5.3,26.2,0.166417432,0.70311594,-0.142185736,0.6765038
219,553592,1178600,0.985,0.036,-0.026,0,0,0,-35.2,5.3,26.2,0.166417432,0.70311594,-0.142185736,0.6765038
220,557047,1178600,0.988,0.044,-0.022,0,0.1,0,-35.4,4.3,26.6,0.166417432,0.70311594,-0.142185736,0.6765038
221,558541,1178610,0.985,0.036,-0.03,0,0.1,0,-35.4,4.3,26.6,0.166417432,0.70311594,-0.142185736,0.6765038
222,561141,1178610,0.985,0.044,-0.026,0,0.1,0,-35.4,4.3,26.6,0.166417432,0.70311594,-0.142185736,0.6765038
223,565296,1178610,0.988,0.04,-0.03,0,0,0,-35.4,4.3,26.6,0.166417432,0.70311594,-0.142185736,0.6765038
224,567571,1178610,0.988,0.04,-0.03,0,0,0,-35.3,4.4,26.5,0.166417432,0.70311594,-0.142185736,0.6765038
225,569821,1178620,0.985,0.044,-0.03,0,0,0,-35.3,4.4,26.5,0.166417432,0.70311594,-0.142185736,0.6765038
226,572066,1178620,0.985,0.04,-0.026,0,0,0,-35.3,4.4,26.5,0.166417432,0.70311594,-0.142185736,0.6765038
227,574307,1178620,0.981,0.04,-0.03,0,0,0,-35.3,4.4,26.5,0.166447951,0.70311594,-0.142185736,0.6765038
228,576548,1178620,0.985,0.044,-0.026,0,0,0,-35.5,3.9,26,0.166447951,0.70311594,-0.142185736,0.6765038
229,578709,1178630,0.985,0.04,-0.026,0,0,0,-35.5,3.9,26,0.166447951,0.70311594,-0.142185736,0.6765038
230,581469,1178630,0.985,0.04,-0.03,0,0.1,0,-35.5,3.9,26,0.166447951,0.70311594,-0.142185736,0.6765038
231,583662,1178630,0.988,0.04,-0.026,0,0.1,0.1,-35.5,3.9,26,0.166417432,0.70311594,-0.142185736,0.676534318
232,586280,1178630,0.988,0.04,-0.026,0,0.1,0.1,-35.5,3.9,26,0.166417432,0.70311594,-0.142185736,0.676534318
233,589486,1178640,0.985,0.04,-0.026,0,0,0.2,-35.2,7.6,27.9,0.166447951,0.703085421,-0.142185736,0.676534318
234,591637,1178640,0.985,0.04,-0.026,0,-0.1,0.2,-35.2,7.6,27.9,0.166417432,0.703085421,-0.142185736,0.676534318
235,593929,1178640,0.981,0.036,-0.03,0,-0.1,0,-35.2,7.6,27.9,0.166417432,0.703085421,-0.142185736,0.676534318
236,596329,1178640,0.985,0.04,-0.026,0,-0.1,0,-34.8,4.8,25.5,0.166417432,0.703085421,-0.142185736,0.676534318
237,598648,1178650,0.985,0.04,-0.03,0,0,-0.1,-34.8,4.8,25.5,0.166417432,0.703085421,-0.142185736,0.676534318
238,601164,1178650,0.988,0.044,-0.022,0,0,-0.1,-34.8,4.8,25.5,0.166417432,0.703085421,-0.142185736,0.676534318
239,604636,1178650,0.988,0.04,-0.026,0,0.1,-0.1,-34.8,4.8,25.5,0.166447951,0.703085421,-0.142185736,0.676534318
240,606173,1178650,0.988,0.04,-0.026,0,0.2,-0.1,-35,5.2,25.8,0.166447951,0.703085421,-0.142155217,0.676534318
241,608816,1178660,0.985,0.044,-0.026,0,0.2,0,-35,5.2,25.8,0.166447951,0.703085421,-0.142155217,0.676534318
242,610981,1178660,0.985,0.04,-0.026,0,0.1,0,-35,5.2,25.8,0.166447951,0.703085421,-0.142155217,0.676534318
243,614469,1178660,0.981,0.04,-0.026,-0.1,0.1,0,-35,5.2,25.8,0.166447951,0.703085421,-0.142155217,0.676534318
244,616520,1178660,0.985,0.036,-0.03,-0.1,0.1,0,-34.9,5.5,26,0.166447951,0.703085421,-0.142185736,0.676534318
245,618774,1178670,0.985,0.036,-0.034,-0.1,0,0,-34.9,5.5,26,0.166447951,0.703085421,-0.142185736,0.676534318
246,622021,1178670,0.988,0.04,-0.026,0,-0.1,0,-34.9,5.5,26,0.166447951,0.703085421,-0.142185736,0.676534318
247,623539,1178670,0.988,0.044,-0.03,0,-0.2,0,-34.9,5.5,26,0.166447951,0.703085421,-0.142185736,0.676534318
248,626652,1178670,0.992,0.044,-0.03,0,-0.3,0,-34.9,6.4,25.7,0.166447951,0.703085421,-0.142185736,0.676534318
249,629555,1178680,0.988,0.04,-0.026,0,-0.3,0,-34.9,6.4,25.7,0.166447951,0.703085421,-0.142185736,0.676534318
250,631036,1178680,0.985,0.04,-0.022,0,-0.1,0,-34.9,6.4,25.7,0.166447951,0.703085421,-0.142185736,0.676534318
251,634059,1178680,0.988,0.036,-0.03,0,-0.1,0,-34.9,6.4,25.7,0.166447951,0.70311594,-0.142185736,0.6765038
252,637051,1178680,0.988,0.036,-0.03,0,-0.1,0,-34.9,6.4,25.7,0.166447951,0.70311594,-0.142185736,0.6765038
253,638619,1178690,0.985,0.036,-0.03,0,0,-0.1,-35.2,6.3,26.8,0.166447951,0.703085421,-0.142155217,0.676534318
254,641242,1178690,0.985,0.036,-0.03,0,0,-0.1,-35.2,6.3,26.8,0.166447951,0.703085421,-0.142155217,0.676534318
255,645360,1178690,0.981,0.04,-0.034,0,0,-0.1,-35.2,6.3,26.8,0.166447951,0.703085421,-0.142155217,0.676534318
256,647733,1178690,0.985,0.036,-0.026,0,0,-0.1,-35.2,6.1,26.7,0.166478469,0.703085421,-0.142155217,0.676534318
257,649501,1178700,0.985,0.044,-0.03,0,0.1,0,-35.2,6.1,26.7,0.166478469,0.703085421,-0.142155217,0.676534318
258,651308,1178700,0.985,0.04,-0.026,0,0.1,0,-35.2,6.1,26.7,0.166478469,0.703085421,-0.142155217,0.676534318
259,653554,1178700,0.985,0.04,-0.03,0,0,0,-35.2,6.1,26.7,0.166478469,0.703085421,-0.142155217,0.676534318
260,656964,1178700,0.981,0.04,-0.03,0,0,0,-35.5,6.8,26.8,0.166478469,0.703085421,-0.142155217,0.676534318
261,658542,1178710,0.985,0.04,-0.038,-0.1,0,0,-35.5,6.8,26.8,0.166478469,0.703085421,-0.142155217,0.676534318
262,661705,1178710,0.988,0.04,-0.03,0,0,0,-35.5,6.8,26.8,0.166478469,0.703085421,-0.142155217,0.676534318
263,663883,1178710,0.985,0.036,-0.03,0,0,0,-35.5,6.8,26.8,0.166478469,0.703085421,-0.142155217,0.676534318
264,666138,1178710,0.985,0.04,-0.026,0.1,0,0,-35.3,6.5,26.9,0.166478469,0.703085421,-0.142155217,0.676534318
265,668676,1178720,0.988,0.04,-0.026,0,0,-0.1,-35.3,6.5,26.9,0.166478469,0.703085421,-0.142155217,0.676534318
266,672139,1178720,0.985,0.044,-0.026,0,0.1,-0.1,-35.3,6.5,26.9,0.166478469,0.703085421,-0.142155217,0.676534318
267,673664,1178720,0.988,0.04,-0.03,0,0.1,0,-35.3,6.5,26.9,0.166478469,0.703085421,-0.142155217,0.676534318
268,676082,1178720,0.981,0.04,-0.026,0,0.1,0,-35.4,6.3,27.1,0.166478469,0.703085421,-0.142155217,0.676534318
269,679566,1178730,0.985,0.036,-0.03,0,0.1,0,-35.4,6.3,27.1,0.166478469,0.703085421,-0.142155217,0.676534318
270,681159,1178730,0.985,0.04,-0.03,0,0,0,-35.4,6.3,27.1,0.166478469,0.703085421,-0.142155217,0.676534318
271,684170,1178730,0.981,0.044,-0.03,0,0,0,-35.4,6.3,27.1,0.166478469,0.703085421,-0.142155217,0.676534318
272,685945,1178730,0.981,0.044,-0.03,0,0,0,-35.4,6.3,27.1,0.166478469,0.703085421,-0.142155217,0.676534318
273,689421,1178740,0.981,0.044,-0.026,0,0,0,-35.2,5.3,26.9,0.166478469,0.703085421,-0.142155217,0.676534318
274,691163,1178740,0.992,0.044,-0.03,0,0,0,-35.2,5.3,26.9,0.166478469,0.703085421,-0.142155217,0.676534318
275,693491,1178740,0.988,0.036,-0.026,0.1,-0.1,0,-35.2,5.3,26.9,0.166478469,0.703085421,-0.142155217,0.676534318
276,696935,1178740,0.988,0.04,-0.03,0.1,-0.1,0,-35.3,6.3,26.8,0.166478469,0.703085421,-0.142155217,0.676534318
277,698649,1178750,0.985,0.04,-0.03,0,-0.1,0,-35.3,6.3,26.8,0.166478469,0.703085421,-0.142155217,0.676534318
278,701166,1178750,0.985,0.04,-0.034,0,-0.1,0,-35.3,6.3,26.8,0.166447951,0.703085421,-0.142155217,0.676534318
279,704153,1178750,0.985,0.04,-0.03,0,-0.1,0,-35.3,6.3,26.8,0.166478469,0.703085421,-0.142155217,0.676534318
280,706412,1178750,0.981,0.04,-0.03,0,-0.1,0,-36,6.4,27,0.166478469,0.703085421,-0.142155217,0.6765038
281,708683,1178760,0.985,0.04,-0.03,0,-0.1,0,-36,6.4,27,0.166478469,0.70311594,-0.142155217,0.6765038
282,711483,1178760,0.985,0.04,-0.03,0,-0.1,0,-36,6.4,27,0.166478469,0.70311594,-0.142155217,0.6765038
283,714528,1178760,0.988,0.048,-0.03,0,-0.2,0,-36,6.4,27,0.166447951,0.70311594,-0.142155217,0.6765038
284,715943,1178760,0.985,0.04,-0.026,0.1,-0.2,0,-36.5,6.4,26.6,0.166447951,0.70311594,-0.142155217,0.6765038
285,718797,1178770,0.988,0.044,-0.026,0,-0.1,0,-36.5,6.4,26.6,0.166447951,0.70311594,-0.142155217,0.6765038
286,721676,1178770,0.988,0.044,-0.022,0,-0.1,0.1,-36.5,6.4,26.6,0.166447951,0.70311594,-0.142185736,0.6765038
287,723516,1178770,0.988,0.048,-0.026,0,-0.1,0,-36.5,6.4,26.6,0.166447951,0.70311594,-0.142185736,0.6765038
288,727001,1178770,0.985,0.036,-0.03,0,-0.1,0,-37.1,6.6,26.6,0.166447951,0.70311594,-0.142185736,0.6765038
289,728605,1178780,0.988,0.04,-0.03,0,0,0,-37.1,6.6,26.6,0.166447951,0.70311594,-0.142185736,0.6765038
290,731277,1178780,0.985,0.044,-0.026,0,0,0,-37.1,6.6,26.6,0.166447951,0.70311594,-0.142185736,0.6765038
291,734377,1178780,0.985,0.04,-0.026,0,0.1,0,-37.1,6.6,26.6,0.166447951,0.70311594,-0.142185736,0.6765038
292,736076,1178780,0.985,0.04,-0.026,0,0.1,0,-37.1,6.6,26.6,0.166447951,0.70311594,-0.142185736,0.6765038
293,739592,1178790,0.985,0.04,-0.03,0,0.1,0,-34.2,4.6,26.7,0.166447951,0.70311594,-0.142185736,0.6765038
294,741057,1178790,0.985,0.04,-0.022,0,0.1,-0.1,-34.2,4.6,26.7,0.166447951,0.70311594,-0.142155217,0.6765038
295,743955,1178790,0.981,0.04,-0.03,0,0.1,0,-34.2,4.6,26.7,0.166447951,0.70311594,-0.142155217,0.6765038
296,747036,1178790,0.985,0.04,-0.034,-0.1,0.1,0,-37,7.2,26.7,0.166447951,0.70311594,-0.142155217,0.6765038
297,748555,1178800,0.985,0.04,-0.03,-0.1,0,0,-37,7.2,26.7,0.166447951,0.70311594,-0.142155217,0.6765038
298,751172,1178800,0.988,0.04,-0.026,-0.1,0,-0.1,-37,7.2,26.7,0.166478469,0.70311594,-0.142155217,0.6765038
299,754635,1178800,0.988,0.048,-0.026,0,-0.1,0,-37,7.2,26.7,0.166478469,0.70311594,-0.142155217,0.6765038
300,756845,1178800,0.985,0.036,-0.03,0,-0.1,0,-36.7,7.3,26.9,0.166478469,0.70311594,-0.142155217,0.6765038
301,759003,1178810,0.992,0.044,-0.03,0,-0.1,0,-36.7,7.3,26.9,0.166478469,0.70311594,-0.142155217,0.6765038
302,761300,1178810,0.988,0.044,-0.034,0,-0.1,0,-36.7,7.3,26.9,0.166478469,0.70311594,-0.142155217,0.6765038
303,763621,1178810,0.988,0.044,-0.026,0,-0.1,0,-36.7,7.3,26.9,0.166447951,0.70311594,-0.142185736,0.6765038
304,766388,1178810,0.985,0.044,-0.026,0,-0.1,0,-37,7.6,27,0.166447951,0.70311594,-0.142185736,0.6765038
305,769460,1178820,0.985,0.04,-0.03,0,-0.2,0,-37,7.6,27,0.166478469,0.70311594,-0.142185736,0.6765038
306,771180,1178820,0.977,0.036,-0.026,-0.1,-0.1,0,-37,7.6,27,0.166478469,0.70311594,-0.142185736,0.6765038
307,773883,1178820,0.981,0.036,-0.026,0,-0.1,0,-37,7.6,27,0.166478469,0.70311594,-0.142185736,0.6765038
308,776853,1178820,0.985,0.036,-0.026,0,0,0,-36.3,7.3,26.8,0.166478469,0.70311594,-0.142185736,0.6765038
309,778599,1178830,0.988,0.04,-0.026,0,0.1,0,-36.3,7.3,26.8,0.166478469,0.70311594,-0.142185736,0.6765038
310,782139,1178830,0.988,0.036,-0.03,0,0,0,-36.3,7.3,26.8,0.166478469,0.70311594,-0.142185736,0.6765038
311,783572,1178830,0.988,0.04,-0.03,0,0,0,-36.3,7.3,26.8,0.166478469,0.70311594,-0.142185736,0.6765038
312,786115,1178830,0.988,0.04,-0.03,0,0,0,-36.3,7.3,26.8,0.166478469,0.70311594,-0.142185736,0.6765038
313,788876,1178840,0.992,0.04,-0.026,0,-0.1,0,-34.5,6.2,26.5,0.166447951,0.70311594,-0.142185736,0.6765038
314,791967,1178840,0.985,0.036,-0.03,0,0,0,-34.5,6.2,26.5,0.166447951,0.70311594,-0.142185736,0.6765038
315,793507,1178840,0.985,0.044,-0.026,0,0,0,-34.5,6.2,26.5,0.166447951,0.70311594,-0.142185736,0.6765038
316,796272,1178840,0.985,0.04,-0.03,0,0,0,-35.7,5.9,26.5,0.166447951,0.70311594,-0.142185736,0.6765038
317,799196,1178850,0.985,0.044,-0.026,0,0,0,-35.7,5.9,26.5,0.166447951,0.70311594,-0.142185736,0.6765038
318,801577,1178850,0.981,0.044,-0.026,0,0,0,-35.7,5.9,26.5,0.166447951,0.70311594,-0.142185736,0.6765038
319,803689,1178850,0.985,0.044,-0.03,0,0,-0.1,-35.7,5.9,26.5,0.166447951,0.70311594,-0.142185736,0.6765038
320,806440,1178850,0.988,0.044,-0.034,0.1,0,0,-35.2,5.7,27,0.166447951,0.70311594,-0.142185736,0.6765038
321,808565,1178860,0.985,0.044,-0.034,0,0,0,-35.2,5.7,27,0.166447951,0.70311594,-0.142185736,0.6765038
322,811977,1178860,0.985,0.044,-0.03,0,0,0,-35.2,5.7,27,0.166447951,0.70311594,-0.142185736,0.6765038
323,813716,1178860,0.985,0.04,-0.03,0,0,0,-35.2,5.7,27,0.166447951,0.70311594,-0.142185736,0.6765038
324,816054,1178860,0.988,0.04,-0.03,0,0,0,-35,5.7,26.7,0.166447951,0.70311594,-0.142185736,0.6765038
325,819480,1178870,0.985,0.036,-0.03,0,-0.1,-0.1,-35,5.7,26.7,0.166447951,0.70311594,-0.142185736,0.676473281
326,820960,1178870,0.985,0.044,-0.034,0,-0.2,-0.1,-35,5.7,26.7,0.166478469,0.70311594,-0.142185736,0.676473281
327,823854,1178870,0.988,0.04,-0.03,0,-0.3,0,-35,5.7,26.7,0.166478469,0.703146458,-0.142185736,0.676473281
328,826837,1178870,0.988,0.04,-0.03,0,-0.2,0,-34.6,6,27,0.166447951,0.703146458,-0.142185736,0.676473281
329,828583,1178880,0.992,0.044,-0.03,0,-0.1,0,-34.6,6,27,0.166447951,0.703146458,-0.142185736,0.676473281
330,831420,1178880,0.985,0.036,-0.03,0,0,0,-34.6,6,27,0.166447951,0.703146458,-0.142185736,0.676473281
331,834215,1178880,0.988,0.04,-0.026,0,0.1,0,-34.6,6,27,0.166447951,0.703146458,-0.142185736,0.676473281
332,837351,1178880,0.988,0.04,-0.026,0,0.1,0,-34.6,6,27,0.166447951,0.703146458,-0.142185736,0.676473281
333,838790,1178890,0.981,0.036,-0.03,0.1,0.2,0,-34.6,6,27,0.166447951,0.703146458,-0.142216254,0.676473281
334,841836,1178890,0.981,0.044,-0.03,0.1,0.1,0,-34.6,6,27,0.166447951,0.70311594,-0.142185736,0.676473281
335,843484,1178890,0.981,0.04,-0.034,0.1,0,0,-34.6,6,27,0.166447951,0.70311594,-0.142185736,0.676473281
336,846199,1178890,0.981,0.04,-0.03,0,0,0,-34.4,6.1,26.7,0.166447951,0.70311594,-0.142185736,0.676473281
337,849260,1178900,0.985,0.044,-0.026,-0.1,0.1,0,-34.4,6.1,26.7,0.166447951,0.70311594,-0.142185736,0.676473281
338,850933,1178900,0.985,0.04,-0.03,0,0.1,0,-34.4,6.1,26.7,0.166447951,0.70311594,-0.142185736,0.676473281
339,853722,1178900,0.988,0.036,-0.03,0,0.1,0,-34.4,6.1,26.7,0.166447951,0.70311594,-0.142185736,0.6765038
340,856775,1178900,0.988,0.04,-0.026,0,0,0,-34.7,5.9,26.8,0.166447951,0.70311594,-0.142185736,0.6765038
341,858430,1178910,0.985,0.044,-0.03,0,0,0,-34.7,5.9,26.8,0.166447951,0.70311594,-0.142185736,0.6765038
342,861187,1178910,0.988,0.04,-0.026,0,0,0,-34.7,5.9,26.8,0.166447951,0.70311594,-0.142185736,0.6765038
343,863484,1178910,0.985,0.036,-0.026,0,-0.1,0,-34.7,5.9,26.8,0.166447951,0.70311594,-0.142185736,0.676473281
344,866279,1178910,0.988,0.036,-0.026,0,-0.1,0,-34.8,5.8,26.6,0.166447951,0.70311594,-0.142185736,0.676473281
345,869415,1178920,0.981,0.04,-0.022,0,0,-0.1,-34.8,5.8,26.6,0.166447951,0.70311594,-0.142185736,0.676473281
346,871045,1178920,0.985,0.04,-0.03,0.1,0.1,0,-34.8,5.8,26.6,0.166447951,0.70311594,-0.142185736,0.676473281
347,874259,1178920,0.985,0.04,-0.03,0.1,0.2,0,-34.8,5.8,26.6,0.166447951,0.70311594,-0.142185736,0.6765038
348,876137,1178920,0.985,0.04,-0.026,0.1,0.3,0,-34.7,5.7,26.7,0.166447951,0.70311594,-0.142185736,0.6765038
349,879524,1178930,0.985,0.044,-0.03,0,0.2,0.1,-34.7,5.7,26.7,0.166447951,0.70311594,-0.142185736,0.6765038
350,881047,1178930,0.981,0.044,-0.03,-0.1,0.1,0.2,-34.7,5.7,26.7,0.166447951,0.70311594,-0.142185736,0.6765038
351,883455,1178930,0.985,0.04,-0.034,-0.1,0,0.2,-34.7,5.7,26.7,0.166447951,0.70311594,-0.142185736,0.6765038
352,886427,1178930,0.985,0.04,-0.034,-0.1,0,0.2,-34.7,5.7,26.7,0.166447951,0.70311594,-0.142185736,0.6765038
353,888643,1178940,0.988,0.044,-0.03,0,0,0,-34.7,5.7,26.7,0.166447951,0.70311594,-0.142185736,0.676473281
354,891604,1178940,0.988,0.04,-0.026,0,0,0,-34.7,5.7,26.7,0.166447951,0.70311594,-0.142185736,0.676473281
355,894682,1178940,0.985,0.04,-0.03,0,0,0,-34.7,5.7,26.7,0.166447951,0.70311594,-0.142185736,0.676473281
356,896122,1178940,0.988,0.036,-0.03,0,0,0,-34.1,5.8,26.6,0.166478469,0.70311594,-0.142185736,0.676473281
357,898481,1178950,0.988,0.04,-0.026,0,-0.1,0,-34.1,5.8,26.6,0.166478469,0.703146458,-0.142185736,0.676473281
358,900985,1178950,0.988,0.04,-0.03,0,-0.3,0,-34.1,5.8,26.6,0.166478469,0.703146458,-0.142185736,0.676473281
359,904353,1178950,0.985,0.04,-0.026,0,-0.2,0,-34.1,5.8,26.6,0.166478469,0.703146458,-0.142185736,0.676473281
360,905971,1178950,0.988,0.048,-0.022,0,0,0.1,-33.9,5.6,26.8,0.166478469,0.703146458,-0.142185736,0.676473281
361,908793,1178960,0.981,0.036,-0.026,0,0.2,0.2,-33.9,5.6,26.8,0.166447951,0.703146458,-0.142185736,0.676473281
362,911747,1178960,0.981,0.044,-0.03,0,0.3,0.2,-33.9,5.6,26.8,0.166447951,0.70311594,-0.142216254,0.676473281
363,913685,1178960,0.981,0.036,-0.038,0,0.2,0,-33.9,5.6,26.8,0.166447951,0.70311594,-0.142216254,0.676473281
364,916883,1178960,0.985,0.04,-0.034,0,0.1,-0.1,-33.9,6.2,26.6,0.166478469,0.70311594,-0.142185736,0.676473281
365,918487,1178970,0.981,0.044,-0.03,0,0,-0.1,-33.9,6.2,26.6,0.166478469,0.70311594,-0.142185736,0.676473281
366,922092,1178970,0.988,0.04,-0.026,0,0.1,-0.1,-33.9,6.2,26.6,0.166478469,0.70311594,-0.142185736,0.6765038
367,924312,1178970,0.985,0.04,-0.022,0,0.1,0,-33.9,6.2,26.6,0.166478469,0.70311594,-0.142185736,0.6765038
368,926580,1178970,0.988,0.04,-0.03,0,0.1,0,-33.9,6,26.9,0.166478469,0.70311594,-0.142185736,0.6765038
369,928866,1178980,0.988,0.044,-0.03,0,0.1,0,-33.9,6,26.9,0.166478469,0.70311594,-0.142185736,0.6765038
370,931033,1178980,0.988,0.04,-0.03,0,0,0,-33.9,6,26.9,0.166478469,0.70311594,-0.142185736,0.6765038
371,934825,1178980,0.988,0.04,-0.03,-0.1,0,0,-33.9,6,26.9,0.166478469,0.70311594,-0.142185736,0.6765038
372,937128,1178980,0.988,0.04,-0.03,-0.1,0,0,-33.9,6,26.9,0.166478469,0.70311594,-0.142185736,0.6765038
373,939299,1178990,0.988,0.044,-0.03,-0.1,0.1,0,-33.9,6,26.9,0.166478469,0.70311594,-0.142185736,0.676473281
374,941558,1178990,0.985,0.036,-0.03,-0.1,0.2,0,-33.9,6,26.9,0.166478469,0.70311594,-0.142185736,0.676473281
375,943792,1178990,0.985,0.044,-0.026,0,0.2,0.1,-33.9,6,26.9,0.166478469,0.70311594,-0.142185736,0.6765038
376,946123,1178990,0.985,0.04,-0.026,0,0.1,0.1,-35.1,6,26.9,0.166478469,0.70311594,-0.142216254,0.6765038
377,948871,1179000,0.985,0.04,-0.026,0,0.1,0.2,-35.1,6,26.9,0.166478469,0.70311594,-0.142216254,0.6765038
378,951948,1179000,0.985,0.04,-0.03,0,0,0.1,-35.1,6,26.9,0.166478469,0.70311594,-0.142216254,0.6765038
379,953555,1179000,0.981,0.036,-0.03,0,0.1,0.1,-35.1,6,26.9,0.166478469,0.70311594,-0.142216254,0.6765038
380,957010,1179000,0.985,0.04,-0.03,0,0.1,0,-35.4,5.6,26.5,0.166478469,0.70311594,-0.142216254,0.6765038
381,958524,1179010,0.985,0.04,-0.03,0,0.1,0,-35.4,5.6,26.5,0.166478469,0.70311594,-0.142216254,0.6765038
382,961687,1179010,0.988,0.036,-0.026,0,0,-0.1,-35.4,5.6,26.5,0.166478469,0.70311594,-0.142216254,0.6765038
383,963849,1179010,0.988,0.032,-0.03,0,0,-0.2,-35.4,5.6,26.5,0.166478469,0.70311594,-0.142185736,0.6765038
384,966142,1179010,0.988,0.036,-0.03,0,0,-0.1,-35.4,5.9,26.9,0.166478469,0.70311594,-0.142185736,0.6765038
385,969164,1179020,0.985,0.036,-0.026,0,0,0,-35.4,5.9,26.9,0.166478469,0.70311594,-0.142185736,0.6765038
386,972292,1179020,0.985,0.04,-0.022,0,0,0,-35.4,5.9,26.9,0.166478469,0.70311594,-0.142185736,0.6765038
387,973702,1179020,0.988,0.04,-0.026,0,0,0,-35.4,5.9,26.9,0.166478469,0.70311594,-0.142185736,0.6765038
388,976601,1179020,0.985,0.036,-0.03,0,0,-0.1,-35.5,5.4,27.2,0.166478469,0.70311594,-0.142185736,0.6765038
389,978411,1179030,0.985,0.04,-0.03,0.1,0,-0.1,-35.5,5.4,27.2,0.166478469,0.70311594,-0.142185736,0.6765038
390,981366,1179030,0.985,0.036,-0.03,0.1,0.1,0,-35.5,5.4,27.2,0.166478469,0.70311594,-0.142185736,0.6765038
391,984496,1179030,0.985,0.04,-0.03,0.1,0.3,0,-35.5,5.4,27.2,0.166478469,0.70311594,-0.142185736,0.6765038
392,985986,1179030,0.985,0.04,-0.03,0.1,0.3,0,-35.5,5.4,27.2,0.166478469,0.70311594,-0.142185736,0.6765038
393,989003,1179040,0.988,0.044,-0.03,0,0.3,0,-35.5,5.4,27.2,0.166447951,0.70311594,-0.142216254,0.6765038
394,992041,1179040,0.988,0.044,-0.026,0,0,0,-35.5,5.4,27.2,0.166447951,0.70311594,-0.142216254,0.6765038
395,993574,1179040,0.988,0.04,-0.03,0,-0.1,0,-35.5,5.4,27.2,0.166447951,0.70311594,-0.142216254,0.6765038
396,996479,1179040,0.988,0.04,-0.026,0,-0.1,0,-35.2,5.7,27.4,0.166447951,0.70311594,-0.142216254,0.6765038
397,999549,1179050,0.985,0.036,-0.026,0,-0.1,0,-35.2,5.7,27.4,0.166447951,0.70311594,-0.142216254,0.6765038
398,1001072,1179050,0.988,0.036,-0.03,-0.1,0,0,-35.2,5.7,27.4,0.166447951,0.70311594,-0.142216254,0.6765038
399,1003511,1179050,0.985,0.048,-0.03,0,0.2,0,-35.2,5.7,27.4,0.166447951,0.70311594,-0.142216254,0.6765038
400,1007089,1179050,0.988,0.04,-0.026,0.1,0.4,0,-35.3,5.5,28.1,0.166447951,0.70311594,-0.142216254,0.6765038
401,1008583,1179060,0.985,0.04,-0.03,0.1,0.4,0,-35.3,5.5,28.1,0.166447951,0.703085421,-0.142216254,0.6765038
402,1011074,1179060,0.985,0.04,-0.026,0.1,0.3,0,-35.3,5.5,28.1,0.166447951,0.703085421,-0.142216254,0.676534318
403,1014530,1179060,0.985,0.036,-0.026,0,0.1,0,-35.3,5.5,28.1,0.166447951,0.703085421,-0.142216254,0.676534318
404,1016158,1179060,0.988,0.04,-0.03,0,0,0.1,-35.5,5.7,28.4,0.166447951,0.703085421,-0.142216254,0.676534318
405,1018621,1179070,0.985,0.04,-0.026,-0.1,-0.1,0.1,-35.5,5.7,28.4,0.166447951,0.703085421,-0.142216254,0.676534318
406,1022086,1179070,0.985,0.036,-0.03,0,0,0.1,-35.5,5.7,28.4,0.166447951,0.703085421,-0.142216254,0.676534318
407,1024335,1179070,0.981,0.04,-0.03,0,0,0,-35.5,5.7,28.4,0.166447951,0.703085421,-0.142216254,0.676534318
408,1026614,1179070,0.985,0.04,-0.034,0,0,0,-35.2,6,28.5,0.166447951,0.703085421,-0.142216254,0.676534318
409,1028853,1179080,0.985,0.04,-0.018,0,0,0,-35.2,6,28.5,0.166447951,0.703085421,-0.142216254,0.676534318
410,1031071,1179080,0.988,0.044,-0.03,0,0,0,-35.2,6,28.5,0.166447951,0.703085421,-0.142216254,0.676534318
411,1033505,1179080,0.988,0.04,-0.026,0,0,0,-35.2,6,28.5,0.166447951,0.703085421,-0.142216254,0.676534318
412,1036988,1179080,0.988,0.04,-0.026,0,0,0,-35.2,6,28.5,0.166447951,0.703085421,-0.142216254,0.676534318
413,1038599,1179090,0.985,0.04,-0.026,0,0,0,-35.2,6,28.5,0.166447951,0.703085421,-0.142216254,0.676534318
414,1041529,1179090,0.985,0.04,-0.026,0,0.1,0,-35.2,6,28.5,0.166447951,0.703085421,-0.142216254,0.676534318
415,1044564,1179090,0.988,0.036,-0.026,0,0.2,0.1,-35.2,6,28.5,0.166447951,0.703054903,-0.142216254,0.676534318
416,1046147,1179090,0.988,0.04,-0.03,0,0.3,0.1,-35.5,6,26.8,0.166447951,0.703054903,-0.142216254,0.676534318
417,1048793,1179100,0.985,0.044,-0.03,0,0.3,0,-35.5,6,26.8,0.166447951,0.703054903,-0.142216254,0.676564837
418,1052118,1179100,0.985,0.04,-0.03,0,0.2,0,-35.5,6,26.8,0.166447951,0.703054903,-0.142216254,0.676564837
419,1054558,1179100,0.985,0.04,-0.026,0,0.1,0.1,-35.5,6,26.8,0.166447951,0.703054903,-0.142216254,0.676564837
420,1057437,1179100,0.985,0.04,-0.026,0,0.1,0,-35.3,6,26.8,0.166447951,0.703054903,-0.142216254,0.676564837
421,1059632,1179110,0.988,0.04,-0.026,0,0,0,-35.3,6,26.8,0.166447951,0.703054903,-0.142216254,0.676564837
422,1061882,1179110,0.988,0.044,-0.026,0,0.1,0,-35.3,6,26.8,0.166447951,0.703054903,-0.142216254,0.676564837
423,1064053,1179110,0.988,0.036,-0.026,0,0.1,0,-35.3,6,26.8,0.166447951,0.703054903,-0.142216254,0.676564837
424,1066356,1179110,0.985,0.036,-0.026,0,0.2,0.2,-35,5.9,26.6,0.166447951,0.703054903,-0.142216254,0.676564837
425,1069028,1179120,0.985,0.04,-0.03,0,0.1,0.2,-35,5.9,26.6,0.166447951,0.703024384,-0.142216254,0.676564837
426,1070823,1179120,0.985,0.04,-0.03,0,0,0.2,-35,5.9,26.6,0.166447951,0.703024384,-0.142216254,0.676564837
427,1074550,1179120,0.985,0.036,-0.03,0.1,0,0.1,-35,5.9,26.6,0.166447951,0.703024384,-0.142216254,0.676564837
428,1076912,1179120,0.985,0.044,-0.03,0.1,0,0.1,-35.3,5.7,25.7,0.166447951,0.703024384,-0.142216254,0.676595355
429,1079070,1179130,0.988,0.04,-0.03,0,0,0,-35.3,5.7,25.7,0.166447951,0.703024384,-0.142216254,0.676595355
430,1081376,1179130,0.985,0.044,-0.03,0,0,0,-35.3,5.7,25.7,0.166447951,0.703024384,-0.142216254,0.676595355
431,1083609,1179130,0.985,0.044,-0.03,0,-0.1,0,-35.3,5.7,25.7,0.166447951,0.703024384,-0.142216254,0.676595355
432,1086932,1179130,0.985,0.044,-0.03,0,-0.1,0,-35.3,5.7,25.7,0.166447951,0.703024384,-0.142216254,0.676595355
433,1088598,1179140,0.988,0.04,-0.026,0,0,0,-35.3,5.7,25.7,0.166447951,0.703054903,-0.142185736,0.676564837
434,1091223,1179140,0.985,0.04,-0.03,0,0,0,-35.3,5.7,25.7,0.166447951,0.703054903,-0.142185736,0.676564837
435,1093471,1179140,0.985,0.036,-0.03,0,0,0,-35.3,5.7,25.7,0.166447951,0.703054903,-0.142185736,0.676564837
436,1097348,1179140,0.985,0.04,-0.026,0,-0.1,0,-35.3,5.8,27.1,0.166447951,0.703054903,-0.142185736,0.676564837
437,1099488,1179150,0.985,0.044,-0.03,0.1,-0.1,-0.1,-35.3,5.8,27.1,0.166447951,0.703054903,-0.142185736,0.676564837
438,1101183,1179150,0.988,0.036,-0.022,0,0,-0.1,-35.3,5.8,27.1,0.166447951,0.703054903,-0.142185736,0.676534318
439,1104361,1179150,0.985,0.036,-0.03,0,0,-0.1,-35.3,5.8,27.1,0.166478469,0.703054903,-0.142185736,0.676534318
440,1106188,1179150,0.985,0.04,-0.038,0,0.1,-0.1,-35.5,5.9,26.9,0.166478469,0.703054903,-0.142185736,0.676534318
441,1109502,1179160,0.985,0.04,-0.022,0,0.1,0,-35.5,5.9,26.9,0.166478469,0.703054903,-0.142185736,0.676564837
442,1111119,1179160,0.988,0.04,-0.03,0,0,0,-35.5,5.9,26.9,0.166478469,0.703054903,-0.142185736,0.676564837
443,1114114,1179160,0.985,0.04,-0.03,0.1,0,0.2,-35.5,5.9,26.9,0.166447951,0.703054903,-0.142185736,0.676564837
444,1117330,1179160,0.985,0.04,-0.026,0,0,0.2,-35.4,5.7,26.8,0.166447951,0.703054903,-0.142185736,0.676564837
445,1118609,1179170,0.985,0.04,-0.03,0,-0.1,0,-35.4,5.7,26.8,0.166447951,0.703054903,-0.142185736,0.676564837
446,1121967,1179170,0.981,0.04,-0.034,0,-0.1,0,-35.4,5.7,26.8,0.166447951,0.703054903,-0.142185736,0.676534318
447,1123748,1179170,0.981,0.044,-0.03,0,-0.1,0,-35.4,5.7,26.8,0.166447951,0.703054903,-0.142185736,0.676534318
448,1126446,1179170,0.981,0.04,-0.03,0,0,0,-35.3,5.4,26.7,0.166447951,0.703054903,-0.142185736,0.676534318
449,1128612,1179180,0.988,0.04,-0.034,0,0,0,-35.3,5.4,26.7,0.166447951,0.703054903,-0.142185736,0.676534318
450,1132303,1179180,0.985,0.044,-0.03,0,0,0,-35.3,5.4,26.7,0.166447951,0.703085421,-0.142185736,0.676534318
451,1134650,1179180,0.988,0.04,-0.034,0,-0.1,0,-35.3,5.4,26.7,0.166447951,0.703085421,-0.142185736,0.676534318
452,1136891,1179180,0.988,0.04,-0.034,0,-0.1,0,-35.3,5.4,26.7,0.166447951,0.703085421,-0.142185736,0.676534318
453,1138494,1179190,0.981,0.04,-0.038,0,-0.2,0,-35.3,5.4,26.7,0.166447951,0.70311594,-0.142185736,0.6765038
454,1141909,1179190,0.985,0.044,-0.034,0,0,0,-35.3,5.4,26.7,0.166447951,0.70311594,-0.142185736,0.6765038
455,1143526,1179190,0.985,0.044,-0.034,0,0,0,-35.3,5.4,26.7,0.166447951,0.70311594,-0.142185736,0.6765038
456,1146612,1179190,0.985,0.044,-0.034,0,0,0,-35.3,5.4,26.7,0.166447951,0.70311594,-0.142185736,0.6765038
457,1148924,1179200,0.985,0.044,-0.034,0,0,0,-35.3,5.4,26.7,0.166447951,0.70311594,-0.142185736,0.6765038
458,1152045,1179200,0.985,0.044,-0.034,0,0,0,-35.3,5.4,26.7,0.166447951,0.70311594,-0.142185736,0.6765038
459,1154434,1179200,0.988,0.04,-0.022,0,0,0,-35.5,5.4,25.8,0.166447951,0.70311594,-0.142185736,0.6765038
460,1156672,1179200,0.988,0.04,-0.022,0,0,0,-35.5,5.4,25.8,0.166447951,0.70311594,-0.142185736,0.6765038
461,1158615,1179210,0.988,0.04,-0.03,0.1,0,-0.1,-35.8,6.6,26.2,0.166447951,0.70311594,-0.142185736,0.6765038
462,1161044,1179210,-6,-1.783,0.297,0,2.9,0,-35.8,6.6,26.2,0.166478469,0.703085421,-0.142185736,0.676534318
463,1164067,1179210,-2.079,-4.172,-7.158,-14.8,100.2,2.6,-35.8,6.6,26.2,0.166966765,0.701528977,-0.142063662,0.678029725
464,1166307,1179210,5.066,3.185,-8.117,-10.2,263.4,-3.3,-38,4,25.1,0.167973876,0.69759209,-0.141209143,0.68202765
465,1169517,1179220,7.959,6.049,-8.251,59.9,276.3,-21.2,-38,4,25.1,0.168248543,0.693746757,-0.138981292,0.68633076
466,1171151,1179220,7.964,7.974,0.792,158,88.5,-47.5,-38,4,25.1,0.166814173,0.693136387,-0.135563219,0.687948241
467,1173864,1179220,5.714,0.618,7.877,146.5,-121.8,-56.9,-38,4,25.1,0.165105136,0.695669424,-0.132938627,0.68633076
468,1176944,1179220,-2.199,3.68,8.119,22.9,-108.1,-39.6,-37.1,4.2,26.1,0.165044099,0.697500534,-0.132389294,0.684621723
469,1179327,1179230,-2.199,3.68,8.119,22.9,-108.1,-39.6,-37.1,4.2,26.1,0.165044099,0.697500534,-0.132389294,0.684621723
470,1182056,1179230,0.915,-4.684,6.915,-140.3,140,8.9,-37.1,4.2,26.1,0.169286172,0.693807794,-0.135288553,0.686758019
471,1183738,1179230,-0.841,1.938,1.393,-111.7,119.2,10.7,-37.1,4.2,26.1,0.17117832,0.691579943,-0.136692404,0.688253426
472,1186052,1179230,-1.726,1.265,1.572,-63.4,50.5,0.7,-37.1,4.2,26.1,0.172276986,0.690572832,-0.137455367,0.688833277
473,1189557,1179240,-0.335,-3.259,-5.699,-12,-11.6,-10.9,-37.1,4.2,26.1,0.172582171,0.690725425,-0.137516404,0.688589129
474,1191246,1179240,0.054,-3.139,-3.146,15.8,-42.5,-16.1,-37.1,4.2,26.1,0.172460097,0.691488388,-0.1371807,0.687917722
475,1193739,1179240,-0.07,0.43,-0.863,24.6,-51.4,-12.2,-37.1,4.2,26.1,0.172093875,0.692373424,-0.136844996,0.687185278
476,1196987,1179240,-1.001,-2.309,-0.466,28.9,-28.9,-4.9,-36.5,5.3,26.2,0.171666616,0.692953276,-0.136417737,0.686788537
477,1199219,1179250,-1.245,-3.539,1.252,19.4,9.6,2,-36.5,5.3,26.2,0.171361431,0.692861721,-0.136143071,0.687002167
478,1201429,1179250,1.55,1.935,2.622,1.2,28.6,6.7,-36.5,5.3,26.2,0.171330912,0.692373424,-0.136112552,0.687490463
479,1203802,1179250,1.768,1.119,1.395,-3.1,14.1,6.9,-36.5,5.3,26.2,0.171330912,0.692159795,-0.136204108,0.687704093
480,1207085,1179250,1.059,-0.151,0.433,7.6,-12.4,3.9,-36.3,5.7,26.3,0.171117283,0.692373424,-0.136204108,0.6875515
481,1209348,1179260,1.097,0.235,-0.485,15.1,-24.4,1.3,-36.3,5.7,26.3,0.170781579,0.692800684,-0.136082034,0.687246315
482,1211343,1179260,1.573,0.146,0.06,14.3,-20.4,0.5,-36.3,5.7,26.3,0.170506912,0.693166906,-0.13595996,0.686971648
483,1214625,1179260,1.637,-0.402,-0.457,11.6,-15.2,1,-36.3,5.7,26.3,0.170262764,0.693411054,-0.135868404,0.686788537
484,1216945,1179260,1.36,-0.074,-0.852,7.2,-11.2,2.3,-36.2,6.5,26.3,0.170079653,0.693624683,-0.135837886,0.686635945
485,1218679,1179270,0.5,0.191,-1.316,3.5,-2.4,4,-36.2,6.5,26.3,0.169957579,0.693655202,-0.135837886,0.686635945
486,1222467,1179270,0.277,-0.234,-1.135,1.4,9.1,5.3,-36.2,6.5,26.3,0.169896542,0.693502609,-0.135868404,0.686788537
487,1224527,1179270,0.445,-0.499,-0.854,-2.4,14.7,6.3,-36.2,6.5,26.3,0.169866024,0.693258461,-0.13595996,0.687032685
488,1226038,1179270,0.753,-0.43,-0.582,-7.3,8.3,6.9,-36.1,7,26.4,0.169896542,0.69307535,-0.136143071,0.687154759
489,1229100,1179280,1.217,-0.103,-0.346,-7.4,-4.6,6.9,-36.1,7,26.4,0.169896542,0.693105869,-0.1363567,0.687093722
490,1231398,1179280,1.264,-0.068,-0.336,-1.6,-13.7,6,-36.1,7,26.4,0.169804987,0.69328898,-0.136539811,0.686910611
491,1233694,1179280,1.264,-0.068,-0.336,-1.6,-13.7,6,-36.1,7,26.4,0.169804987,0.69328898,-0.136539811,0.686910611
492,1236281,1179280,1.264,-0.068,-0.336,-1.6,-13.7,6,-36.1,7,26.4,0.169804987,0.69328898,-0.136539811,0.686910611
493,1238933,1179290,1.249,0.356,-0.404,12.8,-4.2,2.9,-36.1,7,26.4,0.16913358,0.693777276,-0.136448256,0.686574908
494,1241367,1179290,1.23,0.439,-0.36,10.1,10.6,0.3,-36.1,7,26.4,0.169011505,0.693655202,-0.136265145,0.686758019
495,1243554,1179290,1.23,0.439,-0.36,10.1,10.6,0.3,-36.1,7,26.4,0.169011505,0.693655202,-0.136265145,0.686758019
496,1247229,1179290,1.052,0.339,0.166,3.8,10.3,-0.1,-36.2,6.7,27.1,0.168950468,0.693380535,-0.136051515,0.687093722
497,1249468,1179300,0.915,0.14,0.367,-5.1,0.6,-0.6,-36.2,6.7,27.1,0.169042024,0.693350017,-0.136112552,0.687093722
498,1251837,1179300,0.783,-0.014,0.681,-8,-1.8,-0.9,-36.2,6.7,27.1,0.169164098,0.693350017,-0.136234626,0.687032685
499,1254010,1179300,0.791,-0.207,0.795,-9.7,-1.5,-1,-36.2,6.7,27.1,0.169347209,0.693350017,-0.1363567,0.686971648
500,1256361,1179300,0.993,-0.021,0.408,-9.1,-0.5,-1.2,-36.4,6.4,27,0.169499802,0.693319498,-0.136478774,0.68694113
501,1258609,1179310,0.993,-0.021,0.408,-9.1,-0.5,-1.2,-36.4,6.4,27,0.169499802,0.693319498,-0.136478774,0.68694113
502,1261197,1179310,1.028,0.119,0.003,-6.1,0.1,-1.5,-36.4,6.4,27,0.169713431,0.69328898,-0.136631367,0.686880093
503,1263480,1179310,0.965,0.087,-0.245,0.7,0.9,-2.3,-36.4,6.4,27,0.16974395,0.69328898,-0.13657033,0.686910611
504,1266000,1179310,0.969,0.147,-0.022,1.2,1.1,-2,-36.4,6.5,27.1,0.169774468,0.69328898,-0.136509293,0.686910611
505,1268845,1179320,0.969,0.147,-0.022,1.2,1.1,-2,-36.4,6.5,27.1,0.169774468,0.69328898,-0.136509293,0.686910611
506,1270968,1179320,0.985,-0.021,0.338,-0.3,0,-1.3,-36.4,6.5,27.1,0.169804987,0.69328898,-0.136478774,0.686910611
507,1274175,1179320,0.985,-0.021,0.338,-0.3,0,-1.3,-36.4,6.5,27.1,0.169804987,0.69328898,-0.136478774,0.686910611
508,1276446,1179320,0.891,-0.104,-0.183,-5.2,-3.5,0.1,-36.4,6.6,27,0.169957579,0.693350017,-0.136692404,0.686758019
509,1278668,1179330,0.89,-0.045,-0.34,-3.9,-0.2,0.6,-36.4,6.6,27,0.169988098,0.693350017,-0.136753441,0.686758019
510,1282748,1179330,1.016,0.103,-0.188,-0.9,1.9,0.6,-36.4,6.6,27,0.170018616,0.69328898,-0.136753441,0.686788537
511,1285293,1179330,1.067,0.142,0.092,1.5,1.7,0.7,-36.4,6.6,27,0.169988098,0.69328898,-0.136753441,0.686819056
512,1287364,1179330,1.067,0.135,0.284,2.5,-0.7,0.8,-36.4,6.6,27,0.169927061,0.69328898,-0.136722922,0.686819056
513,1289041,1179340,1.04,0.119,0.371,2.1,-2.6,1,-36.4,6.6,27,0.169866024,0.693350017,-0.136722922,0.686788537
514,1291087,1179340,0.973,0.08,0.177,2.1,-2.6,1,-36.4,6.6,27,0.169804987,0.693380535,-0.136722922,0.686758019
515,1295364,1179340,0.973,0.08,0.177,2.1,-2.6,1,-36.4,6.6,27,0.169804987,0.693380535,-0.136722922,0.686758019
516,1297644,1179340,0.973,0.08,0.177,2.1,-2.6,1,-36.4,6.6,27,0.169804987,0.693380535,-0.136722922,0.686758019
517,1298554,1179350,1.07,0.075,-0.048,-0.8,1.3,0.4,-36.2,7.2,27.2,0.169774468,0.693411054,-0.136753441,0.686758019
518,1302713,1179350,1.012,0.095,-0.015,-1,1.2,0.3,-36.2,7.2,27.2,0.169804987,0.693380535,-0.136753441,0.686758019
519,1304939,1179350,0.969,0.056,-0.018,-0.9,0.2,0.4,-36.2,7.2,27.2,0.169804987,0.693380535,-0.136783959,0.686758019
520,1307064,1179350,0.95,0.048,-0.052,-0.7,-0.3,0.6,-36.2,7.2,27.2,0.169804987,0.693380535,-0.136814478,0.686758019
521,1308645,1179360,0.981,0.005,-0.014,-0.7,-0.2,1.1,-36.2,7.2,27.2,0.169804987,0.693380535,-0.136844996,0.686758019
522,1312086,1179360,1.016,0.024,-0.117,-1.1,-0.2,1.6,-36.2,7.2,27.2,0.169774468,0.693350017,-0.136875515,0.686758019
523,1314461,1179360,1.012,0.075,-0.07,-1.5,-0.8,2.1,-36.2,7.2,27.2,0.169774468,0.693350017,-0.136936552,0.686758019
524,1316536,1179360,1.012,0.048,-0.086,-1.7,-1.3,2.5,-36.2,7.2,27.2,0.16974395,0.693380535,-0.136997589,0.6867275
525,1319464,1179370,1.019,0.052,-0.098,-1.7,-1.6,3,-36.2,7.2,27.2,0.16974395,0.693380535,-0.137089145,0.686696982
526,1321927,1179370,1.012,0.06,-0.062,-1.7,-1.8,3.5,-36.2,7.2,27.2,0.169713431,0.693380535,-0.1371807,0.686696982
527,1323873,1179370,1.012,0.06,-0.062,-1.7,-1.8,3.5,-36.2,7.2,27.2,0.169713431,0.693380535,-0.1371807,0.686696982
528,1326608,1179370,0.98,-0.002,-0.104,-2.1,-2.2,4.1,-36.2,7.2,27.2,0.169621876,0.693411054,-0.137363811,0.686635945
529,1328949,1179380,0.98,-0.002,-0.104,-2.1,-2.2,4.1,-36.2,7.2,27.2,0.169621876,0.693411054,-0.137363811,0.686635945
530,1331323,1179380,0.965,0.001,-0.092,-2.3,-2.2,4.4,-36.2,7.2,27.2,0.169560839,0.693441572,-0.137607959,0.686605426
531,1333599,1179380,0.981,0.037,0.055,-2.1,-2.4,4.5,-36.2,7.2,27.2,0.169499802,0.693441572,-0.137699515,0.686574908
532,1336184,1179380,0.981,0.037,0.055,-2.1,-2.4,4.5,-36.2,7.2,27.2,0.169499802,0.693441572,-0.137699515,0.686574908
533,1339491,1179390,1.008,0.017,0.211,-1.3,-3.2,4.3,-36.2,7.2,27.2,0.169286172,0.693655202,-0.1380047,0.686361278
534,1341147,1179390,1.008,0.017,0.211,-1.3,-3.2,4.3,-36.2,7.2,27.2,0.169286172,0.693655202,-0.1380047,0.686361278
535,1343689,1179390,0.973,0.041,0.205,-1.4,-3.7,4.2,-36.2,7.2,27.2,0.169164098,0.693746757,-0.138218329,0.686269723
536,1346971,1179390,0.946,0.014,0.174,-1.5,-3.3,4.2,-34.9,5.2,27.5,0.169103061,0.693777276,-0.138309885,0.686239204
537,1348717,1179400,0.942,0.013,0.119,-1.7,-2.7,4.2,-34.9,5.2,27.5,0.169072542,0.693777276,-0.13840144,0.686208686
538,1352254,1179400,0.942,0.013,0.119,-1.7,-2.7,4.2,-34.9,5.2,27.5,0.169072542,0.693777276,-0.13840144,0.686208686
539,1353671,1179400,0.942,0.013,0.119,-1.7,-2.7,4.2,-34.9,5.2,27.5,0.169072542,0.693777276,-0.13840144,0.686208686
540,1355969,1179400,0.938,-0.029,-0.016,-2.7,-3,4.3,-34.9,5.2,27.5,0.168950468,0.693838313,-0.138737144,0.68611713
541,1360352,1179410,0.942,-0.013,-0.013,-3.7,-4,4.4,-34.9,5.2,27.5,0.16891995,0.693868831,-0.138889737,0.686056093
542,1361287,1179410,0.926,-0.009,-0.016,-4.6,-5.1,4.4,-34.9,5.2,27.5,0.16891995,0.693929868,-0.139042329,0.685964537
543,1363520,1179410,0.965,-0.041,-0.06,-5.3,-6.3,4.5,-34.9,5.2,27.5,0.16891995,0.693990905,-0.139194922,0.685872982
544,1367030,1179410,0.965,-0.041,-0.06,-5.3,-6.3,4.5,-34.9,5.2,27.5,0.16891995,0.693990905,-0.139194922,0.685872982
545,1369318,1179420,0.961,-0.037,0.041,-5.9,-9.1,4.5,-35.2,7.4,27.5,0.168889431,0.694174017,-0.139591662,0.685628834
546,1371623,1179420,0.953,-0.025,0.021,-6,-10.3,4.5,-35.2,7.4,27.5,0.168889431,0.694296091,-0.139774773,0.685476241
547,1373794,1179420,0.969,-0.01,0.021,-5.9,-11.3,4.5,-35.2,7.4,27.5,0.168889431,0.694418165,-0.139988403,0.68529313
548,1376007,1179420,0.961,0.005,0.04,-5.2,-12.2,4.4,-35.2,7.4,27.5,0.168858913,0.694570757,-0.140171514,0.685110019
549,1378960,1179430,0.996,0.033,0.094,-4.4,-13.2,4.1,-35.2,7.4,27.5,0.168828394,0.69472335,-0.140354625,0.68489639
550,1381163,1179430,1.02,0.044,0.101,-3.6,-14.1,3.8,-35.2,7.4,27.5,0.168767357,0.694906461,-0.140507218,0.68468276
551,1385169,1179430,1.028,0.048,0.089,-3.1,-15.2,3.3,-35.2,7.4,27.5,0.168736839,0.69512009,-0.14065981,0.684469131
552,1387274,1179430,1.028,0.048,0.089,-3.1,-15.2,3.3,-35.2,7.4,27.5,0.168736839,0.69512009,-0.14065981,0.684469131
553,1390212,1179440,1.032,0.115,0.175,-2.7,-15.8,1.7,-35.2,7.4,27.5,0.168675802,0.695394757,-0.140903958,0.684163945
554,1392638,1179440,1.02,0.096,0.187,-2.5,-15.1,1,-35.2,7.4,27.5,0.168675802,0.695608386,-0.140995514,0.683919797
555,1393639,1179440,1.016,0.096,0.179,-2.4,-14,0.7,-35.2,7.4,27.5,0.168645283,0.695791498,-0.141117588,0.683706168
556,1396867,1179440,1.024,0.115,0.117,-2.7,-13.1,0.7,-35.5,6,27.5,0.168645283,0.695974609,-0.141209143,0.683492538
557,1399260,1179450,0.857,0.125,0.157,-3,-12.5,0.9,-35.5,6,27.5,0.168614765,0.69615772,-0.141331217,0.683309427
558,1401109,1179450,0.942,0.1,0.06,-2.7,-12.6,0.8,-35.5,6,27.5,0.168614765,0.696340831,-0.141422773,0.683095798
559,1403620,1179450,0.864,0.085,0.075,-2.2,-12.9,0.6,-35.5,6,27.5,0.168614765,0.696523942,-0.141514328,0.682912687
560,1407063,1179450,0.86,0.093,0.094,-1.6,-13.3,0.2,-35.5,6,27.5,0.168584246,0.696707053,-0.141575365,0.682699057
561,1408710,1179460,0.845,0.085,0.071,-1.1,-13.2,0,-35.5,6,27.5,0.168553728,0.696890164,-0.141666921,0.682485427
562,1410954,1179460,0.829,0.069,0.041,-0.4,-12.9,0.1,-35.5,6,27.5,0.168523209,0.697103793,-0.141697439,0.682302316
563,1414597,1179460,0.833,0.054,0.04,0.1,-12.4,0.2,-35.5,6,27.5,0.168492691,0.697286905,-0.141758477,0.682119205
564,1416910,1179460,0.852,0.057,0.036,0.7,-12.3,0.2,-35.5,6,27.5,0.168431654,0.697470016,-0.141788995,0.681936094
565,1419372,1179470,0.884,0.053,0.023,1,-13.2,0.2,-35.5,6,27.5,0.168370617,0.697653127,-0.141819514,0.681722465
566,1421444,1179470,0.95,0.053,0.017,1.5,-15.2,0.1,-35.5,6,27.5,0.168279061,0.697897275,-0.141880551,0.681508835
567,1423775,1179470,0.985,0.048,0.012,1.8,-18,0.1,-35.5,6,27.5,0.168187506,0.698171941,-0.141911069,0.681234169
568,1426294,1179470,1.02,0.048,0.011,2,-20.7,0.1,-35.5,6,27.5,0.16809595,0.698477126,-0.141972106,0.680928983
569,1429727,1179480,1.039,0.028,-0.008,2,-22.8,0,-35.5,6,27.5,0.168004395,0.698843348,-0.142002625,0.68059328
570,1431132,1179480,1.062,0.032,-0.072,1.9,-23.9,0,-35.5,6,27.5,0.167912839,0.699179052,-0.142063662,0.680227058
571,1434893,1179480,1.066,0.024,-0.099,1.8,-23.9,0.1,-35.5,6,27.5,0.167790765,0.699545274,-0.142124699,0.679860836
572,1437138,1179480,1.066,0.024,-0.099,1.8,-23.9,0.1,-35.5,6,27.5,0.167790765,0.699545274,-0.142124699,0.679860836
573,1438633,1179490,1.074,0.031,-0.146,1.7,-21.7,0.2,-35.5,6,27.5,0.167577136,0.700186163,-0.142246773,0.679189428
574,1442001,1179490,1.07,0.035,-0.181,1.7,-20.1,0.2,-35.5,6,27.5,0.16748558,0.700521867,-0.14230781,0.678884243
575,1443572,1179490,1.058,0.035,-0.209,1.7,-18.5,0,-35.5,6,27.5,0.167424543,0.700796533,-0.142368847,0.678609577
576,1446426,1179490,1.05,0.031,-0.24,1.9,-16.9,0,-35.9,6.1,27,0.167332987,0.7010712,-0.142399365,0.678365429
577,1449558,1179500,1.023,0.036,-0.262,2,-15.2,-0.1,-35.9,6.1,27,0.167210913,0.701315348,-0.142399365,0.678151799
578,1451797,1179500,1.023,0.039,-0.278,2.1,-13.7,-0.1,-35.9,6.1,27,0.167180395,0.701498459,-0.142429884,0.677938169
579,1453990,1179500,1.023,0.039,-0.286,2.1,-12.1,-0.2,-35.9,6.1,27,0.167119358,0.701712088,-0.142429884,0.677755058
580,1456384,1179500,1.019,0.043,-0.294,2.1,-10.9,-0.2,-34.5,6,27.2,0.167058321,0.701864681,-0.142429884,0.677602466
581,1458478,1179510,1.019,0.047,-0.309,2.1,-10.1,-0.1,-34.5,6,27.2,0.166997284,0.702017273,-0.142460402,0.677449873
582,1460983,1179510,1.023,0.051,-0.313,2.1,-9.6,0,-34.5,6,27.2,0.166936247,0.702169866,-0.142460402,0.677297281
583,1463450,1179510,1.027,0.051,-0.309,2.1,-9,0,-34.5,6,27.2,0.16687521,0.702322459,-0.142460402,0.677175207
584,1466607,1179510,1.035,0.063,-0.286,2.1,-8.4,0.1,-35,5.9,27.2,0.166814173,0.702444533,-0.142460402,0.677053133
585,1468903,1179520,1.043,0.071,-0.279,2.1,-7.5,0.1,-35,5.9,27.2,0.166753136,0.702566607,-0.142460402,0.676931059
586,1471453,1179520,1.046,0.075,-0.259,2,-6.3,0.1,-35,5.9,27.2,0.166692099,0.702688681,-0.142460402,0.676839503
587,1473620,1179520,1.043,0.079,-0.247,1.9,-5.2,0,-35,5.9,27.2,0.166631062,0.702749718,-0.142429884,0.676747948
588,1477517,1179520,1.062,0.083,-0.197,1.8,-4.1,0,-34.7,6,26.9,0.166600543,0.702841273,-0.142429884,0.676717429
589,1479861,1179530,1.054,0.083,-0.177,1.6,-3,0,-34.7,6,26.9,0.166570025,0.702871792,-0.142399365,0.676686911
590,1481993,1179530,1.054,0.087,-0.154,1.3,-1.7,0,-34.7,6,26.9,0.166539506,0.70290231,-0.142399365,0.676656392
591,1483601,1179530,1.043,0.079,-0.11,0.9,-0.3,0,-34.7,6,26.9,0.166539506,0.702932829,-0.142368847,0.676656392
592,1486067,1179530,1.043,0.079,-0.11,0.9,-0.3,0,-34.7,6,26.9,0.166539506,0.702932829,-0.142368847,0.676656392
593,1489004,1179540,1.012,0.072,-0.062,0,2.4,0,-34.4,6.1,27.3,0.166570025,0.703421125,-0.14230781,0.676137577
594,1491303,1179540,0.996,0.064,-0.042,-0.4,3.6,0,-34.4,6.1,27.3,0.166600543,0.703360088,-0.14230781,0.676198614
595,1493833,1179540,0.969,0.044,-0.022,-0.8,4.6,0,-34.4,6.1,27.3,0.166631062,0.703299051,-0.14230781,0.676259651
596,1496358,1179540,0.953,0.041,-0.002,-1.2,5.2,0,-36.5,5.7,27.1,0.16666158,0.703207495,-0.14230781,0.676320688
597,1498796,1179550,0.946,0.041,0.002,-1.5,5.5,0.1,-36.5,5.7,27.1,0.166692099,0.70311594,-0.14230781,0.676412244
598,1501303,1179550,0.938,0.029,0.022,-1.8,5.4,0,-36.5,5.7,27.1,0.166722617,0.703024384,-0.14230781,0.6765038
599,1503603,1179550,0.942,0.025,0.021,-2,5,0,-36.5,5.7,27.1,0.166783654,0.702963347,-0.142338328,0.676564837
600,1507129,1179550,0.942,0.025,0.029,-2.1,4.4,0,-33.9,5.6,27,0.166844691,0.702871792,-0.142338328,0.676625874
601,1509459,1179560,0.95,0.021,0.029,-2,3.7,0,-33.9,5.6,27,0.16687521,0.702810755,-0.142368847,0.676686911
602,1511555,1179560,0.969,0.021,0.032,-1.7,2.9,0.2,-33.9,5.6,27,0.166905728,0.702749718,-0.142368847,0.676717429
603,1514092,1179560,0.977,0.021,0.04,-1.4,2,0.3,-33.9,5.6,27,0.166936247,0.702719199,-0.142399365,0.676747948
604,1515963,1179560,0.985,0.029,0.04,-1,1.1,0.2,-33.7,5.5,27.2,0.166936247,0.702719199,-0.142399365,0.676747948
605,1520000,1179570,0.992,0.029,0.039,-0.7,0.5,0.2,-33.7,5.5,27.2,0.166966765,0.702688681,-0.142429884,0.676747948
606,1522840,1179570,0.992,0.033,0.039,-0.3,0.1,0.1,-33.7,5.5,27.2,0.166966765,0.702688681,-0.142429884,0.676747948
607,1524999,1179570,0.989,0.033,0.043,-0.1,0,0,-33.7,5.5,27.2,0.166966765,0.702688681,-0.142429884,0.676747948
608,1527259,1179570,0.985,0.033,0.04,0.1,0,0,-33.7,5.8,27.4,0.166966765,0.702688681,-0.142429884,0.676747948
609,1529540,1179580,0.965,0.045,0.028,0.2,0.1,0,-33.7,5.8,27.4,0.166936247,0.702688681,-0.142429884,0.676747948
610,1531158,1179580,0.961,0.049,0.029,0.5,0.3,0,-33.7,5.8,27.4,0.166936247,0.702688681,-0.142429884,0.676747948
611,1533792,1179580,0.954,0.041,0.025,0.6,0.5,0,-33.7,5.8,27.4,0.166936247,0.702688681,-0.142399365,0.676747948
612,1536066,1179580,0.954,0.041,0.025,0.6,0.5,0,-33.7,5.8,27.4,0.166936247,0.702688681,-0.142399365,0.676747948
613,1539539,1179590,0.954,0.037,0.017,0.5,0,0,-34.2,6.1,27.4,0.166936247,0.702597125,-0.142368847,0.676870022
614,1541789,1179590,0.954,0.037,0.009,0.5,-0.7,0,-34.2,6.1,27.4,0.166936247,0.702597125,-0.142368847,0.676870022
615,1543977,1179590,0.965,0.041,0.001,0.4,-1.5,0,-34.2,6.1,27.4,0.166905728,0.702627644,-0.142368847,0.676839503
616,1546243,1179590,0.985,0.036,-0.01,0.4,-2.3,0,-35.2,6.1,27.1,0.166905728,0.702658162,-0.142368847,0.676808985
617,1548670,1179600,0.996,0.04,-0.019,0.3,-2.9,0,-35.2,6.1,27.1,0.16687521,0.702719199,-0.142368847,0.676747948
618,1551076,1179600,1.004,0.04,-0.019,0.3,-3.4,0,-35.2,6.1,27.1,0.16687521,0.702780236,-0.142368847,0.676717429
619,1554627,1179600,1.008,0.044,-0.031,0.4,-3.7,0,-35.2,6.1,27.1,0.166844691,0.702810755,-0.142399365,0.676656392
620,1556856,1179600,1.016,0.048,-0.043,0.5,-3.7,0.1,-35.2,5.9,26.5,0.166844691,0.702871792,-0.142399365,0.676595355
621,1558956,1179610,1.008,0.048,-0.039,0.6,-3.6,0.2,-35.2,5.9,26.5,0.166814173,0.702932829,-0.142399365,0.676564837
622,1562225,1179610,1.004,0.048,-0.05,0.6,-3.2,0.2,-35.2,5.9,26.5,0.166783654,0.702993866,-0.142399365,0.6765038
623,1564472,1179610,0.992,0.044,-0.058,0.6,-2.7,0.2,-35.2,5.9,26.5,0.166753136,0.703024384,-0.142429884,0.676473281
624,1566704,1179610,0.992,0.04,-0.065,0.5,-2.1,0.1,-35.7,6,26.7,0.166753136,0.703054903,-0.142429884,0.676442763
625,1568931,1179620,0.985,0.04,-0.065,0.3,-1.6,0,-35.7,6,26.7,0.166722617,0.703085421,-0.142429884,0.676412244
626,1572479,1179620,0.981,0.04,-0.077,0.1,-1.4,0,-35.7,6,26.7,0.166722617,0.70311594,-0.142429884,0.676381726
627,1573369,1179620,0.977,0.04,-0.073,0.1,-1.3,0,-35.7,6,26.7,0.166722617,0.70311594,-0.142429884,0.676381726
628,1577805,1179620,0.977,0.036,-0.073,0.1,-1.2,0,-35.2,5.8,27,0.166722617,0.703146458,-0.142429884,0.676351207
629,1579294,1179630,0.981,0.032,-0.081,0.2,-1.2,0,-35.2,5.8,27,0.166722617,0.703176977,-0.142429884,0.676320688
630,1581480,1179630,0.988,0.044,-0.077,0.2,-1.2,0,-35.2,5.8,27,0.166692099,0.703176977,-0.142429884,0.676320688
631,1583672,1179630,0.996,0.04,-0.073,0.2,-1.3,0,-35.2,5.8,27,0.166692099,0.703207495,-0.142429884,0.67629017
632,1586013,1179630,0.996,0.04,-0.073,0.2,-1.3,0,-35.2,5.8,27,0.166692099,0.703207495,-0.142429884,0.67629017
633,1589778,1179640,1.008,0.048,-0.066,0.2,-1.5,0,-35.3,5.8,27.1,0.166631062,0.703421125,-0.142460402,0.676107059
634,1592000,1179640,1.008,0.052,-0.058,0.3,-1.3,0,-35.3,5.8,27.1,0.166600543,0.703421125,-0.142460402,0.67607654
635,1593618,1179640,1.004,0.056,-0.05,0.2,-1,0,-35.3,5.8,27.1,0.166600543,0.703451643,-0.142460402,0.676046022
636,1596825,1179640,1.004,0.052,-0.058,0.2,-0.6,0,-35,5.9,26.1,0.166600543,0.703451643,-0.142460402,0.676046022
637,1599169,1179650,0.996,0.048,-0.046,0.1,-0.2,0,-35,5.9,26.1,0.166600543,0.703451643,-0.142460402,0.676046022
638,1601156,1179650,0.988,0.048,-0.05,0,0,0,-35,5.9,26.1,0.166600543,0.703451643,-0.142460402,0.676046022
639,1603547,1179650,0.985,0.044,-0.042,0,0.3,0,-35,5.9,26.1,0.166600543,0.703451643,-0.142460402,0.676046022
640,1606259,1179650,0.977,0.04,-0.034,-0.1,0.6,0,-35.2,5.8,27.7,0.166600543,0.703451643,-0.142460402,0.67607654
641,1609357,1179660,0.973,0.04,-0.03,-0.2,0.9,0,-35.2,5.8,27.7,0.166600543,0.703421125,-0.142460402,0.67607654
642,1611781,1179660,0.973,0.04,-0.03,-0.3,1,0.1,-35.2,5.8,27.7,0.166631062,0.703421125,-0.142460402,0.676107059
643,1613711,1179660,0.973,0.04,-0.026,-0.4,1,0.1,-35.2,5.8,27.7,0.166631062,0.703390606,-0.142490921,0.676107059
644,1616871,1179660,0.981,0.04,-0.022,-0.3,0.9,0.2,-35.5,5.6,28.2,0.166631062,0.703390606,-0.142490921,0.676137577
645,1619091,1179670,0.985,0.04,-0.014,-0.3,0.6,0.1,-35.5,5.6,28.2,0.166631062,0.703360088,-0.142490921,0.676137577
646,1622190,1179670,0.988,0.036,-0.01,-0.1,0.3,0,-35.5,5.6,28.2,0.166631062,0.703360088,-0.142490921,0.676137577
647,1623623,1179670,0.996,0.04,-0.015,-0.1,0,0,-35.5,5.6,28.2,0.166631062,0.703360088,-0.142490921,0.676137577
648,1627185,1179670,0.996,0.04,-0.007,0,0,0,-35.3,5.8,28.4,0.166631062,0.703360088,-0.142490921,0.676137577
649,1629356,1179680,0.988,0.04,-0.01,0,-0.1,0,-35.3,5.8,28.4,0.166631062,0.703360088,-0.142490921,0.676137577
650,1631130,1179680,0.989,0.04,-0.003,0,0,0,-35.3,5.8,28.4,0.166631062,0.703360088,-0.142490921,0.676137577
651,1634267,1179680,0.985,0.036,-0.006,0,0.2,0,-35.3,5.8,28.4,0.166631062,0.703360088,-0.142490921,0.676137577
652,1636338,1179680,0.985,0.036,-0.006,0,0.2,0,-35.3,5.8,28.4,0.166631062,0.703360088,-0.142490921,0.676137577
653,1638667,1179690,0.973,0.037,-0.014,0,0.4,0,-35.6,5.4,28.7,0.16666158,0.703238014,-0.142460402,0.676259651
654,1641949,1179690,0.973,0.04,-0.022,0,0.4,0,-35.6,5.4,28.7,0.16666158,0.703238014,-0.142460402,0.676259651
655,1643917,1179690,0.977,0.04,-0.018,0,0.4,0,-35.6,5.4,28.7,0.16666158,0.703207495,-0.142460402,0.67629017
656,1646182,1179690,0.969,0.037,-0.018,0,0.3,0,-34.9,5.9,25.2,0.16666158,0.703207495,-0.142460402,0.67629017
657,1649540,1179700,0.973,0.04,-0.018,0,0,0,-34.9,5.9,25.2,0.16666158,0.703207495,-0.142460402,0.67629017
658,1651787,1179700,0.985,0.036,-0.022,0,-0.4,0,-34.9,5.9,25.2,0.16666158,0.703238014,-0.142460402,0.67629017
659,1653647,1179700,0.985,0.044,-0.022,0,-0.8,0,-34.9,5.9,25.2,0.16666158,0.703238014,-0.142460402,0.676259651
660,1656086,1179700,0.996,0.044,-0.022,0.1,-1,0.1,-35.2,5.7,26.6,0.16666158,0.703238014,-0.142490921,0.676259651
661,1658869,1179710,0.992,0.04,-0.022,0.1,-1,0.1,-35.2,5.7,26.6,0.16666158,0.703268532,-0.142490921,0.676229133
662,1661058,1179710,0.992,0.044,-0.03,0.1,-0.9,0.1,-35.2,5.7,26.6,0.166631062,0.703268532,-0.142490921,0.676229133
663,1663571,1179710,0.988,0.04,-0.022,0.1,-0.7,0,-35.2,5.7,26.6,0.166631062,0.703299051,-0.142490921,0.676198614
664,1667932,1179710,0.988,0.044,-0.026,0.1,-0.5,0,-35.5,5.9,26,0.166631062,0.703299051,-0.142490921,0.676198614
665,1668690,1179720,0.981,0.04,-0.03,0.1,-0.4,0,-35.5,5.9,26,0.166631062,0.703299051,-0.142490921,0.676198614
666,1671099,1179720,0.981,0.048,-0.03,0.1,-0.3,0,-35.5,5.9,26,0.166631062,0.703329569,-0.142490921,0.676198614
667,1674529,1179720,0.981,0.044,-0.03,0,-0.2,0,-35.5,5.9,26,0.166631062,0.703329569,-0.142490921,0.676198614
668,1676294,1179720,0.977,0.044,-0.03,0,-0.1,0,-35.3,5.5,25.7,0.166631062,0.703329569,-0.142490921,0.676168096
669,1678564,1179730,0.977,0.036,-0.034,0,-0.3,0,-35.3,5.5,25.7,0.166631062,0.703329569,-0.142490921,0.676168096
670,1681486,1179730,0.981,0.04,-0.03,0,-0.5,0,-35.3,5.5,25.7,0.166600543,0.703329569,-0.142490921,0.676168096
671,1683722,1179730,0.985,0.044,-0.042,0,-0.7,0,-35.3,5.5,25.7,0.166600543,0.703329569,-0.142490921,0.676168096
672,1686290,1179730,0.985,0.044,-0.042,0,-0.7,0,-35.3,5.5,25.7,0.166600543,0.703329569,-0.142490921,0.676168096
673,1688536,1179740,0.988,0.044,-0.034,0,-0.6,0,-35.2,5.5,25.2,0.166600543,0.703390606,-0.142490921,0.676107059
674,1691834,1179740,0.992,0.048,-0.034,0.1,-0.5,0.1,-35.2,5.5,25.2,0.166600543,0.703421125,-0.142521439,0.676107059
675,1693559,1179740,0.992,0.048,-0.026,0.1,-0.4,0,-35.2,5.5,25.2,0.166600543,0.703421125,-0.142521439,0.67607654
676,1697087,1179740,0.996,0.048,-0.038,0.1,-0.3,0,-35.1,6,26.6,0.166600543,0.703421125,-0.142521439,0.67607654
677,1698594,1179750,0.988,0.04,-0.03,0.1,-0.1,0.1,-35.1,6,26.6,0.166570025,0.703421125,-0.142521439,0.67607654
678,1701092,1179750,0.988,0.04,-0.026,0.1,0,0,-35.1,6,26.6,0.166570025,0.703421125,-0.142521439,0.67607654
679,1704651,1179750,0.981,0.048,-0.03,0,0.1,0,-35.1,6,26.6,0.166570025,0.703421125,-0.142521439,0.67607654
680,1706174,1179750,0.981,0.044,-0.038,0,0.2,0,-35.6,6,27,0.166570025,0.703421125,-0.142490921,0.676107059
681,1708569,1179760,0.981,0.04,-0.034,0,0.2,0,-35.6,6,27,0.166570025,0.703421125,-0.142521439,0.676107059
682,1712828,1179760,0.977,0.036,-0.037,0,0.2,0,-35.6,6,27,0.166570025,0.703390606,-0.142521439,0.676107059
683,1715094,1179760,0.977,0.04,-0.034,0,0.1,0,-35.6,6,27,0.166570025,0.703390606,-0.142521439,0.676107059
684,1717359,1179760,0.981,0.036,-0.03,0,0,0,-35.1,6.2,27,0.166570025,0.703390606,-0.142521439,0.676107059
685,1719569,1179770,0.985,0.036,-0.03,0,0,0,-35.1,6.2,27,0.166570025,0.703390606,-0.142521439,0.676107059
686,1721836,1179770,0.985,0.04,-0.022,0,-0.2,0,-35.1,6.2,27,0.166570025,0.703390606,-0.142521439,0.676107059
687,1724198,1179770,0.992,0.04,-0.03,0,-0.4,0.1,-35.1,6.2,27,0.166570025,0.703421125,-0.142521439,0.676107059
688,1726191,1179770,0.992,0.04,-0.022,0,-0.6,0.1,-35.3,5.9,27,0.166570025,0.703421125,-0.142521439,0.67607654
689,1729240,1179780,0.996,0.044,-0.026,0,-0.6,0,-35.3,5.9,27,0.166570025,0.703421125,-0.142521439,0.67607654
690,1730982,1179780,0.996,0.044,-0.022,0,-0.5,0,-35.3,5.9,27,0.166570025,0.703451643,-0.142521439,0.67607654
691,1734472,1179780,0.988,0.04,-0.026,0,-0.3,0,-35.3,5.9,27,0.166570025,0.703451643,-0.142521439,0.67607654
692,1736008,1179780,0.988,0.04,-0.026,0,-0.3,0,-35.3,5.9,27,0.166570025,0.703451643,-0.142521439,0.67607654
693,1738659,1179790,0.981,0.04,-0.034,0,0,0,-35.1,5.3,27,0.166600543,0.703421125,-0.142521439,0.676107059
694,1741951,1179790,0.977,0.04,-0.026,0,0.1,0,-35.1,5.3,27,0.166570025,0.703421125,-0.142521439,0.676107059
695,1743566,1179790,0.977,0.04,-0.022,0,0.2,0,-35.1,5.3,27,0.166600543,0.703390606,-0.142521439,0.676107059
696,1746132,1179790,0.981,0.036,-0.026,0,0.3,0,-35.2,6.2,28,0.166600543,0.703390606,-0.142521439,0.676107059
697,1749451,1179800,0.977,0.04,-0.022,0,0.2,0,-35.2,6.2,28,0.166600543,0.703390606,-0.142521439,0.676107059
698,1751093,1179800,0.985,0.04,-0.026,0,0,0,-35.2,6.2,28,0.166600543,0.703390606,-0.142521439,0.676107059
699,1753468,1179800,0.985,0.04,-0.026,0,-0.1,0,-35.2,6.2,28,0.166600543,0.703390606,-0.142521439,0.676107059
700,1756968,1179800,0.988,0.04,-0.022,0,-0.3,0,-35.4,4.8,25.9,0.166570025,0.703390606,-0.142521439,0.676107059
701,1758565,1179810,0.996,0.044,-0.022,0,-0.2,0,-35.4,4.8,25.9,0.166570025,0.703421125,-0.142521439,0.676107059
702,1761004,1179810,0.992,0.04,-0.018,0,-0.2,0,-35.4,4.8,25.9,0.166570025,0.703421125,-0.142521439,0.67607654
703,1764455,1179810,0.992,0.044,-0.026,0,-0.1,-0.1,-35.4,4.8,25.9,0.166570025,0.703421125,-0.142521439,0.67607654
704,1766053,1179810,0.988,0.04,-0.026,0.1,-0.1,-0.1,-35.4,4.3,26,0.166570025,0.703421125,-0.142521439,0.67607654
705,1768580,1179820,0.985,0.04,-0.026,0.1,0,0,-35.4,4.3,26,0.166570025,0.703421125,-0.142521439,0.67607654
706,1771988,1179820,0.981,0.044,-0.022,0.1,0,0,-35.4,4.3,26,0.166570025,0.703421125,-0.142521439,0.67607654
707,1773626,1179820,0.985,0.044,-0.026,0.1,0.1,0,-35.4,4.3,26,0.166570025,0.703421125,-0.142490921,0.67607654
708,1776196,1179820,0.981,0.036,-0.022,0.1,0.1,0,-35.2,3.4,26,0.166570025,0.703421125,-0.142490921,0.676107059
709,1778514,1179830,0.981,0.044,-0.034,0,0.1,0,-35.2,3.4,26,0.166570025,0.703421125,-0.142490921,0.676107059
710,1781072,1179830,0.981,0.04,-0.026,0,0,0,-35.2,3.4,26,0.166570025,0.703421125,-0.142490921,0.676107059
711,1784460,1179830,0.985,0.04,-0.026,0,0,0,-35.2,3.4,26,0.166570025,0.703421125,-0.142490921,0.676107059
712,1786022,1179830,0.985,0.04,-0.026,0,0,0,-35.2,3.4,26,0.166570025,0.703421125,-0.142490921,0.676107059
713,1788473,1179840,0.988,0.04,-0.026,0,-0.1,0,-35.2,3.7,26.1,0.166570025,0.703390606,-0.142490921,0.676107059
714,1791984,1179840,0.992,0.04,-0.026,0,-0.2,0,-35.2,3.7,26.1,0.166570025,0.703421125,-0.142490921,0.676107059
715,1793492,1179840,0.992,0.04,-0.022,0.1,-0.2,0,-35.2,3.7,26.1,0.166570025,0.703421125,-0.142490921,0.676107059
716,1796060,1179840,0.988,0.044,-0.022,0.1,-0.2,0,-35.2,7.5,27.4,0.166570025,0.703421125,-0.142490921,0.676107059
717,1799468,1179850,0.988,0.044,-0.026,0.1,-0.1,0,-35.2,7.5,27.4,0.166570025,0.703421125,-0.142490921,0.676107059
718,1800990,1179850,0.988,0.04,-0.026,0.1,0,0,-35.2,7.5,27.4,0.166570025,0.703421125,-0.142490921,0.676107059
719,1803578,1179850,0.985,0.04,-0.026,0,0,0,-35.2,7.5,27.4,0.166570025,0.703421125,-0.142490921,0.676107059
720,1806964,1179850,0.985,0.04,-0.03,0,-0.1,0,-35.1,5.4,26.5,0.166570025,0.703421125,-0.142490921,0.676107059
721,1808535,1179860,0.981,0.04,-0.03,0,-0.1,0,-35.1,5.4,26.5,0.166570025,0.703421125,-0.142490921,0.67607654
722,1811051,1179860,0.988,0.04,-0.026,0,-0.2,0,-35.1,5.4,26.5,0.166570025,0.703421125,-0.142490921,0.67607654
723,1814501,1179860,0.981,0.044,-0.026,0,-0.2,0,-35.1,5.4,26.5,0.166570025,0.703421125,-0.142490921,0.67607654
724,1816083,1179860,0.981,0.04,-0.03,0,-0.2,0,-34.7,6,26.4,0.166570025,0.703421125,-0.142490921,0.67607654
725,1818600,1179870,0.985,0.04,-0.026,0.1,-0.1,0.1,-34.7,6,26.4,0.166539506,0.703421125,-0.142521439,0.67607654
726,1821942,1179870,0.985,0.04,-0.03,0,-0.2,0.1,-34.7,6,26.4,0.166539506,0.703451643,-0.142521439,0.67607654
727,1823644,1179870,0.988,0.04,-0.03,0,-0.2,0.1,-34.7,6,26.4,0.166539506,0.703451643,-0.142521439,0.67607654
728,1826028,1179870,0.992,0.04,-0.026,0,-0.3,0,-35,6.7,26.5,0.166539506,0.703451643,-0.142521439,0.67607654
729,1829484,1179880,0.985,0.04,-0.03,0,-0.3,0,-35,6.7,26.5,0.166539506,0.703451643,-0.142521439,0.676046022
730,1830961,1179880,0.988,0.04,-0.03,0,-0.4,0,-35,6.7,26.5,0.166539506,0.703451643,-0.142521439,0.676046022
731,1833656,1179880,0.992,0.04,-0.03,0.1,-0.4,0,-35,6.7,26.5,0.166539506,0.703451643,-0.142521439,0.676046022
732,1836480,1179880,0.992,0.04,-0.03,0.1,-0.4,0,-35,6.7,26.5,0.166539506,0.703451643,-0.142521439,0.676046022
733,1839472,1179890,0.988,0.044,-0.022,0.1,-0.1,0,-34.7,7.1,26.1,0.166539506,0.703482162,-0.142521439,0.676046022
734,1841497,1179890,0.985,0.044,-0.022,0,0,0,-34.7,7.1,26.1,0.166539506,0.703482162,-0.142521439,0.676046022
735,1843450,1179890,0.985,0.044,-0.026,0,0.1,0,-34.7,7.1,26.1,0.166539506,0.703482162,-0.142521439,0.676046022
736,1846450,1179890,0.985,0.04,-0.022,-0.1,0.1,0,-35.2,6,26.8,0.166539506,0.703451643,-0.142521439,0.676046022
737,1849239,1179900,0.988,0.036,-0.026,-0.1,0.1,0,-35.2,6,26.8,0.166539506,0.703451643,-0.142521439,0.676046022
738,1850893,1179900,0.981,0.036,-0.026,0,0.1,0.1,-35.2,6,26.8,0.166539506,0.703451643,-0.142521439,0.676046022
739,1853521,1179900,0.985,0.04,-0.026,0,0,0,-35.2,6,26.8,0.166539506,0.703451643,-0.142521439,0.676046022
740,1856369,1179900,0.985,0.04,-0.026,0,0,0,-35.2,6,27.1,0.166539506,0.703451643,-0.142521439,0.676046022
741,1858482,1179910,0.985,0.04,-0.026,0,-0.1,0,-35.2,6,27.1,0.166539506,0.703451643,-0.142521439,0.676046022
742,1861353,1179910,0.988,0.044,-0.026,0,-0.1,0,-35.2,6,27.1,0.166539506,0.703451643,-0.142521439,0.676046022
743,1864083,1179910,0.992,0.04,-0.018,0,-0.1,0,-35.2,6,27.1,0.166539506,0.703451643,-0.142521439,0.676046022
744,1866927,1179910,0.988,0.044,-0.03,0,-0.1,0.1,-35,5.9,26.9,0.166539506,0.703482162,-0.142551958,0.676046022
745,1868402,1179920,0.988,0.044,-0.03,0,-0.1,0.2,-35,5.9,26.9,0.166508988,0.703482162,-0.142551958,0.676046022
746,1871118,1179920,0.985,0.044,-0.03,0.1,-0.1,0,-35,5.9,26.9,0.166508988,0.703482162,-0.142551958,0.676046022
747,1873803,1179920,0.985,0.04,-0.026,0.1,0,0,-35,5.9,26.9,0.166508988,0.703482162,-0.142551958,0.676046022
748,1876924,1179920,0.985,0.044,-0.026,0.1,0.1,0,-35.2,6.2,27.3,0.166508988,0.703482162,-0.142551958,0.676046022
749,1878490,1179930,0.985,0.04,-0.03,0,0.1,0,-35.2,6.2,27.3,0.166508988,0.703482162,-0.142551958,0.676046022
750,1881435,1179930,0.981,0.04,-0.03,0,0.2,0,-35.2,6.2,27.3,0.166508988,0.703451643,-0.142551958,0.676046022
751,1884398,1179930,0.985,0.04,-0.026,0,0.1,0,-35.2,6.2,27.3,0.166508988,0.703451643,-0.142551958,0.676046022
752,1885982,1179930,0.985,0.04,-0.026,0,0.1,0,-35.2,6.2,27.3,0.166508988,0.703451643,-0.142551958,0.676046022
753,1889520,1179940,0.985,0.04,-0.022,0,0.1,-0.2,-35.5,6,27.2,0.166539506,0.703451643,-0.142521439,0.67607654
754,1891033,1179940,0.988,0.04,-0.03,0,0,-0.1,-35.5,6,27.2,0.166539506,0.703451643,-0.142521439,0.67607654
755,1894039,1179940,0.988,0.04,-0.026,0.1,-0.1,0,-35.5,6,27.2,0.166539506,0.703451643,-0.142521439,0.67607654
756,1896391,1179940,0.988,0.04,-0.03,0.1,-0.3,0.2,-35,4.4,26.8,0.166539506,0.703451643,-0.142521439,0.67607654
757,1898558,1179950,0.988,0.04,-0.022,0.1,-0.4,0.2,-35,4.4,26.8,0.166539506,0.703451643,-0.142521439,0.676046022
758,1901146,1179950,0.981,0.04,-0.022,0,-0.3,0,-35,4.4,26.8,0.166539506,0.703451643,-0.142521439,0.676046022
759,1905104,1179950,0.988,0.04,-0.026,0,-0.2,0,-35,4.4,26.8,0.166539506,0.703451643,-0.142521439,0.676046022
760,1907311,1179950,0.988,0.04,-0.022,0,0,0,-36.1,7,27,0.166539506,0.703451643,-0.142521439,0.676046022
761,1909544,1179960,0.988,0.04,-0.03,0,0,0,-36.1,7,27,0.166539506,0.703482162,-0.142521439,0.676046022
762,1911832,1179960,0.985,0.04,-0.026,0,0.1,0,-36.1,7,27,0.166539506,0.703451643,-0.142521439,0.676046022
763,1914083,1179960,0.985,0.04,-0.026,0,0.1,0,-36.1,7,27,0.166539506,0.703451643,-0.142521439,0.676046022
764,1916323,1179960,0.985,0.036,-0.03,0,0.1,0,-36.7,6.6,27.3,0.166539506,0.703451643,-0.142521439,0.676046022
765,1918552,1179970,0.985,0.04,-0.026,0,0,0,-36.7,6.6,27.3,0.166539506,0.703451643,-0.142521439,0.676046022
766,1922012,1179970,0.985,0.044,-0.03,0,-0.1,0,-36.7,6.6,27.3,0.166539506,0.703451643,-0.142521439,0.676046022
767,1923970,1179970,0.988,0.04,-0.026,0,-0.1,0,-36.7,6.6,27.3,0.166539506,0.703451643,-0.142521439,0.676046022
768,1926208,1179970,0.985,0.04,-0.022,0,-0.2,-0.1,-37.4,7.1,27.1,0.166539506,0.703482162,-0.142521439,0.676046022
769,1928556,1179980,0.988,0.036,-0.026,0,-0.2,0,-37.4,7.1,27.1,0.166539506,0.703482162,-0.142521439,0.676046022
770,1932810,1179980,0.988,0.04,-0.03,0,-0.1,0,-37.4,7.1,27.1,0.166539506,0.703482162,-0.142521439,0.676046022
771,1934865,1179980,0.992,0.04,-0.03,0,-0.1,0,-37.4,7.1,27.1,0.166539506,0.703482162,-0.142521439,0.676046022
772,1937461,1179980,0.992,0.04,-0.03,0,-0.1,0,-37.4,7.1,27.1,0.166539506,0.703482162,-0.142521439,0.676046022
773,1940091,1179990,0.988,0.04,-0.034,0.1,0,0,-37.5,7,27.2,0.166508988,0.703451643,-0.142521439,0.67607654
774,1942282,1179990,0.988,0.04,-0.026,0.1,0,0,-37.5,7,27.2,0.166508988,0.703451643,-0.142521439,0.67607654
775,1944614,1179990,0.985,0.04,-0.022,0.1,0.1,0,-37.5,7,27.2,0.166508988,0.703451643,-0.142521439,0.67607654
776,1946031,1179990,0.985,0.044,-0.03,0,0.2,0,-34,5.1,26.8,0.166508988,0.703451643,-0.142521439,0.67607654
777,1949038,1180000,0.988,0.04,-0.026,0,0.3,0,-34,5.1,26.8,0.166508988,0.703451643,-0.142521439,0.67607654
778,1951980,1180000,0.981,0.04,-0.026,0,0.2,0,-34,5.1,26.8,0.166508988,0.703421125,-0.142521439,0.67607654
779,1953513,1180000,0.981,0.044,-0.03,0,0.1,0,-34,5.1,26.8,0.166508988,0.703421125,-0.142521439,0.67607654
780,1956265,1180000,0.981,0.044,-0.034,0,0,0,-36.6,6.5,26.6,0.166508988,0.703421125,-0.142521439,0.67607654
781,1959068,1180010,0.981,0.032,-0.03,0,0,0,-36.6,6.5,26.6,0.166508988,0.703421125,-0.142521439,0.67607654
782,1961998,1180010,0.985,0.04,-0.026,0,-0.1,0,-36.6,6.5,26.6,0.166508988,0.703421125,-0.142521439,0.67607654
783,1963451,1180010,0.988,0.04,-0.026,0,-0.1,0,-36.6,6.5,26.6,0.166508988,0.703421125,-0.142521439,0.67607654
784,1966109,1180010,0.988,0.04,-0.034,0,-0.1,0,-36,6.6,26.8,0.166508988,0.703451643,-0.142551958,0.67607654
785,1969120,1180020,0.988,0.044,-0.022,0,-0.1,0,-36,6.6,26.8,0.166508988,0.703451643,-0.142551958,0.67607654
786,1972116,1180020,0.988,0.04,-0.026,0,-0.1,0,-36,6.6,26.8,0.166508988,0.703451643,-0.142551958,0.67607654
787,1973539,1180020,0.988,0.048,-0.026,0,0,0,-36,6.6,26.8,0.166508988,0.703451643,-0.142551958,0.67607654
788,1976283,1180020,0.985,0.036,-0.026,0.1,0.1,-0.1,-35.5,6.9,26.9,0.166508988,0.703451643,-0.142521439,0.67607654
789,1979144,1180030,0.985,0.04,-0.026,0,0.1,-0.1,-35.5,6.9,26.9,0.166508988,0.703451643,-0.142521439,0.67607654
790,1982112,1180030,0.985,0.036,-0.03,0,0,-0.1,-35.5,6.9,26.9,0.166508988,0.703451643,-0.142521439,0.67607654
791,1983564,1180030,0.985,0.044,-0.022,0,-0.1,0,-35.5,6.9,26.9,0.166508988,0.703451643,-0.142521439,0.67607654
792,1986601,1180030,0.985,0.044,-0.022,0,-0.1,0,-35.5,6.9,26.9,0.166508988,0.703451643,-0.142521439,0.67607654
793,1989553,1180040,0.985,0.04,-0.03,0,-0.1,0,-34.6,7,26.9,0.166508988,0.703421125,-0.142521439,0.676107059
794,1991004,1180040,0.981,0.04,-0.026,0,0,0,-34.6,7,26.9,0.166508988,0.703421125,-0.142521439,0.676107059
795,1994064,1180040,0.988,0.04,-0.026,0,0,0,-34.6,7,26.9,0.166508988,0.703390606,-0.142521439,0.676107059
796,1997050,1180040,0.988,0.044,-0.018,0,0,0,-35,5.7,26.9,0.166508988,0.703390606,-0.142521439,0.676107059
797,1998604,1180050,0.985,0.036,-0.026,0,-0.1,0,-35,5.7,26.9,0.166508988,0.703421125,-0.142551958,0.676107059
798,2001386,1180050,0.988,0.044,-0.034,0,-0.2,0.1,-35,5.7,26.9,0.166508988,0.703421125,-0.142551958,0.676107059
799,2003772,1180050,0.985,0.044,-0.03,0,-0.1,0,-35,5.7,26.9,0.166508988,0.703421125,-0.142551958,0.676107059
800,2005971,1180050,0.988,0.044,-0.026,0.1,-0.1,0,-35.3,5.7,26.8,0.166508988,0.703421125,-0.142551958,0.676107059
801,2008753,1180060,0.985,0.044,-0.026,0.1,0,0,-35.3,5.7,26.8,0.166508988,0.703421125,-0.142551958,0.676107059
802,2011808,1180060,0.985,0.04,-0.026,0,0,0,-35.3,5.7,26.8,0.166508988,0.703421125,-0.142551958,0.676107059
803,2013584,1180060,0.985,0.04,-0.026,0,0,0,-35.3,5.7,26.8,0.166508988,0.703421125,-0.142551958,0.676107059
804,2017087,1180060,0.985,0.04,-0.026,-0.1,0.1,0,-35.2,6,26.9,0.166508988,0.703421125,-0.142551958,0.676107059
805,2018568,1180070,0.988,0.04,-0.03,-0.1,0,0,-35.2,6,26.9,0.166508988,0.703421125,-0.142551958,0.676107059
806,2021936,1180070,0.985,0.04,-0.026,0,0,0,-35.2,6,26.9,0.166508988,0.703421125,-0.142551958,0.676107059
807,2023571,1180070,0.985,0.036,-0.026,0,-0.1,0,-35.2,6,26.9,0.166508988,0.703421125,-0.142551958,0.676107059
808,2027904,1180070,0.985,0.036,-0.03,0.1,-0.1,0,-34.7,5.7,26.6,0.166508988,0.703421125,-0.142551958,0.676107059
809,2030167,1180080,0.988,0.04,-0.03,0.1,0,0,-34.7,5.7,26.6,0.166508988,0.703421125,-0.142551958,0.676107059
810,2032337,1180080,0.992,0.04,-0.022,0.1,0,0,-34.7,5.7,26.6,0.166508988,0.703421125,-0.142551958,0.676107059
811,2033879,1180080,0.992,0.044,-0.034,0.1,0,0,-34.7,5.7,26.6,0.166508988,0.703421125,-0.142551958,0.676107059
812,2036145,1180080,0.992,0.044,-0.034,0.1,0,0,-34.7,5.7,26.6,0.166508988,0.703421125,-0.142551958,0.676107059
813,2038545,1180090,0.985,0.048,-0.03,0.1,0,0,-35,5.9,26.7,0.166508988,0.703421125,-0.142521439,0.676107059
814,2040946,1180090,0.985,0.04,-0.022,0,0.1,0,-35,5.9,26.7,0.166508988,0.703421125,-0.142521439,0.676107059
815,2045108,1180090,0.985,0.04,-0.03,0,0.1,0,-35,5.9,26.7,0.166508988,0.703421125,-0.142521439,0.676107059
816,2046867,1180090,0.981,0.036,-0.026,0,0.2,0,-36.2,5.8,26.7,0.166508988,0.703421125,-0.142521439,0.676107059
817,2048569,1180100,0.981,0.036,-0.026,0,0.2,0,-36.2,5.8,26.7,0.166508988,0.703390606,-0.142521439,0.676107059
818,2053125,1180100,0.985,0.04,-0.026,0.1,0.1,0,-36.2,5.8,26.7,0.166508988,0.703390606,-0.142521439,0.676107059
819,2053646,1180100,0.985,0.044,-0.03,0,0,0,-36.2,5.8,26.7,0.166508988,0.703390606,-0.142521439,0.676107059
820,2056973,1180100,0.985,0.04,-0.03,0,-0.1,0,-34,5.8,26.8,0.166508988,0.703390606,-0.142521439,0.676107059
821,2058628,1180110,0.988,0.044,-0.03,0,-0.2,0,-34,5.8,26.8,0.166508988,0.703390606,-0.142521439,0.676107059
822,2061313,1180110,0.985,0.04,-0.026,0,-0.2,0.1,-34,5.8,26.8,0.166508988,0.703421125,-0.142551958,0.676107059
823,2065468,1180110,0.992,0.04,-0.03,0,-0.1,0.1,-34,5.8,26.8,0.166508988,0.703421125,-0.142551958,0.676107059
824,2066396,1180110,0.988,0.044,-0.03,0.1,0,0.1,-34.2,5.7,26.9,0.166508988,0.703421125,-0.142551958,0.676107059
825,2070285,1180120,0.985,0.04,-0.026,0.1,0,0.1,-34.2,5.7,26.9,0.166478469,0.703421125,-0.142551958,0.676107059
826,2072551,1180120,0.988,0.04,-0.03,0,0,0,-34.2,5.7,26.9,0.166478469,0.703421125,-0.142551958,0.676107059
827,2074592,1180120,0.988,0.04,-0.03,0,0,0,-34.2,5.7,26.9,0.166478469,0.703421125,-0.142551958,0.676107059
828,2076597,1180120,0.988,0.044,-0.03,0.1,0,0,-33.8,5.7,27,0.166478469,0.703421125,-0.142551958,0.676107059
829,2078931,1180130,0.988,0.044,-0.026,0.1,0,0,-33.8,5.7,27,0.166478469,0.703421125,-0.142521439,0.676107059
830,2081111,1180130,0.985,0.044,-0.03,0.1,0,-0.1,-33.8,5.7,27,0.166478469,0.703421125,-0.142521439,0.676107059
831,2083704,1180130,0.985,0.04,-0.022,0,0,-0.1,-33.8,5.7,27,0.166478469,0.703421125,-0.142521439,0.676107059
832,2087129,1180130,0.985,0.04,-0.022,0,0,-0.1,-33.8,5.7,27,0.166478469,0.703421125,-0.142521439,0.676107059
833,2088595,1180140,0.981,0.04,-0.026,0,0.1,0,-33.7,6,27,0.166539506,0.703390606,-0.142490921,0.676137577
834,2091642,1180140,0.985,0.044,-0.022,0,0.1,0,-33.7,6,27,0.166539506,0.703390606,-0.142490921,0.676137577
835,2093517,1180140,0.985,0.044,-0.022,0,0.1,0.1,-33.7,6,27,0.166539506,0.703390606,-0.142490921,0.676137577
836,2096000,1180140,0.988,0.044,-0.03,0,0,0,-36.2,6,26.9,0.166539506,0.703390606,-0.142490921,0.676137577
837,2099346,1180150,0.988,0.04,-0.026,0.1,0,0,-36.2,6,26.9,0.166539506,0.703390606,-0.142490921,0.676137577
838,2101659,1180150,0.992,0.044,-0.026,0,0,0,-36.2,6,26.9,0.166539506,0.703390606,-0.142490921,0.676137577
839,2103935,1180150,0.988,0.04,-0.026,0,0,0,-36.2,6,26.9,0.166508988,0.703390606,-0.142490921,0.676137577
840,2106138,1180150,0.988,0.044,-0.026,0,0,0,-34,5.6,26.9,0.166508988,0.703390606,-0.142490921,0.676137577
841,2108438,1180160,0.985,0.044,-0.026,0,-0.1,0,-34,5.6,26.9,0.166508988,0.703390606,-0.142490921,0.676137577
842,2110981,1180160,0.985,0.04,-0.034,0,-0.1,0,-34,5.6,26.9,0.166508988,0.703390606,-0.142490921,0.676137577
843,2115071,1180160,0.985,0.044,-0.03,0,-0.1,0,-34,5.6,26.9,0.166508988,0.703390606,-0.142490921,0.676137577
844,2117476,1180160,0.985,0.04,-0.026,0,-0.1,0,-34.1,5.5,27,0.166508988,0.703390606,-0.142490921,0.676137577
845,2119449,1180170,0.985,0.04,-0.03,0,0,0,-34.1,5.5,27,0.166508988,0.703390606,-0.142490921,0.676137577
846,2121116,1180170,0.981,0.044,-0.026,0,0,0,-34.1,5.5,27,0.166508988,0.703390606,-0.142490921,0.676137577
847,2123730,1180170,0.981,0.036,-0.026,0,0.1,0,-34.1,5.5,27,0.166539506,0.703390606,-0.142490921,0.676137577
848,2125959,1180170,0.985,0.04,-0.03,0,0.1,0,-34.2,5.7,26.6,0.166539506,0.703390606,-0.142490921,0.676137577
849,2129976,1180180,0.985,0.044,-0.026,0,0.1,0,-34.2,5.7,26.6,0.166539506,0.703390606,-0.142490921,0.676137577
850,2132338,1180180,0.988,0.036,-0.026,0,0.1,0,-34.2,5.7,26.6,0.166539506,0.703390606,-0.142490921,0.676137577
851,2134542,1180180,0.988,0.04,-0.03,0,0,0,-34.2,5.7,26.6,0.166539506,0.703390606,-0.142490921,0.676137577
852,2136031,1180180,0.988,0.04,-0.03,0,0,0,-34.2,5.7,26.6,0.166539506,0.703390606,-0.142490921,0.676137577
853,2139378,1180190,0.992,0.044,-0.03,0,0,0,-34.2,5.3,26.7,0.166539506,0.703390606,-0.142490921,0.676137577
854,2141577,1180190,0.985,0.044,-0.03,0,0,0,-34.2,5.3,26.7,0.166539506,0.703390606,-0.142490921,0.676137577
855,2143731,1180190,0.985,0.036,-0.026,0,0.1,0,-34.2,5.3,26.7,0.166539506,0.703390606,-0.142490921,0.676137577
856,2145933,1180190,0.985,0.044,-0.03,0,0.1,0,-35,6,26.8,0.166539506,0.703360088,-0.142490921,0.676137577
857,2148914,1180200,0.985,0.04,-0.03,0,0.1,0.1,-35,6,26.8,0.166539506,0.703360088,-0.142490921,0.676168096
858,2152049,1180200,0.985,0.036,-0.026,0,0.1,0.1,-35,6,26.8,0.166539506,0.703360088,-0.142490921,0.676168096
859,2153497,1180200,0.985,0.044,-0.022,0,0.2,0,-35,6,26.8,0.166539506,0.703360088,-0.142490921,0.676168096
860,2156510,1180200,0.985,0.036,-0.026,0,0.2,0,-35.2,5.8,26.7,0.166539506,0.703360088,-0.142490921,0.676168096
861,2158502,1180210,0.988,0.04,-0.03,0,0.1,0,-35.2,5.8,26.7,0.166539506,0.703360088,-0.142490921,0.676168096
862,2161882,1180210,0.985,0.044,-0.022,0,0,0,-35.2,5.8,26.7,0.166539506,0.703360088,-0.142490921,0.676168096
863,2163696,1180210,0.981,0.036,-0.026,0,0,0,-35.2,5.8,26.7,0.166539506,0.703360088,-0.142490921,0.676168096
864,2166920,1180210,0.985,0.04,-0.026,0,-0.2,0,-35,5.9,27,0.166539506,0.703360088,-0.142490921,0.676168096
865,2168417,1180220,0.985,0.036,-0.026,0,-0.3,0,-35,5.9,27,0.166539506,0.703360088,-0.142490921,0.676168096
866,2171481,1180220,0.988,0.04,-0.03,0,-0.3,0,-35,5.9,27,0.166539506,0.703360088,-0.142490921,0.676168096
867,2174681,1180220,0.985,0.044,-0.03,0,-0.1,0,-35,5.9,27,0.166508988,0.703360088,-0.142490921,0.676137577
868,2176942,1180220,0.985,0.044,-0.026,0,-0.1,0,-35.1,6.2,27.2,0.166508988,0.703360088,-0.142490921,0.676137577
869,2178629,1180230,0.988,0.04,-0.03,0,0,0,-35.1,6.2,27.2,0.166508988,0.703390606,-0.142490921,0.676137577
870,2181631,1180230,0.985,0.04,-0.026,0,0,0,-35.1,6.2,27.2,0.166508988,0.703390606,-0.142490921,0.676137577
871,2183570,1180230,0.985,0.04,-0.038,0,0,0,-35.1,6.2,27.2,0.166508988,0.703390606,-0.142490921,0.676137577
872,2186666,1180230,0.985,0.04,-0.038,0,0,0,-35.1,6.2,27.2,0.166508988,0.703390606,-0.142490921,0.676137577
873,2189028,1180240,0.985,0.036,-0.026,0,0,0,-35.1,6.5,27.8,0.166539506,0.703390606,-0.142490921,0.676137577
874,2190924,1180240,0.985,0.04,-0.026,0,0,0,-35.1,6.5,27.8,0.166539506,0.703390606,-0.142490921,0.676137577
875,2194711,1180240,0.985,0.044,-0.03,0,0,0,-35.1,6.5,27.8,0.166539506,0.703390606,-0.142490921,0.676137577
876,2196174,1180240,0.988,0.04,-0.026,-0.1,-0.1,0,-35.4,5.7,25.5,0.166539506,0.703390606,-0.142490921,0.676137577
877,2198421,1180250,0.985,0.04,-0.03,-0.1,-0.1,0,-35.4,5.7,25.5,0.166539506,0.703390606,-0.142490921,0.676137577
878,2201376,1180250,0.985,0.036,-0.022,-0.1,-0.1,0,-35.4,5.7,25.5,0.166539506,0.703390606,-0.142490921,0.676137577
879,2205421,1180250,0.988,0.04,-0.026,-0.1,-0.1,0,-35.4,5.7,25.5,0.166539506,0.703390606,-0.142521439,0.676137577
880,2207662,1180250,0.988,0.04,-0.034,-0.1,-0.1,0.1,-35.3,5.8,27.7,0.166539506,0.703390606,-0.142521439,0.676107059
881,2209421,1180260,0.985,0.044,-0.022,0,-0.1,0,-35.3,5.8,27.7,0.166539506,0.703390606,-0.142521439,0.676107059
882,2211593,1180260,0.985,0.044,-0.03,0,0,0,-35.3,5.8,27.7,0.166539506,0.703390606,-0.142521439,0.676107059
883,2213783,1180260,0.985,0.036,-0.03,0,0,0,-35.3,5.8,27.7,0.166539506,0.703390606,-0.142521439,0.676107059
884,2216094,1180260,0.985,0.04,-0.034,0.1,0,0,-35.1,5.9,28,0.166539506,0.703390606,-0.142521439,0.676107059
885,2218714,1180270,0.988,0.04,-0.022,0.1,0,-0.1,-35.1,5.9,28,0.166539506,0.703390606,-0.142521439,0.676107059
886,2222019,1180270,0.985,0.044,-0.026,0.1,0,0,-35.1,5.9,28,0.166539506,0.703390606,-0.142490921,0.676107059
887,2224281,1180270,0.981,0.04,-0.03,0.1,0,0,-35.1,5.9,28,0.166508988,0.703390606,-0.142490921,0.676107059
888,2226470,1180270,0.981,0.04,-0.038,0,0,0,-35.5,5.5,27.9,0.166508988,0.703390606,-0.142490921,0.676107059
889,2229575,1180280,0.985,0.04,-0.03,0,0,0,-35.5,5.5,27.9,0.166539506,0.703390606,-0.142490921,0.676107059
890,2231361,1180280,0.988,0.036,-0.026,0,-0.1,0,-35.5,5.5,27.9,0.166539506,0.703421125,-0.142490921,0.676107059
891,2235201,1180280,0.988,0.04,-0.03,0,-0.1,0,-35.5,5.5,27.9,0.166539506,0.703421125,-0.142490921,0.676107059
892,2237487,1180280,0.988,0.04,-0.03,0,-0.1,0,-35.5,5.5,27.9,0.166539506,0.703421125,-0.142490921,0.676107059
893,2238944,1180290,0.988,0.04,-0.026,0,-0.1,0,-35.3,5.9,27.6,0.166508988,0.703421125,-0.142521439,0.676107059
894,2241167,1180290,0.985,0.044,-0.026,0,0,0,-35.3,5.9,27.6,0.166508988,0.703421125,-0.142521439,0.67607654
895,2243580,1180290,0.985,0.044,-0.03,0,0,0.1,-35.3,5.9,27.6,0.166508988,0.703421125,-0.142521439,0.676107059
896,2246809,1180290,0.985,0.044,-0.026,0,0,0.1,-35,6.1,25.2,0.166508988,0.703421125,-0.142521439,0.676107059
897,2248591,1180300,0.985,0.044,-0.026,0,0,0.1,-35,6.1,25.2,0.166508988,0.703421125,-0.142521439,0.676107059
898,2251013,1180300,0.985,0.04,-0.03,0,0,0,-35,6.1,25.2,0.166508988,0.703421125,-0.142521439,0.676107059
899,2255069,1180300,0.985,0.044,-0.026,0,0,0,-35,6.1,25.2,0.166508988,0.703421125,-0.142521439,0.676107059
900,2257394,1180300,0.985,0.04,-0.026,0,0,0,-35.4,5.7,26.8,0.166508988,0.703421125,-0.142521439,0.676107059
901,2259526,1180310,0.985,0.036,-0.026,0.1,0,0,-35.4,5.7,26.8,0.166508988,0.703421125,-0.142521439,0.676107059
902,2261677,1180310,0.985,0.04,-0.026,0.1,0,0,-35.4,5.7,26.8,0.166478469,0.703421125,-0.142521439,0.676107059
903,2263633,1180310,0.985,0.04,-0.026,0.1,0,0,-35.4,5.7,26.8,0.166478469,0.703421125,-0.142521439,0.676107059
904,2266184,1180310,0.981,0.04,-0.022,0,0,0.1,-35.3,5.9,26.3,0.166478469,0.703421125,-0.142521439,0.676107059
905,2269336,1180320,0.985,0.04,-0.022,0,0,0.1,-35.3,5.9,26.3,0.166478469,0.703421125,-0.142521439,0.676107059
906,2271095,1180320,0.988,0.044,-0.03,0,0,0,-35.3,5.9,26.3,0.166478469,0.703421125,-0.142521439,0.676107059
907,2273811,1180320,0.988,0.044,-0.034,0,0,0,-35.3,5.9,26.3,0.166478469,0.703421125,-0.142521439,0.676107059
908,2276021,1180320,0.985,0.04,-0.03,0,0,0,-35.2,5.5,25.9,0.166478469,0.703421125,-0.142521439,0.676107059
909,2279099,1180330,0.985,0.04,-0.022,0,0,-0.1,-35.2,5.5,25.9,0.166478469,0.703421125,-0.142521439,0.676107059
910,2281202,1180330,0.985,0.04,-0.03,0,0,-0.1,-35.2,5.5,25.9,0.166478469,0.703421125,-0.142521439,0.676107059
911,2283580,1180330,0.985,0.044,-0.026,0,0,0,-35.2,5.5,25.9,0.166478469,0.703421125,-0.142521439,0.676107059
912,2286330,1180330,0.985,0.044,-0.026,0,0,0,-35.2,5.5,25.9,0.166478469,0.703421125,-0.142521439,0.676107059
913,2289485,1180340,0.985,0.04,-0.022,0,0.1,0,-35.6,5.8,25.2,0.166508988,0.703390606,-0.142490921,0.676137577
914,2291905,1180340,0.985,0.044,-0.03,0,0.1,0,-35.6,5.8,25.2,0.166508988,0.703390606,-0.142490921,0.676137577
915,2293845,1180340,0.985,0.036,-0.026,0,0.1,0,-35.6,5.8,25.2,0.166508988,0.703390606,-0.142490921,0.676137577
916,2296058,1180340,0.985,0.044,-0.026,0,0,0,-35.2,5.8,26.8,0.166508988,0.703390606,-0.142490921,0.676137577
917,2298539,1180350,0.985,0.04,-0.026,0,-0.1,0,-35.2,5.8,26.8,0.166508988,0.703390606,-0.142490921,0.676137577
918,2301055,1180350,0.988,0.04,-0.03,-0.1,-0.1,0,-35.2,5.8,26.8,0.166508988,0.703390606,-0.142490921,0.676137577
919,2304563,1180350,0.985,0.04,-0.03,-0.1,-0.1,0,-35.2,5.8,26.8,0.166508988,0.703390606,-0.142490921,0.676137577
920,2306896,1180350,0.985,0.036,-0.03,0,-0.1,0,-35.3,5.8,26.6,0.166508988,0.703390606,-0.142521439,0.676137577
921,2309067,1180360,0.988,0.04,-0.026,0,0,0,-35.3,5.8,26.6,0.166508988,0.703390606,-0.142521439,0.676137577
922,2311320,1180360,0.988,0.044,-0.026,0,0,-0.1,-35.3,5.8,26.6,0.166508988,0.703390606,-0.142521439,0.676137577
923,2313597,1180360,0.985,0.04,-0.03,0,0.1,-0.1,-35.3,5.8,26.6,0.166508988,0.703390606,-0.142490921,0.676137577
924,2316092,1180360,0.985,0.04,-0.022,0,0.2,-0.1,-35.3,5.5,26.8,0.166508988,0.703390606,-0.142490921,0.676137577
925,2318545,1180370,0.988,0.04,-0.026,0,0.1,0,-35.3,5.5,26.8,0.166508988,0.703390606,-0.142490921,0.676137577
926,2321708,1180370,0.988,0.04,-0.026,0,0,0.1,-35.3,5.5,26.8,0.166508988,0.703390606,-0.142490921,0.676137577
927,2323907,1180370,0.985,0.036,-0.026,0,0,0.1,-35.3,5.5,26.8,0.166508988,0.703390606,-0.142521439,0.676137577
928,2326299,1180370,0.981,0.04,-0.03,0,-0.1,0,-35.2,5.3,26.5,0.166508988,0.703390606,-0.142521439,0.676137577
929,2329870,1180380,0.988,0.04,-0.03,0,-0.2,0,-35.2,5.3,26.5,0.166508988,0.703390606,-0.142521439,0.676137577
930,2332168,1180380,0.985,0.044,-0.026,0,-0.3,0,-35.2,5.3,26.5,0.166508988,0.703390606,-0.142521439,0.676107059
931,2333634,1180380,0.988,0.04,-0.03,0,-0.3,0,-35.2,5.3,26.5,0.166508988,0.703421125,-0.142521439,0.676107059
932,2336067,1180380,0.988,0.04,-0.03,0,-0.3,0,-35.2,5.3,26.5,0.166508988,0.703421125,-0.142521439,0.676107059
933,2338448,1180390,0.988,0.044,-0.022,0,-0.2,0,-35.1,4.8,26.4,0.166508988,0.703421125,-0.142490921,0.676107059
934,2341630,1180390,0.985,0.044,-0.03,0,-0.1,0,-35.1,4.8,26.4,0.166508988,0.703421125,-0.142490921,0.676107059
935,2343703,1180390,0.985,0.04,-0.022,0,0,-0.1,-35.1,4.8,26.4,0.166508988,0.703421125,-0.142490921,0.676107059
936,2345987,1180390,0.985,0.04,-0.03,0,0,0,-35,6.8,28.2,0.166508988,0.703421125,-0.142490921,0.676107059
937,2348578,1180400,0.985,0.04,-0.03,0,0,0,-35,6.8,28.2,0.166508988,0.703421125,-0.142490921,0.676107059
938,2351852,1180400,0.988,0.044,-0.03,0,0,0,-35,6.8,28.2,0.166508988,0.703421125,-0.142490921,0.676107059
939,2354167,1180400,0.985,0.04,-0.026,0,0,0.1,-35,6.8,28.2,0.166508988,0.703421125,-0.142490921,0.676107059
940,2356438,1180400,0.985,0.04,-0.026,0,0,0.2,-35.1,4.8,25.5,0.166508988,0.703421125,-0.142521439,0.676107059
941,2358578,1180410,0.985,0.04,-0.03,0,0,0,-35.1,4.8,25.5,0.166508988,0.703421125,-0.142521439,0.676107059
942,2361120,1180410,0.985,0.04,-0.026,0,-0.1,0,-35.1,4.8,25.5,0.166508988,0.703421125,-0.142521439,0.676107059
943,2364496,1180410,0.985,0.036,-0.026,0,-0.1,0.1,-35.1,4.8,25.5,0.166508988,0.703421125,-0.142521439,0.676107059
944,2366067,1180410,0.985,0.036,-0.034,-0.1,0,0.1,-35,4.1,26.2,0.166508988,0.703421125,-0.142521439,0.676107059
945,2369108,1180420,0.985,0.044,-0.026,-0.1,0,0,-35,4.1,26.2,0.166508988,0.703421125,-0.142521439,0.676107059
946,2371424,1180420,0.985,0.036,-0.026,0,0,0,-35,4.1,26.2,0.166508988,0.703421125,-0.142521439,0.676107059
947,2373709,1180420,0.985,0.044,-0.03,0,0,0,-35,4.1,26.2,0.166508988,0.703421125,-0.142521439,0.676107059
948,2376768,1180420,0.985,0.04,-0.026,0,0,0,-35,4.1,25.8,0.166508988,0.703421125,-0.142521439,0.676107059
949,2378513,1180430,0.988,0.044,-0.03,0,0,0,-35,4.1,25.8,0.166508988,0.703421125,-0.142521439,0.676107059
950,2382012,1180430,0.985,0.044,-0.026,0,0,0,-35,4.1,25.8,0.166508988,0.703421125,-0.142521439,0.676107059
951,2383727,1180430,0.985,0.048,-0.026,0,0,0,-35,4.1,25.8,0.166508988,0.703421125,-0.142521439,0.676107059
952,2386148,1180430,0.985,0.048,-0.026,0,0,0,-35,4.1,25.8,0.166508988,0.703421125,-0.142521439,0.676107059
953,2389554,1180440,0.988,0.044,-0.022,0,0,0,-35.4,3.8,25.7,0.166570025,0.703390606,-0.142460402,0.676107059
954,2391050,1180440,0.981,0.04,-0.026,0,-0.1,0.1,-35.4,3.8,25.7,0.166570025,0.703421125,-0.142460402,0.676107059
955,2394072,1180440,0.981,0.044,-0.026,-0.1,-0.1,0.1,-35.4,3.8,25.7,0.166570025,0.703421125,-0.142460402,0.676107059
956,2396975,1180440,0.985,0.044,-0.03,-0.1,-0.1,0.1,-35.3,7.3,27.2,0.166570025,0.703421125,-0.142490921,0.676107059
957,2398593,1180450,0.981,0.044,-0.026,0,0,0.1,-35.3,7.3,27.2,0.166570025,0.703421125,-0.142490921,0.676107059
958,2401710,1180450,0.985,0.04,-0.03,0,0,0.2,-35.3,7.3,27.2,0.166570025,0.703421125,-0.142490921,0.676107059
959,2403550,1180450,0.981,0.044,-0.03,0.1,0,0.2,-35.3,7.3,27.2,0.166539506,0.703390606,-0.142490921,0.676107059
960,2406983,1180450,0.988,0.044,-0.026,0,0,0.2,-35.1,5.6,26.8,0.166539506,0.703421125,-0.142490921,0.676107059
961,2408572,1180460,0.985,0.04,-0.022,0.1,-0.1,0.1,-35.1,5.6,26.8,0.166539506,0.703421125,-0.142490921,0.676107059
962,2411099,1180460,0.985,0.04,-0.022,0,-0.1,0,-35.1,5.6,26.8,0.166539506,0.703421125,-0.142490921,0.676107059
963,2414429,1180460,0.988,0.04,-0.026,0,-0.1,0,-35.1,5.6,26.8,0.166539506,0.703421125,-0.142490921,0.676107059
964,2416059,1180460,0.985,0.04,-0.026,0,-0.1,0,-35.5,6.4,26.5,0.166539506,0.703421125,-0.142490921,0.676107059
965,2419689,1180470,0.985,0.04,-0.034,0,0,0,-35.5,6.4,26.5,0.166539506,0.703421125,-0.142490921,0.676107059
966,2421249,1180470,0.985,0.044,-0.03,0,0,0,-35.5,6.4,26.5,0.166539506,0.703421125,-0.142490921,0.676107059
967,2424410,1180470,0.985,0.04,-0.022,0,0,0,-35.5,6.4,26.5,0.166539506,0.703421125,-0.142490921,0.676107059
968,2426158,1180470,0.988,0.04,-0.026,0,0,0,-35.1,7,26.7,0.166539506,0.703421125,-0.142490921,0.676107059
969,2429831,1180480,0.985,0.036,-0.026,0,0,0,-35.1,7,26.7,0.166539506,0.703421125,-0.142490921,0.676107059
970,2431982,1180480,0.985,0.04,-0.026,0,0,0,-35.1,7,26.7,0.166539506,0.703421125,-0.142490921,0.676107059
971,2433621,1180480,0.988,0.044,-0.026,0,0,0,-35.1,7,26.7,0.166539506,0.703421125,-0.142490921,0.676107059
972,2436894,1180480,0.988,0.044,-0.026,0,0,0,-35.1,7,26.7,0.166539506,0.703421125,-0.142490921,0.676107059
973,2438935,1180490,0.985,0.044,-0.026,0,0.1,0,-35,7.1,26.8,0.166539506,0.703360088,-0.142490921,0.676137577
974,2442005,1180490,0.988,0.04,-0.03,0,0.1,0,-35,7.1,26.8,0.166539506,0.703360088,-0.142490921,0.676137577
975,2443459,1180490,0.985,0.04,-0.022,0,0.1,-0.1,-35,7.1,26.8,0.166539506,0.703360088,-0.142490921,0.676137577
976,2447205,1180490,0.985,0.044,-0.022,0,0.1,-0.1,-35.1,6,26.7,0.166570025,0.703360088,-0.142490921,0.676137577
977,2448780,1180500,0.985,0.04,-0.03,0,0.1,-0.1,-35.1,6,26.7,0.166570025,0.703360088,-0.142490921,0.676168096
978,2451180,1180500,0.985,0.044,-0.026,0,0.1,0,-35.1,6,26.7,0.166570025,0.703360088,-0.142490921,0.676168096
979,2453487,1180500,0.985,0.044,-0.022,0,0.2,0,-35.1,6,26.7,0.166570025,0.703360088,-0.142490921,0.676168096
980,2455940,1180500,0.985,0.04,-0.026,-0.1,0.1,0.1,-35,6,26.6,0.166570025,0.703360088,-0.142490921,0.676168096
981,2458968,1180510,0.981,0.04,-0.03,0,0.1,0,-35,6,26.6,0.166570025,0.703360088,-0.142490921,0.676168096
982,2461224,1180510,0.985,0.04,-0.034,0,0,0,-35,6,26.6,0.166570025,0.703360088,-0.142490921,0.676168096
983,2463538,1180510,0.981,0.04,-0.03,0,-0.1,0,-35,6,26.6,0.166570025,0.703360088,-0.142490921,0.676168096
984,2466206,1180510,0.981,0.04,-0.03,0,-0.2,0,-34.9,6,26.9,0.166570025,0.703360088,-0.142490921,0.676168096
985,2470252,1180520,0.985,0.044,-0.026,0,-0.3,0,-34.9,6,26.9,0.166539506,0.703360088,-0.142490921,0.676168096
986,2472057,1180520,0.988,0.04,-0.03,0,-0.3,0,-34.9,6,26.9,0.166539506,0.703360088,-0.142490921,0.676137577
987,2474405,1180520,0.988,0.04,-0.03,0,-0.2,0,-34.9,6,26.9,0.166539506,0.703360088,-0.142490921,0.676137577
988,2476699,1180520,0.985,0.04,-0.034,0,-0.1,0,-35.1,6,26.9,0.166539506,0.703360088,-0.142490921,0.676137577
989,2478873,1180530,0.988,0.04,-0.03,0,-0.1,0,-35.1,6,26.9,0.166539506,0.703390606,-0.142490921,0.676137577
990,2481081,1180530,0.985,0.036,-0.026,0,0,0,-35.1,6,26.9,0.166539506,0.703390606,-0.142490921,0.676137577
991,2483771,1180530,0.985,0.04,-0.03,0,0,0,-35.1,6,26.9,0.166539506,0.703390606,-0.142490921,0.676137577
992,2486044,1180530,0.985,0.04,-0.03,0,0,0,-35.1,6,26.9,0.166539506,0.703390606,-0.142490921,0.676137577
993,2488544,1180540,0.981,0.04,-0.03,0,0,0.1,-35.1,6.1,27,0.166539506,0.703390606,-0.142521439,0.676137577
994,2492683,1180540,0.985,0.044,-0.03,0,-0.1,0.1,-35.1,6.1,27,0.166539506,0.703390606,-0.142521439,0.676137577
995,2494936,1180540,0.985,0.036,-0.026,0,0,0.1,-35.1,6.1,27,0.166508988,0.703390606,-0.142521439,0.676137577
996,2497168,1180540,0.985,0.044,-0.026,0,0,0,-34.8,4.7,26.7,0.166508988,0.703390606,-0.142521439,0.676137577
997,2498955,1180550,0.985,0.044,-0.03,0,0.2,0,-34.8,4.7,26.7,0.166508988,0.703390606,-0.142521439,0.676137577
998,2501288,1180550,0.988,0.044,-0.03,0,0.2,0,-34.8,4.7,26.7,0.166508988,0.703390606,-0.142521439,0.676137577
999,2504897,1180550,0.992,0.04,-0.026,0,0.1,0,-34.8,4.7,26.7,0.166508988,0.703360088,-0.142521439,0.676137577
1000,2507093,1180550,0.988,0.036,-0.026,0,0,0,-36,7.4,26.5,0.166508988,0.703360088,-0.142521439,0.676137577
1001,2508628,1180560,0.988,0.04,-0.03,0,0,0,-36,7.4,26.5,0.166539506,0.703360088,-0.142521439,0.676137577
1002,2511263,1180560,0.985,0.044,-0.026,0,0,0,-36,7.4,26.5,0.166508988,0.703360088,-0.142521439,0.676137577
1003,2514264,1180560,0.988,0.044,-0.026,0,0,0.1,-36,7.4,26.5,0.166508988,0.703360088,-0.142521439,0.676137577
1004,2516414,1180560,0.985,0.04,-0.022,0,0,0,-36.6,6.7,26.8,0.166508988,0.703360088,-0.142521439,0.676137577
1005,2518686,1180570,0.985,0.044,-0.026,0,0,0,-36.6,6.7,26.8,0.166508988,0.703360088,-0.142521439,0.676137577
1006,2521325,1180570,0.988,0.04,-0.03,0,0,0,-36.6,6.7,26.8,0.166508988,0.703360088,-0.142521439,0.676137577
1007,2523553,1180570,0.981,0.04,-0.03,0,-0.1,0,-36.6,6.7,26.8,0.166508988,0.703360088,-0.142521439,0.676137577
1008,2526950,1180570,0.985,0.044,-0.026,0,-0.1,0,-36.9,7.3,26.8,0.166508988,0.703390606,-0.142521439,0.676137577
1009,2528533,1180580,0.985,0.044,-0.03,0,-0.1,-0.1,-36.9,7.3,26.8,0.166508988,0.703390606,-0.142521439,0.676137577
1010,2532614,1180580,0.985,0.044,-0.026,0,0,-0.1,-36.9,7.3,26.8,0.166539506,0.703390606,-0.142521439,0.676137577
1011,2534731,1180580,0.985,0.04,-0.03,0,0.1,-0.1,-36.9,7.3,26.8,0.166539506,0.703390606,-0.142521439,0.676137577
1012,2536272,1180580,0.985,0.04,-0.03,0,0.1,-0.1,-36.9,7.3,26.8,0.166539506,0.703390606,-0.142521439,0.676137577
1013,2538597,1180590,0.985,0.04,-0.034,0,0,-0.1,-37,7.1,26.7,0.166570025,0.703360088,-0.142490921,0.676137577
1014,2541023,1180590,0.985,0.044,-0.03,0,0,0,-37,7.1,26.7,0.166570025,0.703360088,-0.142490921,0.676137577
1015,2544688,1180590,0.988,0.044,-0.03,0,0,0,-37,7.1,26.7,0.166570025,0.703360088,-0.142490921,0.676137577
1016,2546217,1180590,0.988,0.04,-0.03,0,0,0,-33.9,5.4,26.8,0.166570025,0.703360088,-0.142490921,0.676137577
1017,2548587,1180600,0.988,0.044,-0.026,0,0,0,-33.9,5.4,26.8,0.166570025,0.703360088,-0.142490921,0.676137577
1018,2551057,1180600,0.985,0.04,-0.026,0,-0.1,0,-33.9,5.4,26.8,0.166570025,0.703360088,-0.142490921,0.676137577
1019,2554467,1180600,0.985,0.044,-0.03,0,-0.2,0,-33.9,5.4,26.8,0.166570025,0.703390606,-0.142490921,0.676137577
1020,2556073,1180600,0.985,0.044,-0.026,0,-0.2,0,-36.1,6.3,27,0.166570025,0.703390606,-0.142490921,0.676137577
1021,2558772,1180610,0.985,0.036,-0.026,0,-0.2,0,-36.1,6.3,27,0.166570025,0.703390606,-0.142490921,0.676137577
1022,2562093,1180610,0.985,0.04,-0.026,0,-0.1,0,-36.1,6.3,27,0.166570025,0.703390606,-0.142490921,0.676137577
1023,2564461,1180610,0.985,0.044,-0.026,0,0,0,-36.1,6.3,27,0.166570025,0.703390606,-0.142490921,0.676137577
1024,2566567,1180610,0.985,0.04,-0.03,0,0,0,-35.6,6.2,26.9,0.166570025,0.703390606,-0.142490921,0.676137577
1025,2568751,1180620,0.988,0.04,-0.026,0,0,0,-35.6,6.2,26.9,0.166570025,0.703390606,-0.142490921,0.676137577
1026,2571822,1180620,0.988,0.04,-0.026,0,-0.1,0,-35.6,6.2,26.9,0.166570025,0.703390606,-0.142490921,0.676137577
1027,2573440,1180620,0.988,0.04,-0.03,0,-0.1,0,-35.6,6.2,26.9,0.166570025,0.703390606,-0.142490921,0.676137577
1028,2576930,1180620,0.985,0.044,-0.03,0,-0.1,0,-34.9,6.2,27,0.166570025,0.703390606,-0.142490921,0.676107059
1029,2578577,1180630,0.985,0.04,-0.026,0,-0.1,0,-34.9,6.2,27,0.166570025,0.703390606,-0.142490921,0.676107059
1030,2581156,1180630,0.985,0.04,-0.022,0,-0.1,0,-34.9,6.2,27,0.166570025,0.703390606,-0.142490921,0.676107059
1031,2584527,1180630,0.988,0.036,-0.03,0,-0.1,0,-34.9,6.2,27,0.166570025,0.703390606,-0.142490921,0.676107059
1032,2586065,1180630,0.988,0.036,-0.03,0,-0.1,0,-34.9,6.2,27,0.166570025,0.703390606,-0.142490921,0.676107059
1033,2589218,1180640,0.988,0.036,-0.03,0,-0.1,0,-34.4,6.2,26.9,0.166570025,0.703390606,-0.142490921,0.676137577
1034,2591058,1180640,0.985,0.04,-0.03,0,0,0,-34.4,6.2,26.9,0.166570025,0.703390606,-0.142490921,0.676137577
1035,2594094,1180640,0.981,0.04,-0.03,0,0,0,-34.4,6.2,26.9,0.166570025,0.703390606,-0.142490921,0.676137577
1036,2596355,1180640,0.988,0.036,-0.03,0,0,-0.1,-35.2,5.7,26.8,0.166570025,0.703390606,-0.142490921,0.676137577
1037,2599437,1180650,0.985,0.04,-0.026,0,0.1,-0.1,-35.2,5.7,26.8,0.166570025,0.703390606,-0.142490921,0.676137577
1038,2601608,1180650,0.985,0.036,-0.034,0,0.1,-0.1,-35.2,5.7,26.8,0.166570025,0.703390606,-0.142460402,0.676137577
1039,2603867,1180650,0.988,0.044,-0.026,0,0.1,0,-35.2,5.7,26.8,0.166570025,0.703360088,-0.142460402,0.676137577
1040,2606169,1180650,0.988,0.044,-0.03,0,0.1,0,-35,5.6,27,0.166570025,0.703360088,-0.142460402,0.676137577
1041,2608740,1180660,0.988,0.04,-0.022,0,0.1,0,-35,5.6,27,0.166570025,0.703360088,-0.142460402,0.676137577
1042,2612118,1180660,0.985,0.036,-0.026,0,0.1,0,-35,5.6,27,0.166570025,0.703360088,-0.142460402,0.676137577
1043,2613605,1180660,0.988,0.044,-0.026,-0.1,0.1,0,-35,5.6,27,0.166570025,0.703360088,-0.142460402,0.676137577
1044,2616235,1180660,0.988,0.036,-0.022,0,0,0,-35.2,5.7,27.2,0.166570025,0.703360088,-0.142490921,0.676137577
1045,2619577,1180670,0.988,0.04,-0.03,-0.1,0,0,-35.2,5.7,27.2,0.166570025,0.703360088,-0.142490921,0.676137577
1046,2621978,1180670,0.985,0.044,-0.03,0,0,0,-35.2,5.7,27.2,0.166600543,0.703360088,-0.142490921,0.676137577
1047,2623640,1180670,0.985,0.04,-0.03,0,0,0,-35.2,5.7,27.2,0.166600543,0.703360088,-0.142490921,0.676137577
1048,2627465,1180670,0.988,0.044,-0.026,0,0.1,-0.1,-35.1,6.1,27,0.166600543,0.703360088,-0.142490921,0.676137577
1049,2629626,1180680,0.985,0.044,-0.026,0,0.1,0,-35.1,6.1,27,0.166600543,0.703360088,-0.142460402,0.676168096
1050,2631124,1180680,0.985,0.036,-0.026,0,0.2,0,-35.1,6.1,27,0.166600543,0.703360088,-0.142460402,0.676168096
1051,2633453,1180680,0.988,0.04,-0.022,0.1,0.2,0,-35.1,6.1,27,0.166600543,0.703360088,-0.142460402,0.676168096
1052,2635940,1180680,0.988,0.04,-0.022,0.1,0.2,0,-35.1,6.1,27,0.166600543,0.703360088,-0.142460402,0.676168096
1053,2639445,1180690,0.985,0.036,-0.026,0,-0.1,0.1,-35.6,5.8,26.9,0.166600543,0.703299051,-0.142460402,0.676198614
1054,2641047,1180690,0.988,0.04,-0.03,0,-0.2,0.1,-35.6,5.8,26.9,0.166600543,0.703299051,-0.142460402,0.676198614
1055,2643732,1180690,0.988,0.044,-0.03,0,-0.2,0,-35.6,5.8,26.9,0.166600543,0.703329569,-0.142460402,0.676198614
1056,2647532,1180690,0.988,0.04,-0.03,0,-0.1,0,-36.4,6,26.8,0.166600543,0.703329569,-0.142460402,0.676198614
1057,2649752,1180700,0.988,0.044,-0.026,0,0,0,-36.4,6,26.8,0.166600543,0.703329569,-0.142460402,0.676198614
1058,2651337,1180700,0.988,0.04,-0.026,0,0,0,-36.4,6,26.8,0.166600543,0.703329569,-0.142460402,0.676198614
1059,2653621,1180700,0.985,0.044,-0.034,0.1,0.1,0,-36.4,6,26.8,0.166600543,0.703329569,-0.142460402,0.676198614
1060,2656415,1180700,0.985,0.048,-0.03,0,0,0,-33.9,5.9,27.2,0.166600543,0.703329569,-0.142460402,0.676198614
1061,2658575,1180710,0.985,0.04,-0.034,0,0,0,-33.9,5.9,27.2,0.166600543,0.703329569,-0.142460402,0.676198614
1062,2662715,1180710,0.985,0.044,-0.026,0,0,0,-33.9,5.9,27.2,0.166600543,0.703299051,-0.142460402,0.676198614
1063,2664936,1180710,0.981,0.04,-0.03,0,0.1,-0.1,-33.9,5.9,27.2,0.166600543,0.703299051,-0.142460402,0.676198614
1064,2667169,1180710,0.985,0.04,-0.026,0,0.1,0,-34.1,6,26.7,0.166600543,0.703299051,-0.142460402,0.676198614
1065,2668812,1180720,0.981,0.036,-0.03,0.1,0.1,0,-34.1,6,26.7,0.166600543,0.703299051,-0.142460402,0.676198614
1066,2671083,1180720,0.981,0.04,-0.022,0,0.1,0,-34.1,6,26.7,0.166600543,0.703299051,-0.142460402,0.676198614
1067,2673697,1180720,0.981,0.044,-0.03,0,0.1,0,-34.1,6,26.7,0.166600543,0.703299051,-0.142460402,0.676198614
1068,2676890,1180720,0.985,0.044,-0.03,-0.1,0,0,-34,6.1,27,0.166600543,0.703299051,-0.142460402,0.676198614
1069,2678545,1180730,0.988,0.044,-0.026,0,0.1,0,-34,6.1,27,0.166600543,0.703299051,-0.142460402,0.676229133
1070,2681303,1180730,0.988,0.036,-0.03,0,0.1,0,-34,6.1,27,0.166600543,0.703299051,-0.142460402,0.676229133
1071,2683634,1180730,0.988,0.04,-0.022,0,0.1,0,-34,6.1,27,0.166600543,0.703299051,-0.142460402,0.676229133
1072,2687549,1180730,0.988,0.04,-0.022,0,0.1,0,-34,6.1,27,0.166600543,0.703299051,-0.142460402,0.676229133
1073,2689056,1180740,0.988,0.04,-0.03,0,0,0,-33.4,6,26.8,0.166600543,0.703268532,-0.142460402,0.676229133
1074,2691312,1180740,0.985,0.048,-0.03,0,-0.1,0,-33.4,6,26.8,0.166600543,0.703268532,-0.142460402,0.676229133
1075,2693495,1180740,0.981,0.044,-0.03,0,-0.1,0,-33.4,6,26.8,0.166600543,0.703268532,-0.142460402,0.676229133
1076,2696537,1180740,0.988,0.04,-0.03,0,0,0,-36,5.7,27.1,0.166600543,0.703268532,-0.142460402,0.676229133
1077,2698785,1180750,0.981,0.04,-0.03,0,0.1,0,-36,5.7,27.1,0.166600543,0.703268532,-0.142460402,0.676229133
1078,2701005,1180750,0.988,0.04,-0.03,0,0.1,-0.1,-36,5.7,27.1,0.166600543,0.703268532,-0.142460402,0.676229133
1079,2704508,1180750,0.988,0.044,-0.03,0,0.1,-0.1,-36,5.7,27.1,0.166631062,0.703268532,-0.142460402,0.676229133
1080,2706091,1180750,0.988,0.044,-0.026,0,0,-0.1,-34.5,5.9,26.7,0.166631062,0.703268532,-0.142460402,0.676229133
1081,2709153,1180760,0.985,0.04,-0.034,0,0,-0.1,-34.5,5.9,26.7,0.166631062,0.703268532,-0.142460402,0.676229133
1082,2711317,1180760,0.988,0.04,-0.03,-0.1,-0.1,0,-34.5,5.9,26.7,0.166631062,0.703268532,-0.142460402,0.676229133
1083,2714382,1180760,0.988,0.04,-0.026,-0.1,-0.1,0,-34.5,5.9,26.7,0.166631062,0.703268532,-0.142460402,0.676229133
1084,2716165,1180760,0.985,0.04,-0.03,0,0,0,-34.6,5.9,26.9,0.166631062,0.703268532,-0.142460402,0.676229133
1085,2719591,1180770,0.988,0.04,-0.026,0,0,0.1,-34.6,5.9,26.9,0.166631062,0.703268532,-0.142460402,0.676229133
1086,2721014,1180770,0.985,0.048,-0.03,0,0.1,0,-34.6,5.9,26.9,0.166631062,0.703268532,-0.142460402,0.676229133
1087,2724114,1180770,0.985,0.044,-0.03,0,0.2,0,-34.6,5.9,26.9,0.166631062,0.703268532,-0.142460402,0.676229133
1088,2726313,1180770,0.985,0.04,-0.022,0,0.2,-0.1,-34.5,5.9,27,0.166631062,0.703268532,-0.142460402,0.676229133
1089,2728540,1180780,0.988,0.04,-0.03,0,0.1,-0.1,-34.5,5.9,27,0.166631062,0.703268532,-0.142460402,0.676229133
1090,2731607,1180780,0.981,0.04,-0.022,0,0.1,-0.1,-34.5,5.9,27,0.166631062,0.703268532,-0.142460402,0.676229133
1091,2734534,1180780,0.981,0.04,-0.034,0,0.1,-0.1,-34.5,5.9,27,0.166631062,0.703268532,-0.142460402,0.676259651
1092,2736038,1180780,0.981,0.04,-0.034,0,0.1,-0.1,-34.5,5.9,27,0.166631062,0.703268532,-0.142460402,0.676259651
1093,2738997,1180790,0.985,0.04,-0.026,0.1,0,0,-34.6,5.6,26.8,0.166631062,0.703238014,-0.142429884,0.676259651
1094,2742045,1180790,0.981,0.04,-0.03,0.1,0,0,-34.6,5.6,26.8,0.166631062,0.703238014,-0.142429884,0.676259651
1095,2743540,1180790,0.985,0.036,-0.022,0,0,0,-34.6,5.6,26.8,0.166631062,0.703238014,-0.142429884,0.676259651
