sample_index,elapsed_us,device_time_ms,acc_x_g,acc_y_g,acc_z_g,gyro_x_dps,gyro_y_dps,gyro_z_dps,mag_x_ut,mag_y_ut,mag_z_ut,quat_w,quat_x,quat_y,quat_z
0,4635,1453420,-0.549,-0.568,0.614,0.7,1.6,1,8.8,-8.7,-22.2,0.428785058,0.122806482,0.431043428,-0.784356212
1,7574,1453430,-0.553,-0.572,0.61,0.7,1.7,1,8.8,-8.7,-22.2,0.428785058,0.122867519,0.431043428,-0.784325694
2,9773,1453430,-0.553,-0.572,0.61,0.6,1.8,0.9,8.8,-8.8,-22.2,0.428785058,0.122898038,0.431043428,-0.784325694
3,12084,1453430,-0.549,-0.568,0.614,0.6,1.9,0.9,8.8,-8.8,-22.2,0.428785058,0.122959075,0.431043428,-0.784325694
4,14274,1453430,-0.549,-0.568,0.614,0.7,2,0.8,8.8,-8.8,-22.2,0.428785058,0.123020112,0.431043428,-0.784325694
5,16505,1453440,-0.549,-0.572,0.614,0.9,2,0.7,8.8,-8.8,-22.2,0.428785058,0.12305063,0.431043428,-0.784325694
6,19079,1453440,-0.553,-0.568,0.61,0.9,2,0.7,8.8,-8.5,-22,0.428785058,0.123111667,0.431043428,-0.784295175
7,22492,1453440,-0.549,-0.568,0.606,1,2,0.6,8.8,-8.5,-22,0.42875454,0.123142186,0.431043428,-0.784295175
8,23999,1453440,-0.553,-0.56,0.61,1.1,2.1,0.6,8.8,-8.5,-22,0.42875454,0.123203223,0.431043428,-0.784295175
9,26594,1453450,-0.553,-0.56,0.602,1.2,2.1,0.6,8.8,-8.5,-22,0.428724021,0.12326426,0.431043428,-0.784295175
10,29954,1453450,-0.553,-0.56,0.602,1.2,2.1,0.6,8.8,-8.5,-22,0.428724021,0.12326426,0.431043428,-0.784295175
11,31455,1453450,-0.549,-0.557,0.61,1.1,2.3,0.2,6.5,-8.8,-22.1,0.428724021,0.123325297,0.430921354,-0.784386731
12,34446,1453450,-0.549,-0.553,0.61,1,2.4,0,6.5,-8.8,-22.1,0.428693503,0.123355815,0.430921354,-0.784386731
13,37410,1453460,-0.553,-0.553,0.606,0.9,2.4,-0.1,6.5,-8.8,-22.1,0.428662984,0.123416852,0.430921354,-0.784386731
14,38928,1453460,-0.549,-0.557,0.602,0.8,2.3,-0.2,10,-8.6,-22.6,0.428632466,0.123477889,0.430921354,-0.784386731
15,41636,1453460,-0.553,-0.557,0.614,0.7,2.3,-0.4,10,-8.6,-22.6,0.428601947,0.123508408,0.430951872,-0.784386731
16,44968,1453460,-0.553,-0.553,0.602,0.5,2.3,-0.4,10,-8.6,-22.6,0.428571429,0.123538926,0.430951872,-0.784386731
17,46536,1453470,-0.549,-0.557,0.602,0.2,2.4,-0.6,10,-8.6,-22.6,0.42854091,0.123599963,0.430982391,-0.784386731
18,48932,1453470,-0.557,-0.556,0.602,0,2.5,-0.8,10.2,-8.5,-22.3,0.428510392,0.123630482,0.431012909,-0.784386731
19,51724,1453470,-0.557,-0.56,0.602,-0.3,2.5,-1.1,10.2,-8.5,-22.3,0.428449355,0.123630482,0.431043428,-0.784386731
20,53934,1453470,-0.557,-0.556,0.606,-0.6,2.6,-1.3,10.2,-8.5,-22.3,0.428418836,0.123691519,0.431073946,-0.784386731
21,57531,1453480,-0.553,-0.564,0.606,-0.8,2.7,-1.5,10.2,-8.5,-22.3,0.428357799,0.123691519,0.431134983,-0.784386731
22,59018,1453480,-0.557,-0.556,0.606,-1.1,2.8,-1.7,10.2,-8.7,-22.6,0.428296762,0.123722037,0.431165502,-0.784386731
23,61732,1453480,-0.557,-0.564,0.606,-1.2,2.8,-1.9,10.2,-8.7,-22.6,0.428266243,0.123752556,0.431226539,-0.784386731
24,65136,1453480,-0.561,-0.56,0.606,-1.3,2.8,-2,10.2,-8.7,-22.6,0.428205206,0.123752556,0.431287576,-0.784386731
25,67365,1453490,-0.561,-0.568,0.602,-1.4,2.7,-2.1,10.2,-8.7,-22.6,0.428144169,0.123783074,0.431348613,-0.784386731
26,69694,1453490,-0.565,-0.568,0.606,-1.6,2.6,-2.2,10,-8.5,-22.5,0.428083132,0.123783074,0.43140965,-0.784386731
27,71829,1453490,-0.565,-0.572,0.606,-1.6,2.5,-2.3,10,-8.5,-22.5,0.428022095,0.123783074,0.431440168,-0.784386731
28,74183,1453490,-0.565,-0.572,0.606,-1.6,2.5,-2.4,10,-8.5,-22.5,0.427961058,0.123783074,0.431501205,-0.784386731
29,77126,1453500,-0.565,-0.568,0.603,-1.7,2.5,-2.5,10,-8.5,-22.5,0.427900021,0.123783074,0.431562243,-0.784386731
30,79224,1453500,-0.565,-0.568,0.603,-1.7,2.5,-2.5,10,-8.5,-22.5,0.427900021,0.123783074,0.431562243,-0.784386731
31,83195,1453500,-0.565,-0.58,0.606,-1.7,2.3,-2.8,8.4,-8.7,-22.2,0.427808466,0.123813593,0.43162328,-0.784417249
32,85248,1453500,-0.565,-0.58,0.606,-1.5,2.2,-2.9,8.4,-8.7,-22.2,0.42771691,0.123813593,0.431653798,-0.784447768
33,86856,1453510,-0.569,-0.576,0.599,-1.2,2.1,-2.9,8.4,-8.7,-22.2,0.427655873,0.123813593,0.431714835,-0.784447768
34,90155,1453510,-0.569,-0.576,0.603,-1.1,2.1,-2.9,8,-9.1,-21.9,0.427594836,0.123783074,0.431775872,-0.784447768
35,91925,1453510,-0.573,-0.58,0.603,-1.1,2,-2.9,8,-9.1,-21.9,0.427533799,0.123783074,0.431806391,-0.784478286
36,94493,1453510,-0.581,-0.58,0.599,-1.1,2,-3,8,-9.1,-21.9,0.427442244,0.123783074,0.431867428,-0.784478286
37,96607,1453520,-0.577,-0.576,0.603,-1,1.9,-3,8,-9.1,-21.9,0.427381207,0.123783074,0.431897946,-0.784478286
38,100153,1453520,-0.581,-0.58,0.599,-1,1.8,-2.8,7.6,-8.7,-21.8,0.42732017,0.123783074,0.431958983,-0.784508805
39,101505,1453520,-0.577,-0.576,0.607,-0.8,1.7,-2.6,7.6,-8.7,-21.8,0.427259133,0.123783074,0.431989502,-0.784508805
40,105103,1453520,-0.581,-0.572,0.599,-0.7,1.5,-2.4,7.6,-8.7,-21.8,0.427198096,0.123783074,0.43202002,-0.784539323
41,106877,1453530,-0.577,-0.576,0.603,-0.5,1.2,-2.4,7.6,-8.7,-21.8,0.427167577,0.123752556,0.432050539,-0.784539323
42,109008,1453530,-0.577,-0.572,0.603,-0.3,1,-2.5,6.1,-8.8,-22.2,0.42710654,0.123752556,0.432081057,-0.784569842
43,112050,1453530,-0.581,-0.572,0.599,-0.3,0.9,-2.5,6.1,-8.8,-22.2,0.427045503,0.123752556,0.432081057,-0.784569842
44,114227,1453530,-0.577,-0.576,0.603,-0.2,0.8,-2.3,6.1,-8.8,-22.2,0.427014985,0.123722037,0.432111576,-0.78460036
45,117659,1453540,-0.577,-0.58,0.603,-0.2,0.9,-2.1,6.1,-8.8,-22.2,0.426953948,0.123722037,0.432111576,-0.78460036
46,119467,1453540,-0.577,-0.572,0.607,-0.2,0.8,-2,5.2,-9.1,-21.9,0.426923429,0.123722037,0.432111576,-0.784630879
47,121521,1453540,-0.577,-0.58,0.603,-0.2,0.7,-1.8,5.2,-9.1,-21.9,0.426892911,0.123722037,0.432172613,-0.784630879
48,124635,1453540,-0.581,-0.579,0.603,-0.3,0.6,-1.7,5.2,-9.1,-21.9,0.426831874,0.123691519,0.432172613,-0.784630879
49,126606,1453550,-0.577,-0.576,0.607,-0.3,0.4,-1.6,5.2,-9.1,-21.9,0.426801355,0.123691519,0.432203131,-0.784661397
50,128993,1453550,-0.577,-0.576,0.607,-0.3,0.4,-1.6,5.2,-9.1,-21.9,0.426801355,0.123691519,0.432203131,-0.784661397
51,132306,1453550,-0.577,-0.584,0.611,-0.6,0.1,-1.2,10.2,-9.7,-22.1,0.426831874,0.123783074,0.432203131,-0.784630879
52,134182,1453550,-0.577,-0.576,0.611,-0.7,0,-1,10.2,-9.7,-22.1,0.426801355,0.123752556,0.432203131,-0.784630879
53,136728,1453560,-0.577,-0.584,0.607,-0.8,0,-0.9,10.2,-9.7,-22.1,0.426801355,0.123752556,0.43223365,-0.784630879
54,139764,1453560,-0.577,-0.584,0.615,-0.7,-0.1,-0.7,7,-7.3,-22,0.426770837,0.123722037,0.43223365,-0.784630879
55,141686,1453560,-0.581,-0.583,0.611,-0.7,-0.2,-0.6,7,-7.3,-22,0.426770837,0.123691519,0.432264168,-0.784630879
56,144135,1453560,-0.577,-0.587,0.607,-0.7,-0.2,-0.4,7,-7.3,-22,0.426770837,0.123691519,0.432264168,-0.784630879
57,147289,1453570,-0.573,-0.588,0.611,-0.6,-0.3,-0.3,7,-7.3,-22,0.426770837,0.123630482,0.432264168,-0.784630879
58,149244,1453570,-0.577,-0.587,0.607,-0.3,-0.5,-0.2,7.6,-7.5,-22.1,0.426770837,0.123630482,0.432264168,-0.784630879
59,152290,1453570,-0.573,-0.588,0.615,-0.1,-0.6,-0.1,7.6,-7.5,-22.1,0.426770837,0.123630482,0.432264168,-0.784630879
60,154587,1453570,-0.573,-0.591,0.615,0,-0.7,0,7.6,-7.5,-22.1,0.426770837,0.123630482,0.432264168,-0.784630879
61,157678,1453580,-0.569,-0.595,0.611,0,-0.7,0.1,7.6,-7.5,-22.1,0.426801355,0.123630482,0.432264168,-0.784630879
62,159891,1453580,-0.569,-0.588,0.61,0,-0.7,0.3,8.2,-7.5,-22,0.426801355,0.123599963,0.432264168,-0.784630879
63,161718,1453580,-0.573,-0.588,0.615,0.1,-0.6,0.5,8.2,-7.5,-22,0.426831874,0.123599963,0.43223365,-0.784630879
64,163897,1453580,-0.573,-0.588,0.615,0.1,-0.5,0.6,8.2,-7.5,-22,0.426831874,0.123599963,0.43223365,-0.784630879
65,167389,1453590,-0.573,-0.584,0.611,0.2,-0.5,0.9,8.2,-7.5,-22,0.426862392,0.123599963,0.43223365,-0.784630879
66,169690,1453590,-0.573,-0.58,0.607,0.3,-0.6,1.1,9,-7.2,-22.1,0.426892911,0.123599963,0.432203131,-0.784630879
67,171904,1453590,-0.577,-0.576,0.615,0.4,-0.6,1.2,9,-7.2,-22.1,0.426892911,0.123630482,0.432203131,-0.784630879
68,174124,1453590,-0.577,-0.58,0.615,0.4,-0.7,1.4,9,-7.2,-22.1,0.426923429,0.123630482,0.432172613,-0.78460036
69,176892,1453600,-0.573,-0.572,0.611,0.5,-0.7,1.6,9,-7.2,-22.1,0.426984466,0.123630482,0.432111576,-0.78460036
70,179190,1453600,-0.573,-0.572,0.611,0.5,-0.7,1.6,9,-7.2,-22.1,0.426984466,0.123630482,0.432111576,-0.78460036
71,181554,1453600,-0.577,-0.572,0.615,0.5,-0.7,1.7,8.9,-9.9,-22.1,0.42710654,0.123722037,0.431989502,-0.78460036
72,185666,1453600,-0.573,-0.572,0.614,0.6,-0.7,1.8,8.9,-9.9,-22.1,0.427137059,0.123722037,0.431989502,-0.78460036
73,187795,1453610,-0.573,-0.572,0.611,0.6,-0.7,1.8,8.9,-9.9,-22.1,0.427167577,0.123722037,0.431958983,-0.784569842
74,189951,1453610,-0.573,-0.572,0.614,0.5,-0.7,1.9,8.6,-7.9,-22.3,0.427228614,0.123752556,0.431928465,-0.784569842
75,191617,1453610,-0.573,-0.568,0.614,0.4,-0.8,1.8,8.6,-7.9,-22.3,0.427259133,0.123752556,0.431897946,-0.784569842
76,194100,1453610,-0.577,-0.568,0.607,0.3,-0.9,1.7,8.6,-7.9,-22.3,0.427289651,0.123752556,0.431897946,-0.784539323
77,197484,1453620,-0.58,-0.564,0.607,0.3,-0.9,1.7,8.6,-7.9,-22.3,0.42732017,0.123752556,0.431867428,-0.784539323
78,199229,1453620,-0.577,-0.564,0.603,0.5,-1,1.7,8.9,-7.8,-22,0.427381207,0.123752556,0.431836909,-0.784539323
79,202627,1453620,-0.58,-0.56,0.607,0.6,-1.2,1.6,8.9,-7.8,-22,0.427411725,0.123752556,0.431836909,-0.784539323
80,205140,1453620,-0.58,-0.564,0.611,0.5,-1.3,1.6,8.9,-7.8,-22,0.427442244,0.123752556,0.431806391,-0.784508805
81,207362,1453630,-0.572,-0.56,0.614,0.5,-1.3,1.4,8.9,-7.8,-22,0.427472762,0.123752556,0.431775872,-0.784508805
82,209553,1453630,-0.573,-0.564,0.611,0.5,-1.5,1.4,9.1,-8.1,-22.3,0.427533799,0.123752556,0.431745354,-0.784508805
83,211798,1453630,-0.569,-0.56,0.61,0.7,-1.6,1.3,9.1,-8.1,-22.3,0.427564318,0.123722037,0.431714835,-0.784508805
84,214082,1453630,-0.565,-0.56,0.602,0.8,-1.6,1.2,9.1,-8.1,-22.3,0.427594836,0.123722037,0.431684317,-0.784508805
85,216890,1453640,-0.561,-0.568,0.602,1,-1.5,1.1,9.1,-8.1,-22.3,0.427625355,0.123722037,0.431653798,-0.784508805
86,218898,1453640,-0.561,-0.56,0.606,1.1,-1.6,0.9,9.2,-8.3,-22.2,0.427655873,0.123722037,0.431592761,-0.784508805
87,222125,1453640,-0.557,-0.564,0.61,1.3,-1.7,0.8,9.2,-8.3,-22.2,0.427686392,0.123691519,0.431562243,-0.784539323
88,224209,1453640,-0.565,-0.564,0.606,1.4,-1.6,0.6,9.2,-8.3,-22.2,0.42771691,0.123691519,0.431531724,-0.784539323
89,227090,1453650,-0.565,-0.56,0.61,1.5,-1.4,0.6,9.2,-8.3,-22.2,0.42771691,0.123691519,0.431470687,-0.784539323
90,229247,1453650,-0.565,-0.56,0.61,1.5,-1.4,0.6,9.2,-8.3,-22.2,0.42771691,0.123691519,0.431470687,-0.784539323
91,231477,1453650,-0.572,-0.556,0.603,1.5,-0.9,0.8,8.5,-8.1,-22.2,0.427808466,0.123722037,0.431257057,-0.78460036
92,233984,1453650,-0.565,-0.56,0.606,1.4,-0.7,0.9,8.5,-8.1,-22.2,0.427838984,0.123752556,0.431226539,-0.784630879
93,237011,1453660,-0.568,-0.556,0.606,1.4,-0.6,0.8,8.5,-8.1,-22.2,0.427869503,0.123752556,0.43119602,-0.784630879
94,239377,1453660,-0.568,-0.556,0.606,1.5,-0.6,0.8,9.1,-10.1,-21.8,0.427869503,0.123752556,0.431165502,-0.784630879
95,241536,1453660,-0.565,-0.56,0.614,1.6,-0.4,0.7,9.1,-10.1,-21.8,0.427900021,0.123783074,0.431134983,-0.784630879
96,244360,1453660,-0.569,-0.56,0.606,1.6,-0.3,0.7,9.1,-10.1,-21.8,0.427900021,0.123783074,0.431104465,-0.784661397
97,246370,1453670,-0.569,-0.564,0.61,1.5,-0.1,0.6,9.1,-10.1,-21.8,0.427900021,0.123813593,0.431073946,-0.784661397
98,249874,1453670,-0.569,-0.572,0.607,1.3,0,0.6,8.3,-11.4,-22.1,0.427900021,0.123813593,0.431043428,-0.784661397
99,251956,1453670,-0.569,-0.564,0.607,1.1,0.2,0.4,8.3,-11.4,-22.1,0.427900021,0.123844111,0.431012909,-0.784661397
100,253900,1453670,-0.569,-0.564,0.607,1,0.4,0.4,8.3,-11.4,-22.1,0.427900021,0.12387463,0.431012909,-0.784691916
101,256506,1453680,-0.569,-0.568,0.607,1.1,0.5,0.4,8.3,-11.4,-22.1,0.427900021,0.123905148,0.430982391,-0.784691916
102,259678,1453680,-0.565,-0.564,0.61,1.1,0.5,0.3,8.5,-11.2,-21.8,0.427900021,0.123905148,0.430982391,-0.784691916
103,261980,1453680,-0.569,-0.568,0.607,1.3,0.4,0.1,8.5,-11.2,-21.8,0.427900021,0.123935667,0.430951872,-0.784691916
104,264199,1453680,-0.565,-0.568,0.606,1.3,0.3,0,8.5,-11.2,-21.8,0.427900021,0.123966185,0.430951872,-0.784722434
105,266474,1453690,-0.565,-0.572,0.603,1.4,0.3,-0.1,8.5,-11.2,-21.8,0.427900021,0.123966185,0.430921354,-0.784722434
106,269088,1453690,-0.561,-0.568,0.606,1.6,0.3,-0.3,8.3,-11.5,-22.1,0.427869503,0.123996704,0.430890835,-0.784752953
107,271784,1453690,-0.565,-0.572,0.61,1.7,0.4,-0.4,8.3,-11.5,-22.1,0.427869503,0.124027223,0.430860317,-0.784752953
108,273917,1453690,-0.565,-0.572,0.606,1.8,0.5,-0.6,8.3,-11.5,-22.1,0.427838984,0.124027223,0.430829798,-0.784783471
109,277289,1453700,-0.561,-0.576,0.606,1.8,0.7,-0.6,8.3,-11.5,-22.1,0.427808466,0.124057741,0.430829798,-0.78481399
110,279412,1453700,-0.561,-0.576,0.606,1.8,0.7,-0.6,8.3,-11.5,-22.1,0.427808466,0.124057741,0.430829798,-0.78481399
111,281584,1453700,-0.561,-0.576,0.61,1.9,1,-0.8,8.8,-7,-20.6,0.427777947,0.12408826,0.430677206,-0.784905545
112,284347,1453700,-0.565,-0.576,0.61,1.9,1,-1,8.8,-7,-20.6,0.427747429,0.124118778,0.430677206,-0.784936064
113,288081,1453710,-0.561,-0.576,0.614,2,1,-0.9,8.8,-7,-20.6,0.42771691,0.124118778,0.430646687,-0.784966582
114,290301,1453710,-0.561,-0.572,0.61,1.9,1.2,-0.9,8.2,-9.4,-24.1,0.427686392,0.124179815,0.430616169,-0.784966582
115,292461,1453710,-0.565,-0.572,0.606,1.9,1.2,-0.9,8.2,-9.4,-24.1,0.427655873,0.124210334,0.430616169,-0.784997101
116,293967,1453710,-0.565,-0.576,0.614,1.8,1.3,-0.9,8.2,-9.4,-24.1,0.427594836,0.124240852,0.43058565,-0.785027619
117,296699,1453720,-0.565,-0.576,0.61,1.6,1.2,-0.9,8.2,-9.4,-24.1,0.427564318,0.124240852,0.43058565,-0.785058138
118,299016,1453720,-0.569,-0.576,0.614,1.6,1.2,-0.9,8.4,-8.6,-23.8,0.427533799,0.124271371,0.430555132,-0.785058138
119,302452,1453720,-0.569,-0.576,0.614,1.6,1.2,-0.7,8.4,-8.6,-23.8,0.427503281,0.124301889,0.430555132,-0.785088656
120,304529,1453720,-0.569,-0.572,0.614,1.7,1.2,-0.7,8.4,-8.6,-23.8,0.427472762,0.124332408,0.430524613,-0.785119175
121,306671,1453730,-0.569,-0.572,0.614,1.7,1.1,-0.6,8.4,-8.6,-23.8,0.427472762,0.124362926,0.430494095,-0.785119175
122,309068,1453730,-0.565,-0.576,0.61,1.6,1,-0.6,8.6,-7.5,-23.8,0.427442244,0.124393445,0.430494095,-0.785149693
123,312317,1453730,-0.565,-0.572,0.618,1.3,0.9,-0.7,8.6,-7.5,-23.8,0.427411725,0.124423963,0.430463576,-0.785149693
124,314186,1453730,-0.565,-0.572,0.614,1.2,0.7,-0.9,8.6,-7.5,-23.8,0.427381207,0.124423963,0.430463576,-0.785180212
125,316504,1453740,-0.565,-0.576,0.61,1.1,0.5,-0.9,8.6,-7.5,-23.8,0.427350688,0.124454482,0.430463576,-0.78521073
126,319219,1453740,-0.561,-0.576,0.61,1.1,0.3,-1,8.7,-7.2,-23.8,0.42732017,0.124454482,0.430433058,-0.78521073
127,322382,1453740,-0.561,-0.572,0.606,1.2,0.2,-0.9,8.7,-7.2,-23.8,0.42732017,0.124454482,0.430433058,-0.785241249
128,324660,1453740,-0.557,-0.572,0.606,1.3,0.1,-0.9,8.7,-7.2,-23.8,0.427289651,0.124454482,0.430402539,-0.785271767
129,326946,1453750,-0.561,-0.568,0.61,1.3,0,-0.9,8.7,-7.2,-23.8,0.427259133,0.124485,0.430372021,-0.785271767
130,329221,1453750,-0.561,-0.568,0.61,1.3,0,-0.9,8.7,-7.2,-23.8,0.427259133,0.124485,0.430372021,-0.785271767
131,331737,1453750,-0.565,-0.568,0.61,1.3,-0.1,-1,8.6,-9,-21.8,0.427228614,0.124393445,0.430249947,-0.785393841
132,334056,1453750,-0.565,-0.568,0.614,1.3,-0.1,-1,8.6,-9,-21.8,0.427228614,0.124393445,0.430219428,-0.785393841
133,337344,1453760,-0.565,-0.564,0.614,1.2,-0.1,-1,8.6,-9,-21.8,0.427198096,0.124393445,0.430219428,-0.78542436
134,339567,1453760,-0.561,-0.568,0.618,1.1,-0.1,-1,8.8,-8.3,-21.9,0.427167577,0.124393445,0.430158391,-0.785454878
135,341868,1453760,-0.561,-0.564,0.61,1,-0.1,-1.1,8.8,-8.3,-21.9,0.427167577,0.124393445,0.430158391,-0.785454878
136,345080,1453760,-0.557,-0.572,0.614,1.1,-0.3,-1.2,8.8,-8.3,-21.9,0.427137059,0.124393445,0.430158391,-0.785485397
137,346482,1453770,-0.553,-0.56,0.614,1.1,-0.4,-1.4,8.8,-8.3,-21.9,0.42710654,0.124393445,0.430127873,-0.785515915
138,349555,1453770,-0.557,-0.564,0.61,1.2,-0.4,-1.4,9.1,-8.7,-21.7,0.427076022,0.124362926,0.430097354,-0.785546434
139,351730,1453770,-0.557,-0.56,0.61,1.3,-0.3,-1.4,9.1,-8.7,-21.7,0.427076022,0.124362926,0.430097354,-0.785576952
140,354845,1453770,-0.553,-0.557,0.61,1.4,-0.1,-1.4,9.1,-8.7,-21.7,0.427045503,0.124362926,0.430066836,-0.785607471
141,356668,1453780,-0.553,-0.557,0.61,1.4,0,-1.4,9.1,-8.7,-21.7,0.427014985,0.124362926,0.430036317,-0.785637989
142,360483,1453780,-0.557,-0.556,0.614,1.3,0.1,-1.4,8.5,-8.6,-21.2,0.426984466,0.124362926,0.430036317,-0.785637989
143,362845,1453780,-0.557,-0.56,0.614,1.1,0.2,-1.4,8.5,-8.6,-21.2,0.426953948,0.124362926,0.430005799,-0.785668508
144,365679,1453780,-0.557,-0.56,0.61,1,0.4,-1.5,8.5,-8.6,-21.2,0.426923429,0.124362926,0.430005799,-0.785699026
145,366568,1453790,-0.561,-0.56,0.606,0.8,0.4,-1.5,8.5,-8.6,-21.2,0.426892911,0.124362926,0.430005799,-0.785729545
146,368992,1453790,-0.565,-0.564,0.606,0.7,0.3,-1.5,8.8,-8.4,-20.3,0.426862392,0.124362926,0.430005799,-0.785729545
147,372442,1453790,-0.565,-0.568,0.61,0.7,0.3,-1.4,8.8,-8.4,-20.3,0.426831874,0.124362926,0.42997528,-0.785760063
148,374493,1453790,-0.569,-0.564,0.603,0.7,0.4,-1.5,8.8,-8.4,-20.3,0.426801355,0.124362926,0.42997528,-0.785790582
149,376698,1453800,-0.569,-0.568,0.607,0.7,0.5,-1.4,8.8,-8.4,-20.3,0.426770837,0.124362926,0.42997528,-0.785790582
150,378996,1453800,-0.569,-0.568,0.607,0.7,0.5,-1.4,8.8,-8.4,-20.3,0.426770837,0.124362926,0.42997528,-0.785790582
151,381514,1453800,-0.572,-0.564,0.622,0.7,0.6,-1.5,8.9,-8.6,-24.1,0.426740318,0.124423963,0.429883724,-0.785851619
152,383876,1453800,-0.572,-0.564,0.618,0.7,0.5,-1.6,8.9,-8.6,-24.1,0.426709799,0.124423963,0.429883724,-0.785882138
153,386989,1453810,-0.573,-0.564,0.614,0.8,0.4,-1.7,8.9,-8.6,-24.1,0.426679281,0.124423963,0.429883724,-0.785882138
154,389127,1453810,-0.577,-0.572,0.615,0.9,0.3,-1.8,8.6,-8.7,-20.9,0.426648762,0.124423963,0.429853206,-0.785912656
155,391417,1453810,-0.573,-0.568,0.618,1.1,0.1,-2,8.6,-8.7,-20.9,0.426587725,0.124423963,0.429853206,-0.785943175
156,394668,1453810,-0.569,-0.564,0.618,1.4,-0.1,-2,8.6,-8.7,-20.9,0.426557207,0.124423963,0.429822687,-0.785973693
157,396748,1453820,-0.573,-0.568,0.614,1.6,-0.5,-2.1,8.6,-8.7,-20.9,0.426526688,0.124393445,0.429792169,-0.786004212
158,399019,1453820,-0.569,-0.568,0.614,1.7,-0.7,-2.2,8.7,-8.8,-20.7,0.42649617,0.124393445,0.42976165,-0.786065249
159,401655,1453820,-0.561,-0.568,0.618,1.8,-0.8,-2.3,8.7,-8.8,-20.7,0.426435133,0.124362926,0.429731132,-0.786095767
160,403865,1453820,-0.561,-0.572,0.614,2,-1,-2.3,8.7,-8.8,-20.7,0.426404614,0.124332408,0.429700613,-0.786126286
161,407172,1453830,-0.557,-0.572,0.614,2.2,-1.1,-2.5,8.7,-8.8,-20.7,0.426374096,0.124332408,0.429670095,-0.786187323
162,408886,1453830,-0.557,-0.572,0.61,2.5,-1.1,-2.6,9.1,-8.7,-20.9,0.426343577,0.124301889,0.429609058,-0.78624836
163,411455,1453830,-0.557,-0.572,0.614,2.7,-1.1,-2.8,9.1,-8.7,-20.9,0.426252022,0.124271371,0.429548021,-0.786309397
164,414526,1453830,-0.557,-0.568,0.614,3,-1.2,-2.9,9.1,-8.7,-20.9,0.426252022,0.124271371,0.429517502,-0.786339915
165,417490,1453840,-0.561,-0.568,0.606,3.2,-1.2,-3,9.1,-8.7,-20.9,0.426190985,0.124240852,0.429456465,-0.786400952
166,418929,1453840,-0.565,-0.56,0.614,3.4,-1.2,-3,8.2,-8.4,-21.8,0.426129948,0.124210334,0.429395428,-0.786492508
167,422077,1453840,-0.565,-0.568,0.61,3.5,-1.1,-2.9,8.2,-8.4,-21.8,0.426099429,0.124210334,0.429303873,-0.786553545
168,425446,1453840,-0.565,-0.568,0.614,3.7,-1,-2.7,8.2,-8.4,-21.8,0.426038392,0.124210334,0.429242836,-0.786614582
169,426805,1453850,-0.561,-0.564,0.614,3.9,-0.9,-2.3,8.2,-8.4,-21.8,0.426007874,0.124179815,0.429181799,-0.786675619
170,430034,1453850,-0.561,-0.564,0.614,3.9,-0.9,-2.3,8.2,-8.4,-21.8,0.426007874,0.124179815,0.429181799,-0.786675619
171,431590,1453850,-0.561,-0.568,0.61,4.1,-0.8,-2.2,8.8,-8.8,-23.2,0.425977355,0.124240852,0.428876614,-0.786828211
172,434565,1453850,-0.557,-0.564,0.614,4.1,-0.7,-2.3,8.8,-8.8,-23.2,0.425946837,0.124240852,0.428815577,-0.786889248
173,437379,1453860,-0.553,-0.564,0.618,4,-0.6,-2.4,8.8,-8.8,-23.2,0.4258858,0.124240852,0.42875454,-0.786950285
174,438964,1453860,-0.553,-0.564,0.61,3.9,-0.5,-2.5,8.8,-8.8,-22.4,0.425855281,0.124240852,0.428693503,-0.787011322
175,441463,1453860,-0.553,-0.564,0.61,3.9,-0.5,-2.5,8.8,-8.8,-22.4,0.425794244,0.124240852,0.428632466,-0.787072359
176,444872,1453860,-0.557,-0.564,0.61,4,-0.4,-2.6,8.8,-8.8,-22.4,0.425733207,0.124240852,0.42854091,-0.787133396
177,446384,1453870,-0.561,-0.56,0.606,4,-0.3,-2.7,8.8,-8.8,-22.4,0.42567217,0.124271371,0.428479873,-0.787194433
178,449082,1453870,-0.557,-0.564,0.61,3.9,-0.2,-2.7,8.7,-8.9,-22.9,0.425641652,0.124271371,0.428418836,-0.78725547
179,452797,1453870,-0.557,-0.56,0.614,3.6,0.1,-2.9,8.7,-8.9,-22.9,0.425580615,0.124271371,0.428357799,-0.787316507
180,455123,1453870,-0.561,-0.564,0.606,3.4,0.2,-3,8.7,-8.9,-22.9,0.425519578,0.124271371,0.42832728,-0.787377544
181,457752,1453880,-0.557,-0.572,0.614,3.3,0.4,-3.2,8.7,-8.9,-22.9,0.425428022,0.124301889,0.428266243,-0.787438581
182,459915,1453880,-0.549,-0.572,0.618,3.3,0.5,-3.3,8.6,-9.1,-23.3,0.425366985,0.124301889,0.428205206,-0.787499619
183,461399,1453880,-0.549,-0.568,0.614,3.6,0.8,-3.3,8.6,-9.1,-23.3,0.42527543,0.124332408,0.428205206,-0.787560656
184,465175,1453880,-0.549,-0.58,0.618,3.9,0.9,-3.2,8.6,-9.1,-23.3,0.425214393,0.124332408,0.428144169,-0.787652211
185,467532,1453890,-0.549,-0.576,0.61,4.1,1,-3.2,8.6,-9.1,-23.3,0.425122837,0.124362926,0.428083132,-0.787713248
186,469781,1453890,-0.553,-0.572,0.606,4.1,1.1,-3.2,8.4,-8.9,-22.9,0.4250618,0.124393445,0.428052614,-0.787774285
187,472121,1453890,-0.561,-0.572,0.606,3.9,1.3,-3.3,8.4,-8.9,-22.9,0.424970244,0.124423963,0.427991577,-0.787835322
188,474323,1453890,-0.565,-0.564,0.606,3.5,1.5,-3.5,8.4,-8.9,-22.9,0.424878689,0.124454482,0.427961058,-0.787896359
189,476382,1453900,-0.573,-0.564,0.607,3,1.8,-3.7,8.4,-8.9,-22.9,0.424787133,0.124485,0.42793054,-0.787957396
190,479465,1453900,-0.573,-0.564,0.607,3,1.8,-3.7,8.4,-8.9,-22.9,0.424787133,0.124485,0.42793054,-0.787957396
191,482595,1453900,-0.572,-0.56,0.611,2.6,2.7,-4.1,8.5,-8.7,-21.9,0.424634541,0.124576556,0.427869503,-0.78807947
192,484665,1453900,-0.561,-0.568,0.614,2.7,2.9,-4.2,8.5,-8.7,-21.9,0.424512467,0.124607074,0.427869503,-0.788140507
193,487745,1453910,-0.561,-0.572,0.618,2.9,2.9,-4.3,8.5,-8.7,-21.9,0.424390393,0.124668111,0.427838984,-0.788171026
194,489303,1453910,-0.553,-0.576,0.61,3.3,2.8,-4.4,8.9,-8.7,-21.9,0.424298837,0.12469863,0.427838984,-0.788262581
195,492124,1453910,-0.549,-0.576,0.618,3.5,2.8,-4.5,8.9,-8.7,-21.9,0.424176763,0.124729148,0.427808466,-0.788323618
196,493923,1453910,-0.549,-0.58,0.606,3.7,2.8,-4.6,8.9,-8.7,-21.9,0.424054689,0.124790185,0.427777947,-0.788384655
197,497467,1453920,-0.553,-0.58,0.606,3.8,2.9,-4.7,8.9,-8.7,-21.9,0.423932615,0.124820704,0.427747429,-0.788445692
198,498927,1453920,-0.553,-0.576,0.606,3.6,3.1,-4.8,8.9,-8.6,-21.5,0.423810541,0.124851222,0.427747429,-0.788537248
199,501825,1453920,-0.557,-0.58,0.61,3.4,3.3,-5,8.9,-8.6,-21.5,0.423688467,0.124912259,0.42771691,-0.788598285
200,504957,1453920,-0.565,-0.572,0.606,3.1,3.6,-5.2,8.9,-8.6,-21.5,0.423566393,0.124942778,0.42771691,-0.788659322
201,506435,1453930,-0.561,-0.572,0.606,3.1,3.9,-5.4,8.9,-8.6,-21.5,0.4234138,0.125003815,0.42771691,-0.788720359
202,509438,1453930,-0.561,-0.572,0.614,3,4.2,-5.4,9,-8.7,-21.9,0.423291726,0.125034333,0.42771691,-0.788811914
203,512449,1453930,-0.561,-0.568,0.61,3,4.4,-5.4,9,-8.7,-21.9,0.423139134,0.12509537,0.42771691,-0.788872951
204,514568,1453930,-0.557,-0.564,0.606,3,4.6,-5.4,9,-8.7,-21.9,0.422986541,0.125156407,0.42771691,-0.788933988
205,517476,1453940,-0.553,-0.572,0.602,3.1,4.6,-5.3,9,-8.7,-21.9,0.422833949,0.125217444,0.42771691,-0.788995025
206,519168,1453940,-0.553,-0.576,0.606,3.4,4.7,-5.4,9.2,-8.6,-21.8,0.422711875,0.125278481,0.42771691,-0.789056063
207,521623,1453940,-0.549,-0.58,0.606,3.8,4.8,-5.4,9.2,-8.6,-21.8,0.422559282,0.125339518,0.42771691,-0.789147618
208,525020,1453940,-0.545,-0.584,0.606,4.1,4.9,-5.3,9.2,-8.6,-21.8,0.42240669,0.125431074,0.42771691,-0.789208655
209,526610,1453950,-0.553,-0.584,0.618,4.1,5,-5.2,9.2,-8.6,-21.8,0.422254097,0.125492111,0.427686392,-0.789300211
210,529201,1453950,-0.553,-0.584,0.618,4.1,5,-5.2,9.2,-8.6,-21.8,0.422254097,0.125492111,0.427686392,-0.789300211
211,531545,1453950,-0.561,-0.58,0.602,3.3,5.5,-5,7,-9,-22,0.421887875,0.125431074,0.427686392,-0.789483322
212,535033,1453950,-0.561,-0.576,0.602,2.8,5.7,-5,7,-9,-22,0.421735282,0.125522629,0.42771691,-0.789544359
213,537153,1453960,-0.565,-0.568,0.606,2.5,5.8,-5.1,7,-9,-22,0.42158269,0.125583666,0.427747429,-0.789605396
214,539325,1453960,-0.565,-0.564,0.606,2.5,5.9,-5.2,10.9,-8.8,-22,0.421430097,0.125675222,0.427777947,-0.789666433
215,542528,1453960,-0.561,-0.564,0.606,2.7,6.1,-5.2,10.9,-8.8,-22,0.421277505,0.125766778,0.427777947,-0.78972747
216,544578,1453960,-0.561,-0.564,0.614,2.8,6.2,-5.2,10.9,-8.8,-22,0.421124912,0.125827815,0.427808466,-0.789788507
217,546501,1453970,-0.565,-0.564,0.606,2.6,6.3,-5.2,10.9,-8.8,-22,0.42097232,0.12591937,0.427838984,-0.789819025
218,550024,1453970,-0.561,-0.572,0.606,2.4,6.5,-5.3,10.9,-8.6,-21.8,0.420789209,0.126010926,0.427869503,-0.789880062
219,551513,1453970,-0.557,-0.572,0.598,2,6.6,-5.4,10.9,-8.6,-21.8,0.420636616,0.126102481,0.427900021,-0.789941099
220,553996,1453970,-0.553,-0.576,0.606,1.6,6.6,-5.4,10.9,-8.6,-21.8,0.420484024,0.126163518,0.427961058,-0.789971618
221,557289,1453980,-0.557,-0.58,0.602,1.3,6.6,-5.5,10.9,-8.6,-21.8,0.420331431,0.126255074,0.428022095,-0.790032655
222,559143,1453980,-0.561,-0.584,0.602,1.2,6.6,-5.8,11.1,-8.8,-22.1,0.42014832,0.126316111,0.428083132,-0.790032655
223,562557,1453980,-0.561,-0.584,0.599,1.3,6.8,-6.1,11.1,-8.8,-22.1,0.419965209,0.126407666,0.428113651,-0.79012421
224,563961,1453980,-0.565,-0.588,0.603,1.5,7.1,-6.5,11.1,-8.8,-22.1,0.419782098,0.126468703,0.428174688,-0.790185247
225,566991,1453990,-0.561,-0.584,0.595,1.9,7.3,-6.8,11.1,-8.8,-22.1,0.419598987,0.126560259,0.428205206,-0.790246284
226,569043,1453990,-0.569,-0.588,0.599,2.2,7.5,-7.1,10.9,-8.7,-21.6,0.419385357,0.126621296,0.428296762,-0.790307321
227,572249,1453990,-0.565,-0.588,0.603,2.4,7.5,-7.3,10.9,-8.7,-21.6,0.419202246,0.126712851,0.42832728,-0.790368358
228,574217,1453990,-0.573,-0.584,0.603,2.5,7.5,-7.4,10.9,-8.7,-21.6,0.418988617,0.126804407,0.428388318,-0.790429395
229,576441,1454000,-0.565,-0.588,0.603,2.5,7.6,-7.5,10.9,-8.7,-21.6,0.418774987,0.126895962,0.428418836,-0.790520951
230,580457,1454000,-0.565,-0.588,0.603,2.5,7.6,-7.5,10.9,-8.7,-21.6,0.418774987,0.126895962,0.428418836,-0.790520951
231,581988,1454000,-0.565,-0.576,0.61,2.8,7.8,-8.1,8.9,-8.7,-21.8,0.418317209,0.127048555,0.428601947,-0.790643025
232,584880,1454000,-0.565,-0.576,0.61,3,7.9,-8.4,8.9,-8.7,-21.8,0.418073061,0.12714011,0.428662984,-0.790734581
233,586658,1454010,-0.553,-0.572,0.614,3.1,7.9,-8.8,8.9,-8.7,-21.8,0.417828913,0.127231666,0.428693503,-0.790826136
234,589040,1454010,-0.553,-0.564,0.614,3.4,8,-9.2,9.1,-9.3,-22.1,0.417584765,0.127323222,0.428724021,-0.790917692
235,592403,1454010,-0.553,-0.568,0.618,3.6,7.9,-9.5,9.1,-9.3,-22.1,0.417340617,0.127384259,0.428785058,-0.791009247
236,594233,1454010,-0.553,-0.564,0.61,3.9,8,-9.8,9.1,-9.3,-22.1,0.417096469,0.127475814,0.428815577,-0.791100803
237,596441,1454020,-0.56,-0.556,0.614,4.1,8.1,-9.9,9.1,-9.3,-22.1,0.416821802,0.12756737,0.428846095,-0.791222877
238,599877,1454020,-0.557,-0.56,0.614,4.4,8.3,-9.8,8.4,-9,-21.9,0.416577654,0.127658925,0.428876614,-0.791314432
239,601697,1454020,-0.56,-0.556,0.618,4.5,8.5,-9.9,8.4,-9,-21.9,0.416302988,0.127750481,0.428876614,-0.791436506
240,604025,1454020,-0.557,-0.556,0.614,4.7,8.8,-10,8.4,-9,-21.9,0.416028321,0.127842036,0.428907132,-0.79155858
241,607593,1454030,-0.56,-0.552,0.606,4.8,8.9,-10.1,8.4,-9,-21.9,0.415753655,0.12796411,0.428937651,-0.791650136
242,609852,1454030,-0.56,-0.552,0.61,4.9,9,-10.2,7.3,-9,-22,0.415478988,0.128055666,0.428968169,-0.79177221
243,612114,1454030,-0.561,-0.556,0.606,5,9.1,-10.2,7.3,-9,-22,0.415204321,0.128147221,0.428998688,-0.791894284
244,614188,1454030,-0.56,-0.552,0.606,5,9.2,-10.3,7.3,-9,-22,0.414929655,0.128269295,0.429029206,-0.792016358
245,617275,1454040,-0.557,-0.556,0.602,5,9.2,-10.5,7.3,-9,-22,0.414654988,0.128391369,0.429059725,-0.792107913
246,619154,1454040,-0.557,-0.556,0.606,5.1,9.3,-10.7,7.1,-9.2,-22.1,0.414349803,0.128482925,0.429059725,-0.792229987
247,622622,1454040,-0.561,-0.556,0.61,5.2,9.4,-10.9,7.1,-9.2,-22.1,0.414075137,0.128604999,0.429090243,-0.792352062
248,625041,1454040,-0.557,-0.572,0.61,5.4,9.7,-11.2,7.1,-9.2,-22.1,0.413769951,0.128696554,0.429120762,-0.792474136
249,626983,1454050,-0.553,-0.568,0.61,5.5,9.8,-11.5,7.1,-9.2,-22.1,0.413464766,0.128818628,0.42915128,-0.792626728
250,630059,1454050,-0.553,-0.568,0.61,5.5,9.8,-11.5,7.1,-9.2,-22.1,0.413464766,0.128818628,0.42915128,-0.792626728
251,632368,1454050,-0.557,-0.568,0.614,5.8,10,-11.9,10.8,-9.7,-21.8,0.412884915,0.129062777,0.429059725,-0.792931913
252,633930,1454050,-0.569,-0.572,0.607,6,10.1,-12.2,10.8,-9.7,-21.8,0.412549211,0.129184851,0.429090243,-0.793053987
253,637592,1454060,-0.569,-0.568,0.61,6.4,10.2,-12.4,10.8,-9.7,-21.8,0.412213507,0.129306925,0.429090243,-0.79320658
254,639770,1454060,-0.573,-0.572,0.611,6.7,10.3,-12.7,7.3,-8.2,-21.7,0.411877804,0.129428999,0.429120762,-0.793359172
255,641573,1454060,-0.577,-0.568,0.607,7,10.4,-12.9,7.3,-8.2,-21.7,0.4115421,0.129551073,0.429120762,-0.793511765
256,645068,1454060,-0.577,-0.564,0.607,7.1,10.5,-13,7.3,-8.2,-21.7,0.411206397,0.129673147,0.429120762,-0.793664357
257,646447,1454070,-0.581,-0.564,0.599,7.3,10.4,-13.2,7.3,-8.2,-21.7,0.410870693,0.129795221,0.429120762,-0.79381695
258,649475,1454070,-0.58,-0.56,0.599,7.2,10.4,-13.3,8.1,-8.2,-21.5,0.410504471,0.129917295,0.42915128,-0.793939024
259,651499,1454070,-0.584,-0.564,0.607,7.2,10.4,-13.5,8.1,-8.2,-21.5,0.410168767,0.130039369,0.42915128,-0.794122135
260,655513,1454070,-0.573,-0.572,0.603,7.2,10.4,-13.7,8.1,-8.2,-21.5,0.409802545,0.130161443,0.42915128,-0.794305246
261,657140,1454080,-0.573,-0.572,0.603,7.3,10.4,-14,8.1,-8.2,-21.5,0.409436323,0.130283517,0.42915128,-0.794457839
262,659391,1454080,-0.573,-0.58,0.595,7.4,10.3,-14.4,8.6,-8,-21.5,0.409070101,0.130375072,0.42915128,-0.79464095
263,662517,1454080,-0.573,-0.591,0.607,7.6,10.4,-14.9,8.6,-8,-21.5,0.40867336,0.130497147,0.42915128,-0.794793542
264,663975,1454080,-0.573,-0.591,0.607,7.8,10.6,-15.4,8.6,-8,-21.5,0.408307138,0.130588702,0.429181799,-0.794976653
265,667713,1454090,-0.577,-0.591,0.611,8,10.6,-16,8.6,-8,-21.5,0.407910398,0.130710776,0.429181799,-0.795159764
266,670028,1454090,-0.585,-0.591,0.607,8.1,10.6,-16.6,10,-8.4,-21.7,0.407483139,0.130802332,0.429181799,-0.795373394
267,672530,1454090,-0.577,-0.595,0.611,8.2,10.7,-17.1,10,-8.4,-21.7,0.407055879,0.130893887,0.429181799,-0.795556505
268,674651,1454090,-0.581,-0.599,0.619,8.3,10.9,-17.4,10,-8.4,-21.7,0.40662862,0.131015961,0.429181799,-0.795770135
269,676636,1454100,-0.577,-0.595,0.619,8.5,11.2,-17.8,10,-8.4,-21.7,0.406201361,0.131076998,0.429181799,-0.795983764
270,679667,1454100,-0.577,-0.595,0.619,8.5,11.2,-17.8,10,-8.4,-21.7,0.406201361,0.131076998,0.429181799,-0.795983764
271,681535,1454100,-0.577,-0.587,0.634,9.1,11.6,-18.5,10.3,-10.2,-21.5,0.405285806,0.131382183,0.429181799,-0.796380505
272,683877,1454100,-0.581,-0.587,0.634,9.4,11.8,-18.8,10.3,-10.2,-21.5,0.404828028,0.131473739,0.429181799,-0.796594134
273,688068,1454110,-0.581,-0.587,0.638,9.7,12,-19.1,10.3,-10.2,-21.5,0.404339732,0.131595813,0.42915128,-0.796838282
274,690289,1454110,-0.577,-0.591,0.65,10,12.1,-19.3,10.3,-7.4,-21.3,0.403881954,0.131717887,0.42915128,-0.797051912
275,692462,1454110,-0.577,-0.576,0.642,10.5,12.3,-19.3,10.3,-7.4,-21.3,0.403393658,0.131839961,0.429120762,-0.79729606
276,694783,1454110,-0.576,-0.572,0.646,10.8,12.4,-19.2,10.3,-7.4,-21.3,0.402905362,0.131992553,0.429120762,-0.797540208
277,697021,1454120,-0.573,-0.576,0.642,11.2,12.5,-19,10.3,-7.4,-21.3,0.402417066,0.132114628,0.429090243,-0.797784356
278,699096,1454120,-0.564,-0.564,0.645,11.4,12.5,-18.8,10.2,-7.5,-21.4,0.401959288,0.13226722,0.429029206,-0.797997986
279,703314,1454120,-0.56,-0.564,0.641,11.4,12.5,-18.6,10.2,-7.5,-21.4,0.401470992,0.132419813,0.428998688,-0.798242134
280,703986,1454120,-0.56,-0.552,0.634,11.3,12.6,-18.5,10.2,-7.5,-21.4,0.400982696,0.132541887,0.428968169,-0.798486282
281,706551,1454130,-0.564,-0.556,0.634,11.2,12.7,-18.4,10.2,-7.5,-21.4,0.400524918,0.132694479,0.428937651,-0.798699911
282,710580,1454130,-0.564,-0.556,0.634,11.1,12.9,-18.3,10.5,-7.6,-21.2,0.400036622,0.132847072,0.428907132,-0.79894406
283,712760,1454130,-0.56,-0.56,0.63,11.1,13.1,-18.2,10.5,-7.6,-21.2,0.399578845,0.132999664,0.428876614,-0.799157689
284,715081,1454130,-0.561,-0.568,0.622,11,13.3,-18.1,10.5,-7.6,-21.2,0.399090548,0.133182775,0.428846095,-0.799371319
285,717281,1454140,-0.561,-0.572,0.63,11,13.6,-18,10.5,-7.6,-21.2,0.398632771,0.133335368,0.428846095,-0.799615467
286,719294,1454140,-0.557,-0.576,0.618,11,13.9,-17.8,10.8,-7.5,-21.3,0.398144475,0.133518479,0.428815577,-0.799829096
287,721784,1454140,-0.557,-0.58,0.618,11.2,14.2,-17.7,10.8,-7.5,-21.3,0.397686697,0.13370159,0.428785058,-0.800042726
288,723872,1454140,-0.553,-0.584,0.618,11.3,14.4,-17.7,10.8,-7.5,-21.3,0.397198401,0.133884701,0.428785058,-0.800256355
289,728112,1454150,-0.557,-0.588,0.614,11.4,14.7,-17.6,10.8,-7.5,-21.3,0.396710105,0.134067812,0.42875454,-0.800469985
290,730461,1454150,-0.557,-0.588,0.614,11.4,14.7,-17.6,10.8,-7.5,-21.3,0.396710105,0.134067812,0.42875454,-0.800469985
291,732366,1454150,-0.557,-0.576,0.606,11.8,15,-17.5,10.4,-8.3,-21.2,0.395794549,0.134464553,0.428601947,-0.800958281
292,733977,1454150,-0.557,-0.576,0.61,12.2,15.3,-17.4,10.4,-8.3,-21.2,0.395306253,0.134678182,0.428571429,-0.801171911
293,737000,1454160,-0.561,-0.564,0.602,12.6,15.5,-17.4,10.4,-8.3,-21.2,0.394817957,0.134891812,0.42854091,-0.80138554
294,739938,1454160,-0.565,-0.564,0.602,13.1,15.8,-17.4,10.2,-10.1,-21.1,0.394329661,0.135105441,0.428510392,-0.801629688
295,741345,1454160,-0.565,-0.56,0.591,13.3,16.1,-17.4,10.2,-10.1,-21.1,0.393810846,0.13534959,0.428449355,-0.801843318
296,745104,1454160,-0.569,-0.564,0.599,13.4,16.4,-17.3,10.2,-10.1,-21.1,0.39332255,0.135593738,0.428418836,-0.802056948
297,746796,1454170,-0.577,-0.564,0.587,13.6,16.6,-17.2,10.2,-10.1,-21.1,0.392834254,0.135837886,0.428357799,-0.802301096
298,748964,1454170,-0.581,-0.568,0.591,13.9,16.7,-17.1,11,-10.8,-21,0.392315439,0.136082034,0.42832728,-0.802514725
299,752048,1454170,-0.585,-0.568,0.587,14.3,16.9,-16.9,11,-10.8,-21,0.391827143,0.1363567,0.428266243,-0.802758873
300,755004,1454170,-0.581,-0.58,0.591,14.8,16.9,-16.8,11,-10.8,-21,0.391338847,0.136600848,0.428205206,-0.802972503
301,756628,1454180,-0.581,-0.583,0.595,15.3,17,-16.8,11,-10.8,-21,0.390820032,0.136875515,0.428113651,-0.803216651
302,759658,1454180,-0.581,-0.587,0.595,15.6,17,-17,11.3,-11.7,-21,0.390331736,0.137150182,0.428052614,-0.803460799
303,762496,1454180,-0.581,-0.591,0.591,15.7,17,-17.1,11.3,-11.7,-21,0.389812922,0.137424848,0.427961058,-0.803704947
304,764360,1454180,-0.581,-0.591,0.603,15.6,17.2,-17.3,11.3,-11.7,-21,0.389294107,0.137699515,0.427900021,-0.803949095
305,766486,1454190,-0.585,-0.591,0.599,15.3,17.6,-17.4,11.3,-11.7,-21,0.388775292,0.137974181,0.427838984,-0.804193243
306,769350,1454190,-0.585,-0.591,0.603,15.1,18.1,-17.5,11,-11.6,-21.2,0.388256478,0.138279366,0.427777947,-0.804406873
307,772295,1454190,-0.585,-0.595,0.603,15,18.4,-17.7,11,-11.6,-21.2,0.387737663,0.138554033,0.42771691,-0.804651021
308,774041,1454190,-0.585,-0.591,0.603,14.9,18.6,-18.1,11,-11.6,-21.2,0.38718833,0.1388287,0.427655873,-0.804895169
309,776471,1454200,-0.589,-0.595,0.611,15,18.7,-18.4,11,-11.6,-21.2,0.386669515,0.139133885,0.427625355,-0.805139317
310,778923,1454200,-0.589,-0.595,0.611,15,18.7,-18.4,11,-11.6,-21.2,0.386669515,0.139133885,0.427625355,-0.805139317
311,782070,1454200,-0.589,-0.583,0.611,15.2,18.9,-19.2,11.1,-7.2,-19.5,0.385570849,0.139805292,0.427533799,-0.805566576
312,783955,1454200,-0.597,-0.583,0.611,15.4,19,-19.5,11.1,-7.2,-19.5,0.384990997,0.140079958,0.427472762,-0.805841243
313,787215,1454210,-0.597,-0.579,0.611,15.6,19.1,-19.7,11.1,-7.2,-19.5,0.384441664,0.140385144,0.427411725,-0.806085391
314,788955,1454210,-0.597,-0.579,0.615,15.7,19.1,-19.8,11.2,-9.5,-22.7,0.383861812,0.14065981,0.427381207,-0.806329539
315,792161,1454210,-0.589,-0.579,0.619,16.1,19,-20,11.2,-9.5,-22.7,0.383281961,0.140934477,0.42732017,-0.806604205
316,794094,1454210,-0.589,-0.575,0.619,16.5,19,-20.2,11.2,-9.5,-22.7,0.382702109,0.141209143,0.427228614,-0.806848354
317,796708,1454220,-0.588,-0.567,0.627,16.9,19.1,-20.3,11.2,-9.5,-22.7,0.382091739,0.141514328,0.427167577,-0.80712302
318,800044,1454220,-0.584,-0.568,0.626,17.2,19.2,-20.3,11,-8.8,-22.7,0.381511887,0.141788995,0.427076022,-0.807397687
319,802363,1454220,-0.588,-0.564,0.627,17.4,19.3,-20.3,11,-8.8,-22.7,0.380901517,0.14209418,0.426984466,-0.807672353
320,804671,1454220,-0.592,-0.563,0.627,17.4,19.4,-20.4,11,-8.8,-22.7,0.380321665,0.142399365,0.426923429,-0.80794702
321,806612,1454230,-0.592,-0.56,0.619,17.6,19.6,-20.5,11,-8.8,-22.7,0.379711295,0.14270455,0.426831874,-0.808221686
322,809098,1454230,-0.592,-0.56,0.627,17.8,19.7,-20.5,11.1,-8.4,-22.6,0.379131443,0.143009735,0.426740318,-0.808496353
323,811801,1454230,-0.596,-0.563,0.619,18.1,20,-20.3,11.1,-8.4,-22.6,0.378521073,0.14331492,0.426648762,-0.80877102
324,813999,1454230,-0.6,-0.559,0.623,18.4,20,-20,11.1,-8.4,-22.6,0.377910703,0.143650624,0.426557207,-0.809045686
325,817248,1454240,-0.6,-0.555,0.611,18.5,20,-19.9,11.1,-8.4,-22.6,0.377330851,0.143955809,0.426465651,-0.809320353
326,819300,1454240,-0.604,-0.563,0.611,18.6,19.9,-19.8,11.7,-7.8,-22.2,0.376720481,0.144291513,0.426343577,-0.809564501
327,821804,1454240,-0.608,-0.551,0.604,18.6,19.7,-19.6,11.7,-7.8,-22.2,0.376140629,0.144596698,0.426252022,-0.809869686
328,824388,1454240,-0.604,-0.551,0.6,18.5,19.6,-19.4,11.7,-7.8,-22.2,0.375560778,0.144932402,0.426129948,-0.810144353
329,827185,1454250,-0.6,-0.544,0.599,18.4,19.5,-19.2,11.7,-7.8,-22.2,0.374980926,0.145237587,0.426038392,-0.810388501
330,829232,1454250,-0.6,-0.544,0.599,18.4,19.5,-19.2,11.7,-7.8,-22.2,0.374980926,0.145237587,0.426038392,-0.810388501
331,831466,1454250,-0.608,-0.528,0.588,18.1,19.2,-19.2,11.8,-9.2,-20.4,0.374065371,0.14639729,0.425641652,-0.81081576
332,835217,1454250,-0.612,-0.52,0.588,17.7,19,-19.1,11.8,-9.2,-20.4,0.373516037,0.146702475,0.425550096,-0.811059908
333,837681,1454260,-0.616,-0.52,0.584,17.5,18.9,-19.1,11.8,-9.2,-20.4,0.372936186,0.14700766,0.425458541,-0.811334574
334,839628,1454260,-0.623,-0.508,0.577,17.3,18.7,-19.1,12,-8.8,-20.4,0.372356334,0.147282327,0.425366985,-0.811578722
335,841840,1454260,-0.631,-0.508,0.577,17.3,18.6,-19,12,-8.8,-20.4,0.371807001,0.147587512,0.42527543,-0.811822871
336,844279,1454260,-0.631,-0.508,0.585,17.1,18.7,-18.9,12,-8.8,-20.4,0.371227149,0.147892697,0.425183874,-0.812097537
337,847335,1454270,-0.635,-0.508,0.581,16.9,18.7,-18.7,12,-8.8,-20.4,0.370677816,0.148167364,0.425092318,-0.812341685
338,849025,1454270,-0.643,-0.519,0.589,16.5,18.6,-18.7,12.1,-9.3,-20.3,0.370128483,0.148472549,0.425000763,-0.812585833
339,851506,1454270,-0.647,-0.527,0.593,16.1,18.4,-18.8,12.1,-9.3,-20.3,0.369548631,0.148747215,0.424939726,-0.812829981
340,855723,1454270,-0.648,-0.531,0.601,15.6,18.2,-19,12.1,-9.3,-20.3,0.368999298,0.149021882,0.42484817,-0.813074129
341,856588,1454280,-0.655,-0.535,0.62,15,18.1,-19.3,12.1,-9.3,-20.3,0.368449965,0.149296548,0.424817652,-0.813287759
342,858922,1454280,-0.663,-0.53,0.617,14.2,18.1,-19.7,12.2,-9.3,-19.8,0.367870113,0.149540696,0.424756615,-0.813531907
343,863239,1454280,-0.667,-0.53,0.617,13.2,18.3,-20.3,12.2,-9.3,-19.8,0.367290262,0.149784845,0.424726096,-0.813745537
344,864099,1454280,-0.679,-0.522,0.625,12.1,18.3,-20.7,12.2,-9.3,-19.8,0.36671041,0.150028993,0.424726096,-0.813959166
345,868022,1454290,-0.698,-0.498,0.637,11,18.3,-21.2,12.2,-9.3,-19.8,0.366130558,0.150242622,0.424756615,-0.814172796
346,870276,1454290,-0.71,-0.49,0.645,10,18.2,-21.5,12.1,-8.9,-19.4,0.365550707,0.150456252,0.424787133,-0.814386425
347,872552,1454290,-0.714,-0.474,0.645,9,18.1,-21.6,12.1,-8.9,-19.4,0.364970855,0.150608844,0.42484817,-0.814600055
348,874785,1454290,-0.722,-0.462,0.649,7.8,17.8,-21.8,12.1,-8.9,-19.4,0.364391003,0.150822474,0.424939726,-0.814783166
349,876956,1454300,-0.733,-0.442,0.661,6.5,17.4,-21.8,12.1,-8.9,-19.4,0.363811151,0.150975066,0.425031281,-0.814935759
350,879256,1454300,-0.733,-0.442,0.661,6.5,17.4,-21.8,12.1,-8.9,-19.4,0.363811151,0.150975066,0.425031281,-0.814935759
351,881529,1454300,-0.745,-0.426,0.669,3.1,16.5,-22.2,12.4,-9.1,-22.1,0.362956633,0.151676992,0.4250618,-0.815179907
352,884924,1454300,-0.745,-0.426,0.673,1.2,16.1,-22.4,12.4,-9.1,-22.1,0.3624073,0.151768548,0.425244911,-0.815301981
353,887143,1454310,-0.748,-0.41,0.689,-0.6,15.6,-22.7,12.4,-9.1,-22.1,0.361857967,0.151829585,0.425458541,-0.815424055
354,889434,1454310,-0.748,-0.407,0.701,-2.5,15.1,-23,12.9,-9.1,-19,0.361339152,0.151860103,0.425702689,-0.815546129
355,891567,1454310,-0.752,-0.399,0.712,-4.4,14.6,-23.5,12.9,-9.1,-19,0.360789819,0.151860103,0.425977355,-0.815637684
356,893969,1454310,-0.76,-0.379,0.72,-6.3,14.3,-24.1,12.9,-9.1,-19,0.360240486,0.151860103,0.426252022,-0.81572924
357,896542,1454320,-0.771,-0.371,0.729,-8.5,14,-24.5,12.9,-9.1,-19,0.359691153,0.151799066,0.426618244,-0.815790277
358,899822,1454320,-0.775,-0.355,0.736,-10.6,13.8,-24.8,12.7,-8.8,-18.6,0.359172338,0.151738029,0.426984466,-0.815851314
359,901621,1454320,-0.779,-0.339,0.74,-12.8,13.7,-24.8,12.7,-8.8,-18.6,0.358623005,0.151646474,0.427411725,-0.815881832
360,904780,1454320,-0.79,-0.315,0.752,-14.7,13.4,-24.8,12.7,-8.8,-18.6,0.35810419,0.151554918,0.427869503,-0.815881832
361,906422,1454330,-0.798,-0.299,0.752,-16.4,13,-24.7,12.7,-8.8,-18.6,0.357615894,0.151402326,0.42832728,-0.815881832
362,909968,1454330,-0.814,-0.287,0.749,-18,12.3,-24.5,13,-9.1,-19,0.357127598,0.151280251,0.428846095,-0.815851314
363,911452,1454330,-0.817,-0.271,0.745,-19.8,11.5,-24.4,13,-9.1,-19,0.356639302,0.15109714,0.42936491,-0.815820795
364,914579,1454330,-0.853,-0.231,0.715,-21.9,10.5,-24.1,13,-9.1,-19,0.356181524,0.150883511,0.429914243,-0.815759758
365,916722,1454340,-0.868,-0.215,0.703,-24.1,9.4,-23.8,13,-9.1,-19,0.355754265,0.150608844,0.430494095,-0.815698721
366,919028,1454340,-0.88,-0.203,0.688,-26.4,8.2,-23.3,12.9,-8.9,-19.7,0.355357524,0.150364696,0.431104465,-0.815607166
367,921690,1454340,-0.9,-0.191,0.673,-28.5,7,-22.6,12.9,-8.9,-19.7,0.354960784,0.150059511,0.431745354,-0.815485092
368,925061,1454340,-0.939,-0.166,0.662,-30.4,5.5,-21.7,12.9,-8.9,-19.7,0.35462508,0.149693289,0.432386242,-0.815363018
369,927102,1454350,-0.959,-0.15,0.655,-32,3.9,-20.7,12.9,-8.9,-19.7,0.354319895,0.149327067,0.433057649,-0.815210425
370,929452,1454350,-0.995,-0.138,0.648,-33.3,2.2,-19.3,13.2,-8.8,-21.7,0.354075747,0.148930326,0.433729057,-0.815027314
371,931561,1454350,-1.006,-0.129,0.648,-34.6,0.6,-17.6,13.2,-8.8,-21.7,0.353862117,0.148503067,0.434430982,-0.814844203
372,934231,1454350,-1.018,-0.117,0.652,-36.1,-1,-15.8,13.2,-8.8,-21.7,0.353709525,0.148045289,0.43510239,-0.814630573
373,936488,1454360,-1.038,-0.105,0.657,-37.9,-2.9,-13.9,13.2,-8.8,-21.7,0.353617969,0.147587512,0.435804315,-0.814386425
374,939962,1454360,-1.049,-0.101,0.669,-40.1,-4.9,-12.2,13.6,-8.5,-20.7,0.353556932,0.147068697,0.436506241,-0.814111759
375,941458,1454360,-1.073,-0.093,0.697,-42.6,-6.8,-10.5,13.6,-8.5,-20.7,0.353587451,0.146519364,0.437269204,-0.813806574
376,944130,1454360,-1.077,-0.092,0.72,-44.8,-8.6,-9.1,13.6,-8.5,-20.7,0.353648488,0.145939512,0.437971129,-0.81347087
377,946601,1454370,-1.096,-0.084,0.748,-46.7,-10.2,-7.8,13.6,-8.5,-20.7,0.353740043,0.145298624,0.438795129,-0.813104648
378,949764,1454370,-1.104,-0.072,0.776,-47.9,-11.6,-6.3,12.9,-8.4,-21.5,0.353892636,0.144688253,0.439558092,-0.812738426
379,951561,1454370,-1.127,-0.048,0.835,-48.3,-12.9,-4.7,12.9,-8.4,-21.5,0.354106265,0.144016846,0.440351573,-0.812341685
380,953977,1454370,-1.139,-0.04,0.87,-47.7,-14.1,-3,12.9,-8.4,-21.5,0.354319895,0.143375958,0.441084017,-0.811975463
381,957324,1454380,-1.142,-0.024,0.89,-46.1,-15.3,-1.5,12.9,-8.4,-21.5,0.354594562,0.142735069,0.441785943,-0.811578722
382,959608,1454380,-1.158,-0.012,0.937,-43.6,-16.4,0,13.3,-7.9,-21.4,0.354899747,0.14209418,0.442426832,-0.8112125
383,961791,1454380,-1.169,0,0.953,-40.4,-17.7,1.7,13.3,-7.9,-21.4,0.355204932,0.14148381,0.443006684,-0.810846278
384,964026,1454380,-1.165,0.007,0.968,-36.6,-19.2,3.4,13.3,-7.9,-21.4,0.355571154,0.140903958,0.44349498,-0.810541093
385,966572,1454390,-1.173,0.023,0.972,-32.3,-20.8,5.2,13.3,-7.9,-21.4,0.355937376,0.140324107,0.44389172,-0.810235908
386,969004,1454390,-1.188,0.051,0.992,-27.6,-22.4,7.1,13.1,-8.1,-21.8,0.356395154,0.139805292,0.444196905,-0.80999176
387,973095,1454390,-1.196,0.075,1,-22.9,-23.9,9.1,13.1,-8.1,-21.8,0.356852931,0.139286477,0.444380016,-0.80977813
388,975750,1454390,-1.207,0.099,0.997,-18.4,-25.4,11.1,13.1,-8.1,-21.8,0.357371746,0.138798181,0.444471572,-0.809564501
389,976414,1454400,-1.215,0.118,1.001,-14.1,-26.5,12.8,13.1,-8.1,-21.8,0.357890561,0.138340403,0.444471572,-0.809411908
390,980032,1454400,-1.238,0.166,1.005,-10.5,-27.6,14.5,12.5,-8,-20.8,0.358439894,0.137913144,0.444410535,-0.809289834
391,981670,1454400,-1.249,0.198,1.005,-7.3,-28.6,16.2,12.5,-8,-20.8,0.359019745,0.137516404,0.444257942,-0.80916776
392,984627,1454400,-1.257,0.229,1.001,-4.8,-29.4,18,12.5,-8,-20.8,0.359660634,0.137119663,0.444044313,-0.809076205
393,987534,1454410,-1.268,0.253,0.998,-2.9,-30.1,19.9,12.5,-8,-20.8,0.360301523,0.136753441,0.443800165,-0.808984649
394,989051,1454410,-1.296,0.305,0.991,-1.3,-30.9,21.9,12.9,-8.1,-20.7,0.361003449,0.136417737,0.443525498,-0.808893094
395,992119,1454410,-1.307,0.321,0.995,-0.2,-31.9,24.1,12.9,-8.1,-20.7,0.361735893,0.136082034,0.443220313,-0.808801538
396,993845,1454410,-1.327,0.341,0.983,0.2,-33.1,26.3,12.9,-8.1,-20.7,0.362529374,0.13574633,0.442854091,-0.808679464
397,997185,1454420,-1.378,0.366,0.973,0.1,-34.5,28.6,12.9,-8.1,-20.7,0.363353374,0.135410627,0.442518387,-0.80855739
398,999283,1454420,-1.394,0.39,0.962,-0.8,-35.9,30.6,12.7,-8,-20.8,0.364238411,0.135074923,0.442152165,-0.808404798
399,1003122,1454420,-1.41,0.39,0.958,-2.3,-37.3,32.2,12.7,-8,-20.8,0.365184484,0.134708701,0.441785943,-0.808252205
400,1005335,1454420,-1.425,0.398,0.959,-4.2,-38.6,33.6,12.7,-8,-20.8,0.366161077,0.13431196,0.44145024,-0.808038575
401,1007609,1454430,-1.425,0.398,0.959,-4.2,-38.6,33.6,12.7,-8,-20.8,0.366161077,0.13431196,0.44145024,-0.808038575
402,1009091,1454430,-1.469,0.403,0.968,-8.1,-41.2,36.3,12.6,-8.2,-20.9,0.368236335,0.133457442,0.440839869,-0.807580798
403,1011704,1454430,-1.477,0.396,0.972,-9.6,-42.6,37.8,12.6,-8.2,-20.9,0.369335002,0.132999664,0.440565203,-0.807306131
404,1013885,1454430,-1.485,0.38,0.972,-10.6,-44.1,39.4,12.6,-8.2,-20.9,0.370494705,0.132511368,0.440290536,-0.807000946
405,1017317,1454440,-1.49,0.333,0.945,-11.3,-45.9,40.8,12.6,-8.2,-20.9,0.371684927,0.131992553,0.439985351,-0.806695761
406,1020493,1454440,-1.494,0.306,0.929,-12,-47.9,42.1,12,-8.3,-20.9,0.372905667,0.131473739,0.439710685,-0.806390576
407,1022718,1454440,-1.503,0.282,0.898,-12.6,-50.1,43.1,12,-8.3,-20.9,0.374187445,0.130893887,0.439405499,-0.806054872
408,1025059,1454440,-1.503,0.282,0.898,-12.6,-50.1,43.1,12,-8.3,-20.9,0.374187445,0.130893887,0.439405499,-0.806054872
409,1026521,1454450,-1.544,0.224,0.81,-14,-54.2,44.3,12,-8.3,-20.9,0.376842555,0.129642628,0.438764611,-0.805383465
410,1029054,1454450,-1.564,0.22,0.779,-14.8,-55.9,44.2,9.5,-8.6,-21.1,0.378185369,0.128971221,0.438428907,-0.805017243
411,1031444,1454450,-1.568,0.228,0.756,-15.3,-57.4,43.6,9.5,-8.6,-21.1,0.379558702,0.128238777,0.438093204,-0.804681539
412,1034795,1454450,-1.576,0.217,0.725,-15.6,-59,42.2,9.5,-8.6,-21.1,0.380901517,0.127475814,0.4377575,-0.804345836
413,1036965,1454460,-1.572,0.209,0.705,-15,-60.6,40.4,9.5,-8.6,-21.1,0.382244331,0.126682333,0.437421796,-0.804040651
414,1038996,1454460,-1.573,0.189,0.678,-13,-62.3,38.5,12.8,-8.6,-21.3,0.383556627,0.125827815,0.437025056,-0.803765984
415,1042008,1454460,-1.588,0.221,0.659,-9.4,-63.8,37.2,12.8,-8.6,-21.3,0.384838404,0.125003815,0.43653676,-0.803521836
416,1043940,1454460,-1.597,0.221,0.628,-5.1,-65.3,36.2,12.8,-8.6,-21.3,0.386120182,0.124118778,0.435987426,-0.803338725
417,1047372,1454470,-1.612,0.253,0.616,-0.7,-66.8,35.7,12.8,-8.6,-21.3,0.387371441,0.123325297,0.435346538,-0.803216651
418,1049092,1454470,-1.62,0.273,0.605,3,-68.1,34.9,12.4,-8.5,-21.5,0.3886227,0.122470779,0.434614093,-0.803125095
419,1051398,1454470,-1.62,0.277,0.593,5.6,-69.2,33.3,12.4,-8.5,-21.5,0.38984344,0.12161626,0.433820612,-0.803094577
420,1054863,1454470,-1.631,0.324,0.581,7,-70.2,30.6,12.4,-8.5,-21.5,0.391033662,0.120761742,0.433027131,-0.803094577
421,1056620,1454480,-1.642,0.348,0.578,7.7,-71.4,27,12.4,-8.5,-21.5,0.392162847,0.119815668,0.432203131,-0.803125095
422,1058871,1454480,-1.646,0.371,0.57,8,-73,23.1,11.7,-8.8,-20.9,0.393230995,0.118839076,0.431379131,-0.803186132
423,1061711,1454480,-1.653,0.415,0.578,7.9,-74.9,19.5,11.7,-8.8,-20.9,0.394268624,0.117770928,0.430555132,-0.803277688
424,1064608,1454480,-1.645,0.438,0.582,7.3,-76.8,16.4,11.7,-8.8,-20.9,0.395245216,0.116641743,0.429731132,-0.803399762
425,1067706,1454490,-1.641,0.462,0.581,6.4,-78.3,13.9,11.7,-8.8,-20.9,0.396221809,0.115451521,0.428907132,-0.803552355
426,1069971,1454490,-1.632,0.481,0.589,5.4,-79.5,12.4,11.6,-8.6,-21.1,0.397167882,0.114230781,0.428083132,-0.803674429
427,1071434,1454490,-1.644,0.478,0.601,4.5,-80.1,12.6,11.6,-8.6,-21.1,0.398113956,0.112979522,0.427259133,-0.803827021
428,1074007,1454490,-1.669,0.439,0.61,3.7,-80.2,15,11.6,-8.6,-21.1,0.399121067,0.111728263,0.426465651,-0.803918577
429,1077372,1454500,-1.685,0.42,0.61,3.2,-79.4,19.4,11.6,-8.6,-21.1,0.400189215,0.110538041,0.42567217,-0.803979614
430,1078915,1454500,-1.721,0.369,0.599,2.7,-78.4,23.7,8.8,-9.2,-21,0.4013184,0.109408856,0.424878689,-0.803979614
431,1081996,1454500,-1.738,0.334,0.596,2.1,-77.7,26.3,8.8,-9.2,-21,0.402508621,0.10831019,0.424085208,-0.803949095
432,1084859,1454500,-1.751,0.283,0.589,1.6,-77.6,26.2,8.8,-9.2,-21,0.403668325,0.107211524,0.423322245,-0.803918577
433,1086537,1454510,-1.794,0.32,0.574,1.2,-78,24.1,8.8,-9.2,-21,0.404828028,0.10605182,0.422559282,-0.803888058
434,1090051,1454510,-1.853,0.294,0.627,1.2,-78.5,20.9,8.8,-9.2,-21,0.405926695,0.104892117,0.421796319,-0.803918577
435,1091543,1454510,-1.796,0.206,0.567,0.8,-79.3,17.6,8.8,-9.2,-21,0.406933805,0.103671377,0.421033357,-0.803949095
436,1094713,1454510,-1.839,0.172,0.619,1.7,-80,13.5,8.8,-9.2,-21,0.407910398,0.102420118,0.420270394,-0.804010132
437,1096377,1454520,-1.82,0.12,0.657,4.7,-80.2,8.9,8.8,-9.2,-21,0.408795434,0.10113834,0.419446394,-0.804162725
438,1099955,1454520,-1.801,0.049,0.657,10.4,-79.7,3.9,8.8,-9.2,-21,0.409558397,0.099856563,0.418530839,-0.804406873
439,1101454,1454520,-1.778,0.001,0.668,17.7,-78.7,-0.6,8.8,-9.2,-21,0.410229804,0.0986358226,0.417523728,-0.804742576
440,1104634,1454520,-1.767,-0.041,0.657,25.8,-77.9,-5.3,8.8,-9.2,-21,0.410809656,0.0974456008,0.416394543,-0.805169836
441,1106366,1454530,-1.756,-0.073,0.649,34.7,-77.1,-9.9,8.8,-9.2,-21,0.411267434,0.0962858974,0.415112766,-0.805749687
442,1109190,1454530,-1.745,-0.132,0.609,44,-76.2,-14.6,8.8,-9.2,-21,0.411603137,0.0952482681,0.413678396,-0.806451613
443,1112054,1454530,-1.73,-0.164,0.578,53.4,-75,-19.5,8.8,-9.2,-21,0.411816767,0.0942106388,0.412091433,-0.807245094
444,1114950,1454530,-1.722,-0.18,0.542,63,-73.7,-25,8.8,-9.2,-21,0.411908322,0.093264565,0.410382397,-0.808191168
445,1116606,1454540,-1.715,-0.192,0.499,73,-72.3,-31,8.8,-9.2,-21,0.411847285,0.0923490097,0.408490249,-0.809259316
446,1119195,1454540,-1.695,-0.165,0.385,83.5,-71.1,-37.8,8.8,-9.2,-21,0.411664174,0.0915250099,0.406476028,-0.810480056
447,1121389,1454540,-1.679,-0.138,0.326,94.2,-70.5,-45.2,8.8,-9.2,-21,0.411297952,0.0907315287,0.404248177,-0.811883908
448,1124764,1454540,-1.659,-0.099,0.248,104.9,-70.5,-52.9,8.8,-9.2,-21,0.410748619,0.0899380474,0.401867733,-0.813409833
449,1126623,1454550,-1.631,-0.069,0.212,115.3,-71.4,-60.9,8.8,-9.2,-21,0.410077212,0.0891750847,0.399304178,-0.81511887
450,1128877,1454550,-1.575,0.015,0.116,126.1,-72.8,-68.5,8,-10.8,-20.9,0.409253212,0.088412122,0.396526994,-0.81694998
451,1132436,1454550,-1.534,0.054,0.103,137.8,-74.3,-75.6,8,-10.8,-20.9,0.40827662,0.0876491592,0.39353618,-0.818964202
452,1134020,1454550,-1.502,0.092,0.094,150.2,-75.5,-82.1,8,-10.8,-20.9,0.407147435,0.0869472335,0.390362255,-0.821131016
453,1137528,1454560,-1.422,0.15,0.158,162.5,-76.2,-88,8,-10.8,-20.9,0.405926695,0.0862758263,0.386913663,-0.823419904
454,1139090,1454560,-1.393,0.176,0.22,173.5,-76.2,-93.6,8,-10.8,-20.9,0.404553362,0.0856349376,0.383281961,-0.825861385
455,1141522,1454560,-1.361,0.199,0.27,182.4,-75.5,-99.6,8,-10.8,-20.9,0.403027436,0.0850550859,0.379528184,-0.828394421
456,1144105,1454560,-1.324,0.218,0.351,188.6,-74.2,-106.5,8,-10.8,-20.9,0.401379437,0.0845057527,0.375652333,-0.831019013
457,1147170,1454570,-1.267,0.249,0.474,192,-72.8,-114.3,8,-10.8,-20.9,0.399548326,0.0839259011,0.371745964,-0.833704642
458,1148883,1454570,-1.231,0.256,0.54,192.9,-71.6,-123.1,8,-10.8,-20.9,0.397534104,0.0832850124,0.367839595,-0.836481826
459,1152419,1454570,-1.199,0.263,0.594,192.1,-70.8,-132.5,8,-10.8,-20.9,0.395306253,0.0826136052,0.363933226,-0.839289529
460,1153965,1454570,-1.147,0.266,0.651,190.3,-70.3,-141.9,8,-10.8,-20.9,0.39292581,0.0818201239,0.360118412,-0.84212775
461,1156962,1454580,-1.051,0.26,0.765,188.4,-69.9,-151.1,8,-10.8,-20.9,0.390362255,0.0809656056,0.356303598,-0.845027009
462,1159915,1454580,-0.992,0.259,0.818,186.7,-69.4,-159.6,8,-10.8,-20.9,0.387615589,0.0800500504,0.352549821,-0.847926267
463,1161457,1454580,-0.932,0.253,0.883,185.2,-68.6,-167.6,8,-10.8,-20.9,0.38471633,0.0790429395,0.348826563,-0.850886563
464,1164425,1454580,-0.824,0.263,0.998,183.1,-67.5,-175.3,8,-10.8,-20.9,0.38166448,0.0780053102,0.345164342,-0.853846858
465,1167535,1454590,-0.76,0.257,1.047,179.5,-66.2,-182.8,8,-10.8,-20.9,0.378429518,0.0768761254,0.341563158,-0.856837672
466,1169030,1454590,-0.716,0.257,1.081,173.8,-64.8,-190.6,8,-10.8,-20.9,0.375041963,0.0756859035,0.338114566,-0.859797967
467,1171560,1454590,-0.68,0.248,1.127,165.8,-63.5,-199.1,8,-10.8,-20.9,0.371501816,0.0743736076,0.334788049,-0.862727744
468,1174990,1454590,-0.621,0.219,1.215,156,-62.4,-208.1,8,-10.8,-20.9,0.367778558,0.0729392376,0.331675161,-0.865657521
469,1176574,1454600,-0.597,0.199,1.249,145,-61.4,-217.2,8,-10.8,-20.9,0.363902707,0.0713827937,0.328775903,-0.868526261
470,1179663,1454600,-0.578,0.159,1.245,133.1,-60.2,-226,8,-11.9,-18.2,0.359813227,0.0696737571,0.326120792,-0.871364483
471,1181385,1454600,-0.535,0.127,1.256,120.1,-58.3,-234.6,8,-11.9,-18.2,0.355601672,0.0678121281,0.323740349,-0.874111148
472,1185022,1454600,-0.441,-0.016,1.414,105.3,-54.8,-242.9,8,-11.9,-18.2,0.351176489,0.065889462,0.32166509,-0.876827296
473,1187307,1454610,-0.386,-0.037,1.373,89.7,-50.9,-251.3,8,-11.9,-18.2,0.346598712,0.0638142033,0.319925535,-0.879421369
474,1189604,1454610,-0.331,-0.065,1.337,75,-48.5,-260.9,8.9,-12.1,-18,0.341807306,0.0616473891,0.318460646,-0.881984924
475,1191875,1454610,-0.264,-0.067,1.269,62.1,-48.6,-272.9,8.9,-12.1,-18,0.336802271,0.0592669454,0.317270425,-0.884487442
476,1194083,1454610,-0.141,-0.003,1.054,50.2,-50.2,-288.2,8.9,-12.1,-18,0.331522568,0.0566728721,0.316293832,-0.887020478
477,1198218,1454620,-0.057,0.072,0.896,38.5,-52,-306,8.9,-12.1,-18,0.325907163,0.0538346507,0.315530869,-0.889522996
478,1200693,1454620,0.049,0.16,0.713,27.2,-54.4,-326,10,-11.6,-18,0.319925535,0.0507217627,0.315012055,-0.89208655
479,1201484,1454620,0.283,0.28,0.312,18.6,-57.9,-346.7,10,-11.6,-18,0.313547166,0.0473342082,0.314615314,-0.894680624
480,1204238,1454620,0.465,0.287,0.166,15.2,-63,-366.7,10,-11.6,-18,0.306772057,0.0437025056,0.314249092,-0.897305216
481,1207472,1454630,0.659,0.267,0.044,20.4,-69.5,-383.9,10,-11.6,-18,0.299722282,0.0398266549,0.313730277,-0.900051881
482,1209692,1454630,0.86,0.187,-0.015,36.1,-76.6,-397.4,11,-11.6,-17.9,0.292397839,0.0358592486,0.312845241,-0.90295114
483,1211867,1454630,1.313,-0.058,0.023,61.5,-83.9,-406.5,11,-11.6,-17.9,0.284890286,0.0317697684,0.311410871,-0.905972472
484,1214091,1454630,1.56,-0.272,0.131,93,-90.2,-411.5,11,-11.6,-17.9,0.277291177,0.0278023621,0.309274575,-0.909176916
485,1216467,1454640,1.713,-0.699,0.343,124.9,-94.4,-411.6,11,-11.6,-17.9,0.269692068,0.0238959929,0.306466872,-0.912533952
486,1220098,1454640,1.917,-0.998,0.623,152.9,-95.5,-409.5,11,-11.6,-17.9,0.262062441,0.0201422163,0.303079318,-0.915982543
487,1222281,1454640,2.453,-1.305,0.825,176.4,-93.8,-411.8,11,-11.6,-17.9,0.254371776,0.0165715506,0.299172948,-0.919492172
488,1224579,1454640,2.224,-2.006,-1.287,196,-90.5,-425.8,11,-11.6,-17.9,0.24631489,0.0130619221,0.294869839,-0.923123875
489,1226864,1454650,2.53,-3.526,-3.521,218.6,-93.9,-452.9,11,-11.6,-17.9,0.237739189,0.00943021943,0.290078433,-0.926938688
490,1229167,1454650,5.358,-8.219,-5.454,282.6,-122.1,-476.4,13.3,-14.1,-16.8,0.228797266,0.00543229469,0.28379162,-0.931150243
491,1232516,1454650,7.958,-8.256,-3.121,466.9,-187.5,-458.9,13.3,-14.1,-16.8,0.220557268,0.00109866634,0.273384808,-0.936246834
492,1234774,1454650,7.944,-8.279,-5.585,774.9,-293.7,-362,13.3,-14.1,-16.8,0.214850307,-0.00329599902,0.256111332,-0.942442091
493,1237011,1454660,7.95,-8.275,-3.086,940.7,-421.4,-183,13.3,-14.1,-16.8,0.213446455,-0.00857570116,0.234717856,-0.948271126
494,1239277,1454660,8.147,1.43,4.336,753.2,-456.4,24.6,12,-15.8,-17.4,0.216406751,-0.014374218,0.216956084,-0.951750237
495,1241565,1454660,8.173,3.511,3.31,250.3,-319.3,123.3,12,-15.8,-17.4,0.220557268,-0.0192571795,0.210303049,-0.952208014
496,1244537,1454660,6.558,3.634,3.153,-217.5,-50.2,12.7,12,-15.8,-17.4,0.22092349,-0.0212408826,0.21457564,-0.951139866
497,1246807,1454670,4.034,6.107,1.467,-454.1,199.4,-303.9,12,-15.8,-17.4,0.213476974,-0.0207525864,0.224799341,-0.950468459
498,1249365,1454670,0.09,8.006,5.083,-469.4,361.9,-643.3,15.2,-14.6,-16.8,0.198126164,-0.0185552538,0.23587756,-0.951170385
499,1252746,1454670,-0.308,8.017,3.382,-370.2,450.1,-765.2,15.2,-14.6,-16.8,0.179723502,-0.0147709586,0.245155187,-0.952543718
500,1255145,1454670,-1.127,8.032,0.834,-253.9,470.4,-590.5,15.2,-14.6,-16.8,0.16483047,-0.00915555284,0.25205237,-0.95352031
501,1257294,1454680,-2.596,8.064,0.03,-180.6,404.5,-218.6,15.2,-14.6,-16.8,0.157994324,-0.00259407331,0.257209998,-0.953337199
502,1259616,1454680,-4.423,6.634,-1.291,-169.2,285.6,136.3,14.5,-14.6,-16.9,0.159215064,0.00350962859,0.261696219,-0.951902829
503,1261448,1454680,-4.045,5.168,-0.688,-185.5,174.5,352.6,14.5,-14.6,-16.9,0.165562914,0.00848414563,0.266090884,-0.949552904
504,1264417,1454680,-3.178,3.544,-1.573,-202.1,109.9,405.6,14.5,-14.6,-16.9,0.173345134,0.0123905148,0.270638142,-0.946836756
505,1268289,1454690,-2.037,0.911,-2.076,-208.3,92.1,345.9,14.5,-14.6,-16.9,0.179998169,0.0155644398,0.2751854,-0.944242683
506,1270502,1454690,-1.342,-0.109,-1.354,-188.8,93,249.2,14.5,-14.6,-16.9,0.184636982,0.0181890316,0.279335917,-0.942075869
507,1272750,1454690,-0.853,-0.886,-1.083,-129.9,77.7,173.6,14.5,-14.6,-16.9,0.187780389,0.0203558458,0.282235176,-0.940549944
508,1274963,1454690,-0.044,-1.31,1.282,-24.6,43.1,137.9,14.5,-14.6,-16.9,0.190374462,0.0219733268,0.282876064,-0.939786981
509,1276527,1454700,-0.813,-5.648,3.366,92.9,19.7,140.7,14.5,-14.6,-16.9,0.193090609,0.0236518448,0.280983917,-0.939756462
510,1279317,1454700,-0.566,-4.772,1.943,160.9,28.5,160.1,15,-12.7,-17.5,0.196111942,0.025879696,0.277718436,-0.940061647
511,1281762,1454700,-0.918,-5.176,1.731,143.1,56.8,157.7,15,-12.7,-17.5,0.198919645,0.0286263619,0.274910733,-0.94021424
512,1284034,1454700,-1.04,-5.071,1.777,56.7,77.6,111.8,15,-12.7,-17.5,0.200689718,0.0311288797,0.274025697,-0.94000061
513,1286650,1454710,-1.084,-3.62,1.989,-36.1,80.3,36.4,15,-12.7,-17.5,0.200994903,0.0328379162,0.275093844,-0.939573351
514,1290828,1454710,-1.097,-2.637,1.967,-94.2,73.8,-25.9,15.2,-11.6,-17.9,0.200079348,0.03378399,0.277382733,-0.939054537
515,1292651,1454710,-1.115,-1.705,1.898,-107.2,65.5,-55.4,15.2,-11.6,-17.9,0.198644978,0.0343333232,0.27988525,-0.938596759
516,1294969,1454710,-1.094,-0.861,1.852,-93.1,59,-54.3,15.2,-11.6,-17.9,0.197241127,0.0347911008,0.282082583,-0.938230537
517,1297327,1454720,-1.061,0.356,1.703,-72.6,54,-35.7,15.2,-11.6,-17.9,0.196203497,0.0353709525,0.283852657,-0.937894833
518,1299576,1454720,-1.202,0.488,1.616,-54.4,49.8,-14,15.7,-10.7,-17.9,0.195654164,0.0360728782,0.285195471,-0.93755913
519,1302522,1454720,-1.379,0.63,1.5,-41.9,46.7,-0.4,15.7,-10.7,-17.9,0.195410016,0.0368358409,0.2862331,-0.937284463
520,1304736,1454720,-0.901,0.97,2.396,-40.6,48.2,-2.5,15.7,-10.7,-17.9,0.195074313,0.0376293222,0.28727073,-0.936979278
521,1307035,1454730,-1.016,0.103,1.894,-42.6,49.5,-18.9,15.7,-10.7,-17.9,0.194402905,0.0383617664,0.288369396,-0.936765648
522,1309233,1454730,-0.888,-0.532,1.662,-38.4,43.8,-36.1,15.2,-9.9,-17.6,0.193426313,0.0388500626,0.289376507,-0.936643574
523,1311616,1454730,-0.653,-0.997,1.532,-23.1,27.8,-43.3,15.2,-9.9,-17.6,0.192388684,0.0390636921,0.290017396,-0.936643574
524,1313931,1454730,-0.256,-1.639,1.312,-7.7,8.7,-39.4,15.2,-9.9,-17.6,0.191534165,0.0389721366,0.290231025,-0.936765648
525,1316540,1454740,-0.357,-2.258,1.192,0.3,-4.9,-30.9,15.2,-9.9,-17.6,0.190923795,0.0386669515,0.290231025,-0.936887722
526,1319959,1454740,-0.528,-3.076,1.16,3.7,-11.5,-17.9,15.2,-9.9,-17.6,0.19061861,0.0383312479,0.290108951,-0.937009796
527,1321480,1454740,-0.201,-2.631,0.986,5.1,-12.5,-5.9,15.2,-9.9,-17.6,0.190588092,0.0380565813,0.289956359,-0.937070833
528,1324013,1454740,-0.024,-2.478,1.051,3.4,-10.4,0,15.2,-9.9,-17.6,0.190649129,0.0378429518,0.289864803,-0.937101352
529,1328020,1454750,0.032,-2.169,1.044,-2.3,-7.5,-3.5,15.2,-9.9,-17.6,0.19061861,0.0376293222,0.289864803,-0.937101352
530,1330349,1454750,0.054,-1.749,1.058,-10.6,-5.1,-8.8,15.5,-11.3,-16.7,0.190496536,0.0374767296,0.290078433,-0.937070833
531,1332465,1454750,0.024,-0.844,1.107,-17.8,-4.7,-10.7,15.5,-11.3,-16.7,0.190313425,0.0372325816,0.290444655,-0.937009796
532,1333969,1454750,-0.032,-0.454,1.131,-21.9,-6.1,-9.6,15.5,-11.3,-16.7,0.190160833,0.036957915,0.290871914,-0.936918241
533,1337136,1454760,-0.107,-0.149,1.155,-22.6,-9,-8.1,15.5,-11.3,-16.7,0.190069277,0.0366222114,0.291299173,-0.936826685
534,1338904,1454760,-0.171,0.059,1.184,-20,-12.8,-8.1,15.8,-11.2,-16.1,0.19000824,0.0362254707,0.291665395,-0.93673513
535,1341526,1454760,-0.2,0.21,1.231,-14.5,-17.1,-10.6,15.8,-11.2,-16.1,0.189916684,0.0357371746,0.291879025,-0.936704611
536,1344655,1454760,-0.165,0.142,1.234,-7,-22.1,-14.8,15.8,-11.2,-16.1,0.189764092,0.0351573229,0.29197058,-0.93673513
537,1346404,1454770,-0.104,0.011,1.21,0.4,-27.5,-19.5,15.8,-11.2,-16.1,0.189519944,0.0344553972,0.291848506,-0.936826685
538,1349920,1454770,-0.027,-0.155,1.153,5.8,-32.6,-23.4,15.8,-11.1,-15.5,0.189245277,0.0336924345,0.291604358,-0.937009796
539,1351426,1454770,0.1,-0.516,1.006,8,-36.7,-25.5,15.8,-11.1,-15.5,0.188970611,0.0328073977,0.291299173,-0.937192907
540,1353901,1454770,0.141,-0.674,0.932,7.6,-39.6,-25.9,15.8,-11.1,-15.5,0.188665426,0.0318613239,0.291024506,-0.937376019
541,1357413,1454780,0.187,-0.793,0.88,6,-41.7,-25.2,15.8,-11.1,-15.5,0.188421278,0.0308847316,0.29074984,-0.937528611
542,1358910,1454780,0.209,-0.861,0.825,5,-43.4,-24.1,15.9,-11,-14.7,0.188207648,0.0298471023,0.290475173,-0.937681204
543,1362255,1454780,0.252,-0.866,0.757,5.4,-44.9,-23.1,15.9,-11,-14.7,0.187994018,0.0288094729,0.290200507,-0.937864315
544,1364607,1454780,0.253,-0.803,0.73,6.8,-46.5,-22,15.9,-11,-14.7,0.187841426,0.0277108066,0.289864803,-0.938016907
545,1366772,1454790,0.246,-0.716,0.698,8,-48,-20.7,15.9,-11,-14.7,0.187719352,0.0266731773,0.289529099,-0.9381695
546,1369172,1454790,0.225,-0.508,0.659,8.7,-49,-19.1,15.9,-11,-14.7,0.187627796,0.0255745109,0.289162877,-0.938352611
547,1371505,1454790,0.223,-0.417,0.655,9.4,-49.6,-17.5,15.9,-11,-14.7,0.187597278,0.0244758446,0.288766137,-0.938474685
548,1374134,1454790,0.212,-0.354,0.644,11,-50.4,-16.2,15.9,-11,-14.7,0.187566759,0.0233771783,0.288338878,-0.938657796
549,1377458,1454800,0.205,-0.307,0.648,14,-51.5,-15.3,15.9,-11,-14.7,0.187566759,0.0223090304,0.287850581,-0.938840907
550,1379656,1454800,0.225,-0.283,0.647,18.4,-53.3,-14.7,15.1,-10.9,-15.9,0.187597278,0.0211798456,0.28727073,-0.939054537
551,1381995,1454800,0.244,-0.3,0.646,23.7,-55.4,-13.7,15.1,-10.9,-15.9,0.187658315,0.0200201422,0.286538285,-0.939268166
552,1384185,1454800,0.28,-0.332,0.642,29.3,-57.6,-12.2,15.1,-10.9,-15.9,0.187719352,0.0189214759,0.285714286,-0.939542833
553,1386580,1454810,0.311,-0.368,0.637,34.8,-59.5,-10.4,15.1,-10.9,-15.9,0.187871944,0.017792291,0.284768212,-0.939817499
554,1389948,1454810,0.397,-0.449,0.604,39.8,-61.2,-8.4,15.2,-10.9,-15.6,0.188085574,0.0166020692,0.283669546,-0.940122684
555,1391419,1454810,0.436,-0.489,0.607,44.4,-62.7,-6.7,15.2,-10.9,-15.6,0.188299203,0.0155034028,0.282540361,-0.94042787
556,1394176,1454810,0.479,-0.517,0.61,48.8,-63.8,-5.5,15.2,-10.9,-15.6,0.18857387,0.0143436995,0.281258583,-0.940794092
557,1397311,1454820,0.519,-0.534,0.62,53,-64.1,-4.6,15.2,-10.9,-15.6,0.188848537,0.0132145146,0.279915769,-0.941160314
558,1399686,1454820,0.597,-0.563,0.61,57.2,-64,-3.9,14.8,-11.4,-15.9,0.189153722,0.0121158483,0.278481399,-0.941526536
559,1401781,1454820,0.637,-0.537,0.574,61.3,-63.4,-3.1,14.8,-11.4,-15.9,0.189458907,0.0110477004,0.276955473,-0.941923276
560,1404002,1454820,0.689,-0.522,0.538,65.1,-62.6,-2.1,14.8,-11.4,-15.9,0.189764092,0.0100100711,0.275368511,-0.942350536
561,1406702,1454830,0.836,-0.518,0.518,68.5,-61.9,-0.7,14.8,-11.4,-15.9,0.190099796,0.0090334788,0.273689993,-0.942777795
562,1410689,1454830,0.919,-0.539,0.551,71.4,-61.2,0.8,14.6,-11.7,-16.6,0.190466018,0.0080568865,0.271950438,-0.943205054
563,1412350,1454830,0.998,-0.576,0.592,74.7,-60.1,2.9,14.6,-11.7,-16.6,0.190893277,0.00714133122,0.270180364,-0.943632313
564,1413964,1454830,1.073,-0.625,0.598,79.3,-58.4,5.8,14.6,-11.7,-16.6,0.191351054,0.00631733146,0.268318735,-0.944090091
565,1416522,1454840,1.238,-0.759,0.61,84.9,-56.3,9.6,14.6,-11.7,-16.6,0.191839351,0.00555436872,0.266304514,-0.944547868
566,1418894,1454840,1.324,-0.831,0.615,90.2,-53.8,14.7,14.6,-11.7,-16.6,0.192449721,0.00491348003,0.264229255,-0.945036164
567,1422088,1454840,1.406,-0.904,0.621,93.8,-51.1,21.5,14.6,-11.7,-16.6,0.193182165,0.00439466536,0.262062441,-0.945493942
568,1423853,1454840,1.485,-0.961,0.611,95.2,-47.7,30.1,14.6,-11.7,-16.6,0.194067202,0.00396740623,0.259895627,-0.945890683
569,1427311,1454850,1.607,-1.03,0.608,94.1,-43.9,40.3,14.6,-11.7,-16.6,0.19513535,0.00369273965,0.257759331,-0.946256905
570,1429002,1454850,1.646,-1.043,0.611,90.5,-39.2,51.4,13.7,-12.6,-16.7,0.196417127,0.00357066561,0.255745109,-0.94656209
571,1431557,1454850,1.67,-1.02,0.614,84,-33.7,62.3,13.7,-12.6,-16.7,0.197882015,0.00357066561,0.253852962,-0.946745201
572,1434590,1454850,1.684,-0.922,0.614,74.6,-27.3,72.1,13.7,-12.6,-16.7,0.199530015,0.00372325816,0.252174444,-0.946867275
573,1437455,1454860,1.673,-0.863,0.618,62.6,-20.2,80.3,13.7,-12.6,-16.7,0.201300089,0.00402844325,0.250801111,-0.946836756
574,1438934,1454860,1.646,-0.803,0.626,48.7,-12.7,86.6,13.6,-12.7,-17,0.203161718,0.00445570238,0.249732963,-0.946745201
575,1442360,1454860,1.611,-0.748,0.627,34,-5,91.9,13.6,-12.7,-17,0.205084384,0.00500503555,0.24897,-0.946501053
576,1443937,1454860,1.517,-0.683,0.641,19.4,2.5,96.9,13.6,-12.7,-17,0.207068087,0.00564592425,0.24857326,-0.946195868
577,1446422,1454870,1.469,-0.678,0.634,5.7,9.8,102.5,13.6,-12.7,-17,0.209112827,0.0064394055,0.248481704,-0.94573809
578,1450071,1454870,1.425,-0.696,0.647,-6.5,16.4,108.7,12.8,-13.1,-17.1,0.211279641,0.00735496078,0.248695334,-0.945219275
579,1451648,1454870,1.377,-0.734,0.645,-17,22.1,115.6,12.8,-13.1,-17.1,0.213538011,0.0083620716,0.249122593,-0.944578387
580,1454065,1454870,1.296,-0.843,0.647,-25.9,27.1,122.7,12.8,-13.1,-17.1,0.215918455,0.00946073794,0.249763482,-0.943845943
581,1456708,1454880,1.259,-0.909,0.637,-33.1,31.3,129.8,12.8,-13.1,-17.1,0.218420972,0.0106509598,0.250556963,-0.943052461
582,1459045,1454880,1.226,-0.986,0.618,-38.7,35.1,136.6,12.5,-13.2,-17,0.221076083,0.0119327372,0.251503037,-0.942167425
583,1461587,1454880,1.193,-1.049,0.612,-42.7,38.3,142.9,12.5,-13.2,-17,0.22379223,0.0133060701,0.252510147,-0.941221351
584,1465556,1454880,1.144,-1.146,0.594,-45.1,41,148.6,12.5,-13.2,-17,0.226630451,0.0147404401,0.253608814,-0.940244758
585,1467727,1454890,1.12,-1.173,0.583,-46.2,43.3,153.3,12.5,-13.2,-17,0.229560228,0.016235847,0.25470748,-0.939207129
586,1470037,1454890,1.1,-1.196,0.568,-45.9,45.3,157.3,12.5,-13.2,-17,0.232551042,0.0178228095,0.255836665,-0.938138981
587,1471661,1454890,1.068,-1.195,0.549,-44.4,46.7,160.9,12.5,-13.2,-17,0.235572375,0.019470809,0.256904813,-0.937040315
588,1473954,1454890,1.048,-1.175,0.538,-42,47.9,164.1,12.5,-13.2,-17,0.238685263,0.0211188086,0.257942442,-0.935941649
589,1476565,1454900,1.029,-1.155,0.53,-38.7,48.7,167.1,12.5,-13.2,-17,0.241859188,0.0228888821,0.258919034,-0.934842982
590,1480031,1454900,0.994,-1.103,0.516,-34.6,49.4,169.9,12.2,-13.5,-16.5,0.245063631,0.0246589557,0.259804071,-0.933713797
591,1482235,1454900,0.982,-1.067,0.508,-30,49.9,172.5,12.2,-13.5,-16.5,0.248268075,0.0264900662,0.260567034,-0.932584613
592,1484544,1454900,0.975,-1.04,0.496,-25.3,50.1,174.8,12.2,-13.5,-16.5,0.251594592,0.0283822138,0.26126896,-0.931455428
593,1486673,1454910,0.959,-1.012,0.485,-20.8,50.2,176.6,12.2,-13.5,-16.5,0.254890591,0.0302743614,0.261848811,-0.930326243
594,1489717,1454910,0.936,-0.968,0.481,-16.8,50,178.3,11.2,-13.7,-16.2,0.258247627,0.032227546,0.262337107,-0.929197058
595,1491406,1454910,0.909,-0.916,0.478,-13.6,49.8,179.4,11.2,-13.7,-16.2,0.261604663,0.0341807306,0.262764367,-0.928067873
596,1494940,1454910,0.882,-0.892,0.494,-11.1,49.7,180.4,11.2,-13.7,-16.2,0.264992218,0.0361644337,0.263161107,-0.92690817
597,1496489,1454920,0.862,-0.868,0.503,-9,49.8,181.2,11.2,-13.7,-16.2,0.268349254,0.0381176183,0.263466292,-0.925778985
598,1499457,1454920,0.847,-0.852,0.519,-7.6,50.1,182.1,10.7,-14.1,-16.1,0.271767327,0.0401623585,0.263771477,-0.924619282
599,1502478,1454920,0.804,-0.827,0.551,-6.8,50.5,183,10.7,-14.1,-16.1,0.275154881,0.0422070986,0.264046144,-0.92342906
600,1504010,1454920,0.784,-0.819,0.567,-6.7,50.7,184.2,10.7,-14.1,-16.1,0.278572954,0.0442213202,0.264320811,-0.922238838
601,1506990,1454930,0.756,-0.815,0.564,-7.4,51,185.4,10.7,-14.1,-16.1,0.282021546,0.0462965789,0.264595477,-0.921018097
602,1509999,1454930,0.693,-0.778,0.573,-9,51.3,186.5,10.5,-14.4,-16.5,0.285470138,0.048341319,0.264900662,-0.919766839
603,1511441,1454930,0.666,-0.765,0.578,-11.4,51.7,187.5,10.5,-14.4,-16.5,0.288949248,0.0504165777,0.265236366,-0.918454543
604,1514419,1454930,0.626,-0.749,0.583,-14.5,52.2,188.1,10.5,-14.4,-16.5,0.292428358,0.0524613178,0.265663625,-0.917111728
605,1517441,1454940,0.579,-0.74,0.604,-17.8,52.5,188.3,10.5,-14.4,-16.5,0.295907468,0.0544755394,0.266090884,-0.915738395
606,1518984,1454940,0.488,-0.714,0.641,-20.7,52.9,188.2,10.5,-14.4,-16.5,0.299386578,0.056489761,0.266670736,-0.914334544
607,1521930,1454940,0.433,-0.709,0.647,-23.3,53.3,187.7,10.5,-14.4,-16.5,0.302865688,0.0585039827,0.267250587,-0.912900174
608,1524955,1454940,0.381,-0.696,0.652,-25.5,53.6,187,10.5,-14.4,-16.5,0.306283761,0.0604876858,0.267860958,-0.911435286
609,1526494,1454950,0.334,-0.687,0.669,-27.6,53.5,186.4,10.5,-14.4,-16.5,0.309732353,0.0624408704,0.268532365,-0.909939879
610,1529415,1454950,0.239,-0.661,0.667,-29.8,53.2,185.8,10.7,-15.1,-16,0.313150426,0.064394055,0.269234291,-0.908444472
611,1532445,1454950,0.191,-0.664,0.665,-32.1,52.7,185.3,10.7,-15.1,-16,0.31653798,0.0663167211,0.269966735,-0.906918546
612,1534205,1454950,0.144,-0.655,0.662,-34.2,51.9,184.4,10.7,-15.1,-16,0.319925535,0.0681783502,0.270729698,-0.905331584
613,1536376,1454960,0.077,-0.642,0.671,-35.7,51.1,183.1,10.7,-15.1,-16,0.323313089,0.0700399792,0.271523179,-0.90377514
614,1539991,1454960,0.041,-0.637,0.669,-36.4,50,181.1,10,-15.1,-16.3,0.326639607,0.0718405713,0.27231666,-0.902188177
615,1542203,1454960,-0.002,-0.632,0.67,-36.4,48.9,178.7,10,-15.1,-16.3,0.329905087,0.0736106449,0.273079623,-0.900631733
616,1544583,1454960,-0.029,-0.62,0.678,-35.9,47.8,176.1,10,-15.1,-16.3,0.333140049,0.0752891629,0.273842586,-0.899044771
617,1547549,1454970,-0.084,-0.603,0.687,-35,46.8,173.1,10,-15.1,-16.3,0.336313974,0.0770287179,0.274605548,-0.897488327
618,1549735,1454970,-0.084,-0.603,0.687,-35,46.8,173.1,10,-15.1,-16.3,0.336313974,0.0770287179,0.274605548,-0.897488327
619,1551374,1454970,-0.148,-0.578,0.689,-33.3,44.8,166.8,9.4,-15.2,-16.3,0.342478713,0.0803247169,0.2760094,-0.894436476
620,1554034,1454970,-0.171,-0.569,0.69,-32.2,43.9,163.4,9.4,-15.2,-16.3,0.345439009,0.0819116794,0.276680807,-0.892941069
621,1557509,1454980,-0.231,-0.56,0.711,-30.8,43.3,159.8,9.4,-15.2,-16.3,0.348368786,0.0834986419,0.277321696,-0.89147618
622,1559031,1454980,-0.258,-0.555,0.711,-29.2,42.7,156.1,9.4,-14.8,-16.7,0.351176489,0.0850550859,0.277932066,-0.890011292
623,1562746,1454980,-0.278,-0.551,0.728,-27.5,42.4,152.4,9.4,-14.8,-16.7,0.353953673,0.0865810114,0.278511917,-0.88860744
624,1564299,1454980,-0.302,-0.546,0.74,-26.1,42.2,148.6,9.4,-14.8,-16.7,0.356608783,0.0881069369,0.279061251,-0.887203589
625,1568048,1454990,-0.341,-0.526,0.772,-24.9,42.1,144.8,9.4,-14.8,-16.7,0.359202857,0.0896023438,0.279580065,-0.885860775
626,1569534,1454990,-0.357,-0.521,0.78,-23.7,42.2,140.7,7,-15.6,-17,0.361705374,0.0910977508,0.28009888,-0.88451796
627,1572523,1454990,-0.364,-0.513,0.796,-22.7,42.4,136.6,7,-15.6,-17,0.364146855,0.0925626392,0.280587176,-0.883205664
628,1574016,1454990,-0.384,-0.493,0.836,-22,42.6,132.1,7,-15.6,-17,0.366466262,0.0940275277,0.281105991,-0.881923887
629,1577026,1455000,-0.395,-0.477,0.848,-22.1,42.9,127.3,7,-15.6,-17,0.368694113,0.0954618976,0.281594287,-0.880672628
630,1579254,1455000,-0.423,-0.453,0.872,-23,43.4,122.3,5.8,-15.2,-17.1,0.370860927,0.0969573046,0.282113102,-0.879451888
631,1582386,1455000,-0.423,-0.453,0.872,-24.8,44.1,117.3,5.8,-15.2,-17.1,0.372875149,0.0983306375,0.282692953,-0.878261666
632,1585258,1455000,-0.458,-0.417,0.873,-27.2,45.2,112.1,5.8,-15.2,-17.1,0.374797815,0.0996734519,0.28336436,-0.877071444
633,1586853,1455010,-0.481,-0.393,0.877,-30.1,46.5,106.9,5.8,-15.2,-17.1,0.376628925,0.100985748,0.284066286,-0.87591174
634,1589009,1455010,-0.481,-0.393,0.877,-30.1,46.5,106.9,5.8,-15.2,-17.1,0.376628925,0.100985748,0.284066286,-0.87591174
635,1592030,1455010,-0.481,-0.393,0.877,-30.1,46.5,106.9,5.8,-15.2,-17.1,0.376628925,0.100985748,0.284066286,-0.87591174
636,1595052,1455010,-0.643,-0.303,0.858,-37.9,50.8,90.9,4.6,-15.2,-17.5,0.38145085,0.104709006,0.286690878,-0.872524186
637,1596633,1455020,-0.686,-0.286,0.867,-38.9,51.9,85.9,4.6,-15.2,-17.5,0.382854701,0.105899228,0.28766747,-0.87142552
638,1599069,1455020,-0.733,-0.257,0.876,-39.2,52.8,80.9,3.8,-15.2,-17,0.384136479,0.10708945,0.288674581,-0.87038789
639,1602549,1455020,-0.796,-0.244,0.893,-39,53.6,76.2,3.8,-15.2,-17,0.385357219,0.108279672,0.289681692,-0.869380779
640,1603964,1455020,-0.899,-0.214,0.923,-38.2,54.3,71.9,3.8,-15.2,-17,0.386455885,0.109439375,0.290688803,-0.868404187
641,1606439,1455030,-0.954,-0.193,0.936,-37,54.9,68.1,3.8,-15.2,-17,0.387493515,0.110599078,0.291695914,-0.867458113
642,1609119,1455030,-0.99,-0.181,0.949,-35.8,55.1,64.6,3.2,-15.5,-17.6,0.388439589,0.111758782,0.292703024,-0.866542558
643,1612223,1455030,-1.061,-0.167,0.974,-34.8,55.1,61,3.2,-15.5,-17.6,0.389324625,0.112887967,0.293679617,-0.865657521
644,1615075,1455030,-1.092,-0.162,0.971,-33.8,54.9,57.3,3.2,-15.5,-17.6,0.390148625,0.113986633,0.29462569,-0.864833522
645,1616677,1455040,-1.116,-0.154,0.964,-32.6,54.5,53.6,3.2,-15.5,-17.6,0.390881069,0.115085299,0.295571764,-0.864009522
646,1620395,1455040,-1.132,-0.154,0.952,-31.1,53.9,50,7.9,-16.4,-17.6,0.391582995,0.116153447,0.296517838,-0.863246559
647,1621941,1455040,-1.148,-0.134,0.937,-29.8,52.9,46.2,7.9,-16.4,-17.6,0.392162847,0.117221595,0.297402875,-0.862544633
648,1624209,1455040,-1.151,-0.114,0.929,-28.7,51.7,41.8,7.9,-16.4,-17.6,0.392681661,0.118198187,0.298287912,-0.861842708
649,1626557,1455050,-1.163,-0.102,0.918,-27.7,50.5,36.7,7.9,-16.4,-17.6,0.393139439,0.119144261,0.29914243,-0.861232337
650,1629090,1455050,-1.183,-0.09,0.903,-26.6,49.3,31.1,5,-13.8,-17.6,0.393475143,0.120059816,0.29996643,-0.860652486
651,1632446,1455050,-1.203,-0.085,0.907,-24.8,48.2,25.4,5,-13.8,-17.6,0.393688772,0.120914335,0.300790429,-0.86016419
652,1633957,1455050,-1.218,-0.081,0.915,-22.5,47.3,20.3,5,-13.8,-17.6,0.393810846,0.121738334,0.301553392,-0.859706412
653,1636332,1455060,-1.246,-0.073,0.912,-20.4,46.3,15.9,5,-13.8,-17.6,0.393871883,0.122531816,0.302316355,-0.859309671
654,1638959,1455060,-1.302,-0.063,0.91,-19.1,45.5,12.5,5.6,-13.9,-17.5,0.393841365,0.123325297,0.303018281,-0.858943449
655,1642121,1455060,-1.329,-0.059,0.918,-19.1,45,10.2,5.6,-13.9,-17.5,0.393810846,0.124057741,0.303750725,-0.858607746
656,1643888,1455060,-1.345,-0.055,0.907,-20.7,45,9.2,5.6,-13.9,-17.5,0.393719291,0.124790185,0.304483169,-0.858272042
657,1647404,1455070,-1.353,-0.043,0.907,-23.5,45.2,9.1,5.6,-13.9,-17.5,0.393658254,0.125492111,0.305307169,-0.85790582
658,1649719,1455070,-1.353,-0.015,0.891,-27.1,45.3,9.2,6.3,-13.6,-17.8,0.393597217,0.126163518,0.306161687,-0.857539598
659,1651910,1455070,-1.345,-0.011,0.895,-31.2,44.9,8.8,6.3,-13.6,-17.8,0.393566698,0.126804407,0.307107761,-0.857112339
660,1653867,1455070,-1.336,0.007,0.907,-35.6,44.3,7.6,6.3,-13.6,-17.8,0.393505661,0.127384259,0.30814539,-0.85668508
661,1658121,1455080,-1.328,0.023,0.906,-39.9,44,5.6,6.3,-13.6,-17.8,0.393414106,0.127903073,0.309244057,-0.85625782
662,1660377,1455080,-1.324,0.046,0.914,-43.7,44.1,3.1,8.2,-13.2,-18.2,0.393292032,0.128360851,0.310434278,-0.855800043
663,1661875,1455080,-1.316,0.062,0.914,-47.3,44.6,0.4,8.2,-13.2,-18.2,0.393139439,0.12878811,0.311716056,-0.855372784
664,1664116,1455080,-1.311,0.085,0.913,-50.9,45.2,-2.2,8.2,-13.2,-18.2,0.39292581,0.129184851,0.31305887,-0.854915006
665,1667195,1455090,-1.319,0.105,0.914,-54.9,45.8,-4.9,8.2,-13.2,-18.2,0.392681661,0.129551073,0.314462722,-0.85442671
666,1668835,1455090,-1.338,0.137,0.898,-59.2,46.6,-7.7,7.6,-15.3,-18.6,0.392376476,0.129856258,0.315988647,-0.853968932
667,1671530,1455090,-1.342,0.149,0.887,-63.8,47.5,-10.3,7.6,-15.3,-18.6,0.392040773,0.130100406,0.317636647,-0.853480636
668,1674552,1455090,-1.35,0.157,0.875,-68.3,48.5,-13,7.6,-15.3,-18.6,0.391674551,0.130344554,0.319345683,-0.85299234
669,1677779,1455100,-1.35,0.165,0.852,-72.6,49.4,-16.1,7.6,-15.3,-18.6,0.391216773,0.130527665,0.321176794,-0.852473525
670,1679885,1455100,-1.354,0.165,0.832,-76.7,50,-19.8,8.4,-13.1,-18.6,0.390728477,0.130680258,0.323068941,-0.851954711
671,1681398,1455100,-1.358,0.161,0.817,-80.4,50.4,-23.9,8.4,-13.1,-18.6,0.390148625,0.130741295,0.325083163,-0.851435896
672,1684242,1455100,-1.358,0.153,0.809,-83.8,50.7,-28.4,8.4,-13.1,-18.6,0.389507736,0.130771813,0.327158422,-0.8509476
673,1687402,1455110,-1.355,0.145,0.793,-87.2,51.1,-33.1,8.4,-13.1,-18.6,0.388775292,0.130741295,0.329294717,-0.850459304
674,1688944,1455110,-1.351,0.137,0.789,-90.5,51.4,-37.7,8.6,-12.9,-18.6,0.387951292,0.130649739,0.331522568,-0.849971007
675,1691963,1455110,-1.335,0.125,0.785,-93.8,51.9,-42.2,8.6,-12.9,-18.6,0.387066256,0.130527665,0.333811457,-0.84951323
676,1694848,1455110,-1.327,0.125,0.777,-97.1,52.4,-46.4,8.6,-12.9,-18.6,0.386089663,0.130344554,0.3361919,-0.849055452
677,1696422,1455120,-1.304,0.112,0.773,-100.6,52.9,-50.2,8.6,-12.9,-18.6,0.385052034,0.130100406,0.338633381,-0.848567156
678,1699493,1455120,-1.292,0.112,0.78,-103.6,53.3,-53.2,9.2,-12.4,-19,0.383953368,0.129825739,0.341166417,-0.848109378
679,1702474,1455120,-1.28,0.112,0.788,-105.9,54,-55.5,9.2,-12.4,-19,0.382824183,0.129520554,0.343729972,-0.847621082
680,1703903,1455120,-1.268,0.112,0.787,-107.6,54.7,-57.3,9.2,-12.4,-19,0.38166448,0.129215369,0.346324046,-0.847132786
681,1707545,1455130,-1.26,0.119,0.795,-108.8,55.4,-58.8,9.2,-12.4,-19,0.380474258,0.128879666,0.348979156,-0.84664449
682,1708972,1455130,-1.26,0.131,0.803,-110,55.9,-60,9.3,-12.2,-19.3,0.379253517,0.128543962,0.351634266,-0.846125675
683,1712093,1455130,-1.263,0.139,0.803,-110.8,56.3,-60.8,9.3,-12.2,-19.3,0.378002258,0.128208258,0.354319895,-0.845637379
684,1715198,1455130,-1.271,0.143,0.795,-111.3,56.6,-61.3,9.3,-12.2,-19.3,0.376720481,0.127842036,0.357005524,-0.845118564
685,1716786,1455140,-1.279,0.143,0.784,-111,56.6,-61.4,9.3,-12.2,-19.3,0.375469222,0.127506333,0.359691153,-0.84459975
686,1719714,1455140,-1.271,0.135,0.779,-110,56.5,-61.3,9.7,-10.8,-19.6,0.374187445,0.127170629,0.362346263,-0.844080935
687,1721366,1455140,-1.271,0.139,0.779,-108.6,55.7,-61,9.7,-10.8,-19.6,0.372936186,0.126804407,0.364970855,-0.84356212
688,1724271,1455140,-1.26,0.119,0.791,-106.8,54.4,-60.3,9.7,-10.8,-19.6,0.371684927,0.126468703,0.367564928,-0.843043306
689,1727508,1455150,-1.252,0.107,0.791,-104.3,52.5,-59.3,9.7,-10.8,-19.6,0.370464187,0.126102481,0.370067446,-0.842524491
690,1729542,1455150,-1.24,0.095,0.794,-101.3,50.6,-57.9,9.9,-12.9,-19.8,0.369273965,0.125766778,0.372508927,-0.842036195
691,1731326,1455150,-1.225,0.079,0.798,-98,48.7,-56.4,9.9,-12.9,-19.8,0.368083743,0.125400555,0.374828333,-0.841547899
692,1735640,1455150,-1.189,0.039,0.809,-94.2,46.8,-54.5,9.9,-12.9,-19.8,0.366954558,0.125064852,0.377086703,-0.841090121
693,1737867,1455160,-1.174,0.015,0.82,-90,44.5,-52.3,9.9,-12.9,-19.8,0.36588641,0.124729148,0.379253517,-0.840662862
694,1740047,1455160,-1.15,-0.012,0.824,-85.4,42.1,-49.7,10.3,-12.6,-19.6,0.364848781,0.124393445,0.381298257,-0.840235603
695,1741632,1455160,-1.12,-0.076,0.846,-80.3,39.7,-46.9,10.3,-12.6,-19.6,0.363872188,0.12408826,0.383190405,-0.839808344
696,1743957,1455160,-1.104,-0.092,0.854,-74.8,37.5,-44,10.3,-12.6,-19.6,0.362956633,0.123813593,0.384990997,-0.839442122
697,1747634,1455170,-1.08,-0.116,0.865,-69.2,35.3,-40.8,10.3,-12.6,-19.6,0.362102115,0.123569445,0.386638997,-0.8390759
698,1749148,1455170,-1.061,-0.136,0.868,-63.9,33.3,-37.5,10.3,-12.8,-20.1,0.361308634,0.123355815,0.388195441,-0.838740196
699,1751432,1455170,-1.042,-0.187,0.884,-58.8,31.3,-34.2,10.3,-12.8,-20.1,0.360576189,0.123203223,0.389599292,-0.838435011
700,1754439,1455170,-1.026,-0.207,0.887,-53.9,29.8,-30.8,10.3,-12.8,-20.1,0.359904782,0.12305063,0.390911588,-0.838129826
701,1757340,1455180,-1.022,-0.215,0.887,-48.8,28.6,-27.2,10.3,-12.8,-20.1,0.359294412,0.122959075,0.39210181,-0.837855159
702,1759579,1455180,-1.022,-0.215,0.887,-48.8,28.6,-27.2,10.3,-12.8,-20.1,0.359294412,0.122959075,0.39210181,-0.837855159
703,1762487,1455180,-0.995,-0.236,0.902,-37.1,26.6,-19.9,11,-12.5,-19.9,0.358226264,0.122928556,0.394116031,-0.837366863
704,1763840,1455180,-0.995,-0.236,0.902,-37.1,26.6,-19.9,11,-12.5,-19.9,0.358226264,0.122928556,0.394116031,-0.837366863
705,1766839,1455190,-0.983,-0.232,0.906,-24.1,24.1,-13.1,11,-12.5,-19.9,0.357402264,0.123142186,0.39558092,-0.837000641
706,1770622,1455190,-0.967,-0.22,0.897,-17.6,22.9,-10.2,11.3,-8.3,-18.5,0.357066561,0.123355815,0.396099734,-0.836848048
707,1772236,1455190,-0.947,-0.201,0.881,-11.4,21.6,-7.7,11.3,-8.3,-18.5,0.356791894,0.123599963,0.396496475,-0.836756493
708,1773871,1455190,-0.947,-0.201,0.881,-11.4,21.6,-7.7,11.3,-8.3,-18.5,0.356791894,0.123599963,0.396496475,-0.836756493
709,1776418,1455200,-0.926,-0.17,0.861,-0.1,18.9,-3.7,11.3,-8.3,-18.5,0.35627308,0.124179815,0.396923734,-0.836664937
710,1779601,1455200,-0.902,-0.139,0.845,5,17.7,-2.2,11.4,-9.9,-21.7,0.356089969,0.124546037,0.396954253,-0.836695456
711,1782569,1455200,-0.906,-0.135,0.833,10,16.8,-0.9,11.4,-9.9,-21.7,0.355876339,0.124912259,0.396923734,-0.836725974
712,1784084,1455200,-0.89,-0.124,0.829,14.8,16,0.2,11.4,-9.9,-21.7,0.355723746,0.125309,0.39680166,-0.83681753
713,1787048,1455210,-0.882,-0.124,0.821,19.3,15.4,1.1,11.4,-9.9,-21.7,0.355540635,0.125766778,0.396557512,-0.836909085
714,1790092,1455210,-0.87,-0.117,0.809,23.4,14.9,1.7,11.3,-9.3,-21.9,0.355388043,0.126194037,0.396221809,-0.837092196
715,1791430,1455210,-0.863,-0.125,0.797,27,14.7,2.3,11.3,-9.3,-21.9,0.35523545,0.12674337,0.395855586,-0.837275307
716,1794674,1455210,-0.862,-0.117,0.789,30,14.5,2.8,11.3,-9.3,-21.9,0.355052339,0.127262185,0.395397809,-0.837458419
717,1797557,1455220,-0.855,-0.117,0.781,32.5,14.7,3.2,11.3,-9.3,-21.9,0.354899747,0.127811518,0.394909513,-0.837672048
718,1799097,1455220,-0.831,-0.118,0.776,34.4,14.9,3.6,11.3,-8.9,-21.6,0.354747154,0.128391369,0.394390698,-0.837885678
719,1801417,1455220,-0.823,-0.122,0.776,35.7,15.1,3.9,11.3,-8.9,-21.6,0.354594562,0.128971221,0.393841365,-0.838129826
720,1803861,1455220,-0.811,-0.114,0.768,36.3,15.4,4.3,11.3,-8.9,-21.6,0.354441969,0.129551073,0.393292032,-0.838373974
721,1807353,1455230,-0.795,-0.115,0.752,36.3,15.9,4.7,11.3,-8.9,-21.6,0.354289377,0.130191961,0.392742698,-0.838587603
722,1808946,1455230,-0.787,-0.107,0.732,35.5,16.5,5,11.4,-8.5,-21.7,0.354136784,0.130802332,0.392193365,-0.838831751
723,1811716,1455230,-0.779,-0.111,0.728,34.3,17.2,5.5,11.4,-8.5,-21.7,0.353984191,0.13144322,0.391674551,-0.839014863
724,1815573,1455230,-0.767,-0.111,0.724,32.6,17.9,6.1,11.4,-8.5,-21.7,0.353862117,0.132053591,0.391216773,-0.839197974
725,1817870,1455240,-0.759,-0.111,0.735,30.6,18.6,6.8,11.4,-8.5,-21.7,0.353740043,0.132694479,0.390758995,-0.839350566
726,1819617,1455240,-0.748,-0.116,0.727,28.6,19.6,7.4,11.5,-10.6,-19.8,0.353617969,0.133335368,0.390362255,-0.83947264
727,1821729,1455240,-0.74,-0.124,0.711,26.5,20.2,8.1,11.5,-10.6,-19.8,0.353526414,0.133976257,0.390026551,-0.839594714
728,1824068,1455240,-0.744,-0.135,0.692,24.4,20.7,8.9,11.5,-10.6,-19.8,0.353434858,0.134647664,0.389721366,-0.839655751
729,1826540,1455250,-0.744,-0.155,0.7,22.6,20.9,10,11.5,-10.6,-19.8,0.353373821,0.135288553,0.389416181,-0.839716788
730,1829058,1455250,-0.733,-0.167,0.707,21.2,21.3,11.2,11.8,-10.5,-19.9,0.353343303,0.135929441,0.389141514,-0.839747307
731,1832233,1455250,-0.741,-0.183,0.723,19.9,21.9,12.2,11.8,-10.5,-19.9,0.353312784,0.136600848,0.388927885,-0.839747307
732,1834452,1455250,-0.741,-0.183,0.723,18.6,22.7,12.9,11.8,-10.5,-19.9,0.353312784,0.137272256,0.388744774,-0.839747307
733,1836623,1455260,-0.737,-0.206,0.731,17,23.6,13.3,11.8,-10.5,-19.9,0.353282266,0.137913144,0.388561663,-0.839716788
734,1839134,1455260,-0.745,-0.218,0.731,15.5,24.6,13.7,11.8,-10.1,-19.1,0.353282266,0.13861507,0.38840907,-0.839655751
735,1841472,1455260,-0.741,-0.234,0.735,14.4,25.4,14.2,11.8,-10.1,-19.1,0.353282266,0.139316996,0.388317515,-0.839594714
736,1845197,1455260,-0.73,-0.261,0.735,13.7,25.9,14.6,11.8,-10.1,-19.1,0.353282266,0.140018921,0.388225959,-0.839533677
737,1847219,1455270,-0.726,-0.281,0.739,13.3,26.2,15.1,11.8,-10.1,-19.1,0.353312784,0.140751366,0.388134404,-0.839442122
738,1849453,1455270,-0.723,-0.297,0.731,13.2,26.2,15.5,12.2,-10.1,-18.1,0.353343303,0.141453291,0.388042848,-0.839350566
739,1851705,1455270,-0.715,-0.317,0.731,13.3,26.1,15.7,12.2,-10.1,-18.1,0.353343303,0.142155217,0.387951292,-0.839259011
740,1853999,1455270,-0.708,-0.352,0.735,13.6,25.9,15.9,12.2,-10.1,-18.1,0.353373821,0.142887661,0.387859737,-0.839167455
741,1856601,1455280,-0.696,-0.372,0.742,14.3,25.7,16.3,12.2,-10.1,-18.1,0.353434858,0.143589587,0.387737663,-0.839106418
742,1859019,1455280,-0.696,-0.384,0.734,15.4,25.4,16.9,12.2,-9.9,-17,0.353465377,0.144322031,0.38758507,-0.839014863
743,1862259,1455280,-0.7,-0.4,0.735,16.8,25,17.5,12.2,-9.9,-17,0.353526414,0.145054476,0.387432478,-0.838953825
744,1864701,1455280,-0.697,-0.423,0.735,18.5,24.5,18.3,12.2,-9.9,-17,0.353587451,0.145817438,0.38718833,-0.838892788
745,1867530,1455290,-0.697,-0.435,0.738,20.2,24,19.2,12.2,-9.9,-17,0.353679006,0.146580401,0.3869747,-0.838831751
746,1869812,1455290,-0.697,-0.447,0.746,21.9,23.7,20.1,11.9,-10.9,-21.6,0.353770562,0.147343364,0.386700034,-0.838770714
747,1872018,1455290,-0.697,-0.447,0.738,23.5,23.5,20.9,11.9,-10.9,-21.6,0.353892636,0.148136845,0.38636433,-0.838740196
748,1874228,1455290,-0.693,-0.455,0.742,25.2,23.2,21.5,11.9,-10.9,-21.6,0.353984191,0.148930326,0.386028626,-0.838709677
749,1876675,1455300,-0.697,-0.467,0.735,27.2,22.9,22,11.9,-10.9,-21.6,0.354136784,0.149754326,0.385631886,-0.838709677
750,1878957,1455300,-0.682,-0.487,0.73,29.4,22.5,22.5,12.4,-10.8,-18.4,0.354258858,0.150578326,0.385174108,-0.838709677
751,1882237,1455300,-0.674,-0.495,0.726,31.9,21.8,23,12.4,-10.8,-18.4,0.354380932,0.151432844,0.384685812,-0.838709677
752,1884452,1455300,-0.67,-0.507,0.726,34.6,21,23.6,12.4,-10.8,-18.4,0.354533525,0.152287362,0.384136479,-0.838740196
753,1886671,1455310,-0.67,-0.514,0.722,37.3,20.2,24.2,12.4,-10.8,-18.4,0.354686117,0.153141881,0.383526109,-0.838801233
754,1888889,1455310,-0.663,-0.526,0.714,39.7,19.5,24.8,11.7,-11.4,-18.4,0.35483871,0.154026917,0.38288522,-0.838892788
755,1891967,1455310,-0.655,-0.538,0.702,41.8,18.8,25.4,11.7,-11.4,-18.4,0.354991302,0.154881436,0.382183294,-0.838984344
756,1894833,1455310,-0.647,-0.542,0.698,43.5,18.3,25.9,11.7,-11.4,-18.4,0.355174413,0.155796991,0.381420331,-0.8390759
757,1896504,1455320,-0.643,-0.546,0.694,44.9,17.7,26.2,11.7,-11.4,-18.4,0.355357524,0.156682028,0.380657369,-0.839197974
758,1898881,1455320,-0.639,-0.551,0.683,46.1,17.3,26.8,12.1,-11.3,-18.6,0.355540635,0.157567064,0.379863887,-0.839289529
759,1902446,1455320,-0.635,-0.543,0.671,47,17.3,27.3,12.1,-11.3,-18.6,0.355723746,0.15848262,0.379039888,-0.839411603
760,1903894,1455320,-0.635,-0.535,0.671,47.5,17.3,28,12.1,-11.3,-18.6,0.355937376,0.159398175,0.378185369,-0.839533677
761,1907620,1455330,-0.631,-0.531,0.667,47.7,17.3,28.6,12.1,-11.3,-18.6,0.356151006,0.16031373,0.37736137,-0.839655751
762,1909119,1455330,-0.631,-0.508,0.655,47.6,17,29.4,11.8,-11.6,-19.2,0.356395154,0.161259804,0.376506851,-0.839747307
763,1911461,1455330,-0.631,-0.5,0.659,47.2,16.7,30.2,11.8,-11.6,-19.2,0.356639302,0.162175359,0.375652333,-0.839838862
764,1913953,1455330,-0.627,-0.492,0.655,46.7,16.4,31,11.8,-11.6,-19.2,0.356913968,0.163090915,0.374828333,-0.839930418
765,1917021,1455340,-0.627,-0.484,0.663,45.9,16.3,31.7,11.8,-11.6,-19.2,0.357188635,0.16400647,0.374004334,-0.839991455
766,1919136,1455340,-0.619,-0.472,0.647,44.9,16,32.4,11.9,-11.8,-19.5,0.35749382,0.164922025,0.373180334,-0.840052492
767,1922223,1455340,-0.61,-0.461,0.658,43.5,15.8,33,11.9,-11.8,-19.5,0.357799005,0.165807062,0.372386853,-0.84008301
768,1923853,1455340,-0.614,-0.461,0.654,42,15.6,33.6,11.9,-11.8,-19.5,0.358134709,0.166722617,0.37162389,-0.840113529
769,1926668,1455350,-0.61,-0.461,0.65,40.1,15.4,34,11.9,-11.8,-19.5,0.358500931,0.167577136,0.370891446,-0.840113529
770,1929731,1455350,-0.61,-0.461,0.65,40.1,15.4,34,11.9,-11.8,-19.5,0.358500931,0.167577136,0.370891446,-0.840113529
771,1931497,1455350,-0.603,-0.465,0.642,35.8,15.2,34.5,11.9,-11.8,-18.8,0.359385968,0.169621876,0.369396039,-0.839991455
772,1935003,1455350,-0.599,-0.461,0.646,33.5,15,34.6,11.9,-11.8,-18.8,0.359782708,0.170445875,0.36875515,-0.839930418
773,1936533,1455360,-0.603,-0.477,0.642,31.2,14.9,34.6,11.9,-11.8,-18.8,0.360179449,0.171239357,0.368175298,-0.839838862
774,1939670,1455360,-0.595,-0.477,0.638,29.1,14.8,34.5,11.2,-12.2,-19,0.360576189,0.172032838,0.367625965,-0.839747307
775,1941512,1455360,-0.595,-0.481,0.634,27,14.6,34.4,11.2,-12.2,-19,0.361003449,0.172765282,0.367137669,-0.839655751
776,1944737,1455360,-0.591,-0.481,0.63,25,14.3,34.3,11.2,-12.2,-19,0.361400189,0.173497726,0.366649373,-0.839503159
777,1947036,1455370,-0.587,-0.485,0.626,23.1,13.9,34.1,11.2,-12.2,-19,0.36179693,0.174230171,0.366222114,-0.839381085
778,1949195,1455370,-0.587,-0.485,0.63,21.2,13.6,33.9,11.7,-12.4,-19,0.362285226,0.174901578,0.365794855,-0.839228492
779,1951617,1455370,-0.583,-0.489,0.626,19.5,13.4,33.6,11.7,-12.4,-19,0.362712485,0.175572985,0.365428632,-0.8390759
780,1954576,1455370,-0.579,-0.493,0.622,17.9,13.4,33.2,11.7,-12.4,-19,0.363139744,0.176244392,0.36506241,-0.838892788
781,1956406,1455380,-0.567,-0.497,0.63,16.5,13.3,32.7,11.7,-12.4,-19,0.363567003,0.176854762,0.364757225,-0.838709677
782,1959966,1455380,-0.567,-0.501,0.63,15.4,13.2,32.1,11.5,-12.1,-19,0.363994263,0.177495651,0.36445204,-0.838526566
783,1961665,1455380,-0.567,-0.501,0.63,14.5,12.8,31.5,11.5,-12.1,-19,0.364391003,0.178075503,0.364146855,-0.838343455
784,1964162,1455380,-0.56,-0.509,0.63,13.6,12.5,30.7,11.5,-12.1,-19,0.364818262,0.178685873,0.363872188,-0.838160344
785,1966399,1455390,-0.552,-0.517,0.633,12.8,12.3,30.2,11.5,-12.1,-19,0.365215003,0.179235206,0.36362804,-0.837977233
786,1970529,1455390,-0.548,-0.529,0.637,12.3,12.2,29.5,10.9,-12.8,-18.4,0.365611744,0.179784539,0.363383892,-0.837794122
787,1972230,1455390,-0.548,-0.541,0.637,12.1,12.1,29,10.9,-12.8,-18.4,0.366008484,0.180333872,0.363139744,-0.837611011
788,1973998,1455390,-0.536,-0.553,0.649,12.2,12.1,28.2,10.9,-12.8,-18.4,0.366374706,0.180883206,0.362926115,-0.8374279
789,1977517,1455400,-0.533,-0.561,0.652,12.2,12,27.5,10.9,-12.8,-18.4,0.366740928,0.181432539,0.362681967,-0.837244789
790,1979022,1455400,-0.533,-0.561,0.652,12.2,12,27.5,10.9,-12.8,-18.4,0.366740928,0.181432539,0.362681967,-0.837244789
791,1981445,1455400,-0.521,-0.573,0.652,12.2,11.8,26.2,11.4,-12.5,-18,0.367046113,0.181981872,0.362865078,-0.836909085
792,1984253,1455400,-0.521,-0.589,0.652,12.2,11.7,25.7,11.4,-12.5,-18,0.367381817,0.182500687,0.362651448,-0.836756493
793,1987254,1455410,-0.513,-0.585,0.652,12.4,11.6,25,11.4,-12.5,-18,0.367656484,0.183019501,0.3624073,-0.8366039
794,1988998,1455410,-0.505,-0.581,0.656,12.5,11.5,24.4,11.6,-12.7,-18,0.367992187,0.183507797,0.362163152,-0.836481826
795,1991748,1455410,-0.513,-0.581,0.652,12.5,11.4,23.7,11.6,-12.7,-18,0.368297372,0.183996094,0.361949522,-0.836329234
796,1994971,1455410,-0.509,-0.577,0.648,12.2,11.5,23.3,11.6,-12.7,-18,0.368572039,0.184514908,0.361705374,-0.83620716
797,1996420,1455420,-0.509,-0.561,0.652,11.7,11.6,22.8,11.6,-12.7,-18,0.368846706,0.184972686,0.361491745,-0.836054567
798,1998889,1455420,-0.505,-0.554,0.644,11.1,11.7,22.3,11.8,-12.7,-18,0.369121372,0.185460982,0.361308634,-0.835901975
799,2002430,1455420,-0.509,-0.55,0.64,10.3,11.6,21.7,11.8,-12.7,-18,0.369396039,0.185949278,0.361125523,-0.835779901
800,2003966,1455420,-0.504,-0.526,0.628,9.5,11.4,21.3,11.8,-12.7,-18,0.369609668,0.186376537,0.360942412,-0.835627308
801,2007054,1455430,-0.504,-0.518,0.632,8.6,11.4,20.8,11.8,-12.7,-18,0.369914853,0.186834315,0.360789819,-0.835474715
802,2009269,1455430,-0.5,-0.511,0.628,7.6,11.4,20.4,11.8,-12.7,-18,0.370159001,0.187261574,0.360667745,-0.835322123
803,2011491,1455430,-0.496,-0.495,0.612,6.4,11.3,20,11.8,-12.7,-18,0.37040315,0.187688833,0.360576189,-0.83516953
804,2014099,1455430,-0.488,-0.483,0.612,4.9,11,19.5,11.8,-12.7,-18,0.370647298,0.188085574,0.360484634,-0.835016938
805,2016407,1455440,-0.492,-0.475,0.604,3,10.8,19.1,11.8,-12.7,-18,0.370891446,0.188451796,0.360423597,-0.834833827
806,2019859,1455440,-0.488,-0.472,0.608,0.9,10.6,18.7,9.8,-12.8,-18,0.371166112,0.1887875,0.360423597,-0.834650716
807,2021705,1455440,-0.484,-0.456,0.6,-1.3,10.5,18.3,9.8,-12.8,-18,0.37141026,0.189123203,0.360454115,-0.834437086
808,2023871,1455440,-0.487,-0.448,0.596,-3.6,10.6,17.9,9.8,-12.8,-18,0.371684927,0.189428388,0.360545671,-0.834223457
809,2027036,1455450,-0.491,-0.44,0.6,-6,10.7,17.5,9.8,-12.8,-18,0.371929075,0.189733573,0.360667745,-0.833979308
810,2029139,1455450,-0.491,-0.436,0.588,-8.4,10.8,17.2,13.1,-12.9,-18.3,0.372203742,0.189977721,0.360850856,-0.83373516
811,2032263,1455450,-0.483,-0.425,0.592,-10.9,10.7,17,13.1,-12.9,-18.3,0.372478408,0.19022187,0.361064486,-0.833460494
812,2034125,1455450,-0.487,-0.424,0.584,-13.5,10.7,16.7,13.1,-12.9,-18.3,0.372753075,0.190435499,0.361308634,-0.833185827
813,2036434,1455460,-0.491,-0.42,0.584,-16,10.6,16.3,13.1,-12.9,-18.3,0.373027741,0.19061861,0.361613819,-0.832880642
814,2039881,1455460,-0.487,-0.417,0.584,-18.5,10.3,16,13.2,-12.8,-18,0.373302408,0.190801721,0.361980041,-0.832544939
815,2041715,1455460,-0.479,-0.417,0.576,-21.2,10.1,15.7,13.2,-12.8,-18,0.373607593,0.190923795,0.362376782,-0.832209235
816,2044056,1455460,-0.483,-0.409,0.58,-23.8,9.9,15.3,13.2,-12.8,-18,0.373912778,0.191045869,0.362834559,-0.831873531
817,2047477,1455470,-0.487,-0.413,0.573,-26.5,9.8,14.8,13.2,-12.8,-18,0.374217963,0.191106906,0.363322855,-0.831507309
818,2049776,1455470,-0.491,-0.409,0.573,-29,9.6,14.2,12.5,-12.6,-18.1,0.37449263,0.191167943,0.363872188,-0.831110569
819,2052793,1455470,-0.491,-0.405,0.581,-31.3,9.4,13.6,12.5,-12.6,-18.1,0.374797815,0.191198462,0.364482559,-0.830713828
820,2054950,1455470,-0.499,-0.408,0.577,-33.5,9.3,13.2,12.5,-12.6,-18.1,0.375103,0.191198462,0.365092929,-0.830286569
821,2056535,1455480,-0.495,-0.405,0.588,-35.5,9.1,12.7,12.5,-12.6,-18.1,0.375408185,0.191167943,0.365764336,-0.82985931
822,2059193,1455480,-0.499,-0.405,0.592,-37.2,8.9,12.3,12.6,-12.4,-18.4,0.375743889,0.191137425,0.366466262,-0.829432051
823,2061427,1455480,-0.499,-0.412,0.592,-38.6,8.7,11.9,12.6,-12.4,-18.4,0.376049074,0.191076388,0.367168188,-0.828974273
824,2064864,1455480,-0.503,-0.416,0.589,-39.9,8.5,11.5,12.6,-12.4,-18.4,0.376354259,0.190984832,0.36793115,-0.828547014
825,2067068,1455490,-0.511,-0.416,0.589,-40.9,8.1,11,12.6,-12.4,-18.4,0.376659444,0.190893277,0.368694113,-0.828089236
826,2069242,1455490,-0.519,-0.416,0.585,-42,7.7,10.4,11.3,-12.8,-18.4,0.376934111,0.190771203,0.369457076,-0.827631458
827,2071423,1455490,-0.523,-0.416,0.585,-42.8,7.2,9.8,11.3,-12.8,-18.4,0.377239296,0.19061861,0.370250557,-0.827173681
828,2073863,1455490,-0.531,-0.42,0.589,-43.6,6.8,9.3,11.3,-12.8,-18.4,0.377544481,0.190466018,0.371074557,-0.826715903
829,2077252,1455500,-0.531,-0.416,0.593,-43.8,6.3,8.7,11.3,-12.8,-18.4,0.377819147,0.190282907,0.371868038,-0.826258126
830,2079441,1455500,-0.543,-0.419,0.594,-43.8,5.9,8,10.5,-12.2,-18.1,0.378093814,0.190099796,0.372661519,-0.825800348
831,2081665,1455500,-0.547,-0.419,0.59,-43.4,5.4,7.3,10.5,-12.2,-18.1,0.37836848,0.189886166,0.373485519,-0.825373089
832,2083946,1455500,-0.555,-0.427,0.59,-42.9,4.9,6.8,10.5,-12.2,-18.1,0.378643147,0.189672536,0.374248482,-0.82494583
833,2086489,1455510,-0.559,-0.431,0.594,-42.2,4.4,6.2,10.5,-12.2,-18.1,0.378887295,0.189458907,0.375041963,-0.824518571
834,2089887,1455510,-0.563,-0.427,0.598,-41.5,3.9,5.6,9.7,-12.2,-18.6,0.379131443,0.189245277,0.375774407,-0.82412183
835,2091449,1455510,-0.567,-0.434,0.598,-40.8,3.2,4.9,9.7,-12.2,-18.6,0.379375591,0.189001129,0.37653737,-0.823725089
836,2094498,1455510,-0.571,-0.43,0.602,-39.8,2.5,4.3,9.7,-12.2,-18.6,0.379589221,0.188756981,0.377239296,-0.823358867
837,2096668,1455520,-0.575,-0.438,0.602,-38.7,1.8,3.6,9.7,-12.2,-18.6,0.37980285,0.188482315,0.377941221,-0.822992645
838,2099602,1455520,-0.583,-0.434,0.603,-37.4,1.3,2.9,8.3,-12,-18.6,0.379985961,0.188238166,0.378612629,-0.822656941
839,2101380,1455520,-0.587,-0.438,0.607,-36,0.7,2.2,8.3,-12,-18.6,0.380169073,0.1879635,0.379253517,-0.822351756
840,2104416,1455520,-0.591,-0.45,0.607,-34.5,0.2,1.5,8.3,-12,-18.6,0.380321665,0.187688833,0.379863887,-0.822046571
841,2106508,1455530,-0.599,-0.445,0.611,-32.9,-0.4,0.9,8.3,-12,-18.6,0.380504776,0.187414167,0.380443739,-0.821771905
842,2109123,1455530,-0.598,-0.445,0.615,-31.2,-1.2,0.4,7.8,-12.3,-18.7,0.38062685,0.1871395,0.380993072,-0.821497238
843,2111406,1455530,-0.602,-0.445,0.619,-29.8,-2,0,7.8,-12.3,-18.7,0.380779443,0.186864834,0.381511887,-0.82125309
844,2114880,1455530,-0.606,-0.437,0.623,-28.4,-2.8,-0.7,7.8,-12.3,-18.7,0.380901517,0.186559648,0.382000183,-0.82103946
845,2116363,1455540,-0.61,-0.437,0.631,-27.2,-3.6,-1.3,7.8,-12.3,-18.7,0.381023591,0.186254463,0.382488479,-0.820856349
846,2118973,1455540,-0.61,-0.437,0.627,-26,-4.5,-1.8,12.9,-13.1,-18.9,0.381145665,0.185949278,0.382915738,-0.820673238
847,2121406,1455540,-0.614,-0.437,0.631,-24.9,-5.6,-2.1,12.9,-13.1,-18.9,0.38123722,0.185613575,0.383281961,-0.820490127
848,2124279,1455540,-0.622,-0.429,0.639,-24,-6.4,-2.4,12.9,-13.1,-18.9,0.381328776,0.185277871,0.38370922,-0.820337535
849,2126543,1455550,-0.618,-0.425,0.639,-23.3,-7.1,-2.6,12.9,-13.1,-18.9,0.38145085,0.184942167,0.384075442,-0.820184942
850,2129825,1455550,-0.618,-0.425,0.639,-23.3,-7.1,-2.6,12.9,-13.1,-18.9,0.38145085,0.184942167,0.384075442,-0.820184942
851,2131688,1455550,-0.614,-0.425,0.646,-22.3,-8.3,-2.6,9.6,-10.9,-18.6,0.381817072,0.184453871,0.384594256,-0.819910276
852,2134802,1455550,-0.622,-0.429,0.647,-22,-9,-2.5,9.6,-10.9,-18.6,0.381939146,0.184087649,0.384899442,-0.819788202
853,2136513,1455560,-0.626,-0.429,0.651,-22,-9.6,-2.4,9.6,-10.9,-18.6,0.38206122,0.183721427,0.385235145,-0.819635609
854,2139119,1455560,-0.622,-0.429,0.65,-22.1,-10.2,-2.4,9.9,-10.5,-18.8,0.382183294,0.183324686,0.38554033,-0.819513535
855,2142343,1455560,-0.618,-0.433,0.654,-22.3,-10.8,-2.4,9.9,-10.5,-18.8,0.382305368,0.182927946,0.385876034,-0.819391461
856,2144595,1455560,-0.622,-0.437,0.662,-22.6,-11.4,-2.3,9.9,-10.5,-18.8,0.382457961,0.182500687,0.386181219,-0.819269387
857,2146835,1455570,-0.614,-0.441,0.666,-22.9,-11.9,-2.1,9.9,-10.5,-18.8,0.382610553,0.182073428,0.386516923,-0.819147313
858,2150123,1455570,-0.618,-0.437,0.678,-23.2,-12.5,-1.8,10.2,-10.8,-18.9,0.382793664,0.181646168,0.386822108,-0.819025239
859,2152479,1455570,-0.61,-0.449,0.685,-23.5,-13.1,-1.3,10.2,-10.8,-18.9,0.382976775,0.181218909,0.387157811,-0.818872646
860,2154624,1455570,-0.614,-0.453,0.689,-23.7,-13.4,-0.9,10.2,-10.8,-18.9,0.383159886,0.180761132,0.387462996,-0.818750572
861,2156838,1455580,-0.614,-0.457,0.697,-23.9,-13.7,-0.5,10.2,-10.8,-18.9,0.383342998,0.180303354,0.387768181,-0.81859798
862,2159027,1455580,-0.614,-0.457,0.701,-24.2,-14.1,-0.3,11.8,-10.4,-19.1,0.383556627,0.179845576,0.388103885,-0.818445387
863,2161469,1455580,-0.614,-0.457,0.701,-24.4,-14.4,-0.1,11.8,-10.4,-19.1,0.383770257,0.179387799,0.38840907,-0.818292795
864,2164852,1455580,-0.614,-0.453,0.713,-24.8,-14.5,0,11.8,-10.4,-19.1,0.384014405,0.178930021,0.388744774,-0.818140202
865,2166659,1455590,-0.622,-0.457,0.721,-25.2,-14.5,0.1,11.8,-10.4,-19.1,0.384228034,0.178441725,0.389049959,-0.817987609
866,2169823,1455590,-0.614,-0.461,0.717,-25.7,-14.5,0.1,11.4,-12.3,-19.5,0.384441664,0.177953429,0.389385662,-0.817835017
867,2172076,1455590,-0.61,-0.473,0.713,-26.2,-14.6,0.1,11.4,-12.3,-19.5,0.384685812,0.177495651,0.389751885,-0.817651906
868,2174201,1455590,-0.61,-0.484,0.721,-26.5,-14.8,0,11.4,-12.3,-19.5,0.384899442,0.176976836,0.390087588,-0.817499313
869,2176603,1455600,-0.607,-0.492,0.728,-26.2,-15.1,0,11.4,-12.3,-19.5,0.38514359,0.176519059,0.390423292,-0.817316202
870,2179262,1455600,-0.607,-0.492,0.728,-26.2,-15.1,0,11.4,-12.3,-19.5,0.38514359,0.176519059,0.390423292,-0.817316202
871,2181431,1455600,-0.595,-0.508,0.74,-24.5,-15.6,0.9,11.2,-10.9,-19.5,0.38575396,0.175572985,0.390728477,-0.817102573
872,2185611,1455600,-0.595,-0.516,0.74,-23.5,-16,1.5,11.2,-10.9,-19.5,0.385998108,0.175115207,0.391003143,-0.81694998
873,2187810,1455610,-0.595,-0.52,0.744,-22.7,-16.2,2.2,11.2,-10.9,-19.5,0.386272774,0.174626911,0.391247291,-0.816797388
874,2190141,1455610,-0.591,-0.524,0.744,-22,-16.3,2.7,11.2,-10.6,-19.6,0.386547441,0.174199652,0.39149144,-0.816644795
875,2191643,1455610,-0.595,-0.524,0.748,-21.4,-16.1,3.3,11.2,-10.6,-19.6,0.386822108,0.173741874,0.391735588,-0.816492203
876,2194500,1455610,-0.599,-0.528,0.756,-20.8,-15.9,3.8,11.2,-10.6,-19.6,0.387096774,0.173314615,0.391949217,-0.81633961
877,2196682,1455620,-0.595,-0.528,0.748,-20.3,-15.8,4.3,11.2,-10.6,-19.6,0.387401959,0.172887356,0.392162847,-0.816187017
878,2200419,1455620,-0.599,-0.52,0.744,-19.8,-15.5,4.8,11.5,-10.6,-19.3,0.387676626,0.172490616,0.392376476,-0.816034425
879,2202756,1455620,-0.603,-0.52,0.748,-19.3,-15.3,5.2,11.5,-10.6,-19.3,0.387981811,0.172093875,0.392559587,-0.815881832
880,2205001,1455620,-0.607,-0.512,0.748,-18.8,-15.1,5.8,11.5,-10.6,-19.3,0.388286996,0.171727653,0.392742698,-0.81572924
881,2207189,1455630,-0.607,-0.512,0.748,-18.2,-15,6.4,11.5,-10.6,-19.3,0.388592181,0.171361431,0.39292581,-0.815576647
882,2209444,1455630,-0.607,-0.504,0.752,-17.7,-15,6.9,10.9,-10.8,-19.7,0.388927885,0.170995209,0.393047884,-0.815424055
883,2211585,1455630,-0.611,-0.508,0.756,-17.2,-14.9,7.4,10.9,-10.8,-19.7,0.38923307,0.170659505,0.393230995,-0.815271462
884,2214240,1455630,-0.606,-0.5,0.756,-16.9,-14.7,7.9,10.9,-10.8,-19.7,0.389568773,0.170323801,0.393383587,-0.81511887
885,2216507,1455640,-0.606,-0.496,0.752,-16.6,-14.4,8.3,10.9,-10.8,-19.7,0.389904477,0.169988098,0.39353618,-0.814966277
886,2220542,1455640,-0.61,-0.492,0.76,-16.2,-14.1,8.8,10.7,-10.3,-19.6,0.390240181,0.169682913,0.393658254,-0.814783166
887,2222920,1455640,-0.602,-0.492,0.752,-15.9,-13.8,9.1,10.7,-10.3,-19.6,0.390575884,0.169377728,0.393810846,-0.814630573
888,2225146,1455640,-0.599,-0.5,0.756,-15.6,-13.6,9.6,10.7,-10.3,-19.6,0.390942106,0.169072542,0.39393292,-0.814477981
889,2227369,1455650,-0.599,-0.5,0.752,-15.1,-13.3,9.9,10.7,-10.3,-19.6,0.39127781,0.168797876,0.394054994,-0.81429487
890,2229191,1455650,-0.599,-0.5,0.752,-15.1,-13.3,9.9,10.7,-10.3,-19.6,0.39127781,0.168797876,0.394054994,-0.81429487
891,2231813,1455650,-0.602,-0.496,0.752,-13.9,-13.1,10.8,10.7,-12.3,-19.8,0.392223884,0.168156987,0.393475143,-0.814233833
892,2234033,1455650,-0.607,-0.5,0.744,-13.2,-12.9,11.1,10.7,-12.3,-19.8,0.392590106,0.167912839,0.393566698,-0.81408124
893,2237296,1455660,-0.61,-0.496,0.74,-12.5,-12.7,11.3,10.7,-12.3,-19.8,0.392956328,0.167668691,0.393627735,-0.813928648
894,2239631,1455660,-0.611,-0.5,0.74,-11.8,-12.6,11.4,10.8,-13,-19.9,0.393292032,0.167455061,0.393688772,-0.813776055
895,2241917,1455660,-0.606,-0.492,0.736,-11,-12.3,11.6,10.8,-13,-19.9,0.393658254,0.167210913,0.393749809,-0.813623463
896,2244145,1455660,-0.61,-0.492,0.736,-10.1,-12.1,11.7,10.8,-13,-19.9,0.393993957,0.167027802,0.393780328,-0.81347087
897,2246917,1455670,-0.599,-0.492,0.732,-9,-12,11.9,10.8,-13,-19.9,0.394360179,0.166844691,0.393780328,-0.813348796
898,2249041,1455670,-0.599,-0.496,0.732,-7.8,-12,12.2,10.5,-13.6,-20.1,0.394695883,0.16666158,0.393780328,-0.813196203
899,2253132,1455670,-0.603,-0.492,0.728,-6.6,-12,12.6,10.5,-13.6,-20.1,0.395062105,0.166508988,0.393749809,-0.813074129
900,2255470,1455670,-0.595,-0.485,0.724,-5.6,-11.9,13,10.5,-13.6,-20.1,0.395397809,0.166356395,0.393688772,-0.812982574
901,2257574,1455680,-0.595,-0.489,0.724,-4.7,-11.8,13.2,10.5,-13.6,-20.1,0.395764031,0.166234321,0.393627735,-0.8128605
902,2259117,1455680,-0.591,-0.481,0.72,-3.9,-11.8,13.4,10.1,-13.2,-20.2,0.396130253,0.166081729,0.393566698,-0.812738426
903,2262198,1455680,-0.595,-0.481,0.716,-3.1,-11.7,13.7,10.1,-13.2,-20.2,0.396465957,0.165959655,0.393444624,-0.81264687
904,2264031,1455680,-0.598,-0.473,0.712,-2.4,-11.6,13.9,10.1,-13.2,-20.2,0.396832179,0.165868099,0.393353069,-0.812555315
905,2268078,1455690,-0.598,-0.465,0.712,-1.9,-11.4,14.1,10.1,-13.2,-20.2,0.397198401,0.165776543,0.393230995,-0.812463759
906,2269718,1455690,-0.59,-0.469,0.701,-1.5,-11,14.1,10.3,-9.6,-18.4,0.397534104,0.165684988,0.393108921,-0.812341685
907,2271421,1455690,-0.594,-0.465,0.701,-1.3,-10.7,14.1,10.3,-9.6,-18.4,0.397900327,0.165593432,0.392986847,-0.81225013
908,2274928,1455690,-0.59,-0.465,0.693,-1,-10.4,14.1,10.3,-9.6,-18.4,0.39823603,0.165532395,0.392864772,-0.812158574
909,2276474,1455700,-0.586,-0.469,0.7,-0.6,-10.3,14.3,10.3,-9.6,-18.4,0.398571734,0.165471358,0.392742698,-0.812067019
910,2278816,1455700,-0.586,-0.469,0.7,-0.6,-10.3,14.3,10.3,-9.6,-18.4,0.398571734,0.165471358,0.392742698,-0.812067019
911,2282471,1455700,-0.587,-0.469,0.689,0.3,-10.2,14.5,10.6,-11.2,-21.5,0.399426252,0.165410321,0.392071291,-0.812005982
912,2283959,1455700,-0.583,-0.469,0.693,0.7,-10,14.5,10.6,-11.2,-21.5,0.399761956,0.165349284,0.391918699,-0.811914426
913,2286463,1455710,-0.583,-0.473,0.693,1.1,-9.8,14.3,10.6,-11.2,-21.5,0.400097659,0.165318766,0.391735588,-0.811822871
914,2289946,1455710,-0.575,-0.477,0.692,1.2,-9.5,14.2,10.1,-10.4,-21.8,0.400433363,0.165257729,0.391582995,-0.811761834
915,2291482,1455710,-0.567,-0.481,0.692,1.4,-9.3,14.3,10.1,-10.4,-21.8,0.400769066,0.165257729,0.391430403,-0.811670278
916,2294706,1455710,-0.571,-0.481,0.684,1.6,-9.1,14.4,10.1,-10.4,-21.8,0.401074252,0.16522721,0.39127781,-0.811578722
917,2296962,1455720,-0.567,-0.485,0.684,1.8,-8.9,14.4,10.1,-10.4,-21.8,0.401409955,0.16522721,0.391094699,-0.811517685
918,2299110,1455720,-0.567,-0.485,0.684,1.9,-8.6,14.4,10.6,-9.6,-21.6,0.401745659,0.165196692,0.390942106,-0.81142613
919,2301449,1455720,-0.563,-0.489,0.68,1.8,-8.4,14.4,10.6,-9.6,-21.6,0.402050844,0.165196692,0.390789514,-0.811365093
920,2303993,1455720,-0.571,-0.489,0.673,1.7,-8.1,14.4,10.6,-9.6,-21.6,0.402386547,0.165196692,0.390636921,-0.811273537
921,2306399,1455730,-0.567,-0.485,0.673,1.6,-7.8,14.3,10.6,-9.6,-21.6,0.402691733,0.165166173,0.390484329,-0.811181982
922,2309715,1455730,-0.571,-0.485,0.673,1.6,-7.5,14.1,10.2,-10,-21.6,0.402996918,0.165166173,0.390331736,-0.811090426
923,2311382,1455730,-0.575,-0.489,0.669,1.5,-7.4,13.9,10.2,-10,-21.6,0.403302103,0.165196692,0.390179144,-0.811029389
924,2313967,1455730,-0.575,-0.489,0.669,1.6,-7.2,13.6,10.2,-10,-21.6,0.403607288,0.165196692,0.39005707,-0.810937834
925,2317206,1455740,-0.575,-0.493,0.665,1.6,-7,13.4,10.2,-10,-21.6,0.403881954,0.165196692,0.389904477,-0.810876797
926,2319380,1455740,-0.575,-0.493,0.665,1.6,-6.8,13.2,10,-11.3,-20,0.40418714,0.165196692,0.389782403,-0.810785241
927,2321662,1455740,-0.571,-0.493,0.665,1.4,-6.6,13.1,10,-11.3,-20,0.404461806,0.165196692,0.38962981,-0.810693686
928,2323978,1455740,-0.575,-0.489,0.657,1.3,-6.5,13.1,10,-11.3,-20,0.404736473,0.165196692,0.389507736,-0.810632649
929,2326593,1455750,-0.571,-0.493,0.653,1.1,-6.4,13,10,-11.3,-20,0.405041658,0.16522721,0.389385662,-0.810541093
930,2329038,1455750,-0.571,-0.493,0.653,1.1,-6.4,13,10,-11.3,-20,0.405041658,0.16522721,0.389385662,-0.810541093
931,2333014,1455750,-0.567,-0.489,0.649,0.9,-6.3,12.8,9.7,-11.4,-20,0.405621509,0.165135655,0.388927885,-0.810480056
932,2334929,1455750,-0.567,-0.485,0.641,0.9,-6.3,12.6,9.7,-11.4,-20,0.405896176,0.165135655,0.388805811,-0.810388501
933,2336512,1455760,-0.571,-0.489,0.649,0.8,-6.3,12.6,9.7,-11.4,-20,0.406170843,0.165135655,0.388683737,-0.810327464
934,2339168,1455760,-0.571,-0.481,0.638,0.4,-6,12.5,9.6,-11.3,-19.2,0.406445509,0.165135655,0.388592181,-0.810235908
935,2341479,1455760,-0.571,-0.481,0.638,0,-5.6,12.3,9.6,-11.3,-19.2,0.406720176,0.165135655,0.388500626,-0.810144353
936,2344150,1455760,-0.571,-0.477,0.638,-0.4,-5.3,12,9.6,-11.3,-19.2,0.406994842,0.165135655,0.38840907,-0.810052797
937,2346585,1455770,-0.571,-0.477,0.634,-0.7,-5.3,11.7,9.6,-11.3,-19.2,0.40723899,0.165135655,0.388317515,-0.809961241
938,2350595,1455770,-0.571,-0.481,0.641,-1,-5.1,11.5,9.4,-11.3,-18.6,0.407483139,0.165135655,0.388256478,-0.809869686
939,2352795,1455770,-0.571,-0.481,0.641,-1.1,-5,11.4,9.4,-11.3,-18.6,0.407727287,0.165135655,0.388195441,-0.80977813
940,2355115,1455770,-0.571,-0.493,0.642,-1.2,-4.8,11.1,9.4,-11.3,-18.6,0.407971435,0.165135655,0.388134404,-0.809686575
941,2357441,1455780,-0.571,-0.497,0.642,-1.3,-4.7,10.9,9.4,-11.3,-18.6,0.408215583,0.165135655,0.388073366,-0.809564501
942,2359627,1455780,-0.563,-0.501,0.641,-1.3,-4.6,10.7,9.6,-11.3,-17.7,0.408459731,0.165135655,0.388012329,-0.809503464
943,2361502,1455780,-0.563,-0.505,0.649,-1.5,-4.5,10.5,9.6,-11.3,-17.7,0.40867336,0.165105136,0.387981811,-0.809411908
944,2364197,1455780,-0.564,-0.509,0.645,-1.7,-4.4,10.3,9.6,-11.3,-17.7,0.408917508,0.165105136,0.387920774,-0.809320353
945,2366548,1455790,-0.564,-0.517,0.649,-1.9,-4.3,10,9.6,-11.3,-17.7,0.409131138,0.165105136,0.387890255,-0.809228797
946,2369874,1455790,-0.564,-0.513,0.645,-1.9,-4.2,9.6,9.7,-11.4,-22.4,0.409344768,0.165105136,0.387829218,-0.809137242
947,2372113,1455790,-0.56,-0.521,0.641,-2,-4.1,9.2,9.7,-11.4,-22.4,0.409558397,0.165074618,0.3877987,-0.809045686
948,2374091,1455790,-0.564,-0.521,0.637,-2.1,-3.9,9,9.7,-11.4,-22.4,0.409741508,0.165074618,0.387768181,-0.808984649
949,2376673,1455800,-0.56,-0.521,0.645,-2.1,-3.8,8.7,9.7,-11.4,-22.4,0.409955138,0.165044099,0.387737663,-0.808893094
950,2378953,1455800,-0.56,-0.521,0.645,-2.1,-3.8,8.7,9.7,-11.4,-22.4,0.409955138,0.165044099,0.387737663,-0.808893094
951,2381382,1455800,-0.564,-0.521,0.641,-1.8,-3.4,8.1,9.5,-11.2,-19.3,0.410138249,0.164677877,0.387859737,-0.808801538
952,2384706,1455800,-0.56,-0.521,0.645,-1.5,-3.2,7.8,9.5,-11.2,-19.3,0.41032136,0.164677877,0.387829218,-0.808740501
953,2386497,1455810,-0.56,-0.525,0.641,-1,-3.1,7.6,9.5,-11.2,-19.3,0.410473952,0.164677877,0.3877987,-0.808679464
954,2389955,1455810,-0.56,-0.521,0.641,-0.7,-3,7.4,10.2,-11.4,-19.6,0.410626545,0.164677877,0.387737663,-0.808618427
955,2391468,1455810,-0.56,-0.525,0.641,-0.3,-2.9,7.3,10.2,-11.4,-19.6,0.410809656,0.164677877,0.387707144,-0.80855739
956,2394062,1455810,-0.556,-0.521,0.645,-0.1,-2.7,7.3,10.2,-11.4,-19.6,0.410962249,0.164708396,0.387646107,-0.808496353
957,2396468,1455820,-0.556,-0.529,0.645,0,-2.5,7,10.2,-11.4,-19.6,0.411084323,0.164708396,0.387615589,-0.808435316
958,2399705,1455820,-0.552,-0.525,0.641,0.1,-2.4,6.8,9.9,-11.3,-20.1,0.411236915,0.164738914,0.387554552,-0.808404798
959,2401998,1455820,-0.556,-0.525,0.641,0.1,-2.3,6.5,9.9,-11.3,-20.1,0.411358989,0.164738914,0.387524033,-0.80834376
960,2404119,1455820,-0.552,-0.517,0.637,0.1,-2.2,6.3,9.9,-11.3,-20.1,0.411511582,0.164769433,0.387462996,-0.808282723
961,2407122,1455830,-0.552,-0.517,0.641,0,-2.1,6.3,9.9,-11.3,-20.1,0.411633656,0.164769433,0.387432478,-0.808252205
962,2408948,1455830,-0.556,-0.513,0.633,-0.3,-1.9,6.2,9.7,-11.1,-21.1,0.41175573,0.164799951,0.387401959,-0.808191168
963,2411777,1455830,-0.552,-0.513,0.637,-0.6,-1.6,6.2,9.7,-11.1,-21.1,0.411877804,0.164799951,0.387371441,-0.808130131
964,2414811,1455830,-0.556,-0.509,0.637,-0.9,-1.4,6.2,9.7,-11.1,-21.1,0.411999878,0.16483047,0.387340922,-0.808069094
965,2416436,1455840,-0.556,-0.509,0.641,-1.3,-1.1,6.1,9.7,-11.1,-21.1,0.412121952,0.16483047,0.387340922,-0.808008057
966,2419172,1455840,-0.556,-0.505,0.633,-2,-0.9,6,9.4,-11.6,-20.3,0.412244026,0.164860988,0.387340922,-0.80794702
967,2422342,1455840,-0.56,-0.501,0.63,-2.7,-0.7,6,9.4,-11.6,-20.3,0.4123661,0.164860988,0.387371441,-0.807855464
968,2423990,1455840,-0.56,-0.505,0.633,-3.6,-0.5,6,9.4,-11.6,-20.3,0.412518693,0.164891507,0.387401959,-0.807794427
969,2426498,1455850,-0.563,-0.497,0.63,-4.5,-0.3,6,9.4,-11.6,-20.3,0.412640767,0.164891507,0.387462996,-0.807702872
970,2429703,1455850,-0.563,-0.497,0.63,-4.5,-0.3,6,9.4,-11.6,-20.3,0.412640767,0.164891507,0.387462996,-0.807702872
971,2431493,1455850,-0.571,-0.489,0.622,-6,-0.1,5.7,9.5,-11.4,-19.7,0.412762841,0.164586322,0.387768181,-0.807550279
972,2434939,1455850,-0.567,-0.489,0.622,-6.6,-0.1,5.6,9.5,-11.4,-19.7,0.412884915,0.164586322,0.387859737,-0.807458724
973,2436513,1455860,-0.567,-0.489,0.622,-7.1,-0.1,5.5,9.5,-11.4,-19.7,0.413006989,0.164555803,0.387951292,-0.80733665
974,2439560,1455860,-0.571,-0.489,0.622,-7.7,0,5.3,9.6,-10.9,-19.8,0.413129063,0.164525285,0.388073366,-0.807214576
975,2442498,1455860,-0.579,-0.485,0.618,-8.2,0.1,5.1,9.6,-10.9,-19.8,0.413251137,0.164494766,0.388195441,-0.807092502
976,2444003,1455860,-0.571,-0.485,0.618,-8.7,0.1,4.8,9.6,-10.9,-19.8,0.413373211,0.164464248,0.388348033,-0.806970428
977,2446564,1455870,-0.579,-0.485,0.614,-9.2,0.2,4.5,9.6,-10.9,-19.8,0.413464766,0.164433729,0.388500626,-0.806878872
978,2448863,1455870,-0.579,-0.481,0.622,-9.6,0.3,4.3,9.4,-11,-20.5,0.41358684,0.164372692,0.388653218,-0.806726279
979,2452104,1455870,-0.579,-0.485,0.614,-10.1,0.4,4.1,9.4,-11,-20.5,0.413678396,0.164342174,0.388805811,-0.806604205
980,2453851,1455870,-0.579,-0.481,0.622,-10.4,0.4,3.9,9.4,-11,-20.5,0.41380047,0.164281137,0.388988922,-0.806482131
981,2457489,1455880,-0.579,-0.477,0.618,-10.7,0.3,3.6,9.4,-11,-20.5,0.413892026,0.164220099,0.389141514,-0.806360057
982,2458962,1455880,-0.583,-0.477,0.618,-11,0.2,3.3,9.5,-11.2,-20.2,0.413983581,0.164159062,0.389355144,-0.806237983
983,2462033,1455880,-0.583,-0.477,0.622,-11.2,0.1,2.9,9.5,-11.2,-20.2,0.414075137,0.164098025,0.389538255,-0.806115909
984,2464298,1455880,-0.583,-0.473,0.618,-11.2,0.1,2.6,9.5,-11.2,-20.2,0.414166692,0.16400647,0.389721366,-0.805993835
985,2467092,1455890,-0.583,-0.473,0.626,-11.2,0.1,2.3,9.5,-11.2,-20.2,0.414227729,0.163945433,0.389904477,-0.805871761
986,2469347,1455890,-0.583,-0.469,0.614,-11.2,0,2,8.9,-11.5,-20.2,0.414319285,0.163853877,0.390118107,-0.805780206
987,2472441,1455890,-0.579,-0.473,0.618,-11.1,0,1.5,8.9,-11.5,-20.2,0.414380322,0.163762322,0.390301218,-0.805658132
988,2473905,1455890,-0.583,-0.469,0.622,-11,0,1.1,8.9,-11.5,-20.2,0.414441359,0.163670766,0.390484329,-0.805566576
989,2476553,1455900,-0.579,-0.469,0.626,-10.9,-0.1,0.8,8.9,-11.5,-20.2,0.414502396,0.163579211,0.39066744,-0.805444502
990,2479973,1455900,-0.579,-0.469,0.626,-10.9,-0.1,0.8,8.9,-11.5,-20.2,0.414502396,0.163579211,0.39066744,-0.805444502
991,2482222,1455900,-0.579,-0.473,0.63,-10.3,-0.3,0.1,10.2,-10.7,-20.6,0.414685507,0.163640248,0.390972625,-0.805200354
992,2484452,1455900,-0.583,-0.481,0.63,-10,-0.4,-0.1,10.2,-10.7,-20.6,0.414716025,0.163548692,0.391155736,-0.805108798
993,2486808,1455910,-0.579,-0.489,0.638,-9.5,-0.3,-0.3,10.2,-10.7,-20.6,0.414746544,0.163457137,0.391308329,-0.805017243
994,2488996,1455910,-0.583,-0.501,0.642,-8.9,-0.3,-0.5,10.1,-11.3,-20.3,0.414777062,0.163365581,0.39149144,-0.804956206
995,2491430,1455910,-0.579,-0.505,0.646,-8.4,-0.3,-0.8,10.1,-11.3,-20.3,0.414807581,0.163274026,0.391613514,-0.804895169
996,2493965,1455910,-0.579,-0.501,0.642,-7.8,-0.4,-1,10.1,-11.3,-20.3,0.414807581,0.16318247,0.391766106,-0.804834132
997,2497135,1455920,-0.583,-0.505,0.646,-7.4,-0.5,-1.3,10.1,-11.3,-20.3,0.414807581,0.163090915,0.39188818,-0.804803613
998,2499098,1455920,-0.579,-0.501,0.642,-6.9,-0.7,-1.6,10.2,-10.8,-20.4,0.414838099,0.162999359,0.392010254,-0.804742576
999,2502517,1455920,-0.579,-0.505,0.638,-6.6,-0.7,-1.7,10.2,-10.8,-20.4,0.414838099,0.162907804,0.392132328,-0.804712058
1000,2503965,1455920,-0.587,-0.505,0.642,-6.3,-0.8,-1.9,10.2,-10.8,-20.4,0.414807581,0.162816248,0.392254402,-0.804681539
1001,2507041,1455930,-0.583,-0.501,0.642,-5.8,-0.8,-2.2,10.2,-10.8,-20.4,0.414807581,0.162724693,0.392345958,-0.804651021
1002,2510056,1455930,-0.587,-0.501,0.646,-5.1,-0.8,-2.4,10.5,-11.3,-20.3,0.414777062,0.162663656,0.392437513,-0.804620502
1003,2511495,1455930,-0.587,-0.505,0.65,-4.4,-1,-2.4,10.5,-11.3,-20.3,0.414777062,0.1625721,0.39249855,-0.804620502
1004,2514492,1455930,-0.587,-0.501,0.642,-3.8,-1.1,-2.4,10.5,-11.3,-20.3,0.414746544,0.162480544,0.392590106,-0.804620502
1005,2517477,1455940,-0.591,-0.505,0.65,-3.3,-1.1,-2.4,10.5,-11.3,-20.3,0.414746544,0.162419507,0.392651143,-0.804620502
1006,2518919,1455940,-0.595,-0.501,0.646,-2.9,-1,-2.4,7.7,-11.5,-20.5,0.414716025,0.162327952,0.392681661,-0.804620502
1007,2521455,1455940,-0.591,-0.505,0.65,-2.7,-1.1,-2.5,7.7,-11.5,-20.5,0.414685507,0.162297433,0.392742698,-0.804620502
1008,2524961,1455940,-0.591,-0.501,0.654,-2.5,-1.2,-2.5,7.7,-11.5,-20.5,0.414654988,0.162236396,0.392773217,-0.804620502
1009,2526532,1455950,-0.595,-0.504,0.658,-2.4,-1.2,-2.6,7.7,-11.5,-20.5,0.41462447,0.162144841,0.392803735,-0.804620502
1010,2529931,1455950,-0.595,-0.504,0.658,-2.4,-1.2,-2.6,7.7,-11.5,-20.5,0.41462447,0.162144841,0.392803735,-0.804620502
1011,2531450,1455950,-0.599,-0.504,0.662,-2.4,-1.2,-2.6,11.2,-11.3,-20.2,0.414593951,0.162022767,0.392864772,-0.804651021
1012,2534480,1455950,-0.599,-0.5,0.666,-2.4,-1.2,-2.6,11.2,-11.3,-20.2,0.414532914,0.16196173,0.392895291,-0.804651021
1013,2537489,1455960,-0.599,-0.5,0.67,-2.5,-1.3,-2.5,11.2,-11.3,-20.2,0.414532914,0.161900693,0.39292581,-0.804681539
1014,2538939,1455960,-0.599,-0.512,0.67,-2.4,-1.3,-2.2,10.8,-11,-20.3,0.414532914,0.161839656,0.392986847,-0.804681539
1015,2541973,1455960,-0.599,-0.512,0.674,-2.5,-1.3,-1.8,10.8,-11,-20.3,0.414502396,0.1617481,0.393017365,-0.804681539
1016,2544756,1455960,-0.599,-0.508,0.677,-2.7,-1.3,-1.6,10.8,-11,-20.3,0.414502396,0.161687063,0.393047884,-0.804681539
