sample_index,elapsed_us,device_time_ms,acc_x_g,acc_y_g,acc_z_g,gyro_x_dps,gyro_y_dps,gyro_z_dps,mag_x_ut,mag_y_ut,mag_z_ut,quat_w,quat_x,quat_y,quat_z
0,2527,1335560,-0.637,-0.586,0.538,0.2,1.5,-1.2,6.4,-5.2,-24.3,0.498733482,0.104525895,0.472579119,-0.718985565
1,4917,1335560,-0.637,-0.59,0.534,0.2,1.5,-1.2,6.4,-5.2,-24.3,0.498672445,0.104556413,0.472579119,-0.719016083
2,8997,1335570,-0.633,-0.598,0.534,0.2,1.6,-1.2,6.4,-5.2,-24.3,0.498641926,0.104556413,0.472609638,-0.719016083
3,10586,1335570,-0.637,-0.594,0.538,0.5,1.7,-1.2,6.6,-5.3,-24.2,0.498611408,0.104586932,0.472609638,-0.719046602
4,13516,1335570,-0.629,-0.602,0.542,0.8,1.7,-1.2,6.6,-5.3,-24.2,0.498580889,0.104586932,0.472640156,-0.719046602
5,15006,1335570,-0.629,-0.602,0.538,1.3,1.8,-1.1,6.6,-5.3,-24.2,0.498519852,0.104647969,0.472640156,-0.71907712
6,18099,1335580,-0.637,-0.594,0.542,1.8,1.8,-1.3,6.6,-5.3,-24.2,0.498489334,0.104678488,0.472640156,-0.719107639
7,20302,1335580,-0.629,-0.598,0.538,2.2,1.8,-1.4,6.7,-5.4,-24.3,0.498428297,0.104709006,0.472609638,-0.719138157
8,23804,1335580,-0.633,-0.598,0.542,2.6,1.8,-1.5,6.7,-5.4,-24.3,0.498397778,0.104770043,0.472609638,-0.719199194
9,25402,1335580,-0.633,-0.594,0.542,3,1.8,-1.5,6.7,-5.4,-24.3,0.498336741,0.104800562,0.472579119,-0.719229713
10,27588,1335590,-0.625,-0.586,0.542,3.3,1.7,-1.5,6.7,-5.4,-24.3,0.498275704,0.104861599,0.472548601,-0.71929075
11,30693,1335590,-0.633,-0.586,0.534,3.6,1.8,-1.4,6,-5.3,-23.9,0.498245186,0.104892117,0.472518082,-0.719321268
12,33741,1335590,-0.633,-0.582,0.538,3.7,1.9,-1.2,6,-5.3,-23.9,0.498184149,0.104953154,0.472487564,-0.719382305
13,35382,1335590,-0.633,-0.578,0.534,3.8,2.1,-1.1,6,-5.3,-23.9,0.49815363,0.105014191,0.472457045,-0.719412824
14,37400,1335600,-0.629,-0.578,0.534,3.9,2.1,-0.9,6,-5.3,-23.9,0.498092593,0.105075228,0.472396008,-0.719473861
15,39946,1335600,-0.629,-0.578,0.534,3.9,2.1,-0.9,6,-5.3,-23.9,0.498092593,0.105075228,0.472396008,-0.719473861
16,43363,1335600,-0.633,-0.578,0.534,3.8,2.1,-0.8,4.6,-5.9,-24.3,0.498031556,0.105258339,0.472334971,-0.719534898
17,44940,1335600,-0.625,-0.575,0.53,3.6,2,-0.6,4.6,-5.9,-24.3,0.497970519,0.105319376,0.472304453,-0.719595935
18,47500,1335610,-0.625,-0.579,0.542,3.3,2.2,-0.5,4.6,-5.9,-24.3,0.497940001,0.105380413,0.472273934,-0.719626453
19,50938,1335610,-0.629,-0.571,0.534,3,2.3,-0.3,6.4,-5.8,-24.2,0.497909482,0.105471969,0.472243416,-0.719656972
20,52502,1335610,-0.629,-0.575,0.53,2.7,2.6,-0.3,6.4,-5.8,-24.2,0.497848445,0.105533006,0.472243416,-0.71968749
21,55460,1335610,-0.625,-0.579,0.53,2.5,2.7,-0.3,6.4,-5.8,-24.2,0.497817927,0.105563524,0.472243416,-0.71968749
22,58453,1335620,-0.629,-0.575,0.538,2.3,2.6,-0.3,6.4,-5.8,-24.2,0.497787408,0.10565508,0.472212897,-0.719718009
23,60501,1335620,-0.629,-0.575,0.534,2.1,2.7,-0.2,6.3,-5.9,-24.2,0.49775689,0.105716117,0.472212897,-0.719718009
24,62780,1335620,-0.625,-0.575,0.53,1.9,2.8,-0.1,6.3,-5.9,-24.2,0.497695853,0.105777154,0.472212897,-0.719718009
25,65032,1335620,-0.633,-0.574,0.542,1.8,2.9,0,6.3,-5.9,-24.2,0.497665334,0.105838191,0.472212897,-0.719779046
26,67674,1335630,-0.625,-0.579,0.538,1.8,3.1,0,6.3,-5.9,-24.2,0.497634816,0.105929746,0.472243416,-0.719779046
27,70043,1335630,-0.625,-0.575,0.538,1.6,3.3,0.1,6.3,-5.5,-24.1,0.497604297,0.105990783,0.472243416,-0.719779046
28,73970,1335630,-0.633,-0.574,0.538,1.5,3.5,0.1,6.3,-5.5,-24.1,0.497573778,0.10605182,0.472243416,-0.719779046
29,76197,1335630,-0.625,-0.575,0.538,1.3,3.7,0.1,6.3,-5.5,-24.1,0.497512741,0.106143376,0.472273934,-0.719809565
30,78499,1335640,-0.629,-0.575,0.538,1.2,3.7,0.2,6.3,-5.5,-24.1,0.497482223,0.106204413,0.472304453,-0.719809565
31,80742,1335640,-0.629,-0.571,0.534,1.3,3.7,0.3,5.9,-5.9,-24.2,0.497451704,0.106295969,0.472304453,-0.719809565
32,82929,1335640,-0.625,-0.575,0.538,1.3,3.7,0.3,5.9,-5.9,-24.2,0.497421186,0.106387524,0.472334971,-0.719809565
33,85199,1335640,-0.625,-0.575,0.538,1.5,3.8,0.4,5.9,-5.9,-24.2,0.497390667,0.106448561,0.472334971,-0.719809565
34,87429,1335650,-0.625,-0.575,0.542,1.7,3.9,0.4,5.9,-5.9,-24.2,0.49732963,0.106540117,0.47236549,-0.719809565
35,90046,1335650,-0.625,-0.575,0.542,1.7,3.9,0.4,5.9,-5.9,-24.2,0.49732963,0.106540117,0.47236549,-0.719809565
36,93435,1335650,-0.625,-0.575,0.538,2,4,0.4,6.2,-5.6,-23.9,0.497299112,0.106723228,0.472304453,-0.719840083
37,95550,1335650,-0.625,-0.583,0.538,2.1,4,0.3,6.2,-5.6,-23.9,0.497268593,0.106814783,0.472304453,-0.719840083
38,97613,1335660,-0.621,-0.583,0.538,2.1,4.2,0.3,6.2,-5.6,-23.9,0.497207556,0.106906339,0.472334971,-0.719870602
39,99923,1335660,-0.621,-0.579,0.538,2.1,4.2,0.4,3.8,-5.9,-23.8,0.497177038,0.107028413,0.472334971,-0.719870602
40,103588,1335660,-0.621,-0.583,0.538,2.2,4.2,0.5,3.8,-5.9,-23.8,0.497146519,0.107119968,0.472334971,-0.719870602
41,105106,1335660,-0.621,-0.583,0.538,2.2,4.2,0.6,3.8,-5.9,-23.8,0.497085482,0.107211524,0.47236549,-0.719870602
42,107593,1335670,-0.625,-0.575,0.534,2.2,4.3,0.6,3.8,-5.9,-23.8,0.497054964,0.107303079,0.47236549,-0.71990112
43,109975,1335670,-0.629,-0.579,0.53,2.4,4.3,0.4,2.9,-5.9,-24.1,0.497024445,0.107394635,0.47236549,-0.71990112
44,113188,1335670,-0.621,-0.575,0.538,2.6,4.3,0.4,2.9,-5.9,-24.1,0.496963408,0.107516709,0.47236549,-0.71990112
45,116049,1335670,-0.625,-0.575,0.538,2.8,4.3,0.3,2.9,-5.9,-24.1,0.49693289,0.107608264,0.47236549,-0.719931639
46,117530,1335680,-0.621,-0.575,0.538,2.9,4.2,0.2,2.9,-5.9,-24.1,0.496871853,0.10769982,0.47236549,-0.719931639
47,120393,1335680,-0.625,-0.571,0.538,3.1,4.1,0.2,2.8,-6.1,-23.9,0.496841334,0.107821894,0.47236549,-0.719962157
48,123174,1335680,-0.625,-0.571,0.542,3.3,4.2,0.1,2.8,-6.1,-23.9,0.496780297,0.10791345,0.47236549,-0.719992676
49,126196,1335680,-0.625,-0.575,0.538,3.5,4.2,0.1,2.8,-6.1,-23.9,0.49671926,0.108005005,0.47236549,-0.720023194
50,127672,1335690,-0.625,-0.579,0.542,3.7,4.1,0,2.8,-6.1,-23.9,0.496688742,0.108127079,0.472334971,-0.720053713
51,129958,1335690,-0.625,-0.583,0.534,3.8,4.1,0,2.8,-6,-24.1,0.496627705,0.108249153,0.472334971,-0.720084231
52,133018,1335690,-0.625,-0.579,0.538,3.7,4,0,2.8,-6,-24.1,0.496566668,0.108340709,0.472304453,-0.720084231
53,135301,1335690,-0.629,-0.582,0.534,3.6,4.1,0,2.8,-6,-24.1,0.496536149,0.108462783,0.472304453,-0.72011475
54,137562,1335700,-0.625,-0.583,0.538,3.4,4.3,0,2.8,-6,-24.1,0.496475112,0.108554338,0.472304453,-0.720145268
55,139904,1335700,-0.625,-0.583,0.538,3.4,4.3,0,2.8,-6,-24.1,0.496475112,0.108554338,0.472304453,-0.720145268
56,144190,1335700,-0.629,-0.578,0.534,3.2,4.5,-0.3,7.2,-7.4,-24,0.49632252,0.108676412,0.472273934,-0.720236824
57,146438,1335700,-0.625,-0.579,0.538,3.1,4.5,-0.4,7.2,-7.4,-24,0.496261483,0.108767968,0.472273934,-0.720267342
58,148627,1335710,-0.629,-0.578,0.538,3,4.6,-0.5,7.2,-7.4,-24,0.496200446,0.108890042,0.472273934,-0.720297861
59,150126,1335710,-0.629,-0.582,0.538,3.1,4.6,-0.5,5.1,-4.2,-23.6,0.496139409,0.108981597,0.472273934,-0.720328379
60,152517,1335710,-0.629,-0.582,0.538,3.1,4.5,-0.5,5.1,-4.2,-23.6,0.496078372,0.109073153,0.472273934,-0.720358898
61,155120,1335710,-0.629,-0.586,0.53,3.1,4.5,-0.4,5.1,-4.2,-23.6,0.496017335,0.109164708,0.472273934,-0.720389416
62,159048,1335720,-0.629,-0.586,0.53,3,4.3,-0.3,5.1,-4.2,-23.6,0.495956297,0.109286782,0.472273934,-0.720389416
63,160737,1335720,-0.625,-0.59,0.526,3,4.3,-0.3,5.9,-4.6,-23.6,0.49589526,0.109378338,0.472273934,-0.720419935
64,162671,1335720,-0.629,-0.59,0.53,3.1,4.2,-0.3,5.9,-4.6,-23.6,0.495834223,0.109469893,0.472273934,-0.720450453
65,166038,1335720,-0.629,-0.594,0.534,3.2,4.1,-0.5,5.9,-4.6,-23.6,0.495773186,0.109561449,0.472273934,-0.720480972
66,167488,1335730,-0.629,-0.59,0.526,3.4,4.1,-0.5,5.9,-4.6,-23.6,0.495712149,0.109653005,0.472273934,-0.72051149
67,169936,1335730,-0.633,-0.586,0.526,3.5,4.1,-0.7,6.3,-4.5,-23.9,0.495651112,0.109775079,0.472243416,-0.720542009
68,173468,1335730,-0.629,-0.586,0.534,3.5,4.1,-0.8,6.3,-4.5,-23.9,0.495590075,0.109866634,0.472243416,-0.720572527
69,175324,1335730,-0.629,-0.582,0.522,3.5,4.1,-0.8,6.3,-4.5,-23.9,0.495529038,0.10995819,0.472243416,-0.720633564
70,177500,1335740,-0.629,-0.586,0.53,3.6,4.1,-0.8,6.3,-4.5,-23.9,0.495468001,0.110049745,0.472243416,-0.720664083
71,180889,1335740,-0.629,-0.579,0.526,3.6,4,-0.9,7,-4.1,-23.7,0.495406964,0.110141301,0.472212897,-0.720694601
72,182471,1335740,-0.629,-0.582,0.534,3.6,4,-0.8,7,-4.1,-23.7,0.495345927,0.110232856,0.472212897,-0.72072512
73,185226,1335740,-0.625,-0.579,0.526,3.5,3.9,-0.9,7,-4.1,-23.7,0.49528489,0.110324412,0.472182379,-0.720786157
74,188305,1335750,-0.625,-0.575,0.534,3.5,3.8,-0.9,7,-4.1,-23.7,0.495193335,0.110415967,0.472182379,-0.720816675
75,190496,1335750,-0.625,-0.575,0.534,3.5,3.8,-0.9,7,-4.1,-23.7,0.495193335,0.110415967,0.472182379,-0.720816675
76,192859,1335750,-0.625,-0.575,0.534,3.5,3.7,-0.6,5.8,-6,-24.3,0.495071261,0.110538041,0.472182379,-0.720877712
77,194974,1335750,-0.629,-0.575,0.526,3.4,3.8,-0.4,5.8,-6,-24.3,0.495010224,0.110629597,0.472182379,-0.720938749
78,197381,1335760,-0.629,-0.575,0.53,3.2,4,-0.3,5.8,-6,-24.3,0.494949187,0.110721152,0.47215186,-0.720938749
79,201054,1335760,-0.625,-0.575,0.53,2.9,4,-0.3,5.8,-6.1,-24.2,0.49488815,0.110812708,0.47215186,-0.720969268
80,202805,1335760,-0.633,-0.571,0.53,2.6,3.9,-0.3,5.8,-6.1,-24.2,0.494857631,0.110904263,0.47215186,-0.720999786
81,205021,1335760,-0.629,-0.567,0.53,2.4,3.7,-0.4,5.8,-6.1,-24.2,0.494796594,0.110995819,0.47215186,-0.721030305
82,207554,1335770,-0.633,-0.571,0.53,2.4,3.6,-0.4,5.8,-6.1,-24.2,0.494735557,0.111056856,0.472182379,-0.721030305
83,210292,1335770,-0.633,-0.571,0.53,2.3,3.5,-0.3,5.9,-6.8,-24.3,0.494705039,0.111148412,0.472182379,-0.721060823
84,213405,1335770,-0.629,-0.575,0.53,2.1,3.5,-0.3,5.9,-6.8,-24.3,0.494613483,0.111239967,0.472182379,-0.721091342
85,215030,1335770,-0.625,-0.571,0.526,2,3.5,-0.3,5.9,-6.8,-24.3,0.494582965,0.111301004,0.472182379,-0.721091342
86,217705,1335780,-0.629,-0.575,0.534,1.9,3.5,-0.3,5.9,-6.8,-24.3,0.494552446,0.111362041,0.472182379,-0.72112186
87,219828,1335780,-0.629,-0.571,0.526,2,3.5,-0.3,6,-7.7,-24,0.494491409,0.111423078,0.472212897,-0.72112186
88,223363,1335780,-0.629,-0.575,0.53,2.1,3.6,-0.4,6,-7.7,-24,0.494460891,0.111514634,0.472212897,-0.721152379
89,225602,1335780,-0.633,-0.578,0.534,2.3,3.6,-0.4,6,-7.7,-24,0.494399854,0.111606189,0.472212897,-0.721152379
90,227912,1335790,-0.633,-0.574,0.534,2.4,3.6,-0.6,6,-7.7,-24,0.494338816,0.111667226,0.472212897,-0.721182897
91,230171,1335790,-0.629,-0.578,0.534,2.6,3.5,-0.6,6,-8.2,-23.7,0.494308298,0.111758782,0.472212897,-0.721213416
92,232521,1335790,-0.633,-0.578,0.542,2.7,3.3,-0.8,6,-8.2,-23.7,0.494247261,0.111819819,0.472212897,-0.721243934
93,235047,1335790,-0.629,-0.571,0.538,2.9,3.2,-0.8,6,-8.2,-23.7,0.494186224,0.111911374,0.472182379,-0.721274453
94,238380,1335800,-0.629,-0.575,0.526,3,3.2,-0.9,6,-8.2,-23.7,0.494125187,0.111972411,0.472182379,-0.721304971
95,240173,1335800,-0.629,-0.575,0.526,3,3.2,-0.9,6,-8.2,-23.7,0.494125187,0.111972411,0.472182379,-0.721304971
96,242659,1335800,-0.629,-0.567,0.534,3.2,3.2,-1.1,6,-4.2,-23,0.494003113,0.112094485,0.472121342,-0.721427046
97,245311,1335800,-0.633,-0.574,0.534,3.3,3.2,-1.1,6,-4.2,-23,0.493942076,0.112155522,0.472090823,-0.721457564
98,249171,1335810,-0.629,-0.575,0.53,3.5,3.4,-1.2,6,-4.2,-23,0.493881039,0.112247078,0.472090823,-0.721488083
99,251379,1335810,-0.629,-0.567,0.538,3.5,3.4,-1.4,5.7,-7.7,-25.3,0.493820002,0.112338633,0.472060305,-0.72154912
100,253608,1335810,-0.629,-0.567,0.534,3.6,3.5,-1.4,5.7,-7.7,-25.3,0.493758965,0.11239967,0.472060305,-0.721579638
101,255035,1335810,-0.629,-0.571,0.538,3.8,3.5,-1.4,5.7,-7.7,-25.3,0.493697928,0.112491226,0.472029786,-0.721640675
102,257647,1335820,-0.629,-0.575,0.534,3.9,3.7,-1.3,5.7,-7.7,-25.3,0.493606372,0.112582781,0.471999268,-0.721671194
103,261170,1335820,-0.633,-0.578,0.534,3.8,3.8,-1.3,6.1,-7.1,-25.4,0.493545335,0.112674337,0.471999268,-0.721732231
104,263391,1335820,-0.633,-0.571,0.534,3.7,4,-1.4,6.1,-7.1,-25.4,0.493484298,0.112765893,0.471999268,-0.721762749
105,265582,1335820,-0.633,-0.578,0.538,3.7,4.1,-1.6,6.1,-7.1,-25.4,0.493392743,0.11282693,0.471968749,-0.721823786
106,267368,1335830,-0.633,-0.574,0.534,3.8,4.1,-1.7,6.1,-7.1,-25.4,0.493331706,0.112887967,0.471968749,-0.721854305
107,269871,1335830,-0.633,-0.586,0.538,3.9,4.1,-1.9,6.1,-6.5,-25.1,0.49324015,0.113010041,0.471938231,-0.721915342
108,273795,1335830,-0.629,-0.582,0.538,4,4,-1.9,6.1,-6.5,-25.1,0.493148595,0.113101596,0.471938231,-0.721976379
109,276024,1335830,-0.633,-0.582,0.534,4.1,3.9,-1.9,6.1,-6.5,-25.1,0.493057039,0.113193152,0.471907712,-0.722006897
110,278331,1335840,-0.633,-0.586,0.53,4.3,3.9,-1.9,6.1,-6.5,-25.1,0.492996002,0.113284707,0.471907712,-0.722067934
111,280560,1335840,-0.629,-0.586,0.534,4.4,4,-1.9,6.1,-5.5,-24.8,0.492904447,0.113376263,0.471877194,-0.722128971
112,282835,1335840,-0.629,-0.59,0.538,4.5,4,-1.9,6.1,-5.5,-24.8,0.492812891,0.113467818,0.471846675,-0.722190008
113,285070,1335840,-0.629,-0.582,0.53,4.4,4.2,-1.9,6.1,-5.5,-24.8,0.492751854,0.113559374,0.471816156,-0.722251045
114,287779,1335850,-0.629,-0.582,0.526,4.3,4.3,-1.9,6.1,-5.5,-24.8,0.492660298,0.113650929,0.471816156,-0.722312082
115,290052,1335850,-0.629,-0.582,0.526,4.3,4.3,-1.9,6.1,-5.5,-24.8,0.492660298,0.113650929,0.471816156,-0.722312082
116,293352,1335850,-0.629,-0.582,0.53,4.1,4.6,-2,6.1,-5.7,-23,0.49241615,0.113742485,0.471846675,-0.722434156
117,295540,1335850,-0.625,-0.583,0.53,4.1,4.6,-2.1,6.1,-5.7,-23,0.492324595,0.11383404,0.471816156,-0.722495193
118,297793,1335860,-0.629,-0.59,0.534,4.4,4.6,-2.2,6.1,-5.7,-23,0.492233039,0.113925596,0.471816156,-0.72255623
119,300043,1335860,-0.633,-0.586,0.53,4.7,4.6,-2.1,6.1,-5.9,-24.9,0.492141484,0.11404767,0.471785638,-0.722617267
120,302698,1335860,-0.633,-0.586,0.53,4.9,4.7,-2,6.1,-5.9,-24.9,0.492049928,0.114139225,0.471755119,-0.722678304
121,304965,1335860,-0.625,-0.583,0.53,4.9,4.9,-1.9,6.1,-5.9,-24.9,0.491958373,0.114261299,0.471755119,-0.722739341
122,309037,1335870,-0.629,-0.586,0.53,4.7,4.9,-1.8,6.1,-5.9,-24.9,0.491866817,0.114352855,0.471724601,-0.72276986
123,311304,1335870,-0.633,-0.582,0.534,4.6,5,-1.7,6.3,-5.9,-25,0.491775262,0.114474929,0.471724601,-0.722830897
124,313541,1335870,-0.633,-0.582,0.53,4.5,5.1,-1.7,6.3,-5.9,-25,0.491683706,0.114597003,0.471694082,-0.722891934
125,315045,1335870,-0.633,-0.582,0.53,4.5,5.2,-1.7,6.3,-5.9,-25,0.491561632,0.114719077,0.471694082,-0.722952971
126,317508,1335880,-0.629,-0.579,0.526,4.4,5.2,-1.7,6.3,-5.9,-25,0.491470077,0.114810633,0.471694082,-0.722983489
127,321481,1335880,-0.629,-0.579,0.522,4.4,5.3,-1.7,6.3,-6.1,-24.7,0.491378521,0.114932707,0.471663564,-0.723044527
128,323043,1335880,-0.633,-0.578,0.526,4.3,5.3,-1.7,6.3,-6.1,-24.7,0.491286966,0.115054781,0.471663564,-0.723105564
129,326028,1335880,-0.633,-0.574,0.522,4.3,5.4,-1.8,6.3,-6.1,-24.7,0.49119541,0.115146336,0.471663564,-0.723136082
130,327586,1335890,-0.633,-0.578,0.522,4.2,5.4,-1.9,6.3,-6.1,-24.7,0.491103854,0.11526841,0.471663564,-0.723197119
131,330513,1335890,-0.629,-0.575,0.53,4.1,5.5,-1.9,6.1,-6.1,-24.5,0.491012299,0.115390484,0.471663564,-0.723258156
132,332282,1335890,-0.633,-0.578,0.522,4.1,5.5,-2,6.1,-6.1,-24.5,0.490890225,0.11548204,0.471663564,-0.723288675
133,335831,1335890,-0.633,-0.582,0.526,4.1,5.5,-2.1,6.1,-6.1,-24.5,0.490798669,0.115604114,0.471663564,-0.723349712
134,337323,1335900,-0.633,-0.574,0.526,4.1,5.6,-2.2,6.1,-6.1,-24.5,0.490707114,0.115726188,0.471663564,-0.723410749
135,339859,1335900,-0.633,-0.574,0.526,4.1,5.6,-2.2,6.1,-6.1,-24.5,0.490707114,0.115726188,0.471663564,-0.723410749
136,343366,1335900,-0.633,-0.578,0.522,4.1,5.7,-2.2,6.5,-6,-24.6,0.490432447,0.115909299,0.471724601,-0.723502304
137,344854,1335900,-0.625,-0.579,0.526,4,5.8,-2.3,6.5,-6,-24.6,0.490340892,0.116000855,0.471724601,-0.723563341
138,347336,1335910,-0.633,-0.586,0.522,3.9,5.9,-2.5,6.5,-6,-24.6,0.490218818,0.116122929,0.471724601,-0.72359386
139,350762,1335910,-0.629,-0.582,0.526,3.7,6,-2.7,6.1,-6.6,-22.4,0.490096744,0.116214484,0.471755119,-0.723624378
140,352336,1335910,-0.633,-0.586,0.526,3.6,6,-2.8,6.1,-6.6,-22.4,0.490005188,0.11630604,0.471755119,-0.723715934
141,355079,1335910,-0.633,-0.582,0.522,3.6,5.8,-2.9,6.1,-6.6,-22.4,0.489883114,0.116428114,0.471755119,-0.723776971
142,358334,1335920,-0.633,-0.582,0.518,3.9,5.8,-3,6.1,-6.6,-22.4,0.48976104,0.116519669,0.471785638,-0.723838008
143,359911,1335920,-0.629,-0.59,0.522,4.1,5.8,-3,6.6,-6.3,-21.4,0.489638966,0.116641743,0.471785638,-0.723899045
144,362377,1335920,-0.633,-0.598,0.526,4.4,5.9,-3.2,6.6,-6.3,-21.4,0.489516892,0.116763817,0.471785638,-0.723960082
145,365860,1335920,-0.625,-0.594,0.53,4.7,6.1,-3.2,6.6,-6.3,-21.4,0.489394818,0.116855373,0.471785638,-0.724021119
146,368120,1335930,-0.625,-0.602,0.53,5.1,6.2,-3.3,6.6,-6.3,-21.4,0.489272744,0.116977447,0.471785638,-0.724082156
147,370400,1335930,-0.629,-0.602,0.53,5.4,6.3,-3.4,6.3,-6.1,-21.5,0.489120151,0.117099521,0.471755119,-0.724173711
148,372658,1335930,-0.633,-0.602,0.53,5.7,6.3,-3.5,6.3,-6.1,-21.5,0.488998077,0.117221595,0.471755119,-0.724265267
149,374900,1335930,-0.629,-0.606,0.534,6.1,6.4,-3.4,6.3,-6.1,-21.5,0.488845485,0.117374187,0.471724601,-0.724326304
150,377494,1335940,-0.633,-0.61,0.534,6.6,6.4,-3.4,6.3,-6.1,-21.5,0.488723411,0.117496261,0.471694082,-0.724417859
151,379891,1335940,-0.629,-0.606,0.53,7.2,6.6,-3.4,6.1,-6.1,-21.3,0.488570818,0.117648854,0.471663564,-0.724509415
152,383928,1335940,-0.625,-0.606,0.53,7.9,6.8,-3.5,6.1,-6.1,-21.3,0.488418226,0.117770928,0.471633045,-0.724631489
153,386224,1335940,-0.625,-0.606,0.534,8.4,7,-3.7,6.1,-6.1,-21.3,0.488265633,0.117954039,0.471572008,-0.724723045
154,388368,1335950,-0.625,-0.606,0.534,8.9,7.2,-3.7,6.1,-6.1,-21.3,0.488113041,0.11813715,0.471510971,-0.724845119
155,390645,1335950,-0.625,-0.606,0.534,8.9,7.2,-3.7,6.1,-6.1,-21.3,0.488113041,0.11813715,0.471510971,-0.724845119
156,392804,1335950,-0.625,-0.602,0.53,9.7,7.6,-3.9,6.2,-6.5,-25.7,0.487685781,0.118320261,0.471480453,-0.725119785
157,395113,1335950,-0.625,-0.598,0.534,10,7.8,-3.9,6.2,-6.5,-25.7,0.48750267,0.118503372,0.471419416,-0.725272378
158,398098,1335960,-0.625,-0.594,0.538,10.3,8,-3.9,6.2,-6.5,-25.7,0.487350078,0.118686483,0.471358379,-0.725394452
159,399804,1335960,-0.625,-0.598,0.534,10.4,8.2,-4,6.1,-6.1,-23.8,0.487166967,0.118900113,0.471297342,-0.725516526
160,403364,1335960,-0.629,-0.594,0.53,10.4,8.6,-4,6.1,-6.1,-23.8,0.486983856,0.119113742,0.471236305,-0.7256386
161,404832,1335960,-0.633,-0.594,0.542,10.7,8.9,-4.1,6.1,-6.1,-23.8,0.486800745,0.119327372,0.471144749,-0.725760674
162,407404,1335970,-0.629,-0.602,0.542,11,9.1,-4.2,6.1,-6.1,-23.8,0.486617634,0.119541002,0.471083712,-0.725913266
163,410843,1335970,-0.629,-0.598,0.542,11.2,9.3,-4.3,6.5,-6.6,-25,0.486404004,0.119724113,0.471022675,-0.72603534
164,412379,1335970,-0.629,-0.602,0.546,11.2,9.6,-4.5,6.5,-6.6,-25,0.486220893,0.119968261,0.470961638,-0.726187933
165,414888,1335970,-0.633,-0.61,0.546,11.2,9.8,-4.7,6.5,-6.6,-25,0.486007263,0.120212409,0.470900601,-0.726310007
166,418342,1335980,-0.637,-0.61,0.546,11.4,10.2,-4.9,6.5,-6.6,-25,0.485793634,0.120426038,0.470839564,-0.7264626
167,420123,1335980,-0.641,-0.617,0.554,11.6,10.5,-5.2,6.5,-6.5,-25,0.485580004,0.120670186,0.470778527,-0.726615192
168,422379,1335980,-0.641,-0.617,0.55,11.9,10.9,-5.5,6.5,-6.5,-25,0.485335856,0.120914335,0.47071749,-0.726767785
169,426050,1335980,-0.641,-0.625,0.558,12.2,11.3,-6,6.5,-6.5,-25,0.485091708,0.121158483,0.470656453,-0.726920377
170,427539,1335990,-0.649,-0.625,0.554,12.4,11.7,-6.5,6.5,-6.5,-25,0.48484756,0.121433149,0.470595416,-0.727103488
171,430126,1335990,-0.657,-0.625,0.562,12.8,12,-6.9,6.6,-6.5,-25.5,0.484572893,0.121677297,0.470534379,-0.727256081
172,433411,1335990,-0.657,-0.629,0.558,13.3,12.2,-7.3,6.6,-6.5,-25.5,0.484298227,0.121921445,0.470473342,-0.727439192
173,435026,1335990,-0.657,-0.629,0.554,14,12.3,-7.8,6.6,-6.5,-25.5,0.483993042,0.122165593,0.470412305,-0.727652821
174,438067,1336000,-0.661,-0.641,0.562,14.7,12.5,-8.2,6.6,-6.5,-25.5,0.483718375,0.122470779,0.47032075,-0.727835932
175,439886,1336000,-0.661,-0.641,0.562,14.7,12.5,-8.2,6.6,-6.5,-25.5,0.483718375,0.122470779,0.47032075,-0.727835932
176,443415,1336000,-0.665,-0.644,0.57,16.2,13.1,-9.4,6.9,-6.6,-23.6,0.483016449,0.122928556,0.470168157,-0.728324229
177,445160,1336000,-0.665,-0.656,0.574,17,13.5,-9.9,6.9,-6.6,-23.6,0.482680746,0.123233741,0.470076601,-0.728568377
178,448230,1336010,-0.665,-0.656,0.578,17.8,13.7,-10.4,6.9,-6.6,-23.6,0.482314524,0.123538926,0.469954527,-0.728812525
179,449948,1336010,-0.666,-0.668,0.586,18.7,13.9,-10.9,6.5,-6.6,-23.4,0.481948302,0.123844111,0.469862972,-0.729087191
180,452343,1336010,-0.67,-0.672,0.59,19.8,14.1,-11.4,6.5,-6.6,-23.4,0.48158208,0.124118778,0.469710379,-0.729392376
181,455882,1336010,-0.662,-0.684,0.594,20.9,14.3,-11.8,6.5,-6.6,-23.4,0.481185339,0.124485,0.469557787,-0.729667043
182,457376,1336020,-0.658,-0.692,0.598,22.1,14.4,-12.1,6.5,-6.6,-23.4,0.480788598,0.124820704,0.469405194,-0.730002747
183,459989,1336020,-0.654,-0.696,0.601,23.2,14.5,-12.5,6.9,-6.5,-23.6,0.480361339,0.125156407,0.469222083,-0.730307932
184,463688,1336020,-0.654,-0.696,0.605,24.2,14.7,-12.9,6.9,-6.5,-23.6,0.47993408,0.125522629,0.469008454,-0.730674154
185,465311,1336020,-0.65,-0.704,0.605,25.2,14.8,-13.3,6.9,-6.5,-23.6,0.479506821,0.125888852,0.468794824,-0.731009857
186,467504,1336030,-0.646,-0.704,0.613,26.3,14.9,-13.6,6.9,-6.5,-23.6,0.479049043,0.126255074,0.468581194,-0.731406598
187,470087,1336030,-0.646,-0.704,0.613,27.4,15.1,-13.9,7,-6.7,-23.3,0.478621784,0.126651814,0.468337046,-0.73177282
188,472329,1336030,-0.646,-0.708,0.613,28.7,15.2,-14.1,7,-6.7,-23.3,0.478133488,0.127048555,0.46806238,-0.732169561
189,475301,1336030,-0.642,-0.716,0.609,30.1,15.5,-14.4,7,-6.7,-23.3,0.47767571,0.127445296,0.467787713,-0.73259682
190,477671,1336040,-0.638,-0.712,0.609,31.5,15.8,-14.6,7,-6.7,-23.3,0.477187414,0.127903073,0.467482528,-0.733024079
191,479870,1336040,-0.642,-0.716,0.617,32.8,16.1,-14.7,7.3,-6.7,-23.2,0.476699118,0.128330332,0.467177343,-0.733481857
192,482347,1336040,-0.638,-0.708,0.613,34.2,16.5,-14.8,7.3,-6.7,-23.2,0.476210822,0.128818628,0.466841639,-0.733939634
193,485459,1336040,-0.642,-0.708,0.613,35.5,16.8,-14.7,7.3,-6.7,-23.2,0.475692007,0.129306925,0.466505936,-0.734397412
194,487770,1336050,-0.634,-0.7,0.616,36.9,17.2,-14.7,7.3,-6.7,-23.2,0.475173193,0.129825739,0.466109195,-0.734885708
195,490002,1336050,-0.634,-0.7,0.616,36.9,17.2,-14.7,7.3,-6.7,-23.2,0.475173193,0.129825739,0.466109195,-0.734885708
196,493035,1336050,-0.626,-0.677,0.608,39.3,17.8,-14.8,5.3,-7.3,-23.3,0.474105045,0.130893887,0.465315714,-0.7358623
197,496020,1336050,-0.622,-0.673,0.612,40.2,18.1,-14.8,5.3,-7.3,-23.3,0.47358623,0.13144322,0.464918973,-0.736381115
198,498336,1336060,-0.622,-0.665,0.616,40.9,18.4,-14.8,5.3,-7.3,-23.3,0.473036897,0.132023072,0.464491714,-0.73689993
199,499837,1336060,-0.621,-0.649,0.604,41.4,18.8,-14.8,8.9,-7.3,-23.3,0.472487564,0.132602924,0.464064455,-0.737418744
200,502613,1336060,-0.605,-0.626,0.604,41.7,19.3,-15,8.9,-7.3,-23.3,0.471938231,0.133182775,0.463637196,-0.737937559
201,505855,1336060,-0.609,-0.614,0.6,41.8,19.7,-15.3,8.9,-7.3,-23.3,0.471358379,0.133762627,0.463209937,-0.738456374
202,507303,1336070,-0.605,-0.606,0.596,41.5,20.2,-15.6,8.9,-7.3,-23.3,0.470778527,0.134372997,0.462782678,-0.738975188
203,510103,1336070,-0.601,-0.591,0.592,40.9,20.7,-15.9,9.3,-7.2,-23.1,0.470198675,0.134952849,0.462385937,-0.739494003
204,513211,1336070,-0.597,-0.583,0.588,40.1,21.3,-16.2,9.3,-7.2,-23.1,0.469588305,0.135563219,0.461989196,-0.740012818
205,515990,1336070,-0.601,-0.571,0.584,39.4,21.9,-16.3,9.3,-7.2,-23.1,0.469008454,0.136143071,0.461653493,-0.740501114
206,517544,1336080,-0.597,-0.571,0.572,38.7,22.5,-16.4,9.3,-7.2,-23.1,0.468398083,0.136753441,0.461287271,-0.74098941
207,519881,1336080,-0.593,-0.56,0.572,38.1,23,-16.7,9,-7.8,-23.1,0.467757195,0.137333293,0.460951567,-0.741477706
208,522895,1336080,-0.585,-0.556,0.564,37.6,23.6,-17,9,-7.8,-23.1,0.467146825,0.137913144,0.460646382,-0.741966002
209,525913,1336080,-0.581,-0.552,0.564,37.3,24,-17.3,9,-7.8,-23.1,0.466505936,0.138523515,0.460341197,-0.742454299
210,527433,1336090,-0.573,-0.548,0.56,37,24.5,-17.5,9,-7.8,-23.1,0.465865047,0.139133885,0.460036012,-0.742912076
211,531006,1336090,-0.573,-0.548,0.548,36.7,24.9,-17.7,9.7,-7.3,-23.1,0.465224158,0.139713736,0.459761345,-0.743400372
212,532515,1336090,-0.569,-0.541,0.548,36.3,25.5,-18.1,9.7,-7.3,-23.1,0.464552751,0.140324107,0.45945616,-0.74385815
213,535548,1336090,-0.565,-0.541,0.548,36,26.2,-18.4,9.7,-7.3,-23.1,0.463881344,0.140934477,0.459212012,-0.744315928
214,538363,1336100,-0.561,-0.545,0.54,35.7,26.8,-18.6,9.7,-7.3,-23.1,0.463209937,0.141544847,0.458967864,-0.744804224
215,540264,1336100,-0.561,-0.545,0.54,35.7,26.8,-18.6,9.7,-7.3,-23.1,0.463209937,0.141544847,0.458967864,-0.744804224
216,542863,1336100,-0.557,-0.545,0.536,35.3,28,-19.4,7.9,-7.6,-23,0.461806085,0.142735069,0.458418531,-0.745750298
217,545036,1336100,-0.561,-0.545,0.528,35.4,28.6,-19.8,7.9,-7.6,-23,0.461073641,0.143345439,0.458204901,-0.746238594
218,548123,1336110,-0.557,-0.545,0.532,35.6,29.2,-20.2,7.9,-7.6,-23,0.460341197,0.143986328,0.457991272,-0.746696371
219,550211,1336110,-0.561,-0.541,0.528,36.1,29.8,-20.6,8.3,-7.9,-22.7,0.459608753,0.144627216,0.457747124,-0.747154149
220,554075,1336110,-0.561,-0.549,0.524,36.5,30.3,-21.1,8.3,-7.9,-22.7,0.45884579,0.145268105,0.457502976,-0.747642445
221,556306,1336110,-0.557,-0.549,0.524,37,30.7,-21.7,8.3,-7.9,-22.7,0.458052309,0.145939512,0.457289346,-0.748130741
222,557886,1336120,-0.557,-0.537,0.524,37.6,31.2,-22.2,8.3,-7.9,-22.7,0.457258827,0.146580401,0.457075716,-0.748649556
223,560003,1336120,-0.557,-0.537,0.52,38.4,31.5,-22.8,8.3,-7.8,-22.3,0.456465346,0.147251808,0.456831568,-0.749137852
224,563760,1336120,-0.553,-0.533,0.524,39.4,31.8,-23.2,8.3,-7.8,-22.3,0.455641346,0.147953734,0.45658742,-0.749656667
225,565376,1336120,-0.557,-0.529,0.516,40.3,32.2,-23.5,8.3,-7.8,-22.3,0.454786828,0.148625141,0.456312754,-0.750206
226,567481,1336130,-0.557,-0.521,0.508,41.2,32.5,-23.8,8.3,-7.8,-22.3,0.45393231,0.149357585,0.456038087,-0.750755333
227,570163,1336130,-0.56,-0.517,0.508,42.1,32.7,-24.2,7.8,-7.9,-22.4,0.453077792,0.150059511,0.455732902,-0.751304666
228,574167,1336130,-0.56,-0.513,0.508,42.8,33,-24.4,7.8,-7.9,-22.4,0.452223273,0.150761437,0.455458235,-0.751853999
229,576354,1336130,-0.564,-0.517,0.501,43.4,33.3,-24.7,7.8,-7.9,-22.4,0.451338237,0.151493881,0.45515305,-0.752403333
230,577984,1336140,-0.572,-0.517,0.493,43.8,33.6,-24.8,7.8,-7.9,-22.4,0.4504532,0.152256844,0.454847865,-0.752983184
231,580203,1336140,-0.572,-0.521,0.497,44.3,33.9,-24.9,7.1,-7.8,-22.1,0.449537645,0.152989288,0.45454268,-0.753563036
232,582414,1336140,-0.573,-0.521,0.493,44.9,33.9,-25,7.1,-7.8,-22.1,0.448652608,0.153752251,0.454206977,-0.754142888
233,584925,1336140,-0.573,-0.529,0.497,45.7,33.8,-25.2,7.1,-7.8,-22.1,0.447737053,0.154484695,0.453871273,-0.754722739
234,588007,1336150,-0.573,-0.529,0.493,46.4,33.7,-25.8,7.1,-7.8,-22.1,0.446821497,0.155247658,0.453535569,-0.75533311
235,590045,1336150,-0.573,-0.529,0.493,46.4,33.7,-25.8,7.1,-7.8,-22.1,0.446821497,0.155247658,0.453535569,-0.75533311
236,592888,1336150,-0.565,-0.533,0.485,47.8,33.4,-27.3,10,-9,-22.2,0.444898831,0.156620991,0.452833644,-0.756584368
237,595232,1336150,-0.557,-0.529,0.477,48.3,33.1,-28.1,10,-9,-22.2,0.443922239,0.157353435,0.452467421,-0.757225257
238,597493,1336160,-0.561,-0.525,0.477,48.9,33,-28.7,10,-9,-22.2,0.442976165,0.158085879,0.452070681,-0.757866146
239,600775,1336160,-0.557,-0.533,0.477,49.2,32.9,-29.5,6.9,-8.1,-21.9,0.441969054,0.158818323,0.451643422,-0.758537553
240,602888,1336160,-0.557,-0.533,0.477,49.7,32.8,-30.4,6.9,-8.1,-21.9,0.440992462,0.159550768,0.4512772,-0.75920896
241,605025,1336160,-0.565,-0.533,0.485,50.1,32.9,-31.3,6.9,-8.1,-21.9,0.439924314,0.160252693,0.45084994,-0.759880367
242,607435,1336170,-0.565,-0.545,0.474,50.5,33.1,-32.2,6.9,-8.1,-21.9,0.438917203,0.160985137,0.4504532,-0.760582293
243,610275,1336170,-0.573,-0.544,0.474,50.7,33.2,-32.8,7.3,-8.3,-22.1,0.437879574,0.161687063,0.450056459,-0.7612537
244,612404,1336170,-0.573,-0.556,0.478,50.9,33.3,-33.3,7.3,-8.3,-22.1,0.436811426,0.162419507,0.4496292,-0.761955626
245,616396,1336170,-0.569,-0.556,0.474,50.9,33.4,-33.6,7.3,-8.3,-22.1,0.435743278,0.163121433,0.449232459,-0.762657552
246,618611,1336180,-0.577,-0.556,0.47,50.8,33.6,-34.1,7.3,-8.3,-22.1,0.43467513,0.163823359,0.448835719,-0.763359478
247,620030,1336180,-0.577,-0.56,0.47,50.7,33.9,-34.6,8,-8.2,-21.5,0.433576464,0.164525285,0.44840846,-0.764061403
248,622627,1336180,-0.577,-0.56,0.466,50.5,34.2,-35,8,-8.2,-21.5,0.432477798,0.16522721,0.448011719,-0.764763329
249,626134,1336180,-0.581,-0.556,0.466,50.3,34.5,-35.4,8,-8.2,-21.5,0.431348613,0.165959655,0.447645497,-0.765465255
250,628588,1336190,-0.577,-0.552,0.466,49.9,34.7,-35.8,8,-8.2,-21.5,0.430249947,0.16666158,0.447248756,-0.76616718
251,630867,1336190,-0.573,-0.552,0.462,49.5,35,-36.3,8.8,-8.5,-21.7,0.429120762,0.167332987,0.446882534,-0.766869106
252,632727,1336190,-0.581,-0.548,0.462,49.5,35.2,-36.9,8.8,-8.5,-21.7,0.427961058,0.168034913,0.446516312,-0.767571032
253,636591,1336190,-0.573,-0.548,0.466,49.9,35.4,-37.8,8.8,-8.5,-21.7,0.426801355,0.168736839,0.44615009,-0.768272958
254,638977,1336200,-0.565,-0.541,0.474,50.7,35.3,-38.7,8.8,-8.5,-21.7,0.425611133,0.169408246,0.445783868,-0.769005402
255,640873,1336200,-0.565,-0.541,0.474,50.7,35.3,-38.7,8.8,-8.5,-21.7,0.425611133,0.169408246,0.445783868,-0.769005402
256,642787,1336200,-0.572,-0.513,0.485,50.2,35.2,-40.1,10.7,-10.4,-21.3,0.422956023,0.170506912,0.445478683,-0.770409253
257,645485,1336200,-0.58,-0.505,0.489,48.3,35.5,-40.1,10.7,-10.4,-21.3,0.421735282,0.171117283,0.445142979,-0.771111179
258,648586,1336210,-0.584,-0.497,0.486,45.9,36,-39.6,10.7,-10.4,-21.3,0.420545061,0.17178869,0.444868313,-0.771782586
259,650807,1336210,-0.584,-0.509,0.486,43.4,36.6,-39,10.5,-8.1,-21.4,0.419385357,0.172429579,0.444593646,-0.772423475
260,653030,1336210,-0.584,-0.521,0.486,41.3,37.4,-38.7,10.5,-8.1,-21.4,0.418195135,0.173070467,0.444410535,-0.773033845
261,655245,1336210,-0.581,-0.529,0.486,39.9,37.9,-38.7,10.5,-8.1,-21.4,0.417035432,0.173711356,0.444227424,-0.773644215
262,657465,1336220,-0.577,-0.548,0.489,39.2,38.4,-39.3,10.5,-8.1,-21.4,0.41584521,0.174321726,0.444044313,-0.774224067
263,659994,1336220,-0.577,-0.576,0.501,39.2,38.8,-40.1,11.2,-8,-21.1,0.41462447,0.174962615,0.44389172,-0.774834437
264,662522,1336220,-0.581,-0.591,0.505,39.5,39.2,-40.9,11.2,-8,-21.1,0.413403729,0.175572985,0.443739128,-0.775444807
265,665837,1336220,-0.589,-0.595,0.513,39.7,39.8,-41.4,11.2,-8,-21.1,0.412182989,0.176213874,0.443586535,-0.776055177
266,668046,1336230,-0.601,-0.603,0.514,40,40.3,-41.7,11.2,-8,-21.1,0.41093173,0.176854762,0.443433943,-0.776635029
267,669987,1336230,-0.593,-0.603,0.521,40.2,40.9,-41.8,11.5,-8.2,-20.8,0.409649953,0.177495651,0.44328135,-0.777245399
268,672672,1336230,-0.594,-0.607,0.521,40.6,41.4,-41.9,11.5,-8.2,-20.8,0.408398694,0.178167058,0.443128758,-0.77785577
269,675865,1336230,-0.593,-0.603,0.517,41,41.7,-42,11.5,-8.2,-20.8,0.407116916,0.178807947,0.442945647,-0.77846614
270,677439,1336240,-0.585,-0.595,0.513,41.8,41.9,-42.2,11.5,-8.2,-20.8,0.405835139,0.179509873,0.442793054,-0.77907651
271,680231,1336240,-0.585,-0.595,0.517,42.6,42.1,-42.3,11.9,-8.1,-20.6,0.404522843,0.18018128,0.442609943,-0.779717399
272,682673,1336240,-0.585,-0.583,0.517,43.6,42.4,-42.4,11.9,-8.1,-20.6,0.403241066,0.180883206,0.442396313,-0.780327769
273,684992,1336240,-0.589,-0.579,0.521,44.3,42.8,-42.3,11.9,-8.1,-20.6,0.40192877,0.181585131,0.442182684,-0.780968657
274,687417,1336250,-0.597,-0.564,0.514,44.9,43.3,-42.3,11.9,-8.1,-20.6,0.400585955,0.182317576,0.441969054,-0.781609546
275,690895,1336250,-0.597,-0.564,0.514,44.9,43.3,-42.3,11.9,-8.1,-20.6,0.400585955,0.182317576,0.441969054,-0.781609546
276,692420,1336250,-0.601,-0.556,0.521,45.4,44,-42.6,11.7,-9.3,-20.4,0.397869808,0.18366039,0.441602832,-0.782891324
277,695558,1336250,-0.605,-0.552,0.518,45.4,44.3,-42.8,11.7,-9.3,-20.4,0.396526994,0.184392834,0.441389203,-0.783532212
278,697572,1336260,-0.608,-0.536,0.514,45.2,44.8,-43,11.7,-9.3,-20.4,0.395184179,0.185155797,0.441175573,-0.784142582
279,700040,1336260,-0.609,-0.544,0.506,44.9,45.3,-42.9,11.6,-10.9,-20.6,0.393810846,0.185888241,0.440961943,-0.784752953
280,702934,1336260,-0.604,-0.528,0.506,44.4,45.8,-42.8,11.6,-10.9,-20.6,0.392468032,0.186651204,0.440748314,-0.785363323
281,705199,1336260,-0.612,-0.528,0.502,44,46.3,-42.7,11.6,-10.9,-20.6,0.391094699,0.187414167,0.440565203,-0.785973693
282,708953,1336270,-0.608,-0.524,0.498,43.4,46.8,-42.7,11.6,-10.9,-20.6,0.389751885,0.188177129,0.44041261,-0.786553545
283,711107,1336270,-0.608,-0.528,0.494,42.8,47.2,-42.9,12,-11.5,-20.6,0.388378552,0.188940092,0.440260018,-0.787133396
284,712730,1336270,-0.612,-0.528,0.502,42,47.6,-42.9,12,-11.5,-20.6,0.387005219,0.189672536,0.440107425,-0.787713248
285,714904,1336270,-0.616,-0.536,0.498,41.3,48,-42.9,12,-11.5,-20.6,0.385631886,0.190466018,0.439985351,-0.788262581
286,717506,1336280,-0.616,-0.54,0.494,40.6,48.6,-42.7,12,-11.5,-20.6,0.384258553,0.19122898,0.439863277,-0.788811914
287,720950,1336280,-0.62,-0.539,0.502,40.2,49,-42.5,12.5,-12.2,-20.1,0.38288522,0.191991943,0.439771722,-0.789361248
288,723034,1336280,-0.628,-0.535,0.499,39.7,49.5,-42.2,12.5,-12.2,-20.1,0.381511887,0.192785424,0.439680166,-0.789880062
289,725293,1336280,-0.644,-0.535,0.495,39.2,49.9,-42.3,12.5,-12.2,-20.1,0.380138554,0.193548387,0.43958861,-0.790398877
290,727526,1336290,-0.656,-0.535,0.499,38.6,50.4,-42.8,12.5,-12.2,-20.1,0.378765221,0.194341868,0.439527573,-0.790917692
291,730189,1336290,-0.66,-0.535,0.496,37.8,50.9,-43.7,12.6,-12.3,-19.9,0.37736137,0.195104831,0.439466536,-0.791405988
292,732474,1336290,-0.656,-0.543,0.499,37,51.4,-44.6,12.6,-12.3,-19.9,0.375927,0.195867794,0.439436018,-0.791924802
293,736564,1336290,-0.66,-0.535,0.503,36.3,51.7,-45.1,12.6,-12.3,-19.9,0.37449263,0.196630757,0.439436018,-0.792413099
294,738820,1336300,-0.672,-0.534,0.508,35.8,52,-45,12.6,-12.3,-19.9,0.37305826,0.197393719,0.439436018,-0.792901395
295,740238,1336300,-0.672,-0.534,0.508,35.8,52,-45,12.6,-12.3,-19.9,0.37305826,0.197393719,0.439436018,-0.792901395
296,743323,1336300,-0.676,-0.522,0.508,34.9,52.5,-44.5,13.4,-8.1,-17.9,0.370250557,0.199102756,0.439558092,-0.793725394
297,744813,1336300,-0.676,-0.522,0.512,34.1,52.7,-44.7,13.4,-8.1,-17.9,0.368816187,0.199865719,0.43958861,-0.794183172
298,747671,1336310,-0.672,-0.515,0.511,33.2,52.8,-45.1,13.4,-8.1,-17.9,0.367381817,0.200628681,0.439619129,-0.79464095
299,750806,1336310,-0.683,-0.51,0.523,32.3,52.9,-45.4,13.1,-10.2,-20.8,0.365947447,0.201361126,0.439680166,-0.795098727
300,752384,1336310,-0.695,-0.506,0.52,31.4,53,-45.5,13.1,-10.2,-20.8,0.364513077,0.20209357,0.439771722,-0.795525987
301,755439,1336310,-0.699,-0.498,0.524,30.7,53.1,-45.5,13.1,-10.2,-20.8,0.363078707,0.202826014,0.439863277,-0.795922727
302,758370,1336320,-0.695,-0.494,0.52,30.1,53.3,-45.4,13.1,-10.2,-20.8,0.361644337,0.203558458,0.439924314,-0.796349986
303,759794,1336320,-0.703,-0.502,0.532,29.6,53.5,-45.6,13.9,-9.3,-20.6,0.360179449,0.204290902,0.440046388,-0.796746727
304,762516,1336320,-0.707,-0.506,0.532,29.2,53.7,-45.7,13.9,-9.3,-20.6,0.358745079,0.205023347,0.440168462,-0.797143468
305,765567,1336320,-0.715,-0.502,0.536,28.8,53.8,-45.5,13.9,-9.3,-20.6,0.357310709,0.205725272,0.440290536,-0.797540208
306,767303,1336330,-0.715,-0.514,0.532,28.6,53.9,-45,13.9,-9.3,-20.6,0.355876339,0.206457717,0.44041261,-0.797936949
307,769991,1336330,-0.719,-0.517,0.536,28.4,53.9,-44.4,14.1,-8.6,-20.7,0.354472488,0.207190161,0.440534684,-0.798303171
308,773054,1336330,-0.723,-0.525,0.532,28.5,53.9,-43.7,14.1,-8.6,-20.7,0.353038118,0.207922605,0.440656758,-0.798669393
309,774993,1336330,-0.731,-0.529,0.533,28.7,53.9,-43.1,14.1,-8.6,-20.7,0.351634266,0.208685568,0.440778832,-0.799035615
310,778399,1336340,-0.743,-0.529,0.529,29,53.9,-42.6,14.1,-8.6,-20.7,0.350260933,0.209448531,0.440870388,-0.799401837
311,779926,1336340,-0.755,-0.532,0.529,29.4,54,-42.8,14.4,-8.1,-20.5,0.348857082,0.210180975,0.440961943,-0.799768059
312,783213,1336340,-0.759,-0.536,0.537,29.6,53.9,-43.5,14.4,-8.1,-20.5,0.347422712,0.210943937,0.441053499,-0.800134281
313,785394,1336340,-0.744,-0.552,0.521,30.1,53.7,-44.3,14.4,-8.1,-20.5,0.34601886,0.211676382,0.441145054,-0.800500504
314,787522,1336350,-0.739,-0.548,0.529,30.8,53.4,-44.6,14.4,-8.1,-20.5,0.344553972,0.212408826,0.441206091,-0.800897244
315,791758,1336350,-0.739,-0.548,0.529,30.8,53.4,-44.6,14.4,-8.1,-20.5,0.344553972,0.212408826,0.441206091,-0.800897244
316,792353,1336350,-0.767,-0.552,0.514,33.9,52.7,-42.7,15.1,-10.2,-18.7,0.341837825,0.2141789,0.441206091,-0.80159917
317,795091,1336350,-0.767,-0.548,0.51,35.9,52.5,-41.4,15.1,-10.2,-18.7,0.340433973,0.214941862,0.441175573,-0.801995911
318,797359,1336360,-0.767,-0.552,0.514,37.6,52.5,-41.1,15.1,-10.2,-18.7,0.339030122,0.215765862,0.441084017,-0.80242317
319,801403,1336360,-0.787,-0.536,0.507,39.1,52.2,-41.5,15.2,-10.1,-18.7,0.33762627,0.216559343,0.440992462,-0.802850429
320,803687,1336360,-0.795,-0.535,0.499,40.4,52,-42.2,15.2,-10.1,-18.7,0.3361919,0.217352824,0.440870388,-0.803308206
321,805763,1336360,-0.791,-0.532,0.491,41.6,51.6,-42.8,15.2,-10.1,-18.7,0.334727012,0.218146306,0.440717795,-0.803796503
322,808120,1336370,-0.783,-0.532,0.487,42.8,51.2,-43.2,15.2,-10.1,-18.7,0.333292642,0.218970305,0.440534684,-0.80425428
323,810347,1336370,-0.791,-0.52,0.476,44.1,50.6,-43.2,15.2,-10.1,-18.7,0.331827754,0.219763787,0.440351573,-0.804773095
324,812476,1336370,-0.791,-0.512,0.476,45.4,49.8,-42.6,15.2,-10.1,-18.7,0.330362865,0.220557268,0.440107425,-0.805261391
325,816210,1336370,-0.791,-0.508,0.472,46.5,49,-41.9,15.2,-10.1,-18.7,0.328928495,0.221350749,0.439832759,-0.805780206
326,818476,1336380,-0.795,-0.492,0.46,47.2,48.3,-41.4,15.2,-10.1,-18.7,0.327524644,0.222113712,0.439558092,-0.80629902
327,820133,1336380,-0.802,-0.484,0.464,47.3,47.7,-41.1,15.2,-10.1,-18.7,0.326120792,0.222876675,0.439283425,-0.806817835
328,822516,1336380,-0.802,-0.484,0.464,47,47.1,-41.1,15.2,-10.1,-18.7,0.324686422,0.223670156,0.43897824,-0.80733665
329,825800,1336380,-0.802,-0.472,0.464,46.4,46.6,-41,15.2,-10.1,-18.7,0.323313089,0.224433119,0.438703574,-0.807824946
330,828062,1336390,-0.818,-0.464,0.461,45.6,46,-41,15.2,-10.1,-18.7,0.321909238,0.225196081,0.438398389,-0.80834376
331,830334,1336390,-0.814,-0.46,0.464,44.7,45.5,-40.7,15.2,-10.1,-18.7,0.320535905,0.225898007,0.438154241,-0.808832057
332,832865,1336390,-0.822,-0.456,0.468,43.5,44.9,-40.4,15.2,-10.1,-18.7,0.319193091,0.226630451,0.437879574,-0.809289834
333,835583,1336390,-0.818,-0.456,0.472,42.3,44.3,-40,15.2,-10.1,-18.7,0.317850276,0.227301859,0.437635426,-0.809747612
334,837750,1336400,-0.818,-0.456,0.476,41,43.7,-39.5,15.2,-10.1,-18.7,0.31653798,0.228003784,0.437421796,-0.81020539
335,840182,1336400,-0.818,-0.456,0.476,41,43.7,-39.5,15.2,-10.1,-18.7,0.31653798,0.228003784,0.437421796,-0.81020539
336,842651,1336400,-0.826,-0.452,0.488,38.3,42.9,-38.7,16.5,-10,-19.2,0.314432203,0.230445265,0.436841945,-0.810632649
337,846085,1336400,-0.83,-0.456,0.488,36.9,42.5,-38.3,16.5,-10,-19.2,0.313150426,0.231086154,0.436689352,-0.811059908
338,848235,1336410,-0.825,-0.44,0.492,35.5,42,-38,16.5,-10,-19.2,0.311899167,0.231666005,0.43653676,-0.81142613
339,850521,1336410,-0.833,-0.436,0.496,33.9,41.4,-37.5,16.5,-10,-19.2,0.310678426,0.232306894,0.436384167,-0.811792352
340,852681,1336410,-0.841,-0.436,0.496,32.4,40.7,-36.9,16.5,-10,-19.2,0.309457686,0.232886746,0.436292611,-0.812158574
341,854944,1336410,-0.845,-0.424,0.504,31,40.1,-36.1,16.5,-10,-19.2,0.308297983,0.233466597,0.436201056,-0.812494278
342,857837,1336420,-0.857,-0.42,0.508,29.9,39.6,-35.6,16.5,-10,-19.2,0.307107761,0.234046449,0.4361095,-0.812799463
343,860924,1336420,-0.865,-0.416,0.512,28.8,39.3,-35.3,16.5,-10,-19.2,0.305978576,0.234595782,0.436017945,-0.813104648
344,862387,1336420,-0.868,-0.412,0.516,27.7,39,-35.2,16.5,-10,-19.2,0.304849391,0.235145116,0.435987426,-0.813409833
345,865202,1336420,-0.872,-0.404,0.524,26.5,38.5,-34.9,16.5,-10,-19.2,0.303720206,0.23566393,0.435956908,-0.813715018
346,868400,1336430,-0.868,-0.392,0.52,25.3,37.9,-34.6,16.5,-10,-19.2,0.30262154,0.236182745,0.435926389,-0.813989685
347,869915,1336430,-0.872,-0.384,0.52,24,37.1,-33.9,16.5,-10,-19.2,0.301522874,0.236671041,0.435926389,-0.814233833
348,872474,1336430,-0.872,-0.38,0.516,22.7,36.3,-33.3,16.5,-10,-19.2,0.300485244,0.237128819,0.435926389,-0.814477981
349,875882,1336430,-0.872,-0.369,0.509,21.2,35.3,-32.6,16.5,-10,-19.2,0.299447615,0.237586596,0.435956908,-0.814722129
350,877435,1336440,-0.876,-0.372,0.505,19.7,34.3,-31.9,16.5,-10,-19.2,0.298440504,0.238044374,0.435987426,-0.814935759
351,879992,1336440,-0.876,-0.369,0.497,18.2,33.2,-31.3,16.5,-10,-19.2,0.29749443,0.238441115,0.436017945,-0.815149388
352,883366,1336440,-0.888,-0.364,0.493,16.6,32.3,-30.7,16.5,-10,-19.2,0.296548357,0.238837855,0.4361095,-0.815332499
353,884935,1336440,-0.888,-0.368,0.486,15,31.3,-30.3,16.5,-10,-19.2,0.295632801,0.239204077,0.436201056,-0.81551561
354,888069,1336450,-0.892,-0.372,0.478,13.5,30.4,-30,16.5,-10,-19.2,0.294717246,0.239539781,0.43632313,-0.815668203
355,891266,1336450,-0.892,-0.372,0.478,13.5,30.4,-30,16.5,-10,-19.2,0.294717246,0.239539781,0.43632313,-0.815668203
356,893477,1336450,-0.904,-0.391,0.478,11.2,28.1,-29.1,17.6,-9.9,-17.6,0.293801691,0.241584521,0.435987426,-0.815576647
357,894994,1336450,-0.908,-0.387,0.463,10.7,26.7,-28.4,17.6,-9.9,-17.6,0.292977691,0.241859188,0.436140019,-0.81572924
358,897582,1336460,-0.912,-0.403,0.467,10.5,25,-27.8,17.6,-9.9,-17.6,0.29218421,0.242103336,0.436262093,-0.815851314
359,900325,1336460,-0.916,-0.407,0.463,10.8,23.4,-27.3,17.6,-9.9,-17.6,0.291421247,0.242347484,0.436353648,-0.816003906
360,903405,1336460,-0.928,-0.418,0.471,11.3,21.6,-26.9,17.6,-9.9,-17.6,0.290688803,0.242530595,0.436414686,-0.816187017
361,905012,1336460,-0.94,-0.418,0.479,11.9,20,-26.4,17.6,-9.9,-17.6,0.289956359,0.242713706,0.436475723,-0.816370128
362,907375,1336470,-0.948,-0.418,0.48,12.8,18.5,-25.9,17.6,-9.9,-17.6,0.289254433,0.242896817,0.436506241,-0.81655324
363,910952,1336470,-0.952,-0.41,0.491,13.7,17.1,-25.5,17.6,-9.9,-17.6,0.288552507,0.243018891,0.436506241,-0.816736351
364,912422,1336470,-0.963,-0.39,0.503,14.3,15.7,-25.2,17.6,-9.9,-17.6,0.2878811,0.243171484,0.436475723,-0.81694998
365,914979,1336470,-0.967,-0.374,0.511,14.7,14.5,-25,17.6,-9.9,-17.6,0.287209693,0.243263039,0.436445204,-0.817194128
366,918353,1336480,-0.975,-0.354,0.511,15.1,13.1,-25,17.6,-9.9,-17.6,0.286568804,0.243354595,0.436384167,-0.817377239
367,919967,1336480,-0.994,-0.319,0.527,15.8,11.7,-24.8,17.6,-9.9,-17.6,0.285927915,0.24344615,0.43632313,-0.817651906
368,922939,1336480,-1.002,-0.314,0.531,16.6,10.1,-24.7,17.6,-9.9,-17.6,0.285287027,0.243476669,0.436201056,-0.817926572
369,925148,1336480,-1.006,-0.303,0.539,17.5,8.5,-24.5,17.6,-9.9,-17.6,0.284676656,0.243507187,0.436078982,-0.818201239
370,928366,1336490,-1.013,-0.291,0.551,18.3,7,-24.4,17.6,-9.9,-17.6,0.284096805,0.243537706,0.435926389,-0.818475906
371,929959,1336490,-1.036,-0.255,0.567,18.6,5.7,-24.1,17.6,-9.9,-17.6,0.283486435,0.243507187,0.435743278,-0.818781091
372,933680,1336490,-1.048,-0.231,0.579,18.3,4.5,-23.9,17.6,-9.9,-17.6,0.282937101,0.243476669,0.435590686,-0.819086276
373,935108,1336490,-1.063,-0.211,0.584,17.6,3.5,-23.6,17.6,-9.9,-17.6,0.282387768,0.243385113,0.435407575,-0.819360942
374,938168,1336500,-1.075,-0.183,0.595,16.2,2.4,-23.5,17.6,-9.9,-17.6,0.281838435,0.243354595,0.435254982,-0.819666128
375,940349,1336500,-1.075,-0.183,0.595,16.2,2.4,-23.5,17.6,-9.9,-17.6,0.281838435,0.243354595,0.435254982,-0.819666128
376,942595,1336500,-1.117,-0.096,0.624,12,0,-23.6,18.1,-9.6,-16.3,0.280861843,0.243079928,0.435041353,-0.820184942
377,945143,1336500,-1.129,-0.087,0.624,9.3,-1.6,-23.5,18.1,-9.6,-16.3,0.280404065,0.242896817,0.435010834,-0.82042909
378,947424,1336510,-1.141,-0.075,0.636,6.5,-3.3,-23,18.1,-9.6,-16.3,0.279976806,0.242652669,0.434980316,-0.82064272
379,950797,1336510,-1.172,-0.043,0.645,3.7,-5.1,-22.2,18.1,-9.6,-16.3,0.279610584,0.242378002,0.435010834,-0.820856349
380,952364,1336510,-1.18,-0.043,0.649,0.9,-7,-21.1,18.1,-9.6,-16.3,0.279305399,0.242042299,0.435041353,-0.82103946
381,955344,1336510,-1.195,-0.039,0.645,-1.8,-9,-19.6,18.1,-9.6,-16.3,0.279030732,0.241676077,0.435132908,-0.821161534
382,957586,1336520,-1.231,-0.042,0.662,-4.4,-11.3,-18,18.1,-9.6,-16.3,0.278847621,0.241279336,0.435224464,-0.821283609
383,960570,1336520,-1.255,-0.041,0.658,-7,-13.6,-16.2,18.1,-9.6,-16.3,0.278725547,0.240852077,0.435377056,-0.821405683
384,963505,1336520,-1.283,-0.033,0.667,-10,-16,-14.2,18.1,-9.6,-16.3,0.27866451,0.240363781,0.435529649,-0.82146672
385,964973,1336520,-1.314,-0.02,0.672,-13.8,-18.4,-12.1,18.1,-9.6,-16.3,0.278695029,0.239844966,0.43571276,-0.821527757
386,968109,1336530,-1.369,-0.003,0.673,-18.6,-20.6,-9.8,18.1,-9.6,-16.3,0.278817103,0.239265114,0.435987426,-0.821497238
387,970273,1336530,-1.393,0.008,0.678,-24.1,-23.1,-7.7,18.1,-9.6,-16.3,0.279030732,0.238624226,0.43632313,-0.821436201
388,972521,1336530,-1.425,0.013,0.69,-30.1,-25.5,-5.7,18.1,-9.6,-16.3,0.279305399,0.2379223,0.436719871,-0.821344646
389,975541,1336530,-1.448,0.029,0.687,-35.9,-28.1,-3.7,18.1,-9.6,-16.3,0.279702139,0.237159337,0.437238685,-0.821161534
390,978534,1336540,-1.48,0.038,0.688,-41.4,-31.1,-1.8,18.1,-9.6,-16.3,0.280190435,0.236335337,0.437788018,-0.820917386
391,980040,1336540,-1.496,0.042,0.692,-46.2,-34.5,0.2,18.1,-9.6,-16.3,0.280770287,0.235450301,0.438398389,-0.820673238
392,983262,1336540,-1.504,0.038,0.692,-50.3,-38.4,2.3,18.1,-9.6,-16.3,0.281441694,0.234473708,0.439069796,-0.820368053
393,984929,1336540,-1.52,0.023,0.697,-53.5,-42.4,4.7,18.1,-9.6,-16.3,0.282204657,0.23340556,0.439741203,-0.82003235
394,987406,1336550,-1.524,0.007,0.693,-55.6,-46.2,7.3,18.1,-9.6,-16.3,0.283059175,0.232306894,0.44041261,-0.819696646
395,990560,1336550,-1.524,0.007,0.693,-55.6,-46.2,7.3,18.1,-9.6,-16.3,0.283059175,0.232306894,0.44041261,-0.819696646
396,992779,1336550,-1.536,0.007,0.697,-57.7,-53.7,13.5,16.5,-9.5,-16.8,0.285042879,0.229987487,0.441694388,-0.818964202
397,995069,1336550,-1.539,0.035,0.697,-58,-57.7,16.6,16.5,-9.5,-16.8,0.286202582,0.228736229,0.442274239,-0.81859798
398,997411,1336560,-1.531,0.062,0.701,-58.1,-61.6,19.1,16.5,-9.5,-16.8,0.287423322,0.22748497,0.442854091,-0.818231758
399,1000990,1336560,-1.523,0.09,0.7,-57.6,-65.5,20.6,19.2,-9.2,-17.2,0.2887051,0.226142155,0.443372906,-0.817865535
400,1002589,1336560,-1.514,0.129,0.692,-56.4,-69.3,21.4,19.2,-9.2,-17.2,0.290047914,0.224738304,0.443830683,-0.817499313
401,1005033,1336560,-1.493,0.211,0.68,-54.3,-72.9,22.1,19.2,-9.2,-17.2,0.291421247,0.223334452,0.444227424,-0.817194128
402,1008341,1336570,-1.489,0.246,0.672,-51.3,-76.3,23,19.2,-9.2,-17.2,0.292825098,0.221839045,0.444532609,-0.816919462
403,1009981,1336570,-1.48,0.293,0.667,-47.7,-79.5,24.3,19,-9,-17.6,0.294259468,0.220374157,0.444776757,-0.816705832
404,1013137,1336570,-1.48,0.324,0.652,-44,-82.6,26.2,19,-9,-17.6,0.295724357,0.21887875,0.444898831,-0.816492203
405,1014982,1336570,-1.499,0.337,0.656,-40.6,-85.4,28.6,19,-9,-17.6,0.297250282,0.217352824,0.44492935,-0.816309091
406,1018006,1336580,-1.495,0.368,0.644,-37.6,-88.1,30.3,19,-9,-17.6,0.298837245,0.215826899,0.444868313,-0.816187017
407,1020240,1336580,-1.499,0.392,0.648,-35,-90.6,29.8,18.5,-9.3,-17.8,0.300424207,0.214300974,0.444776757,-0.816064943
408,1022603,1336580,-1.505,0.478,0.652,-33.5,-93,26.3,18.5,-9.3,-17.8,0.301950133,0.212652974,0.444624165,-0.816003906
409,1024941,1336580,-1.513,0.494,0.664,-33.7,-95.2,20.3,18.5,-9.3,-17.8,0.303384503,0.210943937,0.444502091,-0.815973388
410,1027330,1336590,-1.524,0.53,0.656,-35.8,-97.2,14.1,18.5,-9.3,-17.8,0.304757836,0.209112827,0.444441053,-0.815973388
411,1030841,1336590,-1.504,0.565,0.628,-39.1,-98.7,9.9,18.5,-9.3,-17.8,0.306070132,0.207190161,0.444441053,-0.815973388
412,1032403,1336590,-1.527,0.605,0.601,-42.8,-99.6,9.4,18.5,-9.3,-17.8,0.307382427,0.205206458,0.444502091,-0.815942869
413,1035191,1336590,-1.539,0.621,0.578,-46.3,-99.5,13,18.5,-9.3,-17.8,0.308786279,0.203253273,0.444593646,-0.815851314
414,1038416,1336600,-1.578,0.641,0.595,-49.1,-98,20.5,18.5,-9.3,-17.8,0.310312204,0.201391644,0.44471572,-0.815668203
415,1040010,1336600,-1.578,0.641,0.595,-49.1,-98,20.5,18.5,-9.3,-17.8,0.310312204,0.201391644,0.44471572,-0.815668203
416,1042512,1336600,-1.662,0.619,0.531,-54.1,-93,39.4,15.1,-9.2,-18.1,0.313852351,0.197973571,0.444990387,-0.814996796
417,1045895,1336600,-1.694,0.608,0.516,-56.8,-91.4,46.6,15.1,-9.2,-18.1,0.315805536,0.196417127,0.445173498,-0.814508499
418,1047501,1336610,-1.722,0.597,0.501,-60,-91,50.6,15.1,-9.2,-18.1,0.317850276,0.194891202,0.445417646,-0.813959166
419,1050828,1336610,-1.755,0.582,0.494,-63.6,-91.4,52,13.5,-9.1,-18.6,0.319925535,0.193334758,0.445692312,-0.813379315
420,1052440,1336610,-1.815,0.54,0.5,-67.3,-92.4,51.9,13.5,-9.1,-18.6,0.322031312,0.191717277,0.445997497,-0.812738426
421,1054942,1336610,-1.839,0.509,0.501,-70.7,-93.7,51.5,13.5,-9.1,-18.6,0.324167608,0.190069277,0.446394238,-0.812097537
422,1058431,1336620,-1.859,0.474,0.501,-72.9,-95.3,51.5,13.5,-9.1,-18.6,0.326303903,0.18836024,0.446790979,-0.811395611
423,1060636,1336620,-1.884,0.389,0.498,-73.8,-97.2,52.1,11.5,-9.3,-19,0.328470717,0.186620685,0.447187719,-0.810693686
424,1062831,1336620,-1.897,0.35,0.487,-73.3,-99.3,53.1,11.5,-9.3,-19,0.33066805,0.184850612,0.447553941,-0.810022279
425,1065045,1336620,-1.91,0.299,0.46,-71.6,-101.8,54.2,11.5,-9.3,-19,0.33292642,0.18305002,0.447859127,-0.809320353
426,1068345,1336630,-1.919,0.256,0.437,-68.9,-104.6,55.4,11.5,-9.3,-19,0.33518479,0.181249428,0.448103275,-0.808679464
427,1070308,1336630,-1.944,0.162,0.368,-65.7,-107.7,56.6,10.6,-8.7,-19.1,0.337504196,0.179418317,0.448255867,-0.808038575
428,1072419,1336630,-1.953,0.138,0.337,-62.4,-111.1,57.4,10.6,-8.7,-19.1,0.339854122,0.177556688,0.448286386,-0.807428205
429,1075562,1336630,-1.961,0.115,0.298,-59,-114.9,57.4,10.6,-8.7,-19.1,0.342204047,0.175664541,0.448255867,-0.806878872
430,1077326,1336640,-1.969,0.107,0.259,-55.2,-118.9,56.7,10.6,-8.7,-19.1,0.34458449,0.173711356,0.448133793,-0.806360057
431,1080882,1336640,-1.97,0.131,0.181,-50.8,-123.1,55,10.6,-8.7,-19.1,0.346964934,0.171697134,0.447889645,-0.80590228
432,1082422,1336640,-1.958,0.142,0.149,-44.9,-127.6,52.5,10.6,-8.7,-19.1,0.349284341,0.169621876,0.447523423,-0.805536058
433,1084923,1336640,-1.957,0.162,0.118,-37.2,-131.8,49.5,10.6,-8.7,-19.1,0.351573229,0.167516099,0.44697409,-0.80529191
434,1088320,1336650,-1.954,0.177,0.067,-27,-135.5,46.5,10.6,-8.7,-19.1,0.353831599,0.165379803,0.446241646,-0.805169836
435,1089944,1336650,-1.954,0.177,0.067,-27,-135.5,46.5,10.6,-8.7,-19.1,0.353831599,0.165379803,0.446241646,-0.805169836
436,1093648,1336650,-1.965,0.201,0.044,0.8,-141.5,42.3,10.8,-8.1,-19.7,0.35810419,0.161198767,0.443983276,-0.805352947
437,1095119,1336650,-1.969,0.197,0.044,17.4,-144.4,41,10.8,-8.1,-19.7,0.36014893,0.159184545,0.442396313,-0.805719169
438,1098272,1336660,-1.993,0.19,0.033,34.4,-147.8,39.9,10.8,-8.1,-19.7,0.362163152,0.157231361,0.440504166,-0.806237983
439,1100023,1336660,-2.017,0.198,0.038,51.1,-151,38.9,10.2,-8.6,-19.4,0.364116337,0.155369732,0.438276315,-0.806939909
440,1103436,1336660,-2.036,0.226,0.069,66.4,-152.9,37.6,10.2,-8.6,-19.4,0.366039003,0.153538621,0.435743278,-0.807794427
441,1104938,1336660,-2.063,0.247,0.113,79.3,-152.1,35.7,10.2,-8.6,-19.4,0.367839595,0.151860103,0.433027131,-0.808740501
442,1108043,1336670,-2.122,0.284,0.2,89.5,-149,32.8,10.2,-8.6,-19.4,0.369518113,0.150242622,0.430127873,-0.809839167
443,1110202,1336670,-2.153,0.331,0.24,97.6,-144.6,28.9,10.7,-9.3,-19.5,0.371074557,0.148747215,0.427137059,-0.810968352
444,1113277,1336670,-2.196,0.368,0.261,104.2,-140.4,24.6,10.7,-9.3,-19.5,0.372478408,0.147343364,0.424085208,-0.812189093
445,1114904,1336670,-2.25,0.412,0.281,109.8,-136.8,20.2,10.7,-9.3,-19.5,0.373729667,0.146000549,0.420941801,-0.81347087
446,1118480,1336680,-2.313,0.481,0.338,114.7,-133.7,16.2,10.7,-9.3,-19.5,0.37488937,0.144688253,0.417767876,-0.814813684
447,1119972,1336680,-2.324,0.501,0.361,119.1,-130.9,12.3,10.7,-10.3,-19.5,0.375927,0.143467513,0.414532914,-0.816217536
448,1122886,1336680,-2.323,0.532,0.392,123.7,-128.3,8.6,10.7,-10.3,-19.5,0.376842555,0.142277291,0.411236915,-0.817651906
449,1125892,1336680,-2.335,0.552,0.447,128.3,-125.6,5.4,10.7,-10.3,-19.5,0.377666555,0.141117588,0.407910398,-0.819147313
450,1127398,1336690,-2.319,0.54,0.463,132,-122.9,3.4,10.7,-10.3,-19.5,0.378429518,0.14004944,0.404522843,-0.820673238
451,1130426,1336690,-2.331,0.548,0.475,134.1,-119.9,2.1,10.7,-10.3,-19.5,0.379100925,0.139011811,0.40110477,-0.822199164
452,1132649,1336690,-2.417,0.617,0.531,133.3,-117.2,1.1,10.7,-10.3,-19.5,0.379741813,0.138035218,0.397747734,-0.823694571
453,1135822,1336690,-2.24,0.479,0.566,129.8,-114.9,-0.6,10.7,-10.3,-19.5,0.380321665,0.137028108,0.394451735,-0.825189978
454,1137409,1336700,-2.291,0.488,0.564,124.7,-113.3,-4.3,10.7,-10.3,-19.5,0.38084048,0.13595996,0.39127781,-0.826624348
455,1140881,1336700,-2.291,0.488,0.564,124.7,-113.3,-4.3,10.7,-10.3,-19.5,0.38084048,0.13595996,0.39127781,-0.826624348
456,1142527,1336700,-2.217,0.392,0.628,112.7,-110.3,-15.1,9,-11,-18.8,0.381603442,0.13370159,0.385326701,-0.829432051
457,1145431,1336700,-2.173,0.395,0.631,105.2,-108.7,-20.9,9,-11,-18.8,0.381847591,0.132419813,0.382549516,-0.830805383
458,1147523,1336710,-2.133,0.41,0.653,96.7,-107.4,-27.1,9,-11,-18.8,0.381969665,0.131076998,0.379985961,-0.832148198
459,1150516,1336710,-2.097,0.453,0.672,88.7,-105.8,-33.9,8.4,-11.6,-18.6,0.381969665,0.12961211,0.377605518,-0.833460494
460,1154028,1336710,-2.056,0.491,0.725,81.6,-103.5,-41.7,8.4,-11.6,-18.6,0.381817072,0.128055666,0.375377667,-0.83477279
461,1155508,1336710,-1.975,0.595,0.797,76.2,-100.3,-50.8,8.4,-11.6,-18.6,0.381511887,0.126438185,0.373271889,-0.836115604
462,1158461,1336720,-1.954,0.658,0.796,72.3,-96.5,-61.1,8.4,-11.6,-18.6,0.380993072,0.124790185,0.371318705,-0.837458419
463,1160023,1336720,-1.941,0.728,0.764,69.1,-92.7,-72.9,8.1,-11.7,-18.5,0.380199591,0.123081149,0.369487594,-0.838892788
464,1163465,1336720,-1.92,0.881,0.658,65.2,-89.1,-86.3,8.1,-11.7,-18.5,0.379161962,0.121280557,0.367778558,-0.840357677
465,1165008,1336720,-1.911,0.951,0.583,60.3,-86.4,-101.9,8.1,-11.7,-18.5,0.377819147,0.119388409,0.366222114,-0.841914121
466,1167686,1336730,-1.895,1.006,0.508,55.2,-84.6,-119.2,8.1,-11.7,-18.5,0.376171148,0.117343669,0.364818262,-0.84356212
467,1169962,1336730,-1.871,1.052,0.441,51.8,-83.4,-138,8.3,-12.5,-18.2,0.374156926,0.115115818,0.363536485,-0.845301675
468,1174002,1336730,-1.784,1.062,0.333,51.8,-82.3,-157.7,8.3,-12.5,-18.2,0.371776482,0.112765893,0.362315744,-0.847193823
469,1175518,1336730,-1.704,1.072,0.316,55.7,-80.8,-178.1,8.3,-12.5,-18.2,0.36896878,0.110324412,0.361064486,-0.849269082
470,1177690,1336740,-1.613,1.054,0.376,63.2,-78.2,-198.3,8.3,-12.5,-18.2,0.365764336,0.107821894,0.359721671,-0.85155797
471,1179867,1336740,-1.55,0.982,0.441,73.7,-74.5,-216.9,8.3,-12.5,-18.2,0.362132633,0.105319376,0.358256783,-0.854029969
472,1182863,1336740,-1.393,0.876,0.527,86.6,-70.5,-233.6,8.3,-12.5,-18.2,0.358134709,0.102847377,0.356608783,-0.85668508
473,1184907,1336740,-1.294,0.827,0.594,101,-66.6,-249.8,8.3,-12.5,-18.2,0.353740043,0.100466933,0.354777673,-0.859584338
474,1187998,1336750,-1.175,0.77,0.701,116.2,-63.1,-267.8,8.3,-12.5,-18.2,0.348948637,0.0980864895,0.352671896,-0.862666707
475,1190271,1336750,-1.175,0.77,0.701,116.2,-63.1,-267.8,8.3,-12.5,-18.2,0.348948637,0.0980864895,0.352671896,-0.862666707
476,1192480,1336750,-0.727,0.603,1.033,144.8,-54.8,-312.5,9.1,-14.2,-18.1,0.337870418,0.0934171575,0.34788049,-0.869502853
477,1195003,1336750,-0.553,0.559,1.075,155.9,-47.8,-337.3,9.1,-14.2,-18.1,0.331522568,0.0910672323,0.345225379,-0.87325663
478,1198437,1336760,-0.355,0.52,1.14,162.8,-36.3,-362,9.1,-14.2,-18.1,0.324564348,0.0888393811,0.342570269,-0.877132481
479,1200008,1336760,0.098,0.376,1.664,164.1,-21.3,-385.4,10.1,-15,-17.8,0.316995758,0.0867030854,0.340006714,-0.881099887
480,1202456,1336760,0.311,0.481,1.283,163.7,-10.9,-408.1,10.1,-15,-17.8,0.308908353,0.0845667898,0.337534715,-0.885097812
481,1206855,1336760,0.489,0.457,1.153,164.5,-11.2,-431,10.1,-15,-17.8,0.30036317,0.0823084201,0.335062716,-0.889217811
482,1208515,1336770,0.695,0.472,1.042,166.8,-22.3,-454.8,10.1,-15,-17.8,0.291390728,0.0796533097,0.332468642,-0.893398846
483,1210115,1336770,1.124,0.568,0.878,165.2,-36.1,-478.9,11.8,-14.5,-17.4,0.282021546,0.0765099033,0.32984405,-0.897640919
484,1212660,1336770,1.379,0.625,0.844,155.1,-47.4,-502.1,11.8,-14.5,-17.4,0.272225105,0.0729087191,0.327341533,-0.901882992
485,1214823,1336770,1.625,0.662,0.759,135.2,-56.1,-524.3,11.8,-14.5,-17.4,0.262092959,0.0688497574,0.3251442,-0.905972472
486,1218366,1336780,1.94,0.718,0.735,105.3,-63.4,-545.4,11.8,-14.5,-17.4,0.251564074,0.064333018,0.3234962,-0.909878842
487,1220206,1336780,2.71,0.798,0.632,65.8,-70.8,-565.1,13.9,-13.7,-17.5,0.240760521,0.0592974639,0.322580645,-0.913480026
488,1223558,1336780,2.708,0.313,-0.573,18.4,-79.7,-583.5,13.9,-13.7,-17.5,0.229621265,0.0536820582,0.322519608,-0.916684469
489,1225126,1336780,2.128,-1.122,-5.447,-20.9,-109.8,-598.8,13.9,-13.7,-17.5,0.218420972,0.0471510971,0.323068941,-0.919583728
490,1227487,1336790,5.652,-8.229,-7.567,46.5,-210,-594.3,13.9,-13.7,-17.5,0.207922605,0.0389721366,0.321695608,-0.922849208
491,1231622,1336790,8.008,-8.264,6.001,366.9,-351.8,-514.2,13.9,-13.7,-17.5,0.199713126,0.0299691763,0.313119907,-0.927976318
492,1232515,1336790,7.983,-8.263,3.506,731.4,-478.2,-303.3,13.9,-13.7,-17.5,0.196295053,0.0213629566,0.296365246,-0.934415723
493,1235062,1336790,7.996,-8.266,3.849,784.7,-451,-15.9,13.9,-13.7,-17.5,0.198461867,0.0154423658,0.278389843,-0.939573351
494,1238490,1336800,8.145,0.2,7.379,387.7,-239.4,155.1,13.9,-13.7,-17.5,0.202978607,0.0131534776,0.269325846,-0.941312906
495,1240020,1336800,7.64,2.211,6.742,-131.9,44.8,83.2,15,-11.1,-18.9,0.204474013,0.0139774773,0.272194586,-0.940122684
496,1242611,1336800,4.907,4.015,4.267,-439.7,271.5,-176.6,15,-11.1,-18.9,0.199346904,0.0165410321,0.282479324,-0.9381695
497,1246790,1336800,3.823,7.923,4.311,-523.4,382.2,-419,15,-11.1,-18.9,0.18857387,0.0195013276,0.294961394,-0.936490982
498,1249011,1336810,0.43,7.986,-0.847,-513.6,436.4,-494.2,15,-11.1,-18.9,0.17587817,0.0231330302,0.307412946,-0.934873501
499,1250712,1336810,-1.262,8.032,-1.267,-491.3,461.4,-393.8,16.3,-7.5,-18.7,0.164952544,0.0280159917,0.319345683,-0.932737205
500,1252591,1336810,-3.018,8.072,-1.653,-472.1,440,-192.3,16.3,-7.5,-18.7,0.158238472,0.033906064,0.330637532,-0.929746391
501,1256380,1336810,-4.197,8.097,-2.594,-453,378.5,2.6,16.3,-7.5,-18.7,0.155888546,0.0400402844,0.34110538,-0.926114689
502,1258393,1336820,-3.877,6.607,-3.669,-426.6,297.3,135.6,16.3,-7.5,-18.7,0.156773583,0.0455946532,0.350596637,-0.922147282
503,1260036,1336820,-3.743,3.628,-3.66,-387.3,220.5,200,17.5,-6.4,-18.7,0.159489731,0.0502334666,0.35892819,-0.918240913
504,1262810,1336820,-4.022,1.651,-5.517,-319.6,156,222.4,17.5,-6.4,-18.7,0.163090915,0.0539872433,0.365611744,-0.914761803
505,1266025,1336820,-3.394,-0.89,-3.48,-207.2,105.4,231.9,17.5,-6.4,-18.7,0.167119358,0.0572222053,0.369823298,-0.912137211
506,1268204,1336830,-2.263,-1.665,-2.02,-43.6,66.1,231.7,17.5,-6.4,-18.7,0.171239357,0.0602435377,0.370647298,-0.910824915
507,1270511,1336830,-3.127,-4.247,-1.793,132.6,39.1,223.2,17.4,-7.4,-18.3,0.175176244,0.0633259072,0.367870113,-0.911008026
508,1272782,1336830,-4.57,-6.967,-0.466,251.4,29.8,195.1,17.4,-7.4,-18.3,0.178472243,0.0664387951,0.362681967,-0.912228767
509,1275051,1336830,-4.439,-7.639,1.387,261.7,30.4,129.6,17.4,-7.4,-18.3,0.180425428,0.0690939055,0.357402264,-0.913724174
510,1277630,1336840,-3.392,-7.261,2.448,176.1,28.9,23.4,17.4,-7.4,-18.3,0.18039491,0.0705587939,0.353984191,-0.914944914
511,1279956,1336840,-2.709,-5.822,2.8,72.4,9.7,-86.6,17.4,-7.4,-18.3,0.178472243,0.0703451643,0.352702414,-0.915829951
512,1283991,1336840,-1.671,-4.144,2.877,17.1,-22.7,-147.2,17.4,-7.4,-18.3,0.175695059,0.0688192389,0.352488784,-0.916562395
513,1286294,1336840,-0.024,-1.521,2.751,26.7,-51.7,-144.9,17.4,-7.4,-18.3,0.173131504,0.0667744987,0.35196997,-0.917416913
514,1288526,1336850,0.167,-0.657,2.638,67.2,-62.9,-107.4,17.4,-7.4,-18.3,0.171391949,0.0649433882,0.3505356,-0.918424024
515,1290822,1336850,-0.001,-0.075,2.867,89.6,-42.7,-65.5,17.8,-9.6,-16.7,0.170262764,0.0639362774,0.348673971,-0.919400616
516,1293008,1336850,-0.247,1.284,4.081,76.6,3.4,-38,17.8,-9.6,-16.7,0.169377728,0.0639973144,0.347209082,-0.920133061
517,1295264,1336850,-0.862,1.061,3.395,60.7,41.1,-28.1,17.8,-9.6,-16.7,0.168401135,0.0648213141,0.346171453,-0.920621357
518,1297432,1336860,-1.195,0.895,3.252,67.5,47.5,-29.2,17.8,-9.6,-16.7,0.167363506,0.0658284249,0.345042268,-0.92117069
519,1300080,1336860,-1.36,0.51,3.105,97.5,23.9,-29.9,17.4,-9.6,-15.8,0.166447951,0.0664387951,0.343211158,-0.92199469
520,1302311,1336860,-1.298,-0.729,2.763,118.1,-1.6,-22,17.4,-9.6,-15.8,0.16583758,0.0666524247,0.340861232,-0.922940764
521,1305782,1336860,-1.098,-1.375,2.506,117.3,-16,-8.3,17.4,-9.6,-15.8,0.165623951,0.0666829432,0.33845027,-0.923856319
522,1307748,1336870,-0.863,-1.935,2.146,98.6,-19.3,4.2,17.4,-9.6,-15.8,0.165715506,0.0666829432,0.336375011,-0.924619282
523,1310005,1336870,-0.58,-2.28,1.78,69.6,-16.9,10.7,17.2,-10,-15,0.165929136,0.0666829432,0.334910123,-0.925107578
524,1312530,1336870,-0.513,-3.174,1.367,39.9,-13.6,12.5,17.2,-10,-15,0.166234321,0.0666524247,0.334025086,-0.925382244
525,1316051,1336870,-0.263,-2.846,1.218,16.2,-10.4,12.3,17.2,-10,-15,0.166539506,0.0665913877,0.333628346,-0.925443281
526,1318239,1336880,-0.068,-2.563,1.232,1,-6.6,11.7,17.2,-10,-15,0.166814173,0.0664998321,0.333567309,-0.925443281
527,1320520,1336880,0.06,-2.201,1.235,-6.3,-2.5,10.6,17.2,-10.5,-13.8,0.167058321,0.0664998321,0.333689383,-0.925351726
528,1322737,1336880,0.371,-1.335,1.244,-6.6,0.2,10.6,17.2,-10.5,-13.8,0.16727195,0.0665913877,0.333811457,-0.92526017
529,1324922,1336880,0.544,-0.938,1.23,-0.5,0,12.9,17.2,-10.5,-13.8,0.167546617,0.0666829432,0.333780938,-0.925199133
530,1327409,1336890,0.68,-0.596,1.19,8.6,-3,15.7,17.2,-10.5,-13.8,0.167882321,0.0667744987,0.333597827,-0.925229652
531,1330918,1336890,0.861,-0.101,1.079,16.6,-6.9,16.7,17.2,-10.5,-13.8,0.168248543,0.0668050172,0.333201086,-0.925290689
532,1332407,1336890,0.872,0.063,1.066,19.9,-9.4,14.7,17.2,-10.5,-13.8,0.168584246,0.0668050172,0.332743309,-0.925382244
533,1334929,1336890,0.849,0.166,1.078,18.8,-9.2,9.8,17.2,-10.5,-13.8,0.168828394,0.0667744987,0.33231605,-0.925504318
534,1338413,1336900,0.812,0.273,1.149,14.8,-6.5,3.5,17.2,-10.5,-13.8,0.16891995,0.0667134617,0.331980346,-0.925626392
535,1339910,1336900,0.561,0.263,1.054,9.8,-2.9,-1.4,17.6,-9.9,-15.5,0.168889431,0.0666829432,0.331766717,-0.925687429
536,1342386,1336900,0.401,0.227,0.973,4.1,0,-3.2,17.6,-9.9,-15.5,0.168828394,0.0666829432,0.331705679,-0.925748466
537,1345910,1336900,0.197,0.176,0.849,-3,2.2,-1.3,17.6,-9.9,-15.5,0.168767357,0.0666829432,0.331766717,-0.925717948
538,1347464,1336910,-0.014,0.091,0.711,-11.1,3.4,2.8,17.6,-9.9,-15.5,0.168828394,0.0667439802,0.332010865,-0.925626392
539,1350027,1336910,-0.415,-0.1,0.492,-18.8,3.8,7.3,17.9,-10,-16.2,0.168980987,0.0668050172,0.332377087,-0.925443281
540,1353452,1336910,-0.564,-0.215,0.426,-23.7,2.9,10.9,17.9,-10,-16.2,0.169164098,0.0668660543,0.332865383,-0.925229652
541,1354985,1336910,-0.65,-0.35,0.389,-24,0.3,13.4,17.9,-10,-16.2,0.169499802,0.0668660543,0.33332316,-0.925016022
542,1357445,1336920,-0.687,-0.467,0.375,-19.5,-3.7,15.4,17.9,-10,-16.2,0.169866024,0.0668355358,0.333689383,-0.924802393
543,1360908,1336920,-0.599,-0.646,0.397,-11.7,-8.9,17.9,17.7,-9.9,-17.2,0.170323801,0.0667439802,0.333872494,-0.924680319
544,1362409,1336920,-0.492,-0.688,0.421,-3.1,-14.6,20.6,17.7,-9.9,-17.2,0.170842616,0.0665913877,0.333841975,-0.924588763
545,1364902,1336920,-0.373,-0.683,0.453,4,-20.2,22.9,17.7,-9.9,-17.2,0.171452986,0.0663472396,0.333658864,-0.924558245
546,1368419,1336930,-0.16,-0.55,0.541,9,-25.2,24,17.7,-9.9,-17.2,0.172093875,0.066072573,0.33332316,-0.924588763
547,1369988,1336930,-0.087,-0.445,0.57,12.2,-29.2,23.5,17.3,-10,-18.1,0.172795801,0.0656758324,0.332956938,-0.924619282
548,1372423,1336930,-0.041,-0.34,0.6,14.9,-32.3,21.9,17.3,-10,-18.1,0.173436689,0.0652485733,0.332499161,-0.924710837
549,1375892,1336930,-0.016,-0.231,0.638,18.3,-34.5,19.5,17.3,-10,-18.1,0.17404706,0.0647602771,0.331949828,-0.924802393
550,1377463,1336940,-0.037,-0.101,0.696,22.6,-36.1,16.9,17.3,-10,-18.1,0.174626911,0.0642414624,0.331339457,-0.924954985
551,1379933,1336940,-0.064,-0.072,0.72,27.5,-37.2,14.2,17.3,-10,-18.1,0.175145726,0.0636921293,0.330637532,-0.925138096
552,1383436,1336940,-0.1,-0.075,0.745,32,-37.6,11.6,17.3,-10,-18.1,0.175603504,0.0631427961,0.329813532,-0.925382244
553,1384925,1336940,-0.128,-0.106,0.757,35.4,-37.4,8.9,17.3,-10,-18.1,0.176000244,0.0625934629,0.328959014,-0.925656911
554,1387443,1336950,-0.174,-0.239,0.782,37.4,-36.8,6.3,17.3,-10,-18.1,0.176366466,0.0620441298,0.328043458,-0.925962096
555,1390913,1336950,-0.187,-0.309,0.775,38.3,-35.9,3.7,17,-10.3,-16.9,0.176641133,0.0614947966,0.327127903,-0.926267281
556,1392389,1336950,-0.192,-0.376,0.772,38.7,-34.8,0.9,17,-10.3,-16.9,0.176854762,0.0609454634,0.326212348,-0.926572466
557,1394915,1336950,-0.205,-0.49,0.757,38.8,-33.7,-1.8,17,-10.3,-16.9,0.176976836,0.0603961303,0.325296793,-0.92690817
558,1398428,1336960,-0.206,-0.525,0.737,38.9,-32.8,-4.4,17,-10.3,-16.9,0.17709891,0.0598467971,0.324381237,-0.927243873
559,1399919,1336960,-0.202,-0.545,0.733,38.7,-32,-6.8,16.9,-10.4,-17.1,0.177129429,0.0592974639,0.3234962,-0.927579577
560,1402507,1336960,-0.187,-0.561,0.729,38.2,-31.3,-8.8,16.9,-10.4,-17.1,0.177129429,0.0587481307,0.322611164,-0.927945799
561,1405981,1336960,-0.147,-0.581,0.732,37.1,-30.5,-10.2,16.9,-10.4,-17.1,0.177068392,0.0581987976,0.321756645,-0.928281503
562,1407953,1336970,-0.128,-0.59,0.724,35.1,-29.5,-11.1,16.9,-10.4,-17.1,0.176976836,0.0576494644,0.320932646,-0.928586688
563,1409898,1336970,-0.092,-0.606,0.703,32.1,-28.2,-11.6,16.2,-10.5,-16.6,0.176946318,0.0571306497,0.320200201,-0.928891873
564,1412519,1336970,-0.069,-0.619,0.691,28.6,-27,-11.5,16.2,-10.5,-16.6,0.176854762,0.0566118351,0.319528794,-0.929197058
565,1415938,1336970,-0.006,-0.655,0.67,25,-25.9,-11.1,16.2,-10.5,-16.6,0.176793725,0.0560930204,0.318918424,-0.929441206
566,1417398,1336980,0.021,-0.668,0.654,21.5,-24.9,-10.6,16.2,-10.5,-16.6,0.17670217,0.0556047243,0.318399609,-0.929654836
567,1420725,1336980,0.032,-0.672,0.649,18.3,-24,-10.4,16.4,-10.5,-17,0.176641133,0.0551164281,0.317941832,-0.929837947
568,1422968,1336980,0.037,-0.66,0.653,15.4,-22.7,-10.7,16.4,-10.5,-17,0.176580096,0.054628132,0.317545091,-0.930021058
569,1425174,1336980,0.005,-0.62,0.646,13,-21.2,-11.5,16.4,-10.5,-17,0.176458022,0.0541703543,0.317239906,-0.93017365
570,1427454,1336990,-0.017,-0.588,0.643,11.2,-19.6,-12.9,16.4,-10.5,-17,0.176335948,0.0537430952,0.316934721,-0.930326243
571,1430711,1336990,-0.04,-0.564,0.655,10.4,-17.9,-14.4,16.2,-10.6,-16.7,0.176152837,0.0533158361,0.316660054,-0.930478835
572,1432468,1336990,-0.107,-0.531,0.649,10.5,-16.4,-15.8,16.2,-10.6,-16.7,0.175908689,0.0529190954,0.316415906,-0.930631428
573,1436766,1336990,-0.135,-0.519,0.634,11.4,-15.3,-16.8,16.2,-10.6,-16.7,0.175664541,0.0525223548,0.31614124,-0.930814539
574,1438958,1337000,-0.147,-0.53,0.634,13.2,-14.7,-17.6,16.2,-10.6,-16.7,0.175389874,0.0521561327,0.315836055,-0.930967132
575,1441245,1337000,-0.156,-0.593,0.646,16,-14.5,-18.1,17.3,-10.5,-16.8,0.175115207,0.0517899106,0.315469832,-0.931180761
576,1442703,1337000,-0.137,-0.645,0.642,20,-14.7,-18.4,17.3,-10.5,-16.8,0.174810022,0.051454207,0.315042573,-0.931394391
577,1445753,1337000,-0.126,-0.696,0.618,25.5,-15.4,-18.7,17.3,-10.5,-16.8,0.174504837,0.0510574664,0.31449324,-0.931669057
578,1447533,1337010,-0.095,-0.748,0.587,32,-16.4,-19,17.3,-10.5,-16.8,0.174199652,0.0507522813,0.313791314,-0.931974242
579,1449867,1337010,-0.06,-0.78,0.566,39.1,-17.7,-19.6,17.1,-10.7,-16.9,0.173894467,0.0504165777,0.312936796,-0.932340464
580,1452401,1337010,0.07,-0.807,0.563,46.2,-19.4,-20.6,17.1,-10.7,-16.9,0.173558763,0.0500503555,0.311960204,-0.932737205
581,1456589,1337010,0.133,-0.808,0.549,53.1,-21,-21.9,17.1,-10.7,-16.9,0.173192541,0.0496841334,0.310800501,-0.933225501
582,1458573,1337020,0.2,-0.802,0.536,59.6,-22.4,-23,17.1,-10.7,-16.9,0.172795801,0.0492873928,0.309549242,-0.933713797
583,1460078,1337020,0.256,-0.776,0.519,65.6,-23.7,-23.9,17.3,-10.7,-16.5,0.17239906,0.0488601337,0.30814539,-0.934293649
584,1462319,1337020,0.368,-0.743,0.473,71.4,-24.9,-24.3,17.3,-10.7,-16.5,0.172002319,0.0484939116,0.306619465,-0.934873501
585,1464854,1337020,0.452,-0.706,0.455,71.4,-24.9,-24.3,17.3,-10.7,-16.5,0.171605579,0.0480666524,0.305093539,-0.935483871
586,1468827,1337030,0.519,-0.691,0.445,76.6,-26.3,-24.3,17.3,-10.7,-16.5,0.171208838,0.0476393933,0.30344554,-0.936094241
587,1470863,1337030,0.714,-0.7,0.467,81,-28.2,-24.1,17,-11,-16.3,0.170812098,0.0472426527,0.301705985,-0.936765648
588,1473095,1337030,0.801,-0.71,0.461,83.9,-30.3,-23.8,17,-11,-16.3,0.170445875,0.0467543565,0.299905393,-0.937437056
589,1475383,1337030,0.852,-0.766,0.491,85.6,-32.5,-23.3,17,-11,-16.3,0.170079653,0.0462660604,0.298043764,-0.938108463
590,1477350,1337040,0.899,-0.838,0.549,85.9,-34.5,-22.1,17,-11,-16.3,0.169774468,0.0457472457,0.296182134,-0.93877987
591,1481293,1337040,0.945,-0.96,0.634,85.6,-36.2,-19.5,14.9,-11.4,-16,0.169499802,0.0451979125,0.294320505,-0.939451277
592,1483660,1337040,0.952,-1.008,0.641,86.1,-37.6,-14.9,14.9,-11.4,-16,0.169347209,0.0446485794,0.292428358,-0.940092166
593,1485821,1337040,0.952,-1.008,0.641,86.1,-37.6,-14.9,14.9,-11.4,-16,0.169347209,0.0446485794,0.292428358,-0.940092166
594,1487862,1337050,1.035,-1.068,0.671,89.5,-40.8,0.6,14.9,-11.4,-16,0.16953032,0.04361095,0.28849147,-0.941312906
595,1489929,1337050,1.141,-1.126,0.703,87.4,-44.4,20,17.5,-11.3,-16.1,0.17014069,0.0431531724,0.286507767,-0.941831721
596,1494177,1337050,1.181,-1.146,0.706,87.4,-44.4,20,17.5,-11.3,-16.1,0.170751061,0.0426648762,0.284554582,-0.942350536
597,1494790,1337050,1.212,-1.143,0.697,84.2,-46.1,29.8,17.5,-11.3,-16.1,0.17157506,0.0422376171,0.282601398,-0.942808313
598,1497923,1337060,1.244,-1.128,0.646,80.3,-47.3,39.7,17.5,-11.3,-16.1,0.17261269,0.0417798395,0.280739769,-0.943174535
599,1499916,1337060,1.232,-1.101,0.622,75.6,-47.7,49.6,16.8,-12.1,-16.1,0.173863948,0.0414136174,0.278969695,-0.943510239
600,1504212,1337060,1.221,-1.057,0.591,69.8,-47,58.8,16.8,-12.1,-16.1,0.175298318,0.0410473952,0.277291177,-0.943754387
601,1506403,1337060,1.19,-1.013,0.569,63.1,-45.4,67,16.8,-12.1,-16.1,0.176885281,0.0407727287,0.275765252,-0.94390698
602,1508472,1337070,1.132,-0.929,0.562,56.1,-42.9,73.8,16.8,-12.1,-16.1,0.178624836,0.0405590991,0.2743614,-0.943998535
603,1510485,1337070,1.1,-0.885,0.563,49.4,-40,79.3,16.8,-12.3,-15.9,0.180455947,0.0404065065,0.273110141,-0.944029054
604,1512378,1337070,1.061,-0.865,0.575,43.7,-37,84.3,16.8,-12.3,-15.9,0.182378613,0.040314951,0.272011475,-0.943968017
605,1515102,1337070,1.061,-0.865,0.575,43.7,-37,84.3,16.8,-12.3,-15.9,0.182378613,0.040314951,0.272011475,-0.943968017
606,1518573,1337080,0.994,-0.828,0.608,35.4,-31.4,93.4,16.8,-12.3,-15.9,0.186437574,0.040314951,0.269997253,-0.943754387
607,1520323,1337080,0.974,-0.839,0.613,32.5,-29.2,98.1,16.3,-12.6,-15.8,0.188604389,0.0404370251,0.269173254,-0.943571276
608,1522697,1337080,0.962,-0.847,0.633,29.6,-27.4,102.6,16.3,-12.6,-15.8,0.190862758,0.0405590991,0.268349254,-0.943327128
609,1525066,1337080,0.95,-0.854,0.621,26.2,-25.9,106.6,16.3,-12.6,-15.8,0.193182165,0.0408032472,0.26761681,-0.943052461
610,1527606,1337090,0.926,-0.881,0.661,22.6,-24.8,109.8,16.3,-12.6,-15.8,0.19553209,0.0410168767,0.266945402,-0.942747276
611,1529798,1337090,0.899,-0.888,0.67,19.4,-23.7,112.2,14.2,-13.2,-15.7,0.198004089,0.0412610248,0.266335032,-0.942381054
612,1533428,1337090,0.875,-0.904,0.69,17.5,-22.7,113.9,14.2,-13.2,-15.7,0.200415052,0.0415356914,0.265785699,-0.942014832
613,1535091,1337090,0.822,-0.942,0.699,17.2,-21.5,115.4,14.2,-13.2,-15.7,0.202948088,0.0418408765,0.265205847,-0.94164861
614,1539059,1337100,0.802,-0.961,0.708,18.5,-20.3,116.7,14.2,-13.2,-15.7,0.205420087,0.0421765801,0.264625996,-0.941251869
615,1540969,1337100,0.782,-0.976,0.716,24.5,-17.9,119.7,12.4,-13.7,-15.9,0.207983642,0.0426038392,0.263954588,-0.940855129
616,1542464,1337100,0.778,-0.988,0.724,24.5,-17.9,119.7,12.4,-13.7,-15.9,0.210516678,0.0430005799,0.263252663,-0.940458388
617,1545189,1337100,0.762,-1.003,0.732,28.7,-17.1,121.5,12.4,-13.7,-15.9,0.213080233,0.043488876,0.262459181,-0.940092166
618,1548186,1337110,0.75,-1.011,0.74,33.5,-16.6,123.5,12.4,-13.7,-15.9,0.215674306,0.0440382092,0.261574145,-0.939725944
619,1550241,1337110,0.75,-0.995,0.744,38.6,-16.2,125.7,11,-13.9,-15.9,0.218298898,0.0446180609,0.260597552,-0.939359722
620,1553761,1337110,0.747,-0.983,0.748,43.6,-15.8,128.1,11,-13.9,-15.9,0.220984527,0.0451979125,0.259498886,-0.939024018
621,1556052,1337110,0.763,-0.932,0.752,48.2,-15.1,130.5,11,-13.9,-15.9,0.223700674,0.0458998383,0.258278146,-0.938657796
622,1558050,1337120,0.764,-0.909,0.74,52.4,-14.4,132.9,11,-13.9,-15.9,0.22644734,0.046601764,0.257026887,-0.938322092
623,1560162,1337120,0.76,-0.873,0.732,56,-13.5,135.2,9,-14.5,-15.6,0.229224525,0.0473647267,0.255684072,-0.937986389
624,1563344,1337120,0.765,-0.842,0.728,58.7,-12.8,137.5,9,-14.5,-15.6,0.232032228,0.0481276894,0.254249702,-0.937620167
625,1564831,1337120,0.754,-0.775,0.716,60.5,-12,139.9,9,-14.5,-15.6,0.234900967,0.0489822077,0.252815332,-0.937253945
626,1567636,1337130,0.746,-0.747,0.709,61.1,-11.1,142.2,9,-14.5,-15.6,0.237830744,0.049836726,0.251350444,-0.936887722
627,1570850,1337130,0.742,-0.724,0.709,60.6,-9.9,144.4,8.5,-14.7,-15.4,0.240760521,0.0507522813,0.249885556,-0.936460463
628,1573097,1337130,0.711,-0.699,0.702,59,-8.3,146.6,8.5,-14.7,-15.4,0.243720817,0.0516983551,0.248481704,-0.936033204
629,1575309,1337130,0.691,-0.683,0.698,56.3,-6.2,148.8,8.5,-14.7,-15.4,0.246742149,0.0526749474,0.24713889,-0.935544908
630,1577600,1337140,0.672,-0.675,0.695,52.5,-3.8,150.8,8.5,-14.7,-15.4,0.249794,0.0536820582,0.245857112,-0.934995575
631,1579878,1337140,0.656,-0.671,0.687,47.2,-1.1,152.7,12.1,-16.7,-15.4,0.252845851,0.0547196875,0.244727927,-0.934415723
632,1582370,1337140,0.604,-0.654,0.669,40.7,1.6,154.3,12.1,-16.7,-15.4,0.25592822,0.0558183538,0.243720817,-0.933774834
633,1586459,1337140,0.577,-0.641,0.658,32.8,4.2,155.6,12.1,-16.7,-15.4,0.259041108,0.0569170202,0.242866298,-0.933072909
634,1588703,1337150,0.545,-0.633,0.663,24,6.6,156.7,12.1,-16.7,-15.4,0.262153996,0.0580156865,0.24222541,-0.932309946
635,1590192,1337150,0.545,-0.633,0.663,24,6.6,156.7,12.1,-16.7,-15.4,0.262153996,0.0580156865,0.24222541,-0.932309946
636,1592477,1337150,0.434,-0.603,0.666,5.4,10.9,157.8,9.2,-13.9,-15.8,0.268440809,0.0602130192,0.241706595,-0.930509354
637,1595286,1337150,0.403,-0.59,0.667,-3.4,13,158,9.2,-13.9,-15.8,0.271584216,0.061281167,0.241645558,-0.929532762
638,1597665,1337160,0.355,-0.581,0.683,-11.6,14.9,158.4,9.2,-13.9,-15.8,0.274727622,0.0623493149,0.241767632,-0.928525651
639,1601630,1337160,0.277,-0.548,0.709,-18.7,16.5,158.9,9.4,-14.3,-15.7,0.277901547,0.0634174627,0.242042299,-0.927426984
640,1603591,1337160,0.229,-0.547,0.706,-25.1,17.8,159.4,9.4,-14.3,-15.7,0.281075472,0.064455092,0.242408521,-0.9262978
641,1605929,1337160,0.189,-0.546,0.703,-30.9,18.5,159.7,9.4,-14.3,-15.7,0.284249397,0.0654927213,0.242927335,-0.925138096
642,1607596,1337170,0.146,-0.545,0.716,-36.6,18.9,159.9,9.4,-14.3,-15.7,0.287423322,0.0664998321,0.243568224,-0.923917356
643,1610949,1337170,0.083,-0.539,0.757,-42.1,19.1,159.9,9.3,-14.5,-15.9,0.290597247,0.0674764245,0.244300668,-0.922635578
644,1612996,1337170,0.055,-0.539,0.793,-46.6,19.1,159.6,9.3,-14.5,-15.9,0.293771172,0.0683919797,0.245124668,-0.921353801
645,1615023,1337170,0.019,-0.546,0.825,-49.6,18.7,158.7,9.3,-14.5,-15.9,0.296945097,0.069307535,0.246009705,-0.920041505
646,1617809,1337180,-0.015,-0.545,0.865,-50.8,18.3,157.3,9.3,-14.5,-15.9,0.300057985,0.0701925718,0.246894742,-0.918698691
647,1620053,1337180,-0.067,-0.563,0.941,-50.8,17.9,155.7,9.7,-14.5,-16.1,0.303170873,0.0710470901,0.247810297,-0.917386395
648,1623870,1337180,-0.09,-0.567,0.98,-49.5,17.7,154.2,9.7,-14.5,-16.1,0.306253243,0.0719321268,0.248664815,-0.91604358
649,1625201,1337180,-0.102,-0.574,1.02,-47.3,17.7,152.8,9.7,-14.5,-16.1,0.309274575,0.0727866451,0.249488815,-0.914731285
650,1627517,1337190,-0.106,-0.586,1.067,-44.1,17.8,151.5,9.7,-14.5,-16.1,0.312265389,0.0736716819,0.250251778,-0.913449507
651,1630908,1337190,-0.114,-0.605,1.122,-40,18.1,150.2,7.9,-16.6,-16.2,0.315225684,0.0745872372,0.250923185,-0.91216773
652,1633275,1337190,-0.106,-0.617,1.133,-34.9,18.3,148.7,7.9,-16.6,-16.2,0.318124943,0.075533311,0.251503037,-0.910916471
653,1635360,1337190,-0.106,-0.629,1.141,-29.2,18.7,146.7,7.9,-16.6,-16.2,0.320993683,0.0765099033,0.251991333,-0.90969573
654,1637615,1337200,-0.11,-0.645,1.134,-23.1,19.4,144.1,7.9,-16.6,-16.2,0.323801386,0.0775170141,0.252327036,-0.908536027
655,1640880,1337200,-0.11,-0.645,1.134,-23.1,19.4,144.1,7.9,-16.6,-16.2,0.323801386,0.0775170141,0.252327036,-0.908536027
656,1642771,1337200,-0.13,-0.648,1.126,-10.8,21.3,137.1,7.4,-15.3,-16.1,0.329020051,0.0796838282,0.252601703,-0.906399731
657,1646060,1337200,-0.138,-0.632,1.103,-4.6,22.6,133.2,7.4,-15.3,-16.1,0.331522568,0.0808740501,0.252632221,-0.905362102
658,1647473,1337210,-0.189,-0.596,1.065,1.1,24.1,129.3,7.4,-15.3,-16.1,0.333964049,0.082064272,0.252540666,-0.90438551
659,1650666,1337210,-0.217,-0.571,1.042,6.2,26,125.6,7,-16.1,-16,0.336283456,0.0833155309,0.252388073,-0.903469955
660,1652473,1337210,-0.237,-0.544,1.023,10,28,122,7,-16.1,-16,0.338511307,0.0845667898,0.252174444,-0.902554399
661,1654830,1337210,-0.272,-0.515,1.001,13,30.3,118.6,7,-16.1,-16,0.340647603,0.0859401227,0.251930296,-0.901699881
662,1657760,1337220,-0.339,-0.451,0.948,15,32.7,115.2,7,-16.1,-16,0.342722861,0.0873439741,0.251655629,-0.900845363
663,1659985,1337220,-0.382,-0.422,0.925,16.2,35.1,112.1,6.6,-16.7,-16.3,0.344676046,0.0887783441,0.251380963,-0.900051881
664,1663866,1337220,-0.418,-0.394,0.899,16.3,37.5,108.9,6.6,-16.7,-16.3,0.346598712,0.090212714,0.251136814,-0.899227882
665,1666038,1337220,-0.461,-0.358,0.884,14.9,39.8,105.8,6.6,-16.7,-16.3,0.348429823,0.091708121,0.250923185,-0.8984344
666,1667538,1337230,-0.543,-0.297,0.847,12.1,42.1,102.5,6.6,-16.7,-16.3,0.350169378,0.0931730094,0.250801111,-0.897640919
667,1670081,1337230,-0.579,-0.265,0.825,7.7,44.2,99.1,6.7,-17.1,-16,0.351847896,0.0946378979,0.250770592,-0.896816919
668,1672391,1337230,-0.618,-0.236,0.802,1.8,46.3,95.5,6.7,-17.1,-16,0.353465377,0.0961027863,0.250892666,-0.89599292
669,1675935,1337230,-0.689,-0.196,0.765,-5.3,48.3,91.6,6.7,-17.1,-16,0.354991302,0.0975066378,0.251197851,-0.89516892
670,1678046,1337240,-0.721,-0.187,0.742,-13.8,50,87.2,6.7,-17.1,-16,0.356456191,0.0988494522,0.251655629,-0.894314402
671,1680250,1337240,-0.757,-0.174,0.724,-23.6,51.1,82.4,6.5,-15.2,-15.6,0.357829524,0.100100711,0.252357555,-0.893429365
672,1682681,1337240,-0.792,-0.158,0.705,-34.7,51.9,77.2,6.5,-15.2,-15.6,0.35914182,0.101290933,0.253242592,-0.89251381
673,1685269,1337240,-0.867,-0.156,0.711,-46.7,52.5,72,6.5,-15.2,-15.6,0.36036256,0.102328562,0.254432814,-0.891567736
674,1687666,1337250,-0.903,-0.144,0.724,-59.2,53.2,67.2,6.5,-15.2,-15.6,0.361491745,0.103274636,0.255836665,-0.890591144
675,1690018,1337250,-0.903,-0.144,0.724,-59.2,53.2,67.2,6.5,-15.2,-15.6,0.361491745,0.103274636,0.255836665,-0.890591144
676,1692608,1337250,-0.986,-0.138,0.714,-83.6,54.3,58.6,6.4,-17.9,-16.8,0.363536485,0.104739525,0.259681997,-0.888485366
677,1695936,1337250,-1.057,-0.12,0.716,-94.8,54.2,55.4,6.4,-17.9,-16.8,0.364513077,0.105349895,0.261818293,-0.8873867
678,1698180,1337260,-1.085,-0.128,0.713,-105.1,53.3,52.9,6.4,-17.9,-16.8,0.365489669,0.105838191,0.2641377,-0.886226997
679,1700383,1337260,-1.105,-0.127,0.721,-114.2,51.5,50.7,6.4,-17.9,-16.9,0.366435743,0.106204413,0.266670736,-0.885036775
680,1702693,1337260,-1.153,-0.161,0.75,-121.8,48.8,48.4,6.4,-17.9,-16.9,0.367351299,0.10647908,0.269295328,-0.883785516
681,1705704,1337260,-1.177,-0.188,0.774,-127.5,45.8,46.1,6.4,-17.9,-16.9,0.368266854,0.106601154,0.272011475,-0.882595294
682,1707476,1337270,-1.186,-0.216,0.786,-131.3,42.8,43.6,6.4,-17.9,-16.9,0.369151891,0.106631672,0.274788659,-0.881374554
683,1710307,1337270,-1.178,-0.243,0.809,-133.8,40.2,41.1,6.2,-17.7,-17.9,0.370036927,0.106540117,0.277596362,-0.880123295
684,1712625,1337270,-1.154,-0.291,0.891,-135.4,37.9,38.7,6.2,-17.7,-17.9,0.370860927,0.106448561,0.280404065,-0.878902554
685,1715182,1337270,-1.127,-0.315,0.953,-136,35.5,36.6,6.2,-17.7,-17.9,0.371654408,0.106234931,0.283211768,-0.877681814
686,1717481,1337280,-1.111,-0.339,1.015,-134.9,33.2,34.9,6.2,-17.7,-17.9,0.372417371,0.105990783,0.285988952,-0.876491592
687,1719790,1337280,-1.095,-0.363,1.065,-131.9,31.2,33.6,6.1,-16.4,-18,0.373180334,0.105746635,0.288674581,-0.87530137
688,1723017,1337280,-1.083,-0.414,1.159,-126.4,29.6,32.8,6.1,-16.4,-18,0.373912778,0.105471969,0.291268654,-0.874172185
689,1724830,1337280,-1.079,-0.434,1.19,-119.3,28.7,32.1,6.1,-16.4,-18,0.374614704,0.105258339,0.293710135,-0.873073519
690,1728378,1337290,-1.072,-0.449,1.209,-111.4,28.2,31.2,6.1,-16.4,-18,0.375286111,0.105075228,0.295968505,-0.87203589
691,1730025,1337290,-1.068,-0.465,1.225,-103.8,28,29.8,6.7,-14.1,-16.9,0.375896481,0.104953154,0.298104801,-0.871059297
692,1732308,1337290,-1.064,-0.481,1.221,-96.8,28.3,28.1,6.7,-14.1,-16.9,0.376476333,0.104892117,0.300119022,-0.870143742
693,1735119,1337290,-1.072,-0.477,1.21,-90.3,28.9,26.2,6.7,-14.1,-16.9,0.376995148,0.104861599,0.30201117,-0.869258705
694,1738348,1337300,-1.072,-0.481,1.198,-83.6,29.6,24.2,6.7,-14.1,-16.9,0.377422407,0.104892117,0.303781243,-0.868434706
695,1739866,1337300,-1.072,-0.481,1.198,-83.6,29.6,24.2,6.7,-14.1,-16.9,0.377422407,0.104892117,0.303781243,-0.868434706
696,1743702,1337300,-1.063,-0.414,1.17,-67.6,30.7,19.8,6.8,-14.5,-20,0.378093814,0.105197302,0.306772057,-0.867061373
697,1745959,1337300,-1.071,-0.379,1.147,-58.6,31.2,17.6,6.8,-14.5,-20,0.37836848,0.10544145,0.308084353,-0.866451003
698,1748072,1337310,-1.078,-0.335,1.112,-49.9,31.8,15.4,6.8,-14.5,-20,0.378551592,0.105716117,0.309274575,-0.865932188
699,1750383,1337310,-1.101,-0.249,1.046,-42.1,32.7,13.5,6.9,-13.7,-20,0.378673666,0.10605182,0.310281686,-0.865443892
700,1752576,1337310,-1.113,-0.197,1.018,-35.1,33.6,11.8,6.9,-13.7,-20,0.378765221,0.106509598,0.311197241,-0.865047151
701,1754952,1337310,-1.128,-0.142,0.991,-28.9,34.3,10.2,6.9,-13.7,-20,0.37879574,0.106997894,0.312021241,-0.864680929
702,1757565,1337320,-1.143,-0.091,0.96,-23.8,35,8.8,6.9,-13.7,-20,0.378765221,0.107516709,0.312723167,-0.864375744
703,1760011,1337320,-1.177,0.007,0.91,-19.6,35.7,7.3,7.2,-13,-20.6,0.378704184,0.108096561,0.313394574,-0.864070559
704,1763532,1337320,-1.193,0.047,0.887,-16.5,36.4,6.2,7.2,-13,-20.6,0.378612629,0.108676412,0.313974425,-0.863826411
705,1764998,1337320,-1.204,0.083,0.864,-14.4,37.2,5.2,7.2,-13,-20.6,0.378490555,0.109286782,0.314554277,-0.863612781
706,1768269,1337330,-1.216,0.146,0.825,-13.1,38,4.3,7.2,-13,-20.6,0.378337962,0.109927671,0.31510361,-0.863368633
707,1769910,1337330,-1.211,0.177,0.805,-12.6,38.7,3.3,7.5,-13.2,-20.4,0.378185369,0.11056856,0.315652944,-0.863185522
708,1772813,1337330,-1.207,0.201,0.778,-13.1,39.1,2.2,7.5,-13.2,-20.4,0.37797174,0.111239967,0.316202277,-0.862971892
709,1775678,1337330,-1.207,0.216,0.762,-14.9,39.3,1.2,7.5,-13.2,-20.4,0.37775811,0.111850337,0.316812647,-0.862758263
710,1777310,1337340,-1.199,0.236,0.738,-18.1,39.6,0.1,7.5,-13.2,-20.4,0.377544481,0.112460707,0.317484054,-0.862544633
711,1780249,1337340,-1.191,0.239,0.726,-22.5,40,-0.9,7.3,-14.1,-19,0.377300333,0.113010041,0.318247017,-0.862300485
712,1783304,1337340,-1.179,0.235,0.722,-27.9,40.6,-2,7.3,-14.1,-19,0.377056185,0.113528855,0.319101535,-0.862025819
713,1784912,1337340,-1.167,0.231,0.718,-34.1,41.5,-2.8,7.3,-14.1,-19,0.376781518,0.114017151,0.320108646,-0.861690115
714,1788542,1337350,-1.14,0.191,0.729,-40.6,42.7,-3.6,7.3,-14.1,-19,0.37653737,0.114444411,0.321237831,-0.861323893
715,1790046,1337350,-1.14,0.191,0.729,-40.6,42.7,-3.6,7.3,-14.1,-19,0.37653737,0.114444411,0.321237831,-0.861323893
716,1792590,1337350,-1.12,0.163,0.744,-54.6,45.3,-4.4,7.8,-13.5,-18.4,0.375988037,0.115207373,0.324045534,-0.860408338
717,1795592,1337350,-1.113,0.143,0.752,-62.3,46.6,-4.4,7.8,-13.5,-18.4,0.375743889,0.115543077,0.325601978,-0.859889523
718,1797486,1337360,-1.101,0.123,0.767,-70.4,48.1,-4.1,7.8,-13.5,-18.4,0.375469222,0.115817743,0.327341533,-0.859309671
719,1801698,1337360,-1.105,0.112,0.767,-79.1,49.8,-3.6,7.8,-13.2,-17.8,0.375255593,0.11609241,0.32923368,-0.858638264
720,1803938,1337360,-1.105,0.1,0.775,-87.9,51.5,-2.9,7.8,-13.2,-17.8,0.375072481,0.11630604,0.331308939,-0.85790582
721,1806567,1337360,-1.105,0.092,0.802,-96.3,53.1,-2.1,7.8,-13.2,-17.8,0.37488937,0.116489151,0.333567309,-0.85708182
722,1808422,1337370,-1.105,0.092,0.83,-104,54.6,-1.1,7.8,-13.2,-17.8,0.374736778,0.116672262,0.335947752,-0.856196783
723,1810064,1337370,-1.109,0.092,0.861,-110.4,55.7,-0.2,8.2,-12.5,-17.5,0.374584185,0.116794336,0.33845027,-0.855220191
724,1813380,1337370,-1.109,0.092,0.885,-115.1,56.5,1.1,8.2,-12.5,-17.5,0.37449263,0.11691641,0.341074862,-0.85421308
725,1815612,1337370,-1.093,0.084,0.939,-117.8,57.1,2.7,8.2,-12.5,-17.5,0.374401074,0.117038484,0.343729972,-0.853175451
726,1817582,1337380,-1.085,0.064,0.954,-118.9,57.6,4.6,8.2,-12.5,-17.5,0.374370556,0.117191076,0.346385083,-0.852107303
727,1820209,1337380,-1.066,0.04,0.962,-118.7,57.8,6.3,8.5,-12.1,-16.8,0.374370556,0.117343669,0.349070711,-0.851008637
728,1822383,1337380,-1.058,0.017,0.981,-117.5,57.6,8,8.5,-12.1,-16.8,0.374370556,0.117496261,0.351695303,-0.849879452
729,1825121,1337380,-1.015,-0.042,0.98,-115.5,57,9.1,8.5,-12.1,-16.8,0.374401074,0.117679373,0.354289377,-0.848780786
730,1827320,1337390,-0.996,-0.074,0.98,-113.1,56.5,9.8,8.5,-12.1,-16.8,0.374431593,0.117893002,0.356791894,-0.847682119
731,1831602,1337390,-0.984,-0.098,0.979,-110.2,56.1,10,8.7,-12.4,-22.4,0.374462111,0.118106632,0.359263894,-0.846583453
732,1833736,1337390,-0.969,-0.122,0.983,-106.4,56,9.6,8.7,-12.4,-22.4,0.374462111,0.11835078,0.361674856,-0.845515305
733,1836065,1337390,-0.946,-0.185,0.979,-101.7,56,8.9,8.7,-12.4,-22.4,0.374462111,0.118625446,0.363994263,-0.844508194
734,1838312,1337400,-0.93,-0.209,0.967,-96,56.3,7.7,8.7,-12.4,-22.4,0.374401074,0.118930631,0.366191595,-0.843531602
735,1839996,1337400,-0.93,-0.209,0.967,-96,56.3,7.7,8.7,-12.4,-22.4,0.374401074,0.118930631,0.366191595,-0.843531602
736,1843447,1337400,-0.899,-0.234,0.942,-82.4,57.7,5.2,9.1,-11.9,-19.5,0.374095889,0.11978515,0.370128483,-0.841822565
737,1845119,1337400,-0.895,-0.23,0.927,-74.8,58.4,4,9.1,-11.9,-19.5,0.37388226,0.120303964,0.371990112,-0.841029084
738,1847529,1337410,-0.879,-0.222,0.915,-67,59.1,2.7,9.1,-11.9,-19.5,0.373638112,0.120853298,0.373699149,-0.84029664
739,1850186,1337410,-0.875,-0.211,0.907,-59.1,59.5,1.6,9,-11.7,-20.3,0.373332926,0.121463668,0.375255593,-0.839655751
740,1852992,1337410,-0.859,-0.16,0.894,-51.3,60,0.5,9,-11.7,-20.3,0.372997223,0.122165593,0.376689962,-0.839045381
741,1855059,1337410,-0.85,-0.129,0.882,-43.7,60.4,-0.3,9,-11.7,-20.3,0.372600482,0.122898038,0.37797174,-0.838526566
742,1857680,1337420,-0.83,-0.114,0.882,-36.3,60.8,-1.1,9,-11.7,-20.3,0.372173223,0.123722037,0.379131443,-0.838099307
743,1860868,1337420,-0.822,-0.098,0.878,-29.2,61.2,-1.8,9.3,-11.6,-21.4,0.371715445,0.124576556,0.380169073,-0.837702567
744,1863323,1337420,-0.79,-0.099,0.865,-22.4,61.7,-2.3,9.3,-11.6,-21.4,0.371227149,0.125492111,0.381084628,-0.837366863
745,1865698,1337420,-0.778,-0.099,0.869,-16,62.1,-2.8,9.3,-11.6,-21.4,0.370677816,0.126499222,0.381908628,-0.837061678
746,1867926,1337430,-0.763,-0.099,0.86,-10.3,62.6,-3.2,9.3,-11.6,-21.4,0.370128483,0.127506333,0.382610553,-0.836848048
747,1870236,1337430,-0.743,-0.112,0.852,-5.5,63,-3.5,9.7,-11.1,-22.2,0.369548631,0.128604999,0.383220923,-0.836634419
748,1872507,1337430,-0.727,-0.128,0.848,-1.7,63.5,-3.9,9.7,-11.1,-22.2,0.36896878,0.129703665,0.383770257,-0.836481826
749,1875049,1337430,-0.72,-0.136,0.836,1,64.4,-4.2,9.7,-11.1,-22.2,0.368327891,0.130863369,0.384289071,-0.836359752
750,1878544,1337440,-0.716,-0.148,0.828,3.3,65.3,-4.6,9.7,-11.1,-22.2,0.367656484,0.132023072,0.384777367,-0.836237678
751,1880628,1337440,-0.708,-0.16,0.812,5.1,66.2,-4.7,10.5,-10.9,-20.3,0.367046113,0.133243812,0.385204627,-0.836115604
752,1882974,1337440,-0.7,-0.164,0.804,6.4,66.9,-4.7,10.5,-10.9,-20.3,0.366374706,0.134495071,0.385631886,-0.836024049
753,1885164,1337440,-0.704,-0.16,0.793,7,67.6,-4.4,10.5,-10.9,-20.3,0.365703299,0.13574633,0.386059145,-0.835901975
754,1887512,1337450,-0.708,-0.148,0.781,7,68.2,-4,10.5,-10.9,-20.3,0.365031892,0.136997589,0.386486404,-0.835779901
755,1890837,1337450,-0.708,-0.148,0.781,7,68.2,-4,10.5,-10.9,-20.3,0.365031892,0.136997589,0.386486404,-0.835779901
756,1893024,1337450,-0.712,-0.12,0.757,6.1,68.9,-3,10.5,-11.1,-20.2,0.363719596,0.139561144,0.387401959,-0.835535752
757,1895156,1337450,-0.716,-0.105,0.754,5.2,69.3,-2.3,10.5,-11.1,-20.2,0.363078707,0.140842921,0.387859737,-0.83538316
758,1897546,1337460,-0.712,-0.101,0.746,4.3,69.4,-1.6,10.5,-11.1,-20.2,0.362437819,0.142124699,0.388317515,-0.835230567
759,1900710,1337460,-0.708,-0.101,0.726,3.3,69.2,-0.8,10.7,-10.7,-20.3,0.36179693,0.143406476,0.388805811,-0.835047456
760,1902895,1337460,-0.7,-0.101,0.722,2.1,68.8,0,10.7,-10.7,-20.3,0.361247597,0.144688253,0.389324625,-0.834833827
761,1905162,1337460,-0.696,-0.105,0.718,0.5,68.2,0.9,10.7,-10.7,-20.3,0.360667745,0.145939512,0.38984344,-0.834620197
762,1907418,1337470,-0.68,-0.121,0.706,-1.3,67.5,1.8,10.7,-10.7,-20.3,0.36014893,0.147190771,0.390392773,-0.834376049
763,1910201,1337470,-0.677,-0.141,0.702,-3.6,66.9,2.6,10.7,-11,-19.9,0.359630116,0.148380993,0.390972625,-0.834101382
764,1913416,1337470,-0.669,-0.161,0.698,-6.2,66.4,3.2,10.7,-11,-19.9,0.35914182,0.149571215,0.391613514,-0.833826716
765,1914974,1337470,-0.666,-0.184,0.694,-9.1,66,3.7,10.7,-11,-19.9,0.358684042,0.150730918,0.392284921,-0.833491012
766,1917601,1337480,-0.654,-0.224,0.702,-12,65.6,4.1,10.7,-11,-19.9,0.358226264,0.151860103,0.392986847,-0.83312479
767,1920000,1337480,-0.651,-0.248,0.709,-14.5,65.1,4.4,11.2,-10.6,-19.8,0.357799005,0.152989288,0.393749809,-0.832758568
768,1922436,1337480,-0.647,-0.271,0.717,-16.4,64.7,4.8,11.2,-10.6,-19.8,0.357371746,0.154057436,0.394543291,-0.832361827
769,1925094,1337480,-0.639,-0.299,0.721,-17.5,64.3,5,11.2,-10.6,-19.8,0.356975005,0.155156102,0.395336772,-0.831965087
770,1928491,1337490,-0.616,-0.351,0.736,-17.7,63.9,5.3,11.2,-10.6,-19.8,0.356578265,0.15622425,0.396130253,-0.831537828
771,1930780,1337490,-0.609,-0.374,0.728,-17.6,63.1,5.7,10.6,-10.8,-19.7,0.356212043,0.157261879,0.396923734,-0.831141087
772,1932469,1337490,-0.605,-0.394,0.732,-17.3,62.2,6.2,10.6,-10.8,-19.7,0.35584582,0.158330027,0.397717215,-0.830713828
773,1935274,1337490,-0.597,-0.422,0.732,-17.2,61.2,6.8,10.6,-10.8,-19.7,0.355479598,0.159367656,0.398480178,-0.830286569
774,1937469,1337500,-0.59,-0.449,0.732,-17.1,60.2,7.2,10.6,-10.8,-19.7,0.355143895,0.160374767,0.399212622,-0.829889828
775,1940588,1337500,-0.59,-0.449,0.732,-17.1,60.2,7.2,10.6,-10.8,-19.7,0.355143895,0.160374767,0.399212622,-0.829889828
776,1942901,1337500,-0.594,-0.477,0.724,-15.7,58.6,7.8,12.6,-10.6,-19.7,0.354991302,0.162816248,0.399700919,-0.829248939
777,1946049,1337500,-0.599,-0.5,0.713,-14,57.8,8.1,12.6,-10.6,-19.7,0.354686117,0.163823359,0.400372326,-0.828882717
778,1947591,1337510,-0.603,-0.512,0.693,-11.9,56.7,8.5,12.6,-10.6,-19.7,0.354380932,0.16483047,0.400982696,-0.828485977
779,1950839,1337510,-0.607,-0.512,0.685,-9.5,55.4,9.2,12.6,-10.8,-19.3,0.354106265,0.16583758,0.401562548,-0.828150273
780,1952342,1337510,-0.615,-0.524,0.686,-7,54,9.7,12.6,-10.8,-19.3,0.353831599,0.166844691,0.402050844,-0.82781457
781,1955345,1337510,-0.619,-0.527,0.674,-4.3,52.4,10.2,12.6,-10.8,-19.3,0.353556932,0.167851802,0.402508621,-0.827509384
782,1957476,1337520,-0.619,-0.539,0.67,-1.3,50.8,10.8,12.6,-10.8,-19.3,0.353312784,0.168828394,0.402874844,-0.827204199
783,1960631,1337520,-0.62,-0.543,0.666,1.9,49.4,11.5,13.2,-10.7,-19.6,0.353099155,0.169835505,0.403180029,-0.826960051
784,1962954,1337520,-0.62,-0.551,0.659,5.7,47.9,11.9,13.2,-10.7,-19.6,0.352855007,0.170873135,0.403424177,-0.826746422
785,1964990,1337520,-0.616,-0.551,0.643,9.5,46.1,12.3,13.2,-10.7,-19.6,0.352641377,0.171880245,0.403546251,-0.826563311
786,1968245,1337530,-0.624,-0.555,0.643,13.1,44.1,12.5,13.2,-10.7,-19.6,0.352427747,0.172887356,0.403607288,-0.826410718
787,1970308,1337530,-0.62,-0.547,0.635,16.3,42.1,13,13.4,-10.9,-19.2,0.352244636,0.173894467,0.403576769,-0.826288644
788,1972699,1337530,-0.628,-0.535,0.628,18.9,40.4,13.3,13.4,-10.9,-19.2,0.352031007,0.174871059,0.403515732,-0.826197089
789,1975623,1337530,-0.636,-0.535,0.624,21.2,38.7,13.7,13.4,-10.9,-19.2,0.351878414,0.175847652,0.40336314,-0.826136052
790,1977946,1337540,-0.631,-0.523,0.624,23.1,37,14,13.4,-10.9,-19.2,0.351695303,0.176824244,0.403180029,-0.826105533
791,1980129,1337540,-0.635,-0.511,0.624,24.9,35.5,14.4,11.5,-11,-19.3,0.351573229,0.177800836,0.402935881,-0.826075014
792,1982403,1337540,-0.639,-0.496,0.612,26.3,33.8,14.6,11.5,-11,-19.3,0.351420637,0.178716391,0.402661214,-0.826044496
793,1984890,1337540,-0.635,-0.484,0.612,27.4,32.1,14.9,11.5,-11,-19.3,0.351298563,0.179662465,0.402356029,-0.826044496
794,1988376,1337550,-0.643,-0.476,0.6,27.9,30.3,15.3,11.5,-11,-19.3,0.351207007,0.180547502,0.402020325,-0.826075014
795,1990584,1337550,-0.643,-0.476,0.6,27.9,30.3,15.3,11.5,-11,-19.3,0.351207007,0.180547502,0.402020325,-0.826075014
796,1992850,1337550,-0.65,-0.44,0.589,26.7,26.6,16.1,13.8,-11.1,-19.3,0.351329081,0.182653279,0.401165807,-0.82595294
797,1995016,1337550,-0.654,-0.428,0.589,25.3,24.8,16.3,13.8,-11.1,-19.3,0.351298563,0.18344676,0.400830103,-0.82595294
798,1997636,1337560,-0.654,-0.421,0.581,23.6,23.1,16.5,13.8,-11.1,-19.3,0.351298563,0.184209723,0.400524918,-0.82595294
799,2001110,1337560,-0.654,-0.421,0.581,21.9,21.4,16.5,14,-11.1,-19.2,0.351329081,0.18488113,0.400219733,-0.825922422
800,2002565,1337560,-0.65,-0.421,0.577,20.1,19.9,16.5,14,-11.1,-19.2,0.3513596,0.185552538,0.399945067,-0.825891903
801,2005005,1337560,-0.65,-0.425,0.573,18.2,18.4,16.6,14,-11.1,-19.2,0.351420637,0.186162908,0.399700919,-0.825861385
802,2008252,1337570,-0.65,-0.429,0.573,16.2,16.7,16.6,14,-11.1,-19.2,0.351512192,0.186742759,0.399456771,-0.825800348
803,2010942,1337570,-0.646,-0.437,0.569,13.9,15,16.6,13.9,-11.1,-19,0.351634266,0.187261574,0.399243141,-0.825739311
804,2012616,1337570,-0.65,-0.44,0.565,11.5,13.3,16.7,13.9,-11.1,-19,0.351786859,0.187719352,0.399090548,-0.825647755
805,2014923,1337570,-0.65,-0.448,0.561,8.9,11.7,16.7,13.9,-11.1,-19,0.351939451,0.188177129,0.398907437,-0.8255562
806,2017511,1337580,-0.654,-0.448,0.565,6.3,10.3,16.6,13.9,-11.1,-19,0.352122562,0.188543352,0.3988464,-0.825434126
807,2019997,1337580,-0.655,-0.46,0.566,3.8,8.9,16.5,13.6,-11.3,-19,0.352305673,0.188879055,0.398754845,-0.825312052
808,2023285,1337580,-0.659,-0.46,0.562,1.5,7.4,16.4,13.6,-11.3,-19,0.352549821,0.18918424,0.398724326,-0.825159459
809,2025478,1337580,-0.659,-0.46,0.57,-0.5,6,16.3,13.6,-11.3,-19,0.35279397,0.189428388,0.398724326,-0.825006867
810,2027665,1337590,-0.655,-0.464,0.569,-2.3,4.6,16.4,13.6,-11.3,-19,0.353038118,0.189611499,0.398724326,-0.824823756
811,2030057,1337590,-0.651,-0.464,0.573,-4.1,3.2,16.4,13,-11.3,-18.8,0.353343303,0.18979461,0.398754845,-0.824671163
812,2032358,1337590,-0.651,-0.468,0.573,-5.8,1.6,16.6,13,-11.3,-18.8,0.353648488,0.189916684,0.398815882,-0.824488052
813,2034961,1337590,-0.647,-0.464,0.569,-7.7,0.2,16.8,13,-11.3,-18.8,0.353984191,0.19000824,0.398876919,-0.824274422
814,2038358,1337600,-0.647,-0.46,0.573,-9.8,-1.2,17,13,-11.3,-18.8,0.354350414,0.190069277,0.398968474,-0.824060793
815,2039876,1337600,-0.647,-0.46,0.573,-9.8,-1.2,17,13,-11.3,-18.8,0.354350414,0.190069277,0.398968474,-0.824060793
816,2043161,1337600,-0.647,-0.46,0.561,-14.1,-4,17.1,11.1,-11.1,-19.1,0.355388043,0.19061861,0.399212622,-0.823358867
817,2045461,1337600,-0.647,-0.46,0.558,-16,-5.2,17.1,11.1,-11.1,-19.1,0.355784783,0.190557573,0.399395734,-0.823114719
818,2047619,1337610,-0.651,-0.464,0.55,-17.7,-6.4,17.1,11.1,-11.1,-19.1,0.356242561,0.190466018,0.399578845,-0.822870571
819,2049980,1337610,-0.651,-0.472,0.55,-18.9,-7.6,17.2,10.4,-11.1,-19,0.356700339,0.190313425,0.399792474,-0.822595904
820,2052528,1337610,-0.651,-0.48,0.542,-19.6,-8.8,17.2,10.4,-11.1,-19,0.357158116,0.190160833,0.400006104,-0.822321238
821,2056028,1337610,-0.643,-0.488,0.55,-19.9,-10.1,17.3,10.4,-11.1,-19,0.357646413,0.189977721,0.400219733,-0.822046571
822,2058282,1337620,-0.643,-0.507,0.55,-19.9,-11.3,17.4,10.4,-11.1,-19,0.358134709,0.189764092,0.400402844,-0.821802423
823,2060474,1337620,-0.64,-0.515,0.557,-19.5,-12.3,17.2,9.9,-11.2,-19.3,0.358623005,0.189550462,0.400585955,-0.821527757
824,2063374,1337620,-0.636,-0.531,0.565,-18.8,-13.2,17.2,9.9,-11.2,-19.3,0.35914182,0.189306314,0.400769066,-0.821283609
825,2065555,1337620,-0.632,-0.539,0.561,-17.6,-14.1,17,9.9,-11.2,-19.3,0.359630116,0.189062166,0.400860622,-0.821069979
826,2068528,1337630,-0.632,-0.559,0.561,-16.2,-15.1,17,9.9,-11.2,-19.3,0.36014893,0.188818018,0.400982696,-0.820856349
827,2070032,1337630,-0.632,-0.559,0.565,-14.7,-16.1,16.9,9.4,-11.3,-19.4,0.360637226,0.18857387,0.401074252,-0.82064272
828,2072511,1337630,-0.632,-0.563,0.557,-13.4,-17.1,16.8,9.4,-11.3,-19.4,0.361156041,0.188299203,0.40110477,-0.820459609
829,2074964,1337630,-0.64,-0.555,0.558,-11.9,-17.9,16.8,9.4,-11.3,-19.4,0.361674856,0.188024537,0.40110477,-0.820307016
830,2078357,1337640,-0.636,-0.555,0.558,-10.1,-18.7,16.7,9.4,-11.3,-19.4,0.362163152,0.187719352,0.401074252,-0.820154424
831,2079977,1337640,-0.64,-0.547,0.558,-8.1,-19.5,16.6,13.8,-12.8,-19.2,0.362681967,0.187505722,0.400982696,-0.82003235
832,2083474,1337640,-0.644,-0.539,0.558,-5.8,-20.3,16.5,13.8,-12.8,-19.2,0.363170263,0.187231056,0.400860622,-0.819940794
833,2085077,1337640,-0.648,-0.531,0.558,-3.4,-21.1,16.6,13.8,-12.8,-19.2,0.363658559,0.186956389,0.400708029,-0.819879757
834,2088385,1337650,-0.644,-0.527,0.565,-1.1,-21.9,16.7,13.8,-12.8,-19.2,0.364146855,0.186712241,0.400463881,-0.81981872
835,2090183,1337650,-0.644,-0.527,0.565,-1.1,-21.9,16.7,13.8,-12.8,-19.2,0.364146855,0.186712241,0.400463881,-0.81981872
836,2092683,1337650,-0.643,-0.507,0.561,3.1,-23.6,16.8,11.5,-9.6,-19.2,0.365123447,0.18652913,0.400189215,-0.819574572
837,2096026,1337650,-0.643,-0.503,0.569,4.8,-24.4,16.8,11.5,-9.6,-19.2,0.365611744,0.186284982,0.399822993,-0.819574572
838,2098320,1337660,-0.643,-0.496,0.565,6.1,-25.2,16.8,11.5,-9.6,-19.2,0.36610004,0.186010315,0.399456771,-0.81960509
839,2099998,1337660,-0.643,-0.492,0.569,7.2,-25.9,16.8,12.3,-9.1,-19.1,0.366618854,0.185766167,0.39906003,-0.819635609
840,2103305,1337660,-0.639,-0.496,0.573,7.9,-26.4,16.9,12.3,-9.1,-19.1,0.36710715,0.185491501,0.398632771,-0.819666128
841,2105774,1337660,-0.639,-0.492,0.585,8.5,-26.8,16.9,12.3,-9.1,-19.1,0.367625965,0.185247353,0.398174993,-0.819727165
842,2107642,1337670,-0.635,-0.496,0.589,8.8,-27.1,17.1,12.3,-9.1,-19.1,0.368114261,0.184972686,0.397747734,-0.819757683
843,2110939,1337670,-0.631,-0.496,0.588,8.9,-27.3,17.3,13,-9.8,-19.4,0.368633076,0.184698019,0.397289956,-0.81981872
844,2113168,1337670,-0.631,-0.496,0.588,8.7,-27.6,17.6,13,-9.8,-19.4,0.369151891,0.184423353,0.396832179,-0.819849239
845,2115148,1337670,-0.631,-0.492,0.588,8,-27.7,17.9,13,-9.8,-19.4,0.369670705,0.184148686,0.39640492,-0.819910276
846,2117556,1337680,-0.623,-0.484,0.588,6.8,-27.7,18.2,13,-9.8,-19.4,0.370220038,0.18387402,0.39597766,-0.819910276
847,2119811,1337680,-0.635,-0.488,0.589,5.1,-27.7,18.5,13.4,-9.6,-19.1,0.370769372,0.183568834,0.39558092,-0.819940794
848,2124317,1337680,-0.639,-0.464,0.589,3,-27.6,18.7,13.4,-9.6,-19.1,0.371318705,0.183263649,0.395245216,-0.819910276
849,2124860,1337680,-0.635,-0.456,0.592,0.8,-27.5,19,13.4,-9.6,-19.1,0.371898556,0.182958464,0.394940031,-0.819879757
850,2129051,1337690,-0.638,-0.452,0.585,-1.3,-27.4,19.2,13.4,-9.6,-19.1,0.372478408,0.182622761,0.394665365,-0.81981872
851,2129868,1337690,-0.642,-0.448,0.596,-3.3,-27.3,19.5,11.3,-11.6,-19.5,0.373088778,0.182256539,0.394421216,-0.819727165
852,2132654,1337690,-0.65,-0.44,0.601,-5.2,-27.1,20,11.3,-11.6,-19.5,0.373699149,0.181859798,0.394207587,-0.819635609
853,2136631,1337690,-0.642,-0.448,0.596,-7,-26.8,20.4,11.3,-11.6,-19.5,0.374340037,0.181554613,0.394024476,-0.819513535
854,2138324,1337700,-0.623,-0.457,0.588,-8.9,-26.5,20.8,11.3,-11.6,-19.5,0.374950407,0.181188391,0.393902402,-0.819360942
855,2139988,1337700,-0.623,-0.457,0.588,-8.9,-26.5,20.8,11.3,-11.6,-19.5,0.374950407,0.181188391,0.393902402,-0.819360942
856,2143627,1337700,-0.627,-0.468,0.619,-12.5,-26.3,21.5,11.2,-11.3,-19.3,0.376628925,0.181279946,0.393566698,-0.818750572
857,2146025,1337700,-0.631,-0.468,0.624,-14.1,-26.1,22.2,11.2,-11.3,-19.3,0.377300333,0.180883206,0.393505661,-0.818536943
858,2148882,1337710,-0.631,-0.476,0.616,-15.8,-25.7,22.9,11.2,-11.3,-19.3,0.378002258,0.180486465,0.393475143,-0.818323313
859,2150105,1337710,-0.599,-0.5,0.595,-17.9,-25.1,23.1,11.3,-11.7,-19.4,0.378704184,0.180089724,0.393505661,-0.818079165
860,2154131,1337710,-0.615,-0.492,0.631,-20.2,-24.4,22.8,11.3,-11.7,-19.4,0.379375591,0.179692984,0.393566698,-0.817804498
861,2155818,1337710,-0.631,-0.492,0.639,-22.4,-23.8,22.6,11.3,-11.7,-19.4,0.380077517,0.179265725,0.393688772,-0.817529832
862,2158098,1337720,-0.627,-0.492,0.627,-24,-23.2,22.8,11.3,-11.7,-19.4,0.380779443,0.178838466,0.393841365,-0.817224647
863,2160224,1337720,-0.631,-0.496,0.62,-25.2,-22.4,23.3,11.1,-12.6,-19.8,0.381511887,0.178441725,0.394024476,-0.816888943
864,2163523,1337720,-0.627,-0.496,0.627,-26.5,-21.5,23.4,11.1,-12.6,-19.8,0.382213813,0.178044984,0.394207587,-0.81655324
865,2165651,1337720,-0.619,-0.496,0.623,-28.1,-20.8,23,11.1,-12.6,-19.8,0.382915738,0.177617725,0.394451735,-0.816187017
866,2167917,1337730,-0.619,-0.488,0.631,-29.7,-20.3,22.5,11.1,-12.6,-19.8,0.383587146,0.177220985,0.394726402,-0.815820795
867,2170983,1337730,-0.607,-0.488,0.623,-30.9,-19.7,22.3,10.4,-13.7,-19.6,0.384289071,0.176793725,0.395001068,-0.815454573
868,2172623,1337730,-0.611,-0.484,0.635,-31.7,-19.2,22.5,10.4,-13.7,-19.6,0.384960479,0.176366466,0.395336772,-0.815057833
869,2175298,1337730,-0.611,-0.484,0.639,-32.2,-18.5,23.2,10.4,-13.7,-19.6,0.385662404,0.175969726,0.395672475,-0.814661092
870,2177615,1337740,-0.607,-0.485,0.635,-32.6,-17.9,24,10.4,-13.7,-19.6,0.38636433,0.175603504,0.396008179,-0.814264351
871,2179831,1337740,-0.611,-0.484,0.627,-33.2,-17.1,24.7,10.8,-9.4,-19,0.387096774,0.175237281,0.396343883,-0.813806574
872,2182540,1337740,-0.603,-0.492,0.623,-33.8,-16.2,25,10.8,-9.4,-19,0.3877987,0.174871059,0.396710105,-0.813379315
873,2186574,1337740,-0.611,-0.488,0.639,-34.4,-15.4,25,10.8,-9.4,-19,0.388531144,0.174504837,0.397106845,-0.812921537
874,2188834,1337750,-0.615,-0.492,0.627,-34.8,-14.7,25.2,10.8,-9.4,-19,0.38923307,0.174169134,0.397503586,-0.812463759
875,2191131,1337750,-0.615,-0.492,0.627,-34.8,-14.7,25.2,10.8,-9.4,-19,0.38923307,0.174169134,0.397503586,-0.812463759
876,2193365,1337750,-0.611,-0.496,0.623,-34.9,-13.2,25.8,10.6,-12.5,-20.2,0.390758995,0.173802911,0.398144475,-0.811487167
877,2195569,1337750,-0.611,-0.492,0.635,-34.5,-12.5,26,10.6,-12.5,-20.2,0.391460921,0.173497726,0.398571734,-0.810998871
878,2197380,1337760,-0.615,-0.504,0.635,-33.9,-11.9,26.1,10.6,-12.5,-20.2,0.392162847,0.17322306,0.398968474,-0.810541093
879,2200344,1337760,-0.611,-0.496,0.635,-32.9,-11.3,26.3,10.5,-12.1,-21,0.392864772,0.172978912,0.399334696,-0.810052797
880,2202469,1337760,-0.615,-0.492,0.631,-32,-10.7,26.5,10.5,-12.1,-21,0.39353618,0.172734764,0.399731437,-0.809564501
881,2205844,1337760,-0.619,-0.496,0.635,-31.1,-10.1,26.8,10.5,-12.1,-21,0.394238105,0.172521134,0.400067141,-0.809137242
882,2208133,1337770,-0.619,-0.488,0.623,-30.3,-9.6,27,10.5,-12.1,-21,0.394909513,0.172338023,0.400433363,-0.808679464
883,2210386,1337770,-0.619,-0.476,0.623,-29.5,-9.3,27,10.6,-11.9,-20.8,0.39558092,0.172154912,0.400769066,-0.808221686
884,2212694,1337770,-0.619,-0.48,0.627,-28.6,-8.9,26.9,10.6,-11.9,-20.8,0.396221809,0.171971801,0.40110477,-0.807763909
885,2215583,1337770,-0.623,-0.48,0.627,-27.6,-8.7,26.8,10.6,-11.9,-20.8,0.396893216,0.171819208,0.401409955,-0.80733665
886,2217421,1337780,-0.619,-0.476,0.635,-26.3,-8.3,26.6,10.6,-11.9,-20.8,0.397534104,0.171697134,0.401684622,-0.806909391
887,2220554,1337780,-0.619,-0.484,0.639,-24.7,-7.9,26.6,10.5,-10.4,-20.7,0.398144475,0.17157506,0.401959288,-0.806482131
888,2222333,1337780,-0.615,-0.492,0.639,-22.9,-7.6,26.7,10.5,-10.4,-20.7,0.398785363,0.171452986,0.402203436,-0.806085391
889,2225119,1337780,-0.615,-0.496,0.639,-21.2,-7.4,26.7,10.5,-10.4,-20.7,0.399395734,0.171391949,0.402417066,-0.805658132
890,2227490,1337790,-0.619,-0.504,0.635,-19.6,-7.2,26.7,10.5,-10.4,-20.7,0.400006104,0.171330912,0.402600177,-0.80529191
891,2230002,1337790,-0.619,-0.508,0.631,-18.3,-6.8,26.8,10.4,-10.5,-19,0.400616474,0.171269875,0.40275277,-0.804925687
892,2232880,1337790,-0.619,-0.508,0.635,-17.1,-6.4,26.8,10.4,-10.5,-19,0.401196326,0.171239357,0.402905362,-0.804559465
893,2236026,1337790,-0.619,-0.512,0.631,-16.2,-6,26.8,10.4,-10.5,-19,0.401776177,0.171239357,0.403027436,-0.804223762
894,2238147,1337800,-0.627,-0.508,0.635,-15.1,-5.7,26.7,10.4,-10.5,-19,0.402356029,0.171239357,0.40314951,-0.80385754
895,2239764,1337800,-0.627,-0.508,0.635,-15.1,-5.7,26.7,10.4,-10.5,-19,0.402356029,0.171239357,0.40314951,-0.80385754
896,2242361,1337800,-0.627,-0.512,0.631,-12.7,-5.2,26.5,10.3,-10.3,-21.4,0.403576769,0.171452986,0.403180029,-0.803186132
897,2245394,1337800,-0.631,-0.504,0.631,-11.5,-5.2,26.5,10.3,-10.3,-21.4,0.404126102,0.171483505,0.403241066,-0.802880947
898,2248443,1337810,-0.623,-0.496,0.631,-10.5,-5.3,26.6,10.3,-10.3,-21.4,0.404675436,0.171544542,0.403271584,-0.802575762
899,2250657,1337810,-0.623,-0.496,0.631,-9.7,-5.3,26.7,10.4,-10.2,-21.5,0.405224769,0.171605579,0.403302103,-0.802270577
900,2252620,1337810,-0.623,-0.48,0.631,-8.9,-5.4,26.8,10.4,-10.2,-21.5,0.405774102,0.171666616,0.403302103,-0.801965392
901,2255834,1337810,-0.627,-0.476,0.639,-8.2,-5.4,27,10.4,-10.2,-21.5,0.406353954,0.171727653,0.403302103,-0.801690725
902,2257946,1337820,-0.619,-0.476,0.635,-7.6,-5.5,27.1,10.4,-10.2,-21.5,0.406903287,0.171819208,0.403271584,-0.80138554
903,2260141,1337820,-0.611,-0.477,0.631,-7.2,-5.5,27.2,10,-10.2,-21.7,0.40745262,0.171880245,0.403241066,-0.801110874
904,2263204,1337820,-0.607,-0.477,0.646,-7,-5.4,27.3,10,-10.2,-21.7,0.408001953,0.171971801,0.403210547,-0.800836207
905,2264896,1337820,-0.595,-0.477,0.642,-7,-5.4,27.3,10,-10.2,-21.7,0.408551286,0.172063356,0.403210547,-0.800531022
906,2267452,1337830,-0.603,-0.485,0.638,-7,-5.4,27.6,10,-10.2,-21.7,0.40910062,0.172093875,0.403180029,-0.800256355
907,2271577,1337830,-0.603,-0.481,0.642,-7,-5.4,27.9,9.8,-10.7,-21.3,0.409680471,0.172215949,0.40314951,-0.79995117
908,2273818,1337830,-0.603,-0.473,0.642,-7.3,-5.3,28.3,9.8,-10.7,-21.3,0.410229804,0.172307505,0.403118992,-0.799676504
909,2276046,1337830,-0.595,-0.469,0.634,-7.9,-5,28.4,9.8,-10.7,-21.3,0.410809656,0.17239906,0.403088473,-0.799371319
910,2278307,1337840,-0.591,-0.469,0.638,-9,-4.8,28.1,9.8,-10.7,-21.3,0.411389508,0.172490616,0.403088473,-0.799035615
911,2280621,1337840,-0.583,-0.473,0.642,-10.1,-4.6,27.6,9.8,-10.9,-21.2,0.411938841,0.172551653,0.403118992,-0.79873043
912,2282862,1337840,-0.587,-0.465,0.642,-11.2,-4.6,27.3,9.8,-10.9,-21.2,0.412488174,0.17261269,0.403180029,-0.798394726
913,2285146,1337840,-0.579,-0.469,0.642,-12,-4.6,27.3,9.8,-10.9,-21.2,0.413068026,0.172673727,0.403241066,-0.798059023
914,2287659,1337850,-0.583,-0.469,0.634,-12.4,-4.6,27.6,9.8,-10.9,-21.2,0.413617359,0.172704245,0.403332621,-0.797723319
915,2289928,1337850,-0.583,-0.469,0.634,-12.4,-4.6,27.6,9.8,-10.9,-21.2,0.413617359,0.172704245,0.403332621,-0.797723319
916,2294079,1337850,-0.587,-0.465,0.646,-13.2,-4.5,28.3,9.8,-11,-19.3,0.414899136,0.172734764,0.40314951,-0.797143468
917,2296393,1337850,-0.579,-0.469,0.638,-14,-4.2,28.3,9.8,-11,-19.3,0.415478988,0.172795801,0.403241066,-0.796777245
918,2298616,1337860,-0.571,-0.477,0.638,-14.8,-4,27.9,9.8,-11,-19.3,0.41605884,0.172826319,0.40336314,-0.796411023
919,2300823,1337860,-0.587,-0.469,0.657,-15.6,-3.8,27.5,9.4,-10.8,-18.6,0.416638691,0.172887356,0.403485214,-0.796044801
920,2303024,1337860,-0.575,-0.481,0.638,-16,-3.8,27.3,9.4,-10.8,-18.6,0.417218543,0.172887356,0.403637806,-0.795648061
921,2305322,1337860,-0.563,-0.482,0.626,-16.4,-3.8,27.3,9.4,-10.8,-18.6,0.417767876,0.172917875,0.403790399,-0.795281838
922,2307643,1337870,-0.579,-0.477,0.638,-16.7,-3.8,27.3,9.4,-10.8,-18.6,0.418347728,0.172948393,0.403942991,-0.794885098
923,2309839,1337870,-0.591,-0.473,0.65,-17,-3.9,27.1,9.4,-10.8,-18.3,0.41892758,0.172948393,0.404095584,-0.794518876
924,2312420,1337870,-0.575,-0.485,0.638,-17.2,-3.9,26.6,9.4,-10.8,-18.3,0.419476913,0.172978912,0.404248177,-0.794122135
925,2316595,1337870,-0.571,-0.489,0.634,-17.4,-3.8,25.8,9.4,-10.8,-18.3,0.420026246,0.172978912,0.404431288,-0.793755913
926,2318821,1337880,-0.567,-0.493,0.641,-17.5,-3.6,25,9.4,-10.8,-18.3,0.420545061,0.172978912,0.40458388,-0.793389691
927,2321099,1337880,-0.571,-0.493,0.642,-17.3,-3.8,24.4,9.5,-10.8,-18.4,0.421094394,0.172948393,0.404766991,-0.793023469
928,2323331,1337880,-0.583,-0.493,0.646,-16.6,-4.1,24.5,9.5,-10.8,-18.4,0.421613208,0.172948393,0.404919584,-0.792657247
929,2325548,1337880,-0.587,-0.493,0.634,-15.7,-4.3,24.9,9.5,-10.8,-18.4,0.422132023,0.172948393,0.405072176,-0.792321543
930,2327875,1337890,-0.591,-0.489,0.638,-15,-4.3,25.2,9.5,-10.8,-18.4,0.422650838,0.172948393,0.40519425,-0.791955321
931,2330140,1337890,-0.583,-0.485,0.638,-14.9,-4.2,24.8,9.1,-10.9,-22.6,0.423200171,0.172978912,0.405316324,-0.791619617
932,2332344,1337890,-0.595,-0.485,0.642,-15,-4.3,23.9,9.1,-10.9,-22.6,0.423688467,0.172978912,0.405438398,-0.791283914
933,2334794,1337890,-0.583,-0.485,0.642,-15,-4.4,22.8,9.1,-10.9,-22.6,0.424176763,0.172948393,0.405560472,-0.79094821
934,2339081,1337900,-0.575,-0.489,0.638,-14.7,-4.6,21.9,9.1,-10.9,-22.6,0.424665059,0.172917875,0.405713065,-0.790643025
935,2341325,1337900,-0.575,-0.489,0.638,-14.7,-4.6,21.9,9.1,-10.9,-22.6,0.424665059,0.172917875,0.405713065,-0.790643025
936,2343612,1337900,-0.571,-0.493,0.642,-13.1,-5.4,21.3,9.2,-10.8,-20.7,0.42567217,0.172460097,0.405377361,-0.790368358
937,2345852,1337900,-0.559,-0.497,0.641,-12.1,-5.8,21.5,9.2,-10.8,-20.7,0.426129948,0.172429579,0.405468917,-0.790032655
938,2348106,1337910,-0.567,-0.497,0.649,-11.1,-6.2,21.6,9.2,-10.8,-20.7,0.426587725,0.17239906,0.405529954,-0.789788507
939,2350275,1337910,-0.571,-0.501,0.649,-10.3,-6.4,21.5,8.9,-10.5,-22.2,0.427076022,0.17239906,0.405560472,-0.789544359
940,2352541,1337910,-0.571,-0.497,0.645,-9.6,-6.5,21.3,8.9,-10.5,-22.2,0.427533799,0.172368542,0.405590991,-0.789269692
941,2355062,1337910,-0.571,-0.497,0.649,-9.1,-6.5,20.8,8.9,-10.5,-22.2,0.427991577,0.172368542,0.405590991,-0.789025544
942,2358448,1337920,-0.563,-0.505,0.649,-8.8,-6.5,20.2,8.9,-10.5,-22.2,0.428418836,0.172338023,0.405621509,-0.788781396
943,2359956,1337920,-0.56,-0.505,0.645,-8.5,-6.8,19.6,9,-10.6,-22.4,0.428846095,0.172338023,0.405621509,-0.788537248
944,2362835,1337920,-0.564,-0.505,0.645,-8.2,-7.1,19.2,9,-10.6,-22.4,0.429273354,0.172307505,0.405621509,-0.788323618
945,2364958,1337920,-0.567,-0.497,0.645,-7.9,-7.4,19.2,9,-10.6,-22.4,0.429700613,0.172276986,0.405621509,-0.788109989
946,2367751,1337930,-0.563,-0.497,0.63,-7.5,-7.5,19.4,9,-10.6,-22.4,0.430127873,0.172246467,0.405621509,-0.787865841
947,2370733,1337930,-0.567,-0.485,0.641,-7.3,-7.7,19.5,8.6,-10.6,-23.1,0.430555132,0.172215949,0.405590991,-0.787652211
948,2372456,1337930,-0.571,-0.485,0.638,-7.1,-7.7,19.4,8.6,-10.6,-23.1,0.430982391,0.17218543,0.405560472,-0.787438581
949,2376000,1337930,-0.563,-0.486,0.63,-7,-7.7,19.1,8.6,-10.6,-23.1,0.43140965,0.172154912,0.405529954,-0.787224952
950,2377782,1337940,-0.567,-0.482,0.63,-6.9,-7.7,18.7,8.6,-10.6,-23.1,0.431836909,0.172093875,0.405529954,-0.787011322
951,2379983,1337940,-0.567,-0.485,0.634,-6.9,-7.9,18.6,8.9,-10.7,-20.7,0.432264168,0.172093875,0.405499435,-0.786797693
952,2382362,1337940,-0.563,-0.486,0.63,-6.8,-8,18.6,8.9,-10.7,-20.7,0.432660909,0.172032838,0.405468917,-0.786614582
953,2386534,1337940,-0.567,-0.485,0.626,-7,-8.1,18.8,8.9,-10.7,-20.7,0.433088168,0.172002319,0.405438398,-0.786400952
954,2388027,1337950,-0.567,-0.489,0.634,-7.2,-8.1,18.9,8.9,-10.7,-20.7,0.433515427,0.171971801,0.40540788,-0.786187323
955,2391176,1337950,-0.567,-0.489,0.634,-7.2,-8.1,18.9,8.9,-10.7,-20.7,0.433515427,0.171971801,0.40540788,-0.786187323
956,2392481,1337950,-0.579,-0.485,0.634,-7.8,-8,19.3,9,-10.8,-21.2,0.434339427,0.171361431,0.405072176,-0.78603473
957,2395504,1337950,-0.579,-0.485,0.626,-8.4,-7.9,19.4,9,-10.8,-21.2,0.434797205,0.171330912,0.405072176,-0.785790582
958,2397437,1337960,-0.583,-0.477,0.634,-9.2,-7.8,19.4,9,-10.8,-21.2,0.435224464,0.171269875,0.405072176,-0.785576952
959,2401601,1337960,-0.587,-0.477,0.63,-10.1,-7.8,19.2,9,-10.4,-20.9,0.435651723,0.171208838,0.405102695,-0.785332804
960,2403763,1337960,-0.587,-0.465,0.626,-11.2,-7.8,18.9,9,-10.4,-20.9,0.436078982,0.171117283,0.405133213,-0.785088656
961,2405327,1337960,-0.595,-0.465,0.623,-12.3,-7.8,18.6,9,-10.4,-20.9,0.43653676,0.171056246,0.405224769,-0.78481399
962,2407523,1337970,-0.591,-0.457,0.626,-13.2,-7.9,18.4,9,-10.4,-20.9,0.436964019,0.170934172,0.405285806,-0.784539323
963,2411298,1337970,-0.599,-0.457,0.63,-14.3,-7.9,18.3,8.9,-10.3,-20.9,0.437391278,0.170842616,0.40540788,-0.784295175
964,2412848,1337970,-0.603,-0.461,0.631,-15.3,-7.9,18.2,8.9,-10.3,-20.9,0.437849055,0.170720542,0.405499435,-0.78398999
965,2415122,1337970,-0.611,-0.461,0.623,-16.1,-7.9,18.1,8.9,-10.3,-20.9,0.438276315,0.170598468,0.405652028,-0.783715323
966,2417683,1337980,-0.607,-0.461,0.623,-17,-7.9,18,8.9,-10.3,-20.9,0.438734092,0.170445875,0.405804621,-0.783410138
967,2421008,1337980,-0.607,-0.465,0.627,-17.6,-8,17.6,8.6,-10.6,-20.9,0.439161351,0.170293283,0.405957213,-0.783135472
968,2422636,1337980,-0.607,-0.473,0.627,-18.2,-8,17,8.6,-10.6,-20.9,0.43958861,0.17014069,0.406109806,-0.782830287
969,2424885,1337980,-0.611,-0.473,0.627,-18.7,-8.1,16.4,8.6,-10.6,-20.9,0.44001587,0.169957579,0.406292917,-0.782525101
970,2428548,1337990,-0.599,-0.477,0.619,-18.9,-8.2,15.9,8.6,-10.6,-20.9,0.440443129,0.169774468,0.406476028,-0.782219916
971,2430086,1337990,-0.599,-0.485,0.619,-19,-8.4,15.6,6.6,-10.5,-21.2,0.440839869,0.169591357,0.406689657,-0.78194525
972,2432703,1337990,-0.603,-0.481,0.627,-18.9,-8.6,15.3,6.6,-10.5,-21.2,0.441267129,0.169408246,0.40684225,-0.781670583
973,2435817,1337990,-0.599,-0.485,0.611,-18.7,-8.9,15.1,6.6,-10.5,-21.2,0.441663869,0.169164098,0.407025361,-0.781395917
974,2437369,1338000,-0.595,-0.481,0.619,-18.3,-9,14.9,6.6,-10.5,-21.2,0.44206061,0.169011505,0.407208472,-0.78112125
975,2440022,1338000,-0.595,-0.481,0.619,-18.3,-9,14.9,6.6,-10.5,-21.2,0.44206061,0.169011505,0.407208472,-0.78112125
976,2443391,1338000,-0.595,-0.489,0.627,-17.2,-9.2,14.4,10.3,-10.1,-21.1,0.442854091,0.168340098,0.407300027,-0.780755028
977,2444779,1338000,-0.599,-0.497,0.631,-16.6,-9.1,14.1,10.3,-10.1,-21.1,0.443220313,0.168156987,0.40745262,-0.78051088
978,2447883,1338010,-0.595,-0.501,0.634,-15.7,-8.9,13.7,10.3,-10.1,-21.1,0.443617054,0.167973876,0.407574694,-0.780266732
979,2450060,1338010,-0.592,-0.512,0.626,-14.9,-8.9,13.3,9.6,-10.1,-21.2,0.443952757,0.167790765,0.407696768,-0.780053102
980,2453593,1338010,-0.591,-0.512,0.638,-14.1,-8.8,12.8,9.6,-10.1,-21.2,0.444318979,0.167607654,0.407788324,-0.779839473
981,2455088,1338010,-0.588,-0.52,0.642,-13.6,-8.8,12.5,9.6,-10.1,-21.2,0.444654683,0.167455061,0.407910398,-0.779625843
982,2458138,1338020,-0.584,-0.528,0.634,-12.9,-8.6,12.3,9.6,-10.1,-21.2,0.444990387,0.16727195,0.408001953,-0.779412214
983,2461118,1338020,-0.584,-0.524,0.634,-12.2,-8.6,12.2,9.9,-10.2,-21.5,0.44532609,0.167119358,0.40806299,-0.779229102
984,2462821,1338020,-0.588,-0.52,0.634,-11.5,-8.4,12.1,9.9,-10.2,-21.5,0.445631275,0.166966765,0.408124027,-0.779015473
985,2465828,1338020,-0.588,-0.52,0.638,-10.7,-8.2,12.2,9.9,-10.2,-21.5,0.445966979,0.166844691,0.408185064,-0.778832362
986,2468115,1338030,-0.592,-0.512,0.626,-9.9,-8.2,12.2,9.9,-10.2,-21.5,0.446272164,0.166722617,0.408246101,-0.778679769
987,2471265,1338030,-0.591,-0.512,0.63,-9.4,-8.2,12.1,9.9,-10.5,-21.4,0.446607868,0.166600543,0.40827662,-0.778496658
988,2472831,1338030,-0.591,-0.508,0.623,-9.3,-8.1,11.9,9.9,-10.5,-21.4,0.446913053,0.166478469,0.408307138,-0.778313547
989,2475867,1338030,-0.599,-0.508,0.623,-9.1,-7.8,11.7,9.9,-10.5,-21.4,0.447218238,0.166356395,0.408337657,-0.778160955
990,2478049,1338040,-0.599,-0.5,0.623,-9,-7.5,11.7,9.9,-10.5,-21.4,0.447492904,0.166234321,0.408398694,-0.777977844
991,2479788,1338040,-0.595,-0.504,0.623,-9,-7.2,11.6,7.7,-10.3,-21.4,0.44779809,0.166142766,0.408429212,-0.777825251
992,2482989,1338040,-0.603,-0.5,0.627,-9.1,-7,11.7,7.7,-10.3,-21.4,0.448103275,0.166020692,0.408459731,-0.77764214
993,2485778,1338040,-0.607,-0.492,0.615,-9.4,-6.8,11.7,7.7,-10.3,-21.4,0.448377941,0.165929136,0.408520768,-0.777489547
994,2487281,1338050,-0.607,-0.492,0.611,-9.7,-6.8,11.7,7.7,-10.3,-21.4,0.448683126,0.165807062,0.408581805,-0.777306436
995,2490098,1338050,-0.607,-0.492,0.611,-9.7,-6.8,11.7,7.7,-10.3,-21.4,0.448683126,0.165807062,0.408581805,-0.777306436
996,2493283,1338050,-0.619,-0.48,0.612,-11,-6.6,11.2,8.1,-10.3,-21,0.449201941,0.165318766,0.40867336,-0.77703177
997,2494938,1338050,-0.619,-0.48,0.615,-11.8,-6.5,10.8,8.1,-10.3,-21,0.449507126,0.165196692,0.408795434,-0.776848659
998,2497777,1338060,-0.627,-0.476,0.604,-12.6,-6.3,10.4,8.1,-10.3,-21,0.449781793,0.165044099,0.40888699,-0.776665548
999,2501091,1338060,-0.619,-0.473,0.608,-13.5,-6.1,10.1,7.7,-10.2,-21.2,0.450056459,0.164891507,0.409039583,-0.776482437
1000,2502845,1338060,-0.627,-0.472,0.604,-14.3,-6.1,9.8,7.7,-10.2,-21.2,0.450331126,0.164738914,0.409192175,-0.776268807
1001,2505925,1338060,-0.623,-0.468,0.604,-15.1,-6.1,9.5,7.7,-10.2,-21.2,0.450605792,0.164586322,0.409344768,-0.776055177
1002,2507346,1338070,-0.631,-0.472,0.6,-15.9,-6.1,9.3,7.7,-10.2,-21.2,0.45084994,0.164403211,0.409527879,-0.775841548
1003,2510510,1338070,-0.631,-0.476,0.604,-16.8,-6.1,9.1,6.9,-10.2,-21.5,0.451124607,0.164220099,0.40971099,-0.775627918
1004,2512907,1338070,-0.631,-0.476,0.604,-17.7,-6.1,9,6.9,-10.2,-21.5,0.451399274,0.16400647,0.409924619,-0.775414289
1005,2515054,1338070,-0.631,-0.476,0.604,-18.5,-6.1,8.8,6.9,-10.2,-21.5,0.451643422,0.16379284,0.410138249,-0.775170141
1006,2517654,1338080,-0.631,-0.48,0.6,-19.4,-5.9,8.7,6.9,-10.2,-21.5,0.451948607,0.163579211,0.410382397,-0.774925993
1007,2520218,1338080,-0.635,-0.476,0.596,-20.1,-5.9,8.5,5.9,-10.1,-21.5,0.452223273,0.163365581,0.410626545,-0.774681845
1008,2524022,1338080,-0.635,-0.472,0.6,-20.8,-5.9,8.5,5.9,-10.1,-21.5,0.45249794,0.163151952,0.410901212,-0.774407178
1009,2526283,1338080,-0.639,-0.48,0.596,-21.4,-6,8.4,5.9,-10.1,-21.5,0.452772607,0.162907804,0.411175878,-0.774193548
1010,2528577,1338090,-0.639,-0.476,0.6,-21.8,-6.1,8.4,5.9,-10.1,-21.5,0.453047273,0.162663656,0.411450545,-0.773918882
1011,2530191,1338090,-0.639,-0.484,0.596,-21.9,-6.2,8.1,8.8,-10.6,-21.6,0.45332194,0.162419507,0.411725211,-0.773674734
1012,2532525,1338090,-0.643,-0.484,0.593,-21.9,-6.4,7.7,8.8,-10.6,-21.6,0.453566088,0.162144841,0.411999878,-0.773430586
1013,2535948,1338090,-0.639,-0.484,0.596,-21.9,-6.6,7.4,8.8,-10.6,-21.6,0.453840754,0.161900693,0.412274545,-0.773155919
