sample_index,elapsed_us,device_time_ms,acc_x_g,acc_y_g,acc_z_g,gyro_x_dps,gyro_y_dps,gyro_z_dps,mag_x_ut,mag_y_ut,mag_z_ut,quat_w,quat_x,quat_y,quat_z
0,4022,1254850,0.962,-0.069,0.225,-0.5,0.1,-0.2,-5.9,22.2,-20.9,0.15643788,-0.604480117,-0.0936002686,-0.775444807
1,7284,1254850,0.962,-0.069,0.225,-0.5,0.1,-0.2,-5.9,22.2,-20.9,0.15643788,-0.604480117,-0.0936002686,-0.775444807
2,8633,1254850,0.962,-0.069,0.225,-0.5,0.1,-0.2,-5.9,22.2,-20.9,0.15643788,-0.604480117,-0.0936002686,-0.775444807
3,11760,1254860,0.962,-0.069,0.225,-0.5,0.1,-0.2,-5.9,22.2,-20.9,0.15643788,-0.604480117,-0.0936002686,-0.775444807
4,14636,1254860,0.962,-0.069,0.225,-0.5,0.1,-0.2,-5.9,22.2,-20.9,0.15643788,-0.604480117,-0.0936002686,-0.775444807
5,16438,1254860,0.962,-0.069,0.225,-0.5,0.1,-0.2,-5.9,22.2,-20.9,0.15643788,-0.604480117,-0.0936002686,-0.775444807
6,18621,1254860,0.962,-0.069,0.225,-0.5,0.1,-0.2,-5.9,22.2,-20.9,0.15643788,-0.604480117,-0.0936002686,-0.775444807
7,22061,1254870,0.962,-0.069,0.225,-0.5,0.1,-0.2,-5.9,22.2,-20.9,0.15643788,-0.604480117,-0.0936002686,-0.775444807
8,23837,1254870,0.962,-0.069,0.225,-0.5,0.1,-0.2,-5.9,22.2,-20.9,0.15643788,-0.604480117,-0.0936002686,-0.775444807
9,27681,1254870,0.962,-0.069,0.225,-0.5,0.1,-0.2,-5.9,22.2,-20.9,0.15643788,-0.604480117,-0.0936002686,-0.775444807
10,29579,1254870,0.962,-0.069,0.225,-0.5,0.1,-0.2,-5.9,22.2,-20.9,0.15643788,-0.604480117,-0.0936002686,-0.775444807
11,31328,1254880,0.962,-0.069,0.225,-0.5,0.1,-0.2,-5.9,22.2,-20.9,0.15643788,-0.604480117,-0.0936002686,-0.775444807
12,33636,1254880,0.962,-0.072,0.225,0.1,-0.2,0.2,-5.3,22.7,-21,0.156651509,-0.604815821,-0.0933561205,-0.775170141
13,37270,1254880,0.962,-0.072,0.225,0.1,-0.2,0.2,-5.3,22.7,-21,0.156651509,-0.604815821,-0.0933561205,-0.775170141
14,38630,1254880,0.962,-0.072,0.225,0.1,-0.2,0.2,-5.3,22.7,-21,0.156651509,-0.604815821,-0.0933561205,-0.775170141
15,41631,1254890,0.962,-0.072,0.225,0.1,-0.2,0.2,-5.3,22.7,-21,0.156651509,-0.604815821,-0.0933561205,-0.775170141
16,44830,1254890,0.962,-0.072,0.225,0.1,-0.2,0.2,-5.3,22.7,-21,0.156651509,-0.604815821,-0.0933561205,-0.775170141
17,46234,1254890,0.962,-0.072,0.225,0.1,-0.2,0.2,-5.3,22.7,-21,0.156651509,-0.604815821,-0.0933561205,-0.775170141
18,49189,1254890,0.962,-0.072,0.225,0.1,-0.2,0.2,-5.3,22.7,-21,0.156651509,-0.604815821,-0.0933561205,-0.775170141
19,52438,1254900,0.962,-0.072,0.225,0.1,-0.2,0.2,-5.3,22.7,-21,0.156651509,-0.604815821,-0.0933561205,-0.775170141
20,54640,1254900,0.962,-0.072,0.225,0.1,-0.2,0.2,-5.3,22.7,-21,0.156651509,-0.604815821,-0.0933561205,-0.775170141
21,56824,1254900,0.962,-0.072,0.225,0.1,-0.2,0.2,-5.3,22.7,-21,0.156651509,-0.604815821,-0.0933561205,-0.775170141
22,59520,1254900,0.962,-0.072,0.225,0.1,-0.2,0.2,-5.3,22.7,-21,0.156651509,-0.604815821,-0.0933561205,-0.775170141
23,61664,1254910,0.962,-0.072,0.225,0.1,-0.2,0.2,-5.3,22.7,-21,0.156651509,-0.604815821,-0.0933561205,-0.775170141
24,63780,1254910,0.962,-0.072,0.225,0.1,-0.2,0.2,-5.3,22.7,-21,0.156651509,-0.604815821,-0.0933561205,-0.775170141
25,66254,1254910,0.965,-0.076,0.225,0.1,-0.5,0.1,-4.7,22.3,-21.3,0.156987213,-0.605304117,-0.0929288614,-0.7747734
26,69390,1254910,0.965,-0.076,0.225,0.1,-0.5,0.1,-4.7,22.3,-21.3,0.156987213,-0.605304117,-0.0929288614,-0.7747734
27,72707,1254920,0.965,-0.076,0.225,0.1,-0.5,0.1,-4.7,22.3,-21.3,0.156987213,-0.605304117,-0.0929288614,-0.7747734
28,75091,1254920,0.965,-0.076,0.225,0.1,-0.5,0.1,-4.7,22.3,-21.3,0.156987213,-0.605304117,-0.0929288614,-0.7747734
29,76549,1254920,0.965,-0.076,0.225,0.1,-0.5,0.1,-4.7,22.3,-21.3,0.156987213,-0.605304117,-0.0929288614,-0.7747734
30,79946,1254920,0.965,-0.076,0.225,0.1,-0.5,0.1,-4.7,22.3,-21.3,0.156987213,-0.605304117,-0.0929288614,-0.7747734
31,81448,1254930,0.965,-0.076,0.225,0.1,-0.5,0.1,-4.7,22.3,-21.3,0.156987213,-0.605304117,-0.0929288614,-0.7747734
32,83841,1254930,0.966,-0.072,0.232,0.2,-0.8,0.5,-5,22.2,-20.9,0.15704825,-0.605426191,-0.0929288614,-0.774651326
33,88483,1254930,0.966,-0.072,0.232,0.2,-0.8,0.5,-5,22.2,-20.9,0.15704825,-0.605426191,-0.0929288614,-0.774651326
34,88796,1254930,0.969,-0.069,0.225,0.3,-0.8,0.8,-4.4,22.2,-20.9,0.157078768,-0.605426191,-0.0929288614,-0.774651326
35,91824,1254940,0.969,-0.069,0.225,0.3,-0.8,0.8,-4.4,22.2,-20.9,0.157078768,-0.605426191,-0.0929288614,-0.774651326
36,93951,1254940,0.969,-0.069,0.228,0.4,-1.1,0.8,-4.4,22.2,-20.9,0.157139805,-0.605487228,-0.0929288614,-0.774590289
37,96931,1254940,0.969,-0.069,0.228,0.4,-1.1,0.8,-4.4,22.2,-20.9,0.157139805,-0.605487228,-0.0929288614,-0.774590289
38,99204,1254940,0.973,-0.077,0.228,0.6,-1.2,0.9,-4.2,22.5,-21.5,0.157170324,-0.605517747,-0.0929288614,-0.774559771
39,101206,1254950,0.973,-0.077,0.228,0.6,-1.2,0.9,-4.2,22.5,-21.5,0.157170324,-0.605517747,-0.0929288614,-0.774559771
40,105677,1254950,0.973,-0.077,0.228,0.6,-1.2,0.9,-4.2,22.5,-21.5,0.157170324,-0.605517747,-0.0929288614,-0.774559771
41,107504,1254950,0.973,-0.077,0.228,0.6,-1.2,0.9,-4.2,22.5,-21.5,0.157170324,-0.605517747,-0.0929288614,-0.774559771
42,109380,1254950,0.973,-0.077,0.228,0.6,-1.2,0.9,-4.2,22.5,-21.5,0.157170324,-0.605517747,-0.0929288614,-0.774559771
43,111727,1254960,0.973,-0.077,0.228,0.6,-1.2,0.9,-4.2,22.5,-21.5,0.157170324,-0.605517747,-0.0929288614,-0.774559771
44,113937,1254960,0.969,-0.069,0.228,0.9,-0.9,1,-4.4,22.4,-21.3,0.157506027,-0.60585345,-0.0926541948,-0.774285104
45,117080,1254960,0.969,-0.069,0.228,0.9,-0.9,1,-4.4,22.4,-21.3,0.157506027,-0.60585345,-0.0926541948,-0.774285104
46,119255,1254960,0.969,-0.069,0.228,0.9,-0.9,1,-4.4,22.4,-21.3,0.157506027,-0.60585345,-0.0926541948,-0.774285104
47,121721,1254970,0.969,-0.069,0.228,0.9,-0.9,1,-4.4,22.4,-21.3,0.157506027,-0.60585345,-0.0926541948,-0.774285104
48,123901,1254970,0.969,-0.069,0.228,0.9,-0.9,1,-4.4,22.4,-21.3,0.157506027,-0.60585345,-0.0926541948,-0.774285104
49,128498,1254970,0.969,-0.069,0.228,0.9,-0.9,1,-4.4,22.4,-21.3,0.157506027,-0.60585345,-0.0926541948,-0.774285104
50,128911,1254970,0.969,-0.069,0.228,0.9,-0.9,1,-4.4,22.4,-21.3,0.157506027,-0.60585345,-0.0926541948,-0.774285104
51,131997,1254980,0.969,-0.069,0.228,0.7,-1.3,1.6,-5.8,22.3,-21.2,0.157719657,-0.606006043,-0.0926541948,-0.774101993
52,134537,1254980,0.969,-0.069,0.232,0.6,-1.5,1.7,-5.8,22.3,-21.2,0.157750175,-0.606006043,-0.0926541948,-0.774101993
53,136302,1254980,0.969,-0.065,0.225,0.6,-1.6,1.8,-5.8,22.3,-21.2,0.157841731,-0.60606708,-0.0926541948,-0.774040956
54,138773,1254980,0.969,-0.065,0.225,0.6,-1.6,1.8,-5.8,22.3,-21.2,0.157841731,-0.60606708,-0.0926541948,-0.774040956
55,143376,1254990,0.969,-0.065,0.225,0.6,-1.6,1.8,-5.8,22.3,-21.2,0.157841731,-0.60606708,-0.0926541948,-0.774040956
56,143987,1254990,0.969,-0.065,0.225,0.6,-1.6,1.8,-5.8,22.3,-21.2,0.157841731,-0.60606708,-0.0926541948,-0.774040956
57,146806,1254990,0.969,-0.065,0.225,0.6,-1.6,1.8,-5.8,22.3,-21.2,0.157841731,-0.60606708,-0.0926541948,-0.774040956
58,149400,1254990,0.969,-0.065,0.225,0.6,-1.6,1.8,-5.8,22.3,-21.2,0.157841731,-0.60606708,-0.0926541948,-0.774040956
59,151869,1255000,0.969,-0.065,0.225,0.6,-1.6,1.8,-5.8,22.3,-21.2,0.157841731,-0.60606708,-0.0926541948,-0.774040956
60,153882,1255000,0.969,-0.065,0.225,0.6,-1.6,1.8,-5.8,22.3,-21.2,0.157841731,-0.60606708,-0.0926541948,-0.774040956
61,158279,1255000,0.973,-0.065,0.228,0.6,-1.6,2.1,-4,22.2,-21.4,0.158085879,-0.606311228,-0.0925931578,-0.773796808
62,158778,1255000,0.973,-0.065,0.228,0.6,-1.6,2.1,-4,22.2,-21.4,0.158085879,-0.606311228,-0.0925931578,-0.773796808
63,161283,1255010,0.973,-0.065,0.228,0.6,-1.6,2.1,-4,22.2,-21.4,0.158085879,-0.606311228,-0.0925931578,-0.773796808
64,165655,1255010,0.973,-0.065,0.228,0.6,-1.6,2.1,-4,22.2,-21.4,0.158085879,-0.606311228,-0.0925931578,-0.773796808
65,167912,1255010,0.966,-0.065,0.225,0.9,-1.6,1.9,-4,22.2,-20.9,0.158391064,-0.60667745,-0.0923184912,-0.773491623
66,170111,1255010,0.966,-0.065,0.225,0.9,-1.6,1.9,-4,22.2,-20.9,0.158391064,-0.60667745,-0.0923184912,-0.773491623
67,172100,1255020,0.966,-0.065,0.225,0.9,-1.6,1.9,-4,22.2,-20.9,0.158391064,-0.60667745,-0.0923184912,-0.773491623
68,174338,1255020,0.966,-0.069,0.229,1.1,-1.4,1.6,-4.1,22.5,-21.1,0.158513138,-0.606769005,-0.0923184912,-0.773400067
69,176472,1255020,0.966,-0.069,0.229,1.1,-1.4,1.6,-4.1,22.5,-21.1,0.158513138,-0.606769005,-0.0923184912,-0.773400067
70,178768,1255020,0.966,-0.069,0.229,1.1,-1.4,1.6,-4.1,22.5,-21.1,0.158513138,-0.606769005,-0.0923184912,-0.773400067
71,183174,1255030,0.966,-0.076,0.229,1.2,-1.1,1.7,-4.1,22.5,-21.1,0.158635212,-0.606830042,-0.0923184912,-0.773308512
72,185036,1255030,0.966,-0.076,0.229,1.2,-1.1,1.7,-4.1,22.5,-21.1,0.158635212,-0.606830042,-0.0923184912,-0.773308512
73,187409,1255030,0.966,-0.076,0.229,1.2,-1.1,1.7,-4.1,22.5,-21.1,0.158635212,-0.606830042,-0.0923184912,-0.773308512
74,189426,1255030,0.966,-0.076,0.229,1.2,-1.1,1.7,-4.1,22.5,-21.1,0.158635212,-0.606830042,-0.0923184912,-0.773308512
75,191560,1255040,0.966,-0.076,0.229,1.2,-1.1,1.7,-4.1,22.5,-21.1,0.158635212,-0.606830042,-0.0923184912,-0.773308512
76,194823,1255040,0.966,-0.072,0.225,1.1,-1.1,1.9,-5.2,21.9,-21.5,0.15887936,-0.606921598,-0.0923184912,-0.773186438
77,196909,1255040,0.966,-0.072,0.225,1.1,-1.1,1.9,-5.2,21.9,-21.5,0.15887936,-0.606921598,-0.0923184912,-0.773186438
78,199072,1255040,0.966,-0.072,0.225,1.1,-1.1,1.9,-5.2,21.9,-21.5,0.15887936,-0.606921598,-0.0923184912,-0.773186438
79,202149,1255050,0.966,-0.072,0.225,1.1,-1.1,1.9,-5.2,21.9,-21.5,0.15887936,-0.606921598,-0.0923184912,-0.773186438
80,203890,1255050,0.966,-0.072,0.225,1.1,-1.1,1.9,-5.2,21.9,-21.5,0.15887936,-0.606921598,-0.0923184912,-0.773186438
81,206962,1255050,0.966,-0.072,0.225,1.1,-1.1,1.9,-5.2,21.9,-21.5,0.15887936,-0.606921598,-0.0923184912,-0.773186438
82,209545,1255050,0.966,-0.072,0.225,1.1,-1.1,1.9,-5.2,21.9,-21.5,0.15887936,-0.606921598,-0.0923184912,-0.773186438
83,211522,1255060,0.966,-0.072,0.225,1.1,-1.1,1.9,-5.2,21.9,-21.5,0.15887936,-0.606921598,-0.0923184912,-0.773186438
84,214907,1255060,0.973,-0.073,0.224,1.1,-1.4,2,-4.6,21.7,-21.7,0.159215064,-0.60707419,-0.0923184912,-0.773003327
85,216811,1255060,0.969,-0.069,0.228,1.2,-1.6,2,-5.2,22.2,-20.6,0.159489731,-0.607379376,-0.0920133061,-0.772759178
86,219133,1255060,0.969,-0.069,0.228,1.2,-1.6,2,-5.2,22.2,-20.6,0.159489731,-0.607379376,-0.0920133061,-0.772759178
87,222390,1255070,0.973,-0.073,0.224,1.3,-1.4,2.1,-5.2,22.2,-20.6,0.159581286,-0.607440413,-0.0920133061,-0.772698141
88,224442,1255070,0.973,-0.073,0.224,1.3,-1.4,2.1,-5.2,22.2,-20.6,0.159581286,-0.607440413,-0.0920133061,-0.772698141
89,226631,1255070,0.973,-0.073,0.224,1.3,-1.4,2.1,-5.2,22.2,-20.6,0.159581286,-0.607440413,-0.0920133061,-0.772698141
90,229663,1255070,0.973,-0.073,0.224,1.3,-1.4,2.1,-5.2,22.2,-20.6,0.159581286,-0.607440413,-0.0920133061,-0.772698141
91,231369,1255080,0.973,-0.073,0.224,1.3,-1.4,2.1,-5.2,22.2,-20.6,0.159581286,-0.607440413,-0.0920133061,-0.772698141
92,235135,1255080,0.973,-0.073,0.224,1.3,-1.4,2.1,-5.2,22.2,-20.6,0.159581286,-0.607440413,-0.0920133061,-0.772698141
93,237335,1255080,0.973,-0.073,0.224,1.3,-1.4,2.1,-5.2,22.2,-20.6,0.159581286,-0.607440413,-0.0920133061,-0.772698141
94,238728,1255080,0.973,-0.073,0.224,1.3,-1.4,2.1,-5.2,22.2,-20.6,0.159581286,-0.607440413,-0.0920133061,-0.772698141
95,241745,1255090,0.973,-0.073,0.224,1.3,-1.4,2.1,-5.2,22.2,-20.6,0.159581286,-0.607440413,-0.0920133061,-0.772698141
96,244834,1255090,0.973,-0.061,0.228,1.3,-0.8,2,-4.9,22.3,-21.9,0.160039064,-0.607593005,-0.0920133061,-0.772453993
97,246997,1255090,0.973,-0.061,0.228,1.3,-0.8,2,-4.9,22.3,-21.9,0.160039064,-0.607593005,-0.0920133061,-0.772453993
98,248856,1255090,0.973,-0.061,0.228,1.3,-0.8,2,-4.9,22.3,-21.9,0.160039064,-0.607593005,-0.0920133061,-0.772453993
99,251337,1255100,0.973,-0.061,0.228,1.3,-0.8,2,-4.9,22.3,-21.9,0.160039064,-0.607593005,-0.0920133061,-0.772453993
100,253772,1255100,0.973,-0.061,0.228,1.3,-0.8,2,-4.9,22.3,-21.9,0.160039064,-0.607593005,-0.0920133061,-0.772453993
101,258109,1255100,0.973,-0.061,0.228,1.3,-0.8,2,-4.9,22.3,-21.9,0.160039064,-0.607593005,-0.0920133061,-0.772453993
102,260234,1255100,0.973,-0.061,0.228,1.3,-0.8,2,-4.9,22.3,-21.9,0.160039064,-0.607593005,-0.0920133061,-0.772453993
103,262220,1255110,0.973,-0.061,0.228,1.3,-0.8,2,-4.9,22.3,-21.9,0.160039064,-0.607593005,-0.0920133061,-0.772453993
104,263918,1255110,0.973,-0.061,0.228,1.3,-0.8,2,-4.9,22.3,-21.9,0.160039064,-0.607593005,-0.0920133061,-0.772453993
105,266461,1255110,0.973,-0.061,0.228,1.3,-0.8,2,-4.9,22.3,-21.9,0.160039064,-0.607593005,-0.0920133061,-0.772453993
106,269977,1255110,0.973,-0.061,0.228,1.3,-0.8,2,-4.9,22.3,-21.9,0.160039064,-0.607593005,-0.0920133061,-0.772453993
107,271395,1255120,0.973,-0.061,0.228,1.3,-0.8,2,-4.9,22.3,-21.9,0.160039064,-0.607593005,-0.0920133061,-0.772453993
108,274819,1255120,0.973,-0.061,0.228,1.3,-0.8,2,-4.9,22.3,-21.9,0.160039064,-0.607593005,-0.0920133061,-0.772453993
109,276283,1255120,0.969,-0.065,0.228,1.7,-0.2,1.8,-4.9,22.6,-20.4,0.160771508,-0.60789819,-0.0918607135,-0.772087771
110,279343,1255120,0.969,-0.065,0.228,1.7,-0.2,1.8,-4.9,22.6,-20.4,0.160771508,-0.60789819,-0.0918607135,-0.772087771
111,281464,1255130,0.973,-0.053,0.221,1.7,-0.4,1.8,-4.9,22.6,-20.4,0.160832545,-0.60789819,-0.091891232,-0.772057253
112,284098,1255130,0.973,-0.053,0.221,1.7,-0.4,1.8,-4.9,22.6,-20.4,0.160832545,-0.60789819,-0.091891232,-0.772057253
113,286871,1255130,0.973,-0.053,0.221,1.7,-0.4,1.8,-4.9,22.6,-20.4,0.160832545,-0.60789819,-0.091891232,-0.772057253
114,289088,1255130,0.973,-0.053,0.221,1.7,-0.4,1.8,-4.9,22.6,-20.4,0.160832545,-0.60789819,-0.091891232,-0.772057253
115,291425,1255140,0.973,-0.053,0.221,1.7,-0.4,1.8,-4.9,22.6,-20.4,0.160832545,-0.60789819,-0.091891232,-0.772057253
116,294916,1255140,0.966,-0.049,0.225,1.7,-0.4,2,-5.1,22.1,-20.6,0.161107212,-0.607928709,-0.091891232,-0.771996216
117,296960,1255140,0.966,-0.049,0.225,1.7,-0.4,2,-5.1,22.1,-20.6,0.161107212,-0.607928709,-0.091891232,-0.771996216
118,298802,1255140,0.966,-0.049,0.225,1.7,-0.4,2,-5.1,22.1,-20.6,0.161107212,-0.607928709,-0.091891232,-0.771996216
119,302912,1255150,0.966,-0.049,0.225,1.7,-0.4,2,-5.1,22.1,-20.6,0.161107212,-0.607928709,-0.091891232,-0.771996216
120,305083,1255150,0.966,-0.049,0.225,1.7,-0.4,2,-5.1,22.1,-20.6,0.161107212,-0.607928709,-0.091891232,-0.771996216
121,306834,1255150,0.966,-0.049,0.225,1.7,-0.4,2,-5.1,22.1,-20.6,0.161107212,-0.607928709,-0.091891232,-0.771996216
122,309214,1255150,0.966,-0.049,0.225,1.7,-0.4,2,-5.1,22.1,-20.6,0.161107212,-0.607928709,-0.091891232,-0.771996216
123,311374,1255160,0.966,-0.049,0.225,1.7,-0.4,2,-5.1,22.1,-20.6,0.161107212,-0.607928709,-0.091891232,-0.771996216
124,314605,1255160,0.966,-0.049,0.225,1.7,-0.4,2,-5.1,22.1,-20.6,0.161107212,-0.607928709,-0.091891232,-0.771996216
125,316695,1255160,0.966,-0.049,0.225,1.7,-0.4,2,-5.1,22.1,-20.6,0.161107212,-0.607928709,-0.091891232,-0.771996216
126,319878,1255160,0.966,-0.049,0.225,1.7,-0.4,2,-5.1,22.1,-20.6,0.161107212,-0.607928709,-0.091891232,-0.771996216
127,321905,1255170,0.966,-0.049,0.225,1.7,-0.4,2,-5.1,22.1,-20.6,0.161107212,-0.607928709,-0.091891232,-0.771996216
128,323723,1255170,0.966,-0.049,0.225,1.7,-0.4,2,-5.1,22.1,-20.6,0.161107212,-0.607928709,-0.091891232,-0.771996216
129,327353,1255170,0.966,-0.049,0.225,1.7,-0.4,2,-5.1,22.1,-20.6,0.161107212,-0.607928709,-0.091891232,-0.771996216
130,329466,1255170,0.966,-0.049,0.225,1.7,-0.4,2,-5.1,22.1,-20.6,0.161107212,-0.607928709,-0.091891232,-0.771996216
131,331675,1255180,0.977,-0.041,0.22,0.8,0.2,2,-4.7,22.2,-21.3,0.1617481,-0.608142338,-0.0919827876,-0.771660512
132,334841,1255180,0.977,-0.041,0.22,0.8,0.2,2,-4.7,22.2,-21.3,0.1617481,-0.608142338,-0.0919827876,-0.771660512
133,336252,1255180,0.977,-0.041,0.22,0.8,0.2,2,-4.7,22.2,-21.3,0.1617481,-0.608142338,-0.0919827876,-0.771660512
134,340051,1255180,0.977,-0.041,0.22,0.8,0.2,2,-4.7,22.2,-21.3,0.1617481,-0.608142338,-0.0919827876,-0.771660512
135,342247,1255190,0.977,-0.038,0.22,0.3,0.2,2.1,-4.7,22.3,-21.8,0.161931211,-0.608142338,-0.091891232,-0.771660512
136,343655,1255190,0.981,-0.034,0.224,-0.1,0.2,1.7,-5,22.3,-21,0.16196173,-0.608142338,-0.0918607135,-0.771629994
137,346878,1255190,0.981,-0.034,0.224,-0.1,0.2,1.7,-5,22.3,-21,0.16196173,-0.608142338,-0.0918607135,-0.771629994
138,350080,1255190,0.981,-0.034,0.224,-0.1,0.2,1.7,-5,22.3,-21,0.16196173,-0.608142338,-0.0918607135,-0.771629994
139,352162,1255200,0.985,-0.038,0.228,-0.5,0.1,1.6,-5,22.3,-21,0.162022767,-0.608172857,-0.091769158,-0.771629994
140,354247,1255200,0.985,-0.038,0.228,-0.5,0.1,1.6,-5,22.3,-21,0.162022767,-0.608172857,-0.091769158,-0.771629994
141,356411,1255200,0.981,-0.042,0.224,-0.9,-0.1,1.3,-5.3,22.1,-21.8,0.162053285,-0.608172857,-0.091708121,-0.771629994
142,359338,1255200,0.977,-0.041,0.228,-1.2,-0.1,1.2,-5.3,22.1,-21.8,0.162053285,-0.608172857,-0.0916776025,-0.771629994
143,362227,1255210,0.977,-0.038,0.224,-1.2,-0.1,1.2,-5.3,22.1,-21.8,0.162053285,-0.608203375,-0.091647084,-0.771629994
144,365606,1255210,0.981,-0.045,0.224,-1.6,-0.1,1,-5.2,22.1,-21.9,0.162053285,-0.608203375,-0.0915860469,-0.771629994
145,368103,1255210,0.981,-0.045,0.224,-1.6,-0.1,1,-5.2,22.1,-21.9,0.162053285,-0.608203375,-0.0915860469,-0.771629994
146,370004,1255210,0.981,-0.045,0.224,-1.6,-0.1,1,-5.2,22.1,-21.9,0.162053285,-0.608203375,-0.0915860469,-0.771629994
147,371791,1255220,0.981,-0.045,0.224,-1.6,-0.1,1,-5.2,22.1,-21.9,0.162053285,-0.608203375,-0.0915860469,-0.771629994
148,374736,1255220,0.981,-0.045,0.224,-2.1,-0.1,0.7,-5.2,22.1,-21.9,0.161992248,-0.608233894,-0.0914639729,-0.771629994
149,376268,1255220,0.981,-0.049,0.228,-2.8,-0.2,0.4,-4.8,22.2,-21.5,0.161931211,-0.608386486,-0.0914639729,-0.77150792
150,379239,1255220,0.981,-0.049,0.228,-2.8,-0.2,0.4,-4.8,22.2,-21.5,0.161931211,-0.608386486,-0.0914639729,-0.77150792
151,382790,1255230,0.981,-0.049,0.228,-2.8,-0.2,0.4,-4.8,22.2,-21.5,0.161931211,-0.608386486,-0.0914639729,-0.77150792
152,384300,1255230,0.981,-0.049,0.228,-2.8,-0.2,0.4,-4.8,22.2,-21.5,0.161931211,-0.608386486,-0.0914639729,-0.77150792
153,387510,1255230,0.981,-0.049,0.228,-2.8,-0.2,0.4,-4.8,22.2,-21.5,0.161931211,-0.608386486,-0.0914639729,-0.77150792
154,389834,1255230,0.981,-0.049,0.228,-2.8,-0.2,0.4,-4.8,22.2,-21.5,0.161931211,-0.608386486,-0.0914639729,-0.77150792
155,391345,1255240,0.981,-0.049,0.228,-2.8,-0.2,0.4,-4.8,22.2,-21.5,0.161931211,-0.608386486,-0.0914639729,-0.77150792
156,395617,1255240,0.981,-0.049,0.228,-2.8,-0.2,0.4,-4.8,22.2,-21.5,0.161931211,-0.608386486,-0.0914639729,-0.77150792
157,397970,1255240,0.981,-0.049,0.228,-2.8,-0.2,0.4,-4.8,22.2,-21.5,0.161931211,-0.608386486,-0.0914639729,-0.77150792
158,400658,1255240,0.981,-0.049,0.228,-2.8,-0.2,0.4,-4.8,22.2,-21.5,0.161931211,-0.608386486,-0.0914639729,-0.77150792
159,403179,1255250,0.981,-0.049,0.228,-2.8,-0.2,0.4,-4.8,22.2,-21.5,0.161931211,-0.608386486,-0.0914639729,-0.77150792
160,405004,1255250,0.973,-0.053,0.228,-3.9,-1.1,-0.9,-4.6,22.2,-22.1,0.161320841,-0.608661153,-0.0909146397,-0.771477401
161,407434,1255250,0.973,-0.053,0.228,-3.9,-1.1,-0.9,-4.6,22.2,-22.1,0.161320841,-0.608661153,-0.0909146397,-0.771477401
162,409474,1255250,0.973,-0.053,0.228,-3.9,-1.1,-0.9,-4.6,22.2,-22.1,0.161320841,-0.608661153,-0.0909146397,-0.771477401
163,411317,1255260,0.973,-0.053,0.228,-3.9,-1.1,-0.9,-4.6,22.2,-22.1,0.161320841,-0.608661153,-0.0909146397,-0.771477401
164,415287,1255260,0.973,-0.053,0.228,-3.9,-1.1,-0.9,-4.6,22.2,-22.1,0.161320841,-0.608661153,-0.0909146397,-0.771477401
165,417700,1255260,0.973,-0.053,0.228,-3.9,-1.1,-0.9,-4.6,22.2,-22.1,0.161320841,-0.608661153,-0.0909146397,-0.771477401
166,419907,1255260,0.973,-0.053,0.228,-3.9,-1.1,-0.9,-4.6,22.2,-22.1,0.161320841,-0.608661153,-0.0909146397,-0.771477401
167,421964,1255270,0.973,-0.053,0.228,-3.9,-1.1,-0.9,-4.6,22.2,-22.1,0.161320841,-0.608661153,-0.0909146397,-0.771477401
168,424106,1255270,0.973,-0.053,0.228,-3.9,-1.1,-0.9,-4.6,22.2,-22.1,0.161320841,-0.608661153,-0.0909146397,-0.771477401
169,427506,1255270,0.973,-0.053,0.228,-3.9,-1.1,-0.9,-4.6,22.2,-22.1,0.161320841,-0.608661153,-0.0909146397,-0.771477401
170,429577,1255270,0.973,-0.053,0.228,-3.9,-1.1,-0.9,-4.6,22.2,-22.1,0.161320841,-0.608661153,-0.0909146397,-0.771477401
171,432037,1255280,0.973,-0.053,0.228,-3.9,-1.1,-0.9,-4.6,22.2,-22.1,0.161320841,-0.608661153,-0.0909146397,-0.771477401
172,433967,1255280,0.973,-0.053,0.228,-3.9,-1.1,-0.9,-4.6,22.2,-22.1,0.161320841,-0.608661153,-0.0909146397,-0.771477401
173,437220,1255280,0.973,-0.057,0.224,-5.5,-0.9,-1.1,-4.9,21.7,-21.6,0.16031373,-0.609241005,-0.0901821955,-0.771324808
174,439437,1255280,0.973,-0.057,0.224,-5.5,-0.9,-1.1,-4.9,21.7,-21.6,0.16031373,-0.609241005,-0.0901821955,-0.771324808
175,441705,1255290,0.969,-0.057,0.225,-5.6,-0.8,-1.2,-5.1,21.9,-22.2,0.160191656,-0.609271523,-0.0901211585,-0.771324808
176,444219,1255290,0.969,-0.057,0.225,-5.6,-0.8,-1.2,-5.1,21.9,-22.2,0.160191656,-0.609271523,-0.0901211585,-0.771324808
177,446517,1255290,0.969,-0.057,0.225,-5.6,-0.8,-1.2,-5.1,21.9,-22.2,0.160191656,-0.609271523,-0.0901211585,-0.771324808
178,450215,1255290,0.969,-0.057,0.225,-5.6,-0.8,-1.2,-5.1,21.9,-22.2,0.160191656,-0.609271523,-0.0901211585,-0.771324808
179,452170,1255300,0.969,-0.057,0.225,-5.6,-0.8,-1.2,-5.1,21.9,-22.2,0.160191656,-0.609271523,-0.0901211585,-0.771324808
180,453806,1255300,0.969,-0.057,0.225,-5.6,-0.8,-1.2,-5.1,21.9,-22.2,0.160191656,-0.609271523,-0.0901211585,-0.771324808
181,456857,1255300,0.969,-0.057,0.225,-5.6,-0.8,-1.2,-5.1,21.9,-22.2,0.160191656,-0.609271523,-0.0901211585,-0.771324808
182,459294,1255300,0.969,-0.057,0.225,-5.6,-0.8,-1.2,-5.1,21.9,-22.2,0.160191656,-0.609271523,-0.0901211585,-0.771324808
183,461166,1255310,0.969,-0.057,0.225,-5.6,-0.8,-1.2,-5.1,21.9,-22.2,0.160191656,-0.609271523,-0.0901211585,-0.771324808
184,465343,1255310,0.969,-0.057,0.225,-5.6,-0.8,-1.2,-5.1,21.9,-22.2,0.160191656,-0.609271523,-0.0901211585,-0.771324808
185,467537,1255310,0.969,-0.057,0.225,-5.6,-0.8,-1.2,-5.1,21.9,-22.2,0.160191656,-0.609271523,-0.0901211585,-0.771324808
186,469499,1255310,0.969,-0.057,0.225,-5.6,-0.8,-1.2,-5.1,21.9,-22.2,0.160191656,-0.609271523,-0.0901211585,-0.771324808
187,471738,1255320,0.969,-0.057,0.225,-5.6,-0.8,-1.2,-5.1,21.9,-22.2,0.160191656,-0.609271523,-0.0901211585,-0.771324808
188,474102,1255320,0.966,-0.072,0.225,-5.9,0.1,-2,-4.7,22,-22,0.158818323,-0.609576708,-0.0892056032,-0.771477401
189,476513,1255320,0.962,-0.08,0.225,-5.8,0,-2,-4.7,22,-22,0.158604694,-0.609637745,-0.0890530107,-0.77150792
190,478703,1255320,0.962,-0.08,0.225,-5.8,0,-2,-4.7,22,-22,0.158604694,-0.609637745,-0.0890530107,-0.77150792
191,481641,1255330,0.962,-0.08,0.225,-5.8,0,-2,-4.7,22,-22,0.158604694,-0.609637745,-0.0890530107,-0.77150792
192,484946,1255330,0.965,-0.076,0.225,-5.9,-0.1,-2,-4.7,22,-22,0.158665731,-0.609820856,-0.088717307,-0.771385846
193,486403,1255330,0.965,-0.08,0.225,-5.9,-0.2,-2,-4.7,22,-22,0.158574175,-0.609851375,-0.08865627,-0.771385846
194,489812,1255330,0.965,-0.08,0.225,-5.9,-0.2,-2,-4.7,22,-22,0.158574175,-0.609851375,-0.08865627,-0.771385846
195,492069,1255340,0.965,-0.08,0.225,-5.9,-0.2,-2,-4.7,22,-22,0.158574175,-0.609851375,-0.08865627,-0.771385846
196,494162,1255340,0.965,-0.08,0.225,-5.9,-0.2,-2,-4.7,22,-22,0.158574175,-0.609851375,-0.08865627,-0.771385846
197,496573,1255340,0.965,-0.08,0.225,-5.9,-0.2,-2,-4.7,22,-22,0.158574175,-0.609851375,-0.08865627,-0.771385846
198,498921,1255340,0.965,-0.073,0.221,-6.1,-0.2,-1.8,-4.9,22,-21.4,0.157994324,-0.609973449,-0.0882595294,-0.771446883
199,501319,1255350,0.965,-0.073,0.221,-6.1,-0.2,-1.8,-4.9,22,-21.4,0.157994324,-0.609973449,-0.0882595294,-0.771446883
200,503638,1255350,0.965,-0.073,0.221,-6.1,-0.2,-1.8,-4.9,22,-21.4,0.157994324,-0.609973449,-0.0882595294,-0.771446883
201,507968,1255350,0.965,-0.073,0.221,-6.1,-0.2,-1.8,-4.9,22,-21.4,0.157994324,-0.609973449,-0.0882595294,-0.771446883
202,510265,1255350,0.965,-0.073,0.221,-6.1,-0.2,-1.8,-4.9,22,-21.4,0.157994324,-0.609973449,-0.0882595294,-0.771446883
203,512661,1255360,0.965,-0.073,0.221,-6.1,-0.2,-1.8,-4.9,22,-21.4,0.157994324,-0.609973449,-0.0882595294,-0.771446883
204,514855,1255360,0.973,-0.077,0.221,-5.5,0.6,-1.5,-4.6,23,-21,0.157353435,-0.610065004,-0.0878017518,-0.771568957
205,516410,1255360,0.977,-0.073,0.217,-5.5,0.6,-1.5,-4.6,23,-21,0.157261879,-0.610065004,-0.0877407147,-0.771599475
206,519610,1255360,0.977,-0.073,0.217,-5.5,0.6,-1.5,-4.6,23,-21,0.157261879,-0.610065004,-0.0877407147,-0.771599475
207,521836,1255370,0.977,-0.073,0.217,-5.5,0.6,-1.5,-4.6,23,-21,0.157261879,-0.610065004,-0.0877407147,-0.771599475
208,524209,1255370,0.977,-0.073,0.217,-5.5,0.6,-1.5,-4.6,23,-21,0.157261879,-0.610065004,-0.0877407147,-0.771599475
209,526358,1255370,0.977,-0.073,0.217,-5.5,0.6,-1.5,-4.6,23,-21,0.157261879,-0.610065004,-0.0877407147,-0.771599475
210,530127,1255370,0.977,-0.073,0.217,-5.5,0.6,-1.5,-4.6,23,-21,0.157261879,-0.610065004,-0.0877407147,-0.771599475
211,532358,1255380,0.977,-0.073,0.217,-5.5,0.6,-1.5,-4.6,23,-21,0.157261879,-0.610065004,-0.0877407147,-0.771599475
212,533943,1255380,0.969,-0.069,0.221,-4.8,0.5,-1.1,-4.8,23.1,-21.2,0.156712546,-0.610095523,-0.0873134556,-0.771721549
213,536855,1255380,0.969,-0.069,0.221,-4.8,0.5,-1.1,-4.8,23.1,-21.2,0.156712546,-0.610095523,-0.0873134556,-0.771721549
214,538935,1255380,0.969,-0.069,0.221,-4.8,0.5,-1.1,-4.8,23.1,-21.2,0.156712546,-0.610095523,-0.0873134556,-0.771721549
215,541390,1255390,0.969,-0.069,0.221,-4.8,0.5,-1.1,-4.8,23.1,-21.2,0.156712546,-0.610095523,-0.0873134556,-0.771721549
216,543589,1255390,0.966,-0.053,0.217,-5.1,0.3,-0.5,-4.6,22.7,-20.7,0.156468398,-0.610309153,-0.0868861965,-0.771629994
217,547778,1255390,0.966,-0.053,0.217,-5.1,0.3,-0.5,-4.6,22.7,-20.7,0.156468398,-0.610309153,-0.0868861965,-0.771629994
218,550035,1255390,0.966,-0.053,0.217,-5.1,0.3,-0.5,-4.6,22.7,-20.7,0.156468398,-0.610309153,-0.0868861965,-0.771629994
219,551395,1255400,0.966,-0.053,0.217,-5.1,0.3,-0.5,-4.6,22.7,-20.7,0.156468398,-0.610309153,-0.0868861965,-0.771629994
220,555463,1255400,0.966,-0.053,0.217,-5.1,0.3,-0.5,-4.6,22.7,-20.7,0.156468398,-0.610309153,-0.0868861965,-0.771629994
221,557630,1255400,0.966,-0.053,0.217,-5.1,0.3,-0.5,-4.6,22.7,-20.7,0.156468398,-0.610309153,-0.0868861965,-0.771629994
222,559207,1255400,0.966,-0.053,0.217,-5.1,0.3,-0.5,-4.6,22.7,-20.7,0.156468398,-0.610309153,-0.0868861965,-0.771629994
223,561333,1255410,0.966,-0.053,0.217,-5.1,0.3,-0.5,-4.6,22.7,-20.7,0.156468398,-0.610309153,-0.0868861965,-0.771629994
224,565209,1255410,0.966,-0.053,0.217,-5.1,0.3,-0.5,-4.6,22.7,-20.7,0.156468398,-0.610309153,-0.0868861965,-0.771629994
225,567846,1255410,0.966,-0.053,0.217,-5.1,0.3,-0.5,-4.6,22.7,-20.7,0.156468398,-0.610309153,-0.0868861965,-0.771629994
226,570754,1255410,0.966,-0.053,0.217,-5.1,0.3,-0.5,-4.6,22.7,-20.7,0.156468398,-0.610309153,-0.0868861965,-0.771629994
227,571258,1255420,0.966,-0.053,0.217,-5.1,0.3,-0.5,-4.6,22.7,-20.7,0.156468398,-0.610309153,-0.0868861965,-0.771629994
228,573682,1255420,0.966,-0.053,0.217,-5.1,0.3,-0.5,-4.6,22.7,-20.7,0.156468398,-0.610309153,-0.0868861965,-0.771629994
229,578167,1255420,0.966,-0.053,0.217,-5.1,0.3,-0.5,-4.6,22.7,-20.7,0.156468398,-0.610309153,-0.0868861965,-0.771629994
230,580367,1255420,0.966,-0.053,0.217,-5.1,0.3,-0.5,-4.6,22.7,-20.7,0.156468398,-0.610309153,-0.0868861965,-0.771629994
231,582596,1255430,0.966,-0.053,0.217,-5.1,0.3,-0.5,-4.6,22.7,-20.7,0.156468398,-0.610309153,-0.0868861965,-0.771629994
232,584579,1255430,0.966,-0.053,0.217,-5.1,0.3,-0.5,-4.6,22.7,-20.7,0.156468398,-0.610309153,-0.0868861965,-0.771629994
233,586709,1255430,0.966,-0.053,0.217,-5.1,0.3,-0.5,-4.6,22.7,-20.7,0.156468398,-0.610309153,-0.0868861965,-0.771629994
234,589136,1255430,0.966,-0.053,0.217,-5.1,0.3,-0.5,-4.6,22.7,-20.7,0.156468398,-0.610309153,-0.0868861965,-0.771629994
235,591357,1255440,0.966,-0.053,0.217,-5.1,0.3,-0.5,-4.6,22.7,-20.7,0.156468398,-0.610309153,-0.0868861965,-0.771629994
236,593852,1255440,0.973,-0.057,0.217,-6,0.5,-0.9,-4.3,22,-20.7,0.15500351,-0.610614338,-0.085421308,-0.771874142
237,596141,1255440,0.977,-0.053,0.217,-6.2,0.3,-0.7,-4.3,22,-20.7,0.154820399,-0.610614338,-0.085238197,-0.77190466
238,600584,1255440,0.977,-0.053,0.217,-6.2,0.3,-0.7,-4.3,22,-20.7,0.154820399,-0.610614338,-0.085238197,-0.77190466
239,602784,1255450,0.977,-0.053,0.217,-6.2,0.3,-0.7,-4.3,22,-20.7,0.154820399,-0.610614338,-0.085238197,-0.77190466
240,604934,1255450,0.977,-0.053,0.217,-6.2,0.3,-0.7,-4.3,22,-20.7,0.154820399,-0.610614338,-0.085238197,-0.77190466
241,607389,1255450,0.977,-0.049,0.22,-6.4,0.4,-0.8,-6.5,23.3,-21.3,0.154454176,-0.610675375,-0.0848414563,-0.771996216
242,609370,1255450,0.977,-0.049,0.22,-6.4,0.4,-0.8,-6.5,23.3,-21.3,0.154454176,-0.610675375,-0.0848414563,-0.771996216
243,611559,1255460,0.977,-0.049,0.22,-6.4,0.4,-0.8,-6.5,23.3,-21.3,0.154454176,-0.610675375,-0.0848414563,-0.771996216
244,614060,1255460,0.977,-0.049,0.22,-6.4,0.4,-0.8,-6.5,23.3,-21.3,0.154454176,-0.610675375,-0.0848414563,-0.771996216
245,616427,1255460,0.977,-0.041,0.213,-6.4,0.7,-0.6,-6.5,23.2,-21.2,0.154057436,-0.610736412,-0.0844447157,-0.772087771
246,618611,1255460,0.977,-0.041,0.213,-6.4,0.7,-0.6,-6.5,23.2,-21.2,0.154057436,-0.610736412,-0.0844447157,-0.772087771
247,623090,1255470,0.977,-0.041,0.213,-6.4,0.7,-0.6,-6.5,23.2,-21.2,0.154057436,-0.610736412,-0.0844447157,-0.772087771
248,625293,1255470,0.977,-0.041,0.213,-6.4,0.7,-0.6,-6.5,23.2,-21.2,0.154057436,-0.610736412,-0.0844447157,-0.772087771
249,627376,1255470,0.977,-0.041,0.213,-6.4,0.7,-0.6,-6.5,23.2,-21.2,0.154057436,-0.610736412,-0.0844447157,-0.772087771
250,629793,1255470,0.977,-0.041,0.213,-6.4,0.7,-0.6,-6.5,23.2,-21.2,0.154057436,-0.610736412,-0.0844447157,-0.772087771
251,631767,1255480,0.969,-0.037,0.217,-6.6,0.8,-0.7,-6.5,23.4,-21,0.153538621,-0.61076693,-0.0839259011,-0.772209845
252,634062,1255480,0.969,-0.037,0.217,-6.6,0.8,-0.7,-6.5,23.4,-21,0.153538621,-0.61076693,-0.0839259011,-0.772209845
253,636382,1255480,0.969,-0.037,0.217,-6.6,0.8,-0.7,-6.5,23.4,-21,0.153538621,-0.61076693,-0.0839259011,-0.772209845
254,638697,1255480,0.969,-0.037,0.217,-6.6,0.8,-0.7,-6.5,23.4,-21,0.153538621,-0.61076693,-0.0839259011,-0.772209845
255,643251,1255490,0.969,-0.037,0.217,-6.6,0.8,-0.7,-6.5,23.4,-21,0.153538621,-0.61076693,-0.0839259011,-0.772209845
256,645438,1255490,0.969,-0.037,0.217,-6.6,0.8,-0.7,-6.5,23.4,-21,0.153538621,-0.61076693,-0.0839259011,-0.772209845
257,647840,1255490,0.969,-0.037,0.217,-6.6,0.8,-0.7,-6.5,23.4,-21,0.153538621,-0.61076693,-0.0839259011,-0.772209845
258,649935,1255490,0.969,-0.037,0.217,-6.6,0.8,-0.7,-6.5,23.4,-21,0.153538621,-0.61076693,-0.0839259011,-0.772209845
259,651929,1255500,0.973,-0.045,0.213,-7.8,1,-1.3,-5.9,23.4,-20.8,0.152623066,-0.611011078,-0.0833460494,-0.772270882
260,654264,1255500,0.973,-0.045,0.213,-7.8,1,-1.3,-5.9,23.4,-20.8,0.152623066,-0.611011078,-0.0833460494,-0.772270882
261,656481,1255500,0.973,-0.045,0.213,-7.8,1,-1.3,-5.9,23.4,-20.8,0.152623066,-0.611011078,-0.0833460494,-0.772270882
262,658849,1255500,0.962,-0.049,0.221,-8.6,0.9,-1.7,-5.6,23.3,-20.5,0.152195807,-0.611011078,-0.0829798273,-0.772362438
263,661184,1255510,0.966,-0.049,0.217,-8.8,0.9,-1.9,-5.6,23.3,-20.5,0.152043214,-0.611041597,-0.0828577532,-0.772392956
264,664750,1255510,0.966,-0.049,0.217,-8.8,0.9,-1.9,-5.6,23.3,-20.5,0.152043214,-0.611041597,-0.0828577532,-0.772392956
265,666127,1255510,0.966,-0.061,0.217,-9.1,0.8,-2.2,-5.7,23.3,-20.2,0.151738029,-0.611072115,-0.0826136052,-0.772484512
266,669889,1255510,0.966,-0.061,0.217,-9.1,0.8,-2.2,-5.7,23.3,-20.2,0.151738029,-0.611072115,-0.0826136052,-0.772484512
267,671844,1255520,0.966,-0.061,0.217,-9.1,0.8,-2.2,-5.7,23.3,-20.2,0.151738029,-0.611072115,-0.0826136052,-0.772484512
268,673926,1255520,0.965,-0.065,0.217,-9.8,0.3,-2.9,-5.7,23.1,-20.6,0.151219214,-0.611102634,-0.0822168645,-0.772576067
269,676926,1255520,0.965,-0.065,0.217,-9.8,0.3,-2.9,-5.7,23.1,-20.6,0.151219214,-0.611102634,-0.0822168645,-0.772576067
270,679829,1255520,0.965,-0.065,0.217,-9.8,0.3,-2.9,-5.7,23.1,-20.6,0.151219214,-0.611102634,-0.0822168645,-0.772576067
271,681269,1255530,0.965,-0.065,0.217,-9.8,0.3,-2.9,-5.7,23.1,-20.6,0.151219214,-0.611102634,-0.0822168645,-0.772576067
272,684139,1255530,0.965,-0.065,0.217,-9.8,0.3,-2.9,-5.7,23.1,-20.6,0.151219214,-0.611102634,-0.0822168645,-0.772576067
273,687329,1255530,0.965,-0.065,0.217,-9.8,0.3,-2.9,-5.7,23.1,-20.6,0.151219214,-0.611102634,-0.0822168645,-0.772576067
274,688934,1255530,0.965,-0.065,0.217,-9.8,0.3,-2.9,-5.7,23.1,-20.6,0.151219214,-0.611102634,-0.0822168645,-0.772576067
275,692145,1255540,0.965,-0.065,0.217,-9.8,0.3,-2.9,-5.7,23.1,-20.6,0.151219214,-0.611102634,-0.0822168645,-0.772576067
276,694810,1255540,0.965,-0.065,0.217,-9.8,0.3,-2.9,-5.7,23.1,-20.6,0.151219214,-0.611102634,-0.0822168645,-0.772576067
277,696197,1255540,0.965,-0.065,0.217,-9.8,0.3,-2.9,-5.7,23.1,-20.6,0.151219214,-0.611102634,-0.0822168645,-0.772576067
278,699184,1255540,0.965,-0.065,0.217,-9.8,0.3,-2.9,-5.7,23.1,-20.6,0.151219214,-0.611102634,-0.0822168645,-0.772576067
279,701148,1255550,0.965,-0.065,0.217,-9.8,0.3,-2.9,-5.7,23.1,-20.6,0.151219214,-0.611102634,-0.0822168645,-0.772576067
280,704846,1255550,0.965,-0.065,0.217,-9.8,0.3,-2.9,-5.7,23.1,-20.6,0.151219214,-0.611102634,-0.0822168645,-0.772576067
281,706166,1255550,0.965,-0.065,0.217,-9.8,0.3,-2.9,-5.7,23.1,-20.6,0.151219214,-0.611102634,-0.0822168645,-0.772576067
282,709256,1255550,0.969,-0.073,0.217,-11.9,-1.1,-3.5,-5,23.2,-20.7,0.148930326,-0.611804559,-0.0802941984,-0.772667623
283,711131,1255560,0.969,-0.073,0.217,-11.9,-1.1,-3.5,-5,23.2,-20.7,0.148930326,-0.611804559,-0.0802941984,-0.772667623
284,713976,1255560,0.969,-0.073,0.217,-11.9,-1.1,-3.5,-5,23.2,-20.7,0.148930326,-0.611804559,-0.0802941984,-0.772667623
285,716990,1255560,0.969,-0.073,0.217,-11.9,-1.1,-3.5,-5,23.2,-20.7,0.148930326,-0.611804559,-0.0802941984,-0.772667623
286,719917,1255560,0.969,-0.073,0.217,-11.9,-1.1,-3.5,-5,23.2,-20.7,0.148930326,-0.611804559,-0.0802941984,-0.772667623
287,721792,1255570,0.969,-0.073,0.217,-11.9,-1.1,-3.5,-5,23.2,-20.7,0.148930326,-0.611804559,-0.0802941984,-0.772667623
288,724909,1255570,0.973,-0.077,0.209,-12.4,-0.9,-3.5,-5.1,23.2,-20.5,0.147373882,-0.612140263,-0.0791955321,-0.772789697
289,726304,1255570,0.973,-0.077,0.209,-12.4,-0.9,-3.5,-5.1,23.2,-20.5,0.147373882,-0.612140263,-0.0791955321,-0.772789697
290,729279,1255570,0.973,-0.077,0.209,-12.4,-0.9,-3.5,-5.1,23.2,-20.5,0.147373882,-0.612140263,-0.0791955321,-0.772789697
291,732760,1255580,0.973,-0.077,0.209,-12.4,-0.9,-3.5,-5.1,23.2,-20.5,0.147373882,-0.612140263,-0.0791955321,-0.772789697
292,734939,1255580,0.973,-0.077,0.209,-12.4,-0.9,-3.5,-5.1,23.2,-20.5,0.147373882,-0.612140263,-0.0791955321,-0.772789697
293,736292,1255580,0.973,-0.077,0.209,-12.4,-0.9,-3.5,-5.1,23.2,-20.5,0.147373882,-0.612140263,-0.0791955321,-0.772789697
294,739243,1255580,0.973,-0.077,0.209,-12.4,-0.9,-3.5,-5.1,23.2,-20.5,0.147373882,-0.612140263,-0.0791955321,-0.772789697
295,742127,1255590,0.973,-0.077,0.209,-12.4,-0.9,-3.5,-5.1,23.2,-20.5,0.147373882,-0.612140263,-0.0791955321,-0.772789697
296,743570,1255590,0.973,-0.077,0.209,-12.4,-0.9,-3.5,-5.1,23.2,-20.5,0.147373882,-0.612140263,-0.0791955321,-0.772789697
297,747420,1255590,0.973,-0.077,0.209,-12.4,-0.9,-3.5,-5.1,23.2,-20.5,0.147373882,-0.612140263,-0.0791955321,-0.772789697
298,749037,1255590,0.973,-0.077,0.209,-12.4,-0.9,-3.5,-5.1,23.2,-20.5,0.147373882,-0.612140263,-0.0791955321,-0.772789697
299,752155,1255600,0.973,-0.077,0.209,-12.4,-0.9,-3.5,-5.1,23.2,-20.5,0.147373882,-0.612140263,-0.0791955321,-0.772789697
300,753624,1255600,0.973,-0.077,0.209,-12.4,-0.9,-3.5,-5.1,23.2,-20.5,0.147373882,-0.612140263,-0.0791955321,-0.772789697
301,756574,1255600,0.973,-0.077,0.209,-12.4,-0.9,-3.5,-5.1,23.2,-20.5,0.147373882,-0.612140263,-0.0791955321,-0.772789697
302,759669,1255600,0.973,-0.077,0.209,-12.4,-0.9,-3.5,-5.1,23.2,-20.5,0.147373882,-0.612140263,-0.0791955321,-0.772789697
303,761331,1255610,0.973,-0.077,0.209,-12.4,-0.9,-3.5,-5.1,23.2,-20.5,0.147373882,-0.612140263,-0.0791955321,-0.772789697
304,764328,1255610,0.973,-0.077,0.209,-12.4,-0.9,-3.5,-5.1,23.2,-20.5,0.147373882,-0.612140263,-0.0791955321,-0.772789697
305,767147,1255610,0.973,-0.077,0.209,-12.4,-0.9,-3.5,-5.1,23.2,-20.5,0.147373882,-0.612140263,-0.0791955321,-0.772789697
306,768577,1255610,0.973,-0.077,0.209,-12.4,-0.9,-3.5,-5.1,23.2,-20.5,0.147373882,-0.612140263,-0.0791955321,-0.772789697
307,771831,1255620,0.973,-0.077,0.209,-12.4,-0.9,-3.5,-5.1,23.2,-20.5,0.147373882,-0.612140263,-0.0791955321,-0.772789697
308,773656,1255620,0.973,-0.077,0.209,-12.4,-0.9,-3.5,-5.1,23.2,-20.5,0.147373882,-0.612140263,-0.0791955321,-0.772789697
309,777341,1255620,0.973,-0.077,0.209,-12.4,-0.9,-3.5,-5.1,23.2,-20.5,0.147373882,-0.612140263,-0.0791955321,-0.772789697
310,779486,1255620,0.973,-0.077,0.209,-12.4,-0.9,-3.5,-5.1,23.2,-20.5,0.147373882,-0.612140263,-0.0791955321,-0.772789697
311,781709,1255630,0.973,-0.077,0.209,-12.4,-0.9,-3.5,-5.1,23.2,-20.5,0.147373882,-0.612140263,-0.0791955321,-0.772789697
312,784215,1255630,0.973,-0.077,0.209,-12.4,-0.9,-3.5,-5.1,23.2,-20.5,0.147373882,-0.612140263,-0.0791955321,-0.772789697
313,786489,1255630,0.973,-0.077,0.209,-12.4,-0.9,-3.5,-5.1,23.2,-20.5,0.147373882,-0.612140263,-0.0791955321,-0.772789697
314,790214,1255630,0.973,-0.077,0.209,-12.4,-0.9,-3.5,-5.1,23.2,-20.5,0.147373882,-0.612140263,-0.0791955321,-0.772789697
315,791732,1255640,0.973,-0.077,0.209,-12.4,-0.9,-3.5,-5.1,23.2,-20.5,0.147373882,-0.612140263,-0.0791955321,-0.772789697
316,794778,1255640,0.973,-0.077,0.209,-12.4,-0.9,-3.5,-5.1,23.2,-20.5,0.147373882,-0.612140263,-0.0791955321,-0.772789697
317,796249,1255640,0.973,-0.077,0.209,-12.4,-0.9,-3.5,-5.1,23.2,-20.5,0.147373882,-0.612140263,-0.0791955321,-0.772789697
318,800450,1255640,0.973,-0.077,0.209,-12.4,-0.9,-3.5,-5.1,23.2,-20.5,0.147373882,-0.612140263,-0.0791955321,-0.772789697
319,802479,1255650,0.973,-0.077,0.209,-12.4,-0.9,-3.5,-5.1,23.2,-20.5,0.147373882,-0.612140263,-0.0791955321,-0.772789697
320,803836,1255650,0.973,-0.077,0.209,-12.4,-0.9,-3.5,-5.1,23.2,-20.5,0.147373882,-0.612140263,-0.0791955321,-0.772789697
321,806896,1255650,0.973,-0.077,0.209,-12.4,-0.9,-3.5,-5.1,23.2,-20.5,0.147373882,-0.612140263,-0.0791955321,-0.772789697
322,809842,1255650,0.973,-0.077,0.209,-12.4,-0.9,-3.5,-5.1,23.2,-20.5,0.147373882,-0.612140263,-0.0791955321,-0.772789697
323,811271,1255660,0.973,-0.077,0.209,-12.4,-0.9,-3.5,-5.1,23.2,-20.5,0.147373882,-0.612140263,-0.0791955321,-0.772789697
324,813588,1255660,0.973,-0.077,0.209,-12.4,-0.9,-3.5,-5.1,23.2,-20.5,0.147373882,-0.612140263,-0.0791955321,-0.772789697
325,818054,1255660,0.973,-0.077,0.209,-12.4,-0.9,-3.5,-5.1,23.2,-20.5,0.147373882,-0.612140263,-0.0791955321,-0.772789697
326,819987,1255660,0.973,-0.077,0.209,-12.4,-0.9,-3.5,-5.1,23.2,-20.5,0.147373882,-0.612140263,-0.0791955321,-0.772789697
327,821649,1255670,0.973,-0.077,0.209,-12.4,-0.9,-3.5,-5.1,23.2,-20.5,0.147373882,-0.612140263,-0.0791955321,-0.772789697
328,825034,1255670,0.973,-0.077,0.209,-12.4,-0.9,-3.5,-5.1,23.2,-20.5,0.147373882,-0.612140263,-0.0791955321,-0.772789697
329,826897,1255670,0.973,-0.077,0.209,-12.4,-0.9,-3.5,-5.1,23.2,-20.5,0.147373882,-0.612140263,-0.0791955321,-0.772789697
330,830256,1255670,0.973,-0.077,0.209,-12.4,-0.9,-3.5,-5.1,23.2,-20.5,0.147373882,-0.612140263,-0.0791955321,-0.772789697
331,831878,1255680,0.973,-0.077,0.209,-12.4,-0.9,-3.5,-5.1,23.2,-20.5,0.147373882,-0.612140263,-0.0791955321,-0.772789697
332,835072,1255680,0.973,-0.077,0.209,-12.4,-0.9,-3.5,-5.1,23.2,-20.5,0.147373882,-0.612140263,-0.0791955321,-0.772789697
333,836474,1255680,0.973,-0.077,0.209,-12.4,-0.9,-3.5,-5.1,23.2,-20.5,0.147373882,-0.612140263,-0.0791955321,-0.772789697
334,839744,1255680,0.973,-0.077,0.209,-12.4,-0.9,-3.5,-5.1,23.2,-20.5,0.147373882,-0.612140263,-0.0791955321,-0.772789697
335,841374,1255690,0.973,-0.077,0.209,-12.4,-0.9,-3.5,-5.1,23.2,-20.5,0.147373882,-0.612140263,-0.0791955321,-0.772789697
336,844633,1255690,0.973,-0.077,0.209,-12.4,-0.9,-3.5,-5.1,23.2,-20.5,0.147373882,-0.612140263,-0.0791955321,-0.772789697
337,846175,1255690,0.965,-0.057,0.209,-11.6,-1.1,0.8,-4.5,23.3,-19.7,0.139164403,-0.614764855,-0.0704977569,-0.773094882
338,848971,1255690,0.965,-0.057,0.209,-11.6,-1.1,0.8,-4.5,23.3,-19.7,0.139164403,-0.614764855,-0.0704977569,-0.773094882
339,851943,1255700,0.965,-0.057,0.209,-11.6,-1.1,0.8,-4.5,23.3,-19.7,0.139164403,-0.614764855,-0.0704977569,-0.773094882
340,855198,1255700,0.965,-0.049,0.205,-12.1,-1.5,1.1,-4.5,23.3,-19.7,0.138706626,-0.614947966,-0.0698568682,-0.773094882
341,857012,1255700,0.965,-0.049,0.205,-12.1,-1.5,1.1,-4.5,23.3,-19.7,0.138706626,-0.614947966,-0.0698568682,-0.773094882
342,858650,1255700,0.965,-0.049,0.205,-12.1,-1.5,1.1,-4.5,23.3,-19.7,0.138706626,-0.614947966,-0.0698568682,-0.773094882
343,861358,1255710,0.969,-0.045,0.201,-13.5,-2,1.9,-4.6,23.7,-19.7,0.138370922,-0.615375225,-0.0694296091,-0.772850734
344,864374,1255710,0.969,-0.045,0.201,-13.5,-2,1.9,-4.6,23.7,-19.7,0.138370922,-0.615375225,-0.0694296091,-0.772850734
345,867422,1255710,0.969,-0.045,0.201,-13.5,-2,1.9,-4.6,23.7,-19.7,0.138370922,-0.615375225,-0.0694296091,-0.772850734
346,868984,1255710,0.969,-0.045,0.201,-13.5,-2,1.9,-4.6,23.7,-19.7,0.138370922,-0.615375225,-0.0694296091,-0.772850734
347,871541,1255720,0.969,-0.045,0.201,-13.5,-2,1.9,-4.6,23.7,-19.7,0.138370922,-0.615375225,-0.0694296091,-0.772850734
348,873615,1255720,0.962,-0.041,0.197,-14.4,-2.6,1.8,-4.2,23.6,-19.6,0.137546922,-0.615802484,-0.0681478317,-0.772759178
349,877378,1255720,0.962,-0.041,0.197,-14.4,-2.6,1.8,-4.2,23.6,-19.6,0.137546922,-0.615802484,-0.0681478317,-0.772759178
350,879595,1255720,0.962,-0.041,0.197,-14.4,-2.6,1.8,-4.2,23.6,-19.6,0.137546922,-0.615802484,-0.0681478317,-0.772759178
351,882475,1255730,0.962,-0.041,0.197,-14.4,-2.6,1.8,-4.2,23.6,-19.6,0.137546922,-0.615802484,-0.0681478317,-0.772759178
352,883908,1255730,0.962,-0.041,0.197,-14.4,-2.6,1.8,-4.2,23.6,-19.6,0.137546922,-0.615802484,-0.0681478317,-0.772759178
353,886885,1255730,0.962,-0.041,0.197,-14.4,-2.6,1.8,-4.2,23.6,-19.6,0.137546922,-0.615802484,-0.0681478317,-0.772759178
354,888622,1255730,0.962,-0.041,0.197,-14.4,-2.6,1.8,-4.2,23.6,-19.6,0.137546922,-0.615802484,-0.0681478317,-0.772759178
355,892520,1255740,0.962,-0.041,0.197,-14.4,-2.6,1.8,-4.2,23.6,-19.6,0.137546922,-0.615802484,-0.0681478317,-0.772759178
356,895149,1255740,0.962,-0.041,0.197,-14.4,-2.6,1.8,-4.2,23.6,-19.6,0.137546922,-0.615802484,-0.0681478317,-0.772759178
357,897914,1255740,0.962,-0.041,0.197,-14.4,-2.6,1.8,-4.2,23.6,-19.6,0.137546922,-0.615802484,-0.0681478317,-0.772759178
358,900160,1255740,0.962,-0.041,0.197,-14.4,-2.6,1.8,-4.2,23.6,-19.6,0.137546922,-0.615802484,-0.0681478317,-0.772759178
359,901972,1255750,0.958,-0.049,0.201,-16.9,-2.3,0.3,-5.5,23.7,-18.8,0.135410627,-0.616870632,-0.0651264992,-0.772545549
360,904570,1255750,0.958,-0.049,0.201,-16.9,-2.3,0.3,-5.5,23.7,-18.8,0.135410627,-0.616870632,-0.0651264992,-0.772545549
361,906407,1255750,0.958,-0.049,0.201,-16.9,-2.3,0.3,-5.5,23.7,-18.8,0.135410627,-0.616870632,-0.0651264992,-0.772545549
362,910118,1255750,0.958,-0.049,0.201,-16.9,-2.3,0.3,-5.5,23.7,-18.8,0.135410627,-0.616870632,-0.0651264992,-0.772545549
363,911938,1255760,0.958,-0.049,0.201,-16.9,-2.3,0.3,-5.5,23.7,-18.8,0.135410627,-0.616870632,-0.0651264992,-0.772545549
364,914460,1255760,0.961,-0.065,0.193,-17.6,-2.1,0,-4.9,23.5,-18.7,0.134647664,-0.61732841,-0.064333018,-0.772392956
365,916674,1255760,0.969,-0.065,0.205,-17.8,-2.4,-0.2,-4.9,23.5,-18.7,0.134159368,-0.617511521,-0.0637531663,-0.772362438
366,919243,1255760,0.969,-0.065,0.205,-17.8,-2.4,-0.2,-4.9,23.5,-18.7,0.134159368,-0.617511521,-0.0637531663,-0.772362438
367,921854,1255770,0.969,-0.065,0.205,-17.8,-2.4,-0.2,-4.9,23.5,-18.7,0.134159368,-0.617511521,-0.0637531663,-0.772362438
368,924084,1255770,0.969,-0.065,0.205,-17.8,-2.4,-0.2,-4.9,23.5,-18.7,0.134159368,-0.617511521,-0.0637531663,-0.772362438
369,926510,1255770,0.969,-0.065,0.205,-17.8,-2.4,-0.2,-4.9,23.5,-18.7,0.134159368,-0.617511521,-0.0637531663,-0.772362438
370,929348,1255770,0.969,-0.065,0.205,-17.8,-2.4,-0.2,-4.9,23.5,-18.7,0.134159368,-0.617511521,-0.0637531663,-0.772362438
371,931855,1255780,0.969,-0.065,0.205,-17.8,-2.4,-0.2,-4.9,23.5,-18.7,0.134159368,-0.617511521,-0.0637531663,-0.772362438
372,934146,1255780,0.969,-0.065,0.205,-17.8,-2.4,-0.2,-4.9,23.5,-18.7,0.134159368,-0.617511521,-0.0637531663,-0.772362438
373,938664,1255780,0.969,-0.065,0.205,-17.8,-2.4,-0.2,-4.9,23.5,-18.7,0.134159368,-0.617511521,-0.0637531663,-0.772362438
374,938927,1255780,0.969,-0.065,0.205,-17.8,-2.4,-0.2,-4.9,23.5,-18.7,0.134159368,-0.617511521,-0.0637531663,-0.772362438
375,942506,1255790,0.969,-0.065,0.205,-17.8,-2.4,-0.2,-4.9,23.5,-18.7,0.134159368,-0.617511521,-0.0637531663,-0.772362438
376,944611,1255790,0.969,-0.065,0.205,-17.8,-2.4,-0.2,-4.9,23.5,-18.7,0.134159368,-0.617511521,-0.0637531663,-0.772362438
377,946847,1255790,0.969,-0.065,0.205,-17.8,-2.4,-0.2,-4.9,23.5,-18.7,0.134159368,-0.617511521,-0.0637531663,-0.772362438
378,949015,1255790,0.969,-0.065,0.205,-17.8,-2.4,-0.2,-4.9,23.5,-18.7,0.134159368,-0.617511521,-0.0637531663,-0.772362438
379,951207,1255800,0.969,-0.065,0.205,-17.8,-2.4,-0.2,-4.9,23.5,-18.7,0.134159368,-0.617511521,-0.0637531663,-0.772362438
380,953933,1255800,0.969,-0.065,0.205,-17.8,-2.4,-0.2,-4.9,23.5,-18.7,0.134159368,-0.617511521,-0.0637531663,-0.772362438
381,957664,1255800,0.969,-0.065,0.205,-17.8,-2.4,-0.2,-4.9,23.5,-18.7,0.134159368,-0.617511521,-0.0637531663,-0.772362438
382,959020,1255800,0.969,-0.065,0.205,-17.8,-2.4,-0.2,-4.9,23.5,-18.7,0.134159368,-0.617511521,-0.0637531663,-0.772362438
383,963071,1255810,0.969,-0.065,0.205,-17.8,-2.4,-0.2,-4.9,23.5,-18.7,0.134159368,-0.617511521,-0.0637531663,-0.772362438
384,964666,1255810,0.969,-0.065,0.205,-17.8,-2.4,-0.2,-4.9,23.5,-18.7,0.134159368,-0.617511521,-0.0637531663,-0.772362438
385,966309,1255810,0.969,-0.065,0.205,-17.8,-2.4,-0.2,-4.9,23.5,-18.7,0.134159368,-0.617511521,-0.0637531663,-0.772362438
386,969949,1255810,0.969,-0.065,0.205,-17.8,-2.4,-0.2,-4.9,23.5,-18.7,0.134159368,-0.617511521,-0.0637531663,-0.772362438
387,971550,1255820,0.969,-0.065,0.205,-17.8,-2.4,-0.2,-4.9,23.5,-18.7,0.134159368,-0.617511521,-0.0637531663,-0.772362438
388,974079,1255820,0.969,-0.065,0.205,-17.8,-2.4,-0.2,-4.9,23.5,-18.7,0.134159368,-0.617511521,-0.0637531663,-0.772362438
389,977522,1255820,0.969,-0.065,0.205,-17.8,-2.4,-0.2,-4.9,23.5,-18.7,0.134159368,-0.617511521,-0.0637531663,-0.772362438
390,978950,1255820,0.973,-0.057,0.185,-23.8,-5,1.2,-5.4,24.4,-18.2,0.127903073,-0.620715964,-0.0559099094,-0.771477401
391,982876,1255830,0.969,-0.053,0.185,-23.8,-5,1.1,-5.4,24.4,-18.2,0.12756737,-0.620868557,-0.0555131687,-0.771446883
392,985096,1255830,0.969,-0.053,0.185,-23.8,-5,1.1,-5.4,24.4,-18.2,0.12756737,-0.620868557,-0.0555131687,-0.771446883
393,987353,1255830,0.969,-0.053,0.185,-23.8,-5,1.1,-5.4,24.4,-18.2,0.12756737,-0.620868557,-0.0555131687,-0.771446883
394,988748,1255830,0.969,-0.053,0.185,-23.8,-5,1.1,-5.4,24.4,-18.2,0.12756737,-0.620868557,-0.0555131687,-0.771446883
395,992763,1255840,0.969,-0.053,0.185,-23.8,-5,1.1,-5.4,24.4,-18.2,0.12756737,-0.620868557,-0.0555131687,-0.771446883
396,995019,1255840,0.973,-0.042,0.177,-23.6,-5.1,0.5,-5.1,24.5,-20.4,0.126010926,-0.62163152,-0.0534989471,-0.771233253
397,997000,1255840,0.969,-0.042,0.177,-23.5,-5.1,0.2,-5.3,24.6,-19.4,0.125675222,-0.621784112,-0.053132725,-0.771172216
398,999069,1255840,0.969,-0.042,0.177,-23.5,-5.1,0.2,-5.3,24.6,-19.4,0.125675222,-0.621784112,-0.053132725,-0.771172216
399,1003164,1255850,0.969,-0.042,0.177,-23.5,-5.1,0.2,-5.3,24.6,-19.4,0.125675222,-0.621784112,-0.053132725,-0.771172216
400,1004994,1255850,0.969,-0.042,0.177,-23.5,-5.1,0.2,-5.3,24.6,-19.4,0.125675222,-0.621784112,-0.053132725,-0.771172216
401,1006724,1255850,0.969,-0.042,0.177,-23.5,-5.1,0.2,-5.3,24.6,-19.4,0.125675222,-0.621784112,-0.053132725,-0.771172216
402,1008944,1255850,0.969,-0.042,0.177,-23.5,-5.1,0.2,-5.3,24.6,-19.4,0.125675222,-0.621784112,-0.053132725,-0.771172216
403,1011526,1255860,0.969,-0.042,0.177,-23.5,-5.1,0.2,-5.3,24.6,-19.4,0.125675222,-0.621784112,-0.053132725,-0.771172216
404,1015092,1255860,0.969,-0.042,0.177,-23.5,-5.1,0.2,-5.3,24.6,-19.4,0.125675222,-0.621784112,-0.053132725,-0.771172216
405,1016995,1255860,0.977,-0.03,0.17,-24.6,-5.1,-1.6,-5,24.7,-19.7,0.123294778,-0.62285226,-0.0505081332,-0.770867031
406,1019802,1255860,0.977,-0.03,0.17,-24.6,-5.1,-1.6,-5,24.7,-19.7,0.123294778,-0.62285226,-0.0505081332,-0.770867031
407,1021635,1255870,0.977,-0.03,0.17,-24.6,-5.1,-1.6,-5,24.7,-19.7,0.123294778,-0.62285226,-0.0505081332,-0.770867031
408,1023687,1255870,0.977,-0.03,0.17,-24.6,-5.1,-1.6,-5,24.7,-19.7,0.123294778,-0.62285226,-0.0505081332,-0.770867031
409,1027866,1255870,0.977,-0.03,0.17,-24.6,-5.1,-1.6,-5,24.7,-19.7,0.123294778,-0.62285226,-0.0505081332,-0.770867031
410,1029147,1255870,0.977,-0.03,0.17,-24.6,-5.1,-1.6,-5,24.7,-19.7,0.123294778,-0.62285226,-0.0505081332,-0.770867031
411,1032405,1255880,0.977,-0.03,0.17,-24.6,-5.1,-1.6,-5,24.7,-19.7,0.123294778,-0.62285226,-0.0505081332,-0.770867031
412,1033781,1255880,0.977,-0.03,0.17,-24.6,-5.1,-1.6,-5,24.7,-19.7,0.123294778,-0.62285226,-0.0505081332,-0.770867031
413,1036891,1255880,0.977,-0.03,0.17,-24.6,-5.1,-1.6,-5,24.7,-19.7,0.123294778,-0.62285226,-0.0505081332,-0.770867031
414,1039172,1255880,0.977,-0.03,0.17,-24.6,-5.1,-1.6,-5,24.7,-19.7,0.123294778,-0.62285226,-0.0505081332,-0.770867031
415,1042691,1255890,0.977,-0.03,0.17,-24.6,-5.1,-1.6,-5,24.7,-19.7,0.123294778,-0.62285226,-0.0505081332,-0.770867031
416,1044504,1255890,0.977,-0.03,0.17,-24.6,-5.1,-1.6,-5,24.7,-19.7,0.123294778,-0.62285226,-0.0505081332,-0.770867031
417,1046658,1255890,0.977,-0.03,0.17,-24.6,-5.1,-1.6,-5,24.7,-19.7,0.123294778,-0.62285226,-0.0505081332,-0.770867031
418,1048581,1255890,0.977,-0.03,0.17,-24.6,-5.1,-1.6,-5,24.7,-19.7,0.123294778,-0.62285226,-0.0505081332,-0.770867031
419,1051860,1255900,1.004,-0.034,0.146,-36.1,-3.5,-5.8,-5.1,24.8,-18.9,0.116061892,-0.625446333,-0.0445875423,-0.770256661
420,1053881,1255900,1.004,-0.034,0.146,-36.1,-3.5,-5.8,-5.1,24.8,-18.9,0.116061892,-0.625446333,-0.0445875423,-0.770256661
421,1057225,1255900,1.004,-0.034,0.146,-36.1,-3.5,-5.8,-5.1,24.8,-18.9,0.116061892,-0.625446333,-0.0445875423,-0.770256661
422,1059479,1255900,1.004,-0.034,0.146,-36.1,-3.5,-5.8,-5.1,24.8,-18.9,0.116061892,-0.625446333,-0.0445875423,-0.770256661
423,1061609,1255910,1.004,-0.034,0.146,-36.1,-3.5,-5.8,-5.1,24.8,-18.9,0.116061892,-0.625446333,-0.0445875423,-0.770256661
424,1065787,1255910,1.004,-0.034,0.146,-36.1,-3.5,-5.8,-5.1,24.8,-18.9,0.116061892,-0.625446333,-0.0445875423,-0.770256661
425,1067556,1255910,1.004,-0.034,0.146,-36.1,-3.5,-5.8,-5.1,24.8,-18.9,0.116061892,-0.625446333,-0.0445875423,-0.770256661
426,1069862,1255910,1.004,-0.034,0.146,-36.1,-3.5,-5.8,-5.1,24.8,-18.9,0.116061892,-0.625446333,-0.0445875423,-0.770256661
427,1071778,1255920,1.004,-0.034,0.146,-36.1,-3.5,-5.8,-5.1,24.8,-18.9,0.116061892,-0.625446333,-0.0445875423,-0.770256661
428,1075122,1255920,1.004,-0.034,0.146,-36.1,-3.5,-5.8,-5.1,24.8,-18.9,0.116061892,-0.625446333,-0.0445875423,-0.770256661
429,1076459,1255920,1.004,-0.034,0.146,-36.1,-3.5,-5.8,-5.1,24.8,-18.9,0.116061892,-0.625446333,-0.0445875423,-0.770256661
430,1078729,1255920,1.004,-0.034,0.146,-36.1,-3.5,-5.8,-5.1,24.8,-18.9,0.116061892,-0.625446333,-0.0445875423,-0.770256661
431,1082249,1255930,1.004,-0.034,0.146,-36.1,-3.5,-5.8,-5.1,24.8,-18.9,0.116061892,-0.625446333,-0.0445875423,-0.770256661
432,1084035,1255930,1.004,-0.034,0.146,-36.1,-3.5,-5.8,-5.1,24.8,-18.9,0.116061892,-0.625446333,-0.0445875423,-0.770256661
433,1086167,1255930,1.004,-0.034,0.146,-36.1,-3.5,-5.8,-5.1,24.8,-18.9,0.116061892,-0.625446333,-0.0445875423,-0.770256661
434,1088657,1255930,1.004,-0.034,0.146,-36.1,-3.5,-5.8,-5.1,24.8,-18.9,0.116061892,-0.625446333,-0.0445875423,-0.770256661
435,1091158,1255940,1.004,-0.034,0.146,-36.1,-3.5,-5.8,-5.1,24.8,-18.9,0.116061892,-0.625446333,-0.0445875423,-0.770256661
436,1094888,1255940,1.024,-0.047,0.137,-42.5,-2.1,-5.5,-5.6,24.8,-18.7,0.10544145,-0.627887814,-0.0355540635,-0.770287179
437,1096322,1255940,1.024,-0.047,0.137,-42.5,-2.1,-5.5,-5.6,24.8,-18.7,0.10544145,-0.627887814,-0.0355540635,-0.770287179
438,1099519,1255940,1.024,-0.047,0.137,-42.5,-2.1,-5.5,-5.6,24.8,-18.7,0.10544145,-0.627887814,-0.0355540635,-0.770287179
439,1101573,1255950,1.024,-0.047,0.137,-42.5,-2.1,-5.5,-5.6,24.8,-18.7,0.10544145,-0.627887814,-0.0355540635,-0.770287179
440,1104163,1255950,1.024,-0.047,0.137,-42.5,-2.1,-5.5,-5.6,24.8,-18.7,0.10544145,-0.627887814,-0.0355540635,-0.770287179
441,1106166,1255950,1.028,-0.047,0.137,-44.3,-0.9,-5,-5.7,24.9,-18.3,0.101992859,-0.628498184,-0.032227546,-0.770409253
442,1110219,1255950,1.028,-0.047,0.137,-44.3,-0.9,-5,-5.7,24.9,-18.3,0.101992859,-0.628498184,-0.032227546,-0.770409253
443,1112416,1255960,1.028,-0.047,0.137,-44.3,-0.9,-5,-5.7,24.9,-18.3,0.101992859,-0.628498184,-0.032227546,-0.770409253
444,1114756,1255960,1.028,-0.054,0.145,-46.3,1,-5.5,-5.6,25.2,-18.4,0.099856563,-0.628772851,-0.0301522874,-0.770500809
445,1116836,1255960,1.024,-0.054,0.145,-46.3,1,-5.5,-5.6,25.2,-18.4,0.0991241188,-0.628833888,-0.0294198431,-0.770592364
446,1119145,1255960,1.024,-0.054,0.145,-46.3,1,-5.5,-5.6,25.2,-18.4,0.0991241188,-0.628833888,-0.0294198431,-0.770592364
447,1123130,1255970,1.024,-0.054,0.145,-46.3,1,-5.5,-5.6,25.2,-18.4,0.0991241188,-0.628833888,-0.0294198431,-0.770592364
448,1124793,1255970,1.024,-0.054,0.145,-46.3,1,-5.5,-5.6,25.2,-18.4,0.0991241188,-0.628833888,-0.0294198431,-0.770592364
449,1126637,1255970,1.024,-0.054,0.145,-46.3,1,-5.5,-5.6,25.2,-18.4,0.0991241188,-0.628833888,-0.0294198431,-0.770592364
450,1129069,1255970,1.024,-0.054,0.145,-46.3,1,-5.5,-5.6,25.2,-18.4,0.0991241188,-0.628833888,-0.0294198431,-0.770592364
451,1131988,1255980,1.024,-0.054,0.145,-46.3,1,-5.5,-5.6,25.2,-18.4,0.0991241188,-0.628833888,-0.0294198431,-0.770592364
452,1134160,1255980,1.024,-0.054,0.145,-46.3,1,-5.5,-5.6,25.2,-18.4,0.0991241188,-0.628833888,-0.0294198431,-0.770592364
453,1136218,1255980,1.024,-0.054,0.145,-46.3,1,-5.5,-5.6,25.2,-18.4,0.0991241188,-0.628833888,-0.0294198431,-0.770592364
454,1139510,1255980,1.024,-0.054,0.145,-46.3,1,-5.5,-5.6,25.2,-18.4,0.0991241188,-0.628833888,-0.0294198431,-0.770592364
455,1141601,1255990,1.031,-0.105,0.141,-52,6.4,-7.1,-5.7,26.9,-16.7,0.091769158,-0.629657888,-0.0228278451,-0.771050142
456,1144791,1255990,1.031,-0.105,0.141,-52,6.4,-7.1,-5.7,26.9,-16.7,0.091769158,-0.629657888,-0.0228278451,-0.771050142
457,1147093,1255990,1.031,-0.105,0.141,-52,6.4,-7.1,-5.7,26.9,-16.7,0.091769158,-0.629657888,-0.0228278451,-0.771050142
458,1149345,1255990,1.031,-0.105,0.141,-52,6.4,-7.1,-5.7,26.9,-16.7,0.091769158,-0.629657888,-0.0228278451,-0.771050142
459,1151582,1256000,1.031,-0.105,0.141,-52,6.4,-7.1,-5.7,26.9,-16.7,0.091769158,-0.629657888,-0.0228278451,-0.771050142
460,1154858,1256000,1.031,-0.105,0.141,-52,6.4,-7.1,-5.7,26.9,-16.7,0.091769158,-0.629657888,-0.0228278451,-0.771050142
461,1156373,1256000,1.031,-0.105,0.141,-52,6.4,-7.1,-5.7,26.9,-16.7,0.091769158,-0.629657888,-0.0228278451,-0.771050142
462,1159959,1256000,1.031,-0.105,0.141,-52,6.4,-7.1,-5.7,26.9,-16.7,0.091769158,-0.629657888,-0.0228278451,-0.771050142
463,1161894,1256010,1.031,-0.105,0.141,-52,6.4,-7.1,-5.7,26.9,-16.7,0.091769158,-0.629657888,-0.0228278451,-0.771050142
464,1164101,1256010,1.031,-0.105,0.141,-52,6.4,-7.1,-5.7,26.9,-16.7,0.091769158,-0.629657888,-0.0228278451,-0.771050142
465,1168052,1256010,1.031,-0.105,0.141,-52,6.4,-7.1,-5.7,26.9,-16.7,0.091769158,-0.629657888,-0.0228278451,-0.771050142
466,1170632,1256010,1.031,-0.105,0.141,-52,6.4,-7.1,-5.7,26.9,-16.7,0.091769158,-0.629657888,-0.0228278451,-0.771050142
467,1172510,1256020,1.031,-0.105,0.141,-52,6.4,-7.1,-5.7,26.9,-16.7,0.091769158,-0.629657888,-0.0228278451,-0.771050142
468,1175358,1256020,1.031,-0.105,0.141,-52,6.4,-7.1,-5.7,26.9,-16.7,0.091769158,-0.629657888,-0.0228278451,-0.771050142
469,1177123,1256020,1.031,-0.105,0.141,-52,6.4,-7.1,-5.7,26.9,-16.7,0.091769158,-0.629657888,-0.0228278451,-0.771050142
470,1178905,1256020,1.031,-0.105,0.141,-52,6.4,-7.1,-5.7,26.9,-16.7,0.091769158,-0.629657888,-0.0228278451,-0.771050142
471,1181653,1256030,1.031,-0.105,0.141,-52,6.4,-7.1,-5.7,26.9,-16.7,0.091769158,-0.629657888,-0.0228278451,-0.771050142
472,1184918,1256030,1.031,-0.105,0.141,-52,6.4,-7.1,-5.7,26.9,-16.7,0.091769158,-0.629657888,-0.0228278451,-0.771050142
473,1187112,1256030,1.031,-0.105,0.141,-52,6.4,-7.1,-5.7,26.9,-16.7,0.091769158,-0.629657888,-0.0228278451,-0.771050142
474,1189245,1256030,1.031,-0.105,0.141,-52,6.4,-7.1,-5.7,26.9,-16.7,0.091769158,-0.629657888,-0.0228278451,-0.771050142
475,1191584,1256040,1.031,-0.105,0.141,-52,6.4,-7.1,-5.7,26.9,-16.7,0.091769158,-0.629657888,-0.0228278451,-0.771050142
476,1193927,1256040,1.031,-0.105,0.141,-52,6.4,-7.1,-5.7,26.9,-16.7,0.091769158,-0.629657888,-0.0228278451,-0.771050142
477,1197768,1256040,1.031,-0.105,0.141,-52,6.4,-7.1,-5.7,26.9,-16.7,0.091769158,-0.629657888,-0.0228278451,-0.771050142
478,1199882,1256040,1.031,-0.105,0.141,-52,6.4,-7.1,-5.7,26.9,-16.7,0.091769158,-0.629657888,-0.0228278451,-0.771050142
479,1201488,1256050,1.031,-0.105,0.141,-52,6.4,-7.1,-5.7,26.9,-16.7,0.091769158,-0.629657888,-0.0228278451,-0.771050142
480,1203904,1256050,1.031,-0.105,0.141,-52,6.4,-7.1,-5.7,26.9,-16.7,0.091769158,-0.629657888,-0.0228278451,-0.771050142
481,1206668,1256050,1.031,-0.105,0.141,-52,6.4,-7.1,-5.7,26.9,-16.7,0.091769158,-0.629657888,-0.0228278451,-0.771050142
482,1208811,1256050,1.031,-0.105,0.141,-52,6.4,-7.1,-5.7,26.9,-16.7,0.091769158,-0.629657888,-0.0228278451,-0.771050142
483,1211616,1256060,1.031,-0.105,0.141,-52,6.4,-7.1,-5.7,26.9,-16.7,0.091769158,-0.629657888,-0.0228278451,-0.771050142
484,1215301,1256060,1.031,-0.105,0.141,-52,6.4,-7.1,-5.7,26.9,-16.7,0.091769158,-0.629657888,-0.0228278451,-0.771050142
485,1217520,1256060,1.031,-0.105,0.141,-52,6.4,-7.1,-5.7,26.9,-16.7,0.091769158,-0.629657888,-0.0228278451,-0.771050142
486,1220015,1256060,1.031,-0.105,0.141,-52,6.4,-7.1,-5.7,26.9,-16.7,0.091769158,-0.629657888,-0.0228278451,-0.771050142
487,1221906,1256070,1.031,-0.105,0.141,-52,6.4,-7.1,-5.7,26.9,-16.7,0.091769158,-0.629657888,-0.0228278451,-0.771050142
488,1224125,1256070,1.031,-0.105,0.141,-52,6.4,-7.1,-5.7,26.9,-16.7,0.091769158,-0.629657888,-0.0228278451,-0.771050142
489,1228459,1256070,0.952,-0.377,0.163,-67,24.5,-18.5,-6,26.9,-15,0.0612506485,-0.625293741,0.00570696127,-0.777916807
490,1228807,1256070,0.952,-0.377,0.163,-67,24.5,-18.5,-6,26.9,-15,0.0612506485,-0.625293741,0.00570696127,-0.777916807
491,1231588,1256080,0.952,-0.377,0.163,-67,24.5,-18.5,-6,26.9,-15,0.0612506485,-0.625293741,0.00570696127,-0.777916807
492,1233625,1256080,0.909,-0.431,0.175,-69.5,23.5,-21.4,-6.2,27,-14.8,0.0595110935,-0.624927519,0.00866725669,-0.778313547
493,1236990,1256080,0.909,-0.447,0.175,-69.5,22.9,-21.9,-6.2,27,-14.8,0.0581377606,-0.624622333,0.00958281198,-0.778679769
494,1238819,1256080,0.909,-0.447,0.175,-69.5,22.9,-21.9,-6.2,27,-14.8,0.0581377606,-0.624622333,0.00958281198,-0.778679769
495,1241213,1256090,0.909,-0.447,0.175,-69.5,22.9,-21.9,-6.2,27,-14.8,0.0581377606,-0.624622333,0.00958281198,-0.778679769
496,1244748,1256090,0.909,-0.447,0.175,-69.5,22.9,-21.9,-6.2,27,-14.8,0.0581377606,-0.624622333,0.00958281198,-0.778679769
497,1247020,1256090,0.894,-0.493,0.188,-66.1,20,-23.3,-5.8,26.3,-14.6,0.0529190954,-0.623523667,0.0130619221,-0.779869991
498,1248740,1256090,0.894,-0.493,0.188,-66.1,20,-23.3,-5.8,26.3,-14.6,0.0529190954,-0.623523667,0.0130619221,-0.779869991
499,1253135,1256100,0.894,-0.493,0.188,-66.1,20,-23.3,-5.8,26.3,-14.6,0.0529190954,-0.623523667,0.0130619221,-0.779869991
500,1254916,1256100,0.894,-0.493,0.188,-66.1,20,-23.3,-5.8,26.3,-14.6,0.0529190954,-0.623523667,0.0130619221,-0.779869991
501,1256336,1256100,0.894,-0.493,0.188,-66.1,20,-23.3,-5.8,26.3,-14.6,0.0529190954,-0.623523667,0.0130619221,-0.779869991
502,1258699,1256100,0.894,-0.493,0.188,-66.1,20,-23.3,-5.8,26.3,-14.6,0.0529190954,-0.623523667,0.0130619221,-0.779869991
503,1262662,1256110,0.894,-0.493,0.188,-66.1,20,-23.3,-5.8,26.3,-14.6,0.0529190954,-0.623523667,0.0130619221,-0.779869991
504,1264937,1256110,0.894,-0.493,0.188,-66.1,20,-23.3,-5.8,26.3,-14.6,0.0529190954,-0.623523667,0.0130619221,-0.779869991
505,1266568,1256110,0.894,-0.493,0.188,-66.1,20,-23.3,-5.8,26.3,-14.6,0.0529190954,-0.623523667,0.0130619221,-0.779869991
506,1268880,1256110,0.894,-0.493,0.188,-66.1,20,-23.3,-5.8,26.3,-14.6,0.0529190954,-0.623523667,0.0130619221,-0.779869991
507,1271496,1256120,0.979,-0.573,0.198,-43.6,14.3,-24.6,-7.4,28,-13.8,0.0413525803,-0.62141789,0.019348735,-0.782128361
508,1273921,1256120,0.979,-0.573,0.198,-43.6,14.3,-24.6,-7.4,28,-13.8,0.0413525803,-0.62141789,0.019348735,-0.782128361
509,1277241,1256120,0.979,-0.573,0.198,-43.6,14.3,-24.6,-7.4,28,-13.8,0.0413525803,-0.62141789,0.019348735,-0.782128361
510,1278751,1256120,0.979,-0.573,0.198,-43.6,14.3,-24.6,-7.4,28,-13.8,0.0413525803,-0.62141789,0.019348735,-0.782128361
511,1281150,1256130,0.979,-0.573,0.198,-43.6,14.3,-24.6,-7.4,28,-13.8,0.0413525803,-0.62141789,0.019348735,-0.782128361
512,1283594,1256130,0.979,-0.573,0.198,-43.6,14.3,-24.6,-7.4,28,-13.8,0.0413525803,-0.62141789,0.019348735,-0.782128361
513,1286868,1256130,0.979,-0.573,0.198,-43.6,14.3,-24.6,-7.4,28,-13.8,0.0413525803,-0.62141789,0.019348735,-0.782128361
514,1289287,1256130,1.034,-0.691,0.205,-32.6,19.4,-29.9,-7.6,27.8,-14,0.0345774712,-0.619708853,0.0211798456,-0.783745842
515,1291540,1256140,1.034,-0.691,0.205,-32.6,19.4,-29.9,-7.6,27.8,-14,0.0345774712,-0.619708853,0.0211798456,-0.783745842
516,1295511,1256140,1.034,-0.691,0.205,-32.6,19.4,-29.9,-7.6,27.8,-14,0.0345774712,-0.619708853,0.0211798456,-0.783745842
517,1297583,1256140,1.034,-0.691,0.205,-32.6,19.4,-29.9,-7.6,27.8,-14,0.0345774712,-0.619708853,0.0211798456,-0.783745842
518,1298830,1256140,1.034,-0.691,0.205,-32.6,19.4,-29.9,-7.6,27.8,-14,0.0345774712,-0.619708853,0.0211798456,-0.783745842
519,1301705,1256150,1.034,-0.691,0.205,-32.6,19.4,-29.9,-7.6,27.8,-14,0.0345774712,-0.619708853,0.0211798456,-0.783745842
520,1303791,1256150,1.034,-0.691,0.205,-32.6,19.4,-29.9,-7.6,27.8,-14,0.0345774712,-0.619708853,0.0211798456,-0.783745842
521,1308287,1256150,1.034,-0.691,0.205,-32.6,19.4,-29.9,-7.6,27.8,-14,0.0345774712,-0.619708853,0.0211798456,-0.783745842
522,1310364,1256150,1.034,-0.691,0.205,-32.6,19.4,-29.9,-7.6,27.8,-14,0.0345774712,-0.619708853,0.0211798456,-0.783745842
523,1311917,1256160,1.034,-0.691,0.205,-32.6,19.4,-29.9,-7.6,27.8,-14,0.0345774712,-0.619708853,0.0211798456,-0.783745842
524,1314451,1256160,1.034,-0.691,0.205,-32.6,19.4,-29.9,-7.6,27.8,-14,0.0345774712,-0.619708853,0.0211798456,-0.783745842
525,1316544,1256160,1.034,-0.691,0.205,-32.6,19.4,-29.9,-7.6,27.8,-14,0.0345774712,-0.619708853,0.0211798456,-0.783745842
526,1319759,1256160,0.962,-1.17,0.285,-45.6,31,-44,-5.9,26.7,-13.8,0.0203253273,-0.614734336,0.0231330302,-0.788109989
527,1321743,1256170,0.962,-1.17,0.285,-45.6,31,-44,-5.9,26.7,-13.8,0.0203253273,-0.614734336,0.0231330302,-0.788109989
528,1323965,1256170,0.962,-1.17,0.285,-45.6,31,-44,-5.9,26.7,-13.8,0.0203253273,-0.614734336,0.0231330302,-0.788109989
529,1327442,1256170,0.962,-1.17,0.285,-45.6,31,-44,-5.9,26.7,-13.8,0.0203253273,-0.614734336,0.0231330302,-0.788109989
530,1329387,1256170,0.962,-1.17,0.285,-45.6,31,-44,-5.9,26.7,-13.8,0.0203253273,-0.614734336,0.0231330302,-0.788109989
531,1331240,1256180,0.962,-1.17,0.285,-45.6,31,-44,-5.9,26.7,-13.8,0.0203253273,-0.614734336,0.0231330302,-0.788109989
532,1335132,1256180,0.962,-1.17,0.285,-45.6,31,-44,-5.9,26.7,-13.8,0.0203253273,-0.614734336,0.0231330302,-0.788109989
533,1337348,1256180,0.962,-1.17,0.285,-45.6,31,-44,-5.9,26.7,-13.8,0.0203253273,-0.614734336,0.0231330302,-0.788109989
534,1338799,1256180,0.962,-1.17,0.285,-45.6,31,-44,-5.9,26.7,-13.8,0.0203253273,-0.614734336,0.0231330302,-0.788109989
535,1342975,1256190,0.962,-1.17,0.285,-45.6,31,-44,-5.9,26.7,-13.8,0.0203253273,-0.614734336,0.0231330302,-0.788109989
536,1345406,1256190,0.868,-1.469,0.284,13,24.8,-40.5,-7.4,27.2,-12.9,0.0104678488,-0.610583819,0.0214850307,-0.79155858
537,1347359,1256190,0.868,-1.469,0.284,13,24.8,-40.5,-7.4,27.2,-12.9,0.0104678488,-0.610583819,0.0214850307,-0.79155858
538,1349535,1256190,0.868,-1.469,0.284,13,24.8,-40.5,-7.4,27.2,-12.9,0.0104678488,-0.610583819,0.0214850307,-0.79155858
539,1351687,1256200,0.868,-1.469,0.284,13,24.8,-40.5,-7.4,27.2,-12.9,0.0104678488,-0.610583819,0.0214850307,-0.79155858
540,1353637,1256200,0.868,-1.469,0.284,13,24.8,-40.5,-7.4,27.2,-12.9,0.0104678488,-0.610583819,0.0214850307,-0.79155858
541,1357562,1256200,0.868,-1.469,0.284,13,24.8,-40.5,-7.4,27.2,-12.9,0.0104678488,-0.610583819,0.0214850307,-0.79155858
542,1358940,1256200,0.868,-1.469,0.284,13,24.8,-40.5,-7.4,27.2,-12.9,0.0104678488,-0.610583819,0.0214850307,-0.79155858
543,1361942,1256210,0.868,-1.469,0.284,13,24.8,-40.5,-7.4,27.2,-12.9,0.0104678488,-0.610583819,0.0214850307,-0.79155858
544,1364316,1256210,0.868,-1.469,0.284,13,24.8,-40.5,-7.4,27.2,-12.9,0.0104678488,-0.610583819,0.0214850307,-0.79155858
545,1366571,1256210,0.952,-1.593,0.106,106.8,25.8,-18.7,-7.4,26.6,-13.8,0.0130619221,-0.606921598,0.00845362712,-0.794579913
546,1369039,1256210,0.952,-1.593,0.106,106.8,25.8,-18.7,-7.4,26.6,-13.8,0.0130619221,-0.606921598,0.00845362712,-0.794579913
547,1371342,1256220,0.952,-1.593,0.106,106.8,25.8,-18.7,-7.4,26.6,-13.8,0.0130619221,-0.606921598,0.00845362712,-0.794579913
548,1373577,1256220,0.952,-1.593,0.106,106.8,25.8,-18.7,-7.4,26.6,-13.8,0.0130619221,-0.606921598,0.00845362712,-0.794579913
549,1378057,1256220,0.952,-1.593,0.106,106.8,25.8,-18.7,-7.4,26.6,-13.8,0.0130619221,-0.606921598,0.00845362712,-0.794579913
550,1380247,1256220,0.952,-1.593,0.106,106.8,25.8,-18.7,-7.4,26.6,-13.8,0.0130619221,-0.606921598,0.00845362712,-0.794579913
551,1382408,1256230,0.952,-1.593,0.106,106.8,25.8,-18.7,-7.4,26.6,-13.8,0.0130619221,-0.606921598,0.00845362712,-0.794579913
552,1384488,1256230,0.952,-1.593,0.106,106.8,25.8,-18.7,-7.4,26.6,-13.8,0.0130619221,-0.606921598,0.00845362712,-0.794579913
553,1386670,1256230,0.952,-1.593,0.106,106.8,25.8,-18.7,-7.4,26.6,-13.8,0.0130619221,-0.606921598,0.00845362712,-0.794579913
554,1389876,1256230,0.952,-1.593,0.106,106.8,25.8,-18.7,-7.4,26.6,-13.8,0.0130619221,-0.606921598,0.00845362712,-0.794579913
555,1391948,1256240,0.952,-1.593,0.106,106.8,25.8,-18.7,-7.4,26.6,-13.8,0.0130619221,-0.606921598,0.00845362712,-0.794579913
556,1394963,1256240,0.952,-1.593,0.106,106.8,25.8,-18.7,-7.4,26.6,-13.8,0.0130619221,-0.606921598,0.00845362712,-0.794579913
557,1396444,1256240,0.952,-1.593,0.106,106.8,25.8,-18.7,-7.4,26.6,-13.8,0.0130619221,-0.606921598,0.00845362712,-0.794579913
558,1398805,1256240,0.952,-1.593,0.106,106.8,25.8,-18.7,-7.4,26.6,-13.8,0.0130619221,-0.606921598,0.00845362712,-0.794579913
559,1402670,1256250,0.952,-1.593,0.106,106.8,25.8,-18.7,-7.4,26.6,-13.8,0.0130619221,-0.606921598,0.00845362712,-0.794579913
560,1404939,1256250,0.952,-1.593,0.106,106.8,25.8,-18.7,-7.4,26.6,-13.8,0.0130619221,-0.606921598,0.00845362712,-0.794579913
561,1406929,1256250,0.952,-1.593,0.106,106.8,25.8,-18.7,-7.4,26.6,-13.8,0.0130619221,-0.606921598,0.00845362712,-0.794579913
562,1410295,1256250,1.058,-1.146,-0.068,271,38.7,46,-5.9,25,-17.2,0.0591753899,-0.594622639,-0.0439466536,-0.800592059
563,1411627,1256260,1.058,-1.146,-0.068,271,38.7,46,-5.9,25,-17.2,0.0591753899,-0.594622639,-0.0439466536,-0.800592059
564,1414653,1256260,1.058,-1.146,-0.068,271,38.7,46,-5.9,25,-17.2,0.0591753899,-0.594622639,-0.0439466536,-0.800592059
565,1416405,1256260,1.058,-1.146,-0.068,271,38.7,46,-5.9,25,-17.2,0.0591753899,-0.594622639,-0.0439466536,-0.800592059
566,1419956,1256260,1.058,-1.146,-0.068,271,38.7,46,-5.9,25,-17.2,0.0591753899,-0.594622639,-0.0439466536,-0.800592059
567,1422170,1256270,1.058,-1.146,-0.068,271,38.7,46,-5.9,25,-17.2,0.0591753899,-0.594622639,-0.0439466536,-0.800592059
568,1423567,1256270,1.058,-1.146,-0.068,271,38.7,46,-5.9,25,-17.2,0.0591753899,-0.594622639,-0.0439466536,-0.800592059
569,1427408,1256270,1.058,-1.146,-0.068,271,38.7,46,-5.9,25,-17.2,0.0591753899,-0.594622639,-0.0439466536,-0.800592059
570,1428750,1256270,1.058,-1.146,-0.068,271,38.7,46,-5.9,25,-17.2,0.0591753899,-0.594622639,-0.0439466536,-0.800592059
571,1431741,1256280,1.058,-1.146,-0.068,271,38.7,46,-5.9,25,-17.2,0.0591753899,-0.594622639,-0.0439466536,-0.800592059
572,1434137,1256280,1.058,-1.146,-0.068,271,38.7,46,-5.9,25,-17.2,0.0591753899,-0.594622639,-0.0439466536,-0.800592059
573,1437463,1256280,1.058,-1.146,-0.068,271,38.7,46,-5.9,25,-17.2,0.0591753899,-0.594622639,-0.0439466536,-0.800592059
574,1439272,1256280,1.058,-1.146,-0.068,271,38.7,46,-5.9,25,-17.2,0.0591753899,-0.594622639,-0.0439466536,-0.800592059
575,1441496,1256290,1.058,-1.146,-0.068,271,38.7,46,-5.9,25,-17.2,0.0591753899,-0.594622639,-0.0439466536,-0.800592059
576,1444816,1256290,1.058,-1.146,-0.068,271,38.7,46,-5.9,25,-17.2,0.0591753899,-0.594622639,-0.0439466536,-0.800592059
577,1446789,1256290,1.071,-0.479,-0.273,327.2,88.6,129,-3.5,22.1,-21.9,0.142155217,-0.57145909,-0.105746635,-0.801263466
578,1449097,1256290,1.071,-0.479,-0.273,327.2,88.6,129,-3.5,22.1,-21.9,0.142155217,-0.57145909,-0.105746635,-0.801263466
579,1451222,1256300,1.071,-0.479,-0.273,327.2,88.6,129,-3.5,22.1,-21.9,0.142155217,-0.57145909,-0.105746635,-0.801263466
580,1455397,1256300,1.059,-0.389,-0.312,326,90.7,140.1,-3.5,22.1,-21.9,0.155491806,-0.566820276,-0.113193152,-0.801049837
581,1457575,1256300,1.059,-0.362,-0.382,312.1,90.6,151.2,-2.6,20.8,-22.6,0.168950468,-0.562181463,-0.119937742,-0.800622578
582,1459834,1256300,1.051,-0.351,-0.39,301.1,89.6,157.4,-2.6,20.8,-22.6,0.175634022,-0.559892575,-0.122928556,-0.800317392
583,1461828,1256310,1.051,-0.351,-0.39,301.1,89.6,157.4,-2.6,20.8,-22.6,0.175634022,-0.559892575,-0.122928556,-0.800317392
584,1463852,1256310,1.051,-0.351,-0.39,301.1,89.6,157.4,-2.6,20.8,-22.6,0.175634022,-0.559892575,-0.122928556,-0.800317392
585,1468326,1256310,1.051,-0.351,-0.39,301.1,89.6,157.4,-2.6,20.8,-22.6,0.175634022,-0.559892575,-0.122928556,-0.800317392
586,1468602,1256310,1.051,-0.351,-0.39,301.1,89.6,157.4,-2.6,20.8,-22.6,0.175634022,-0.559892575,-0.122928556,-0.800317392
587,1471554,1256320,1.099,-0.226,-0.289,272.2,75,193.1,-1.3,20.2,-23.5,0.209143345,-0.549424726,-0.134586627,-0.797631764
588,1474887,1256320,1.099,-0.226,-0.289,272.2,75,193.1,-1.3,20.2,-23.5,0.209143345,-0.549424726,-0.134586627,-0.797631764
589,1477006,1256320,1.099,-0.226,-0.289,272.2,75,193.1,-1.3,20.2,-23.5,0.209143345,-0.549424726,-0.134586627,-0.797631764
590,1479366,1256320,1.099,-0.226,-0.289,272.2,75,193.1,-1.3,20.2,-23.5,0.209143345,-0.549424726,-0.134586627,-0.797631764
591,1481370,1256330,1.099,-0.226,-0.289,272.2,75,193.1,-1.3,20.2,-23.5,0.209143345,-0.549424726,-0.134586627,-0.797631764
592,1485489,1256330,1.099,-0.226,-0.289,272.2,75,193.1,-1.3,20.2,-23.5,0.209143345,-0.549424726,-0.134586627,-0.797631764
593,1486912,1256330,1.099,-0.226,-0.289,272.2,75,193.1,-1.3,20.2,-23.5,0.209143345,-0.549424726,-0.134586627,-0.797631764
594,1489377,1256330,1.099,-0.226,-0.289,272.2,75,193.1,-1.3,20.2,-23.5,0.209143345,-0.549424726,-0.134586627,-0.797631764
595,1491191,1256340,1.099,-0.226,-0.289,272.2,75,193.1,-1.3,20.2,-23.5,0.209143345,-0.549424726,-0.134586627,-0.797631764
596,1494497,1256340,1.534,0.535,-0.46,231.4,27.3,301.1,-0.8,18.7,-24.3,0.269234291,-0.538407544,-0.144108402,-0.785363323
597,1496773,1256340,1.534,0.535,-0.46,231.4,27.3,301.1,-0.8,18.7,-24.3,0.269234291,-0.538407544,-0.144108402,-0.785363323
598,1499000,1256340,1.534,0.535,-0.46,231.4,27.3,301.1,-0.8,18.7,-24.3,0.269234291,-0.538407544,-0.144108402,-0.785363323
599,1502493,1256350,1.534,0.535,-0.46,231.4,27.3,301.1,-0.8,18.7,-24.3,0.269234291,-0.538407544,-0.144108402,-0.785363323
600,1504541,1256350,1.534,0.535,-0.46,231.4,27.3,301.1,-0.8,18.7,-24.3,0.269234291,-0.538407544,-0.144108402,-0.785363323
601,1506629,1256350,1.534,0.535,-0.46,231.4,27.3,301.1,-0.8,18.7,-24.3,0.269234291,-0.538407544,-0.144108402,-0.785363323
602,1509893,1256350,1.534,0.535,-0.46,231.4,27.3,301.1,-0.8,18.7,-24.3,0.269234291,-0.538407544,-0.144108402,-0.785363323
603,1511849,1256360,1.534,0.535,-0.46,231.4,27.3,301.1,-0.8,18.7,-24.3,0.269234291,-0.538407544,-0.144108402,-0.785363323
604,1514153,1256360,1.534,0.535,-0.46,231.4,27.3,301.1,-0.8,18.7,-24.3,0.269234291,-0.538407544,-0.144108402,-0.785363323
605,1516569,1256360,1.534,0.535,-0.46,231.4,27.3,301.1,-0.8,18.7,-24.3,0.269234291,-0.538407544,-0.144108402,-0.785363323
606,1519470,1256360,1.534,0.535,-0.46,231.4,27.3,301.1,-0.8,18.7,-24.3,0.269234291,-0.538407544,-0.144108402,-0.785363323
607,1521536,1256370,1.534,0.535,-0.46,231.4,27.3,301.1,-0.8,18.7,-24.3,0.269234291,-0.538407544,-0.144108402,-0.785363323
608,1524735,1256370,1.534,0.535,-0.46,231.4,27.3,301.1,-0.8,18.7,-24.3,0.269234291,-0.538407544,-0.144108402,-0.785363323
609,1526221,1256370,1.46,0.922,-0.596,121,47.6,409.7,2.7,15,-26.3,0.374065371,-0.527115696,-0.13739433,-0.750541704
610,1530110,1256370,1.359,0.904,-0.574,94.2,50.2,409.8,3.6,13.8,-26.3,0.382000183,-0.526718955,-0.133793146,-0.747459334
611,1531606,1256380,1.359,0.904,-0.574,94.2,50.2,409.8,3.6,13.8,-26.3,0.382000183,-0.526718955,-0.133793146,-0.747459334
612,1535038,1256380,1.359,0.904,-0.574,94.2,50.2,409.8,3.6,13.8,-26.3,0.382000183,-0.526718955,-0.133793146,-0.747459334
613,1537429,1256380,1.539,0.757,-0.444,21.6,44.1,409.1,3.6,13.8,-26.3,0.403881954,-0.526657918,-0.120670186,-0.738181707
614,1539385,1256380,1.539,0.757,-0.444,21.6,44.1,409.1,3.6,13.8,-26.3,0.403881954,-0.526657918,-0.120670186,-0.738181707
615,1541588,1256390,1.238,0.607,-0.337,-28.9,34,385.3,4.6,13.9,-27,0.41605884,-0.527939695,-0.110293893,-0.732108524
616,1545353,1256390,1.238,0.607,-0.337,-28.9,34,385.3,4.6,13.9,-27,0.41605884,-0.527939695,-0.110293893,-0.732108524
617,1547861,1256390,1.238,0.607,-0.337,-28.9,34,385.3,4.6,13.9,-27,0.41605884,-0.527939695,-0.110293893,-0.732108524
618,1549944,1256390,1.238,0.607,-0.337,-28.9,34,385.3,4.6,13.9,-27,0.41605884,-0.527939695,-0.110293893,-0.732108524
619,1551565,1256400,0.818,0.354,0.133,-6.6,21.2,365,5.3,14,-26,0.433118686,-0.529618213,-0.0957976012,-0.722952971
620,1553908,1256400,0.904,0.248,0.245,13.3,7.2,367.6,5.3,14,-26,0.439069796,-0.530137028,-0.0916776025,-0.719534898
621,1556331,1256400,0.794,0.008,0.255,47.1,-24,370.1,5.3,14,-26,0.451490829,-0.531296731,-0.0846888638,-0.711783197
622,1559879,1256400,0.794,0.008,0.255,47.1,-24,370.1,5.3,14,-26,0.451490829,-0.531296731,-0.0846888638,-0.711783197
623,1561407,1256410,0.794,0.008,0.255,47.1,-24,370.1,5.3,14,-26,0.451490829,-0.531296731,-0.0846888638,-0.711783197
624,1563745,1256410,0.794,0.008,0.255,47.1,-24,370.1,5.3,14,-26,0.451490829,-0.531296731,-0.0846888638,-0.711783197
625,1566625,1256410,0.794,0.008,0.255,47.1,-24,370.1,5.3,14,-26,0.451490829,-0.531296731,-0.0846888638,-0.711783197
626,1568761,1256410,0.794,0.008,0.255,47.1,-24,370.1,5.3,14,-26,0.451490829,-0.531296731,-0.0846888638,-0.711783197
627,1572834,1256420,0.794,0.008,0.255,47.1,-24,370.1,5.3,14,-26,0.451490829,-0.531296731,-0.0846888638,-0.711783197
628,1575393,1256420,0.794,0.008,0.255,47.1,-24,370.1,5.3,14,-26,0.451490829,-0.531296731,-0.0846888638,-0.711783197
629,1577605,1256420,0.794,0.008,0.255,47.1,-24,370.1,5.3,14,-26,0.451490829,-0.531296731,-0.0846888638,-0.711783197
630,1579970,1256420,0.794,0.008,0.255,47.1,-24,370.1,5.3,14,-26,0.451490829,-0.531296731,-0.0846888638,-0.711783197
631,1581840,1256430,0.794,0.008,0.255,47.1,-24,370.1,5.3,14,-26,0.451490829,-0.531296731,-0.0846888638,-0.711783197
632,1584108,1256430,0.794,0.008,0.255,47.1,-24,370.1,5.3,14,-26,0.451490829,-0.531296731,-0.0846888638,-0.711783197
633,1586587,1256430,0.794,0.008,0.255,47.1,-24,370.1,5.3,14,-26,0.451490829,-0.531296731,-0.0846888638,-0.711783197
634,1588770,1256430,0.794,0.008,0.255,47.1,-24,370.1,5.3,14,-26,0.451490829,-0.531296731,-0.0846888638,-0.711783197
635,1591189,1256440,0.794,0.008,0.255,47.1,-24,370.1,5.3,14,-26,0.451490829,-0.531296731,-0.0846888638,-0.711783197
636,1595556,1256440,0.794,0.008,0.255,47.1,-24,370.1,5.3,14,-26,0.451490829,-0.531296731,-0.0846888638,-0.711783197
637,1597889,1256440,0.794,0.008,0.255,47.1,-24,370.1,5.3,14,-26,0.451490829,-0.531296731,-0.0846888638,-0.711783197
638,1600067,1256440,0.794,0.008,0.255,47.1,-24,370.1,5.3,14,-26,0.451490829,-0.531296731,-0.0846888638,-0.711783197
639,1602388,1256450,0.794,0.008,0.255,47.1,-24,370.1,5.3,14,-26,0.451490829,-0.531296731,-0.0846888638,-0.711783197
640,1604323,1256450,0.794,0.008,0.255,47.1,-24,370.1,5.3,14,-26,0.451490829,-0.531296731,-0.0846888638,-0.711783197
641,1606595,1256450,0.794,0.008,0.255,47.1,-24,370.1,5.3,14,-26,0.451490829,-0.531296731,-0.0846888638,-0.711783197
642,1609048,1256450,-1.373,7.969,-4.381,1356.4,192,-306.5,7.7,8.8,-26.9,0.554765465,-0.520645772,-0.0689413129,-0.645252846
643,1611295,1256460,-1.373,7.969,-4.381,1356.4,192,-306.5,7.7,8.8,-26.9,0.554765465,-0.520645772,-0.0689413129,-0.645252846
644,1614898,1256460,-1.373,7.969,-4.381,1356.4,192,-306.5,7.7,8.8,-26.9,0.554765465,-0.520645772,-0.0689413129,-0.645252846
645,1617015,1256460,-1.373,7.969,-4.381,1356.4,192,-306.5,7.7,8.8,-26.9,0.554765465,-0.520645772,-0.0689413129,-0.645252846
646,1619332,1256460,-1.373,7.969,-4.381,1356.4,192,-306.5,7.7,8.8,-26.9,0.554765465,-0.520645772,-0.0689413129,-0.645252846
647,1621524,1256470,-1.373,7.969,-4.381,1356.4,192,-306.5,7.7,8.8,-26.9,0.554765465,-0.520645772,-0.0689413129,-0.645252846
648,1625490,1256470,-1.373,7.969,-4.381,1356.4,192,-306.5,7.7,8.8,-26.9,0.554765465,-0.520645772,-0.0689413129,-0.645252846
649,1627724,1256470,-1.373,7.969,-4.381,1356.4,192,-306.5,7.7,8.8,-26.9,0.554765465,-0.520645772,-0.0689413129,-0.645252846
650,1629944,1256470,-1.373,7.969,-4.381,1356.4,192,-306.5,7.7,8.8,-26.9,0.554765465,-0.520645772,-0.0689413129,-0.645252846
651,1632057,1256480,-1.373,7.969,-4.381,1356.4,192,-306.5,7.7,8.8,-26.9,0.554765465,-0.520645772,-0.0689413129,-0.645252846
652,1634286,1256480,-1.373,7.969,-4.381,1356.4,192,-306.5,7.7,8.8,-26.9,0.554765465,-0.520645772,-0.0689413129,-0.645252846
653,1636444,1256480,-1.373,7.969,-4.381,1356.4,192,-306.5,7.7,8.8,-26.9,0.554765465,-0.520645772,-0.0689413129,-0.645252846
654,1639406,1256480,-1.373,7.969,-4.381,1356.4,192,-306.5,7.7,8.8,-26.9,0.554765465,-0.520645772,-0.0689413129,-0.645252846
655,1641828,1256490,-1.373,7.969,-4.381,1356.4,192,-306.5,7.7,8.8,-26.9,0.554765465,-0.520645772,-0.0689413129,-0.645252846
656,1643973,1256490,-1.373,7.969,-4.381,1356.4,192,-306.5,7.7,8.8,-26.9,0.554765465,-0.520645772,-0.0689413129,-0.645252846
657,1647912,1256490,-1.373,7.969,-4.381,1356.4,192,-306.5,7.7,8.8,-26.9,0.554765465,-0.520645772,-0.0689413129,-0.645252846
658,1650201,1256490,-1.373,7.969,-4.381,1356.4,192,-306.5,7.7,8.8,-26.9,0.554765465,-0.520645772,-0.0689413129,-0.645252846
659,1652462,1256500,3.814,-5.79,-0.459,-892.7,-275.2,-203.5,8.2,14.4,-25.9,0.437391278,-0.529557176,-0.0497146519,-0.725089267
660,1654316,1256500,3.814,-5.79,-0.459,-892.7,-275.2,-203.5,8.2,14.4,-25.9,0.437391278,-0.529557176,-0.0497146519,-0.725089267
661,1656574,1256500,3.814,-5.79,-0.459,-892.7,-275.2,-203.5,8.2,14.4,-25.9,0.437391278,-0.529557176,-0.0497146519,-0.725089267
662,1658970,1256500,3.814,-5.79,-0.459,-892.7,-275.2,-203.5,8.2,14.4,-25.9,0.437391278,-0.529557176,-0.0497146519,-0.725089267
663,1661168,1256510,3.814,-5.79,-0.459,-892.7,-275.2,-203.5,8.2,14.4,-25.9,0.437391278,-0.529557176,-0.0497146519,-0.725089267
664,1664828,1256510,3.814,-5.79,-0.459,-892.7,-275.2,-203.5,8.2,14.4,-25.9,0.437391278,-0.529557176,-0.0497146519,-0.725089267
665,1666910,1256510,3.814,-5.79,-0.459,-892.7,-275.2,-203.5,8.2,14.4,-25.9,0.437391278,-0.529557176,-0.0497146519,-0.725089267
666,1669150,1256510,3.814,-5.79,-0.459,-892.7,-275.2,-203.5,8.2,14.4,-25.9,0.437391278,-0.529557176,-0.0497146519,-0.725089267
667,1673072,1256520,3.814,-5.79,-0.459,-892.7,-275.2,-203.5,8.2,14.4,-25.9,0.437391278,-0.529557176,-0.0497146519,-0.725089267
668,1675429,1256520,3.814,-5.79,-0.459,-892.7,-275.2,-203.5,8.2,14.4,-25.9,0.437391278,-0.529557176,-0.0497146519,-0.725089267
669,1677594,1256520,3.814,-5.79,-0.459,-892.7,-275.2,-203.5,8.2,14.4,-25.9,0.437391278,-0.529557176,-0.0497146519,-0.725089267
670,1679884,1256520,3.814,-5.79,-0.459,-892.7,-275.2,-203.5,8.2,14.4,-25.9,0.437391278,-0.529557176,-0.0497146519,-0.725089267
671,1681982,1256530,3.814,-5.79,-0.459,-892.7,-275.2,-203.5,8.2,14.4,-25.9,0.437391278,-0.529557176,-0.0497146519,-0.725089267
672,1684316,1256530,3.814,-5.79,-0.459,-892.7,-275.2,-203.5,8.2,14.4,-25.9,0.437391278,-0.529557176,-0.0497146519,-0.725089267
673,1686413,1256530,3.814,-5.79,-0.459,-892.7,-275.2,-203.5,8.2,14.4,-25.9,0.437391278,-0.529557176,-0.0497146519,-0.725089267
674,1689388,1256530,3.814,-5.79,-0.459,-892.7,-275.2,-203.5,8.2,14.4,-25.9,0.437391278,-0.529557176,-0.0497146519,-0.725089267
675,1691660,1256540,3.814,-5.79,-0.459,-892.7,-275.2,-203.5,8.2,14.4,-25.9,0.437391278,-0.529557176,-0.0497146519,-0.725089267
676,1694806,1256540,3.814,-5.79,-0.459,-892.7,-275.2,-203.5,8.2,14.4,-25.9,0.437391278,-0.529557176,-0.0497146519,-0.725089267
677,1696151,1256540,3.814,-5.79,-0.459,-892.7,-275.2,-203.5,8.2,14.4,-25.9,0.437391278,-0.529557176,-0.0497146519,-0.725089267
678,1699151,1256540,3.814,-5.79,-0.459,-892.7,-275.2,-203.5,8.2,14.4,-25.9,0.437391278,-0.529557176,-0.0497146519,-0.725089267
679,1702360,1256550,3.814,-5.79,-0.459,-892.7,-275.2,-203.5,8.2,14.4,-25.9,0.437391278,-0.529557176,-0.0497146519,-0.725089267
680,1704527,1256550,3.814,-5.79,-0.459,-892.7,-275.2,-203.5,8.2,14.4,-25.9,0.437391278,-0.529557176,-0.0497146519,-0.725089267
681,1706686,1256550,3.814,-5.79,-0.459,-892.7,-275.2,-203.5,8.2,14.4,-25.9,0.437391278,-0.529557176,-0.0497146519,-0.725089267
682,1709843,1256550,3.814,-5.79,-0.459,-892.7,-275.2,-203.5,8.2,14.4,-25.9,0.437391278,-0.529557176,-0.0497146519,-0.725089267
683,1711230,1256560,3.814,-5.79,-0.459,-892.7,-275.2,-203.5,8.2,14.4,-25.9,0.437391278,-0.529557176,-0.0497146519,-0.725089267
684,1714160,1256560,3.814,-5.79,-0.459,-892.7,-275.2,-203.5,8.2,14.4,-25.9,0.437391278,-0.529557176,-0.0497146519,-0.725089267
685,1717211,1256560,3.814,-5.79,-0.459,-892.7,-275.2,-203.5,8.2,14.4,-25.9,0.437391278,-0.529557176,-0.0497146519,-0.725089267
686,1718681,1256560,3.814,-5.79,-0.459,-892.7,-275.2,-203.5,8.2,14.4,-25.9,0.437391278,-0.529557176,-0.0497146519,-0.725089267
687,1721680,1256570,3.814,-5.79,-0.459,-892.7,-275.2,-203.5,8.2,14.4,-25.9,0.437391278,-0.529557176,-0.0497146519,-0.725089267
688,1724787,1256570,3.814,-5.79,-0.459,-892.7,-275.2,-203.5,8.2,14.4,-25.9,0.437391278,-0.529557176,-0.0497146519,-0.725089267
689,1726209,1256570,3.814,-5.79,-0.459,-892.7,-275.2,-203.5,8.2,14.4,-25.9,0.437391278,-0.529557176,-0.0497146519,-0.725089267
690,1729189,1256570,3.814,-5.79,-0.459,-892.7,-275.2,-203.5,8.2,14.4,-25.9,0.437391278,-0.529557176,-0.0497146519,-0.725089267
691,1732292,1256580,3.814,-5.79,-0.459,-892.7,-275.2,-203.5,8.2,14.4,-25.9,0.437391278,-0.529557176,-0.0497146519,-0.725089267
692,1733729,1256580,3.814,-5.79,-0.459,-892.7,-275.2,-203.5,8.2,14.4,-25.9,0.437391278,-0.529557176,-0.0497146519,-0.725089267
693,1736702,1256580,3.814,-5.79,-0.459,-892.7,-275.2,-203.5,8.2,14.4,-25.9,0.437391278,-0.529557176,-0.0497146519,-0.725089267
694,1739796,1256580,3.814,-5.79,-0.459,-892.7,-275.2,-203.5,8.2,14.4,-25.9,0.437391278,-0.529557176,-0.0497146519,-0.725089267
695,1741239,1256590,3.814,-5.79,-0.459,-892.7,-275.2,-203.5,8.2,14.4,-25.9,0.437391278,-0.529557176,-0.0497146519,-0.725089267
696,1744174,1256590,3.814,-5.79,-0.459,-892.7,-275.2,-203.5,8.2,14.4,-25.9,0.437391278,-0.529557176,-0.0497146519,-0.725089267
697,1747313,1256590,3.814,-5.79,-0.459,-892.7,-275.2,-203.5,8.2,14.4,-25.9,0.437391278,-0.529557176,-0.0497146519,-0.725089267
698,1748729,1256590,3.814,-5.79,-0.459,-892.7,-275.2,-203.5,8.2,14.4,-25.9,0.437391278,-0.529557176,-0.0497146519,-0.725089267
699,1751673,1256600,3.814,-5.79,-0.459,-892.7,-275.2,-203.5,8.2,14.4,-25.9,0.437391278,-0.529557176,-0.0497146519,-0.725089267
700,1753538,1256600,3.814,-5.79,-0.459,-892.7,-275.2,-203.5,8.2,14.4,-25.9,0.437391278,-0.529557176,-0.0497146519,-0.725089267
701,1756486,1256600,3.814,-5.79,-0.459,-892.7,-275.2,-203.5,8.2,14.4,-25.9,0.437391278,-0.529557176,-0.0497146519,-0.725089267
702,1759580,1256600,3.814,-5.79,-0.459,-892.7,-275.2,-203.5,8.2,14.4,-25.9,0.437391278,-0.529557176,-0.0497146519,-0.725089267
703,1762330,1256610,3.814,-5.79,-0.459,-892.7,-275.2,-203.5,8.2,14.4,-25.9,0.437391278,-0.529557176,-0.0497146519,-0.725089267
704,1763725,1256610,3.814,-5.79,-0.459,-892.7,-275.2,-203.5,8.2,14.4,-25.9,0.437391278,-0.529557176,-0.0497146519,-0.725089267
705,1767125,1256610,3.814,-5.79,-0.459,-892.7,-275.2,-203.5,8.2,14.4,-25.9,0.437391278,-0.529557176,-0.0497146519,-0.725089267
706,1768548,1256610,3.814,-5.79,-0.459,-892.7,-275.2,-203.5,8.2,14.4,-25.9,0.437391278,-0.529557176,-0.0497146519,-0.725089267
707,1771494,1256620,3.814,-5.79,-0.459,-892.7,-275.2,-203.5,8.2,14.4,-25.9,0.437391278,-0.529557176,-0.0497146519,-0.725089267
708,1774609,1256620,3.814,-5.79,-0.459,-892.7,-275.2,-203.5,8.2,14.4,-25.9,0.437391278,-0.529557176,-0.0497146519,-0.725089267
709,1777390,1256620,3.814,-5.79,-0.459,-892.7,-275.2,-203.5,8.2,14.4,-25.9,0.437391278,-0.529557176,-0.0497146519,-0.725089267
710,1778786,1256620,3.814,-5.79,-0.459,-892.7,-275.2,-203.5,8.2,14.4,-25.9,0.437391278,-0.529557176,-0.0497146519,-0.725089267
711,1781751,1256630,3.814,-5.79,-0.459,-892.7,-275.2,-203.5,8.2,14.4,-25.9,0.437391278,-0.529557176,-0.0497146519,-0.725089267
712,1784868,1256630,3.814,-5.79,-0.459,-892.7,-275.2,-203.5,8.2,14.4,-25.9,0.437391278,-0.529557176,-0.0497146519,-0.725089267
713,1786243,1256630,3.814,-5.79,-0.459,-892.7,-275.2,-203.5,8.2,14.4,-25.9,0.437391278,-0.529557176,-0.0497146519,-0.725089267
714,1790123,1256630,3.814,-5.79,-0.459,-892.7,-275.2,-203.5,8.2,14.4,-25.9,0.437391278,-0.529557176,-0.0497146519,-0.725089267
715,1791501,1256640,3.814,-5.79,-0.459,-892.7,-275.2,-203.5,8.2,14.4,-25.9,0.437391278,-0.529557176,-0.0497146519,-0.725089267
716,1794639,1256640,3.814,-5.79,-0.459,-892.7,-275.2,-203.5,8.2,14.4,-25.9,0.437391278,-0.529557176,-0.0497146519,-0.725089267
717,1796266,1256640,3.814,-5.79,-0.459,-892.7,-275.2,-203.5,8.2,14.4,-25.9,0.437391278,-0.529557176,-0.0497146519,-0.725089267
718,1799248,1256640,3.814,-5.79,-0.459,-892.7,-275.2,-203.5,8.2,14.4,-25.9,0.437391278,-0.529557176,-0.0497146519,-0.725089267
719,1802604,1256650,3.814,-5.79,-0.459,-892.7,-275.2,-203.5,8.2,14.4,-25.9,0.437391278,-0.529557176,-0.0497146519,-0.725089267
720,1804646,1256650,3.814,-5.79,-0.459,-892.7,-275.2,-203.5,8.2,14.4,-25.9,0.437391278,-0.529557176,-0.0497146519,-0.725089267
721,1806230,1256650,3.814,-5.79,-0.459,-892.7,-275.2,-203.5,8.2,14.4,-25.9,0.437391278,-0.529557176,-0.0497146519,-0.725089267
722,1809491,1256650,3.814,-5.79,-0.459,-892.7,-275.2,-203.5,8.2,14.4,-25.9,0.437391278,-0.529557176,-0.0497146519,-0.725089267
723,1811703,1256660,3.814,-5.79,-0.459,-892.7,-275.2,-203.5,8.2,14.4,-25.9,0.437391278,-0.529557176,-0.0497146519,-0.725089267
724,1815038,1256660,3.814,-5.79,-0.459,-892.7,-275.2,-203.5,8.2,14.4,-25.9,0.437391278,-0.529557176,-0.0497146519,-0.725089267
725,1816549,1256660,3.814,-5.79,-0.459,-892.7,-275.2,-203.5,8.2,14.4,-25.9,0.437391278,-0.529557176,-0.0497146519,-0.725089267
726,1819946,1256660,3.814,-5.79,-0.459,-892.7,-275.2,-203.5,8.2,14.4,-25.9,0.437391278,-0.529557176,-0.0497146519,-0.725089267
727,1821973,1256670,3.814,-5.79,-0.459,-892.7,-275.2,-203.5,8.2,14.4,-25.9,0.437391278,-0.529557176,-0.0497146519,-0.725089267
728,1823888,1256670,3.814,-5.79,-0.459,-892.7,-275.2,-203.5,8.2,14.4,-25.9,0.437391278,-0.529557176,-0.0497146519,-0.725089267
729,1827443,1256670,3.814,-5.79,-0.459,-892.7,-275.2,-203.5,8.2,14.4,-25.9,0.437391278,-0.529557176,-0.0497146519,-0.725089267
730,1828925,1256670,3.814,-5.79,-0.459,-892.7,-275.2,-203.5,8.2,14.4,-25.9,0.437391278,-0.529557176,-0.0497146519,-0.725089267
731,1831392,1256680,3.814,-5.79,-0.459,-892.7,-275.2,-203.5,8.2,14.4,-25.9,0.437391278,-0.529557176,-0.0497146519,-0.725089267
732,1833683,1256680,3.814,-5.79,-0.459,-892.7,-275.2,-203.5,8.2,14.4,-25.9,0.437391278,-0.529557176,-0.0497146519,-0.725089267
733,1837729,1256680,3.814,-5.79,-0.459,-892.7,-275.2,-203.5,8.2,14.4,-25.9,0.437391278,-0.529557176,-0.0497146519,-0.725089267
734,1839740,1256680,3.814,-5.79,-0.459,-892.7,-275.2,-203.5,8.2,14.4,-25.9,0.437391278,-0.529557176,-0.0497146519,-0.725089267
735,1841126,1256690,3.814,-5.79,-0.459,-892.7,-275.2,-203.5,8.2,14.4,-25.9,0.437391278,-0.529557176,-0.0497146519,-0.725089267
736,1844195,1256690,3.814,-5.79,-0.459,-892.7,-275.2,-203.5,8.2,14.4,-25.9,0.437391278,-0.529557176,-0.0497146519,-0.725089267
737,1847199,1256690,3.814,-5.79,-0.459,-892.7,-275.2,-203.5,8.2,14.4,-25.9,0.437391278,-0.529557176,-0.0497146519,-0.725089267
738,1848700,1256690,3.814,-5.79,-0.459,-892.7,-275.2,-203.5,8.2,14.4,-25.9,0.437391278,-0.529557176,-0.0497146519,-0.725089267
739,1851772,1256700,3.814,-5.79,-0.459,-892.7,-275.2,-203.5,8.2,14.4,-25.9,0.437391278,-0.529557176,-0.0497146519,-0.725089267
740,1854473,1256700,3.814,-5.79,-0.459,-892.7,-275.2,-203.5,8.2,14.4,-25.9,0.437391278,-0.529557176,-0.0497146519,-0.725089267
741,1856453,1256700,3.814,-5.79,-0.459,-892.7,-275.2,-203.5,8.2,14.4,-25.9,0.437391278,-0.529557176,-0.0497146519,-0.725089267
742,1859641,1256700,3.814,-5.79,-0.459,-892.7,-275.2,-203.5,8.2,14.4,-25.9,0.437391278,-0.529557176,-0.0497146519,-0.725089267
743,1862201,1256710,3.814,-5.79,-0.459,-892.7,-275.2,-203.5,8.2,14.4,-25.9,0.437391278,-0.529557176,-0.0497146519,-0.725089267
744,1863958,1256710,3.814,-5.79,-0.459,-892.7,-275.2,-203.5,8.2,14.4,-25.9,0.437391278,-0.529557176,-0.0497146519,-0.725089267
745,1866148,1256710,3.814,-5.79,-0.459,-892.7,-275.2,-203.5,8.2,14.4,-25.9,0.437391278,-0.529557176,-0.0497146519,-0.725089267
746,1868979,1256710,3.814,-5.79,-0.459,-892.7,-275.2,-203.5,8.2,14.4,-25.9,0.437391278,-0.529557176,-0.0497146519,-0.725089267
747,1872175,1256720,3.814,-5.79,-0.459,-892.7,-275.2,-203.5,8.2,14.4,-25.9,0.437391278,-0.529557176,-0.0497146519,-0.725089267
748,1873786,1256720,0.61,-0.222,0.357,-60.5,47.6,7.4,9.7,15.7,-25,0.481521043,-0.553758354,0.0203863643,-0.678975799
749,1877447,1256720,0.544,-0.186,0.327,-57.5,46.2,3.1,9.9,15.9,-24.7,0.480849635,-0.553666799,0.0217902158,-0.679464095
750,1879752,1256720,0.52,-0.17,0.304,-54.5,43.5,-2.7,9.9,15.9,-24.7,0.48014771,-0.553605762,0.0230109561,-0.680013428
751,1881870,1256730,0.501,-0.131,0.292,-48.7,33.8,-20,9.9,15.9,-24.7,0.478438673,-0.553575243,0.0249031037,-0.681142613
752,1884042,1256730,0.501,-0.131,0.292,-48.7,33.8,-20,9.9,15.9,-24.7,0.478438673,-0.553575243,0.0249031037,-0.681142613
753,1888157,1256730,0.454,-0.115,0.25,-46.8,26.8,-32,9.9,15.9,-24.7,0.477401044,-0.553697317,0.0254829554,-0.681783502
754,1890341,1256730,0.489,-0.068,0.249,-45.7,18.8,-46.6,9.9,15.9,-24.7,0.476119266,-0.553910947,0.025757622,-0.682485427
755,1892776,1256740,0.489,-0.068,0.249,-45.7,18.8,-46.6,9.9,15.9,-24.7,0.476119266,-0.553910947,0.025757622,-0.682485427
756,1894461,1256740,0.517,-0.022,0.245,-43.5,-0.5,-80,9.9,15.9,-24.7,0.472914823,-0.554765465,0.0254829554,-0.684011353
757,1896884,1256740,0.517,-0.022,0.245,-43.5,-0.5,-80,9.9,15.9,-24.7,0.472914823,-0.554765465,0.0254829554,-0.684011353
758,1899076,1256740,0.517,-0.022,0.245,-43.5,-0.5,-80,9.9,15.9,-24.7,0.472914823,-0.554765465,0.0254829554,-0.684011353
759,1901601,1256750,0.517,-0.022,0.245,-43.5,-0.5,-80,9.9,15.9,-24.7,0.472914823,-0.554765465,0.0254829554,-0.684011353
760,1903849,1256750,0.517,-0.022,0.245,-43.5,-0.5,-80,9.9,15.9,-24.7,0.472914823,-0.554765465,0.0254829554,-0.684011353
761,1906156,1256750,0.517,-0.022,0.245,-43.5,-0.5,-80,9.9,15.9,-24.7,0.472914823,-0.554765465,0.0254829554,-0.684011353
762,1910656,1256750,0.622,0.05,0.227,-41.8,-60.5,-165.2,8.2,17.8,-24.2,0.457991272,-0.561113315,0.0173345134,-0.689230018
763,1911071,1256760,0.669,0.017,0.206,-41.4,-69.9,-180.1,8.2,17.8,-24.2,0.454786828,-0.562639241,0.0150456252,-0.690145573
764,1913695,1256760,0.669,0.017,0.206,-41.4,-69.9,-180.1,8.2,17.8,-24.2,0.454786828,-0.562639241,0.0150456252,-0.690145573
765,1918135,1256760,0.669,0.017,0.206,-41.4,-69.9,-180.1,8.2,17.8,-24.2,0.454786828,-0.562639241,0.0150456252,-0.690145573
766,1920315,1256760,0.669,0.017,0.206,-41.4,-69.9,-180.1,8.2,17.8,-24.2,0.454786828,-0.562639241,0.0150456252,-0.690145573
767,1922558,1256770,0.669,0.017,0.206,-41.4,-69.9,-180.1,8.2,17.8,-24.2,0.454786828,-0.562639241,0.0150456252,-0.690145573
768,1924740,1256770,0.962,0.063,0.174,-65.7,-98.2,-244.5,7.3,17.9,-24.2,0.4385815,-0.570421461,0.00378429518,-0.694418165
769,1926778,1256770,1.02,0.039,0.145,-72.9,-100.8,-251.6,7.3,17.9,-24.2,0.433851131,-0.572649312,0.000793481246,-0.695547349
770,1930086,1256770,1.02,0.039,0.145,-72.9,-100.8,-251.6,7.3,17.9,-24.2,0.433851131,-0.572649312,0.000793481246,-0.695547349
771,1932149,1256780,1.02,0.039,0.145,-72.9,-100.8,-251.6,7.3,17.9,-24.2,0.433851131,-0.572649312,0.000793481246,-0.695547349
772,1935139,1256780,1.02,0.039,0.145,-72.9,-100.8,-251.6,7.3,17.9,-24.2,0.433851131,-0.572649312,0.000793481246,-0.695547349
773,1936549,1256780,1.02,0.039,0.145,-72.9,-100.8,-251.6,7.3,17.9,-24.2,0.433851131,-0.572649312,0.000793481246,-0.695547349
774,1939641,1256780,1.379,-0.022,0.088,-118.1,-91.6,-254.4,6.9,17.9,-23.9,0.407940916,-0.584459975,-0.0124515519,-0.701254311
775,1941710,1256790,1.41,-0.034,0.079,-129.8,-86.8,-249,6.9,17.9,-23.9,0.402447584,-0.586870937,-0.0144047365,-0.702414014
776,1943904,1256790,1.41,-0.034,0.079,-129.8,-86.8,-249,6.9,17.9,-23.9,0.402447584,-0.586870937,-0.0144047365,-0.702414014
777,1947219,1256790,1.41,-0.034,0.079,-129.8,-86.8,-249,6.9,17.9,-23.9,0.402447584,-0.586870937,-0.0144047365,-0.702414014
778,1950217,1256790,1.41,-0.034,0.079,-129.8,-86.8,-249,6.9,17.9,-23.9,0.402447584,-0.586870937,-0.0144047365,-0.702414014
779,1951545,1256800,1.41,-0.034,0.079,-129.8,-86.8,-249,6.9,17.9,-23.9,0.402447584,-0.586870937,-0.0144047365,-0.702414014
780,1953720,1256800,1.347,-0.193,0.006,-199.4,-48.6,-204,4.3,20,-23.8,0.374065371,-0.598620563,-0.0181585131,-0.708059938
781,1957122,1256800,1.319,-0.256,-0.023,-214.6,-40.1,-192.8,4.3,20,-23.8,0.368266854,-0.600909452,-0.017670217,-0.709189123
782,1958539,1256800,1.319,-0.256,-0.023,-214.6,-40.1,-192.8,4.3,20,-23.8,0.368266854,-0.600909452,-0.017670217,-0.709189123
783,1961385,1256810,1.319,-0.256,-0.023,-214.6,-40.1,-192.8,4.3,20,-23.8,0.368266854,-0.600909452,-0.017670217,-0.709189123
784,1965355,1256810,1.319,-0.256,-0.023,-214.6,-40.1,-192.8,4.3,20,-23.8,0.368266854,-0.600909452,-0.017670217,-0.709189123
785,1967079,1256810,1.319,-0.256,-0.023,-214.6,-40.1,-192.8,4.3,20,-23.8,0.368266854,-0.600909452,-0.017670217,-0.709189123
786,1969645,1256810,1.319,-0.256,-0.023,-214.6,-40.1,-192.8,4.3,20,-23.8,0.368266854,-0.600909452,-0.017670217,-0.709189123
787,1971626,1256820,1.008,-0.704,-0.13,-266.3,40.1,-129.9,4.2,22.3,-22.3,0.339518418,-0.610309153,-0.0077211829,-0.715628529
788,1974825,1256820,1.008,-0.704,-0.13,-261.2,57.2,-123.9,4.2,22.3,-22.3,0.334116642,-0.611316263,-0.00488296152,-0.717337565
789,1976840,1256820,0.942,-0.777,-0.129,-251.5,74,-119.7,4.2,22.3,-22.3,0.328897977,-0.611987671,-0.00201422163,-0.719199194
790,1979070,1256820,0.942,-0.777,-0.129,-251.5,74,-119.7,4.2,22.3,-22.3,0.328897977,-0.611987671,-0.00201422163,-0.719199194
791,1982402,1256830,0.942,-0.777,-0.129,-251.5,74,-119.7,4.2,22.3,-22.3,0.328897977,-0.611987671,-0.00201422163,-0.719199194
792,1984435,1256830,0.942,-0.777,-0.129,-251.5,74,-119.7,4.2,22.3,-22.3,0.328897977,-0.611987671,-0.00201422163,-0.719199194
793,1986680,1256830,0.942,-0.777,-0.129,-251.5,74,-119.7,4.2,22.3,-22.3,0.328897977,-0.611987671,-0.00201422163,-0.719199194
794,1989401,1256830,0.942,-0.777,-0.129,-251.5,74,-119.7,4.2,22.3,-22.3,0.328897977,-0.611987671,-0.00201422163,-0.719199194
795,1991337,1256840,0.942,-0.777,-0.129,-251.5,74,-119.7,4.2,22.3,-22.3,0.328897977,-0.611987671,-0.00201422163,-0.719199194
796,1995431,1256840,0.942,-0.777,-0.129,-251.5,74,-119.7,4.2,22.3,-22.3,0.328897977,-0.611987671,-0.00201422163,-0.719199194
797,1997640,1256840,0.942,-0.777,-0.129,-251.5,74,-119.7,4.2,22.3,-22.3,0.328897977,-0.611987671,-0.00201422163,-0.719199194
798,2000115,1256840,0.942,-0.777,-0.129,-251.5,74,-119.7,4.2,22.3,-22.3,0.328897977,-0.611987671,-0.00201422163,-0.719199194
799,2001987,1256850,0.942,-0.777,-0.129,-251.5,74,-119.7,4.2,22.3,-22.3,0.328897977,-0.611987671,-0.00201422163,-0.719199194
800,2004186,1256850,0.849,-0.591,-0.018,-90,109.9,-127.2,4,23.3,-20.7,0.288369396,-0.603106784,0.016113773,-0.743522446
801,2007446,1256850,0.916,-0.495,-0.004,-68.6,92,-134.7,4,23.3,-20.7,0.28522599,-0.602069155,0.016052736,-0.745536668
802,2009498,1256850,0.916,-0.495,-0.004,-68.6,92,-134.7,4,23.3,-20.7,0.28522599,-0.602069155,0.016052736,-0.745536668
803,2012496,1256860,0.916,-0.495,-0.004,-68.6,92,-134.7,4,23.3,-20.7,0.28522599,-0.602069155,0.016052736,-0.745536668
804,2013714,1256860,1.065,-0.333,0.039,-0.6,36.1,-163.2,4.1,23.7,-19.9,0.276802881,-0.599993896,0.0120853298,-0.750450148
805,2017729,1256860,1.065,-0.333,0.039,-0.6,36.1,-163.2,4.1,23.7,-19.9,0.276802881,-0.599993896,0.0120853298,-0.750450148
806,2019901,1256860,1.065,-0.333,0.039,-0.6,36.1,-163.2,4.1,23.7,-19.9,0.276802881,-0.599993896,0.0120853298,-0.750450148
807,2021317,1256870,1.065,-0.333,0.039,-0.6,36.1,-163.2,4.1,23.7,-19.9,0.276802881,-0.599993896,0.0120853298,-0.750450148
808,2023592,1256870,1.065,-0.333,0.039,-0.6,36.1,-163.2,4.1,23.7,-19.9,0.276802881,-0.599993896,0.0120853298,-0.750450148
809,2026784,1256870,1.207,-0.136,0.079,13.9,22.1,-177.8,3.6,23.8,-20.4,0.266212958,-0.598406934,0.00195318461,-0.755638295
810,2028730,1256870,1.207,-0.136,0.079,13.9,22.1,-177.8,3.6,23.8,-20.4,0.266212958,-0.598406934,0.00195318461,-0.755638295
811,2031817,1256880,1.207,-0.136,0.079,13.9,22.1,-177.8,3.6,23.8,-20.4,0.266212958,-0.598406934,0.00195318461,-0.755638295
812,2034041,1256880,1.207,-0.136,0.079,13.9,22.1,-177.8,3.6,23.8,-20.4,0.266212958,-0.598406934,0.00195318461,-0.755638295
813,2037349,1256880,1.207,-0.136,0.079,13.9,22.1,-177.8,3.6,23.8,-20.4,0.266212958,-0.598406934,0.00195318461,-0.755638295
814,2038773,1256880,1.207,-0.136,0.079,13.9,22.1,-177.8,3.6,23.8,-20.4,0.266212958,-0.598406934,0.00195318461,-0.755638295
815,2043438,1256890,1.207,-0.136,0.079,13.9,22.1,-177.8,3.6,23.8,-20.4,0.266212958,-0.598406934,0.00195318461,-0.755638295
816,2043825,1256890,1.207,-0.136,0.079,13.9,22.1,-177.8,3.6,23.8,-20.4,0.266212958,-0.598406934,0.00195318461,-0.755638295
817,2048472,1256890,1.207,-0.136,0.079,13.9,22.1,-177.8,3.6,23.8,-20.4,0.266212958,-0.598406934,0.00195318461,-0.755638295
818,2048878,1256890,1.207,-0.136,0.079,13.9,22.1,-177.8,3.6,23.8,-20.4,0.266212958,-0.598406934,0.00195318461,-0.755638295
819,2051185,1256900,1.207,-0.136,0.079,13.9,22.1,-177.8,3.6,23.8,-20.4,0.266212958,-0.598406934,0.00195318461,-0.755638295
820,2054915,1256900,1.207,-0.136,0.079,13.9,22.1,-177.8,3.6,23.8,-20.4,0.266212958,-0.598406934,0.00195318461,-0.755638295
821,2057284,1256900,1.207,-0.136,0.079,13.9,22.1,-177.8,3.6,23.8,-20.4,0.266212958,-0.598406934,0.00195318461,-0.755638295
822,2058736,1256900,1.207,-0.136,0.079,13.9,22.1,-177.8,3.6,23.8,-20.4,0.266212958,-0.598406934,0.00195318461,-0.755638295
823,2061829,1256910,1.207,-0.136,0.079,13.9,22.1,-177.8,3.6,23.8,-20.4,0.266212958,-0.598406934,0.00195318461,-0.755638295
824,2064000,1256910,1.207,-0.136,0.079,13.9,22.1,-177.8,3.6,23.8,-20.4,0.266212958,-0.598406934,0.00195318461,-0.755638295
825,2066717,1256910,1.207,-0.136,0.079,13.9,22.1,-177.8,3.6,23.8,-20.4,0.266212958,-0.598406934,0.00195318461,-0.755638295
826,2069289,1256910,1.207,-0.136,0.079,13.9,22.1,-177.8,3.6,23.8,-20.4,0.266212958,-0.598406934,0.00195318461,-0.755638295
827,2071640,1256920,1.207,-0.136,0.079,13.9,22.1,-177.8,3.6,23.8,-20.4,0.266212958,-0.598406934,0.00195318461,-0.755638295
828,2073816,1256920,1.207,-0.136,0.079,13.9,22.1,-177.8,3.6,23.8,-20.4,0.266212958,-0.598406934,0.00195318461,-0.755638295
829,2076334,1256920,1.207,-0.136,0.079,13.9,22.1,-177.8,3.6,23.8,-20.4,0.266212958,-0.598406934,0.00195318461,-0.755638295
830,2078661,1256920,1.207,-0.136,0.079,13.9,22.1,-177.8,3.6,23.8,-20.4,0.266212958,-0.598406934,0.00195318461,-0.755638295
831,2083137,1256930,1.207,-0.136,0.079,13.9,22.1,-177.8,3.6,23.8,-20.4,0.266212958,-0.598406934,0.00195318461,-0.755638295
832,2085226,1256930,1.207,-0.136,0.079,13.9,22.1,-177.8,3.6,23.8,-20.4,0.266212958,-0.598406934,0.00195318461,-0.755638295
833,2087486,1256930,1.207,-0.136,0.079,13.9,22.1,-177.8,3.6,23.8,-20.4,0.266212958,-0.598406934,0.00195318461,-0.755638295
834,2089047,1256930,1.207,-0.136,0.079,13.9,22.1,-177.8,3.6,23.8,-20.4,0.266212958,-0.598406934,0.00195318461,-0.755638295
835,2093115,1256940,1.207,-0.136,0.079,13.9,22.1,-177.8,3.6,23.8,-20.4,0.266212958,-0.598406934,0.00195318461,-0.755638295
836,2095265,1256940,1.207,-0.136,0.079,13.9,22.1,-177.8,3.6,23.8,-20.4,0.266212958,-0.598406934,0.00195318461,-0.755638295
837,2097441,1256940,1.207,-0.136,0.079,13.9,22.1,-177.8,3.6,23.8,-20.4,0.266212958,-0.598406934,0.00195318461,-0.755638295
838,2099780,1256940,1.207,-0.136,0.079,13.9,22.1,-177.8,3.6,23.8,-20.4,0.266212958,-0.598406934,0.00195318461,-0.755638295
839,2101739,1256950,1.207,-0.136,0.079,13.9,22.1,-177.8,3.6,23.8,-20.4,0.266212958,-0.598406934,0.00195318461,-0.755638295
840,2103989,1256950,1.207,-0.136,0.079,13.9,22.1,-177.8,3.6,23.8,-20.4,0.266212958,-0.598406934,0.00195318461,-0.755638295
841,2108026,1256950,1.207,-0.136,0.079,13.9,22.1,-177.8,3.6,23.8,-20.4,0.266212958,-0.598406934,0.00195318461,-0.755638295
842,2109729,1256950,1.207,-0.136,0.079,13.9,22.1,-177.8,3.6,23.8,-20.4,0.266212958,-0.598406934,0.00195318461,-0.755638295
843,2111207,1256960,1.207,-0.136,0.079,13.9,22.1,-177.8,3.6,23.8,-20.4,0.266212958,-0.598406934,0.00195318461,-0.755638295
844,2114129,1256960,1.207,-0.136,0.079,13.9,22.1,-177.8,3.6,23.8,-20.4,0.266212958,-0.598406934,0.00195318461,-0.755638295
845,2117360,1256960,1.207,-0.136,0.079,13.9,22.1,-177.8,3.6,23.8,-20.4,0.266212958,-0.598406934,0.00195318461,-0.755638295
846,2118803,1256960,1.207,-0.136,0.079,13.9,22.1,-177.8,3.6,23.8,-20.4,0.266212958,-0.598406934,0.00195318461,-0.755638295
847,2121742,1256970,1.207,-0.136,0.079,13.9,22.1,-177.8,3.6,23.8,-20.4,0.266212958,-0.598406934,0.00195318461,-0.755638295
848,2124065,1256970,1.207,-0.136,0.079,13.9,22.1,-177.8,3.6,23.8,-20.4,0.266212958,-0.598406934,0.00195318461,-0.755638295
849,2127115,1256970,1.207,-0.136,0.079,13.9,22.1,-177.8,3.6,23.8,-20.4,0.266212958,-0.598406934,0.00195318461,-0.755638295
850,2129357,1256970,1.207,-0.136,0.079,13.9,22.1,-177.8,3.6,23.8,-20.4,0.266212958,-0.598406934,0.00195318461,-0.755638295
851,2131452,1256980,1.207,-0.136,0.079,13.9,22.1,-177.8,3.6,23.8,-20.4,0.266212958,-0.598406934,0.00195318461,-0.755638295
852,2134532,1256980,1.078,-0.204,0.141,-84.8,-8.6,-145.3,-1.7,26.3,-16.2,0.111484115,-0.588091678,-0.000823999756,-0.801049837
853,2136192,1256980,1.058,-0.242,0.145,-87.4,-6.5,-142.4,-1.7,26.3,-16.2,0.107882931,-0.588427381,-0.00112918485,-0.801293985
854,2139273,1256980,1.058,-0.242,0.145,-87.4,-6.5,-142.4,-1.7,26.3,-16.2,0.107882931,-0.588427381,-0.00112918485,-0.801293985
855,2141646,1256990,1.058,-0.242,0.145,-87.4,-6.5,-142.4,-1.7,26.3,-16.2,0.107882931,-0.588427381,-0.00112918485,-0.801293985
856,2144877,1256990,1.058,-0.242,0.145,-87.4,-6.5,-142.4,-1.7,26.3,-16.2,0.107882931,-0.588427381,-0.00112918485,-0.801293985
857,2147001,1256990,1.058,-0.242,0.145,-87.4,-6.5,-142.4,-1.7,26.3,-16.2,0.107882931,-0.588427381,-0.00112918485,-0.801293985
858,2149213,1256990,1.058,-0.242,0.145,-87.4,-6.5,-142.4,-1.7,26.3,-16.2,0.107882931,-0.588427381,-0.00112918485,-0.801293985
859,2152324,1257000,1.058,-0.242,0.145,-87.4,-6.5,-142.4,-1.7,26.3,-16.2,0.107882931,-0.588427381,-0.00112918485,-0.801293985
860,2154465,1257000,1.058,-0.242,0.145,-87.4,-6.5,-142.4,-1.7,26.3,-16.2,0.107882931,-0.588427381,-0.00112918485,-0.801293985
861,2156159,1257000,1.058,-0.242,0.145,-87.4,-6.5,-142.4,-1.7,26.3,-16.2,0.107882931,-0.588427381,-0.00112918485,-0.801293985
862,2159307,1257000,1.058,-0.242,0.145,-87.4,-6.5,-142.4,-1.7,26.3,-16.2,0.107882931,-0.588427381,-0.00112918485,-0.801293985
863,2161493,1257010,1.058,-0.242,0.145,-87.4,-6.5,-142.4,-1.7,26.3,-16.2,0.107882931,-0.588427381,-0.00112918485,-0.801293985
864,2164782,1257010,1.058,-0.242,0.145,-87.4,-6.5,-142.4,-1.7,26.3,-16.2,0.107882931,-0.588427381,-0.00112918485,-0.801293985
865,2166281,1257010,1.058,-0.242,0.145,-87.4,-6.5,-142.4,-1.7,26.3,-16.2,0.107882931,-0.588427381,-0.00112918485,-0.801293985
866,2169441,1257010,1.058,-0.242,0.145,-87.4,-6.5,-142.4,-1.7,26.3,-16.2,0.107882931,-0.588427381,-0.00112918485,-0.801293985
867,2171862,1257020,1.058,-0.242,0.145,-87.4,-6.5,-142.4,-1.7,26.3,-16.2,0.107882931,-0.588427381,-0.00112918485,-0.801293985
868,2174034,1257020,1.058,-0.242,0.145,-87.4,-6.5,-142.4,-1.7,26.3,-16.2,0.107882931,-0.588427381,-0.00112918485,-0.801293985
869,2177304,1257020,1.058,-0.242,0.145,-87.4,-6.5,-142.4,-1.7,26.3,-16.2,0.107882931,-0.588427381,-0.00112918485,-0.801293985
870,2179457,1257020,1.058,-0.242,0.145,-87.4,-6.5,-142.4,-1.7,26.3,-16.2,0.107882931,-0.588427381,-0.00112918485,-0.801293985
871,2181627,1257030,1.058,-0.242,0.145,-87.4,-6.5,-142.4,-1.7,26.3,-16.2,0.107882931,-0.588427381,-0.00112918485,-0.801293985
872,2184860,1257030,1.058,-0.242,0.145,-87.4,-6.5,-142.4,-1.7,26.3,-16.2,0.107882931,-0.588427381,-0.00112918485,-0.801293985
873,2186810,1257030,1.058,-0.242,0.145,-87.4,-6.5,-142.4,-1.7,26.3,-16.2,0.107882931,-0.588427381,-0.00112918485,-0.801293985
874,2190007,1257030,1.058,-0.242,0.145,-87.4,-6.5,-142.4,-1.7,26.3,-16.2,0.107882931,-0.588427381,-0.00112918485,-0.801293985
875,2191431,1257040,1.058,-0.242,0.145,-87.4,-6.5,-142.4,-1.7,26.3,-16.2,0.107882931,-0.588427381,-0.00112918485,-0.801293985
876,2194411,1257040,1.042,-0.414,0.102,-91.6,-38,-99.8,-5.7,27.3,-13.3,0.0214850307,-0.589312418,0.0196539201,-0.80733665
877,2196185,1257040,1.03,-0.39,0.15,-82.8,-40.7,-96.2,-7.9,27.1,-12.5,0.0187688833,-0.590105899,0.0198675497,-0.806817835
878,2199340,1257040,1.03,-0.39,0.15,-82.8,-40.7,-96.2,-7.9,27.1,-12.5,0.0187688833,-0.590105899,0.0198675497,-0.806817835
879,2201170,1257050,1.03,-0.39,0.15,-82.8,-40.7,-96.2,-7.9,27.1,-12.5,0.0187688833,-0.590105899,0.0198675497,-0.806817835
880,2204274,1257050,1.003,-0.398,0.181,-62.4,-46.6,-84.1,-7.9,27.1,-12.5,0.0115359966,-0.592669454,0.0199896237,-0.80507828
881,2206670,1257050,1.003,-0.398,0.181,-62.4,-46.6,-84.1,-7.9,27.1,-12.5,0.0115359966,-0.592669454,0.0199896237,-0.80507828
882,2209855,1257050,1.003,-0.398,0.181,-62.4,-46.6,-84.1,-7.9,27.1,-12.5,0.0115359966,-0.592669454,0.0199896237,-0.80507828
883,2211295,1257060,1.003,-0.398,0.181,-62.4,-46.6,-84.1,-7.9,27.1,-12.5,0.0115359966,-0.592669454,0.0199896237,-0.80507828
884,2215118,1257060,1.003,-0.398,0.181,-62.4,-46.6,-84.1,-7.9,27.1,-12.5,0.0115359966,-0.592669454,0.0199896237,-0.80507828
885,2217433,1257060,1.003,-0.398,0.181,-62.4,-46.6,-84.1,-7.9,27.1,-12.5,0.0115359966,-0.592669454,0.0199896237,-0.80507828
886,2219540,1257060,1.003,-0.398,0.181,-62.4,-46.6,-84.1,-7.9,27.1,-12.5,0.0115359966,-0.592669454,0.0199896237,-0.80507828
887,2221835,1257070,1.003,-0.398,0.181,-62.4,-46.6,-84.1,-7.9,27.1,-12.5,0.0115359966,-0.592669454,0.0199896237,-0.80507828
888,2223950,1257070,1.003,-0.398,0.181,-62.4,-46.6,-84.1,-7.9,27.1,-12.5,0.0115359966,-0.592669454,0.0199896237,-0.80507828
889,2227017,1257070,1.003,-0.398,0.181,-62.4,-46.6,-84.1,-7.9,27.1,-12.5,0.0115359966,-0.592669454,0.0199896237,-0.80507828
890,2229506,1257070,1.003,-0.398,0.181,-62.4,-46.6,-84.1,-7.9,27.1,-12.5,0.0115359966,-0.592669454,0.0199896237,-0.80507828
891,2231649,1257080,1.003,-0.398,0.181,-62.4,-46.6,-84.1,-7.9,27.1,-12.5,0.0115359966,-0.592669454,0.0199896237,-0.80507828
892,2234791,1257080,1.003,-0.398,0.181,-62.4,-46.6,-84.1,-7.9,27.1,-12.5,0.0115359966,-0.592669454,0.0199896237,-0.80507828
893,2236275,1257080,1.003,-0.398,0.181,-62.4,-46.6,-84.1,-7.9,27.1,-12.5,0.0115359966,-0.592669454,0.0199896237,-0.80507828
894,2238657,1257080,1.003,-0.398,0.181,-62.4,-46.6,-84.1,-7.9,27.1,-12.5,0.0115359966,-0.592669454,0.0199896237,-0.80507828
895,2242253,1257090,1.003,-0.398,0.181,-62.4,-46.6,-84.1,-7.9,27.1,-12.5,0.0115359966,-0.592669454,0.0199896237,-0.80507828
896,2243720,1257090,1.003,-0.398,0.181,-62.4,-46.6,-84.1,-7.9,27.1,-12.5,0.0115359966,-0.592669454,0.0199896237,-0.80507828
897,2246733,1257090,1.003,-0.398,0.181,-62.4,-46.6,-84.1,-7.9,27.1,-12.5,0.0115359966,-0.592669454,0.0199896237,-0.80507828
898,2249148,1257090,1.003,-0.398,0.181,-62.4,-46.6,-84.1,-7.9,27.1,-12.5,0.0115359966,-0.592669454,0.0199896237,-0.80507828
899,2251502,1257100,1.003,-0.398,0.181,-62.4,-46.6,-84.1,-7.9,27.1,-12.5,0.0115359966,-0.592669454,0.0199896237,-0.80507828
900,2253784,1257100,1.003,-0.398,0.181,-62.4,-46.6,-84.1,-7.9,27.1,-12.5,0.0115359966,-0.592669454,0.0199896237,-0.80507828
901,2258219,1257100,1.003,-0.398,0.181,-62.4,-46.6,-84.1,-7.9,27.1,-12.5,0.0115359966,-0.592669454,0.0199896237,-0.80507828
902,2260021,1257100,1.003,-0.398,0.181,-62.4,-46.6,-84.1,-7.9,27.1,-12.5,0.0115359966,-0.592669454,0.0199896237,-0.80507828
903,2261490,1257110,1.003,-0.398,0.181,-62.4,-46.6,-84.1,-7.9,27.1,-12.5,0.0115359966,-0.592669454,0.0199896237,-0.80507828
904,2264838,1257110,1.003,-0.398,0.181,-62.4,-46.6,-84.1,-7.9,27.1,-12.5,0.0115359966,-0.592669454,0.0199896237,-0.80507828
905,2266838,1257110,1.003,-0.398,0.181,-62.4,-46.6,-84.1,-7.9,27.1,-12.5,0.0115359966,-0.592669454,0.0199896237,-0.80507828
906,2269042,1257110,1.003,-0.398,0.181,-62.4,-46.6,-84.1,-7.9,27.1,-12.5,0.0115359966,-0.592669454,0.0199896237,-0.80507828
907,2272330,1257120,1.003,-0.398,0.181,-62.4,-46.6,-84.1,-7.9,27.1,-12.5,0.0115359966,-0.592669454,0.0199896237,-0.80507828
908,2274388,1257120,1.003,-0.398,0.181,-62.4,-46.6,-84.1,-7.9,27.1,-12.5,0.0115359966,-0.592669454,0.0199896237,-0.80507828
909,2276538,1257120,0.905,-0.381,0.148,-51.4,-35.9,-15.4,-9.2,27.5,-9.9,0.0346690268,0.607135228,-0.0384533219,0.792870876
910,2280658,1257120,0.905,-0.381,0.148,-51.4,-35.9,-15.4,-9.2,27.5,-9.9,0.0346690268,0.607135228,-0.0384533219,0.792870876
911,2282853,1257130,0.905,-0.381,0.148,-51.4,-35.9,-15.4,-9.2,27.5,-9.9,0.0346690268,0.607135228,-0.0384533219,0.792870876
912,2284435,1257130,0.905,-0.381,0.148,-51.4,-35.9,-15.4,-9.2,27.5,-9.9,0.0346690268,0.607135228,-0.0384533219,0.792870876
913,2286236,1257130,0.905,-0.381,0.148,-51.4,-35.9,-15.4,-9.2,27.5,-9.9,0.0346690268,0.607135228,-0.0384533219,0.792870876
914,2288613,1257130,0.905,-0.381,0.148,-51.4,-35.9,-15.4,-9.2,27.5,-9.9,0.0346690268,0.607135228,-0.0384533219,0.792870876
915,2292158,1257140,0.905,-0.381,0.148,-51.4,-35.9,-15.4,-9.2,27.5,-9.9,0.0346690268,0.607135228,-0.0384533219,0.792870876
916,2293707,1257140,0.905,-0.381,0.148,-51.4,-35.9,-15.4,-9.2,27.5,-9.9,0.0346690268,0.607135228,-0.0384533219,0.792870876
917,2296669,1257140,0.905,-0.381,0.148,-51.4,-35.9,-15.4,-9.2,27.5,-9.9,0.0346690268,0.607135228,-0.0384533219,0.792870876
918,2299716,1257140,0.905,-0.381,0.148,-51.4,-35.9,-15.4,-9.2,27.5,-9.9,0.0346690268,0.607135228,-0.0384533219,0.792870876
919,2301170,1257150,0.905,-0.381,0.148,-51.4,-35.9,-15.4,-9.2,27.5,-9.9,0.0346690268,0.607135228,-0.0384533219,0.792870876
920,2304882,1257150,0.905,-0.381,0.148,-51.4,-35.9,-15.4,-9.2,27.5,-9.9,0.0346690268,0.607135228,-0.0384533219,0.792870876
921,2306397,1257150,0.905,-0.381,0.148,-51.4,-35.9,-15.4,-9.2,27.5,-9.9,0.0346690268,0.607135228,-0.0384533219,0.792870876
922,2309259,1257150,0.905,-0.381,0.148,-51.4,-35.9,-15.4,-9.2,27.5,-9.9,0.0346690268,0.607135228,-0.0384533219,0.792870876
923,2311392,1257160,0.905,-0.381,0.148,-51.4,-35.9,-15.4,-9.2,27.5,-9.9,0.0346690268,0.607135228,-0.0384533219,0.792870876
924,2314317,1257160,0.905,-0.381,0.148,-51.4,-35.9,-15.4,-9.2,27.5,-9.9,0.0346690268,0.607135228,-0.0384533219,0.792870876
925,2317299,1257160,0.905,-0.381,0.148,-51.4,-35.9,-15.4,-9.2,27.5,-9.9,0.0346690268,0.607135228,-0.0384533219,0.792870876
926,2318771,1257160,0.905,-0.381,0.148,-51.4,-35.9,-15.4,-9.2,27.5,-9.9,0.0346690268,0.607135228,-0.0384533219,0.792870876
927,2321766,1257170,0.905,-0.381,0.148,-51.4,-35.9,-15.4,-9.2,27.5,-9.9,0.0346690268,0.607135228,-0.0384533219,0.792870876
928,2323938,1257170,0.905,-0.381,0.148,-51.4,-35.9,-15.4,-9.2,27.5,-9.9,0.0346690268,0.607135228,-0.0384533219,0.792870876
929,2327219,1257170,0.905,-0.381,0.148,-51.4,-35.9,-15.4,-9.2,27.5,-9.9,0.0346690268,0.607135228,-0.0384533219,0.792870876
930,2329604,1257170,0.905,-0.381,0.148,-51.4,-35.9,-15.4,-9.2,27.5,-9.9,0.0346690268,0.607135228,-0.0384533219,0.792870876
931,2331612,1257180,0.905,-0.381,0.148,-51.4,-35.9,-15.4,-9.2,27.5,-9.9,0.0346690268,0.607135228,-0.0384533219,0.792870876
932,2333860,1257180,0.905,-0.381,0.148,-51.4,-35.9,-15.4,-9.2,27.5,-9.9,0.0346690268,0.607135228,-0.0384533219,0.792870876
933,2336828,1257180,0.905,-0.381,0.148,-51.4,-35.9,-15.4,-9.2,27.5,-9.9,0.0346690268,0.607135228,-0.0384533219,0.792870876
934,2339077,1257180,0.905,-0.381,0.148,-51.4,-35.9,-15.4,-9.2,27.5,-9.9,0.0346690268,0.607135228,-0.0384533219,0.792870876
935,2341382,1257190,0.905,-0.381,0.148,-51.4,-35.9,-15.4,-9.2,27.5,-9.9,0.0346690268,0.607135228,-0.0384533219,0.792870876
936,2343700,1257190,0.905,-0.381,0.148,-51.4,-35.9,-15.4,-9.2,27.5,-9.9,0.0346690268,0.607135228,-0.0384533219,0.792870876
937,2347235,1257190,0.905,-0.381,0.148,-51.4,-35.9,-15.4,-9.2,27.5,-9.9,0.0346690268,0.607135228,-0.0384533219,0.792870876
938,2348754,1257190,0.905,-0.381,0.148,-51.4,-35.9,-15.4,-9.2,27.5,-9.9,0.0346690268,0.607135228,-0.0384533219,0.792870876
939,2351584,1257200,0.905,-0.381,0.148,-51.4,-35.9,-15.4,-9.2,27.5,-9.9,0.0346690268,0.607135228,-0.0384533219,0.792870876
940,2354858,1257200,0.905,-0.381,0.148,-51.4,-35.9,-15.4,-9.2,27.5,-9.9,0.0346690268,0.607135228,-0.0384533219,0.792870876
941,2356395,1257200,0.905,-0.381,0.148,-51.4,-35.9,-15.4,-9.2,27.5,-9.9,0.0346690268,0.607135228,-0.0384533219,0.792870876
942,2359236,1257200,0.905,-0.381,0.148,-51.4,-35.9,-15.4,-9.2,27.5,-9.9,0.0346690268,0.607135228,-0.0384533219,0.792870876
943,2362608,1257210,0.905,-0.381,0.148,-51.4,-35.9,-15.4,-9.2,27.5,-9.9,0.0346690268,0.607135228,-0.0384533219,0.792870876
944,2364705,1257210,0.905,-0.381,0.148,-51.4,-35.9,-15.4,-9.2,27.5,-9.9,0.0346690268,0.607135228,-0.0384533219,0.792870876
945,2366401,1257210,0.905,-0.381,0.148,-51.4,-35.9,-15.4,-9.2,27.5,-9.9,0.0346690268,0.607135228,-0.0384533219,0.792870876
946,2368626,1257210,0.905,-0.381,0.148,-51.4,-35.9,-15.4,-9.2,27.5,-9.9,0.0346690268,0.607135228,-0.0384533219,0.792870876
947,2372350,1257220,0.905,-0.381,0.148,-51.4,-35.9,-15.4,-9.2,27.5,-9.9,0.0346690268,0.607135228,-0.0384533219,0.792870876
948,2373728,1257220,0.905,-0.381,0.148,-51.4,-35.9,-15.4,-9.2,27.5,-9.9,0.0346690268,0.607135228,-0.0384533219,0.792870876
949,2376693,1257220,0.905,-0.381,0.148,-51.4,-35.9,-15.4,-9.2,27.5,-9.9,0.0346690268,0.607135228,-0.0384533219,0.792870876
950,2379884,1257220,0.905,-0.381,0.148,-51.4,-35.9,-15.4,-9.2,27.5,-9.9,0.0346690268,0.607135228,-0.0384533219,0.792870876
951,2381348,1257230,0.905,-0.381,0.148,-51.4,-35.9,-15.4,-9.2,27.5,-9.9,0.0346690268,0.607135228,-0.0384533219,0.792870876
952,2384359,1257230,0.905,-0.381,0.148,-51.4,-35.9,-15.4,-9.2,27.5,-9.9,0.0346690268,0.607135228,-0.0384533219,0.792870876
953,2386557,1257230,0.905,-0.381,0.148,-51.4,-35.9,-15.4,-9.2,27.5,-9.9,0.0346690268,0.607135228,-0.0384533219,0.792870876
954,2389797,1257230,1.008,-0.249,0.236,12.9,-0.7,52.4,-8.5,27.1,-9.4,0.0200201422,0.62224189,-0.0680257576,0.779564806
955,2391907,1257240,1.008,-0.249,0.236,12.9,-0.7,52.4,-8.5,27.1,-9.4,0.0200201422,0.62224189,-0.0680257576,0.779564806
956,2394050,1257240,1.008,-0.249,0.236,12.9,-0.7,52.4,-8.5,27.1,-9.4,0.0200201422,0.62224189,-0.0680257576,0.779564806
957,2397302,1257240,1.008,-0.233,0.236,18.2,-0.4,53.3,-8.5,28.7,-8.1,0.0167851802,0.621936705,-0.0701010163,0.779717399
958,2399374,1257240,1.008,-0.233,0.236,18.2,-0.4,53.3,-8.5,28.7,-8.1,0.0167851802,0.621936705,-0.0701010163,0.779717399
959,2401651,1257250,1.008,-0.233,0.236,18.2,-0.4,53.3,-8.5,28.7,-8.1,0.0167851802,0.621936705,-0.0701010163,0.779717399
960,2404891,1257250,1.008,-0.233,0.236,18.2,-0.4,53.3,-8.5,28.7,-8.1,0.0167851802,0.621936705,-0.0701010163,0.779717399
961,2406291,1257250,1.008,-0.233,0.236,18.2,-0.4,53.3,-8.5,28.7,-8.1,0.0167851802,0.621936705,-0.0701010163,0.779717399
962,2410302,1257250,1.008,-0.233,0.236,18.2,-0.4,53.3,-8.5,28.7,-8.1,0.0167851802,0.621936705,-0.0701010163,0.779717399
963,2412506,1257260,1.008,-0.233,0.236,18.2,-0.4,53.3,-8.5,28.7,-8.1,0.0167851802,0.621936705,-0.0701010163,0.779717399
964,2414721,1257260,1.008,-0.233,0.236,18.2,-0.4,53.3,-8.5,28.7,-8.1,0.0167851802,0.621936705,-0.0701010163,0.779717399
965,2416851,1257260,1.008,-0.233,0.236,18.2,-0.4,53.3,-8.5,28.7,-8.1,0.0167851802,0.621936705,-0.0701010163,0.779717399
966,2419059,1257260,1.008,-0.233,0.236,18.2,-0.4,53.3,-8.5,28.7,-8.1,0.0167851802,0.621936705,-0.0701010163,0.779717399
967,2422321,1257270,1.008,-0.233,0.236,18.2,-0.4,53.3,-8.5,28.7,-8.1,0.0167851802,0.621936705,-0.0701010163,0.779717399
968,2424312,1257270,1.035,-0.191,0.231,27.2,3.6,49.7,-7.6,28,-10.5,0.00463881344,0.620868557,-0.0727561266,0.78051088
969,2426571,1257270,1.035,-0.191,0.231,27.2,3.6,49.7,-7.6,28,-10.5,0.00463881344,0.620868557,-0.0727561266,0.78051088
970,2429807,1257270,1.035,-0.191,0.231,27.2,3.6,49.7,-7.6,28,-10.5,0.00463881344,0.620868557,-0.0727561266,0.78051088
971,2431812,1257280,1.035,-0.191,0.231,27.2,3.6,49.7,-7.6,28,-10.5,0.00463881344,0.620868557,-0.0727561266,0.78051088
972,2434071,1257280,1.035,-0.191,0.231,27.2,3.6,49.7,-7.6,28,-10.5,0.00463881344,0.620868557,-0.0727561266,0.78051088
973,2437257,1257280,1.035,-0.191,0.231,27.2,3.6,49.7,-7.6,28,-10.5,0.00463881344,0.620868557,-0.0727561266,0.78051088
974,2439413,1257280,1.035,-0.191,0.231,27.2,3.6,49.7,-7.6,28,-10.5,0.00463881344,0.620868557,-0.0727561266,0.78051088
975,2441672,1257290,1.035,-0.191,0.231,27.2,3.6,49.7,-7.6,28,-10.5,0.00463881344,0.620868557,-0.0727561266,0.78051088
976,2444714,1257290,1.035,-0.191,0.231,27.2,3.6,49.7,-7.6,28,-10.5,0.00463881344,0.620868557,-0.0727561266,0.78051088
977,2446781,1257290,1.035,-0.191,0.231,27.2,3.6,49.7,-7.6,28,-10.5,0.00463881344,0.620868557,-0.0727561266,0.78051088
978,2449097,1257290,1.035,-0.191,0.231,27.2,3.6,49.7,-7.6,28,-10.5,0.00463881344,0.620868557,-0.0727561266,0.78051088
979,2451993,1257300,1.035,-0.191,0.231,27.2,3.6,49.7,-7.6,28,-10.5,0.00463881344,0.620868557,-0.0727561266,0.78051088
980,2453557,1257300,1.035,-0.191,0.231,27.2,3.6,49.7,-7.6,28,-10.5,0.00463881344,0.620868557,-0.0727561266,0.78051088
981,2456584,1257300,1.035,-0.191,0.231,27.2,3.6,49.7,-7.6,28,-10.5,0.00463881344,0.620868557,-0.0727561266,0.78051088
982,2459960,1257300,1.035,-0.191,0.231,27.2,3.6,49.7,-7.6,28,-10.5,0.00463881344,0.620868557,-0.0727561266,0.78051088
983,2461786,1257310,1.035,-0.191,0.231,27.2,3.6,49.7,-7.6,28,-10.5,0.00463881344,0.620868557,-0.0727561266,0.78051088
984,2464944,1257310,1.035,-0.191,0.231,27.2,3.6,49.7,-7.6,28,-10.5,0.00463881344,0.620868557,-0.0727561266,0.78051088
985,2466371,1257310,1.035,-0.191,0.231,27.2,3.6,49.7,-7.6,28,-10.5,0.00463881344,0.620868557,-0.0727561266,0.78051088
986,2470122,1257310,1.035,-0.191,0.231,27.2,3.6,49.7,-7.6,28,-10.5,0.00463881344,0.620868557,-0.0727561266,0.78051088
987,2471606,1257320,1.035,-0.191,0.231,27.2,3.6,49.7,-7.6,28,-10.5,0.00463881344,0.620868557,-0.0727561266,0.78051088
988,2474043,1257320,1.035,-0.191,0.231,27.2,3.6,49.7,-7.6,28,-10.5,0.00463881344,0.620868557,-0.0727561266,0.78051088
989,2477593,1257320,1.035,-0.191,0.231,27.2,3.6,49.7,-7.6,28,-10.5,0.00463881344,0.620868557,-0.0727561266,0.78051088
990,2479772,1257320,1.035,-0.191,0.231,27.2,3.6,49.7,-7.6,28,-10.5,0.00463881344,0.620868557,-0.0727561266,0.78051088
