sample_index,elapsed_us,device_time_ms,acc_x_g,acc_y_g,acc_z_g,gyro_x_dps,gyro_y_dps,gyro_z_dps,mag_x_ut,mag_y_ut,mag_z_ut,quat_w,quat_x,quat_y,quat_z
0,3892,4520,0.941,-0.307,0.229,-26,12.5,0.4,-2.9,31.1,-15.4,0.324015015,0.485976745,-0.417310099,0.696127201
1,7520,4530,0.941,-0.307,0.229,-24.9,12.5,0.6,-2.9,31.1,-15.4,0.324381237,0.485610523,-0.417615284,0.696066164
2,9788,4530,0.949,-0.303,0.229,-23.8,12.4,1,-2.9,31.1,-15.4,0.324747459,0.485244301,-0.41788995,0.695974609
3,11826,4530,0.953,-0.291,0.233,-22.9,12.2,1.2,-2.9,31.1,-15.4,0.325083163,0.48484756,-0.418164617,0.695913572
4,14152,4530,0.953,-0.291,0.233,-22.9,12.2,1.2,-2.9,31.1,-15.4,0.325083163,0.48484756,-0.418164617,0.695913572
5,17311,4540,0.957,-0.283,0.221,-21.5,12,1.8,-2.9,30.4,-15.1,0.325571459,0.483474227,-0.418652913,0.696371349
6,19157,4540,0.957,-0.279,0.221,-20.9,12.1,2.2,-2.9,30.4,-15.1,0.325876644,0.483108005,-0.418897061,0.696279794
7,22301,4540,0.965,-0.264,0.217,-20.6,12.3,2.7,-2.9,30.4,-15.1,0.326151311,0.482772301,-0.419141209,0.696279794
8,23939,4540,0.957,-0.26,0.217,-20.3,12.5,3.1,-2.7,30.5,-15.1,0.326456496,0.482406079,-0.419415876,0.696249275
9,26390,4550,0.961,-0.256,0.217,-20,12.8,3.5,-2.7,30.5,-15.1,0.326731162,0.482039857,-0.419660024,0.696218757
10,29894,4550,0.965,-0.252,0.217,-19.9,13,3.8,-2.7,30.5,-15.1,0.326975311,0.481643117,-0.419904172,0.696218757
11,32115,4550,0.961,-0.248,0.221,-20.1,13.2,4,-2.7,30.5,-15.1,0.327249977,0.481276894,-0.42014832,0.696188238
12,34464,4550,0.961,-0.248,0.217,-20.4,13.2,4.2,-2.8,30.8,-14.5,0.327524644,0.480880154,-0.420392468,0.696188238
13,36499,4560,0.957,-0.248,0.221,-20.7,13.2,4.4,-2.8,30.8,-14.5,0.32779931,0.480483413,-0.420697653,0.69615772
14,39713,4560,0.953,-0.24,0.229,-21.2,13.4,4.5,-2.8,30.8,-14.5,0.328073977,0.480086673,-0.42097232,0.696127201
15,41999,4560,0.953,-0.232,0.225,-21.6,13.7,4.8,-2.8,30.8,-14.5,0.328348643,0.479689932,-0.421246986,0.696127201
16,43990,4560,0.949,-0.232,0.229,-22.3,14.2,5.1,-3.2,30.5,-15,0.328653829,0.479262673,-0.421521653,0.696096683
17,47100,4570,0.946,-0.225,0.229,-23.2,14.6,5.3,-3.2,30.5,-15,0.328928495,0.478835414,-0.421826838,0.696066164
18,48658,4570,0.938,-0.224,0.229,-24.3,15.1,5.4,-3.2,30.5,-15,0.329264199,0.478377636,-0.422162542,0.696035646
19,51740,4570,0.934,-0.22,0.222,-25.5,15.5,5.5,-3.2,30.5,-15,0.329569384,0.47788934,-0.422498245,0.696005127
20,54098,4570,0.93,-0.224,0.218,-26.9,15.9,5.6,-3.6,30.7,-15,0.329935606,0.477401044,-0.422833949,0.695974609
21,56421,4580,0.922,-0.216,0.21,-28.3,16.3,5.7,-3.6,30.7,-15,0.33027131,0.476912748,-0.423230689,0.695913572
22,58999,4580,0.914,-0.22,0.202,-29.6,16.8,5.6,-3.6,30.7,-15,0.33066805,0.476393933,-0.423596912,0.695852535
23,61386,4580,0.91,-0.216,0.206,-30.7,17.2,5.5,-3.6,30.7,-15,0.331064791,0.4758446,-0.423993652,0.695791498
24,65165,4580,0.91,-0.216,0.206,-30.7,17.2,5.5,-3.6,30.7,-15,0.331064791,0.4758446,-0.423993652,0.695791498
25,66785,4590,0.902,-0.212,0.195,-32.3,17.5,5,-2.2,30.1,-14.8,0.33210242,0.474776452,-0.424573504,0.695669424
26,68889,4590,0.895,-0.208,0.199,-32.7,17.3,4.5,-2.2,30.1,-14.8,0.332499161,0.474257637,-0.425000763,0.695577868
27,71883,4590,0.883,-0.204,0.199,-32.8,17,3.6,-2.2,30.1,-14.8,0.332987457,0.473708304,-0.425397504,0.695486312
28,75014,4590,0.875,-0.196,0.203,-32.6,16.7,2.8,-3.4,31.7,-14.8,0.333445235,0.473189489,-0.425824763,0.695364238
29,77490,4600,0.871,-0.2,0.207,-32.2,16.2,2.4,-3.4,31.7,-14.8,0.333872494,0.472701193,-0.426221503,0.695242164
30,79734,4600,0.871,-0.196,0.211,-31.7,15.6,2.4,-3.4,31.7,-14.8,0.334299753,0.472212897,-0.426587725,0.69512009
31,81391,4600,0.867,-0.192,0.211,-31.3,15,2.8,-3.4,31.7,-14.8,0.334727012,0.471724601,-0.426984466,0.695028535
32,84708,4600,0.867,-0.2,0.215,-31.1,14.6,3.2,-3.6,31.4,-14.7,0.335154271,0.471236305,-0.427381207,0.694906461
33,86661,4610,0.867,-0.196,0.215,-31.3,14.3,3.3,-3.6,31.4,-14.7,0.335551012,0.470748009,-0.427808466,0.694784387
34,89136,4610,0.86,-0.196,0.215,-31.6,14,3.3,-3.6,31.4,-14.7,0.335947752,0.470290231,-0.428205206,0.694662313
35,91525,4610,0.863,-0.196,0.211,-31.9,13.8,3.1,-3.6,31.4,-14.7,0.336375011,0.469801935,-0.428632466,0.69450972
36,95074,4610,0.86,-0.211,0.207,-32.3,13.6,3,-3.4,31.7,-14.2,0.336771752,0.469344157,-0.429059725,0.694387646
37,97353,4620,0.86,-0.208,0.207,-32.9,13.4,2.9,-3.4,31.7,-14.2,0.337199011,0.468855861,-0.429486984,0.694235054
38,99666,4620,0.863,-0.212,0.203,-33.5,12.9,2.8,-3.4,31.7,-14.2,0.33762627,0.468398083,-0.429914243,0.694082461
39,101811,4620,0.867,-0.208,0.195,-34,12.4,2.7,-3.4,31.7,-14.2,0.338023011,0.467940306,-0.430372021,0.69389935
40,104720,4620,0.859,-0.219,0.196,-34.4,11.8,2.6,-3.6,31.7,-14.8,0.33845027,0.467482528,-0.430829798,0.693716239
41,107116,4630,0.863,-0.216,0.192,-34.7,11.1,2.7,-3.6,31.7,-14.8,0.338877529,0.467024751,-0.431287576,0.693533128
42,109403,4630,0.867,-0.212,0.195,-34.9,10.4,3,-3.6,31.7,-14.8,0.33927427,0.466566973,-0.431775872,0.693319498
43,111522,4630,0.871,-0.22,0.191,-35.2,9.8,3.3,-3.6,31.7,-14.8,0.339701529,0.466139714,-0.432264168,0.693105869
44,113818,4630,0.871,-0.22,0.191,-35.2,9.8,3.3,-3.6,31.7,-14.8,0.339701529,0.466139714,-0.432264168,0.693105869
45,116154,4640,0.879,-0.216,0.191,-35.8,8.6,3.4,-2.1,31,-13.9,0.340647603,0.465315714,-0.433088168,0.69267861
46,119693,4640,0.883,-0.22,0.191,-36.1,7.9,3.2,-2.1,31,-13.9,0.341044343,0.464918973,-0.433606983,0.692434462
47,121964,4640,0.891,-0.22,0.191,-36.3,7.3,3.1,-2.1,31,-13.9,0.341441084,0.464491714,-0.434156316,0.692190313
48,124203,4640,0.891,-0.22,0.191,-36.3,6.7,3.1,-2.8,31.1,-13.8,0.341807306,0.464094974,-0.43467513,0.691946165
49,126504,4650,0.895,-0.228,0.195,-36.3,6.3,3,-2.8,31.1,-13.8,0.342204047,0.463698233,-0.435193945,0.691671499
50,128874,4650,0.898,-0.224,0.187,-36.2,6.1,2.6,-2.8,31.1,-13.8,0.342600787,0.463301492,-0.435743278,0.691396832
51,131157,4650,0.898,-0.228,0.199,-36,5.7,2,-2.8,31.1,-13.8,0.342967009,0.46293527,-0.436262093,0.691152684
52,134776,4650,0.906,-0.228,0.191,-35.5,5.5,1.4,-2.5,31.1,-13.9,0.34336375,0.462569048,-0.436780908,0.690878018
53,136968,4660,0.91,-0.232,0.191,-34.9,5.3,0.7,-2.5,31.1,-13.9,0.343760491,0.462233345,-0.437269204,0.690603351
54,139187,4660,0.91,-0.232,0.191,-34,5.3,0.3,-2.5,31.1,-13.9,0.344157231,0.461867122,-0.437726981,0.690328684
55,141450,4660,0.914,-0.24,0.183,-33.1,5.4,0,-2.5,31.1,-13.9,0.344523453,0.461561937,-0.438184759,0.690054018
56,144400,4660,0.922,-0.24,0.183,-31.9,5.9,-0.4,-2,31.7,-13.5,0.344920194,0.461226234,-0.438612018,0.68980987
57,146620,4670,0.918,-0.22,0.191,-30.6,6.6,-1,-2,31.7,-13.5,0.345316935,0.46089053,-0.439039277,0.68959624
58,148891,4670,0.899,-0.204,0.199,-29.1,7.5,-2.1,-2,31.7,-13.5,0.345713675,0.460585345,-0.439374981,0.689352092
59,151729,4670,0.895,-0.2,0.191,-27.7,8.3,-3.1,-2,31.7,-13.5,0.346110416,0.46028016,-0.439710685,0.689168981
60,154685,4670,0.906,-0.212,0.195,-27,8.6,-3.7,-2,31.1,-13.3,0.346537675,0.459974975,-0.44001587,0.688955351
61,156234,4680,0.914,-0.205,0.191,-27.1,8.3,-3.6,-2,31.1,-13.3,0.346934416,0.459700308,-0.440321055,0.688741722
62,159120,4680,0.914,-0.209,0.194,-28,7.8,-3.1,-2,31.1,-13.3,0.347331156,0.459395123,-0.440656758,0.688528092
63,161346,4680,0.918,-0.209,0.198,-29.3,7.2,-2.8,-2,31.1,-13.3,0.347727897,0.459089938,-0.44102298,0.688314463
64,164446,4680,0.918,-0.209,0.198,-29.3,7.2,-2.8,-2,31.1,-13.3,0.347727897,0.459089938,-0.44102298,0.688314463
65,166673,4690,0.922,-0.224,0.194,-31.4,6.6,-3.2,-2.7,31.5,-13.2,0.3488876,0.458662679,-0.441480758,0.687704093
66,168788,4690,0.922,-0.224,0.198,-32,6.3,-3.7,-2.7,31.5,-13.2,0.349345378,0.458357494,-0.44184698,0.687429426
67,171605,4690,0.93,-0.224,0.194,-32.3,6,-4.3,-2.7,31.5,-13.2,0.349772637,0.458082827,-0.442243721,0.687154759
68,174704,4690,0.934,-0.232,0.202,-32.4,5.7,-4.8,-2.2,31.8,-13.4,0.350230415,0.457777642,-0.442640461,0.686849574
69,176323,4700,0.93,-0.232,0.198,-32.5,5.5,-5.4,-2.2,31.8,-13.4,0.350688192,0.457502976,-0.443037202,0.686544389
70,179486,4700,0.934,-0.24,0.21,-32.6,5.3,-5.8,-2.2,31.8,-13.4,0.351176489,0.457228309,-0.443433943,0.686239204
71,181559,4700,0.934,-0.24,0.206,-32.8,5.1,-6.2,-2.2,31.8,-13.4,0.351634266,0.456953642,-0.443830683,0.685934019
72,184562,4700,0.938,-0.24,0.21,-33,5,-6.5,-2.7,31.9,-12.6,0.352122562,0.456709494,-0.444227424,0.685598315
73,186769,4710,0.938,-0.24,0.214,-33.3,5.2,-6.7,-2.7,31.9,-12.6,0.352610858,0.456434828,-0.444593646,0.68529313
74,189051,4710,0.938,-0.248,0.214,-33.5,5.2,-6.8,-2.7,31.9,-12.6,0.353068636,0.456160161,-0.444990387,0.684957427
75,191277,4710,0.938,-0.244,0.214,-33.7,5.2,-7,-2.7,31.9,-12.6,0.353587451,0.455885495,-0.445387127,0.684621723
76,194061,4710,0.941,-0.252,0.214,-34.2,5.2,-7.2,-2.3,31.6,-12.6,0.354075747,0.455610828,-0.445783868,0.684286019
77,197032,4720,0.941,-0.252,0.218,-34.8,5.2,-7.3,-2.3,31.6,-12.6,0.354594562,0.455336161,-0.446211127,0.683950316
78,198697,4720,0.949,-0.252,0.217,-35.6,5.2,-7.4,-2.3,31.6,-12.6,0.355113376,0.455061495,-0.446607868,0.683584094
79,201544,4720,0.953,-0.256,0.217,-36.4,5.1,-7.6,-2.3,31.6,-12.6,0.355632191,0.454786828,-0.447035127,0.68324839
80,204550,4720,0.957,-0.256,0.213,-37.2,5.2,-7.8,-2.7,32,-12.5,0.356151006,0.454481643,-0.447462386,0.68285165
81,206087,4730,0.969,-0.264,0.209,-37.9,5.2,-8,-2.7,32,-12.5,0.356700339,0.454176458,-0.447920164,0.682485427
82,209116,4730,0.973,-0.264,0.205,-38.5,5.2,-8.2,-2.7,32,-12.5,0.35728019,0.453901791,-0.448377941,0.682088687
83,211465,4730,0.977,-0.264,0.209,-38.8,5.1,-8.5,-2.7,32,-12.5,0.357829524,0.453596606,-0.448835719,0.681691946
84,213788,4730,0.977,-0.264,0.209,-38.8,5.1,-8.5,-2.7,32,-12.5,0.357829524,0.453596606,-0.448835719,0.681691946
85,215970,4740,0.988,-0.264,0.205,-38.7,4.8,-9.1,-3.4,31.9,-12.7,0.359080782,0.453047273,-0.449568163,0.680898465
86,218736,4740,0.988,-0.264,0.205,-38.4,4.8,-9.5,-3.4,31.9,-12.7,0.359660634,0.452772607,-0.450025941,0.680501724
87,221798,4740,0.992,-0.265,0.201,-38,4.8,-9.8,-3.4,31.9,-12.7,0.360209967,0.45249794,-0.4504532,0.680104984
88,223449,4740,0.984,-0.257,0.205,-37.4,4.8,-10.2,-2.2,32.3,-12.4,0.360789819,0.452223273,-0.45084994,0.679708243
89,226184,4750,0.984,-0.264,0.209,-36.8,5.1,-10.7,-2.2,32.3,-12.4,0.361369671,0.451948607,-0.4512772,0.679311502
90,229315,4750,0.984,-0.26,0.201,-36.2,5.4,-11.3,-2.2,32.3,-12.4,0.361949522,0.451704459,-0.451643422,0.678914762
91,232123,4750,0.98,-0.26,0.209,-35.5,5.7,-12,-2.2,32.3,-12.4,0.362529374,0.451460311,-0.452009644,0.678518021
92,233647,4750,0.977,-0.268,0.209,-35,5.9,-12.9,-1.9,32.3,-12.7,0.363109226,0.451216163,-0.452345347,0.678121281
93,236599,4760,0.977,-0.264,0.209,-34.5,6,-13.8,-1.9,32.3,-12.7,0.363719596,0.451002533,-0.452681051,0.67772454
94,239576,4760,0.973,-0.272,0.205,-34.1,6.2,-14.7,-1.9,32.3,-12.7,0.364329966,0.450788903,-0.452986236,0.677358318
95,241191,4760,0.973,-0.276,0.213,-34,6.3,-15.6,-1.9,32.3,-12.7,0.364970855,0.450575274,-0.453291421,0.676961577
96,244137,4760,0.969,-0.28,0.213,-33.9,6.3,-16.6,-1.9,32.2,-12.1,0.365611744,0.450361644,-0.453566088,0.676534318
97,247144,4770,0.976,-0.28,0.213,-33.7,6.3,-17.4,-1.9,32.2,-12.1,0.366252632,0.450178533,-0.453840754,0.676137577
98,248693,4770,0.965,-0.276,0.213,-33.7,6.3,-18.1,-1.9,32.2,-12.1,0.366924039,0.449995422,-0.454115421,0.675710318
99,251479,4770,0.961,-0.284,0.209,-33.8,6.4,-18.8,-1.9,32.2,-12.1,0.367595447,0.449812311,-0.454390088,0.675283059
100,254607,4770,0.961,-0.283,0.213,-34.1,6.4,-19.2,-1.9,32.3,-12.2,0.368266854,0.4496292,-0.454634236,0.6748558
101,256088,4780,0.953,-0.291,0.21,-34.4,6.6,-19.5,-1.9,32.3,-12.2,0.36896878,0.449446089,-0.454908902,0.674428541
102,259138,4780,0.953,-0.283,0.213,-34.9,6.6,-19.7,-1.9,32.3,-12.2,0.369670705,0.449262978,-0.455183569,0.674001282
103,261524,4780,0.945,-0.291,0.21,-35.3,6.6,-19.9,-1.9,32.3,-12.2,0.370372631,0.449079867,-0.455427717,0.673543504
104,264127,4780,0.945,-0.291,0.21,-35.3,6.6,-19.9,-1.9,32.3,-12.2,0.370372631,0.449079867,-0.455427717,0.673543504
105,267382,4790,0.941,-0.287,0.206,-36.1,6.1,-20.3,-1.9,32.3,-12.2,0.371868038,0.448530534,-0.455854976,0.67281106
106,269911,4790,0.937,-0.291,0.206,-36.3,6.1,-20.4,-1.9,32.3,-12.2,0.372569964,0.448347423,-0.456160161,0.672353282
107,272185,4790,0.933,-0.295,0.206,-36.5,6.3,-20.4,-1.9,32.3,-12.2,0.373302408,0.448164312,-0.456434828,0.671864986
108,274371,4790,0.933,-0.287,0.206,-36.5,6.4,-20.4,-2.9,33,-11.9,0.374004334,0.447981201,-0.456709494,0.671407208
109,276888,4800,0.93,-0.295,0.202,-36.2,6.4,-20.6,-2.9,33,-11.9,0.374736778,0.44779809,-0.456984161,0.670949431
110,278793,4800,0.933,-0.287,0.206,-35.9,6.3,-20.8,-2.9,33,-11.9,0.375469222,0.447614978,-0.457258827,0.670461135
111,282535,4800,0.926,-0.291,0.202,-35.5,6.1,-20.9,-2.9,33,-11.9,0.376171148,0.447431867,-0.457502976,0.670003357
112,284744,4800,0.926,-0.287,0.202,-35.1,5.8,-21,-3.4,33,-11.5,0.376873074,0.447279275,-0.457777642,0.669545579
113,287368,4810,0.929,-0.287,0.194,-34.7,5.6,-21.1,-3.4,33,-11.5,0.377574999,0.447096164,-0.458052309,0.669087802
114,289392,4810,0.926,-0.291,0.206,-34.2,5.4,-21.2,-3.4,33,-11.5,0.378276925,0.44697409,-0.458296457,0.668599506
115,291823,4810,0.933,-0.291,0.194,-33.8,5.4,-21.3,-3.4,33,-11.5,0.378978851,0.446821497,-0.458540605,0.668141728
116,293921,4810,0.933,-0.295,0.198,-33.3,5.3,-21.3,-2.8,32.9,-11.7,0.379680776,0.446668905,-0.458754234,0.66768395
117,297658,4820,0.933,-0.291,0.198,-32.6,5.1,-21.3,-2.8,32.9,-11.7,0.380352184,0.446546831,-0.458998383,0.667226173
118,300038,4820,0.937,-0.283,0.198,-31.8,4.9,-21.3,-2.8,32.9,-11.7,0.381023591,0.446424757,-0.459212012,0.666798914
119,302294,4820,0.949,-0.279,0.194,-30.9,4.7,-21.2,-2.8,32.9,-11.7,0.38166448,0.446302683,-0.459395123,0.666341136
120,304487,4820,0.945,-0.279,0.19,-30.1,4.6,-21.1,-3.2,33.1,-11.3,0.382335887,0.446211127,-0.459608753,0.665913877
121,306389,4830,0.949,-0.272,0.19,-29.3,4.4,-21.1,-3.2,33.1,-11.3,0.382976775,0.446089053,-0.459791864,0.665486618
122,309827,4830,0.949,-0.268,0.194,-28.6,4.3,-20.9,-3.2,33.1,-11.3,0.383587146,0.445997497,-0.459944456,0.66502884
123,312150,4830,0.961,-0.264,0.186,-28,4.1,-20.6,-3.2,33.1,-11.3,0.384197516,0.44593646,-0.460127567,0.664662618
124,314524,4830,0.961,-0.264,0.186,-28,4.1,-20.6,-3.2,33.1,-11.3,0.384197516,0.44593646,-0.460127567,0.664662618
125,316589,4840,0.965,-0.252,0.194,-27.1,3.9,-20,-3.2,33.1,-11.3,0.385418256,0.445661794,-0.460402234,0.663930174
126,319041,4840,0.965,-0.256,0.19,-26.6,3.7,-20,-3.2,33.1,-11.3,0.385998108,0.445600757,-0.460554827,0.663502915
127,321749,4840,0.969,-0.245,0.186,-26.1,3.5,-19.9,-3.2,33.1,-11.3,0.38657796,0.44553972,-0.460707419,0.663106174
128,324060,4840,0.973,-0.249,0.19,-25.3,3.5,-19.8,-3.5,33.2,-10.5,0.387157811,0.445448164,-0.460860012,0.662739952
129,326395,4850,0.98,-0.245,0.182,-24.5,3.7,-19.8,-3.5,33.2,-10.5,0.387707144,0.445387127,-0.460982086,0.662343211
130,328466,4850,0.969,-0.233,0.182,-23.5,4.1,-19.8,-3.5,33.2,-10.5,0.388286996,0.44532609,-0.46110416,0.661976989
131,331582,4850,0.965,-0.237,0.186,-22.5,4.4,-19.8,-3.5,33.2,-10.5,0.388836329,0.445295572,-0.461195715,0.661641285
132,333849,4850,0.965,-0.241,0.182,-21.6,4.6,-19.7,-3.6,33.6,-9.6,0.389385662,0.445234535,-0.461287271,0.661305582
133,337597,4860,0.969,-0.237,0.174,-20.8,4.8,-19.5,-3.6,33.6,-9.6,0.389904477,0.445173498,-0.461348308,0.660969878
134,339673,4860,0.957,-0.229,0.178,-20.3,5,-19.3,-3.6,33.6,-9.6,0.390423292,0.445142979,-0.461409345,0.660634175
135,341892,4860,0.953,-0.229,0.178,-20.1,5.3,-19,-3.6,33.6,-9.6,0.390972625,0.445081942,-0.461470382,0.66032899
136,344082,4860,0.953,-0.225,0.178,-19.9,5.5,-18.9,-3.3,33.2,-9.2,0.39149144,0.445020905,-0.461531419,0.660023804
137,346360,4870,0.949,-0.229,0.178,-19.7,5.6,-18.7,-3.3,33.2,-9.2,0.392010254,0.444959868,-0.461592456,0.659718619
138,348620,4870,0.941,-0.233,0.182,-19.7,5.6,-18.5,-3.3,33.2,-9.2,0.39249855,0.444898831,-0.461653493,0.659413434
139,352085,4870,0.937,-0.229,0.175,-20,5.6,-18.2,-3.3,33.2,-9.2,0.393017365,0.444807276,-0.46171453,0.659108249
140,353756,4870,0.937,-0.229,0.175,-20.6,5.5,-17.9,-3.6,33.3,-9,0.39353618,0.444746239,-0.461775567,0.658803064
141,356226,4880,0.929,-0.24,0.167,-21.5,5.3,-17.6,-3.6,33.3,-9,0.394054994,0.444654683,-0.461867122,0.658497879
142,359694,4880,0.937,-0.24,0.171,-22.4,5.2,-17.5,-3.6,33.3,-9,0.394573809,0.444563128,-0.461989196,0.658162175
143,361219,4880,0.929,-0.24,0.167,-23.3,5,-17.3,-3.6,33.3,-9,0.395092624,0.444471572,-0.46211127,0.657826472
144,363584,4880,0.929,-0.24,0.167,-23.3,5,-17.3,-3.6,33.3,-9,0.395092624,0.444471572,-0.46211127,0.657826472
145,367234,4890,0.922,-0.248,0.167,-24.3,5.3,-16.8,-3.6,33.3,-9,0.39619129,0.444318979,-0.462355419,0.657094028
146,369489,4890,0.914,-0.252,0.171,-24.6,5.5,-16.3,-3.6,33.3,-9,0.396740623,0.444196905,-0.462477493,0.656758324
147,371768,4890,0.91,-0.252,0.167,-24.9,5.6,-15.9,-3.6,33.3,-9,0.397259438,0.444044313,-0.462660604,0.65642262
148,374055,4890,0.906,-0.255,0.167,-25.2,5.9,-15.6,-3.8,33.3,-10.3,0.397778253,0.44389172,-0.462813196,0.656086917
149,376184,4900,0.906,-0.267,0.167,-25.7,6.1,-15.2,-3.8,33.3,-10.3,0.398327586,0.443739128,-0.462965789,0.655751213
150,379846,4900,0.902,-0.271,0.164,-26.3,6.1,-14.8,-3.8,33.3,-10.3,0.3988464,0.443586535,-0.4631489,0.65541551
151,382160,4900,0.906,-0.267,0.163,-26.8,5.9,-14.5,-3.8,33.3,-10.3,0.399365215,0.443403424,-0.463332011,0.655079806
152,384633,4900,0.906,-0.275,0.163,-27.2,5.7,-14.2,-3.8,33.2,-10.4,0.399914548,0.443220313,-0.46354564,0.654744102
153,386727,4910,0.906,-0.279,0.167,-27.5,5.5,-13.8,-3.8,33.2,-10.4,0.400433363,0.443037202,-0.46375927,0.654408399
154,388937,4910,0.914,-0.279,0.159,-27.5,5.4,-13.3,-3.8,33.2,-10.4,0.400952177,0.442854091,-0.4639729,0.654042177
155,391110,4910,0.91,-0.283,0.163,-27.5,5.3,-12.9,-3.8,33.2,-10.4,0.401440474,0.44267098,-0.464186529,0.653706473
156,393816,4910,0.906,-0.275,0.163,-27.3,5.1,-12.5,-3.9,33.3,-10.7,0.40192877,0.442487869,-0.464430677,0.653370769
157,396848,4920,0.914,-0.283,0.163,-27.2,4.7,-12,-3.9,33.3,-10.7,0.402417066,0.442304758,-0.464644307,0.653035066
158,399835,4920,0.914,-0.283,0.171,-27.1,4.3,-11.6,-3.9,33.3,-10.7,0.402905362,0.442121647,-0.464888455,0.652699362
159,401291,4920,0.922,-0.279,0.175,-27,4,-11.1,-3.9,33.3,-10.7,0.40336314,0.441938536,-0.465132603,0.652363659
160,404210,4920,0.922,-0.279,0.179,-27,3.5,-10.8,-4.1,33.4,-11.5,0.403790399,0.441755425,-0.465376751,0.652027955
161,407252,4930,0.922,-0.283,0.175,-26.7,3.2,-10.4,-4.1,33.4,-11.5,0.404248177,0.441602832,-0.465620899,0.651692251
162,408678,4930,0.929,-0.279,0.179,-26.5,2.8,-10.1,-4.1,33.4,-11.5,0.404675436,0.441419721,-0.465895566,0.651356548
163,411604,4930,0.93,-0.279,0.19,-26.3,2.4,-9.9,-4.1,33.4,-11.5,0.405102695,0.441267129,-0.466139714,0.651051363
164,415061,4930,0.93,-0.279,0.19,-26.3,2.4,-9.9,-4.1,33.4,-11.5,0.405102695,0.441267129,-0.466139714,0.651051363
165,416863,4940,0.93,-0.275,0.19,-25.7,1.8,-9.6,-4.1,33.4,-11.5,0.405713065,0.440656758,-0.466811121,0.650563066
166,419835,4940,0.933,-0.279,0.19,-25.3,1.7,-9.6,-4.1,33.4,-11.5,0.406109806,0.440504166,-0.467085788,0.650257881
167,421385,4940,0.941,-0.283,0.194,-24.9,1.8,-9.5,-4.1,33.4,-11.5,0.406506546,0.440351573,-0.467329936,0.649922178
168,424435,4940,0.937,-0.279,0.206,-24.6,2,-9.4,-3.9,33.1,-9.9,0.406903287,0.440198981,-0.467574084,0.649616993
169,426201,4950,0.941,-0.291,0.202,-24.4,2.3,-9.3,-3.9,33.1,-9.9,0.407269509,0.440046388,-0.467787713,0.649281289
170,429515,4950,0.937,-0.287,0.206,-24.4,2.6,-9.4,-3.9,33.1,-9.9,0.40766625,0.439893796,-0.468031861,0.648976104
171,431776,4950,0.937,-0.295,0.206,-24.6,2.8,-9.4,-3.9,33.1,-9.9,0.40806299,0.439741203,-0.468276009,0.648670919
172,433999,4950,0.933,-0.307,0.206,-24.7,2.9,-9.5,-3.8,33.2,-10,0.408490249,0.439558092,-0.468489639,0.648365734
173,436322,4960,0.933,-0.295,0.21,-24.9,3,-9.4,-3.8,33.2,-10,0.40888699,0.439405499,-0.468733787,0.648060549
174,438464,4960,0.93,-0.306,0.214,-25.1,3.1,-9.5,-3.8,33.2,-10,0.409283731,0.439222388,-0.468977935,0.647755364
175,442173,4960,0.933,-0.306,0.218,-25.1,3.1,-9.5,-3.8,33.2,-10,0.409680471,0.439039277,-0.469191565,0.64741966
176,444388,4960,0.93,-0.306,0.218,-25.1,2.9,-9.6,-3.8,33.4,-9.8,0.41010773,0.438886685,-0.469435713,0.647114475
177,446668,4970,0.926,-0.306,0.218,-25.2,2.9,-9.5,-3.8,33.4,-9.8,0.410504471,0.438703574,-0.469679861,0.64680929
178,448943,4970,0.918,-0.314,0.218,-25.3,3,-9.4,-3.8,33.4,-9.8,0.41093173,0.438550981,-0.469924009,0.646473586
179,450919,4970,0.918,-0.314,0.218,-25.3,3,-9.4,-3.8,33.4,-9.8,0.41093173,0.438550981,-0.469924009,0.646473586
180,454695,4970,0.914,-0.322,0.218,-25.3,3.4,-9.3,-3.9,33.5,-9.6,0.411725211,0.438184759,-0.470381787,0.645863216
181,456237,4980,0.906,-0.325,0.226,-25.2,3.5,-9.2,-3.9,33.5,-9.6,0.41215247,0.437971129,-0.470625935,0.645558031
182,459837,4980,0.902,-0.325,0.218,-25,3.5,-9.2,-3.9,33.5,-9.6,0.412549211,0.437818537,-0.470870083,0.645252846
183,461399,4980,0.906,-0.322,0.222,-24.7,3.5,-9.3,-3.9,33.5,-9.6,0.412945952,0.437635426,-0.471083712,0.644947661
184,464431,4980,0.906,-0.322,0.222,-24.7,3.5,-9.3,-3.9,33.5,-9.6,0.412945952,0.437635426,-0.471083712,0.644947661
185,466862,4990,0.898,-0.333,0.219,-24.1,3.5,-9.3,-3.9,33.5,-9.6,0.413403729,0.436353648,-0.471724601,0.645069735
186,468942,4990,0.902,-0.333,0.222,-23.7,3.3,-9.2,-3.9,33.5,-9.6,0.41380047,0.436201056,-0.471938231,0.64476455
187,472070,4990,0.898,-0.333,0.222,-23.3,3.1,-9.2,-3.9,33.5,-9.6,0.414166692,0.436017945,-0.47215186,0.644459365
188,474238,4990,0.898,-0.337,0.219,-22.7,2.9,-9.2,-4.1,32.9,-10.5,0.414532914,0.435895871,-0.47236549,0.644184698
189,476593,5000,0.898,-0.337,0.222,-22.1,2.5,-9.2,-4.1,32.9,-10.5,0.414929655,0.435743278,-0.472548601,0.643879513
190,478965,5000,0.906,-0.341,0.226,-21.6,2.2,-9.1,-4.1,32.9,-10.5,0.415265358,0.435621204,-0.47276223,0.643604846
191,482682,5000,0.902,-0.341,0.222,-21,1.9,-9.1,-4.1,32.9,-10.5,0.415631581,0.43549913,-0.472945341,0.64333018
192,484906,5000,0.91,-0.337,0.23,-20.5,1.7,-8.9,-4.2,32.8,-10.6,0.415967284,0.435377056,-0.473128452,0.643055513
193,487224,5010,0.914,-0.333,0.23,-19.9,1.5,-8.7,-4.2,32.8,-10.6,0.416302988,0.435254982,-0.473311563,0.642780847
194,489533,5010,0.914,-0.337,0.23,-19.5,1.3,-8.6,-4.2,32.8,-10.6,0.416608173,0.435132908,-0.473494675,0.64250618
195,491686,5010,0.914,-0.337,0.234,-19.1,1.1,-8.4,-4.2,32.8,-10.6,0.416913358,0.435041353,-0.473677786,0.642262032
196,493731,5010,0.918,-0.333,0.23,-18.8,0.9,-8.2,-4.2,32.3,-10.3,0.417218543,0.434949797,-0.473860897,0.641987365
197,497583,5020,0.922,-0.33,0.234,-18.4,0.8,-7.9,-4.2,32.3,-10.3,0.417523728,0.434858242,-0.474013489,0.641743217
198,499729,5020,0.922,-0.326,0.234,-18,0.7,-7.6,-4.2,32.3,-10.3,0.417798395,0.434736167,-0.4741966,0.641499069
199,502099,5020,0.93,-0.338,0.238,-17.5,0.6,-7.2,-4.2,32.3,-10.3,0.418073061,0.434644612,-0.474379711,0.641254921
200,505234,5020,0.937,-0.322,0.233,-17,0.5,-6.9,-4.5,32.6,-10.6,0.418347728,0.434553056,-0.474532304,0.641010773
201,507380,5030,0.937,-0.33,0.241,-16.5,0.4,-6.6,-4.5,32.6,-10.6,0.418591876,0.434461501,-0.474715415,0.640766625
202,510073,5030,0.937,-0.33,0.237,-15.9,0.4,-6.4,-4.5,32.6,-10.6,0.418836024,0.434400464,-0.474868007,0.640552995
203,512292,5030,0.937,-0.322,0.237,-15.4,0.4,-6.3,-4.5,32.6,-10.6,0.419080172,0.434308908,-0.4750206,0.640339366
204,514524,5030,0.937,-0.322,0.237,-15.4,0.4,-6.3,-4.5,32.6,-10.6,0.419080172,0.434308908,-0.4750206,0.640339366
205,516643,5040,0.945,-0.322,0.241,-14.2,0.6,-6.1,-4.5,32.6,-10.6,0.419354839,0.433515427,-0.475356304,0.64046144
206,518915,5040,0.949,-0.326,0.241,-13.5,0.8,-5.9,-4.5,32.6,-10.6,0.419598987,0.433423872,-0.475478378,0.640278329
207,522643,5040,0.953,-0.326,0.237,-12.9,1,-5.8,-4.5,32.6,-10.6,0.419812616,0.433362835,-0.475600452,0.640095218
208,524918,5040,0.957,-0.326,0.241,-12.3,1.2,-5.5,-4.1,33.8,-9.4,0.419995727,0.433301798,-0.475692007,0.639912107
209,526874,5050,0.957,-0.326,0.241,-11.7,1.3,-5.5,-4.1,33.8,-9.4,0.420209357,0.433210242,-0.475814081,0.639759514
210,529111,5050,0.957,-0.334,0.241,-11.2,1.4,-5.5,-4.1,33.8,-9.4,0.420392468,0.433149205,-0.475905637,0.639606922
211,532710,5050,0.957,-0.338,0.241,-10.8,1.5,-5.6,-4.1,33.8,-9.4,0.420606098,0.433088168,-0.475966674,0.639454329
212,534952,5050,0.957,-0.338,0.237,-10.6,1.6,-5.6,-4.4,34.3,-9.4,0.420789209,0.433027131,-0.476058229,0.639301737
213,536962,5060,0.957,-0.342,0.241,-10.4,1.7,-5.5,-4.4,34.3,-9.4,0.421002838,0.432966094,-0.476149785,0.639179662
214,539394,5060,0.961,-0.35,0.241,-10.3,1.8,-5.5,-4.4,34.3,-9.4,0.421185949,0.432905057,-0.476210822,0.63902707
215,541527,5060,0.961,-0.35,0.237,-10.1,1.9,-5.3,-4.4,34.3,-9.4,0.42136906,0.43284402,-0.476271859,0.638904996
216,543725,5060,0.953,-0.354,0.237,-9.9,2,-5.3,-4.3,34.6,-9.5,0.42158269,0.432782983,-0.476363414,0.638752403
217,546860,5070,0.957,-0.358,0.241,-9.8,2.2,-5.3,-4.3,34.6,-9.5,0.421765801,0.432691427,-0.476424451,0.638630329
218,549120,5070,0.961,-0.361,0.249,-9.7,2.5,-5.3,-4.3,34.6,-9.5,0.421948912,0.43263039,-0.476485488,0.638508255
219,551495,5070,0.961,-0.365,0.253,-9.6,2.8,-5.2,-4.3,34.6,-9.5,0.422162542,0.432569353,-0.476546525,0.638386181
220,553671,5070,0.965,-0.373,0.249,-9.6,3.1,-5.1,-4.5,34.5,-9.4,0.422345653,0.432477798,-0.476607562,0.638264107
221,556921,5080,0.961,-0.385,0.257,-9.8,3.3,-5,-4.5,34.5,-9.4,0.422528764,0.432386242,-0.4766686,0.638142033
222,558917,5080,0.961,-0.385,0.257,-10,3.6,-5,-4.5,34.5,-9.4,0.422742393,0.432294687,-0.476729637,0.638019959
223,561208,5080,0.965,-0.397,0.257,-10.2,3.9,-4.9,-4.5,34.5,-9.4,0.422956023,0.432203131,-0.476790674,0.637928404
224,564901,5080,0.965,-0.397,0.257,-10.2,3.9,-4.9,-4.5,34.5,-9.4,0.422956023,0.432203131,-0.476790674,0.637928404
225,567158,5090,0.965,-0.412,0.26,-10.8,5,-5,-4.5,34.5,-9.4,0.423078097,0.43119602,-0.477095859,0.638294626
226,569503,5090,0.965,-0.416,0.26,-11.1,5.6,-4.9,-4.5,34.5,-9.4,0.423291726,0.431073946,-0.477126377,0.638172552
227,571571,5090,0.968,-0.424,0.26,-11.4,6.3,-4.9,-4.5,34.5,-9.4,0.423535875,0.430921354,-0.477187414,0.638080996
228,573910,5090,0.965,-0.436,0.261,-11.5,6.8,-4.8,-4.1,33.9,-8.7,0.423780023,0.430768761,-0.477248451,0.637958922
229,576192,5100,0.957,-0.455,0.257,-11.6,7.3,-4.9,-4.1,33.9,-8.7,0.424054689,0.430616169,-0.477309488,0.637867367
230,579453,5100,0.961,-0.459,0.261,-11.4,7.6,-5,-4.1,33.9,-8.7,0.424298837,0.430463576,-0.477340007,0.637775811
231,581765,5100,0.957,-0.467,0.257,-11.1,8,-5.3,-4.1,33.9,-8.7,0.424573504,0.430280465,-0.477370525,0.637684256
232,583938,5100,0.953,-0.486,0.245,-10.6,8.3,-5.6,-4.1,34,-9.1,0.424817652,0.430127873,-0.477370525,0.6375927
233,586325,5110,0.949,-0.498,0.245,-9.9,8.7,-6,-4.1,34,-9.1,0.425092318,0.42997528,-0.477401044,0.637531663
234,588650,5110,0.945,-0.506,0.241,-9.1,8.9,-6.3,-4.1,34,-9.1,0.425366985,0.429853206,-0.477370525,0.637470626
235,592329,5110,0.941,-0.517,0.242,-8.2,9,-6.5,-4.1,34,-9.1,0.425641652,0.429700613,-0.477340007,0.637409589
236,594545,5110,0.941,-0.541,0.234,-7.1,9.1,-6.7,-4.5,33.8,-8.6,0.4258858,0.429578539,-0.47727897,0.637348552
237,596899,5120,0.937,-0.549,0.234,-5.9,9,-7,-4.5,33.8,-8.6,0.426129948,0.429486984,-0.477217933,0.637318033
238,599201,5120,0.937,-0.556,0.238,-4.7,8.9,-7.1,-4.5,33.8,-8.6,0.426374096,0.429395428,-0.477126377,0.637256996
239,602160,5120,0.921,-0.572,0.23,-3.4,8.7,-7.1,-4.5,33.8,-8.6,0.426587725,0.429303873,-0.477034822,0.637256996
240,603755,5120,0.921,-0.584,0.226,-2.1,8.4,-6.9,-4.7,34.2,-9.3,0.426801355,0.429242836,-0.476912748,0.637256996
241,606893,5130,0.917,-0.584,0.223,-0.8,8.1,-6.7,-4.7,34.2,-9.3,0.426984466,0.429181799,-0.476790674,0.637256996
242,608794,5130,0.917,-0.599,0.223,0.5,7.6,-6.3,-4.7,34.2,-9.3,0.427137059,0.42915128,-0.4766686,0.637256996
243,611922,5130,0.917,-0.603,0.219,2.1,7,-5.8,-4.7,34.2,-9.3,0.427289651,0.429120762,-0.476516007,0.637287515
244,614084,5130,0.917,-0.607,0.219,3.8,6.4,-5.2,-4.7,34.2,-9.3,0.427381207,0.429120762,-0.476332896,0.637348552
245,616344,5140,0.917,-0.607,0.223,5.7,5.7,-4.6,-4.7,34.2,-9.3,0.427472762,0.42915128,-0.476180303,0.637409589
246,618699,5140,0.921,-0.607,0.219,7.9,5,-4.1,-4.7,34.2,-9.3,0.427503281,0.429212317,-0.475966674,0.637501144
247,622310,5140,0.936,-0.623,0.222,10.2,4.4,-3.5,-4.7,34.2,-9.3,0.427503281,0.429273354,-0.475753044,0.637623218
248,623924,5140,0.936,-0.619,0.226,12.6,4,-2.8,-5.1,34.1,-9.2,0.427442244,0.42936491,-0.475508896,0.637775811
249,627052,5150,0.936,-0.615,0.234,15.1,3.7,-2,-5.1,34.1,-9.2,0.427381207,0.429486984,-0.475264748,0.637928404
250,629322,5150,0.94,-0.611,0.238,17.5,3.3,-1.2,-5.1,34.1,-9.2,0.427259133,0.429609058,-0.474959563,0.638142033
251,631152,5150,0.944,-0.619,0.242,19.6,2.9,-0.5,-5.1,34.1,-9.2,0.42710654,0.42976165,-0.474654378,0.638355663
252,633647,5150,0.944,-0.619,0.25,21,2.4,0,-5.5,34.2,-9,0.426953948,0.429914243,-0.474349193,0.638599811
253,637351,5160,0.956,-0.627,0.245,22.1,2.1,0.5,-5.5,34.2,-9,0.426740318,0.430097354,-0.474013489,0.638874477
254,639555,5160,0.956,-0.635,0.249,23.2,1.9,1.1,-5.5,34.2,-9,0.426526688,0.430280465,-0.473677786,0.639149144
255,641717,5160,0.96,-0.631,0.249,24.5,2.1,1.7,-5.5,34.2,-9,0.426313059,0.430463576,-0.473342082,0.639423811
256,644362,5160,0.94,-0.631,0.261,26.1,2.7,2.1,-5.7,34.1,-9.1,0.426068911,0.430646687,-0.47297586,0.639728996
257,647213,5170,0.933,-0.627,0.269,27.9,3.8,2.2,-5.7,34.1,-9.1,0.425794244,0.430829798,-0.472579119,0.640095218
258,649121,5170,0.905,-0.63,0.27,29.7,5.2,1.6,-5.7,34.1,-9.1,0.425550096,0.431012909,-0.472121342,0.64046144
259,651482,5170,0.894,-0.634,0.278,31,6.6,1.1,-5.7,34.1,-9.1,0.425305948,0.43119602,-0.471633045,0.64085818
260,653664,5170,0.89,-0.641,0.278,32,7.6,0.8,-6.2,34.2,-9.4,0.425092318,0.431379131,-0.471114231,0.641254921
261,657358,5180,0.87,-0.657,0.282,32.7,8,0.9,-6.2,34.2,-9.4,0.42484817,0.431562243,-0.470595416,0.64168218
262,659598,5180,0.866,-0.661,0.275,33,8.1,1.2,-6.2,34.2,-9.4,0.424604022,0.431714835,-0.470076601,0.642109439
263,661067,5180,0.862,-0.672,0.271,33.3,7.9,1.7,-6.2,34.2,-9.4,0.424298837,0.431897946,-0.469557787,0.642536699
264,664661,5180,0.847,-0.696,0.259,33.6,7.6,2,-6.2,34.2,-9.4,0.424085208,0.432081057,-0.469008454,0.642963958
265,666355,5190,0.846,-0.711,0.251,34,7.3,2.2,-6.2,34.2,-9.4,0.423810541,0.432294687,-0.468489639,0.643421735
266,669414,5190,0.854,-0.723,0.247,34.4,7,2.3,-6.2,34.2,-9.4,0.423505356,0.432477798,-0.467970824,0.643848994
267,671172,5190,0.854,-0.739,0.24,35.1,6.7,2.3,-6.2,34.2,-9.4,0.423200171,0.432691427,-0.467421491,0.644306772
268,674015,5190,0.846,-0.75,0.224,36,6.3,2.2,-5.4,34,-9.8,0.422894986,0.432905057,-0.466902676,0.644734031
269,676344,5200,0.846,-0.778,0.209,37.4,5.8,2,-5.4,34,-9.8,0.422589801,0.433149205,-0.466322825,0.645191809
270,679964,5200,0.85,-0.794,0.193,39.1,5,1.6,-5.4,34,-9.8,0.422254097,0.433423872,-0.465742973,0.645649586
271,682014,5200,0.854,-0.813,0.189,41.4,4.1,1.2,-5.4,34,-9.8,0.421887875,0.433729057,-0.465132603,0.646137883
272,684417,5200,0.861,-0.845,0.177,44.1,2.8,0.8,-4.8,33.7,-9.9,0.421460616,0.43406476,-0.464491714,0.646626179
273,686714,5210,0.873,-0.861,0.173,47.1,1.5,0.8,-4.8,33.7,-9.9,0.421033357,0.434492019,-0.463820307,0.647114475
274,689042,5210,0.877,-0.872,0.173,50.3,0.3,0.8,-4.8,33.7,-9.9,0.420545061,0.434949797,-0.463118381,0.64763329
275,691343,5210,0.892,-0.888,0.177,53.4,-0.5,0.9,-4.8,33.7,-9.9,0.420026246,0.435438093,-0.462385937,0.648182623
276,694983,5210,0.908,-0.92,0.176,56.1,-0.9,0.6,-4.8,33.7,-9.9,0.419476913,0.435956908,-0.461592456,0.648731956
277,697273,5220,0.892,-0.935,0.181,58.6,-0.5,0,-4.8,33.7,-9.9,0.418897061,0.436506241,-0.460768456,0.649342326
278,699439,5220,0.873,-0.95,0.193,61.2,0.6,-0.1,-4.8,33.7,-9.9,0.418317209,0.437055574,-0.459883419,0.649952696
279,701630,5220,0.849,-0.962,0.201,64,2.2,0.3,-4.8,33.7,-9.9,0.417737358,0.437604907,-0.458967864,0.650624104
280,703813,5220,0.834,-0.989,0.209,67.1,3.6,1.7,-4.8,33.7,-9.9,0.417096469,0.438123722,-0.457991272,0.651326029
281,706327,5230,0.822,-0.992,0.209,69.9,3.8,3.8,-4.8,33.7,-9.9,0.416425062,0.438673055,-0.457014679,0.65211951
282,709957,5230,0.826,-1.016,0.213,72.4,2.5,6.6,-4.8,33.7,-9.9,0.415662099,0.439222388,-0.456007569,0.652912992
283,712546,5230,0.853,-1.044,0.221,74.5,-0.1,9.8,-4.8,33.7,-9.9,0.414807581,0.43980224,-0.455061495,0.653736991
284,714509,5230,0.865,-1.048,0.224,76.3,-3.4,13.3,-4.8,33.7,-9.9,0.413830988,0.44041261,-0.454115421,0.65459151
285,716891,5240,0.865,-1.059,0.232,78.1,-6.5,16.5,-4.8,33.7,-9.9,0.412793359,0.441053499,-0.453230384,0.655446028
286,718975,5240,0.869,-1.067,0.24,80,-8.9,19.2,-4.8,33.7,-9.9,0.411664174,0.441724906,-0.452345347,0.656331065
287,720993,5240,0.873,-1.083,0.248,82,-10.5,21.2,-4.8,33.7,-9.9,0.410443434,0.442396313,-0.451460311,0.657216102
288,724998,5240,0.873,-1.091,0.252,84.1,-11.5,22.7,-4.1,32.9,-10.9,0.409192175,0.443098239,-0.450575274,0.658131657
289,727288,5250,0.869,-1.102,0.256,86.2,-12.1,23.8,-4.1,32.9,-10.9,0.407910398,0.443800165,-0.449690237,0.659077731
290,729519,5250,0.873,-1.122,0.264,88.4,-12.4,24.9,-4.1,32.9,-10.9,0.406567583,0.444502091,-0.448744163,0.660054323
291,731664,5250,0.876,-1.134,0.267,90.6,-12.4,25.8,-4.1,32.9,-10.9,0.40519425,0.445234535,-0.44779809,0.661061434
292,733874,5250,0.884,-1.146,0.263,93,-12.4,26.8,-4.1,32.9,-10.9,0.403790399,0.445997497,-0.446852016,0.662068545
293,735964,5260,0.88,-1.149,0.263,95.5,-12.3,27.6,-4.1,32.9,-10.9,0.40232551,0.446729942,-0.445844905,0.663136692
294,740008,5260,0.868,-1.173,0.264,98.2,-12,28.5,-4.1,32.9,-10.9,0.400830103,0.447492904,-0.444807276,0.66420484
295,742371,5260,0.872,-1.184,0.26,101.2,-11.6,29.5,-4.1,32.9,-10.9,0.399304178,0.448255867,-0.443708609,0.665334025
296,744533,5260,0.868,-1.188,0.26,104.7,-11.1,30.5,-4.1,32.9,-10.9,0.397717215,0.449049348,-0.442579424,0.666493728
297,746624,5270,0.864,-1.2,0.248,108.9,-10.5,31.5,-4.1,32.9,-10.9,0.396099734,0.449812311,-0.441419721,0.667714469
298,748800,5270,0.864,-1.216,0.233,113.9,-9.9,32.4,-4.1,32.9,-10.9,0.394421216,0.450636311,-0.440137944,0.668996246
299,751992,5270,0.864,-1.22,0.225,119.5,-9.3,33.1,-4.1,32.9,-10.9,0.392651143,0.451490829,-0.438795129,0.670339061
300,753861,5270,0.872,-1.224,0.217,125.5,-8.7,33.7,-4.1,32.9,-10.9,0.390850551,0.452375866,-0.437391278,0.671742912
301,755947,5280,0.88,-1.236,0.189,131.6,-8.3,34.5,-4.1,32.9,-10.9,0.388958403,0.453291421,-0.435865352,0.673207801
302,760097,5280,0.887,-1.244,0.173,137.6,-8.4,35.4,-4.1,32.9,-10.9,0.387005219,0.454237495,-0.434247871,0.674733726
303,762199,5280,0.887,-1.252,0.154,143.6,-9.1,36.4,-4.1,32.9,-10.9,0.384960479,0.455244606,-0.432569353,0.676320688
304,764641,5280,0.883,-1.26,0.119,149.5,-10,37.7,-4.1,32.9,-10.9,0.382793664,0.456282235,-0.430829798,0.677938169
305,766854,5290,0.887,-1.26,0.095,155.6,-11.4,39,-4.1,32.9,-10.9,0.380565813,0.457380902,-0.428998688,0.679616688
306,768998,5290,0.887,-1.256,0.076,162.2,-13.2,40.4,-4.1,32.9,-10.9,0.378215888,0.458540605,-0.42710654,0.681325724
307,771290,5290,0.887,-1.264,0.056,169.5,-15.6,42,-4.1,32.9,-10.9,0.375743889,0.459791864,-0.425153356,0.683095798
308,773697,5290,0.882,-1.256,0.029,177.4,-18.4,44,-3.6,31.3,-13.2,0.373149815,0.46110416,-0.423078097,0.68489639
309,777280,5300,0.886,-1.229,0.005,186.1,-21.5,45.9,-3.6,31.3,-13.2,0.370372631,0.462508011,-0.420941801,0.686788537
310,779561,5300,0.886,-1.209,-0.01,195.5,-24.5,48,-3.6,31.3,-13.2,0.367473373,0.464003418,-0.418683432,0.688711203
311,781879,5300,0.89,-1.178,-0.01,205.2,-27.4,50,-3.6,31.3,-13.2,0.364360485,0.465590381,-0.416333506,0.690694906
312,784036,5300,0.898,-1.1,-0.01,214.8,-29.9,52.6,-3.6,31.3,-13.2,0.361125523,0.467268899,-0.413861507,0.692739647
313,786254,5310,0.902,-1.073,-0.014,223.4,-31.8,56.1,-3.6,31.3,-13.2,0.35770745,0.469008454,-0.411297952,0.694875942
314,789838,5310,0.902,-1.038,-0.018,230.5,-32.7,60.4,-3.6,31.3,-13.2,0.354136784,0.470748009,-0.40867336,0.697073275
315,792167,5310,0.879,-1.006,-0.018,235.6,-32.6,65,-3.6,31.3,-13.2,0.350413526,0.472487564,-0.405987732,0.699331645
316,794337,5310,0.844,-0.963,-0.052,239.3,-31.4,69.4,-3.6,31.3,-13.2,0.346598712,0.474166082,-0.403302103,0.701651051
317,796550,5320,0.84,-0.947,-0.072,242.1,-28.9,73.7,-3.6,31.3,-13.2,0.342722861,0.475783563,-0.400555437,0.704031495
318,799850,5320,0.824,-0.959,-0.083,244.3,-25.1,78,-3.6,31.3,-13.2,0.338755455,0.477309488,-0.397808771,0.706472976
319,802396,5320,0.812,-0.966,-0.107,246.5,-20.5,81.9,-3.6,31.3,-13.2,0.33475753,0.478743858,-0.395001068,0.709006012
320,804432,5320,0.793,-0.935,-0.126,249.8,-16.1,85,-3.6,31.3,-13.2,0.33066805,0.480056154,-0.392132328,0.711600085
321,806143,5330,0.781,-0.923,-0.126,254.6,-12.9,87,-3.6,31.3,-13.2,0.326548051,0.48136845,-0.389141514,0.714255196
322,809386,5330,0.777,-0.919,-0.133,260.6,-11.6,88.5,-3.6,31.3,-13.2,0.322305979,0.482619709,-0.386120182,0.716940825
323,811405,5330,0.746,-0.938,-0.148,267,-12.1,90.5,-3.6,31.3,-13.2,0.31797235,0.483932005,-0.382976775,0.71968749
324,814859,5330,0.746,-0.942,-0.148,273.7,-13.8,93.5,-3.6,31.3,-13.2,0.313486129,0.485244301,-0.379772332,0.722464675
325,816867,5340,0.726,-0.942,-0.144,281,-16.3,97.2,-3.6,31.3,-13.2,0.308847316,0.486617634,-0.376476333,0.725272378
326,819569,5340,0.726,-0.934,-0.14,289.5,-19.1,101.3,-3.6,31.3,-13.2,0.303994873,0.488021485,-0.373088778,0.728110599
327,821060,5340,0.762,-0.876,-0.102,298.7,-22.1,105.5,-3.6,31.3,-13.2,0.298959319,0.489486373,-0.36957915,0.731009857
328,824934,5340,0.789,-0.845,-0.075,307.7,-24.7,109.8,-2.7,27.7,-18.2,0.293710135,0.49098178,-0.366008484,0.733909116
329,827509,5350,0.813,-0.822,-0.056,314.7,-26.6,114.6,-2.7,27.7,-18.2,0.288277841,0.492507706,-0.362346263,0.736869411
330,829629,5350,0.794,-0.798,-0.024,318.7,-27.2,120.5,-2.7,27.7,-18.2,0.282692953,0.493972594,-0.358684042,0.739829707
331,831894,5350,0.782,-0.782,-0.016,319.4,-26.3,127.5,-2.7,27.7,-18.2,0.276985992,0.495376446,-0.355052339,0.742820521
332,835172,5350,0.778,-0.77,-0.016,317.7,-24.8,135,-2.7,27.7,-18.2,0.271156957,0.496627705,-0.351512192,0.745780816
333,836626,5360,0.802,-0.755,-0.021,314.4,-23.5,142.4,-2.7,27.7,-18.2,0.265236366,0.49775689,-0.348063601,0.74877163
334,840096,5360,0.872,-0.709,-0.046,310.5,-22.8,149.3,-2.7,27.7,-18.2,0.259254738,0.498794519,-0.344737083,0.751731925
335,842615,5360,0.923,-0.679,-0.062,307,-22.4,155.4,-2.7,27.7,-18.2,0.253181555,0.499710074,-0.341502121,0.754661702
336,844193,5360,0.985,-0.645,-0.071,304.5,-21.5,161.3,-0.4,25.5,-19.6,0.247047334,0.500534074,-0.338358715,0.757560961
337,847150,5370,1.028,-0.618,-0.096,303.4,-19.9,167.7,-0.4,25.5,-19.6,0.24079104,0.501236,-0.335276345,0.760460219
338,848970,5370,1.067,-0.623,-0.167,303.8,-17.6,174.8,-0.4,25.5,-19.6,0.23444319,0.50184637,-0.332224494,0.763389996
339,851148,5370,1.078,-0.62,-0.206,306.5,-15.1,181.8,-0.4,25.5,-19.6,0.227942747,0.502334666,-0.329203162,0.766350291
340,853650,5370,1.086,-0.597,-0.242,312.9,-12.9,187,0.1,24.5,-20.7,0.221289712,0.502731407,-0.326059755,0.769371624
341,857091,5380,1.094,-0.562,-0.324,323.7,-11.5,189,0.1,24.5,-20.7,0.214484085,0.503128147,-0.322733238,0.772423475
342,859421,5380,1.101,-0.562,-0.371,338.9,-11.4,188.1,0.1,24.5,-20.7,0.207495346,0.503555406,-0.319132054,0.775536363
343,861034,5380,1.136,-0.548,-0.419,357.9,-12.8,185,0.1,24.5,-20.7,0.200323496,0.50410474,-0.315164647,0.778710288
344,864123,5380,1.265,-0.413,-0.496,379.8,-15,180.2,0.6,23,-21.4,0.192968535,0.504745628,-0.310739463,0.781884213
345,866510,5390,1.218,-0.409,-0.518,402.7,-16.6,174.8,0.6,23,-21.4,0.185430464,0.505539109,-0.305856502,0.785149693
346,869489,5390,1.191,-0.373,-0.534,424,-16.3,169.5,0.6,23,-21.4,0.177739799,0.506363109,-0.300515763,0.788445692
347,872146,5390,1.187,-0.311,-0.526,441.7,-14.2,165,0.6,23,-21.4,0.169927061,0.507217627,-0.294778283,0.79177221
348,873905,5390,1.195,-0.276,-0.51,454.5,-12,161.3,0.3,21,-23,0.162022767,0.508041627,-0.288735618,0.795129246
349,876981,5400,1.043,-0.265,-0.437,462.2,-11.3,157.7,0.3,21,-23,0.154087954,0.508865627,-0.282479324,0.798425245
350,879265,5400,0.997,-0.213,-0.37,464.3,-13.3,153,0.3,21,-23,0.146153142,0.509659108,-0.276131474,0.80159917
351,881507,5400,0.922,-0.235,-0.384,461.2,-19.5,145.8,0.3,21,-23,0.138340403,0.510574664,-0.269722587,0.804589984
352,883782,5400,0.934,-0.368,-0.404,454.7,-29.8,135.2,0.3,19.6,-23.6,0.130741295,0.511642811,-0.263344218,0.807306131
353,887241,5410,1.008,-0.385,-0.381,448.1,-42.7,120.5,0.3,19.6,-23.6,0.123355815,0.512955107,-0.256904813,0.809686575
354,888664,5410,1.125,-0.379,-0.348,445.3,-54.8,102.7,0.3,19.6,-23.6,0.116245003,0.51454207,-0.250312815,0.811822871
355,891754,5410,1.239,-0.373,-0.319,448.4,-62.8,84.4,0.3,19.6,-23.6,0.109378338,0.516281625,-0.24344615,0.813745537
356,894889,5410,1.493,-0.279,-0.281,448.4,-62.8,84.4,0.3,17.9,-24.7,0.102481155,0.517990661,-0.236548967,0.815576647
357,896773,5420,1.642,-0.196,-0.284,456.4,-64.3,70,0.3,17.9,-24.7,0.0957365642,0.519791253,-0.229377117,0.817316202
358,900133,5420,1.755,-0.092,-0.314,467.3,-58.2,63.2,0.3,17.9,-24.7,0.0890224921,0.521439253,-0.221869564,0.819086276
359,902057,5420,1.837,0.018,-0.359,478.7,-44.7,65.7,0.3,17.9,-24.7,0.082125309,0.522843104,-0.214148381,0.820978423
360,904012,5420,2.037,0.389,-0.492,488,-24.9,77.4,0.2,15.7,-25,0.0750755333,0.52375866,-0.206335643,0.823053682
361,906187,5430,2.072,0.537,-0.595,492.8,-0.5,96,0.2,15.7,-25,0.0677205725,0.524124882,-0.198553423,0.825373089
362,910423,5430,2.041,0.631,-0.688,489.9,26.6,119.3,0.2,15.7,-25,0.0600909452,0.523819697,-0.191045869,0.827936644
363,912494,5430,1.88,0.695,-0.811,477,55.5,144.1,0.2,15.7,-25,0.0522476882,0.522812586,-0.183996094,0.830683309
364,914176,5430,1.755,0.682,-0.824,421,114.3,182.4,0.4,13.4,-25.3,0.0446180609,0.520432142,-0.178319651,0.833857234
365,917219,5440,1.665,0.628,-0.818,421,114.3,182.4,0.4,13.4,-25.3,0.036957915,0.518051698,-0.17261269,0.836909085
366,919524,5440,1.54,0.619,-0.746,383,140.3,187.8,0.4,13.4,-25.3,0.0297250282,0.515060884,-0.167607654,0.840052492
367,921185,5440,1.283,0.527,-0.596,343.1,160.9,183.7,0.4,13.4,-25.3,0.0230719932,0.511642811,-0.163274026,0.843195898
368,924502,5440,1.166,0.462,-0.523,303.8,175,175.4,1.4,10.8,-26.8,0.0170903653,0.507919553,-0.159550768,0.846308786
369,927508,5450,1.115,0.319,-0.455,266.3,183.1,169.3,1.4,10.8,-26.8,0.0116580706,0.504043703,-0.15643788,0.8492996
370,930247,5450,1.237,0.181,-0.301,231.1,186.9,170.1,1.4,10.8,-26.8,0.00659199805,0.500045778,-0.15396588,0.85216834
371,932338,5450,1.327,0.184,-0.208,199.2,187.8,177.4,1.4,10.8,-26.8,0.00173955504,0.495956297,-0.152165288,0.854884487
372,934346,5450,1.402,0.144,-0.135,172.8,188,187.6,2.6,9.4,-25,0.00296029542,-0.491836299,0.150975066,-0.857478561
373,936939,5460,1.406,0.097,-0.1,151.7,190.1,196.3,2.6,9.4,-25,0.00762962737,-0.487594226,0.150242622,-0.859981079
374,938907,5460,1.407,0.188,0.079,133.6,196.6,201.9,2.6,9.4,-25,0.0122074038,-0.483199561,0.149906919,-0.862453078
375,941129,5460,1.309,0.01,0.085,115.9,208.8,205.6,2.6,9.4,-25,0.0166020692,-0.478560747,0.149937437,-0.864955596
376,945085,5460,1.246,-0.081,0.172,95.8,225.5,210.6,3.5,8.6,-23.9,0.020844142,-0.47358623,0.150425733,-0.867549669
377,947382,5470,1.133,-0.196,0.257,73.5,243.7,219.1,3.5,8.6,-23.9,0.0249641408,-0.468184454,0.151402326,-0.870174261
378,949613,5470,0.919,-0.383,0.426,50.5,259.6,232.7,3.5,8.6,-23.9,0.0290231025,-0.462446974,0.152958769,-0.872829371
379,952229,5470,0.773,-0.386,0.143,30.3,269.8,251.3,3.5,8.6,-23.9,0.0332346568,-0.456434828,0.155095065,-0.875484481
380,954361,5470,0.787,-0.376,-0.048,14.5,272.3,275.6,4.8,8,-23.9,0.0377208777,-0.450270089,0.157750175,-0.878017518
381,956788,5480,1.966,-0.299,0.418,1.4,266.8,306.9,4.8,8,-23.9,0.0426953948,-0.44410535,0.160954619,-0.880336924
382,958883,5480,3.302,0.109,0.929,-12.6,254.2,345.8,4.8,8,-23.9,0.0483108005,-0.437971129,0.164769433,-0.882412183
383,960888,5480,4.902,0.661,1.047,-24.6,234.8,389.6,4.8,8,-23.9,0.0547196875,-0.432081057,0.169164098,-0.884090701
384,964694,5480,6.322,1.004,-1.47,21.2,146.8,450.2,6.6,7.8,-23.4,0.0630817591,-0.427533799,0.173192541,-0.884975738
385,966312,5490,5.369,1.188,-3.68,21.2,146.8,450.2,6.6,7.8,-23.4,0.0713827937,-0.422956023,0.177190466,-0.885769219
386,968625,5490,3.963,1.719,-5.319,105.5,53.6,433.3,6.6,7.8,-23.4,0.0805383465,-0.420056764,0.179204688,-0.88595233
387,971961,5490,2.754,2.319,-5.943,222.3,-67.8,368,6.6,7.8,-23.4,0.0899380474,-0.419507431,0.178167058,-0.885525071
388,974904,5490,2.282,3.044,-5.611,349.7,-189.6,257,6.1,6.8,-26.5,0.0988494522,-0.421460616,0.173375652,-0.884578997
389,976503,5500,2.126,4.756,-4.484,465.2,-284.2,119.6,6.1,6.8,-26.5,0.106509598,-0.425458541,0.164891507,-0.883419294
390,979530,5500,1.384,6.957,-4.349,548,-338.2,-16,6.1,6.8,-26.5,0.112491226,-0.430738243,0.15335551,-0.882198553
391,981113,5500,0.396,7.877,-3.478,580.9,-347.2,-124.8,6.1,6.8,-26.5,0.11670278,-0.436353648,0.140140996,-0.881069369
392,984837,5500,-0.71,6.853,-1.036,566.6,-295.2,-189.9,5.2,4.8,-24.9,0.119327372,-0.441114536,0.126682333,-0.880397961
393,986637,5510,-0.453,6.095,-0.151,525.8,-163.3,-204.6,5.2,4.8,-24.9,0.120914335,-0.443403424,0.114169744,-0.880733665
394,990088,5510,-0.279,6.761,0.627,458.8,39.2,-176.8,5.2,4.8,-24.9,0.12182989,-0.441877499,0.103732414,-0.882656331
395,992367,5510,-0.143,6.952,1.094,325.8,251.2,-121,5.2,4.8,-24.9,0.122074038,-0.436414686,0.0969573046,-0.886104923
396,994128,5510,-0.146,5.154,0.862,79.6,389.8,-52.5,5,2.8,-24.9,0.120975372,-0.42875454,0.0959501938,-0.890102847
397,996171,5520,-0.522,3.768,0.645,-259.4,408.7,17.4,5,2.8,-24.9,0.118045595,-0.421460616,0.102237007,-0.893276772
398,999830,5520,-0.445,2.613,0.493,-597.3,322.4,71.1,5,2.8,-24.9,0.113193152,-0.416486099,0.115329447,-0.894619587
399,1001825,5520,-0.229,1.78,0.435,-829.4,181.9,88.4,5,2.8,-24.9,0.106906339,-0.414716025,0.132755516,-0.893826106
400,1004712,5520,0.122,0.658,0.607,-913.6,40.6,64.3,6.8,5.1,-25.8,0.0997650075,-0.415784173,0.151219214,-0.891201514
401,1006447,5530,0.74,0.679,0.744,-882.9,-64.8,11,6.8,5.1,-25.8,0.0921658986,-0.418836024,0.168340098,-0.887539293
402,1009559,5530,1.114,0.286,0.785,-808.2,-120.6,-51.5,6.8,5.1,-25.8,0.0842005676,-0.422925504,0.183233131,-0.883419294
403,1011577,5530,1.52,-0.849,0.654,-753.8,-130.6,-105.1,6.8,5.1,-25.8,0.0757469405,-0.427198096,0.196508683,-0.879268777
404,1014892,5530,2.037,-1.281,0.43,-785,-71.9,-158.5,6.4,8.8,-25.8,0.0656758324,-0.430494095,0.209967345,-0.875362407
405,1017007,5540,2.801,-1.537,0.26,-785,-71.9,-158.5,6.4,8.8,-25.8,0.0556047243,-0.433637501,0.223334452,-0.871181372
406,1018823,5540,3.998,-1.676,-0.004,-830.4,-32.1,-165.5,6.4,8.8,-25.8,0.0447096164,-0.435987426,0.237464522,-0.866878262
407,1022406,5540,4.887,-3.647,-1.176,-864.6,1.6,-153.9,6.4,8.8,-25.8,0.0335703604,-0.437513352,0.252296518,-0.862392041
408,1024547,5540,4.007,-5.378,-1.701,-894.7,21.6,-90.8,6.1,12.9,-24.4,0.0231940672,-0.438184759,0.268257698,-0.857570116
409,1026541,5550,2.615,-7.596,-2.137,-934.3,17.2,53.7,6.1,12.9,-24.4,0.0151676992,-0.437940611,0.286202582,-0.852076785
410,1029947,5550,1.442,-8.068,-2.204,-970.4,-11.4,265.2,6.1,12.9,-24.4,0.0108951079,-0.436689352,0.306680502,-0.845606861
411,1032733,5550,-0.221,-7.85,-0.932,-951.7,-41.7,465.2,6.1,12.9,-24.4,0.0106814783,-0.434461501,0.328592792,-0.838526566
412,1034631,5550,-0.676,-6.29,-0.034,-820.9,-40.8,559.9,6.4,16.3,-23.5,0.0134586627,-0.431287576,0.348826563,-0.83190405
413,1037057,5560,-1.05,-4.682,0.643,-561.8,6,508.5,6.4,16.3,-23.5,0.0173345134,-0.427411725,0.363750114,-0.827417829
414,1039485,5560,-1.707,-2.32,1.187,-221.3,83.2,348.1,6.4,16.3,-23.5,0.0208746605,-0.423230689,0.37101352,-0.826288644
415,1041374,5560,-1.897,-1.731,1.091,112.9,159,157.1,6.4,16.3,-23.5,0.0234992523,-0.419019135,0.370494705,-0.828577532
416,1043936,5560,-2.033,-1.261,0.87,357.4,208.1,4.4,7.3,16.8,-23.1,0.0251472518,-0.41502121,0.364177374,-0.83333842
417,1047521,5570,-2.072,-0.866,0.76,469.6,220.3,-76.1,7.3,16.8,-23.1,0.0262459181,-0.411328471,0.355052339,-0.839045381
418,1049644,5570,-1.548,-0.999,0.214,454.7,196.9,-84,7.3,16.8,-23.1,0.0272835475,-0.408093509,0.346049379,-0.844325083
419,1052012,5570,-1.073,-1.196,0.006,351.4,145.8,-41.3,7.3,16.8,-23.1,0.0285348064,-0.405499435,0.339304788,-0.848292489
420,1054082,5570,-0.483,-1.023,-0.094,213.5,76,23.1,8,15.4,-23.3,0.0302743614,-0.403790399,0.33558153,-0.850520341
421,1056398,5580,0.572,-1.058,-0.403,91.8,-1.3,81.9,8,15.4,-23.3,0.0326548051,-0.40314951,0.334604938,-0.851130711
422,1060548,5580,1.131,-1.055,-0.351,17.2,-73.1,120.2,8,15.4,-23.3,0.0355540635,-0.403607288,0.335276345,-0.850520341
423,1062161,5580,1.706,-1.033,-0.213,-4.5,-127.2,136.8,8,15.4,-23.3,0.0390026551,-0.404980621,0.336466567,-0.849238563
424,1064956,5580,3.091,-1.21,0.285,50.6,-165,147.9,7.9,14.6,-23.6,0.0433973205,-0.406903287,0.336710715,-0.848017823
425,1067647,5590,3.909,-1.222,0.65,50.6,-165,147.9,7.9,14.6,-23.6,0.0477919858,-0.408795434,0.336924345,-0.846766564
426,1069896,5590,4.776,-1.256,0.704,99.4,-153,161.8,7.9,14.6,-23.6,0.0527665029,-0.41032136,0.336344493,-0.845973083
427,1072070,5590,5.288,-0.781,0.506,162.3,-124.9,182.5,7.9,14.6,-23.6,0.0585345012,-0.411114841,0.334849086,-0.84582049
428,1074392,5590,5.292,-0.333,0.18,248.9,-87.9,200.9,7.6,14.9,-22.2,0.0650959807,-0.41093173,0.331919309,-0.846552934
429,1076442,5600,3.902,0.418,-0.182,357.1,-56.1,204.3,7.6,14.9,-22.2,0.07248146,-0.409955138,0.327066866,-0.848323008
430,1078847,5600,3.11,0.709,-0.149,466.8,-43.9,183.5,7.6,14.9,-22.2,0.080385754,-0.40867336,0.319986572,-0.850917081
431,1082005,5600,2.471,1.041,-0.012,550.2,-53.7,138.4,7.6,14.9,-22.2,0.0882290109,-0.407727287,0.310892056,-0.853968932
432,1084328,5600,1.579,1.23,0.313,589.5,-71.8,79.7,7.4,12,-25,0.0954313791,-0.407361064,0.300454726,-0.857112339
433,1086465,5610,1.24,1.224,0.456,580,-78.2,24.5,7.4,12,-25,0.101535081,-0.407422102,0.289620655,-0.860072634
434,1088713,5610,0.836,1.423,0.581,530.3,-60.9,-13.2,7.4,12,-25,0.106387524,-0.40745262,0.279396954,-0.862880337
435,1090933,5610,0.559,1.534,0.672,457.5,-20.7,-28.8,7.4,12,-25,0.110049745,-0.406933805,0.270485549,-0.865504929
436,1094406,5610,-0.025,1.588,0.839,379.6,32.4,-26.5,7,9.4,-25.8,0.112704855,-0.405560472,0.263130589,-0.868068484
437,1096698,5620,-0.247,1.537,0.89,307,86.2,-14.2,7,9.4,-25.8,0.11465804,-0.403241066,0.257393109,-0.87060152
438,1099580,5620,-0.497,1.51,0.922,240.3,131.3,0.3,7,9.4,-25.8,0.116031373,-0.400128178,0.253181555,-0.873073519
439,1101760,5620,-0.658,1.336,0.82,177.1,161.4,9.6,7,9.4,-25.8,0.116885891,-0.396557512,0.250282296,-0.875423444
440,1104536,5620,-0.777,0.97,0.698,116.7,172.8,8.2,7.1,7.9,-25.7,0.117099521,-0.392895291,0.24857326,-0.877529221
441,1106448,5630,-0.696,0.785,0.622,60.2,165.1,-6.2,7.1,7.9,-25.7,0.116611225,-0.38962981,0.247779778,-0.879299295
442,1108800,5630,-0.549,0.665,0.561,10,141.3,-32.8,7.1,7.9,-25.7,0.115298929,-0.387066256,0.247657704,-0.880642109
443,1111839,5630,-0.304,0.34,0.435,-31.2,107.5,-68,7.1,7.9,-25.7,0.113132115,-0.385448775,0.247962889,-0.881527146
444,1114115,5630,-0.082,0.25,0.404,-62.1,71.3,-105.9,8.3,8.1,-25,0.110202338,-0.384777367,0.248451186,-0.882045961
445,1116315,5640,0.104,0.18,0.401,-82.3,39,-140.7,8.3,8.1,-25,0.106540117,-0.384990997,0.248939482,-0.88225959
446,1119275,5640,0.225,0.182,0.442,-93,14.1,-168.1,8.3,8.1,-25,0.102481155,-0.385845515,0.249336222,-0.88225959
447,1121599,5640,0.424,-0.078,0.43,-97.7,-2,-185.6,8.3,8.1,-25,0.0980864895,-0.387127293,0.249641408,-0.882137516
448,1123894,5640,0.51,-0.064,0.476,-101.5,-10.8,-191.2,8.3,10.5,-23.8,0.0936002686,-0.388592181,0.249977111,-0.88186285
449,1125911,5650,0.619,-0.136,0.505,-108.1,-15.5,-184,8.3,10.5,-23.8,0.0892361217,-0.390087588,0.250465407,-0.881527146
450,1129743,5650,0.705,-0.223,0.5,-118.8,-19.5,-164.9,8.3,10.5,-23.8,0.0851771599,-0.391613514,0.251289407,-0.881008332
451,1132093,5650,0.862,-0.198,0.583,-133.3,-25.2,-136.4,8.3,10.5,-23.8,0.0815454573,-0.393047884,0.252632221,-0.880306406
452,1134393,5650,0.913,-0.187,0.633,-151.1,-33.2,-101,8.1,10.5,-24,0.0784936064,-0.394543291,0.254615925,-0.879360332
453,1136558,5660,0.962,-0.461,0.597,-172.2,-43.5,-60.3,8.1,10.5,-24,0.0760826441,-0.396008179,0.257332072,-0.878139592
454,1138742,5660,1.147,-1.001,0.415,-195.8,-55.8,-16.1,8.1,10.5,-24,0.0744041261,-0.397503586,0.2608417,-0.876583148
455,1141093,5660,1.232,-1.213,0.39,-218.4,-67.8,27.7,8.1,10.5,-24,0.0734275338,-0.398968474,0.26514481,-0.874691
456,1144745,5660,1.298,-1.429,0.358,-232.8,-76.3,64.8,7.6,11.3,-24.4,0.0730613117,-0.400433363,0.269997253,-0.872554704
457,1147016,5670,1.324,-1.59,0.323,-231.1,-78.5,90,7.6,11.3,-24.4,0.0732139042,-0.401745659,0.275093844,-0.870357372
458,1149242,5670,1.219,-1.596,0.391,-209.2,-73.8,102.1,7.6,11.3,-24.4,0.0737632374,-0.402874844,0.279824213,-0.868282113
459,1151438,5670,1.103,-1.379,0.491,-168.3,-64.4,102.6,7.6,11.3,-24.4,0.0746177557,-0.403729362,0.283822138,-0.86651204
460,1154208,5670,0.979,-1.185,0.559,-115.7,-52.4,94.2,7.4,12.9,-24.1,0.075716422,-0.404339732,0.286751915,-0.865169225
461,1156487,5680,0.812,-1.108,0.547,-63.8,-39.9,81,7.4,12.9,-24.1,0.0769371624,-0.404675436,0.288613544,-0.86425367
462,1158766,5680,0.749,-1.06,0.536,-24.9,-28.4,68,7.4,12.9,-24.1,0.0781884213,-0.404828028,0.289620655,-0.863765374
463,1161032,5680,0.706,-1.012,0.505,-4.2,-19,59.2,7.4,12.9,-24.1,0.0793786431,-0.404828028,0.290200507,-0.863460189
464,1164703,5680,0.667,-0.899,0.463,1.7,-12.1,55.5,7.8,12.9,-23.9,0.080507828,-0.404705954,0.290627766,-0.863277078
465,1166233,5690,0.664,-0.836,0.443,1.2,-6.5,54.7,7.8,12.9,-23.9,0.0816064943,-0.404461806,0.291085543,-0.863124485
466,1168555,5690,0.671,-0.782,0.435,0.1,-0.6,54.4,7.8,12.9,-23.9,0.0826136052,-0.404126102,0.291543321,-0.863002411
467,1172085,5690,0.687,-0.735,0.423,0.7,6.7,53.4,7.8,12.9,-23.9,0.0835901975,-0.403668325,0.292031617,-0.862971892
468,1174276,5690,0.699,-0.677,0.419,2.5,15.7,51.3,7.5,12.3,-24.1,0.0844752342,-0.403027436,0.292458876,-0.863032929
469,1176456,5700,0.676,-0.582,0.419,4.5,25.6,48.4,7.5,12.3,-24.1,0.0852687155,-0.402233955,0.292855617,-0.863216041
470,1178696,5700,0.66,-0.551,0.407,6.1,35.2,44.6,7.5,12.3,-24.1,0.0859401227,-0.401287881,0.293191321,-0.863460189
471,1181844,5700,0.629,-0.507,0.4,7,43.4,40.2,7.5,12.3,-24.1,0.0864894559,-0.400189215,0.293496506,-0.863826411
472,1184017,5700,0.602,-0.417,0.369,7.5,49.1,35.5,7.7,12.2,-24.1,0.086916715,-0.399029511,0.293740654,-0.864223151
473,1186166,5710,0.598,-0.382,0.349,8.2,51.6,30.9,7.7,12.2,-24.1,0.0872219001,-0.39783929,0.293954283,-0.864680929
474,1188970,5710,0.571,-0.358,0.319,9.3,50.9,26.8,7.7,12.2,-24.1,0.0874965667,-0.396679586,0.294106876,-0.865138707
475,1191239,5710,0.571,-0.351,0.291,11.3,47.1,23.2,7.7,12.2,-24.1,0.0877407147,-0.395611438,0.294198431,-0.865565966
476,1193668,5710,0.582,-0.281,0.248,15,40.7,20.2,8.2,12,-23.7,0.0879848628,-0.394695883,0.294167913,-0.865962706
477,1197200,5720,0.598,-0.254,0.216,21.4,31.7,17.8,8.2,12,-23.7,0.0882900479,-0.39393292,0.293954283,-0.866359447
478,1198726,5720,0.613,-0.231,0.188,30.6,21,15.9,8.2,12,-23.7,0.088717307,-0.393383587,0.293557543,-0.866695151
479,1200898,5720,0.606,-0.168,0.188,42.1,9.1,14.1,8.2,12,-23.7,0.0892971587,-0.393017365,0.292916654,-0.867000336
480,1204577,5720,0.676,-0.08,0.152,55.1,-2.8,12,7.8,11.5,-23.7,0.090029603,-0.392895291,0.29197058,-0.867305521
481,1206797,5730,0.684,-0.021,0.14,68.2,-14.5,8.9,7.8,11.5,-23.7,0.0908536027,-0.392986847,0.290719321,-0.867610706
482,1208991,5730,0.743,0.043,0.138,80.6,-25.7,4.1,7.8,11.5,-23.7,0.0917996765,-0.393292032,0.289162877,-0.867885372
483,1211243,5730,0.79,0.128,0.122,91.3,-36.2,-3,7.8,11.5,-23.7,0.0927457503,-0.393810846,0.287331767,-0.868160039
484,1213574,5730,0.809,0.147,0.117,99.7,-45.7,-13.3,7.6,11.4,-24.2,0.0936307871,-0.394543291,0.285256508,-0.868404187
485,1217229,5740,0.856,0.225,0.113,106,-54.3,-27.3,7.6,11.4,-24.2,0.0943327128,-0.395519883,0.282906583,-0.868648335
486,1219465,5740,0.912,0.318,0.123,110.7,-62.2,-45.4,7.6,11.4,-24.2,0.0948210089,-0.396771142,0.280281991,-0.868892483
487,1221672,5740,0.971,0.391,0.153,114.3,-70.1,-67.6,7.6,11.4,-24.2,0.0949736015,-0.398266549,0.277382733,-0.869136631
488,1224453,5740,0.994,0.434,0.16,116.4,-77.6,-92.2,8.1,10.2,-24.1,0.0947294534,-0.400067141,0.274208808,-0.869350261
489,1226838,5750,1.014,0.508,0.187,115.8,-84.1,-116.9,8.1,10.2,-24.1,0.0940275277,-0.402111881,0.270790735,-0.869533372
490,1229088,5750,1.022,0.543,0.203,112.1,-88.5,-139.5,8.1,10.2,-24.1,0.0928678243,-0.404370251,0.267281106,-0.869685965
491,1231246,5750,0.972,0.614,0.235,104.7,-90.3,-158.7,8.1,10.2,-24.1,0.0913113804,-0.406811731,0.263679922,-0.869808039
492,1233539,5750,0.905,0.627,0.24,93,-89,-173.5,6.6,11.2,-24.6,0.0893581957,-0.409283731,0.260200812,-0.869899594
493,1237182,5760,0.851,0.616,0.237,77,-84.9,-183.3,6.6,11.2,-24.6,0.0870082705,-0.411786248,0.256935331,-0.869930113
494,1238717,5760,0.772,0.586,0.247,57.5,-79.3,-188.9,6.6,11.2,-24.6,0.0844141972,-0.414258248,0.254005554,-0.869899594
495,1241874,5760,0.714,0.572,0.252,35.5,-73.3,-192,6.6,11.2,-24.6,0.0815149388,-0.416638691,0.251442,-0.86977752
496,1243925,5760,0.679,0.553,0.248,11.4,-67.4,-195.3,5.6,11.3,-24.7,0.0782799768,-0.418958098,0.249336222,-0.86956389
497,1246679,5770,0.667,0.518,0.237,-14,-62,-200.9,5.6,11.3,-24.7,0.0746787927,-0.421246986,0.247657704,-0.869258705
498,1249435,5770,0.623,0.409,0.218,-40.4,-57.3,-209,5.6,11.3,-24.7,0.0706503494,-0.423535875,0.246406446,-0.868831446
499,1252158,5770,0.627,0.374,0.218,-66.5,-53.8,-218.6,5.6,11.3,-24.7,0.0661641285,-0.425824763,0.245551927,-0.868312632
500,1253744,5770,0.631,0.331,0.214,-91.4,-51.7,-228.5,4.9,11.6,-24.9,0.0612506485,-0.428144169,0.24509415,-0.867641224
501,1256803,5780,0.619,0.233,0.195,-114.1,-51,-236.9,4.9,11.6,-24.9,0.0559404279,-0.430524613,0.244972076,-0.866847743
502,1259676,5780,0.681,0.115,0.19,-134,-51.8,-242.2,4.9,11.6,-24.9,0.0504165777,-0.432966094,0.245155187,-0.865932188
503,1261627,5780,0.727,0.059,0.186,-150.7,-54.2,-243.8,4.9,11.6,-24.9,0.0446790979,-0.435438093,0.245643483,-0.86486404
504,1263592,5780,0.77,-0.066,0.162,-164.1,-57.9,-241.3,4.4,12.6,-25,0.0388500626,-0.437971129,0.246375927,-0.8636433
505,1265968,5790,0.84,-0.035,0.172,-174.7,-62.5,-236,4.4,12.6,-25,0.0330820643,-0.440565203,0.247352519,-0.862300485
506,1269821,5790,0.856,-0.098,0.176,-183.2,-66.7,-228.5,4.4,12.6,-25,0.0273445845,-0.443189795,0.248542741,-0.860805078
507,1271634,5790,0.848,-0.204,0.164,-191,-69.6,-219.7,4.4,12.6,-25,0.0217902158,-0.445783868,0.249977111,-0.859218116
508,1274561,5790,0.871,-0.243,0.16,-198.4,-71.1,-209.8,6,12.6,-24.6,0.0163274026,-0.448347423,0.251594592,-0.857539598
509,1276556,5800,0.969,-0.229,0.197,-205.6,-71.2,-199.9,6,12.6,-24.6,0.0109561449,-0.45084994,0.253456221,-0.855769524
510,1280014,5800,0.98,-0.268,0.201,-212.1,-70.8,-190.4,6,12.6,-24.6,0.00570696127,-0.453260903,0.25553148,-0.853907895
511,1281990,5800,1,-0.284,0.209,-218.4,-70.2,-181.3,6,12.6,-24.6,0.000549333171,-0.455610828,0.25778985,-0.852015748
512,1283502,5800,1.027,-0.429,0.189,-225.8,-69.5,-172,4.4,14,-24.6,0.00445570238,0.457869198,-0.260292367,0.850032044
513,1286400,5810,1.05,-0.449,0.181,-234.5,-68.7,-162.2,4.4,14,-24.6,0.00943021943,0.460036012,-0.263008515,0.847987304
514,1289103,5810,1.097,-0.407,0.199,-243.3,-68,-153.6,4.4,14,-24.6,0.0143131809,0.46211127,-0.26596881,0.845851009
515,1292146,5810,1.113,-0.415,0.203,-250.9,-67.4,-147.7,4.4,14,-24.6,0.019165624,0.464125492,-0.269142735,0.843653676
516,1293604,5810,1.116,-0.532,0.18,-257.1,-66.8,-144,4,15.2,-24.4,0.0240485855,0.466078677,-0.272438734,0.841395306
517,1296838,5820,1.128,-0.513,0.195,-262.1,-66.5,-141.5,4,15.2,-24.4,0.0289010285,0.468001343,-0.275826289,0.839045381
518,1298961,5820,1.132,-0.537,0.187,-266.3,-66.5,-139.8,4,15.2,-24.4,0.03378399,0.469862972,-0.279305399,0.836664937
519,1302763,5820,1.159,-0.564,0.183,-269.5,-66.6,-139.8,4,15.2,-24.4,0.03869747,0.471724601,-0.282845546,0.834223457
520,1304666,5820,1.198,-0.6,0.174,-271.7,-66.7,-141.7,4,17.2,-23.9,0.0436719871,0.47358623,-0.286385693,0.831720939
521,1306846,5830,1.217,-0.624,0.174,-273,-66,-145.3,4,17.2,-23.9,0.0487075411,0.475417341,-0.289895322,0.829157384
522,1309111,5830,1.213,-0.687,0.166,-273.4,-63.9,-150.1,4,17.2,-23.9,0.0538651692,0.477217933,-0.293343913,0.826593829
523,1312526,5830,1.224,-0.828,0.143,-272,-60.3,-156.3,4,17.2,-23.9,0.0591143529,0.478988006,-0.296670431,0.824030274
524,1314787,5830,1.279,-0.758,0.134,-267.3,-55.4,-164.2,3.6,18.2,-23.2,0.064516129,0.480666524,-0.299844356,0.821497238
525,1317235,5840,1.291,-0.696,0.165,-257,-49.5,-173.7,3.6,18.2,-23.2,0.0699789422,0.482345042,-0.302682577,0.819025239
526,1319481,5840,1.272,-0.687,0.185,-241.5,-42.7,-183.3,3.6,18.2,-23.2,0.075533311,0.483932005,-0.305124058,0.816675314
527,1321517,5840,1.194,-0.655,0.202,-223.6,-34.7,-190.2,3.6,18.2,-23.2,0.0810571612,0.485427412,-0.307168798,0.814477981
528,1323867,5840,1.139,-0.646,0.203,-207.1,-26.2,-192.1,2.9,19.5,-23.2,0.0864894559,0.486800745,-0.308847316,0.812463759
529,1326180,5850,1.085,-0.637,0.204,-193.7,-18.7,-189,2.9,19.5,-23.2,0.091769158,0.488052004,-0.310312204,0.81060213
530,1328426,5850,1.038,-0.597,0.197,-182.7,-13.3,-182.8,2.9,19.5,-23.2,0.0968352306,0.48915067,-0.311593982,0.808832057
531,1332493,5850,1.003,-0.511,0.197,-173.1,-9.8,-176.1,2.9,19.5,-23.2,0.101748711,0.490157781,-0.312784204,0.807153539
532,1334607,5850,0.976,-0.507,0.194,-164.2,-7.1,-170.4,2.9,20,-22.8,0.106448561,0.491073336,-0.31388287,0.805566576
533,1337751,5860,0.948,-0.514,0.194,-156.3,-4,-166.3,2.9,20,-22.8,0.111026337,0.491897336,-0.314859462,0.804071169
534,1339977,5860,0.859,-0.489,0.204,-148.9,-0.2,-163.7,2.9,20,-22.8,0.11548204,0.492660298,-0.315713981,0.802636799
535,1342157,5860,0.788,-0.48,0.217,-141.1,3.6,-162.9,2.9,20,-22.8,0.119876705,0.493362224,-0.316415906,0.801293985
536,1344173,5860,0.726,-0.475,0.21,-131.7,6,-163.7,2.2,21,-22.8,0.124210334,0.494033631,-0.316934721,0.800012207
537,1346347,5870,0.648,-0.493,0.196,-120.8,5.1,-165.7,2.2,21,-22.8,0.128421888,0.494766076,-0.317239906,0.798760949
538,1349390,5870,0.585,-0.567,0.162,-108.4,-0.4,-167.8,2.2,21,-22.8,0.132511368,0.495620594,-0.317300943,0.797540208
539,1351135,5870,0.667,-0.56,0.149,-94.7,-10.8,-170.3,2.2,21,-22.8,0.136417737,0.49671926,-0.31714835,0.796258431
540,1354243,5870,0.761,-0.495,0.167,-79.2,-24.7,-173.6,1.8,21.2,-22.5,0.140140996,0.498092593,-0.316721091,0.794915616
541,1357353,5880,0.792,-0.418,0.193,-63,-39.2,-178.4,1.8,21.2,-22.5,0.143650624,0.499832148,-0.315988647,0.793511765
542,1358836,5880,0.832,-0.324,0.228,-48,-51.2,-184.1,1.8,21.2,-22.5,0.14700766,0.501815851,-0.314981536,0.792016358
543,1361963,5880,0.851,-0.317,0.231,-37.2,-59.2,-188.8,1.8,21.2,-22.5,0.150273141,0.504013184,-0.313730277,0.790520951
544,1364313,5880,0.914,-0.326,0.21,-32.2,-63.7,-190.8,1,22,-22.1,0.153477584,0.506302072,-0.312387463,0.788964507
545,1366453,5890,0.937,-0.31,0.21,-33.4,-65.7,-190.3,1,22,-22.1,0.156651509,0.508621479,-0.311075167,0.787347026
546,1368814,5890,0.961,-0.303,0.213,-39,-65.7,-188.6,1,22,-22.1,0.159886471,0.510910367,-0.309884945,0.785699026
547,1371168,5890,0.992,-0.288,0.213,-46.6,-64.3,-186.9,1,22,-22.1,0.16318247,0.5131077,-0.308816797,0.784020508
548,1374545,5890,1.027,-0.261,0.216,-54.3,-62.5,-185.4,-0.5,21.9,-22.2,0.166539506,0.515213477,-0.307901242,0.782280953
549,1376885,5900,1.102,-0.219,0.234,-61.2,-60.8,-183.2,-0.5,21.9,-22.2,0.169927061,0.517258217,-0.307107761,0.78051088
550,1378694,5900,1.164,-0.213,0.241,-67.6,-60,-179.4,-0.5,21.9,-22.2,0.173345134,0.51924192,-0.306436354,0.778710288
551,1381778,5900,1.215,-0.202,0.236,-73.5,-59.8,-174,-0.5,21.9,-22.2,0.176732688,0.521134068,-0.305948057,0.776879177
552,1384044,5900,1.274,-0.257,0.231,-79.1,-60,-167.7,0.4,22.2,-22.1,0.180089724,0.522965178,-0.305612354,0.775017548
553,1386269,5910,1.293,-0.269,0.235,-83.6,-60.1,-162.2,0.4,22.2,-22.1,0.183385723,0.524704733,-0.305398724,0.773125401
554,1389516,5910,1.277,-0.281,0.251,-85.5,-59.8,-159,0.4,22.2,-22.1,0.186651204,0.526444288,-0.30527665,0.771233253
555,1391088,5910,1.281,-0.297,0.254,-84,-59,-158.7,0.4,22.2,-22.1,0.189886166,0.528153325,-0.305093539,0.769341105
556,1394107,5910,1.274,-0.308,0.266,-79.1,-58.4,-160.7,-0.2,22.8,-22.1,0.193090609,0.529862362,-0.304818873,0.767448958
557,1396278,5920,1.262,-0.339,0.255,-72.1,-58.2,-164,-0.2,22.8,-22.1,0.196295053,0.531632435,-0.304361095,0.765617847
558,1398727,5920,1.285,-0.281,0.25,-63.7,-58.6,-167.7,-0.2,22.8,-22.1,0.199438459,0.533433027,-0.303720206,0.763786737
559,1402285,5920,1.301,-0.262,0.246,-54.9,-59.8,-171,-0.2,22.8,-22.1,0.202520829,0.535325175,-0.302926725,0.761955626
560,1404573,5920,1.286,-0.125,0.234,-46.5,-60.9,-173.2,-0.8,22.9,-21.9,0.205542161,0.537278359,-0.301919614,0.760185553
561,1406952,5930,1.27,0.003,0.231,-40.2,-60.9,-174.1,-0.8,22.9,-21.9,0.208502457,0.539231544,-0.300820948,0.758415479
562,1409019,5930,1.255,0.07,0.223,-37.6,-59.2,-172.7,-0.8,22.9,-21.9,0.211432234,0.541184729,-0.299691763,0.756675924
563,1411288,5930,1.294,0.222,0.198,-40.7,-56.2,-168.6,-0.8,22.9,-21.9,0.214300974,0.543015839,-0.298623615,0.754966887
564,1413553,5930,1.357,0.291,0.189,-51,-52.8,-161.6,-1.1,22.8,-21.3,0.21723075,0.544694357,-0.297799615,0.753227332
565,1417022,5940,1.439,0.266,0.172,-68.5,-49.3,-154.2,-1.1,22.8,-21.3,0.220252083,0.546189764,-0.297311319,0.751457259
566,1419451,5940,1.501,0.245,0.171,-91.6,-45.4,-148.8,-1.1,22.8,-21.3,0.223487045,0.547441023,-0.297280801,0.749626148
567,1421587,5940,1.567,0.127,0.154,-116.4,-40.7,-146.6,-1.1,22.8,-21.3,0.227027192,0.548509171,-0.297616504,0.747642445
568,1423941,5940,1.583,0.119,0.174,-138.2,-34.7,-147,-3.4,23.4,-21.6,0.230842006,0.549333171,-0.298287912,0.745597705
569,1426164,5950,1.595,0.103,0.201,-153.3,-27.7,-148.6,-3.4,23.4,-21.6,0.234931486,0.549974059,-0.29914243,0.743522446
570,1428419,5950,1.603,0.056,0.22,-160.8,-20.1,-150.5,-3.4,23.4,-21.6,0.239173559,0.550462355,-0.300027467,0.741447188
571,1432060,5950,1.583,0.002,0.256,-163,-12.4,-152.1,-3.4,23.4,-21.6,0.243507187,0.550798059,-0.300912503,0.739432966
572,1433623,5950,1.56,-0.028,0.268,-163,-4.5,-153.2,-2.9,24.2,-21.1,0.247901852,0.551011689,-0.301705985,0.737479781
573,1437330,5960,1.524,-0.031,0.277,-162.5,4.2,-153.6,-2.9,24.2,-21.1,0.252357555,0.551042207,-0.302468947,0.735618152
574,1439548,5960,1.442,-0.08,0.274,-162.9,14.4,-153.1,-2.9,24.2,-21.1,0.256843776,0.550920133,-0.303140355,0.733848079
575,1441159,5960,1.411,-0.162,0.256,-164.6,26.2,-151.4,-2.9,24.2,-21.1,0.261421552,0.550584429,-0.303811762,0.732230598
576,1444790,5960,1.402,-0.287,0.217,-167.9,39,-148.7,-3.5,24.8,-20.9,0.266090884,0.549974059,-0.304483169,0.730735191
577,1446330,5970,1.308,-0.274,0.207,-172.3,52,-145.3,-3.5,24.8,-20.9,0.270821253,0.549119541,-0.305154576,0.729361858
578,1448568,5970,1.121,-0.271,0.167,-176.2,64.7,-141.7,-3.5,24.8,-20.9,0.275612659,0.547959838,-0.30588702,0.728110599
579,1452171,5970,1.108,-0.388,0.109,-179.4,75.8,-138,-3.5,24.8,-20.9,0.280434584,0.546617023,-0.306649983,0.726981414
580,1453750,5970,1.084,-0.501,0.047,-182.6,84.1,-134.4,-3.5,25,-20.2,0.285317545,0.545030061,-0.307412946,0.725913266
581,1456124,5980,1.025,-0.485,0.009,-185,88.9,-131.7,-3.5,25,-20.2,0.290200507,0.543351543,-0.308206427,0.724906156
582,1459830,5980,0.912,-0.522,-0.031,-183.9,91,-130.2,-3.5,25,-20.2,0.29505295,0.541611988,-0.308999908,0.723929563
583,1462005,5980,0.896,-0.589,-0.062,-177.4,90.8,-128.9,-3.5,25,-20.2,0.299783319,0.539902951,-0.309701834,0.722952971
584,1464197,5980,0.853,-0.564,-0.061,-165.4,88.9,-126.7,-3.6,25.6,-19.5,0.304330576,0.53828547,-0.310220649,0.722037416
585,1466428,5990,0.791,-0.47,-0.06,-148.8,85.6,-123.6,-3.6,25.6,-19.5,0.308603168,0.536759545,-0.310556352,0.721213416
586,1469487,5990,0.741,-0.203,0.002,-129.1,81.8,-119.7,-3.6,25.6,-19.5,0.312540056,0.53541673,-0.310617389,0.720480972
587,1471648,5990,0.722,-0.093,0.026,-109.9,77.5,-114.9,-3.6,25.6,-19.5,0.316171758,0.534226508,-0.310464797,0.719870602
588,1474568,5990,0.742,-0.089,0.006,-98.8,72.2,-107.2,-4.3,25.9,-19.2,0.319498276,0.533127842,-0.310281686,0.71929075
589,1476324,6000,0.843,-0.166,-0.042,-101.7,65.3,-96.2,-4.3,25.9,-19.2,0.322611164,0.532029176,-0.310281686,0.71868038
590,1478662,6000,0.885,-0.292,-0.101,-118.8,57.4,-83.4,-4.3,25.9,-19.2,0.325693533,0.530869472,-0.310769982,0.717947935
591,1482345,6000,0.896,-0.382,-0.137,-143.1,49.5,-72.4,-4.3,25.9,-19.2,0.32883694,0.529557176,-0.31183813,0.71703238
592,1483682,6000,0.825,-0.467,-0.151,-164.6,42.9,-65.3,-4.3,26.4,-18.8,0.332041383,0.528153325,-0.313333537,0.715933714
593,1486764,6010,0.798,-0.482,-0.139,-175.9,37.9,-61,-4.3,26.4,-18.8,0.335276345,0.526688437,-0.31510361,0.714712973
594,1489871,6010,0.802,-0.505,-0.111,-175.1,33.7,-57.4,-4.3,26.4,-18.8,0.338419752,0.525284585,-0.316934721,0.713492233
595,1491353,6010,0.802,-0.529,-0.095,-165.4,29.4,-53.4,-4.3,26.4,-18.8,0.341349528,0.523972289,-0.318674276,0.712271493
596,1494412,6010,0.787,-0.532,-0.052,-151.6,25.1,-48.6,-4.4,27.2,-18,0.344004639,0.522782067,-0.320291757,0.711142308
597,1497433,6020,0.779,-0.536,-0.036,-138.2,21.1,-43,-4.4,27.2,-18,0.346385083,0.521713919,-0.321787164,0.710104678
598,1498832,6020,0.779,-0.536,-0.028,-127.5,18.1,-36.8,-4.4,27.2,-18,0.348551897,0.520706809,-0.323191015,0.709128086
599,1502706,6020,0.775,-0.543,-0.017,-120,16.5,-30.5,-4.4,27.2,-18,0.350505081,0.519760735,-0.324594867,0.708212531
600,1504762,6020,0.775,-0.532,-0.013,-115.3,16.2,-24.6,-4.4,27.3,-16.7,0.352305673,0.518814661,-0.3259682,0.707388531
601,1507158,6030,0.771,-0.524,-0.013,-112.1,17,-19.2,-4.4,27.3,-16.7,0.353984191,0.51780755,-0.327341533,0.706656087
602,1509439,6030,0.767,-0.52,-0.009,-109.2,18.2,-14.4,-4.4,27.3,-16.7,0.355571154,0.516800439,-0.328714866,0.705954161
603,1511669,6030,0.768,-0.504,0.006,-106.3,19.5,-10,-4.4,27.3,-16.7,0.357066561,0.515732292,-0.330088198,0.705343791
604,1513869,6030,0.768,-0.504,0.006,-106.3,19.5,-10,-4.4,27.3,-16.7,0.357066561,0.515732292,-0.330088198,0.705343791
605,1516002,6040,0.768,-0.48,0.022,-99.9,20.5,-2.2,-4.4,27.7,-15.9,0.358958708,0.513473922,-0.333872494,0.704245125
606,1519926,6040,0.768,-0.473,0.029,-96.2,20.2,1.1,-4.4,27.7,-15.9,0.36014893,0.512405774,-0.33518479,0.703787347
607,1522195,6040,0.768,-0.465,0.053,-92.3,19.3,4.3,-4.4,27.7,-15.9,0.361247597,0.511337626,-0.336497085,0.703360088
608,1524406,6040,0.772,-0.461,0.068,-87.8,17.8,7,-4.7,28.1,-18.9,0.362254707,0.510330515,-0.337809381,0.702963347
609,1526698,6050,0.776,-0.461,0.088,-83,15.9,9.4,-4.7,28.1,-18.9,0.363170263,0.509353923,-0.33906064,0.702627644
610,1529994,6050,0.788,-0.465,0.103,-78,13.6,11.6,-4.7,28.1,-18.9,0.363963744,0.508438368,-0.340250862,0.70229194
611,1531584,6050,0.804,-0.461,0.13,-73,11.2,13.6,-4.7,28.1,-18.9,0.364635151,0.50758385,-0.341441084,0.701956236
612,1534014,6050,0.808,-0.465,0.154,-68.3,8.9,15.3,-4.4,28.1,-16.3,0.365215003,0.506790368,-0.342600787,0.70168157
613,1536307,6060,0.804,-0.476,0.17,-63.9,6.9,16.8,-4.4,28.1,-16.3,0.365703299,0.506057924,-0.343699454,0.701406903
614,1538444,6060,0.812,-0.48,0.205,-60.1,5.3,18.2,-4.4,28.1,-16.3,0.366161077,0.505355998,-0.344767602,0.701162755
615,1542332,6060,0.82,-0.488,0.224,-56.8,4.2,19.5,-4.4,28.1,-16.3,0.36649678,0.504684591,-0.345835749,0.700949126
616,1544708,6060,0.82,-0.5,0.236,-53.8,3.5,20.6,-3.9,28.2,-15.8,0.366801965,0.504043703,-0.34684286,0.700735496
617,1547020,6070,0.812,-0.523,0.244,-51.2,3.2,21.6,-3.9,28.2,-15.8,0.367076632,0.503402814,-0.347849971,0.700552385
618,1549040,6070,0.824,-0.519,0.255,-48.8,2.8,22.4,-3.9,28.2,-15.8,0.367290262,0.502792444,-0.348826563,0.700399792
619,1551536,6070,0.831,-0.535,0.259,-46.3,2,22.8,-3.9,28.2,-15.8,0.367473373,0.50224311,-0.349772637,0.7002472
620,1555090,6070,0.831,-0.535,0.259,-43.3,1,23.2,-4.1,28.7,-15.4,0.367595447,0.501693777,-0.350657674,0.700125126
621,1557253,6080,0.827,-0.543,0.259,-40,-0.2,23.8,-4.1,28.7,-15.4,0.367656484,0.501174963,-0.351542711,0.700003052
622,1559634,6080,0.847,-0.528,0.247,-36.9,-1.4,24.7,-4.1,28.7,-15.4,0.367656484,0.500717185,-0.352397229,0.699880978
623,1561779,6080,0.855,-0.528,0.243,-34.3,-2.4,25.8,-4.1,28.7,-15.4,0.367625965,0.500289926,-0.353221229,0.699819941
624,1563965,6080,0.855,-0.528,0.243,-34.3,-2.4,25.8,-4.1,28.7,-15.4,0.367625965,0.500289926,-0.353221229,0.699819941
625,1566403,6090,0.843,-0.543,0.193,-31.3,-3.9,28.4,-4.4,28.7,-16.2,0.366649373,0.498764,-0.355784783,0.700125126
626,1569949,6090,0.819,-0.527,0.189,-30.5,-4.5,29.9,-4.4,28.7,-16.2,0.36649678,0.498336741,-0.356608783,0.700064089
627,1572353,6090,0.827,-0.524,0.177,-29.3,-5.5,31.7,-4.4,28.7,-16.2,0.366283151,0.497940001,-0.357432783,0.70003357
628,1574328,6090,0.827,-0.524,0.165,-27.7,-7.4,33.4,-4.2,28.7,-17.2,0.366008484,0.497573778,-0.358287301,0.700003052
629,1577462,6100,0.886,-0.482,0.152,-25.2,-10.2,34.7,-4.2,28.7,-17.2,0.365672781,0.497268593,-0.35914182,0.699972533
630,1579171,6100,0.917,-0.455,0.16,-21.9,-13.6,35.3,-4.2,28.7,-17.2,0.36527604,0.497024445,-0.359965819,0.699942015
631,1581252,6100,0.901,-0.451,0.156,-18.2,-16.6,35.2,-4.2,28.7,-17.2,0.364787744,0.496841334,-0.360759301,0.699911496
632,1584355,6100,0.886,-0.435,0.141,-14.5,-18.8,34.5,-4,29.2,-16.3,0.364268929,0.496749779,-0.361491745,0.699850459
633,1587189,6110,0.909,-0.408,0.14,-10.9,-20.5,33.6,-4,29.2,-16.3,0.363719596,0.49671926,-0.36219367,0.699819941
634,1588654,6110,0.905,-0.396,0.14,-7.3,-21.9,32.1,-4,29.2,-16.3,0.363139744,0.496749779,-0.362834559,0.699758904
635,1592358,6110,0.898,-0.381,0.136,-3.8,-23.6,30.1,-4,29.2,-16.3,0.362529374,0.496841334,-0.363414411,0.699728385
636,1594458,6110,0.886,-0.404,0.117,-0.6,-25.5,27.4,-4.5,29,-17,0.361919004,0.496993927,-0.363902707,0.699667348
637,1596480,6120,0.941,-0.342,0.12,2.5,-28,24.6,-4.5,29,-17,0.361278115,0.497238075,-0.364360485,0.699575793
638,1598893,6120,0.996,-0.277,0.134,6.1,-30.8,22.3,-4.5,29,-17,0.360637226,0.497573778,-0.364757225,0.699453719
639,1600877,6120,1.003,-0.269,0.13,9.8,-33.4,20.9,-4.5,29,-17,0.359935301,0.498001038,-0.365092929,0.699331645
640,1604542,6120,1.027,-0.211,0.141,12.6,-35.1,20.5,-4.5,29.1,-17.2,0.359202857,0.498489334,-0.365398114,0.699209571
641,1606521,6130,1.008,-0.218,0.142,13.8,-35.2,20.9,-4.5,29.1,-17.2,0.358439894,0.498947111,-0.365703299,0.699118015
642,1610031,6130,0.968,-0.241,0.131,13.6,-34.1,21.8,-4.5,29.1,-17.2,0.35770745,0.499404889,-0.365977966,0.69902646
643,1611840,6130,0.941,-0.245,0.12,13,-32.5,23.1,-4.5,29.1,-17.2,0.356944487,0.499832148,-0.366283151,0.698965423
644,1614070,6130,0.941,-0.245,0.12,13,-32.5,23.1,-4.5,29.1,-17.2,0.356944487,0.499832148,-0.366283151,0.698965423
645,1616248,6140,0.953,-0.268,0.116,15.9,-31.5,26.8,-4.3,28.7,-17.1,0.354503006,0.50102237,-0.368053224,0.698416089
646,1618413,6140,0.964,-0.218,0.127,21,-32.6,28.8,-4.3,28.7,-17.1,0.353556932,0.501449629,-0.368297372,0.698446608
647,1622281,6140,0.973,-0.12,0.154,28,-34.2,29.9,-4.3,28.7,-17.1,0.352519303,0.501937925,-0.368449965,0.698538163
648,1624927,6140,0.996,-0.077,0.161,34,-35.1,29.6,-4.1,29,-15.9,0.351420637,0.502517777,-0.36854152,0.698660237
649,1626820,6150,1,-0.038,0.177,36.6,-35.3,28.2,-4.1,29,-15.9,0.350291452,0.503097629,-0.36854152,0.698782311
650,1630373,6150,1.012,0.004,0.184,34.2,-34.7,26.3,-4.1,29,-15.9,0.349253822,0.50367748,-0.368602557,0.698873867
651,1632320,6150,0.969,-0.03,0.174,27.5,-33.6,24.5,-4.1,29,-15.9,0.34827723,0.504196295,-0.368694113,0.698904386
652,1634901,6150,0.981,-0.022,0.177,18,-32.2,23.3,-4.5,29,-16.3,0.347483749,0.504654073,-0.368907743,0.698873867
653,1637162,6160,0.997,-0.007,0.181,7.5,-30.7,22.5,-4.5,29,-16.3,0.346812342,0.504989776,-0.369273965,0.698782311
654,1638755,6160,0.993,-0.026,0.185,-2.2,-28.8,22,-4.5,29,-16.3,0.346263009,0.505233924,-0.369792779,0.6985992
655,1641506,6160,0.969,-0.045,0.181,-11,-26.1,21.2,-4.5,29,-16.3,0.345835749,0.505386517,-0.370372631,0.698385571
656,1645147,6160,0.946,-0.072,0.174,-18.9,-22.7,20,-4.4,28.8,-16.3,0.345561083,0.505417035,-0.371074557,0.698141423
657,1647364,6170,0.938,-0.092,0.17,-25.7,-18.8,18.2,-4.4,28.8,-16.3,0.34540849,0.505355998,-0.371807001,0.697866756
658,1649456,6170,0.926,-0.119,0.159,-30.9,-15.5,16.3,-4.4,28.8,-16.3,0.345377972,0.505233924,-0.372569964,0.697561571
659,1651646,6170,0.922,-0.127,0.163,-34.4,-13.1,14.6,-4.4,28.8,-16.3,0.345439009,0.505050813,-0.373363445,0.697225867
660,1654366,6170,0.926,-0.142,0.163,-36.4,-11.8,13.4,-4.2,29.1,-16.4,0.345530564,0.504867702,-0.374156926,0.696920682
661,1656451,6180,0.91,-0.15,0.163,-37.6,-11.2,12.5,-4.2,29.1,-16.4,0.345652638,0.504623554,-0.374950407,0.696584979
662,1658412,6180,0.906,-0.166,0.155,-38.5,-11,11.8,-4.2,29.1,-16.4,0.345835749,0.504409925,-0.375743889,0.696218757
663,1662136,6180,0.902,-0.181,0.156,-39.3,-11.2,11.1,-4.2,29.1,-16.4,0.345988342,0.504196295,-0.37653737,0.695852535
664,1663731,6180,0.902,-0.181,0.156,-39.3,-11.2,11.1,-4.2,29.1,-16.4,0.345988342,0.504196295,-0.37653737,0.695852535
665,1667082,6190,0.906,-0.193,0.159,-41.1,-12,9.9,-4.4,28.3,-16.1,0.346324046,0.503921628,-0.378276925,0.694967498
666,1669161,6190,0.906,-0.205,0.167,-42.3,-12.4,9.5,-4.4,28.3,-16.1,0.346537675,0.503707999,-0.379100925,0.694540239
667,1671255,6190,0.914,-0.205,0.171,-43.7,-13,9.1,-4.4,28.3,-16.1,0.346781823,0.503494369,-0.379985961,0.69411298
668,1674800,6190,0.922,-0.213,0.171,-45,-13.6,8.9,-4.2,30.1,-14.5,0.347025971,0.50328074,-0.380870998,0.693655202
669,1677557,6200,0.937,-0.225,0.178,-46.3,-14.3,8.8,-4.2,30.1,-14.5,0.347270119,0.50306711,-0.381756035,0.693197424
670,1679462,6200,0.941,-0.232,0.186,-47.4,-15,8.8,-4.2,30.1,-14.5,0.347544786,0.502853481,-0.382702109,0.69267861
671,1681009,6200,0.949,-0.233,0.186,-48.3,-15.7,8.6,-4.2,30.1,-14.5,0.347819452,0.50267037,-0.383648183,0.692190313
672,1684023,6200,0.973,-0.245,0.197,-49.1,-16.1,8.5,-4.4,29.3,-17,0.348094119,0.50245674,-0.384594256,0.691671499
673,1686055,6210,0.977,-0.241,0.201,-49.9,-16.3,8.2,-4.4,29.3,-17,0.348368786,0.502273629,-0.385570849,0.691122166
674,1689052,6210,0.988,-0.245,0.209,-50.6,-16.2,8.2,-4.4,29.3,-17,0.348673971,0.502059999,-0.386547441,0.690572832
675,1691245,6210,0.992,-0.245,0.209,-51.4,-15.9,8.3,-4.4,29.3,-17,0.348979156,0.501815851,-0.387524033,0.690023499
676,1694048,6210,1.004,-0.245,0.216,-52.2,-15.4,8.6,-4.5,29.1,-16.5,0.349284341,0.501602222,-0.388531144,0.689474166
677,1696327,6220,1.008,-0.249,0.216,-52.8,-15.1,8.9,-4.5,29.1,-16.5,0.349589526,0.501327555,-0.389538255,0.688955351
678,1699397,6220,1.008,-0.245,0.224,-53.1,-14.8,9,-4.5,29.1,-16.5,0.34992523,0.501083407,-0.390545366,0.688406018
679,1701537,6220,1.008,-0.249,0.224,-53.3,-14.5,9.2,-4.5,29.1,-16.5,0.350230415,0.500808741,-0.391552477,0.687856685
680,1704430,6220,1.02,-0.249,0.232,-53.3,-13.8,9.3,-5,29.5,-16.5,0.350566118,0.500534074,-0.392559587,0.687307352
681,1706072,6230,1.02,-0.253,0.232,-53.3,-13,9.4,-5,29.5,-16.5,0.350901822,0.500228889,-0.393566698,0.686788537
682,1709092,6230,1.012,-0.249,0.232,-53.1,-12.1,9.5,-5,29.5,-16.5,0.351207007,0.499923704,-0.394573809,0.686269723
683,1712078,6230,1.016,-0.257,0.236,-52.6,-11.1,9.5,-5,29.5,-16.5,0.351542711,0.499618519,-0.395550401,0.685781426
684,1713660,6230,1.016,-0.257,0.236,-52.6,-11.1,9.5,-5,29.5,-16.5,0.351542711,0.499618519,-0.395550401,0.685781426
685,1716046,6240,1.016,-0.257,0.236,-51.1,-8.9,9.4,-4.9,29.8,-16.6,0.352183599,0.498825037,-0.397473067,0.684926908
686,1719668,6240,1.016,-0.265,0.244,-50.2,-7.9,9.1,-4.9,29.8,-16.6,0.352519303,0.498458815,-0.398388623,0.684469131
687,1721255,6240,1.012,-0.28,0.244,-49.3,-7,8.7,-4.9,29.8,-16.6,0.352855007,0.498123112,-0.399273659,0.684011353
688,1724306,6240,1.008,-0.284,0.244,-48.3,-6.1,8,-4.6,30.6,-14.9,0.353221229,0.49775689,-0.400128178,0.683584094
689,1727539,6250,1.008,-0.292,0.244,-47.3,-5.3,7.3,-4.6,30.6,-14.9,0.353556932,0.497421186,-0.400952177,0.683187353
690,1730080,6250,1.004,-0.304,0.248,-46.2,-4.6,6.6,-4.6,30.6,-14.9,0.353923154,0.497054964,-0.401776177,0.682790613
691,1731980,6250,0.992,-0.315,0.256,-45.1,-3.9,5.8,-4.6,30.6,-14.9,0.354289377,0.49671926,-0.40253914,0.682393872
692,1734119,6250,0.996,-0.323,0.256,-44,-3.3,5,-4.3,30.3,-14.7,0.354655599,0.496383557,-0.403271584,0.681997131
693,1736551,6260,0.988,-0.331,0.256,-42.7,-2.9,4.1,-4.3,30.3,-14.7,0.355052339,0.496078372,-0.40397351,0.681630909
694,1738746,6260,0.988,-0.346,0.256,-41.5,-2.7,3.3,-4.3,30.3,-14.7,0.355418561,0.495742668,-0.404644917,0.681264687
695,1742487,6260,0.98,-0.354,0.268,-40.2,-2.6,2.5,-4.3,30.3,-14.7,0.355784783,0.495468001,-0.405285806,0.680898465
696,1744554,6260,0.98,-0.37,0.264,-39.1,-2.5,1.8,-4.2,30.9,-14.4,0.356151006,0.495193335,-0.405926695,0.680532243
697,1746959,6270,0.973,-0.369,0.264,-37.9,-2.4,1.2,-4.2,30.9,-14.4,0.356517228,0.494918668,-0.406506546,0.680166021
698,1749089,6270,0.969,-0.389,0.264,-36.7,-2.3,0.7,-4.2,30.9,-14.4,0.35688345,0.494613483,-0.407086398,0.679830317
699,1751477,6270,0.969,-0.393,0.268,-35.3,-2,0.3,-4.2,30.9,-14.4,0.357249672,0.494399854,-0.407635731,0.679494613
700,1753693,6270,0.965,-0.393,0.26,-33.8,-1.8,0,-4.8,31.2,-14.9,0.357615894,0.494155705,-0.408154546,0.679189428
701,1757477,6280,0.965,-0.393,0.26,-32.2,-1.8,0,-4.8,31.2,-14.9,0.357890561,0.493942076,-0.408642842,0.678884243
702,1759674,6280,0.961,-0.397,0.268,-30.5,-1.8,0,-4.8,31.2,-14.9,0.358256783,0.493728446,-0.40910062,0.678579058
703,1761529,6280,0.961,-0.397,0.268,-28.9,-1.7,0,-4.8,31.2,-14.9,0.358531449,0.493514817,-0.409527879,0.678304392
704,1763792,6280,0.961,-0.397,0.268,-28.9,-1.7,0,-4.8,31.2,-14.9,0.358531449,0.493514817,-0.409527879,0.678304392
705,1766224,6290,0.957,-0.393,0.268,-25.4,-1.6,0.6,-4.4,31.2,-14.2,0.356913968,0.489547411,-0.412213507,0.680440687
706,1770105,6290,0.957,-0.385,0.268,-23.8,-1.5,1,-4.4,31.2,-14.2,0.357127598,0.489364299,-0.41257973,0.680196539
707,1772651,6290,0.961,-0.381,0.268,-22.2,-1.6,1.3,-4.4,31.2,-14.2,0.357341227,0.489211707,-0.412945952,0.67998291
708,1774872,6290,0.957,-0.385,0.264,-20.8,-1.6,1.8,-4.6,30.6,-14.1,0.357524339,0.489059114,-0.413312174,0.679799799
709,1777009,6300,0.965,-0.365,0.264,-19.2,-1.5,2.3,-4.6,30.6,-14.1,0.357676931,0.488906522,-0.413617359,0.679647206
710,1779182,6300,0.961,-0.361,0.26,-17.5,-1.1,2.8,-4.6,30.6,-14.1,0.357799005,0.488753929,-0.413922544,0.679494613
711,1781445,6300,0.969,-0.358,0.256,-15.7,-0.7,3.2,-4.6,30.6,-14.1,0.357890561,0.488601337,-0.414197211,0.679372539
712,1783712,6300,0.969,-0.346,0.252,-13.9,-0.2,3.5,-4.7,30.9,-14.3,0.358012635,0.488479263,-0.414441359,0.679250465
713,1786200,6310,0.973,-0.342,0.248,-12.4,0.1,3.6,-4.7,30.9,-14.3,0.35810419,0.488357189,-0.414654988,0.679189428
714,1789949,6310,0.973,-0.33,0.248,-10.9,0.5,3.7,-4.7,30.9,-14.3,0.358165227,0.488204596,-0.414868618,0.679097873
715,1792258,6310,0.977,-0.327,0.248,-9.6,0.9,3.7,-4.7,30.9,-14.3,0.358226264,0.488082522,-0.415051729,0.679067354
716,1794395,6310,0.984,-0.315,0.244,-8.3,1.3,3.8,-4.8,31.1,-14,0.358256783,0.487960448,-0.415204321,0.679036836
717,1796636,6320,0.98,-0.311,0.237,-7.1,1.8,3.9,-4.8,31.1,-14,0.358287301,0.487868892,-0.415326395,0.679006317
718,1798943,6320,0.98,-0.303,0.237,-6,2.2,4.1,-4.8,31.1,-14,0.35831782,0.487746818,-0.415448469,0.679006317
719,1801256,6320,0.984,-0.295,0.236,-4.9,2.6,4.2,-4.8,31.1,-14,0.358348338,0.487624744,-0.415540025,0.679036836
720,1805004,6320,0.977,-0.288,0.233,-3.8,3,4.3,-5.2,31,-14,0.358348338,0.48750267,-0.415631581,0.679067354
721,1807189,6330,0.973,-0.287,0.233,-2.8,3.3,4.4,-5.2,31,-14,0.358348338,0.487380596,-0.415692618,0.679097873
722,1809324,6330,0.973,-0.28,0.229,-1.7,3.6,4.3,-5.2,31,-14,0.35831782,0.487289041,-0.415723136,0.67915891
723,1811588,6330,0.977,-0.284,0.217,-0.7,3.8,4.3,-5.2,31,-14,0.35831782,0.487197485,-0.415753655,0.679250465
724,1813799,6330,0.977,-0.284,0.217,-0.7,3.8,4.3,-5.2,31,-14,0.35831782,0.487197485,-0.415753655,0.679250465
725,1817205,6340,0.961,-0.28,0.225,1,4.2,4.1,-5.9,31.1,-13.7,0.357982116,0.486373486,-0.415936766,0.679860836
726,1818935,6340,0.965,-0.28,0.225,1.8,4.4,3.9,-5.9,31.1,-13.7,0.357951598,0.48628193,-0.415906247,0.679952391
727,1821092,6340,0.957,-0.276,0.225,2.4,4.7,3.6,-5.9,31.1,-13.7,0.357890561,0.486190374,-0.415875729,0.680074465
728,1824522,6340,0.957,-0.276,0.225,3,4.9,3.3,-3.9,30.2,-14,0.357860042,0.486129337,-0.41584521,0.680166021
729,1826169,6350,0.953,-0.279,0.225,3.4,5,3,-3.9,30.2,-14,0.357829524,0.486037782,-0.415784173,0.680288095
730,1829257,6350,0.953,-0.287,0.225,3.8,5,2.7,-3.9,30.2,-14,0.357799005,0.485976745,-0.415723136,0.68037965
731,1831391,6350,0.941,-0.287,0.229,3.9,4.9,2.5,-3.9,30.2,-14,0.357768487,0.485915708,-0.415631581,0.680501724
732,1834298,6350,0.945,-0.291,0.225,3.8,4.7,2.1,-5.2,31.3,-14,0.357737968,0.485854671,-0.415570544,0.68059328
733,1837255,6360,0.941,-0.291,0.233,3.5,4.7,1.8,-5.2,31.3,-14,0.35770745,0.485793634,-0.415509507,0.680715354
734,1838885,6360,0.941,-0.303,0.237,3.2,4.7,1.6,-5.2,31.3,-14,0.35770745,0.485732597,-0.415417951,0.680806909
735,1841931,6360,0.941,-0.299,0.229,2.7,4.9,1.6,-5.2,31.3,-14,0.357676931,0.48567156,-0.415356914,0.680898465
736,1844164,6360,0.934,-0.302,0.237,2.3,5.2,1.6,-5.3,31.9,-14.3,0.357676931,0.485580004,-0.415295877,0.680959502
737,1846296,6370,0.934,-0.306,0.241,1.9,5.2,1.5,-5.3,31.9,-14.3,0.357676931,0.485518967,-0.415265358,0.681051057
738,1849387,6370,0.934,-0.31,0.237,1.7,5.1,1.5,-5.3,31.9,-14.3,0.357676931,0.485427412,-0.415204321,0.681142613
739,1852088,6370,0.934,-0.314,0.233,1.5,4.8,1.4,-5.3,31.9,-14.3,0.35770745,0.485366375,-0.415143284,0.681234169
740,1853974,6370,0.934,-0.322,0.237,1.4,4.6,1.4,-5.2,31.9,-14.1,0.35770745,0.485305338,-0.415112766,0.681295206
741,1856134,6380,0.93,-0.318,0.237,1.4,4.5,1.4,-5.2,31.9,-14.1,0.35770745,0.485213782,-0.415082247,0.681356243
742,1858852,6380,0.934,-0.318,0.237,1.4,4.4,1.5,-5.2,31.9,-14.1,0.35770745,0.485152745,-0.41502121,0.681447798
743,1861766,6380,0.934,-0.318,0.237,1.4,4.3,1.6,-5.2,31.9,-14.1,0.35770745,0.485091708,-0.414990692,0.681508835
744,1863493,6380,0.934,-0.318,0.237,1.4,4.3,1.6,-5.2,31.9,-14.1,0.35770745,0.485091708,-0.414990692,0.681508835
745,1867045,6390,0.93,-0.322,0.237,2.1,3.8,1.8,-4.9,31.7,-13.9,0.357219153,0.484054079,-0.415295877,0.682332835
746,1869058,6390,0.934,-0.322,0.237,2.7,3.4,1.8,-4.9,31.7,-13.9,0.357188635,0.483993042,-0.41523484,0.68242439
747,1872204,6390,0.934,-0.318,0.237,3.4,3.1,2,-4.9,31.7,-13.9,0.357158116,0.483962523,-0.415204321,0.682485427
748,1873840,6390,0.934,-0.314,0.237,4,2.7,2.2,-4.4,30.9,-14.1,0.357097079,0.483932005,-0.415143284,0.682576983
749,1876764,6400,0.934,-0.31,0.241,4.8,2.2,2.6,-4.4,30.9,-14.1,0.357036042,0.483901486,-0.415082247,0.682668538
750,1879557,6400,0.934,-0.31,0.233,5.5,1.8,3,-4.4,30.9,-14.1,0.356944487,0.483901486,-0.414990692,0.682760094
751,1881117,6400,0.937,-0.306,0.237,6.2,1.5,3.3,-4.4,30.9,-14.1,0.356822413,0.483901486,-0.414929655,0.68285165
752,1884355,6400,0.937,-0.299,0.233,6.8,1.2,3.8,-4.5,31.2,-14.3,0.356700339,0.483901486,-0.414868618,0.682943205
753,1886633,6410,0.941,-0.299,0.237,7.5,0.7,4.1,-4.5,31.2,-14.3,0.356578265,0.483901486,-0.414777062,0.683065279
754,1888909,6410,0.941,-0.295,0.233,8.2,0.1,4.4,-4.5,31.2,-14.3,0.356425672,0.483932005,-0.414716025,0.683187353
755,1891768,6410,0.941,-0.291,0.233,9,-0.4,4.7,-4.5,31.2,-14.3,0.356242561,0.483962523,-0.41462447,0.683278909
756,1894144,6410,0.941,-0.287,0.229,9.8,-0.9,4.8,-4.3,31.2,-14.2,0.35605945,0.483993042,-0.414532914,0.683400983
757,1896365,6420,0.945,-0.287,0.225,10.5,-1.1,5.1,-4.3,31.2,-14.2,0.355876339,0.484054079,-0.414441359,0.683523057
758,1899121,6420,0.945,-0.283,0.225,11.2,-1.3,5.3,-4.3,31.2,-14.2,0.355662709,0.484115116,-0.414349803,0.683675649
759,1902339,6420,0.945,-0.283,0.225,11.9,-1.7,5.5,-4.3,31.2,-14.2,0.35544908,0.484176153,-0.414227729,0.683797723
760,1904725,6420,0.953,-0.272,0.217,12.6,-2.2,5.6,-4.4,31.2,-14.4,0.355204932,0.484267708,-0.414136174,0.683919797
761,1906991,6430,0.953,-0.268,0.217,13.1,-2.7,5.7,-4.4,31.2,-14.4,0.354960784,0.484359264,-0.4140141,0.68407239
762,1909174,6430,0.949,-0.26,0.217,13.7,-3.2,5.7,-4.4,31.2,-14.4,0.354686117,0.484450819,-0.413892026,0.684194464
763,1911709,6430,0.957,-0.26,0.221,14,-3.5,5.8,-4.4,31.2,-14.4,0.354411451,0.484572893,-0.413769951,0.684347056
764,1913761,6430,0.957,-0.26,0.221,14,-3.5,5.8,-4.4,31.2,-14.4,0.354411451,0.484572893,-0.413769951,0.684347056
765,1916040,6440,0.957,-0.256,0.217,14.6,-4.1,5.8,-4.1,31,-14.3,0.353434858,0.483687857,-0.41380047,0.685445723
766,1919394,6440,0.957,-0.26,0.221,14.8,-4.3,5.9,-4.1,31,-14.3,0.353129673,0.483809931,-0.413678396,0.685598315
767,1921335,6440,0.965,-0.256,0.221,14.9,-4.5,5.8,-4.1,31,-14.3,0.352855007,0.483932005,-0.413556322,0.685720389
768,1925008,6440,0.957,-0.252,0.217,15.1,-4.7,5.6,-4.8,30.7,-14.5,0.35258034,0.484084597,-0.413434248,0.685842463
769,1926901,6450,0.957,-0.252,0.213,15.2,-4.9,5.3,-4.8,30.7,-14.5,0.352275155,0.484206671,-0.413281655,0.685964537
770,1929317,6450,0.953,-0.26,0.217,15.4,-5,5,-4.8,30.7,-14.5,0.352000488,0.484359264,-0.413159581,0.686086612
771,1931284,6450,0.953,-0.264,0.21,15.7,-5.2,4.8,-4.8,30.7,-14.5,0.351695303,0.484511856,-0.413006989,0.686208686
772,1933492,6450,0.949,-0.26,0.214,16,-5.5,4.5,-4.2,30.6,-14.5,0.351420637,0.484694967,-0.412854396,0.68633076
773,1936549,6460,0.949,-0.264,0.21,16.3,-6,4.4,-4.2,30.6,-14.5,0.351115452,0.48484756,-0.412701804,0.686452834
774,1938925,6460,0.949,-0.26,0.21,16.5,-6.4,4.2,-4.2,30.6,-14.5,0.350840785,0.48506119,-0.412549211,0.686574908
775,1942026,6460,0.949,-0.268,0.206,16.8,-6.7,4.1,-4.2,30.6,-14.5,0.3505356,0.485244301,-0.412396619,0.686696982
776,1944820,6460,0.945,-0.264,0.206,16.9,-6.9,4.1,-3.9,30.7,-14.6,0.350230415,0.485427412,-0.412244026,0.686788537
777,1947026,6470,0.941,-0.268,0.206,17,-7.2,4.2,-3.9,30.7,-14.6,0.34992523,0.485641041,-0.412091433,0.686910611
778,1949405,6470,0.937,-0.264,0.21,17,-7.5,4.3,-3.9,30.7,-14.6,0.349589526,0.485854671,-0.411938841,0.687002167
779,1951519,6470,0.941,-0.268,0.206,17,-7.8,4.5,-3.9,30.7,-14.6,0.349284341,0.486037782,-0.411786248,0.687124241
780,1953800,6470,0.941,-0.264,0.206,17,-8,4.7,-4,30.6,-14.8,0.348948637,0.486251411,-0.411633656,0.687215796
781,1957565,6480,0.941,-0.26,0.202,17,-8.2,5,-4,30.6,-14.8,0.348612934,0.486465041,-0.411511582,0.687307352
782,1959809,6480,0.941,-0.26,0.206,17.1,-8.4,5.3,-4,30.6,-14.8,0.34827723,0.486678671,-0.411358989,0.687429426
783,1961938,6480,0.941,-0.256,0.206,17.1,-8.4,5.7,-4,30.6,-14.8,0.347941527,0.4868923,-0.411236915,0.687520981
784,1964125,6480,0.941,-0.256,0.206,17.1,-8.4,5.7,-4,30.6,-14.8,0.347941527,0.4868923,-0.411236915,0.687520981
785,1966545,6490,0.945,-0.248,0.206,17.1,-8.5,6.5,-3.9,30.7,-14.6,0.347025971,0.4868923,-0.41114536,0.688039796
786,1968816,6490,0.941,-0.248,0.21,17,-8.4,6.9,-3.9,30.7,-14.6,0.346659749,0.487075411,-0.411023286,0.68816187
787,1972509,6490,0.949,-0.24,0.21,16.9,-8.3,7.3,-3.9,30.7,-14.6,0.346293527,0.487258522,-0.41093173,0.688283944
788,1974754,6490,0.945,-0.244,0.206,16.7,-8.2,7.7,-5.3,30.6,-14.4,0.345927305,0.487441633,-0.410809656,0.688406018
789,1976915,6500,0.949,-0.233,0.21,16.5,-8.2,8.1,-5.3,30.6,-14.4,0.345561083,0.487624744,-0.410718101,0.688528092
790,1978902,6500,0.949,-0.236,0.21,16.3,-8.1,8.4,-5.3,30.6,-14.4,0.345194861,0.487807855,-0.410626545,0.688650166
791,1980906,6500,0.949,-0.233,0.206,16.2,-8,8.6,-5.3,30.6,-14.4,0.34479812,0.487960448,-0.410534989,0.68877224
792,1984818,6500,0.949,-0.229,0.206,16.2,-7.9,8.8,-3.5,30.6,-14.7,0.344431898,0.488113041,-0.410443434,0.688894314
793,1987246,6510,0.953,-0.221,0.202,16.3,-7.9,9,-3.5,30.6,-14.7,0.344065676,0.488296152,-0.410351878,0.689016388
794,1989567,6510,0.957,-0.213,0.209,16.2,-8,9.1,-3.5,30.6,-14.7,0.343668935,0.488448744,-0.410260323,0.689138462
795,1991738,6510,0.961,-0.217,0.209,16.1,-7.9,9.3,-3.5,30.6,-14.7,0.343272195,0.488601337,-0.410168767,0.689291055
796,1993879,6510,0.965,-0.205,0.209,15.9,-7.6,9.4,-3.9,30.3,-14.7,0.342905972,0.488753929,-0.41010773,0.689413129
797,1995956,6520,0.965,-0.205,0.209,15.7,-7.3,9.5,-3.9,30.3,-14.7,0.34253975,0.488906522,-0.410016175,0.689535203
798,1999639,6520,0.973,-0.206,0.205,15.6,-7.1,9.5,-3.9,30.3,-14.7,0.34214301,0.489028596,-0.409955138,0.689687796
799,2001274,6520,0.973,-0.206,0.213,15.5,-7,9.4,-3.9,30.3,-14.7,0.341776788,0.489181188,-0.409863582,0.68980987
800,2003728,6520,0.981,-0.198,0.209,15.4,-6.7,9.3,-3.8,30.5,-14.9,0.341410566,0.489303262,-0.409772027,0.689962462
801,2007132,6530,0.977,-0.194,0.205,15.1,-6.4,9.1,-3.8,30.5,-14.9,0.341044343,0.489425336,-0.409680471,0.690084536
802,2009311,6530,0.981,-0.198,0.209,14.9,-6.2,9.1,-3.8,30.5,-14.9,0.34070864,0.489547411,-0.409619434,0.690237129
803,2011493,6530,0.985,-0.194,0.213,14.9,-6.2,9.1,-3.8,30.5,-14.9,0.340311899,0.489700003,-0.409527879,0.690359203
804,2013718,6530,0.985,-0.194,0.213,14.9,-6.2,9.1,-3.8,30.5,-14.9,0.340311899,0.489700003,-0.409527879,0.690359203
805,2015969,6540,0.988,-0.194,0.213,14.8,-5.5,8.9,-3.6,30.3,-14.6,0.339976196,0.48997467,-0.408978545,0.690664388
806,2018519,6540,0.985,-0.194,0.213,14.8,-5.1,8.8,-3.6,30.3,-14.6,0.339640492,0.490096744,-0.40888699,0.690786462
807,2021501,6540,0.988,-0.194,0.213,14.8,-4.7,8.7,-3.6,30.3,-14.6,0.339335307,0.490188299,-0.408795434,0.690939055
808,2025151,6540,0.988,-0.206,0.217,14.7,-4.4,8.5,-4.4,30.4,-15.1,0.338999603,0.490310373,-0.40867336,0.691091647
809,2027469,6550,0.988,-0.202,0.213,14.7,-4.1,8.3,-4.4,30.4,-15.1,0.3386639,0.490401929,-0.408581805,0.69124424
810,2029674,6550,0.992,-0.206,0.217,14.7,-3.8,8.2,-4.4,30.4,-15.1,0.338358715,0.490493484,-0.408490249,0.691396832
811,2031556,6550,0.992,-0.21,0.213,14.8,-3.5,8,-4.4,30.4,-15.1,0.338053529,0.49058504,-0.408368175,0.691549425
812,2033852,6550,0.992,-0.214,0.217,14.9,-3.2,7.9,-4.2,30.5,-14.9,0.337748344,0.490676595,-0.408246101,0.691702017
813,2037370,6560,0.988,-0.218,0.213,14.8,-2.9,7.7,-4.2,30.5,-14.9,0.337443159,0.490707114,-0.408124027,0.69185461
814,2039570,6560,0.992,-0.221,0.213,14.8,-2.6,7.6,-4.2,30.5,-14.9,0.337137974,0.490829188,-0.408001953,0.692007202
815,2041874,6560,0.988,-0.225,0.217,14.8,-2.2,7.5,-4.2,30.5,-14.9,0.336832789,0.490920743,-0.407879879,0.692190313
816,2044044,6560,0.992,-0.229,0.213,15,-1.9,7.3,-4.4,30.6,-15.3,0.336558123,0.49098178,-0.407757805,0.692342906
817,2047522,6570,0.988,-0.225,0.213,15.1,-1.6,7.3,-4.4,30.6,-15.3,0.336252937,0.491042817,-0.407605213,0.692526017
818,2049873,6570,0.984,-0.237,0.213,15.3,-1.3,7.3,-4.4,30.6,-15.3,0.335978271,0.491134373,-0.407483139,0.692709128
819,2052120,6570,0.988,-0.237,0.209,15.4,-1,7.5,-4.4,30.6,-15.3,0.335703604,0.49119541,-0.407330546,0.692892239
820,2054402,6570,0.988,-0.237,0.217,15.5,-0.8,7.7,-4.3,30.5,-14.9,0.335398419,0.491225929,-0.407177953,0.69307535
821,2056619,6580,0.992,-0.241,0.217,15.6,-0.6,7.9,-4.3,30.5,-14.9,0.335093234,0.491286966,-0.407025361,0.693258461
822,2058881,6580,0.992,-0.237,0.22,15.7,-0.5,8.1,-4.3,30.5,-14.9,0.334818567,0.491348003,-0.406872768,0.693441572
823,2062452,6580,0.988,-0.237,0.224,15.9,-0.5,8.2,-4.3,30.5,-14.9,0.334513382,0.49140904,-0.406720176,0.693655202
824,2064758,6580,0.988,-0.237,0.224,15.9,-0.5,8.2,-4.3,30.5,-14.9,0.334513382,0.49140904,-0.406720176,0.693655202
825,2067380,6590,0.984,-0.233,0.217,16.1,-0.2,8.6,-4.3,30.7,-14.8,0.334025086,0.491317484,-0.40623188,0.694235054
826,2069689,6590,0.969,-0.233,0.221,16.3,-0.2,8.8,-4.3,30.7,-14.8,0.333719901,0.491348003,-0.406079287,0.694448683
827,2071840,6590,0.961,-0.229,0.221,16.4,-0.3,9.1,-4.3,30.7,-14.8,0.333384198,0.49140904,-0.405926695,0.694662313
828,2074130,6590,0.961,-0.229,0.217,16.4,-0.7,9.6,-4.5,30.4,-15.7,0.333079012,0.491439558,-0.405774102,0.694875942
829,2076339,6600,0.984,-0.225,0.209,16.5,-1.4,10.5,-4.5,30.4,-15.7,0.33271279,0.491500595,-0.405652028,0.695059053
830,2078820,6600,0.996,-0.225,0.209,16.7,-2.5,11.6,-4.5,30.4,-15.7,0.332346568,0.491561632,-0.405560472,0.695272683
831,2082308,6600,1.004,-0.222,0.205,17,-3.9,12.6,-4.5,30.4,-15.7,0.331919309,0.491622669,-0.405438398,0.695486312
832,2084564,6600,1,-0.218,0.209,17.2,-5.1,13,-3.9,29.8,-14.5,0.33149205,0.491714225,-0.405377361,0.695669424
833,2086355,6610,1.024,-0.199,0.212,17.7,-5.7,12.8,-3.9,29.8,-14.5,0.331064791,0.49180578,-0.405285806,0.695852535
834,2088767,6610,1.024,-0.191,0.208,18.2,-5.5,12.2,-3.9,29.8,-14.5,0.330637532,0.491927854,-0.405163732,0.696035646
835,2092184,6610,1.024,-0.183,0.208,18.7,-4.7,11.5,-3.9,29.8,-14.5,0.330210273,0.49201941,-0.405041658,0.696249275
836,2094560,6610,1.004,-0.179,0.208,19.1,-3.3,11,-4.1,30.1,-13.9,0.329813532,0.492110965,-0.404889065,0.696462905
837,2096927,6620,0.996,-0.175,0.212,19.2,-1.6,10.5,-4.1,30.1,-13.9,0.329416791,0.492172002,-0.404736473,0.696676534
838,2099219,6620,0.996,-0.175,0.205,19.1,0,10.2,-4.1,30.1,-13.9,0.329081088,0.492233039,-0.404553362,0.696920682
839,2101454,6620,0.992,-0.171,0.205,18.9,1.5,10,-4.1,30.1,-13.9,0.328714866,0.492263558,-0.404339732,0.69716483
840,2103715,6620,0.985,-0.167,0.205,18.7,2.5,9.8,-3.9,30,-14.1,0.32840968,0.492263558,-0.404156621,0.697439497
841,2106124,6630,0.989,-0.163,0.205,18.4,3,9.7,-3.9,30,-14.1,0.328073977,0.492263558,-0.40397351,0.697714164
842,2109453,6630,0.985,-0.151,0.193,18.2,3.1,9.7,-3.9,30,-14.1,0.327768792,0.492263558,-0.40375988,0.69798883
843,2111441,6630,0.977,-0.151,0.201,18,3.1,9.4,-3.9,30,-14.1,0.327463607,0.492263558,-0.403576769,0.698232978
844,2114483,6630,0.977,-0.151,0.201,18,3.1,9.4,-3.9,30,-14.1,0.327463607,0.492263558,-0.403576769,0.698232978
845,2117314,6640,0.969,-0.147,0.197,17.5,3,8.7,-3.8,29.8,-13.8,0.327311014,0.492568743,-0.402691733,0.6985992
846,2119573,6640,0.965,-0.151,0.197,17.1,3.2,8.3,-3.8,29.8,-13.8,0.327036348,0.492568743,-0.402508621,0.698843348
847,2122390,6640,0.961,-0.151,0.194,16.8,3.3,8.1,-3.8,29.8,-13.8,0.326761681,0.492568743,-0.402294992,0.699087497
848,2123990,6640,0.961,-0.151,0.194,16.5,3.3,7.6,-4.2,30,-17.7,0.326487014,0.492568743,-0.402111881,0.699301126
849,2126250,6650,0.957,-0.151,0.194,16.2,3.4,7.2,-4.2,30,-17.7,0.326242866,0.492568743,-0.40192877,0.699545274
850,2128586,6650,0.957,-0.155,0.19,15.7,3.6,6.9,-4.2,30,-17.7,0.325998718,0.492568743,-0.40171514,0.699758904
851,2132154,6650,0.957,-0.155,0.194,15.3,3.9,6.6,-4.2,30,-17.7,0.32575457,0.492538224,-0.401532029,0.700003052
852,2133656,6650,0.953,-0.155,0.194,14.8,4.3,6.4,-4.2,30,-15.4,0.325540941,0.492538224,-0.401348918,0.700186163
853,2136483,6660,0.949,-0.154,0.186,14.4,4.6,6.1,-4.2,30,-15.4,0.325327311,0.492507706,-0.401165807,0.700430311
854,2139405,6660,0.953,-0.158,0.19,14,4.8,5.8,-4.2,30,-15.4,0.3251442,0.492477187,-0.400982696,0.700643941
855,2141782,6660,0.949,-0.158,0.194,13.5,5,5.5,-4.2,30,-15.4,0.324961089,0.492446669,-0.400799585,0.70085757
856,2143904,6660,0.945,-0.166,0.19,13,5.1,5.2,-4.4,29.8,-16.5,0.324777978,0.49241615,-0.400616474,0.7010712
857,2146946,6670,0.945,-0.162,0.19,12.6,5.1,4.9,-4.4,29.8,-16.5,0.324594867,0.492385632,-0.400433363,0.701284829
858,2148619,6670,0.945,-0.17,0.19,12.1,5.1,4.6,-4.4,29.8,-16.5,0.324442274,0.492355113,-0.400250252,0.70146794
859,2152073,6670,0.945,-0.174,0.19,11.7,5.2,4.5,-4.4,29.8,-16.5,0.324289682,0.492324595,-0.400097659,0.701651051
860,2153648,6670,0.949,-0.174,0.194,11.1,5.2,4.3,-4.3,29.9,-16.9,0.324167608,0.492263558,-0.399914548,0.701834162
861,2156523,6680,0.949,-0.174,0.198,10.5,5.3,4.2,-4.3,29.9,-16.9,0.324015015,0.492233039,-0.399761956,0.702017273
862,2159424,6680,0.942,-0.182,0.194,9.9,5.4,4.1,-4.3,29.9,-16.9,0.323892941,0.492172002,-0.399639882,0.702200385
863,2162309,6680,0.945,-0.178,0.198,9.4,5.6,4.1,-4.3,29.9,-16.9,0.323801386,0.492141484,-0.399487289,0.702383496
864,2163788,6680,0.945,-0.178,0.198,9.4,5.6,4.1,-4.3,29.9,-16.9,0.323801386,0.492141484,-0.399487289,0.702383496
865,2166757,6690,0.953,-0.186,0.202,8.4,5.6,4.2,-4.2,29.9,-17.3,0.323892941,0.492233039,-0.398907437,0.702566607
866,2169698,6690,0.953,-0.182,0.202,8,5.4,4.2,-4.2,29.9,-17.3,0.323801386,0.492172002,-0.398785363,0.702749718
867,2171195,6690,0.953,-0.186,0.205,7.7,5.4,4.2,-4.2,29.9,-17.3,0.323679312,0.492110965,-0.398663289,0.70290231
868,2174141,6690,0.953,-0.186,0.202,7.2,5.4,4.2,-4.1,29.5,-15.9,0.323587756,0.492049928,-0.398571734,0.703054903
869,2177070,6700,0.957,-0.186,0.209,6.7,5.5,4.1,-4.1,29.5,-15.9,0.3234962,0.491958373,-0.398480178,0.703207495
870,2178626,6700,0.957,-0.186,0.205,6.3,5.5,4.1,-4.1,29.5,-15.9,0.323404645,0.491897336,-0.398388623,0.703329569
871,2182402,6700,0.957,-0.182,0.205,5.8,5.5,4.1,-4.1,29.5,-15.9,0.323343608,0.49180578,-0.398297067,0.703482162
872,2184681,6700,0.961,-0.182,0.201,5.3,5.6,4.1,-4,29.9,-16.2,0.323282571,0.491714225,-0.398205512,0.703604236
873,2187065,6710,0.953,-0.182,0.209,4.8,5.5,4.1,-4,29.9,-16.2,0.323191015,0.491622669,-0.398144475,0.703756829
874,2189252,6710,0.961,-0.182,0.209,4.4,5.5,4.1,-4,29.9,-16.2,0.323129978,0.491531114,-0.398083438,0.703878903
875,2191409,6710,0.953,-0.182,0.209,4,5.4,3.9,-4,29.9,-16.2,0.323068941,0.491439558,-0.398022401,0.704000977
876,2193724,6710,0.953,-0.19,0.209,3.6,5.4,3.8,-4.1,29.8,-16.4,0.323038423,0.491348003,-0.397961364,0.704092532
877,2197365,6720,0.957,-0.19,0.201,3.3,5.5,3.7,-4.1,29.8,-16.4,0.322977386,0.491256447,-0.397930845,0.704214606
878,2199711,6720,0.957,-0.19,0.209,3,5.5,3.5,-4.1,29.8,-16.4,0.322946867,0.491164892,-0.397869808,0.70433668
879,2201964,6720,0.957,-0.194,0.205,2.7,5.5,3.4,-4.1,29.8,-16.4,0.322916349,0.491073336,-0.39783929,0.704458754
880,2204114,6720,0.953,-0.19,0.209,2.5,5.5,3.3,-3.6,29.5,-16.4,0.32288583,0.49098178,-0.397778253,0.70455031
881,2206398,6730,0.949,-0.197,0.206,2.2,5.4,3.1,-3.6,29.5,-16.4,0.322855312,0.490890225,-0.397747734,0.704641865
882,2208759,6730,0.957,-0.19,0.205,2.1,5.2,2.8,-3.6,29.5,-16.4,0.322824793,0.490798669,-0.397717215,0.704733421
883,2212536,6730,0.949,-0.193,0.209,2,5,2.6,-3.6,29.5,-16.4,0.322824793,0.490707114,-0.397686697,0.704824976
884,2214721,6730,0.949,-0.193,0.209,2,5,2.6,-3.6,29.5,-16.4,0.322824793,0.490707114,-0.397686697,0.704824976
885,2217069,6740,0.945,-0.201,0.202,1.8,4.7,2.3,-3.6,28.9,-16.5,0.323252052,0.490829188,-0.397076327,0.704886013
886,2219398,6740,0.945,-0.201,0.21,1.7,4.6,2.2,-3.6,28.9,-16.5,0.323252052,0.490768151,-0.397045808,0.70494705
887,2221301,6740,0.938,-0.197,0.21,1.6,4.4,2.1,-3.6,28.9,-16.5,0.323221534,0.490676595,-0.39701529,0.705038606
888,2223740,6740,0.942,-0.205,0.206,1.5,4.3,2.1,-4.1,30.3,-14.9,0.323221534,0.490615558,-0.396954253,0.705099643
889,2226202,6750,0.942,-0.197,0.21,1.5,4.2,2,-4.1,30.3,-14.9,0.323221534,0.490554521,-0.396954253,0.705191198
890,2229769,6750,0.938,-0.197,0.214,1.5,3.9,1.9,-4.1,30.3,-14.9,0.323191015,0.490462966,-0.396923734,0.705252235
891,2231641,6750,0.934,-0.197,0.214,1.7,3.6,1.9,-4.1,30.3,-14.9,0.323191015,0.490401929,-0.396893216,0.705313272
892,2233938,6750,0.934,-0.197,0.206,1.8,3.3,1.9,-4.2,29,-17.3,0.323160497,0.49037141,-0.396862697,0.70537431
893,2236261,6760,0.938,-0.201,0.218,2.1,3.1,1.9,-4.2,29,-17.3,0.323129978,0.490310373,-0.39680166,0.705465865
894,2239696,6760,0.934,-0.193,0.21,2.3,3,1.8,-4.2,29,-17.3,0.32309946,0.490249336,-0.396771142,0.705526902
895,2241237,6760,0.938,-0.193,0.218,2.5,2.9,1.8,-4.2,29,-17.3,0.323068941,0.490218818,-0.396740623,0.705587939
896,2244266,6760,0.938,-0.197,0.214,2.8,2.8,1.9,-4.1,28.8,-17.4,0.323038423,0.490188299,-0.396679586,0.705648976
897,2247067,6770,0.934,-0.193,0.218,3.1,2.8,2,-4.1,28.8,-17.4,0.323007904,0.490127262,-0.396649068,0.705740532
898,2248932,6770,0.93,-0.189,0.214,3.3,2.7,2.1,-4.1,28.8,-17.4,0.322946867,0.490096744,-0.396588031,0.705801569
899,2252862,6770,0.934,-0.189,0.214,3.4,2.6,2.1,-4.1,28.8,-17.4,0.322916349,0.490066225,-0.396557512,0.705862606
900,2254403,6770,0.934,-0.193,0.214,3.7,2.5,2,-4.1,28.9,-17.5,0.322855312,0.490035707,-0.396496475,0.705954161
901,2257404,6780,0.934,-0.189,0.214,3.9,2.5,2,-4.1,28.9,-17.5,0.322794275,0.490005188,-0.396435438,0.706015198
902,2258870,6780,0.93,-0.185,0.214,4.1,2.7,2,-4.1,28.9,-17.5,0.322733238,0.48997467,-0.396374401,0.706106754
903,2261992,6780,0.934,-0.185,0.218,4.2,2.8,1.9,-4.1,28.9,-17.5,0.322702719,0.489944151,-0.396313364,0.706198309
904,2264225,6780,0.934,-0.185,0.218,4.2,2.8,1.9,-4.1,28.9,-17.5,0.322702719,0.489944151,-0.396313364,0.706198309
905,2267311,6790,0.938,-0.181,0.214,4.5,3,1.7,-4.1,29.1,-17.3,0.323038423,0.490066225,-0.395641957,0.706320383
906,2269378,6790,0.942,-0.185,0.214,4.6,3,1.5,-4.1,29.1,-17.3,0.323007904,0.490035707,-0.39558092,0.70638142
907,2271026,6790,0.946,-0.182,0.213,4.6,3,1.5,-4.1,29.1,-17.3,0.322946867,0.490005188,-0.395489364,0.706472976
908,2274745,6790,0.942,-0.185,0.217,4.6,3.1,1.4,-3.9,30.4,-16,0.322916349,0.48997467,-0.395428327,0.706564531
909,2276148,6800,0.946,-0.186,0.217,4.5,3.3,1.4,-3.9,30.4,-16,0.322855312,0.489944151,-0.395336772,0.706656087
910,2279331,6800,0.949,-0.186,0.217,4.3,3.5,1.3,-3.9,30.4,-16,0.322824793,0.489913633,-0.395275735,0.706717124
911,2282597,6800,0.946,-0.186,0.217,4.1,3.7,1.1,-3.9,30.4,-16,0.322794275,0.489883114,-0.395184179,0.706808679
912,2284824,6800,0.949,-0.186,0.217,3.8,3.9,1,-4.2,30,-16.1,0.322794275,0.489852596,-0.395123142,0.706900235
913,2286383,6810,0.946,-0.185,0.225,3.4,4.1,0.9,-4.2,30,-16.1,0.322733238,0.489791559,-0.395001068,0.706961272
914,2289403,6810,0.946,-0.186,0.217,3.1,4.2,0.9,-4.2,30,-16.1,0.322733238,0.489730522,-0.39497055,0.707052828
915,2292440,6810,0.946,-0.182,0.221,2.7,4.4,0.9,-4.2,30,-16.1,0.322733238,0.489669485,-0.394909513,0.707144383
916,2294589,6810,0.953,-0.186,0.225,2.4,4.4,1,-3.9,30.2,-16.1,0.322733238,0.489608448,-0.394848476,0.70720542
917,2296541,6820,0.953,-0.182,0.221,2.2,4.4,1,-3.9,30.2,-16.1,0.322733238,0.489547411,-0.394787439,0.707296976
918,2299994,6820,0.95,-0.178,0.229,2,4.3,1,-3.9,30.2,-16.1,0.322733238,0.489486373,-0.39475692,0.707358013
919,2302395,6820,0.95,-0.178,0.221,1.9,4.4,1.1,-3.9,30.2,-16.1,0.322733238,0.489425336,-0.394695883,0.70741905
920,2304546,6820,0.953,-0.178,0.229,1.7,4.4,1.1,-3.7,30.5,-16,0.322733238,0.489364299,-0.394634846,0.707510605
921,2306277,6830,0.95,-0.182,0.221,1.5,4.5,1.1,-3.7,30.5,-16,0.322733238,0.489303262,-0.394604328,0.707571642
922,2308565,6830,0.946,-0.182,0.221,1.4,4.6,1.1,-3.7,30.5,-16,0.322733238,0.489242225,-0.394573809,0.707632679
923,2311823,6830,0.95,-0.178,0.225,1.4,4.7,1.2,-3.7,30.5,-16,0.322733238,0.48915067,-0.394512772,0.707693716
924,2313660,6830,0.95,-0.178,0.225,1.4,4.7,1.2,-3.7,30.5,-16,0.322733238,0.48915067,-0.394512772,0.707693716
925,2317511,6840,0.953,-0.174,0.221,1.5,4.6,0.9,-3.9,30.7,-16.2,0.323282571,0.489272744,-0.393810846,0.707785272
926,2319463,6840,0.95,-0.174,0.217,1.5,4.6,0.8,-3.9,30.7,-16.2,0.323313089,0.489181188,-0.393780328,0.707846309
927,2321724,6840,0.95,-0.174,0.217,1.6,4.6,0.8,-3.9,30.7,-16.2,0.323313089,0.489120151,-0.393719291,0.707907346
928,2323823,6840,0.95,-0.174,0.217,1.6,4.5,0.8,-4,29.5,-16.1,0.323313089,0.489059114,-0.393688772,0.707968383
929,2326978,6850,0.95,-0.174,0.221,1.5,4.4,0.9,-4,29.5,-16.1,0.323343608,0.488998077,-0.393627735,0.708059938
930,2329328,6850,0.953,-0.174,0.221,1.4,4.4,1,-4,29.5,-16.1,0.323343608,0.48893704,-0.393597217,0.708120975
931,2331273,6850,0.95,-0.174,0.225,1.2,4.5,1,-4,29.5,-16.1,0.323343608,0.488845485,-0.39353618,0.708182012
932,2334826,6850,0.95,-0.17,0.217,1,4.5,1,-4,30.4,-16.4,0.323343608,0.488753929,-0.393505661,0.708243049
933,2336749,6860,0.946,-0.17,0.225,0.7,4.5,1.2,-4,30.4,-16.4,0.323374126,0.488723411,-0.393475143,0.708304086
934,2338844,6860,0.942,-0.166,0.225,0.5,4.5,1.3,-4,30.4,-16.4,0.323374126,0.488631855,-0.393444624,0.708365123
935,2341111,6860,0.946,-0.17,0.221,0.3,4.5,1.5,-4,30.4,-16.4,0.323404645,0.4885403,-0.393444624,0.70842616
936,2345040,6860,0.946,-0.17,0.217,0.1,4.8,1.6,-3.8,30.1,-16.3,0.323404645,0.488448744,-0.393414106,0.708517716
937,2347696,6870,0.95,-0.17,0.225,-0.1,5,1.7,-3.8,30.1,-16.3,0.323435163,0.488357189,-0.393414106,0.708578753
938,2350280,6870,0.946,-0.17,0.221,-0.4,5.1,1.9,-3.8,30.1,-16.3,0.323435163,0.488265633,-0.393383587,0.70863979
939,2352651,6870,0.942,-0.17,0.217,-0.6,5,2,-3.8,30.1,-16.3,0.323465682,0.488174078,-0.393383587,0.708700827
940,2354631,6870,0.946,-0.17,0.221,-0.9,4.9,2,-4.4,30,-16,0.3234962,0.488082522,-0.393383587,0.708761864
941,2356684,6880,0.946,-0.174,0.225,-1,4.8,2.1,-4.4,30,-16,0.3234962,0.487960448,-0.393383587,0.708822901
942,2359033,6880,0.95,-0.17,0.221,-1.2,4.8,2.3,-4.4,30,-16,0.323526719,0.487868892,-0.393414106,0.708883938
943,2361550,6880,0.946,-0.17,0.225,-1.3,4.8,2.4,-4.4,30,-16,0.323526719,0.487746818,-0.393414106,0.708914457
944,2363912,6880,0.946,-0.17,0.225,-1.3,4.8,2.4,-4.4,30,-16,0.323526719,0.487746818,-0.393414106,0.708914457
945,2367532,6890,0.942,-0.174,0.221,-1.6,4.7,2.7,-5.2,30,-16,0.324411756,0.488052004,-0.39249855,0.708822901
946,2369679,6890,0.942,-0.174,0.225,-1.9,4.5,2.6,-5.2,30,-16,0.324442274,0.48792993,-0.392529069,0.708883938
947,2372517,6890,0.942,-0.178,0.225,-2.1,4.3,2.6,-5.2,30,-16,0.324442274,0.487838374,-0.392559587,0.708944975
948,2374260,6890,0.946,-0.174,0.225,-2.5,4.3,2.6,-3.2,28.9,-16,0.324472793,0.4877163,-0.392590106,0.708975494
949,2377162,6900,0.946,-0.178,0.225,-2.7,4.3,2.6,-3.2,28.9,-16,0.324503311,0.487594226,-0.392651143,0.709006012
950,2379852,6900,0.946,-0.182,0.225,-2.9,4.4,2.7,-3.2,28.9,-16,0.32453383,0.48750267,-0.392681661,0.709067049
951,2381776,6900,0.946,-0.178,0.225,-3,4.5,2.7,-3.2,28.9,-16,0.324564348,0.487380596,-0.392742698,0.709097568
952,2384348,6900,0.95,-0.174,0.225,-3,4.5,2.7,-5,30.2,-16.3,0.324594867,0.487258522,-0.392773217,0.709158605
953,2386438,6910,0.95,-0.178,0.229,-2.9,4.5,2.5,-5,30.2,-16.3,0.324625385,0.487136448,-0.392803735,0.709189123
954,2388632,6910,0.946,-0.178,0.229,-2.9,4.5,2.4,-5,30.2,-16.3,0.324655904,0.487044893,-0.392864772,0.709219642
955,2391688,6910,0.95,-0.182,0.229,-2.9,4.5,2.4,-5,30.2,-16.3,0.324686422,0.486922819,-0.392895291,0.709280679
956,2393890,6910,0.95,-0.178,0.233,-3,4.3,2.3,-4.7,30.3,-16.6,0.324686422,0.486800745,-0.39292581,0.709311197
957,2396997,6920,0.953,-0.186,0.237,-3.1,4.3,2.3,-4.7,30.3,-16.6,0.324747459,0.486709189,-0.392986847,0.709341716
958,2399253,6920,0.953,-0.186,0.229,-3.2,4.4,2.2,-4.7,30.3,-16.6,0.324777978,0.486587115,-0.393017365,0.709372234
959,2401694,6920,0.953,-0.186,0.229,-3.2,4.6,2.2,-4.7,30.3,-16.6,0.324839015,0.486465041,-0.393047884,0.709402753
960,2403581,6920,0.953,-0.19,0.225,-3.3,4.6,2.3,-4.7,30.5,-16.2,0.324869533,0.486373486,-0.393108921,0.70946379
961,2406728,6930,0.953,-0.189,0.229,-3.4,4.7,2.4,-4.7,30.5,-16.2,0.324900052,0.486251411,-0.393139439,0.709494308
962,2409019,6930,0.953,-0.189,0.229,-3.5,4.6,2.5,-4.7,30.5,-16.2,0.32493057,0.486129337,-0.393200476,0.709524827
963,2411281,6930,0.953,-0.189,0.233,-3.7,4.6,2.6,-4.7,30.5,-16.2,0.324991607,0.486007263,-0.393261513,0.709555345
964,2413664,6930,0.953,-0.189,0.233,-3.7,4.6,2.6,-4.7,30.5,-16.2,0.324991607,0.486007263,-0.393261513,0.709555345
965,2417238,6940,0.953,-0.193,0.233,-4.2,4.6,2.9,-4.7,30.4,-16.7,0.325510422,0.485976745,-0.392864772,0.709555345
966,2419485,6940,0.957,-0.19,0.229,-4.4,4.6,3.1,-4.7,30.4,-16.7,0.325540941,0.485854671,-0.392956328,0.709585864
967,2421786,6940,0.953,-0.197,0.229,-4.6,4.6,3.2,-4.7,30.4,-16.7,0.325571459,0.485732597,-0.393017365,0.709616382
968,2423687,6940,0.957,-0.193,0.229,-4.7,4.5,3.3,-3.3,29.6,-16,0.325601978,0.485580004,-0.393047884,0.709646901
969,2426741,6950,0.957,-0.197,0.233,-4.8,4.3,3.6,-3.3,29.6,-16,0.325632496,0.48545793,-0.393169958,0.709677419
970,2429281,6950,0.953,-0.201,0.229,-4.8,4.2,3.7,-3.3,29.6,-16,0.325663015,0.485305338,-0.393261513,0.709707938
971,2431324,6950,0.953,-0.193,0.229,-4.9,4.2,4,-3.3,29.6,-16,0.325693533,0.485183264,-0.393353069,0.709738456
972,2434499,6950,0.95,-0.197,0.229,-4.9,4.2,4.2,-4.2,30,-16,0.325724052,0.48506119,-0.393444624,0.709768975
973,2436751,6960,0.95,-0.197,0.229,-4.8,4.2,4.4,-4.2,30,-16,0.32575457,0.484908597,-0.39353618,0.709799493
974,2440079,6960,0.95,-0.197,0.229,-4.6,4.2,4.5,-4.2,30,-16,0.32575457,0.484756005,-0.393627735,0.70986053
975,2441504,6960,0.953,-0.197,0.229,-4.3,4.2,4.5,-4.2,30,-16,0.32575457,0.48463393,-0.393719291,0.709891049
976,2443384,6960,0.953,-0.201,0.233,-4.1,4.2,4.4,-3.9,30,-15.8,0.325785089,0.484511856,-0.393780328,0.709921567
977,2447093,6970,0.953,-0.197,0.229,-4,4.1,4.3,-3.9,30,-15.8,0.325785089,0.484359264,-0.393871883,0.709982604
978,2449393,6970,0.949,-0.201,0.229,-3.9,4,4.3,-3.9,30,-15.8,0.325785089,0.48423719,-0.39393292,0.710013123
979,2451558,6970,0.946,-0.201,0.229,-3.9,3.9,4.2,-3.9,30,-15.8,0.325815607,0.484115116,-0.394024476,0.710043641
980,2454054,6970,0.942,-0.197,0.229,-3.8,3.8,4.2,-3.6,29.8,-15.9,0.325815607,0.483993042,-0.394116031,0.71007416
981,2456366,6980,0.946,-0.201,0.233,-3.8,3.9,4.2,-3.6,29.8,-15.9,0.325815607,0.483870968,-0.394177068,0.710135197
982,2460146,6980,0.942,-0.205,0.233,-3.8,4,4.1,-3.6,29.8,-15.9,0.325846126,0.483748894,-0.394238105,0.710165716
983,2462296,6980,0.946,-0.205,0.233,-3.9,4.1,4,-3.6,29.8,-15.9,0.325846126,0.48362682,-0.394329661,0.710196234
984,2464518,6980,0.946,-0.205,0.233,-3.9,4.1,4,-3.6,29.8,-15.9,0.325846126,0.48362682,-0.394329661,0.710196234
985,2466669,6990,0.934,-0.209,0.233,-4,4,4.1,-3.3,30.1,-16.1,0.32636494,0.483565783,-0.393902402,0.710226753
986,2469933,6990,0.938,-0.209,0.233,-3.9,4,4.3,-3.3,30.1,-16.1,0.32636494,0.483443709,-0.393993957,0.71028779
987,2471587,6990,0.934,-0.213,0.229,-3.9,3.9,4.3,-3.3,30.1,-16.1,0.32636494,0.483291116,-0.394085513,0.710318308
988,2473853,6990,0.938,-0.209,0.233,-3.9,3.9,4.2,-4,30,-16.2,0.326395459,0.483169042,-0.39414655,0.710348827
989,2476331,7000,0.934,-0.213,0.233,-3.8,3.9,4.2,-4,30,-16.2,0.326395459,0.483046968,-0.394238105,0.710379345
990,2479775,7000,0.934,-0.209,0.229,-3.8,3.9,4.3,-4,30,-16.2,0.326395459,0.482894375,-0.394299142,0.710440382
991,2482099,7000,0.93,-0.209,0.233,-3.8,3.9,4.4,-4,30,-16.2,0.326395459,0.48280282,-0.394390698,0.710470901
992,2484319,7000,0.93,-0.213,0.229,-3.6,4,4.5,-3.5,29.8,-15.9,0.326395459,0.482680746,-0.394451735,0.710501419
993,2486573,7010,0.93,-0.205,0.233,-3.6,4,4.7,-3.5,29.8,-15.9,0.326395459,0.482558672,-0.394543291,0.710562456
994,2488739,7010,0.938,-0.209,0.241,-3.5,4.1,4.8,-3.5,29.8,-15.9,0.326395459,0.482406079,-0.394604328,0.710592975
995,2491078,7010,0.934,-0.213,0.237,-3.6,4.1,4.9,-3.5,29.8,-15.9,0.326395459,0.482284005,-0.394695883,0.710654012
996,2494802,7010,0.934,-0.213,0.233,-3.6,4.1,5.1,-3.5,29.9,-16.3,0.326395459,0.482161931,-0.394787439,0.710715049
997,2497039,7020,0.938,-0.209,0.233,-3.6,4.1,5.2,-3.5,29.9,-16.3,0.326395459,0.482009339,-0.394848476,0.710745567
998,2499241,7020,0.934,-0.209,0.237,-3.5,4.3,5.3,-3.5,29.9,-16.3,0.32636494,0.481887265,-0.394940031,0.710806604
999,2501322,7020,0.938,-0.209,0.229,-3.4,4.4,5.4,-3.5,29.9,-16.3,0.32636494,0.481734672,-0.395001068,0.710867641
1000,2504668,7020,0.938,-0.209,0.233,-3.4,4.4,5.5,-3.7,29.5,-15.8,0.32636494,0.48158208,-0.395092624,0.710928678
1001,2506777,7030,0.934,-0.205,0.233,-3.4,4.2,5.6,-3.7,29.5,-15.8,0.326334422,0.481460005,-0.395184179,0.710959197
1002,2509387,7030,0.938,-0.213,0.229,-3.3,4,5.5,-3.7,29.5,-15.8,0.326334422,0.481307413,-0.395245216,0.711020234
1003,2511128,7030,0.942,-0.209,0.233,-3.2,3.7,5.4,-3.7,29.5,-15.8,0.326303903,0.481185339,-0.395336772,0.711081271
1004,2514293,7030,0.942,-0.209,0.233,-3.2,3.7,5.4,-3.7,29.5,-15.8,0.326303903,0.481185339,-0.395336772,0.711081271
1005,2516289,7040,0.934,-0.209,0.233,-2.8,3.4,5.4,-3.6,29.9,-15.9,0.326700644,0.481124302,-0.39497055,0.711142308
1006,2519550,7040,0.938,-0.213,0.237,-2.6,3.3,5.3,-3.6,29.9,-15.9,0.326639607,0.481032746,-0.395062105,0.711172826
1007,2520997,7040,0.938,-0.209,0.237,-2.4,3.1,5.2,-3.6,29.9,-15.9,0.326639607,0.480910672,-0.395123142,0.711233863
1008,2523904,7040,0.934,-0.213,0.245,-2.2,3.1,5.1,-4.2,29.6,-15.9,0.326609088,0.480788598,-0.395184179,0.711264382
1009,2526926,7050,0.934,-0.216,0.241,-2.1,3,5.1,-4.2,29.6,-15.9,0.32657857,0.480697043,-0.395245216,0.711325419
1010,2528483,7050,0.934,-0.213,0.237,-2,3.1,5,-4.2,29.6,-15.9,0.326548051,0.480574969,-0.395336772,0.711386456
1011,2532179,7050,0.93,-0.216,0.249,-2,3.1,5.1,-4.2,29.6,-15.9,0.326517533,0.480483413,-0.395397809,0.711416974
1012,2534133,7050,0.93,-0.216,0.237,-2,3.1,5,-2.4,29.9,-15.8,0.326487014,0.480361339,-0.395458846,0.711478011
1013,2536181,7060,0.934,-0.22,0.241,-2.1,3.1,4.9,-2.4,29.9,-15.8,0.326487014,0.480269784,-0.395519883,0.711539048
1014,2539773,7060,0.934,-0.216,0.241,-2.2,3.1,4.9,-2.4,29.9,-15.8,0.326456496,0.48014771,-0.39558092,0.711569567
1015,2541609,7060,0.93,-0.224,0.241,-2.3,3.1,4.9,-2.4,29.9,-15.8,0.326425977,0.480056154,-0.395641957,0.711630604
1016,2543578,7060,0.934,-0.228,0.237,-2.3,3.1,4.9,-2.2,29.9,-15.8,0.326395459,0.47993408,-0.395702994,0.711691641
1017,2546926,7070,0.93,-0.228,0.233,-2.4,3,4.9,-2.2,29.9,-15.8,0.32636494,0.479842524,-0.395764031,0.711722159
1018,2548811,7070,0.93,-0.236,0.237,-2.5,3.1,4.9,-2.2,29.9,-15.8,0.32636494,0.47972045,-0.395855586,0.711783197
1019,2551849,7070,0.93,-0.232,0.237,-2.5,3.2,4.9,-2.2,29.9,-15.8,0.326334422,0.479598376,-0.395916623,0.711813715
1020,2553756,7070,0.93,-0.236,0.237,-2.4,3.3,4.8,-2.2,29.9,-16.1,0.326303903,0.479506821,-0.39597766,0.711874752
1021,2556933,7080,0.926,-0.236,0.237,-2.3,3.2,4.9,-2.2,29.9,-16.1,0.326273385,0.479384747,-0.396038697,0.711905271
1022,2559258,7080,0.926,-0.236,0.241,-2.1,3.1,5.1,-2.2,29.9,-16.1,0.326242866,0.479262673,-0.396099734,0.711966308
1023,2561507,7080,0.93,-0.232,0.241,-1.9,2.9,5.2,-2.2,29.9,-16.1,0.326212348,0.479171117,-0.396160772,0.712027345
1024,2564741,7080,0.93,-0.232,0.241,-1.9,2.9,5.2,-2.2,29.9,-16.1,0.326212348,0.479171117,-0.396160772,0.712027345
1025,2567263,7090,0.938,-0.228,0.241,-1.7,2.5,5.2,-2.6,29.9,-15.8,0.326425977,0.478865932,-0.395916623,0.712271493
1026,2569144,7090,0.938,-0.228,0.245,-1.7,2.4,5.1,-2.6,29.9,-15.8,0.32636494,0.478774377,-0.39597766,0.71233253
1027,2571137,7090,0.934,-0.232,0.249,-1.8,2.3,5.1,-2.6,29.9,-15.8,0.326334422,0.478682821,-0.396038697,0.712363048
1028,2574606,7090,0.942,-0.236,0.245,-1.9,2.2,5.3,-2.6,29.9,-15.8,0.326273385,0.478591266,-0.396099734,0.712424085
1029,2576826,7100,0.942,-0.224,0.245,-2,2,5.4,-2.6,29.9,-15.8,0.326242866,0.47849971,-0.39619129,0.712454604
1030,2580831,7100,0.938,-0.224,0.245,-1.9,1.9,5.4,-2.6,29.9,-15.8,0.326181829,0.478408155,-0.396252327,0.712485122
1031,2581891,7100,0.942,-0.224,0.253,-1.7,1.7,5.6,-2.6,29.9,-15.8,0.326151311,0.478316599,-0.396313364,0.712546159
1032,2584305,7100,0.938,-0.224,0.245,-1.3,1.7,5.7,-3.1,29.8,-15.8,0.326090274,0.478225043,-0.39640492,0.712576678
1033,2587598,7110,0.938,-0.22,0.249,-0.9,1.6,5.8,-3.1,29.8,-15.8,0.325998718,0.478133488,-0.396465957,0.712637715
1034,2590058,7110,0.942,-0.22,0.245,-0.4,1.5,6,-3.1,29.8,-15.8,0.325937681,0.478072451,-0.396526994,0.712698752
1035,2591878,7110,0.942,-0.217,0.245,0,1.4,6.1,-3.1,29.8,-15.8,0.325846126,0.477980895,-0.396557512,0.712759789
1036,2594389,7110,0.942,-0.213,0.249,0.3,1.5,6.1,-3.2,30.2,-16,0.32575457,0.477919858,-0.396618549,0.712820826
1037,2597575,7120,0.942,-0.217,0.245,0.6,1.4,5.9,-3.2,30.2,-16,0.325663015,0.477858821,-0.396649068,0.712881863
1038,2599702,7120,0.946,-0.217,0.241,0.9,1.4,5.7,-3.2,30.2,-16,0.325601978,0.477797784,-0.396710105,0.7129429
1039,2601423,7120,0.938,-0.213,0.241,1.1,1.4,5.5,-3.2,30.2,-16,0.325510422,0.477706229,-0.396740623,0.713003937
1040,2603622,7120,0.942,-0.22,0.241,1.4,1.5,5.4,-3,30.2,-15.6,0.325418867,0.477645192,-0.396740623,0.713064974
1041,2607239,7130,0.938,-0.22,0.237,1.5,1.5,5.3,-3,30.2,-15.6,0.325327311,0.477614673,-0.396771142,0.713156529
1042,2609233,7130,0.934,-0.22,0.241,1.6,1.3,5.1,-3,30.2,-15.6,0.325235755,0.477553636,-0.39680166,0.713217566
1043,2611769,7130,0.942,-0.22,0.241,1.7,1,4.9,-3,30.2,-15.6,0.325174718,0.477492599,-0.39680166,0.713278603
1044,2613677,7130,0.942,-0.22,0.241,1.7,1,4.9,-3,30.2,-15.6,0.325174718,0.477492599,-0.39680166,0.713278603
1045,2616788,7140,0.934,-0.224,0.241,1.6,0.7,4.5,-3.5,29.9,-15.7,0.325327311,0.477553636,-0.396435438,0.713370159
1046,2619172,7140,0.934,-0.224,0.237,1.6,0.6,4.4,-3.5,29.9,-15.7,0.325235755,0.477492599,-0.396435438,0.713431196
1047,2621596,7140,0.93,-0.228,0.237,1.6,0.6,4.2,-3.5,29.9,-15.7,0.325174718,0.477462081,-0.396465957,0.713492233
1048,2623891,7140,0.93,-0.232,0.237,1.7,0.7,4.2,-3.5,29.9,-15.7,0.325083163,0.477431562,-0.396465957,0.713522752
1049,2627421,7150,0.93,-0.232,0.241,1.6,0.7,4.3,-3.5,29.9,-15.7,0.325022126,0.477401044,-0.396496475,0.713583789
1050,2629831,7150,0.93,-0.232,0.237,1.5,0.7,4.2,-3.5,29.9,-15.7,0.32493057,0.477370525,-0.396496475,0.713644826
1051,2631995,7150,0.93,-0.232,0.241,1.3,0.5,4.2,-3.5,29.9,-15.7,0.324869533,0.477309488,-0.396526994,0.713675344
1052,2633712,7150,0.934,-0.232,0.241,1.3,0.4,4.2,-3.4,29.9,-15.7,0.324777978,0.47727897,-0.396557512,0.713736381
