sample_index,elapsed_us,device_time_ms,acc_x_g,acc_y_g,acc_z_g,gyro_x_dps,gyro_y_dps,gyro_z_dps,mag_x_ut,mag_y_ut,mag_z_ut,quat_w,quat_x,quat_y,quat_z
0,3118,1415930,-0.517,-0.581,0.64,-1.4,0.5,1.7,9.1,-8.9,-22.5,0.422620319,0.0999176,0.416394543,-0.79873043
1,5308,1415930,-0.521,-0.585,0.644,-1.4,0.3,1.8,9.1,-8.9,-22.5,0.422650838,0.0999176,0.416425062,-0.798699911
2,7826,1415930,-0.517,-0.581,0.644,-1.4,0.2,1.9,9.1,-8.9,-22.5,0.422681356,0.0999481185,0.416425062,-0.798669393
3,11309,1415940,-0.517,-0.585,0.644,-1.5,0.2,1.9,9.1,-8.9,-22.5,0.422742393,0.0999481185,0.41645558,-0.798638874
4,12735,1415940,-0.521,-0.581,0.644,-1.5,0.2,2,7.9,-8.8,-22.6,0.422772912,0.0999481185,0.416486099,-0.798608356
5,15752,1415940,-0.517,-0.585,0.644,-1.6,0.2,1.9,7.9,-8.8,-22.6,0.42280343,0.099978637,0.416486099,-0.798577837
6,18795,1415940,-0.521,-0.589,0.644,-1.6,0.2,1.9,7.9,-8.8,-22.6,0.422833949,0.099978637,0.416547136,-0.798547319
7,20271,1415950,-0.517,-0.585,0.644,-1.5,0.3,1.8,7.9,-8.8,-22.6,0.422864467,0.099978637,0.416577654,-0.7985168
8,23264,1415950,-0.517,-0.585,0.644,-1.5,0.3,1.8,7.9,-8.8,-22.6,0.422864467,0.099978637,0.416577654,-0.7985168
9,26353,1415950,-0.517,-0.581,0.648,-1.2,0.1,1.9,6.7,-8.7,-22.3,0.422986541,0.100039674,0.416486099,-0.798455763
10,27775,1415950,-0.517,-0.581,0.644,-1,0,2,6.7,-8.7,-22.3,0.42301706,0.100039674,0.416486099,-0.798425245
11,30776,1415960,-0.517,-0.585,0.644,-0.9,-0.1,2,6.7,-8.7,-22.3,0.423047578,0.100070193,0.416547136,-0.798394726
12,33754,1415960,-0.517,-0.581,0.644,-0.7,-0.1,2.1,5.1,-9.3,-22.5,0.423108615,0.100070193,0.416547136,-0.798394726
13,35290,1415960,-0.521,-0.585,0.644,-0.6,-0.2,2,5.1,-9.3,-22.5,0.423139134,0.100070193,0.416547136,-0.798364208
14,38251,1415960,-0.521,-0.585,0.644,-0.5,-0.2,2.1,5.1,-9.3,-22.5,0.423169652,0.100070193,0.416547136,-0.798333689
15,41263,1415970,-0.517,-0.581,0.644,-0.4,-0.2,2.1,5.1,-9.3,-22.5,0.423230689,0.100100711,0.416547136,-0.798303171
16,42951,1415970,-0.517,-0.581,0.648,-0.3,-0.2,2.1,4.6,-9.3,-22.4,0.423261208,0.100100711,0.416547136,-0.798272652
17,45302,1415970,-0.521,-0.577,0.648,-0.2,-0.2,2.1,4.6,-9.3,-22.4,0.423291726,0.10013123,0.416547136,-0.798272652
18,48794,1415970,-0.517,-0.577,0.648,-0.1,-0.2,2.1,4.6,-9.3,-22.4,0.423352763,0.10013123,0.416547136,-0.798242134
19,50421,1415980,-0.517,-0.581,0.648,0,-0.2,2.1,4.6,-9.3,-22.4,0.423383282,0.100161748,0.416547136,-0.798211615
20,53431,1415980,-0.521,-0.577,0.644,0,-0.2,2.1,4.5,-9.4,-22.4,0.4234138,0.100161748,0.416547136,-0.798211615
21,56341,1415980,-0.525,-0.581,0.648,-0.1,-0.1,2,4.5,-9.4,-22.4,0.423444319,0.100192267,0.416547136,-0.798181097
22,57882,1415980,-0.517,-0.581,0.648,-0.2,0,1.9,4.5,-9.4,-22.4,0.423505356,0.100192267,0.416547136,-0.798150578
23,60898,1415990,-0.517,-0.581,0.648,-0.2,0.1,1.7,4.5,-9.4,-22.4,0.423535875,0.100192267,0.416547136,-0.798150578
24,63883,1415990,-0.517,-0.577,0.648,-0.1,0.2,1.7,9.2,-10.2,-22.1,0.423566393,0.100192267,0.416547136,-0.79812006
25,65319,1415990,-0.517,-0.573,0.648,-0.1,0,1.7,9.2,-10.2,-22.1,0.423596912,0.100253304,0.416547136,-0.79812006
26,68414,1415990,-0.513,-0.585,0.652,0,0,1.7,9.2,-10.2,-22.1,0.42362743,0.100253304,0.416547136,-0.798089541
27,70195,1416000,-0.513,-0.585,0.648,-0.1,-0.1,1.6,9.2,-10.2,-22.1,0.423657949,0.100283822,0.416486099,-0.798059023
28,73661,1416000,-0.513,-0.585,0.648,-0.1,-0.1,1.6,9.2,-10.2,-22.1,0.423657949,0.100283822,0.416486099,-0.798059023
29,75188,1416000,-0.513,-0.581,0.648,-0.1,-0.3,1.4,6.3,-7.3,-22.5,0.423780023,0.100283822,0.416302988,-0.79812006
30,78123,1416000,-0.517,-0.577,0.648,0,-0.4,1.4,6.3,-7.3,-22.5,0.423810541,0.100283822,0.416272469,-0.79812006
31,81204,1416010,-0.517,-0.581,0.648,0,-0.5,1.4,6.3,-7.3,-22.5,0.42384106,0.100283822,0.416272469,-0.79812006
32,82823,1416010,-0.517,-0.589,0.648,0,-0.6,1.4,7.4,-7.7,-22.7,0.423871578,0.100283822,0.416272469,-0.798089541
33,85623,1416010,-0.517,-0.585,0.648,0,-0.6,1.4,7.4,-7.7,-22.7,0.423902097,0.100283822,0.416272469,-0.798089541
34,88688,1416010,-0.513,-0.589,0.648,0.1,-0.5,1.4,7.4,-7.7,-22.7,0.423932615,0.100283822,0.416241951,-0.798059023
35,90303,1416020,-0.513,-0.589,0.644,0.2,-0.2,1.4,7.4,-7.7,-22.7,0.423963134,0.100283822,0.416241951,-0.798059023
36,93294,1416020,-0.517,-0.581,0.644,0.2,-0.1,1.3,8.1,-7.3,-22.4,0.423963134,0.100314341,0.416241951,-0.798059023
37,96341,1416020,-0.517,-0.581,0.648,0.2,-0.1,1.3,8.1,-7.3,-22.4,0.423993652,0.100314341,0.416211432,-0.798028504
38,98089,1416020,-0.517,-0.581,0.648,0.4,-0.1,1.3,8.1,-7.3,-22.4,0.424024171,0.100344859,0.416211432,-0.798028504
39,101919,1416030,-0.517,-0.585,0.64,0.5,-0.2,1.2,8.1,-7.3,-22.4,0.424054689,0.100344859,0.416180914,-0.798028504
40,104309,1416030,-0.517,-0.585,0.64,0.5,-0.3,1.2,8.7,-7.2,-22.3,0.424085208,0.100375378,0.416180914,-0.798028504
41,106432,1416030,-0.517,-0.585,0.636,0.6,-0.4,1.1,8.7,-7.2,-22.3,0.424085208,0.100375378,0.416150395,-0.798028504
42,108767,1416030,-0.517,-0.581,0.636,0.7,-0.6,1.1,8.7,-7.2,-22.3,0.424115726,0.100375378,0.416150395,-0.797997986
43,111010,1416040,-0.517,-0.577,0.636,0.6,-0.8,1.1,8.7,-7.2,-22.3,0.424146245,0.100375378,0.416119877,-0.797997986
44,113309,1416040,-0.517,-0.577,0.64,0.6,-0.9,1,7.6,-9.4,-22.4,0.424176763,0.100375378,0.416089358,-0.797997986
45,115522,1416040,-0.513,-0.573,0.632,0.5,-0.9,0.8,7.6,-9.4,-22.4,0.424176763,0.100375378,0.416089358,-0.797997986
46,117788,1416040,-0.513,-0.577,0.628,0.5,-0.8,0.8,7.6,-9.4,-22.4,0.424207282,0.100375378,0.41605884,-0.797997986
47,120581,1416050,-0.513,-0.573,0.632,0.4,-0.8,0.8,7.6,-9.4,-22.4,0.4242378,0.100375378,0.416028321,-0.797997986
48,122813,1416050,-0.513,-0.573,0.632,0.4,-0.8,0.8,7.6,-9.4,-22.4,0.4242378,0.100375378,0.416028321,-0.797997986
49,126210,1416050,-0.513,-0.573,0.628,0.4,-1,0.8,7.5,-8.8,-22.3,0.424298837,0.100405896,0.415967284,-0.797997986
50,127933,1416050,-0.513,-0.573,0.632,0.3,-1.3,0.8,7.5,-8.8,-22.3,0.424298837,0.100375378,0.415936766,-0.797997986
51,130854,1416060,-0.513,-0.573,0.636,0.4,-1.4,0.8,7.5,-8.8,-22.3,0.424359874,0.100375378,0.415906247,-0.797997986
52,132690,1416060,-0.513,-0.573,0.632,0.4,-1.4,0.7,7.9,-9,-22.4,0.424390393,0.100344859,0.415906247,-0.797997986
53,136055,1416060,-0.509,-0.577,0.636,0.4,-1.4,0.6,7.9,-9,-22.4,0.424420911,0.100344859,0.415875729,-0.797997986
54,137847,1416060,-0.513,-0.577,0.632,0.5,-1.4,0.4,7.9,-9,-22.4,0.424420911,0.100314341,0.41584521,-0.797997986
55,141202,1416070,-0.509,-0.577,0.628,0.7,-1.4,0.3,7.9,-9,-22.4,0.42445143,0.100314341,0.415814692,-0.798028504
56,142865,1416070,-0.509,-0.581,0.632,0.9,-1.4,0.1,7.9,-9.7,-22.7,0.42445143,0.100283822,0.415784173,-0.798028504
57,146603,1416070,-0.513,-0.589,0.632,1,-1.5,0,7.9,-9.7,-22.7,0.424481948,0.100283822,0.415753655,-0.798028504
58,147976,1416070,-0.517,-0.585,0.629,1.1,-1.4,0,7.9,-9.7,-22.7,0.424481948,0.100253304,0.415723136,-0.798059023
59,151076,1416080,-0.509,-0.581,0.628,1.1,-1.4,0.1,7.9,-9.7,-22.7,0.424481948,0.100253304,0.415692618,-0.798059023
60,152639,1416080,-0.517,-0.585,0.629,1.2,-1.3,0.1,7.5,-10,-22.6,0.424512467,0.100192267,0.415662099,-0.798089541
61,155451,1416080,-0.517,-0.589,0.633,1.3,-1.2,0.2,7.5,-10,-22.6,0.424512467,0.100192267,0.415631581,-0.798089541
62,158506,1416080,-0.513,-0.581,0.632,1.4,-1.3,0.1,7.5,-10,-22.6,0.424542985,0.100192267,0.415570544,-0.798089541
63,160198,1416090,-0.521,-0.581,0.64,1.5,-1.4,0.1,7.5,-10,-22.6,0.424542985,0.100192267,0.415540025,-0.79812006
64,163142,1416090,-0.517,-0.581,0.636,1.5,-1.5,0.1,7.6,-7.4,-22.1,0.424542985,0.100192267,0.415509507,-0.79812006
65,165725,1416090,-0.521,-0.585,0.633,1.5,-1.5,0.1,7.6,-7.4,-22.1,0.424573504,0.100192267,0.415448469,-0.798150578
66,168727,1416090,-0.521,-0.581,0.633,1.4,-1.4,0,7.6,-7.4,-22.1,0.424573504,0.100192267,0.415417951,-0.798181097
67,170403,1416100,-0.517,-0.585,0.636,1.4,-1.2,0,7.6,-7.4,-22.1,0.424604022,0.100161748,0.415387432,-0.798181097
68,173493,1416100,-0.517,-0.585,0.636,1.4,-1.2,0,7.6,-7.4,-22.1,0.424604022,0.100161748,0.415387432,-0.798181097
69,175697,1416100,-0.521,-0.585,0.64,1.3,-1.2,0.1,7.5,-10.2,-22.9,0.424634541,0.100192267,0.415326395,-0.798181097
70,177959,1416100,-0.521,-0.593,0.644,1.3,-1.3,0.1,7.5,-10.2,-22.9,0.424634541,0.100192267,0.415295877,-0.798211615
71,180400,1416110,-0.513,-0.589,0.64,1.3,-1.3,0,7.5,-10.2,-22.9,0.424634541,0.100192267,0.415265358,-0.798211615
72,183221,1416110,-0.521,-0.589,0.644,1.2,-1.3,0,7.1,-10.3,-22.8,0.424665059,0.100161748,0.41523484,-0.798242134
73,185363,1416110,-0.517,-0.593,0.636,1.1,-1.3,0,7.1,-10.3,-22.8,0.424665059,0.100161748,0.415204321,-0.798242134
74,188254,1416110,-0.517,-0.593,0.636,1.2,-1.4,0,7.1,-10.3,-22.8,0.424665059,0.100161748,0.415173803,-0.798242134
75,191392,1416120,-0.517,-0.593,0.636,1.3,-1.4,0,7.1,-10.3,-22.8,0.424695578,0.10013123,0.415112766,-0.798272652
76,193638,1416120,-0.517,-0.593,0.64,1.4,-1.4,0,7.4,-10.1,-22.7,0.424695578,0.10013123,0.415082247,-0.798272652
77,195517,1416120,-0.517,-0.593,0.636,1.3,-1.2,0,7.4,-10.1,-22.7,0.424695578,0.100100711,0.415051729,-0.798303171
78,197907,1416120,-0.517,-0.589,0.636,1.1,-1.2,0.1,7.4,-10.1,-22.7,0.424726096,0.100100711,0.41502121,-0.798303171
79,200277,1416130,-0.521,-0.589,0.644,1,-1.1,0.1,7.4,-10.1,-22.7,0.424726096,0.100100711,0.414990692,-0.798333689
80,204019,1416130,-0.517,-0.585,0.64,0.9,-1,0.2,7.4,-9.5,-23,0.424726096,0.100100711,0.414960173,-0.798333689
81,206304,1416130,-0.521,-0.581,0.64,0.8,-1,0.2,7.4,-9.5,-23,0.424756615,0.100070193,0.414929655,-0.798333689
82,208500,1416130,-0.521,-0.585,0.64,0.7,-1,0.4,7.4,-9.5,-23,0.424756615,0.100070193,0.414929655,-0.798333689
83,210657,1416140,-0.521,-0.589,0.644,0.5,-1,0.5,7.4,-9.5,-23,0.424787133,0.100070193,0.414899136,-0.798333689
84,212917,1416140,-0.521,-0.581,0.64,0.3,-0.9,0.5,7.5,-7.9,-20.9,0.424817652,0.100039674,0.414868618,-0.798333689
85,215201,1416140,-0.521,-0.581,0.64,0,-0.9,0.5,7.5,-7.9,-20.9,0.424817652,0.100039674,0.414868618,-0.798333689
86,219006,1416140,-0.521,-0.585,0.64,-0.1,-0.9,0.5,7.5,-7.9,-20.9,0.42484817,0.100039674,0.414868618,-0.798333689
87,221178,1416150,-0.521,-0.581,0.64,-0.3,-1,0.5,7.5,-7.9,-20.9,0.42484817,0.100009156,0.414868618,-0.798333689
88,223344,1416150,-0.521,-0.581,0.64,-0.3,-1,0.5,7.5,-7.9,-20.9,0.42484817,0.100009156,0.414868618,-0.798333689
89,225424,1416150,-0.517,-0.585,0.636,-0.7,-0.9,0.6,7.4,-8.3,-23.8,0.424939726,0.100039674,0.414868618,-0.798303171
90,227818,1416150,-0.517,-0.585,0.64,-0.9,-0.9,0.7,7.4,-8.3,-23.8,0.424939726,0.100039674,0.414868618,-0.798272652
91,230222,1416160,-0.517,-0.585,0.633,-1,-0.9,0.6,7.4,-8.3,-23.8,0.424970244,0.100009156,0.414868618,-0.798272652
92,232810,1416160,-0.521,-0.593,0.637,-1.1,-0.9,0.8,7.3,-7.7,-24.1,0.425000763,0.099978637,0.414868618,-0.798242134
93,236061,1416160,-0.521,-0.593,0.64,-1,-0.8,0.8,7.3,-7.7,-24.1,0.425031281,0.099978637,0.414899136,-0.798242134
94,238290,1416160,-0.525,-0.593,0.633,-1,-0.7,0.7,7.3,-7.7,-24.1,0.4250618,0.0999481185,0.414899136,-0.798211615
95,240386,1416170,-0.521,-0.597,0.625,-0.9,-0.6,0.6,7.3,-7.7,-24.1,0.4250618,0.0999481185,0.414899136,-0.798211615
96,243568,1416170,-0.525,-0.589,0.629,-0.9,-0.6,0.6,7.5,-7.8,-23.7,0.425092318,0.0999176,0.414929655,-0.798181097
97,245264,1416170,-0.525,-0.589,0.629,-0.7,-0.6,0.7,7.5,-7.8,-23.7,0.425122837,0.0999176,0.414929655,-0.798181097
98,248973,1416170,-0.521,-0.585,0.629,-0.5,-0.6,0.6,7.5,-7.8,-23.7,0.425122837,0.0999176,0.414929655,-0.798150578
99,251122,1416180,-0.521,-0.585,0.637,-0.3,-0.5,0.5,7.5,-7.8,-23.7,0.425153356,0.0999176,0.414929655,-0.798150578
100,252824,1416180,-0.525,-0.581,0.637,0,-0.4,0.5,7.7,-7.9,-23.6,0.425153356,0.0998870815,0.414929655,-0.798150578
101,255159,1416180,-0.525,-0.573,0.633,0.1,-0.4,0.6,7.7,-7.9,-23.6,0.425183874,0.0998870815,0.414899136,-0.798150578
102,258376,1416180,-0.517,-0.573,0.625,0.3,-0.4,0.8,7.7,-7.9,-23.6,0.425183874,0.0998870815,0.414899136,-0.798150578
103,260346,1416190,-0.521,-0.569,0.633,0.4,-0.5,1,7.7,-7.9,-23.6,0.425214393,0.0999176,0.414868618,-0.798150578
104,262871,1416190,-0.525,-0.565,0.625,0.4,-0.5,1.2,7.5,-8.8,-22.7,0.425244911,0.0999176,0.414868618,-0.79812006
105,265932,1416190,-0.521,-0.561,0.633,0.4,-0.5,1.3,7.5,-8.8,-22.7,0.42527543,0.0999176,0.414868618,-0.79812006
106,267844,1416190,-0.525,-0.561,0.625,0.2,-0.6,1.3,7.5,-8.8,-22.7,0.425305948,0.0999176,0.414838099,-0.79812006
107,270324,1416200,-0.521,-0.565,0.629,0.1,-0.6,1.2,7.5,-8.8,-22.7,0.425336467,0.0999176,0.414838099,-0.79812006
108,273903,1416200,-0.521,-0.565,0.629,0.1,-0.6,1.2,7.5,-8.8,-22.7,0.425336467,0.0999176,0.414838099,-0.79812006
109,276085,1416200,-0.525,-0.561,0.633,-0.4,-0.4,1,8.1,-8.8,-21.4,0.425428022,0.100070193,0.414807581,-0.798028504
110,277790,1416200,-0.525,-0.569,0.629,-0.5,-0.4,1,8.1,-8.8,-21.4,0.425458541,0.100070193,0.414807581,-0.798028504
111,280178,1416210,-0.521,-0.573,0.637,-0.5,-0.5,0.9,8.1,-8.8,-21.4,0.425489059,0.100070193,0.414807581,-0.798028504
112,283573,1416210,-0.525,-0.569,0.633,-0.6,-0.4,0.9,7.9,-8.8,-20.9,0.425519578,0.100070193,0.414807581,-0.797997986
113,285852,1416210,-0.525,-0.573,0.633,-0.8,-0.4,0.9,7.9,-8.8,-20.9,0.425519578,0.100070193,0.414838099,-0.797997986
114,287970,1416210,-0.525,-0.573,0.633,-0.8,-0.3,0.8,7.9,-8.8,-20.9,0.425550096,0.100039674,0.414838099,-0.797967467
115,290326,1416220,-0.517,-0.581,0.633,-0.8,-0.3,0.7,7.9,-8.8,-20.9,0.425580615,0.100039674,0.414838099,-0.797967467
116,292692,1416220,-0.521,-0.577,0.637,-0.7,-0.4,0.6,7.7,-9.1,-19.6,0.425580615,0.100039674,0.414868618,-0.797936949
117,295371,1416220,-0.521,-0.585,0.633,-0.6,-0.4,0.6,7.7,-9.1,-19.6,0.425611133,0.100039674,0.414868618,-0.797936949
118,299263,1416220,-0.521,-0.581,0.644,-0.4,-0.5,0.5,7.7,-9.1,-19.6,0.425611133,0.100009156,0.414868618,-0.797936949
119,300228,1416230,-0.521,-0.581,0.64,-0.2,-0.4,0.3,7.7,-9.1,-19.6,0.425611133,0.100009156,0.414868618,-0.79790643
120,302758,1416230,-0.521,-0.581,0.64,0,-0.3,0.1,7.5,-8.9,-19.3,0.425641652,0.100009156,0.414868618,-0.79790643
121,305961,1416230,-0.521,-0.581,0.64,0.3,-0.1,0.1,7.5,-8.9,-19.3,0.425641652,0.100009156,0.414838099,-0.797936949
122,307720,1416230,-0.521,-0.577,0.637,0.6,-0.1,0.1,7.5,-8.9,-19.3,0.425641652,0.100009156,0.414838099,-0.797936949
123,311206,1416240,-0.517,-0.585,0.64,0.9,-0.2,0.1,7.5,-8.9,-19.3,0.425641652,0.100009156,0.414807581,-0.797936949
124,312668,1416240,-0.521,-0.585,0.64,1.1,-0.3,0.1,7.5,-9,-24.6,0.425641652,0.100039674,0.414807581,-0.797936949
125,315634,1416240,-0.517,-0.581,0.64,1.1,-0.3,0.1,7.5,-9,-24.6,0.425641652,0.100039674,0.414777062,-0.797967467
126,318712,1416240,-0.517,-0.577,0.636,1.1,-0.3,0.1,7.5,-9,-24.6,0.425641652,0.100039674,0.414746544,-0.797967467
127,320172,1416250,-0.521,-0.577,0.633,1.2,-0.2,0,7.5,-9,-24.6,0.425641652,0.100039674,0.414716025,-0.797967467
128,322857,1416250,-0.521,-0.577,0.633,1.2,-0.2,0,7.5,-9,-24.6,0.425641652,0.100039674,0.414716025,-0.797967467
129,326110,1416250,-0.525,-0.573,0.637,1.4,-0.1,0,7.5,-9.1,-21.5,0.42567217,0.10013123,0.414654988,-0.797997986
130,327699,1416250,-0.521,-0.569,0.633,1.5,-0.1,0,7.5,-9.1,-21.5,0.42567217,0.10013123,0.41462447,-0.797997986
131,330509,1416260,-0.521,-0.565,0.633,1.4,-0.1,0.1,7.5,-9.1,-21.5,0.42567217,0.10013123,0.414593951,-0.798028504
132,332730,1416260,-0.521,-0.569,0.633,1.2,-0.1,0,7.4,-8.4,-22.4,0.42567217,0.100161748,0.414593951,-0.798028504
133,335858,1416260,-0.521,-0.569,0.636,0.9,-0.1,-0.1,7.4,-8.4,-22.4,0.425641652,0.100161748,0.414532914,-0.798028504
134,338702,1416260,-0.517,-0.565,0.64,0.7,-0.1,-0.1,7.4,-8.4,-22.4,0.425641652,0.100161748,0.414532914,-0.798059023
135,340358,1416270,-0.517,-0.565,0.644,0.3,-0.1,-0.1,7.4,-8.4,-22.4,0.425641652,0.100161748,0.414532914,-0.798059023
136,343079,1416270,-0.521,-0.573,0.644,0,-0.1,-0.1,7.5,-9.1,-23.3,0.425641652,0.100161748,0.414532914,-0.798059023
137,346202,1416270,-0.521,-0.577,0.64,-0.3,0,-0.1,7.5,-9.1,-23.3,0.425641652,0.100161748,0.414532914,-0.798059023
138,348219,1416270,-0.521,-0.577,0.64,-0.5,0,-0.1,7.5,-9.1,-23.3,0.425641652,0.10013123,0.414532914,-0.798059023
139,351325,1416280,-0.513,-0.581,0.64,-0.6,0,-0.1,7.5,-9.1,-23.3,0.425641652,0.10013123,0.414532914,-0.798059023
140,352897,1416280,-0.513,-0.581,0.636,-0.7,0,-0.2,7.6,-9.1,-24.2,0.425641652,0.10013123,0.414593951,-0.798028504
141,355436,1416280,-0.521,-0.585,0.64,-0.7,0.1,-0.3,7.6,-9.1,-24.2,0.425641652,0.100100711,0.414593951,-0.798028504
142,359019,1416280,-0.517,-0.585,0.636,-0.7,0.1,-0.2,7.6,-9.1,-24.2,0.425641652,0.100100711,0.41462447,-0.798028504
143,361255,1416290,-0.521,-0.585,0.64,-0.7,0,-0.2,7.6,-9.1,-24.2,0.425641652,0.100100711,0.41462447,-0.798028504
144,363620,1416290,-0.521,-0.581,0.637,-0.7,0,-0.2,7.6,-8.8,-22.5,0.425641652,0.100100711,0.414654988,-0.798028504
145,365815,1416290,-0.521,-0.585,0.633,-0.6,0.1,-0.3,7.6,-8.8,-22.5,0.425611133,0.100100711,0.414654988,-0.798028504
146,368038,1416290,-0.517,-0.577,0.636,-0.4,0.3,-0.4,7.6,-8.8,-22.5,0.425611133,0.100070193,0.414654988,-0.798028504
147,370301,1416300,-0.517,-0.585,0.64,-0.2,0.3,-0.4,7.6,-8.8,-22.5,0.425611133,0.100070193,0.414685507,-0.798028504
148,373038,1416300,-0.517,-0.585,0.64,-0.2,0.3,-0.4,7.6,-8.8,-22.5,0.425611133,0.100070193,0.414685507,-0.798028504
149,375153,1416300,-0.521,-0.577,0.648,0,0.3,-0.4,7.8,-8.9,-22.6,0.425580615,0.10013123,0.414716025,-0.797997986
150,379061,1416300,-0.517,-0.577,0.644,0.1,0.2,-0.4,7.8,-8.9,-22.6,0.425580615,0.10013123,0.414716025,-0.797997986
151,381012,1416310,-0.517,-0.581,0.648,0.3,0.2,-0.4,7.8,-8.9,-22.6,0.425580615,0.10013123,0.414716025,-0.798028504
152,383290,1416310,-0.521,-0.581,0.648,0.4,0.2,-0.3,7.6,-8.9,-22.4,0.425550096,0.10013123,0.414716025,-0.798028504
153,385585,1416310,-0.517,-0.581,0.648,0.5,0.2,-0.3,7.6,-8.9,-22.4,0.425550096,0.100161748,0.414685507,-0.798028504
154,387984,1416310,-0.513,-0.581,0.644,0.6,0.2,-0.4,7.6,-8.9,-22.4,0.425519578,0.100161748,0.414685507,-0.798028504
155,390244,1416320,-0.513,-0.581,0.644,0.7,0.3,-0.4,7.6,-8.9,-22.4,0.425519578,0.100161748,0.414685507,-0.798059023
156,393883,1416320,-0.513,-0.581,0.636,0.8,0.4,-0.4,7.3,-8.6,-22.5,0.425519578,0.100161748,0.414685507,-0.798059023
157,396084,1416320,-0.517,-0.573,0.644,0.7,0.6,-0.3,7.3,-8.6,-22.5,0.425489059,0.100192267,0.414654988,-0.798059023
158,398320,1416320,-0.517,-0.577,0.648,0.6,0.7,-0.3,7.3,-8.6,-22.5,0.425489059,0.100192267,0.414654988,-0.798089541
159,400560,1416330,-0.517,-0.573,0.64,0.6,0.7,-0.3,7.3,-8.6,-22.5,0.425458541,0.100192267,0.414654988,-0.798089541
160,402701,1416330,-0.517,-0.577,0.644,0.6,0.8,-0.2,7.5,-8.8,-22.5,0.425458541,0.100253304,0.414654988,-0.798089541
161,405413,1416330,-0.513,-0.577,0.652,0.7,0.7,-0.2,7.5,-8.8,-22.5,0.425428022,0.100253304,0.414654988,-0.798089541
162,408180,1416330,-0.513,-0.569,0.652,0.8,0.7,-0.2,7.5,-8.8,-22.5,0.425428022,0.100283822,0.414654988,-0.79812006
163,411192,1416340,-0.509,-0.577,0.652,0.8,0.7,-0.3,7.5,-8.8,-22.5,0.425397504,0.100283822,0.41462447,-0.79812006
164,412721,1416340,-0.509,-0.581,0.648,0.8,0.7,-0.2,6.1,-8.9,-22.2,0.425397504,0.100314341,0.41462447,-0.79812006
165,415678,1416340,-0.513,-0.589,0.652,0.8,0.9,-0.2,6.1,-8.9,-22.2,0.425397504,0.100344859,0.41462447,-0.79812006
166,417631,1416340,-0.509,-0.581,0.652,0.8,1,-0.1,6.1,-8.9,-22.2,0.425366985,0.100375378,0.41462447,-0.798150578
167,420165,1416350,-0.509,-0.581,0.648,0.8,1.1,-0.1,6.1,-8.9,-22.2,0.425366985,0.100375378,0.41462447,-0.798150578
168,422981,1416350,-0.509,-0.581,0.648,0.8,1.1,-0.1,6.1,-8.9,-22.2,0.425366985,0.100375378,0.41462447,-0.798150578
169,426262,1416350,-0.509,-0.573,0.648,0.8,1.2,-0.1,9.3,-9,-22.4,0.425336467,0.100344859,0.414502396,-0.798242134
170,427795,1416350,-0.513,-0.569,0.644,0.7,1.2,-0.3,9.3,-9,-22.4,0.425305948,0.100375378,0.414502396,-0.798242134
171,430155,1416360,-0.513,-0.573,0.644,0.7,1.3,-0.4,9.3,-9,-22.4,0.42527543,0.100405896,0.414502396,-0.798242134
172,433704,1416360,-0.513,-0.569,0.648,0.7,1.5,-0.5,8.7,-9.3,-22.3,0.425244911,0.100436415,0.414502396,-0.798242134
173,435228,1416360,-0.513,-0.569,0.648,0.7,1.5,-0.6,8.7,-9.3,-22.3,0.425244911,0.100466933,0.414502396,-0.798272652
174,438208,1416360,-0.513,-0.569,0.652,0.6,1.6,-0.6,8.7,-9.3,-22.3,0.425214393,0.100466933,0.414502396,-0.798272652
175,441423,1416370,-0.517,-0.565,0.644,0.5,1.6,-0.5,8.7,-9.3,-22.3,0.425183874,0.100497452,0.414502396,-0.798272652
176,443616,1416370,-0.521,-0.569,0.648,0.4,1.7,-0.4,9,-8.7,-22.4,0.425153356,0.10052797,0.414532914,-0.798272652
177,445836,1416370,-0.517,-0.577,0.648,0.4,1.8,-0.5,9,-8.7,-22.4,0.425122837,0.100558489,0.414532914,-0.798272652
178,448828,1416370,-0.517,-0.573,0.644,0.4,1.9,-0.6,9,-8.7,-22.4,0.425092318,0.100619526,0.414532914,-0.798303171
179,451032,1416380,-0.521,-0.581,0.648,0.4,1.9,-0.8,9,-8.7,-22.4,0.4250618,0.100650044,0.414532914,-0.798303171
180,453367,1416380,-0.521,-0.581,0.64,0.4,1.8,-1,9,-8.6,-22.5,0.425031281,0.100650044,0.414532914,-0.798303171
181,455540,1416380,-0.525,-0.577,0.644,0.4,1.7,-1.2,9,-8.6,-22.5,0.425000763,0.100680563,0.414532914,-0.798333689
182,457984,1416380,-0.525,-0.577,0.648,0.5,1.7,-1.5,9,-8.6,-22.5,0.424939726,0.100680563,0.414593951,-0.798333689
183,461908,1416390,-0.521,-0.577,0.644,0.7,1.9,-1.6,9,-8.6,-22.5,0.424909207,0.1007416,0.414593951,-0.798364208
184,462881,1416390,-0.529,-0.577,0.641,0.8,2.1,-1.7,6.8,-8.8,-22.3,0.42484817,0.100772118,0.414593951,-0.798364208
185,466923,1416390,-0.525,-0.577,0.648,1,2.1,-1.7,6.8,-8.8,-22.3,0.424787133,0.100802637,0.41462447,-0.798394726
186,467882,1416390,-0.525,-0.573,0.644,1.3,2.1,-1.7,6.8,-8.8,-22.3,0.424726096,0.100833155,0.41462447,-0.798425245
187,470369,1416400,-0.521,-0.577,0.64,1.5,2,-1.8,6.8,-8.8,-22.3,0.424695578,0.100863674,0.414593951,-0.798455763
188,473681,1416400,-0.521,-0.577,0.64,1.5,2,-1.8,6.8,-8.8,-22.3,0.424695578,0.100863674,0.414593951,-0.798455763
189,475310,1416400,-0.517,-0.573,0.648,1.9,1.7,-2.2,8.4,-8.6,-22.4,0.424634541,0.101016266,0.414532914,-0.7985168
190,478124,1416400,-0.521,-0.577,0.644,2.1,1.6,-2.3,8.4,-8.6,-22.4,0.424573504,0.101046785,0.414502396,-0.798547319
191,480311,1416410,-0.517,-0.573,0.644,2.2,1.7,-2.4,8.4,-8.6,-22.4,0.424512467,0.101077303,0.414471877,-0.798577837
192,483328,1416410,-0.517,-0.573,0.652,2.3,1.8,-2.5,8.8,-8.6,-22.5,0.424420911,0.101107822,0.414471877,-0.798608356
193,486341,1416410,-0.517,-0.577,0.648,2.5,1.8,-2.6,8.8,-8.6,-22.5,0.424359874,0.10113834,0.414441359,-0.798669393
194,487862,1416410,-0.521,-0.573,0.644,2.6,1.8,-2.7,8.8,-8.6,-22.5,0.424298837,0.101168859,0.41441084,-0.798699911
195,490289,1416420,-0.521,-0.573,0.637,2.7,1.8,-2.8,8.8,-8.6,-22.5,0.424207282,0.101168859,0.41441084,-0.798760949
196,492743,1416420,-0.521,-0.577,0.637,2.8,1.9,-3,8.5,-8.7,-22.7,0.424146245,0.101260414,0.414380322,-0.798791467
197,496162,1416420,-0.517,-0.577,0.636,2.9,1.8,-3.1,8.5,-8.7,-22.7,0.424054689,0.101290933,0.414349803,-0.798852504
198,497783,1416420,-0.521,-0.573,0.637,3,1.6,-3.1,8.5,-8.7,-22.7,0.423993652,0.101321451,0.414319285,-0.798913541
199,501263,1416430,-0.525,-0.577,0.637,3.1,1.5,-3,8.5,-8.7,-22.7,0.423902097,0.101321451,0.414288766,-0.798974578
200,502825,1416430,-0.525,-0.577,0.633,3.1,1.4,-2.9,8,-9,-22,0.42384106,0.10135197,0.414258248,-0.799005097
201,505948,1416430,-0.529,-0.581,0.625,3.1,1.6,-2.8,8,-9,-22,0.423780023,0.101382488,0.414197211,-0.799066134
202,507912,1416430,-0.525,-0.577,0.644,3,1.9,-2.8,8,-9,-22,0.423688467,0.101443525,0.414197211,-0.799127171
203,510264,1416440,-0.529,-0.577,0.645,3,2.2,-3,8,-9,-22,0.42362743,0.101474044,0.414166692,-0.799157689
204,513764,1416440,-0.529,-0.573,0.656,3,2.4,-3.3,8,-8.7,-22.4,0.423535875,0.101504563,0.414136174,-0.799218726
205,515948,1416440,-0.525,-0.569,0.648,3,2.4,-3.5,8,-8.7,-22.4,0.423444319,0.101535081,0.414105655,-0.799279763
206,518136,1416440,-0.525,-0.561,0.648,3,2.3,-3.3,8,-8.7,-22.4,0.423352763,0.101596118,0.414075137,-0.7993408
207,520440,1416450,-0.525,-0.557,0.652,3,2.1,-3.2,8,-8.7,-22.4,0.423261208,0.101626637,0.414044618,-0.799371319
208,522675,1416450,-0.525,-0.557,0.652,3,2.1,-3.2,8,-8.7,-22.4,0.423261208,0.101626637,0.414044618,-0.799371319
209,525354,1416450,-0.521,-0.569,0.656,3,1.8,-3,6.1,-8.6,-22.2,0.423261208,0.101901303,0.413769951,-0.799493393
210,529394,1416450,-0.517,-0.573,0.656,3.1,1.8,-3,6.1,-8.6,-22.2,0.423169652,0.101931822,0.413739433,-0.79955443
211,531695,1416460,-0.521,-0.573,0.656,3.3,1.9,-2.9,6.1,-8.6,-22.2,0.423108615,0.10196234,0.413708914,-0.799615467
212,533872,1416460,-0.521,-0.577,0.656,3.5,2,-3,5.1,-9,-22.5,0.42301706,0.101992859,0.413678396,-0.799676504
213,535421,1416460,-0.529,-0.581,0.66,3.6,2.1,-3.1,5.1,-9,-22.5,0.422956023,0.102053896,0.413617359,-0.799737541
214,538067,1416460,-0.533,-0.584,0.652,3.7,2.2,-3.4,5.1,-9,-22.5,0.422864467,0.102084414,0.41358684,-0.799798578
215,540340,1416470,-0.529,-0.588,0.66,3.6,2.4,-3.6,5.1,-9,-22.5,0.422772912,0.102145451,0.413556322,-0.799859615
216,544457,1416470,-0.529,-0.588,0.656,3.6,2.4,-3.8,4.8,-8.8,-22.6,0.422681356,0.102145451,0.413525803,-0.799920652
217,545361,1416470,-0.529,-0.585,0.656,3.7,2.4,-3.9,4.8,-8.8,-22.6,0.422559282,0.102237007,0.413495285,-0.799981689
218,547778,1416470,-0.529,-0.588,0.652,3.9,2.2,-3.9,4.8,-8.8,-22.6,0.422467727,0.102267525,0.413464766,-0.800042726
219,551849,1416480,-0.525,-0.589,0.652,4.2,2.2,-4.1,4.8,-8.8,-22.6,0.422345653,0.102298044,0.413403729,-0.800103763
220,553518,1416480,-0.525,-0.589,0.648,4.6,2.2,-4.1,4.7,-8.9,-22.6,0.422254097,0.102359081,0.413373211,-0.800195318
221,555445,1416480,-0.521,-0.589,0.648,5,2.2,-4.2,4.7,-8.9,-22.6,0.422162542,0.102389599,0.413312174,-0.800256355
222,557876,1416480,-0.525,-0.585,0.652,5.3,2.2,-4.2,4.7,-8.9,-22.6,0.422040468,0.102450636,0.413251137,-0.800347911
223,560408,1416490,-0.521,-0.581,0.656,5.6,2.2,-4.1,4.7,-8.9,-22.6,0.421948912,0.102511673,0.413159581,-0.800439467
224,563736,1416490,-0.525,-0.581,0.656,6,2.4,-4.1,9.4,-10.5,-22.4,0.421826838,0.10257271,0.413098544,-0.800531022
225,565357,1416490,-0.525,-0.577,0.652,6.3,2.6,-4.2,9.4,-10.5,-22.4,0.421735282,0.102633747,0.413006989,-0.800622578
226,567868,1416490,-0.529,-0.577,0.652,6.4,2.8,-4.3,9.4,-10.5,-22.4,0.421613208,0.102694784,0.412945952,-0.800714133
227,570209,1416500,-0.529,-0.569,0.648,6.3,3,-4.3,9.4,-10.5,-22.4,0.421491134,0.102755821,0.412854396,-0.800805689
228,574245,1416500,-0.529,-0.569,0.648,6.3,3,-4.3,9.4,-10.5,-22.4,0.421491134,0.102755821,0.412854396,-0.800805689
229,576601,1416500,-0.537,-0.565,0.649,5.8,3.3,-4.4,6.7,-7.8,-22.3,0.421308023,0.102999969,0.412671285,-0.800958281
230,578805,1416500,-0.533,-0.565,0.645,5.5,3.3,-4.3,6.7,-7.8,-22.3,0.421185949,0.103061007,0.41257973,-0.801049837
231,580997,1416510,-0.537,-0.561,0.653,5.4,3.3,-4.4,6.7,-7.8,-22.3,0.421063875,0.103122044,0.412549211,-0.801141392
232,583205,1416510,-0.533,-0.569,0.652,5.3,3.3,-4.3,7.8,-7.5,-22.1,0.420941801,0.103213599,0.412488174,-0.801202429
233,585505,1416510,-0.529,-0.569,0.652,5.2,3.4,-4.1,7.8,-7.5,-22.1,0.420819727,0.103274636,0.412457656,-0.801293985
234,587758,1416510,-0.525,-0.573,0.652,4.9,3.5,-4,7.8,-7.5,-22.1,0.420728172,0.103366192,0.412396619,-0.801355022
235,590294,1416520,-0.521,-0.573,0.652,4.4,3.4,-3.9,7.8,-7.5,-22.1,0.420606098,0.103427229,0.4123661,-0.801446577
236,593310,1416520,-0.517,-0.577,0.652,3.9,3.3,-4.1,8.9,-7.5,-22.3,0.420484024,0.103488266,0.412335582,-0.801507614
237,595270,1416520,-0.513,-0.573,0.656,3.4,3.3,-4.4,8.9,-7.5,-22.3,0.420392468,0.103518784,0.412305063,-0.801568651
238,599556,1416520,-0.513,-0.577,0.656,3,3.4,-4.7,8.9,-7.5,-22.3,0.420270394,0.103579821,0.412305063,-0.801629688
239,601356,1416530,-0.513,-0.581,0.652,2.7,3.6,-5,8.9,-7.5,-22.3,0.420117801,0.10361034,0.412305063,-0.801690725
240,602929,1416530,-0.513,-0.577,0.652,2.5,4,-5.3,9.1,-7.2,-22.5,0.419995727,0.103671377,0.412305063,-0.801751762
241,605516,1416530,-0.513,-0.573,0.652,2.5,4.3,-5.4,9.1,-7.2,-22.5,0.419843135,0.103701895,0.412305063,-0.801812799
242,608802,1416530,-0.517,-0.577,0.644,2.6,4.6,-5.5,9.1,-7.2,-22.5,0.419721061,0.103762932,0.412335582,-0.801873836
243,611203,1416540,-0.517,-0.577,0.64,2.8,4.8,-5.5,9.1,-7.2,-22.5,0.419568468,0.103823969,0.412335582,-0.801934874
244,613956,1416540,-0.517,-0.577,0.633,3,5,-5.5,8.1,-9.3,-22.3,0.419415876,0.103885006,0.412335582,-0.802026429
245,616344,1416540,-0.513,-0.573,0.632,3.2,5.1,-5.6,8.1,-9.3,-22.3,0.419263283,0.103976562,0.412335582,-0.802087466
246,618568,1416540,-0.521,-0.573,0.633,3.3,5.3,-5.7,8.1,-9.3,-22.3,0.419110691,0.104037599,0.412335582,-0.802148503
247,620780,1416550,-0.521,-0.569,0.636,3.2,5.4,-5.8,8.1,-9.3,-22.3,0.418958098,0.104098636,0.412335582,-0.80220954
248,623086,1416550,-0.521,-0.569,0.636,3.2,5.4,-5.8,8.1,-9.3,-22.3,0.418958098,0.104098636,0.412335582,-0.80220954
249,625290,1416550,-0.525,-0.573,0.633,3.2,5.7,-6.4,7.8,-8.8,-22.1,0.418622394,0.104342784,0.412396619,-0.802331614
250,629214,1416550,-0.521,-0.573,0.633,3.3,5.9,-6.7,7.8,-8.8,-22.1,0.418439283,0.104403821,0.412396619,-0.80242317
251,630327,1416560,-0.525,-0.573,0.637,3.5,6.1,-7,7.8,-8.8,-22.1,0.418256172,0.104464858,0.412396619,-0.802514725
252,632826,1416560,-0.525,-0.577,0.637,3.8,6.4,-7.2,8,-9.1,-22.3,0.418073061,0.104556413,0.412396619,-0.802606281
253,635256,1416560,-0.529,-0.569,0.637,4,6.6,-7.3,8,-9.1,-22.3,0.417859432,0.104647969,0.412427137,-0.802667318
254,637872,1416560,-0.521,-0.569,0.629,4.2,6.8,-7.5,8,-9.1,-22.3,0.417645802,0.104739525,0.412427137,-0.802758873
255,641786,1416570,-0.521,-0.565,0.629,4.4,6.9,-7.6,8,-9.1,-22.3,0.417462691,0.10483108,0.412427137,-0.802850429
256,643993,1416570,-0.525,-0.569,0.633,4.6,6.9,-7.9,8.1,-9.5,-22,0.417249062,0.104922636,0.412427137,-0.802972503
257,646227,1416570,-0.529,-0.569,0.637,4.8,7,-8.3,8.1,-9.5,-22,0.417004913,0.105014191,0.412427137,-0.803064058
258,648553,1416570,-0.529,-0.573,0.629,5.1,7.2,-8.7,8.1,-9.5,-22,0.416791284,0.105075228,0.412427137,-0.803186132
259,651662,1416580,-0.529,-0.577,0.625,5.5,7.4,-9,8.1,-9.5,-22,0.416547136,0.105227821,0.412427137,-0.803277688
260,653951,1416580,-0.533,-0.577,0.621,6,7.5,-9.5,7.7,-11.1,-22.1,0.416302988,0.105319376,0.412396619,-0.80343028
261,656184,1416580,-0.529,-0.585,0.621,6.6,7.6,-10,7.7,-11.1,-22.1,0.416028321,0.105410932,0.4123661,-0.803552355
262,657865,1416580,-0.525,-0.581,0.617,7.2,7.8,-10.5,7.7,-11.1,-22.1,0.415753655,0.105533006,0.412335582,-0.803704947
263,660794,1416590,-0.529,-0.585,0.621,7.9,7.8,-10.8,7.7,-11.1,-22.1,0.415478988,0.10565508,0.412305063,-0.80385754
264,662893,1416590,-0.529,-0.585,0.613,8.5,7.9,-11.1,8.4,-7.4,-21.5,0.415204321,0.105746635,0.412244026,-0.804010132
265,665410,1416590,-0.537,-0.592,0.621,9.3,7.9,-11.3,8.4,-7.4,-21.5,0.414899136,0.105868709,0.412182989,-0.804162725
266,667719,1416590,-0.537,-0.6,0.621,10.1,8.1,-11.5,8.4,-7.4,-21.5,0.41462447,0.106021302,0.412091433,-0.804345836
267,670239,1416600,-0.537,-0.596,0.621,10.8,8.2,-11.6,8.4,-7.4,-21.5,0.414319285,0.106143376,0.412030396,-0.804528947
268,673739,1416600,-0.537,-0.596,0.621,10.8,8.2,-11.6,8.4,-7.4,-21.5,0.414319285,0.106143376,0.412030396,-0.804528947
269,676014,1416600,-0.529,-0.608,0.633,12.1,8.8,-11.8,8.9,-10.2,-22.7,0.413617359,0.106631672,0.412121952,-0.804773095
270,678146,1416600,-0.529,-0.608,0.641,12.7,9.1,-12,8.9,-10.2,-22.7,0.413312174,0.106784265,0.411999878,-0.804956206
271,680437,1416610,-0.525,-0.612,0.645,13.2,9.1,-12.3,8.9,-10.2,-22.7,0.41297647,0.106967376,0.411877804,-0.805169836
272,682751,1416610,-0.525,-0.616,0.652,13.5,9.2,-12.6,8.5,-10.5,-22.7,0.412640767,0.107119968,0.41175573,-0.805383465
273,685214,1416610,-0.521,-0.612,0.66,13.8,9.4,-12.9,8.5,-10.5,-22.7,0.412305063,0.107303079,0.411633656,-0.805627613
274,687757,1416610,-0.521,-0.616,0.664,14,9.7,-13,8.5,-10.5,-22.7,0.411938841,0.10748619,0.411481063,-0.805841243
275,691201,1416620,-0.521,-0.62,0.668,14.3,10,-13,8.5,-10.5,-22.7,0.411603137,0.107669301,0.411358989,-0.806054872
276,693447,1416620,-0.517,-0.604,0.676,14.5,10.4,-13,8.4,-10.2,-22.3,0.411236915,0.107882931,0.411236915,-0.806268502
277,695336,1416620,-0.517,-0.608,0.676,14.9,10.6,-13.1,8.4,-10.2,-22.3,0.410870693,0.108066042,0.411084323,-0.80651265
278,698040,1416620,-0.509,-0.609,0.675,15.1,10.7,-13.2,8.4,-10.2,-22.3,0.410504471,0.108279672,0.410962249,-0.806726279
279,700328,1416630,-0.513,-0.597,0.679,15.4,10.8,-13.3,8.4,-10.2,-22.3,0.410138249,0.108493301,0.410809656,-0.806970428
280,703671,1416630,-0.505,-0.597,0.683,15.4,11,-13,8.4,-9.6,-22.5,0.409772027,0.108706931,0.410626545,-0.807184057
281,705502,1416630,-0.505,-0.593,0.683,15.3,11.3,-12.7,8.4,-9.6,-22.5,0.409405805,0.10892056,0.410534989,-0.807428205
282,707722,1416630,-0.505,-0.593,0.679,15,11.8,-12.4,8.4,-9.6,-22.5,0.409039583,0.109164708,0.410412915,-0.807641835
283,711828,1416640,-0.505,-0.585,0.679,14.7,12.3,-12.1,8.4,-9.6,-22.5,0.40867336,0.109408856,0.410290841,-0.807855464
284,714085,1416640,-0.501,-0.585,0.683,14.3,12.9,-11.9,9,-8.5,-20.7,0.408337657,0.109653005,0.410168767,-0.808038575
285,716303,1416640,-0.501,-0.589,0.679,14,13.3,-11.5,9,-8.5,-20.7,0.407971435,0.109897153,0.410077212,-0.808252205
286,718626,1416640,-0.493,-0.585,0.683,13.7,13.7,-11.2,9,-8.5,-20.7,0.407605213,0.110171819,0.409985656,-0.808435316
287,720869,1416650,-0.501,-0.585,0.679,13.4,14.1,-11,9,-8.5,-20.7,0.407269509,0.110446486,0.409894101,-0.808618427
288,723044,1416650,-0.501,-0.585,0.679,13.4,14.1,-11,9,-8.5,-20.7,0.407269509,0.110446486,0.409894101,-0.808618427
289,725281,1416650,-0.497,-0.581,0.675,12.8,14.9,-10.7,8.8,-8.7,-23.2,0.406567583,0.110873745,0.409588916,-0.809076205
290,727958,1416650,-0.493,-0.589,0.667,12.5,15.2,-10.7,8.8,-8.7,-23.2,0.406201361,0.111148412,0.409527879,-0.809259316
291,730168,1416660,-0.489,-0.582,0.663,12.4,15.6,-10.7,8.8,-8.7,-23.2,0.405835139,0.111423078,0.409466842,-0.809411908
292,733179,1416660,-0.497,-0.581,0.655,12.2,15.8,-10.8,8.7,-8.5,-22.8,0.405468917,0.111728263,0.409405805,-0.809564501
293,736205,1416660,-0.489,-0.582,0.655,12.3,16,-10.9,8.7,-8.5,-22.8,0.405102695,0.112033448,0.409375286,-0.809747612
294,737788,1416660,-0.489,-0.582,0.655,12.4,16.3,-10.9,8.7,-8.5,-22.8,0.404736473,0.112338633,0.409314249,-0.809930723
295,740352,1416670,-0.501,-0.573,0.648,12.7,16.9,-11,8.7,-8.5,-22.8,0.404370251,0.112643818,0.409283731,-0.810083316
296,743769,1416670,-0.493,-0.57,0.64,12.9,17.5,-11.1,8.9,-8.4,-23.2,0.40397351,0.112979522,0.409222694,-0.810266427
297,745279,1416670,-0.497,-0.574,0.632,13.1,18,-11.1,8.9,-8.4,-23.2,0.403576769,0.113315226,0.409192175,-0.810419019
298,747828,1416670,-0.489,-0.566,0.628,13.4,18.3,-11.2,8.9,-8.4,-23.2,0.403180029,0.113650929,0.409131138,-0.81060213
299,751011,1416680,-0.485,-0.566,0.62,13.8,18.5,-11.4,8.9,-8.4,-23.2,0.402783288,0.113986633,0.409070101,-0.810785241
300,753360,1416680,-0.481,-0.566,0.62,14.3,18.6,-11.7,9,-8.4,-22.7,0.402386547,0.114352855,0.409009064,-0.810968352
301,755175,1416680,-0.481,-0.562,0.62,14.9,18.8,-12.1,9,-8.4,-22.7,0.401959288,0.114688559,0.408948027,-0.811151463
302,757834,1416680,-0.481,-0.566,0.628,15.5,19,-12.6,9,-8.4,-22.7,0.401532029,0.115054781,0.40888699,-0.811365093
303,761640,1416690,-0.481,-0.57,0.628,16,19.2,-13.2,9,-8.4,-22.7,0.401074252,0.115421003,0.408795434,-0.811578722
304,763796,1416690,-0.485,-0.566,0.632,16.5,19.6,-13.7,9,-9.5,-21.9,0.400616474,0.115787225,0.40867336,-0.811792352
305,765315,1416690,-0.485,-0.574,0.628,17,20,-14.3,9,-9.5,-21.9,0.400158696,0.116153447,0.408612323,-0.812005982
306,767808,1416690,-0.489,-0.57,0.647,17.5,20.6,-14.9,9,-9.5,-21.9,0.399639882,0.116550188,0.408520768,-0.81225013
307,770204,1416700,-0.497,-0.566,0.648,18.1,21.1,-15.5,9,-9.5,-21.9,0.399151585,0.116946928,0.408429212,-0.812494278
308,773721,1416700,-0.497,-0.566,0.648,18.1,21.1,-15.5,9,-9.5,-21.9,0.399151585,0.116946928,0.408429212,-0.812494278
309,775897,1416700,-0.497,-0.57,0.655,19,22.1,-16.1,9.3,-9,-20.9,0.398052919,0.117709891,0.408154546,-0.813043611
310,778037,1416700,-0.505,-0.569,0.66,19.4,22.3,-16.3,9.3,-9,-20.9,0.397534104,0.11813715,0.40806299,-0.813287759
311,781137,1416710,-0.505,-0.569,0.667,19.8,22.6,-16.5,9.3,-9,-20.9,0.396954253,0.118564409,0.407940916,-0.813562426
312,782666,1416710,-0.505,-0.569,0.667,20.3,22.9,-16.6,9.2,-9.6,-19.7,0.396435438,0.118991668,0.407818842,-0.813837092
313,785818,1416710,-0.513,-0.565,0.664,20.8,23.4,-16.7,9.2,-9.6,-19.7,0.395855586,0.119449446,0.407696768,-0.81408124
314,788756,1416710,-0.517,-0.565,0.664,21,23.7,-16.9,9.2,-9.6,-19.7,0.395306253,0.119876705,0.407574694,-0.814355907
315,790320,1416720,-0.521,-0.557,0.668,21.1,23.9,-17.1,9.2,-9.6,-19.7,0.394726402,0.120334483,0.40745262,-0.814630573
316,793522,1416720,-0.525,-0.565,0.668,21.1,24,-17.3,9.4,-9.2,-19.2,0.39414655,0.120792261,0.407330546,-0.81490524
317,795755,1416720,-0.536,-0.561,0.668,21,24.2,-17.5,9.4,-9.2,-19.2,0.393566698,0.121250038,0.407208472,-0.815179907
318,797919,1416720,-0.533,-0.565,0.664,20.8,24.6,-17.8,9.4,-9.2,-19.2,0.392986847,0.121677297,0.407086398,-0.815454573
319,800258,1416730,-0.54,-0.553,0.672,20.7,25,-17.9,9.4,-9.2,-19.2,0.392376476,0.122165593,0.406994842,-0.81572924
320,802814,1416730,-0.548,-0.557,0.668,20.6,25.3,-18,9.6,-9.1,-18.2,0.391766106,0.12265389,0.406872768,-0.816003906
321,806211,1416730,-0.548,-0.553,0.665,20.6,25.5,-18,9.6,-9.1,-18.2,0.391155736,0.123111667,0.406781213,-0.816278573
322,807838,1416730,-0.552,-0.553,0.672,20.6,25.7,-18.1,9.6,-9.1,-18.2,0.390575884,0.123599963,0.406689657,-0.81655324
323,810323,1416740,-0.552,-0.549,0.672,20.5,25.8,-18.2,9.6,-9.1,-18.2,0.389965514,0.124057741,0.406598102,-0.816797388
324,813041,1416740,-0.556,-0.552,0.673,20.3,25.9,-18.1,9.8,-9.7,-23.4,0.389355144,0.124546037,0.406506546,-0.817072054
325,815206,1416740,-0.556,-0.545,0.669,20,25.9,-18.3,9.8,-9.7,-23.4,0.388744774,0.125003815,0.406414991,-0.817346721
326,818558,1416740,-0.56,-0.545,0.669,19.7,25.9,-18.4,9.8,-9.7,-23.4,0.388134404,0.125461592,0.406323435,-0.817590869
327,820856,1416750,-0.564,-0.537,0.665,19.1,26.1,-18.6,9.8,-9.7,-23.4,0.387493515,0.125949889,0.406262398,-0.817865535
328,823024,1416750,-0.564,-0.537,0.665,19.1,26.1,-18.6,9.8,-9.7,-23.4,0.387493515,0.125949889,0.406262398,-0.817865535
329,825263,1416750,-0.564,-0.533,0.653,17.8,26.5,-18.8,10,-9.4,-20.6,0.386394848,0.127048555,0.40601825,-0.818323313
330,827962,1416750,-0.556,-0.529,0.645,17.2,26.7,-18.9,10,-9.4,-20.6,0.38575396,0.127506333,0.405987732,-0.818567461
331,831263,1416760,-0.56,-0.529,0.641,16.6,26.9,-19.2,10,-9.4,-20.6,0.38514359,0.127933592,0.405957213,-0.818811609
332,832809,1416760,-0.56,-0.525,0.637,16.2,27,-19.6,10.5,-9.2,-21.2,0.384502701,0.128391369,0.405957213,-0.819055757
333,835126,1416760,-0.564,-0.525,0.63,15.8,27,-20.1,10.5,-9.2,-21.2,0.383861812,0.128818628,0.405957213,-0.819269387
334,838182,1416760,-0.56,-0.521,0.626,15.6,27,-20.5,10.5,-9.2,-21.2,0.383190405,0.129245888,0.405957213,-0.819513535
335,841122,1416770,-0.56,-0.521,0.626,15.3,27.1,-20.9,10.5,-9.2,-21.2,0.382549516,0.129673147,0.405957213,-0.819757683
336,842760,1416770,-0.564,-0.529,0.61,15.1,27.2,-21.3,10.5,-9.5,-21.9,0.381878109,0.130100406,0.405987732,-0.819971313
337,845319,1416770,-0.56,-0.529,0.606,14.8,27.2,-21.6,10.5,-9.5,-21.9,0.381206702,0.130527665,0.40601825,-0.820215461
338,848781,1416770,-0.56,-0.529,0.598,14.4,27.2,-21.8,10.5,-9.5,-21.9,0.380535295,0.130954924,0.406048769,-0.820459609
339,850241,1416780,-0.564,-0.529,0.606,14.4,27.1,-22,10.5,-9.5,-21.9,0.379863887,0.131351665,0.406079287,-0.820673238
340,853806,1416780,-0.568,-0.529,0.602,14.7,27.3,-22.2,10.9,-9.6,-22.5,0.379161962,0.131778924,0.406109806,-0.820917386
341,855342,1416780,-0.572,-0.529,0.61,15.2,27.7,-22.4,10.9,-9.6,-22.5,0.378490555,0.132206183,0.406109806,-0.821161534
342,857937,1416780,-0.576,-0.525,0.614,15.6,28.2,-22.5,10.9,-9.6,-22.5,0.377788629,0.132633442,0.406140324,-0.821405683
343,860155,1416790,-0.588,-0.524,0.63,15.9,28.5,-22.8,10.9,-9.6,-22.5,0.377056185,0.133030183,0.406140324,-0.821649831
344,863714,1416790,-0.592,-0.52,0.638,16,28.6,-23.1,10.8,-9.8,-20.9,0.376354259,0.133518479,0.406170843,-0.821893979
345,865259,1416790,-0.591,-0.52,0.65,16,28.6,-23.5,10.8,-9.8,-20.9,0.375621815,0.133945738,0.406170843,-0.822138127
346,867817,1416790,-0.599,-0.516,0.642,16,28.7,-23.9,10.8,-9.8,-20.9,0.37488937,0.134372997,0.406201361,-0.822412793
347,870167,1416800,-0.607,-0.496,0.65,15.8,28.7,-24.3,10.8,-9.8,-20.9,0.374156926,0.134800256,0.40623188,-0.822656941
348,873709,1416800,-0.607,-0.496,0.65,15.8,28.7,-24.3,10.8,-9.8,-20.9,0.374156926,0.134800256,0.40623188,-0.822656941
349,876023,1416800,-0.623,-0.476,0.655,14.8,28.7,-24.8,11,-9.9,-21.2,0.372875149,0.136051515,0.406140324,-0.823084201
350,878217,1416800,-0.634,-0.46,0.659,13.7,28.6,-25,11,-9.9,-21.2,0.372112186,0.136448256,0.406201361,-0.823328349
351,880423,1416810,-0.65,-0.432,0.663,12.6,28.3,-25.5,11,-9.9,-21.2,0.371379742,0.136844996,0.406262398,-0.823572497
352,882666,1416810,-0.658,-0.432,0.663,11.5,28,-25.8,11,-9.8,-21,0.370616779,0.137211219,0.406384472,-0.823786126
353,885277,1416810,-0.665,-0.424,0.663,10.5,27.8,-26.2,11,-9.8,-21,0.369853816,0.137546922,0.406476028,-0.823999756
354,888626,1416810,-0.685,-0.396,0.664,9.3,27.7,-26.5,11,-9.8,-21,0.369121372,0.137882626,0.40662862,-0.824213385
355,890378,1416820,-0.693,-0.392,0.664,7.8,27.6,-26.6,11,-9.8,-21,0.368358409,0.138218329,0.406781213,-0.824427015
356,892951,1416820,-0.705,-0.388,0.66,6.1,27.4,-26.7,11.5,-9.8,-20.7,0.367625965,0.138523515,0.406964324,-0.824610126
357,895191,1416820,-0.716,-0.384,0.665,4.5,27.1,-26.7,11.5,-9.8,-20.7,0.366893521,0.138798181,0.407177953,-0.824793237
358,898441,1416820,-0.736,-0.383,0.673,2.8,26.8,-26.7,11.5,-9.8,-20.7,0.366161077,0.139072848,0.407422102,-0.82494583
359,900531,1416830,-0.752,-0.379,0.669,1.2,26.3,-26.6,11.5,-9.8,-20.7,0.365428632,0.139316996,0.407696768,-0.825098422
360,902834,1416830,-0.764,-0.375,0.674,-0.1,25.8,-26.5,11.6,-9.7,-20.9,0.364726707,0.139561144,0.408001953,-0.825189978
361,905402,1416830,-0.772,-0.371,0.678,-1.6,25.1,-26.5,11.6,-9.7,-20.9,0.364024781,0.139744255,0.408307138,-0.82534257
362,907745,1416830,-0.779,-0.355,0.686,-3.2,24.3,-26.5,11.6,-9.7,-20.9,0.363353374,0.139927366,0.408642842,-0.825434126
363,911148,1416840,-0.787,-0.347,0.686,-5.4,23.3,-26.4,11.6,-9.7,-20.9,0.362681967,0.140079958,0.409009064,-0.825525681
364,913199,1416840,-0.787,-0.343,0.694,-7.6,22.2,-26.3,10.7,-9.6,-20.3,0.362041078,0.140171514,0.409405805,-0.825617237
365,915273,1416840,-0.791,-0.331,0.694,-9.8,21,-26,10.7,-9.6,-20.3,0.361400189,0.14026307,0.409833064,-0.825647755
366,918674,1416840,-0.803,-0.323,0.706,-11.7,19.6,-25.9,10.7,-9.6,-20.3,0.360789819,0.140293588,0.410260323,-0.825708792
367,920179,1416850,-0.802,-0.319,0.71,-13.2,18.1,-25.6,10.7,-9.6,-20.3,0.360209967,0.14026307,0.410718101,-0.825708792
368,922758,1416850,-0.791,-0.319,0.709,-14.1,16.5,-25.2,12.8,-9.7,-20.5,0.359660634,0.140232551,0.411175878,-0.825739311
369,927002,1416850,-0.795,-0.323,0.702,-14.5,14.8,-24.9,12.8,-9.7,-20.5,0.359111301,0.140171514,0.411633656,-0.825769829
370,927690,1416850,-0.783,-0.327,0.705,-14.4,13.1,-24.9,12.8,-9.7,-20.5,0.358592486,0.14004944,0.412091433,-0.825800348
371,930325,1416860,-0.783,-0.327,0.713,-13.9,11.4,-25.2,12.8,-9.7,-20.5,0.358073672,0.139927366,0.412488174,-0.825830866
372,933501,1416860,-0.779,-0.331,0.725,-13,9.9,-25.8,13.5,-9.3,-20.5,0.357554857,0.139774773,0.412884915,-0.825891903
373,935348,1416860,-0.79,-0.315,0.745,-11.6,8.7,-26.4,13.5,-9.3,-20.5,0.357036042,0.139622181,0.413251137,-0.82595294
374,938478,1416860,-0.79,-0.307,0.756,-9.6,7.9,-27.2,13.5,-9.3,-20.5,0.356517228,0.13943907,0.413556322,-0.826044496
375,940216,1416870,-0.79,-0.299,0.764,-6.9,7.4,-27.7,13.5,-9.3,-20.5,0.355937376,0.139255959,0.413830988,-0.826197089
376,943759,1416870,-0.798,-0.283,0.772,-3.6,6.9,-28.1,13.3,-9.2,-20.6,0.355418561,0.139103366,0.414044618,-0.826349681
377,945224,1416870,-0.809,-0.287,0.788,0,6.2,-28.4,13.3,-9.2,-20.6,0.35483871,0.138950774,0.414166692,-0.826563311
378,947702,1416870,-0.805,-0.244,0.799,4.2,5.4,-28.6,13.3,-9.2,-20.6,0.354258858,0.1388287,0.414227729,-0.826807459
379,951211,1416880,-0.817,-0.252,0.815,8.8,4.8,-28.6,13.3,-9.2,-20.6,0.353679006,0.138737144,0.414197211,-0.827082125
380,952740,1416880,-0.848,-0.211,0.863,13.4,4.8,-28.4,13.6,-9,-20.5,0.353068636,0.138676107,0.414075137,-0.827417829
381,955271,1416880,-0.879,-0.183,0.891,17.8,5.2,-28.1,13.6,-9,-20.5,0.352458266,0.138645589,0.413892026,-0.827784051
382,958708,1416880,-0.902,-0.139,0.915,21.7,5.8,-27.9,13.6,-9,-20.5,0.351847896,0.138645589,0.413617359,-0.828150273
383,960966,1416890,-0.937,-0.099,0.931,25.2,6.7,-27.6,13.6,-9,-20.5,0.351207007,0.138737144,0.413281655,-0.828577532
384,963247,1416890,-0.982,0.019,0.975,27.9,7.9,-26.6,11.4,-9.3,-20.5,0.350566118,0.1388287,0.412915433,-0.829004791
385,965454,1416890,-0.994,0.043,0.999,29.5,9.2,-24.9,11.4,-9.3,-20.5,0.34992523,0.139011811,0.412549211,-0.829432051
386,967696,1416890,-1.021,0.118,0.988,29.5,9.7,-23.2,11.4,-9.3,-20.5,0.349345378,0.139194922,0.41215247,-0.82985931
387,970260,1416900,-1.048,0.174,0.976,28,9.4,-22,11.4,-9.3,-20.5,0.348765526,0.139378033,0.411786248,-0.83025605
388,973689,1416900,-1.118,0.262,0.982,24.8,8.5,-21.1,13.8,-9.4,-20.4,0.348246712,0.139530625,0.411450545,-0.830622272
389,975204,1416900,-1.149,0.302,0.979,20.3,7.7,-19.9,13.8,-9.4,-20.4,0.347727897,0.139652699,0.411206397,-0.830927458
390,977750,1416900,-1.188,0.334,0.972,14.5,7.2,-17.7,13.8,-9.4,-20.4,0.347300638,0.139744255,0.411053804,-0.831171606
391,981334,1416910,-1.22,0.35,0.969,8.1,7,-14.9,13.8,-9.4,-20.4,0.346964934,0.139805292,0.410992767,-0.831324198
392,983526,1416910,-1.291,0.372,0.971,1,6.6,-11.5,13.8,-9.4,-20.4,0.346690268,0.139805292,0.411084323,-0.831415754
393,985743,1416910,-1.322,0.372,0.983,-6.3,5.9,-7.9,13.8,-9.4,-20.4,0.346507157,0.139805292,0.411267434,-0.831385235
394,987906,1416910,-1.362,0.389,1.004,-14.3,5.1,-4.2,13.8,-9.4,-20.4,0.346415601,0.139744255,0.411572619,-0.831263161
395,990937,1416920,-1.421,0.402,1.021,-23,4.3,-0.7,13.8,-9.4,-20.4,0.34644612,0.139652699,0.412030396,-0.831049532
396,992722,1416920,-1.453,0.395,1.01,-32.6,3.5,2.8,13.8,-9.4,-20.4,0.346568194,0.139500107,0.412640767,-0.830744346
397,996230,1416920,-1.469,0.376,0.999,-43.3,2.8,6.2,13.8,-9.4,-20.4,0.346781823,0.139286477,0.413434248,-0.830286569
398,997780,1416920,-1.481,0.349,1.003,-54.7,1.6,9.8,13.8,-9.4,-20.4,0.347117527,0.138981292,0.414380322,-0.829706717
399,1000168,1416930,-1.49,0.274,0.996,-66,0,13.3,13.8,-9.4,-20.4,0.347544786,0.13861507,0.415540025,-0.829004791
400,1003740,1416930,-1.503,0.231,0.996,-76.6,-1.9,17.1,13.8,-9.4,-20.4,0.348094119,0.138126774,0.416852321,-0.82821131
401,1005232,1416930,-1.508,0.18,0.981,-85.7,-3.9,21.2,13.8,-9.4,-20.4,0.348796045,0.137607959,0.418317209,-0.827265236
402,1008258,1416930,-1.513,0.121,0.977,-93.2,-5.7,25.5,13.8,-9.4,-20.4,0.349589526,0.137028108,0.419873653,-0.826227607
403,1011279,1416940,-1.522,0.027,0.986,-98.6,-7.6,29.4,13.8,-9.4,-20.4,0.350474563,0.136417737,0.421521653,-0.825128941
404,1012821,1416940,-1.523,-0.011,1.001,-101.8,-9.4,32.7,12.9,-9,-20.4,0.351451155,0.135776849,0.423169652,-0.823969237
405,1015235,1416940,-1.531,-0.042,1.013,-103,-10.9,35.5,12.9,-9,-20.4,0.352488784,0.135105441,0.42484817,-0.822779015
406,1018717,1416940,-1.535,-0.066,1.021,-102.1,-12.3,37.8,12.9,-9,-20.4,0.353587451,0.134434034,0.426465651,-0.821558275
407,1020237,1416950,-1.563,-0.085,1.014,-99.6,-13.6,40.1,12.9,-9,-20.4,0.354716636,0.133793146,0.428022095,-0.820368053
408,1022858,1416950,-1.563,-0.085,0.987,-95.4,-15.3,42.5,12.9,-9,-20.4,0.355906858,0.133182775,0.429486984,-0.819177831
409,1025166,1416950,-1.579,-0.081,0.952,-89.9,-17.7,44.9,12.9,-9,-20.4,0.357127598,0.132602924,0.430829798,-0.818048647
410,1029334,1416950,-1.599,-0.061,0.886,-83.2,-20.4,47.1,12.9,-9,-20.4,0.358409375,0.132023072,0.43202002,-0.81694998
411,1031521,1416960,-1.599,-0.041,0.843,-75.3,-23.2,49.2,12.9,-9,-20.4,0.359721671,0.131473739,0.433027131,-0.815942869
412,1033740,1416960,-1.607,-0.013,0.816,-66.2,-25.9,51.2,12.9,-9,-20.4,0.361064486,0.130985443,0.433851131,-0.814966277
413,1035233,1416960,-1.615,0.013,0.785,-56.2,-28.2,53.1,12.9,-9,-20.4,0.362437819,0.130527665,0.434492019,-0.814111759
414,1037754,1416960,-1.618,0.068,0.75,-45,-30.2,54.8,12.9,-9,-20.4,0.36384167,0.130161443,0.43488876,-0.813318278
415,1041245,1416970,-1.614,0.1,0.734,-32.6,-31.7,56.2,12.9,-9,-20.4,0.365215003,0.129886776,0.435071871,-0.81264687
416,1042780,1416970,-1.613,0.135,0.714,-19.7,-33,57.6,12.9,-9,-20.4,0.366618854,0.129673147,0.434980316,-0.812097537
417,1045218,1416970,-1.617,0.17,0.691,-6.8,-34.3,59,12.9,-9,-20.4,0.367992187,0.129581591,0.43467513,-0.811670278
418,1048702,1416970,-1.627,0.277,0.652,5.3,-35.7,60.1,12.9,-9,-20.4,0.369396039,0.129551073,0.43406476,-0.811334574
419,1050181,1416980,-1.638,0.332,0.64,16.4,-37.1,60.5,12.9,-9,-20.4,0.370769372,0.12961211,0.433332316,-0.811090426
420,1053392,1416980,-1.626,0.355,0.632,25.8,-38.8,60,12.9,-9,-20.4,0.372142705,0.129703665,0.432416761,-0.810968352
421,1055181,1416980,-1.672,0.462,0.625,33.6,-40.1,58.8,12.9,-9,-20.4,0.373455,0.129825739,0.431318094,-0.810907315
422,1058571,1416980,-1.688,0.494,0.629,40.4,-41.2,57,12.9,-9,-20.4,0.374736778,0.129947813,0.430097354,-0.810968352
423,1060894,1416990,-1.707,0.558,0.626,46.9,-42,53.9,12.9,-9,-20.4,0.375957518,0.130100406,0.428785058,-0.811059908
424,1063079,1416990,-1.721,0.617,0.649,52.7,-43.1,48.1,10.2,-7.3,-21,0.377056185,0.13022248,0.427350688,-0.811304056
425,1065324,1416990,-1.736,0.712,0.646,57.4,-45.4,38.9,10.2,-7.3,-21,0.378002258,0.130252998,0.425855281,-0.81163976
426,1067892,1416990,-1.735,0.759,0.63,60.3,-49.4,27.6,10.2,-7.3,-21,0.37879574,0.130100406,0.424298837,-0.812097537
427,1070204,1417000,-1.722,0.833,0.567,61,-54.9,17.1,10.2,-7.3,-21,0.379375591,0.129825739,0.422711875,-0.812677389
428,1073588,1417000,-1.691,0.836,0.546,58.6,-59.8,11.7,10.4,-8.1,-20.8,0.38001648,0.129337443,0.421124912,-0.813287759
429,1075295,1417000,-1.772,0.657,0.639,53,-61.5,14.9,10.4,-8.1,-20.8,0.380687887,0.128818628,0.419629505,-0.813837092
430,1077727,1417000,-1.769,0.622,0.619,45.4,-59,27.9,10.4,-8.1,-20.8,0.381603442,0.128421888,0.418256172,-0.814172796
431,1081154,1417010,-1.766,0.563,0.608,37.5,-54.1,46.4,10.4,-8.1,-20.8,0.382824183,0.128147221,0.417004913,-0.81429487
432,1083353,1417010,-1.763,0.508,0.588,30.6,-50.1,63.8,10.3,-8.2,-20.2,0.38431959,0.128147221,0.415875729,-0.814172796
433,1085296,1417010,-1.773,0.41,0.558,24.2,-48.4,74.9,10.3,-8.2,-20.2,0.386028626,0.128147221,0.414838099,-0.813898129
434,1088692,1417010,-1.785,0.367,0.546,17.6,-48.6,79.6,10.3,-8.2,-20.2,0.387829218,0.128147221,0.413892026,-0.813531907
435,1090248,1417020,-1.813,0.344,0.536,11.1,-49.6,79.9,10.3,-8.2,-20.2,0.389660329,0.128116703,0.413037507,-0.813074129
436,1092880,1417020,-1.866,0.298,0.521,4.8,-50.5,78.5,10.3,-8.1,-20.3,0.39149144,0.12796411,0.412305063,-0.812585833
437,1096084,1417020,-1.882,0.275,0.518,-0.7,-50.9,76.8,10.3,-8.1,-20.3,0.39332255,0.127750481,0.411664174,-0.812067019
438,1097675,1417020,-1.91,0.252,0.527,-5.5,-50.9,75,10.3,-8.1,-20.3,0.395123142,0.127445296,0.411114841,-0.811517685
439,1100279,1417030,-1.926,0.236,0.527,-9,-50.9,73.5,10.3,-8.1,-20.3,0.396893216,0.12714011,0.410626545,-0.810937834
440,1103694,1417030,-1.983,0.163,0.513,-11,-51,72.1,10.3,-8.1,-20.3,0.398663289,0.126773888,0.410199286,-0.810357982
441,1105597,1417030,-1.999,0.136,0.502,-11,-51.4,70.5,10.3,-8.1,-20.3,0.400402844,0.126407666,0.409741508,-0.80977813
442,1107963,1417030,-2.008,0.085,0.483,-8.6,-52.4,68.3,10.3,-8.1,-20.3,0.402111881,0.126010926,0.409253212,-0.809259316
443,1110209,1417040,-2.001,0.034,0.479,-3.4,-53.9,65.1,10.3,-8.1,-20.3,0.40375988,0.125614185,0.408642842,-0.808801538
444,1112910,1417040,-2.003,-0.072,0.456,4.6,-55.3,61,8.3,-10.5,-20.5,0.405316324,0.125217444,0.407910398,-0.808465835
445,1115115,1417040,-2.003,-0.103,0.44,15.1,-55.9,56.3,8.3,-10.5,-20.5,0.406720176,0.124881741,0.406994842,-0.808252205
446,1118607,1417040,-1.996,-0.143,0.421,27.7,-55.8,51.1,8.3,-10.5,-20.5,0.40806299,0.124576556,0.405865658,-0.808191168
447,1120808,1417050,-1.997,-0.162,0.397,41.9,-55.2,45.1,8.3,-10.5,-20.5,0.409253212,0.124393445,0.404522843,-0.808313242
448,1123082,1417050,-1.997,-0.154,0.323,57.9,-54.2,38.1,8,-11.1,-19.9,0.410229804,0.124271371,0.402905362,-0.808618427
449,1125308,1417050,-2.005,-0.119,0.265,75.4,-53.3,30.2,8,-11.1,-19.9,0.411023286,0.124271371,0.401013215,-0.80916776
450,1127922,1417050,-2.016,-0.083,0.218,94.3,-52.9,21.8,8,-11.1,-19.9,0.411633656,0.124393445,0.398815882,-0.809930723
451,1130260,1417060,-2.031,0.03,0.109,114.2,-53.2,13.3,8,-11.1,-19.9,0.412030396,0.124576556,0.396282846,-0.810937834
452,1133734,1417060,-2.03,0.104,0.077,134.6,-54.5,4.9,7.6,-12.4,-19.6,0.412213507,0.124881741,0.393383587,-0.812219611
453,1135955,1417060,-2.021,0.183,0.073,154.6,-56.2,-3.2,7.6,-12.4,-19.6,0.412213507,0.125217444,0.390148625,-0.813715018
454,1138246,1417060,-2.004,0.269,0.107,173.7,-57.6,-11.5,7.6,-12.4,-19.6,0.412030396,0.125675222,0.38657796,-0.815454573
455,1140615,1417070,-1.957,0.433,0.199,190.8,-58.1,-20,7.6,-12.4,-19.6,0.411633656,0.126194037,0.382702109,-0.817377239
456,1142834,1417070,-1.911,0.566,0.217,205.1,-57.7,-28.7,6.8,-14.6,-18.8,0.411023286,0.126773888,0.378612629,-0.819513535
457,1145425,1417070,-1.869,0.647,0.341,215.7,-57,-37.7,6.8,-14.6,-18.8,0.410229804,0.12735374,0.374340037,-0.821771905
458,1147719,1417070,-1.857,0.698,0.286,221.5,-57.4,-48.4,6.8,-14.6,-18.8,0.409192175,0.127933592,0.36997589,-0.824152348
459,1151605,1417080,-1.798,0.874,0.432,222.2,-58.5,-60.1,6.8,-14.6,-18.8,0.407971435,0.128360851,0.365642262,-0.826654866
460,1153981,1417080,-1.765,0.975,0.474,218.7,-59.9,-71.4,6.8,-14.6,-18.8,0.406537065,0.128666036,0.361339152,-0.829187902
461,1156125,1417080,-1.724,1.002,0.582,212.2,-60.2,-80.2,6.8,-14.6,-18.8,0.404950102,0.128818628,0.357188635,-0.831720939
462,1158046,1417080,-1.607,1.07,0.672,203.4,-60.1,-87.6,6.8,-14.6,-18.8,0.403271584,0.128849147,0.353221229,-0.834253975
463,1160336,1417090,-1.523,1.072,0.74,192.5,-59.9,-95.6,6.8,-14.6,-18.8,0.401440474,0.128696554,0.349436934,-0.836725974
464,1162629,1417090,-1.448,1.079,0.774,179.5,-60,-105.4,7,-14.9,-19,0.399456771,0.128360851,0.345927305,-0.839197974
465,1165128,1417090,-1.36,1.069,0.822,164.5,-60,-117.1,7,-14.9,-19,0.397289956,0.127811518,0.342722861,-0.841608936
466,1168798,1417090,-1.181,1.065,0.888,147.8,-59.7,-130.7,7,-14.9,-19,0.394940031,0.127018036,0.339854122,-0.844019898
467,1170596,1417100,-1.106,1.067,0.921,130.3,-58.6,-145.3,7,-14.9,-19,0.392315439,0.125980407,0.337351604,-0.846369823
468,1173152,1417100,-1.026,1.073,0.954,112.1,-56.6,-160.8,7.1,-15,-18.5,0.389446699,0.124729148,0.335215308,-0.848719749
469,1175164,1417100,-0.958,1.068,0.983,93.8,-53.3,-177.4,7.1,-15,-18.5,0.386303293,0.123233741,0.333506272,-0.851069674
470,1177618,1417100,-0.958,1.068,0.983,93.8,-53.3,-177.4,7.1,-15,-18.5,0.386303293,0.123233741,0.333506272,-0.851069674
471,1181321,1417110,-0.711,1.074,1.137,57.2,-42.5,-214.5,7.1,-15,-18.5,0.378978851,0.119663076,0.331369976,-0.855677969
472,1182851,1417110,-0.636,1.045,1.154,40.2,-36.2,-233.4,7.8,-14.6,-18.6,0.374767296,0.117648854,0.330912198,-0.857997375
473,1185868,1417110,-0.55,0.996,1.133,25.7,-31.6,-251.4,7.8,-14.6,-18.6,0.370220038,0.115451521,0.330820643,-0.860316782
474,1188704,1417110,-0.383,0.862,0.847,14.4,-30.4,-269.2,7.8,-14.6,-18.6,0.365337077,0.113040559,0.330973235,-0.862636189
475,1190319,1417120,-0.314,0.793,0.631,6.6,-33,-288.3,7.8,-14.6,-18.6,0.360118412,0.110385449,0.33127842,-0.865047151
476,1192771,1417120,-0.229,0.7,0.41,2.4,-38.2,-309.1,9,-13.1,-18.4,0.354564043,0.107455672,0.331675161,-0.867580187
477,1196343,1417120,-0.032,0.507,-0.015,2.8,-44.5,-330.6,9,-13.1,-18.4,0.348612934,0.10422071,0.332041383,-0.870235298
478,1197778,1417120,0.06,0.378,-0.162,9.8,-50.8,-351,9,-13.1,-18.4,0.342265084,0.100802637,0.332255013,-0.873073519
479,1200800,1417130,0.149,0.243,-0.234,25,-57.2,-368.6,9,-13.1,-18.4,0.335612049,0.0972014527,0.332163457,-0.876094852
480,1203642,1417130,0.254,0.107,-0.268,49,-64.1,-381.8,9,-13.1,-18.4,0.328653829,0.0935697501,0.331553087,-0.879360332
481,1205230,1417130,0.421,-0.112,-0.217,80.1,-71.4,-390.9,9,-13.1,-18.4,0.321481979,0.0899380474,0.330301828,-0.882839442
482,1207991,1417130,0.492,-0.177,-0.133,114.5,-78.8,-396.9,9,-13.1,-18.4,0.314188055,0.0863673818,0.328287606,-0.8865627
483,1211233,1417140,0.549,-0.154,-0.021,148.3,-85.1,-402.3,9,-13.1,-18.4,0.30671102,0.0828577532,0.325571459,-0.890499588
484,1212585,1417140,0.581,-0.174,0.168,179,-89.3,-409.3,10.9,-12.7,-18.2,0.299050874,0.0794091617,0.322244942,-0.894650105
485,1215446,1417140,0.739,-0.095,0.512,206.2,-92,-420.4,10.9,-12.7,-18.2,0.291116062,0.0759910886,0.318308054,-0.898953215
486,1219044,1417140,0.91,0.179,0.596,230.8,-95.1,-439.8,10.9,-12.7,-18.2,0.28275399,0.072542497,0.31388287,-0.903439436
487,1221080,1417150,1.081,0.36,0.735,253.2,-100.8,-469.9,10.9,-12.7,-18.2,0.27375103,0.0688802759,0.308999908,-0.908169805
488,1222582,1417150,1.509,0.685,1.164,272.7,-108.7,-507.5,12.5,-12.2,-17.4,0.264015625,0.0649433882,0.303689688,-0.913144322
489,1225489,1417150,1.786,0.828,1.364,286,-116.8,-544.8,12.5,-12.2,-17.4,0.25348674,0.0606402783,0.298074282,-0.918240913
490,1227655,1417150,2.09,0.955,1.515,289.6,-123.5,-576.2,12.5,-12.2,-17.4,0.242347484,0.0560014649,0.292306284,-0.923398541
491,1231082,1417160,2.064,0.734,0.216,281.1,-129.2,-601.3,12.5,-12.2,-17.4,0.230689413,0.0510574664,0.28666036,-0.928403577
492,1232800,1417160,4.145,-4.861,-4.256,266.9,-143.6,-620,14.7,-11.8,-17.2,0.218695639,0.0455946532,0.281197546,-0.93325602
493,1236194,1417160,7.978,-8.271,0.553,295.5,-182.2,-616.8,14.7,-11.8,-17.2,0.206946013,0.0395214698,0.274880215,-0.938077944
494,1237820,1417160,7.999,-8.266,4.396,463.9,-240.5,-529,14.7,-11.8,-17.2,0.197119053,0.0334788049,0.264717551,-0.943357646
495,1240114,1417170,7.942,-8.272,-3.968,683.1,-330.8,-294.5,14.7,-11.8,-17.2,0.192449721,0.0279244362,0.249427778,-0.948637349
496,1243617,1417170,8,-8.172,4.306,663.2,-383.2,28.2,13,-13.3,-17.4,0.194677572,0.0229194006,0.234015931,-0.952238533
497,1245255,1417170,8.095,-1.987,4.426,330.4,-318.6,260.5,13,-13.3,-17.4,0.201544237,0.0190435499,0.225653859,-0.95290994
498,1248827,1417170,7.284,2.029,5.26,-112,-128.4,244.4,13,-13.3,-17.4,0.207312235,0.0170903653,0.227332377,-0.951322977
499,1250245,1417180,3.106,3.379,3.399,-359.6,98.8,4.4,13,-13.3,-17.4,0.207037568,0.0175176244,0.235236671,-0.949461348
500,1253897,1417180,1.172,7.979,0.562,-417.3,263.7,-324.9,13,-13.3,-17.4,0.199102756,0.019409772,0.245155187,-0.94860683
501,1255548,1417180,-2.372,8.063,2.539,-399.3,382.8,-577.9,13,-13.3,-17.4,0.185216834,0.02252266,0.255287332,-0.948667867
502,1257843,1417180,-3.392,8.08,1.027,-365.3,459.1,-612.6,13,-13.3,-17.4,0.17014069,0.0271004364,0.264961699,-0.948728904
503,1261405,1417190,-6.988,8.163,-1.305,-334,465.7,-408.8,13,-13.3,-17.4,0.159154027,0.0331736198,0.273842586,-0.947904904
504,1262846,1417190,-6.658,7.899,-1.848,-313.9,391.6,-83.7,16.5,-10.9,-15.3,0.155308695,0.0396740623,0.281716361,-0.945982238
505,1266617,1417190,-5.646,5.368,-2.177,-309.7,285.3,169.5,16.5,-10.9,-15.3,0.157322916,0.0455641346,0.288918729,-0.943205054
506,1268884,1417190,-4.264,2.765,-2.815,-308.6,202.1,272.8,16.5,-10.9,-15.3,0.16196173,0.0503860591,0.295693838,-0.940092166
507,1270580,1417200,-1.89,-0.652,-2.685,-281.4,144.7,268.4,16.5,-10.9,-15.3,0.166814173,0.0540787988,0.301675466,-0.93713187
508,1272910,1417200,-0.73,-1.272,-2.335,-196.3,88.8,235,16.4,-11.1,-14.3,0.171269875,0.0567339091,0.305703909,-0.934842982
509,1275497,1417200,0.339,-3.076,0.98,-38.8,33.2,217.2,16.4,-11.1,-14.3,0.175542467,0.0587176122,0.306344798,-0.933713797
510,1277992,1417200,-1.764,-7.368,0.6,124.6,0.7,231.4,16.4,-11.1,-14.3,0.180089724,0.0607623524,0.303506577,-0.93365276
511,1280775,1417210,-1.47,-7.574,1.179,208.5,6.9,240.6,16.4,-11.1,-14.3,0.184667501,0.0632953887,0.298959319,-0.934049501
512,1283043,1417210,-1.301,-7.33,1.572,169.2,33.5,208,16.5,-11.8,-13.7,0.188451796,0.066011536,0.295358135,-0.934263131
513,1285274,1417210,-1.039,-6.101,1.803,58.5,50.3,115.7,16.5,-11.8,-13.7,0.190374462,0.0680257576,0.294198431,-0.93408002
514,1287619,1417210,-0.824,-4.314,2.035,-38.1,45.5,8.4,16.5,-11.8,-13.7,0.190313425,0.0688497574,0.295175024,-0.933744316
515,1291105,1417220,-0.557,-1.16,2.112,-77.9,28.2,-61.1,16.5,-11.8,-13.7,0.189001129,0.0687276833,0.296975616,-0.933439131
516,1292780,1417220,-0.63,-0.093,1.904,-65.8,13,-79.1,16.6,-11.5,-13.3,0.187414167,0.0682088687,0.298471023,-0.933317057
517,1295288,1417220,-0.88,0.78,1.587,-36.4,9.3,-65.8,16.6,-11.5,-13.3,0.186071352,0.0678121281,0.299356059,-0.933347575
518,1298616,1417220,-0.709,3.33,4.079,-32.5,23.2,-49.6,16.6,-11.5,-13.3,0.184942167,0.0678426466,0.300180059,-0.933286538
519,1300119,1417230,-1.263,2.856,1.994,-41.4,45.4,-52.4,16.6,-11.5,-13.3,0.18366039,0.0682393872,0.301248207,-0.933164464
520,1302875,1417230,-0.976,2.905,2.025,-29.7,46.8,-68.7,16.6,-11.5,-13.3,0.181981872,0.0686361278,0.302194281,-0.933164464
521,1305863,1417230,-1.015,1.919,2.127,20.4,18.4,-81,16.6,-11.5,-13.3,0.18018128,0.0685445723,0.301950133,-0.933591723
522,1308948,1417230,-0.474,0.228,1.84,78.9,-25.4,-71.4,16.6,-11.5,-13.3,0.178777429,0.0678731651,0.30036317,-0.934446242
523,1310390,1417240,-0.234,-0.559,1.555,108.6,-55.4,-46.2,16.6,-11.5,-13.3,0.178044984,0.0668660543,0.297982727,-0.935422834
524,1313387,1417240,-0.069,-1.14,1.302,106.1,-67.5,-21.9,15.9,-11.4,-15.3,0.177861873,0.0657368694,0.295602283,-0.936277352
525,1315144,1417240,0.064,-1.615,1.085,85.1,-68.3,-7.4,15.9,-11.4,-15.3,0.178044984,0.0646382031,0.293588061,-0.936948759
526,1318688,1417240,-0.477,-2.727,0.868,62.6,-64.5,5.3,15.9,-11.4,-15.3,0.178472243,0.0635700552,0.292062136,-0.937437056
527,1320126,1417250,-1.008,-4.322,1.168,49.2,-59.9,30.8,15.9,-11.4,-15.3,0.179418317,0.0627460555,0.290780358,-0.937711722
528,1323158,1417250,-0.464,-2.96,0.943,47.9,-57.2,55.3,16.5,-11.9,-16.3,0.180852687,0.0621356853,0.289498581,-0.937864315
529,1326175,1417250,-0.254,-2.661,1.46,51.5,-56.9,59.9,16.5,-11.9,-16.3,0.182348094,0.0615253151,0.288125248,-0.938016907
530,1327675,1417250,-0.096,-2.216,1.528,53.4,-59.1,35.9,16.5,-11.9,-16.3,0.183385723,0.0607623524,0.286751915,-0.938291574
531,1330084,1417260,0.07,-1.705,1.616,50.5,-62.3,4.5,16.5,-11.9,-16.3,0.183812983,0.059724723,0.285470138,-0.938688314
532,1333768,1417260,0.225,-1.19,1.669,45.7,-65.5,-15.1,15.8,-12.3,-17.4,0.183812983,0.0584734642,0.284279916,-0.939115574
533,1335877,1417260,0.4,-0.314,1.572,41.4,-67.7,-20,15.8,-12.3,-17.4,0.183812983,0.0571306497,0.283181249,-0.939542833
534,1338075,1417260,0.412,-0.008,1.497,37.3,-68.6,-16.8,15.8,-12.3,-17.4,0.183812983,0.0557573168,0.282174139,-0.939909055
535,1341164,1417270,0.379,0.2,1.403,33.7,-68.4,-13.6,15.8,-12.3,-17.4,0.183935057,0.0544145024,0.281228065,-0.940244758
536,1342596,1417270,0.317,0.276,1.346,30.6,-67.6,-15.6,16.1,-11.8,-17.6,0.183996094,0.053010651,0.280343028,-0.940580462
537,1345582,1417270,0.151,0.123,1.257,28.3,-66.3,-22.3,16.1,-11.8,-17.6,0.183904538,0.0516678365,0.279519028,-0.940916166
538,1348734,1417270,0.08,-0.067,1.213,25.9,-64.3,-29.9,16.1,-11.8,-17.6,0.18366039,0.0502639851,0.278756066,-0.941282388
539,1350174,1417280,0.025,-0.286,1.152,22.3,-61.6,-34.5,16.1,-11.8,-17.6,0.183294168,0.0488601337,0.278084658,-0.941618091
540,1352945,1417280,-0.025,-0.509,1.08,16.8,-58.6,-34.9,16.1,-11.8,-17.6,0.182927946,0.0475173193,0.277535325,-0.941923276
541,1355867,1417280,-0.067,-0.878,0.977,10.2,-56.2,-33.1,16.1,-11.8,-17.6,0.182561724,0.0461745048,0.277138585,-0.942167425
542,1357655,1417280,-0.073,-0.999,0.946,4,-54.7,-31.4,16.1,-11.8,-17.6,0.182256539,0.0449232459,0.276863918,-0.942381054
543,1361232,1417290,-0.047,-1.083,0.934,0,-54,-31,16.1,-11.8,-17.6,0.181951353,0.04361095,0.276680807,-0.942564165
544,1362784,1417290,0.055,-1.085,0.939,-1.4,-53.9,-31.5,15.7,-12.4,-16.3,0.18161565,0.0422681356,0.276528214,-0.942716758
545,1365789,1417290,0.1,-1.019,0.938,-0.8,-54.3,-31.8,15.7,-12.4,-16.3,0.181279946,0.0409863582,0.276345103,-0.942899869
546,1368796,1417290,0.161,-0.907,0.932,0.7,-54.9,-31.2,15.7,-12.4,-16.3,0.180974761,0.0396740623,0.276161992,-0.943052461
547,1370335,1417300,0.203,-0.778,0.93,2.1,-55.5,-29.9,15.7,-12.4,-16.3,0.180700095,0.0383617664,0.275917844,-0.943235572
548,1372933,1417300,0.227,-0.484,0.929,2.7,-55.8,-28.4,15.8,-12.2,-16.3,0.180455947,0.0370494705,0.275673696,-0.943418683
549,1375812,1417300,0.217,-0.381,0.917,2.5,-55.7,-27.2,15.8,-12.2,-16.3,0.180211798,0.0357371746,0.275429548,-0.943571276
550,1378751,1417300,0.195,-0.279,0.898,1.5,-54.8,-26.2,15.8,-12.2,-16.3,0.179998169,0.0344553972,0.2751854,-0.943723869
551,1380239,1417310,0.187,-0.227,0.886,0.2,-53.5,-25.1,15.8,-12.2,-16.3,0.179815058,0.0332041383,0.275002289,-0.943876461
552,1383135,1417310,0.14,-0.214,0.829,-1.2,-51.9,-24.3,15.8,-12.1,-16.3,0.179631947,0.0319833979,0.274819178,-0.943998535
553,1385985,1417310,0.131,-0.226,0.813,-2.8,-50.7,-24.1,15.8,-12.1,-16.3,0.179418317,0.0307626576,0.274697104,-0.944120609
554,1387640,1417310,0.131,-0.246,0.809,-4.5,-49.7,-24.3,15.8,-12.1,-16.3,0.179235206,0.0296029542,0.274636067,-0.944212165
555,1390349,1417320,0.122,-0.289,0.794,-6.5,-48.9,-24.6,15.8,-12.1,-16.3,0.179021577,0.0284127323,0.27457503,-0.94430372
556,1393334,1417320,0.109,-0.375,0.787,-8.6,-48.2,-24.7,15.6,-12.3,-16.5,0.178807947,0.0272225105,0.27457503,-0.944364757
557,1396110,1417320,0.112,-0.418,0.76,-10.3,-47.4,-24.8,15.6,-12.3,-16.5,0.178563799,0.0260933256,0.274636067,-0.944425794
558,1397748,1417320,0.119,-0.462,0.736,-11,-46.7,-25,15.6,-12.3,-16.5,0.178350169,0.0249031037,0.274697104,-0.944486831
559,1400686,1417330,0.15,-0.529,0.704,-10.4,-46,-25.7,15.6,-12.3,-16.5,0.178106021,0.0237739189,0.274727622,-0.944547868
560,1403719,1417330,0.181,-0.55,0.684,-8.7,-45.8,-26.7,15.6,-12.3,-16.5,0.177831355,0.022644734,0.274758141,-0.944639424
561,1405185,1417330,0.213,-0.57,0.664,-5.7,-45.9,-27.6,15.6,-12.3,-16.5,0.17752617,0.0214850307,0.274697104,-0.944730979
562,1408176,1417330,0.248,-0.583,0.639,-1.7,-46.3,-28.2,15.6,-12.3,-16.5,0.177220985,0.0203863643,0.27457503,-0.944853053
563,1411920,1417340,0.339,-0.593,0.641,3,-46.8,-28.3,15.6,-12.3,-16.5,0.176915799,0.0192571795,0.2743614,-0.945005646
564,1413487,1417340,0.415,-0.606,0.674,8.5,-47.2,-28.1,16.9,-11.7,-16.8,0.176610614,0.0181279946,0.273995178,-0.945188757
565,1415137,1417340,0.494,-0.631,0.711,14.4,-47.3,-27.6,16.9,-11.7,-16.8,0.176335948,0.0170598468,0.2735374,-0.945371868
566,1418743,1417340,0.541,-0.652,0.749,20.9,-46.8,-26.9,16.9,-11.7,-16.8,0.176061281,0.015991699,0.27292703,-0.945646535
567,1420134,1417350,0.537,-0.668,0.788,27.8,-45.8,-25.8,16.9,-11.7,-16.8,0.175786615,0.0150151067,0.272194586,-0.945921201
568,1423210,1417350,0.546,-0.648,0.78,35,-44.3,-24.3,16.8,-11.4,-16.8,0.175511948,0.0140995514,0.271309549,-0.946226386
569,1426243,1417350,0.585,-0.622,0.736,42.3,-43,-22.3,16.8,-11.4,-16.8,0.175298318,0.0132450331,0.27027192,-0.94656209
570,1427649,1417350,0.809,-0.501,0.601,49.1,-42.1,-20,16.8,-11.4,-16.8,0.175115207,0.0124210334,0.269112217,-0.946958831
571,1430708,1417360,0.956,-0.497,0.616,54.7,-42,-18.3,16.8,-11.4,-16.8,0.174962615,0.0116580706,0.267799921,-0.947355571
572,1433732,1417360,1.087,-0.527,0.66,59.4,-42.1,-17.5,16.7,-12.1,-16.5,0.174840541,0.0109256264,0.266426588,-0.94778283
573,1435244,1417360,1.17,-0.584,0.775,64.3,-41,-16.5,16.7,-12.1,-16.5,0.174718467,0.0102237007,0.264931181,-0.948210089
574,1438306,1417360,1.255,-0.778,1.015,70,-37.9,-13,16.7,-12.1,-16.5,0.17465743,0.00961333048,0.263344218,-0.948698386
575,1440486,1417370,1.258,-0.896,1.031,76.3,-32.9,-5.7,16.7,-12.1,-16.5,0.174718467,0.00918607135,0.261635182,-0.949156163
576,1442895,1417370,1.272,-0.987,1.019,81.3,-26.9,5.4,16.4,-11.9,-16.5,0.174962615,0.00897244179,0.259865108,-0.949613941
577,1446509,1417370,1.307,-1.031,0.991,82.8,-20.9,18.7,16.4,-11.9,-16.5,0.175450911,0.00897244179,0.258064516,-0.950010681
578,1448884,1417370,1.378,-1.048,0.88,79.5,-15.4,31.9,16.4,-11.9,-16.5,0.176183355,0.00912503433,0.256324961,-0.950315867
579,1451047,1417380,1.382,-1.017,0.825,72.1,-10.2,43.6,16.4,-11.9,-16.5,0.177129429,0.00943021943,0.254799036,-0.950560015
580,1453285,1417380,1.378,-0.982,0.782,62.6,-4.9,53.5,16.4,-11.9,-16.5,0.178258614,0.00988799707,0.253456221,-0.950712607
581,1455498,1417380,1.371,-0.938,0.739,53.1,0.3,62,16.4,-11.9,-16.5,0.179540391,0.0104373302,0.252357555,-0.950743126
582,1457643,1417380,1.324,-0.847,0.713,44.6,6.1,69.3,16.4,-11.9,-16.5,0.180944243,0.0111087374,0.251442,-0.950712607
583,1460709,1417390,1.289,-0.807,0.706,37.1,12,76.2,16.4,-11.9,-16.5,0.18243965,0.0119327372,0.250679037,-0.950621052
584,1462765,1417390,1.254,-0.775,0.699,30.2,17.9,83.2,15.9,-12.1,-15.9,0.184057131,0.012878811,0.250099185,-0.950437941
585,1465817,1417390,1.187,-0.742,0.677,23.9,23.8,90.2,15.9,-12.1,-15.9,0.185766167,0.0139774773,0.249671926,-0.950193793
586,1468635,1417390,1.155,-0.741,0.674,18,29.1,97.1,15.9,-12.1,-15.9,0.187627796,0.0151676992,0.249397259,-0.949919126
587,1470247,1417400,1.123,-0.748,0.667,12.5,33.8,103.6,15.9,-12.1,-15.9,0.189611499,0.0164799951,0.249244667,-0.949522385
588,1473322,1417400,1.071,-0.771,0.649,7.5,37.9,109.4,15.4,-12.4,-16.1,0.191625721,0.0179143651,0.249214148,-0.949095126
589,1476347,1417400,1.043,-0.786,0.638,2.9,41.3,114.4,15.4,-12.4,-16.1,0.193792535,0.0193792535,0.249244667,-0.948637349
590,1477739,1417400,1.015,-0.785,0.631,-1,44.4,118.9,15.4,-12.4,-16.1,0.196020386,0.020966216,0.249427778,-0.948088015
591,1480777,1417410,1.015,-0.785,0.631,-1,44.4,118.9,15.4,-12.4,-16.1,0.196020386,0.020966216,0.249427778,-0.948088015
592,1484071,1417410,0.955,-0.803,0.625,-6.1,49.6,126.7,14.8,-12.4,-15.9,0.2006592,0.024262215,0.249946593,-0.946897794
593,1486212,1417410,0.911,-0.806,0.611,-6.7,51.8,130.2,14.8,-12.4,-15.9,0.203070162,0.0260017701,0.250221259,-0.946256905
594,1487686,1417410,0.891,-0.81,0.615,-6.1,53.6,133.6,14.8,-12.4,-15.9,0.205542161,0.0278328806,0.250526444,-0.945616016
595,1490673,1417420,0.876,-0.813,0.608,-4.7,55.2,136.9,14.8,-12.4,-15.9,0.208075198,0.0296639912,0.250770592,-0.944944609
596,1493640,1417420,0.864,-0.813,0.608,-2.5,56.4,140.1,14.2,-13.2,-16.2,0.210638752,0.0316171758,0.250984222,-0.944242683
597,1495203,1417420,0.844,-0.817,0.597,0.1,57.3,143.2,14.2,-13.2,-16.2,0.213263344,0.0336008789,0.251167333,-0.943540757
598,1498207,1417420,0.84,-0.813,0.593,3.2,58,146.5,14.2,-13.2,-16.2,0.215979492,0.0356151006,0.251258889,-0.942838832
599,1500365,1417430,0.839,-0.828,0.577,6.6,58.4,149.7,14.2,-13.2,-16.2,0.218726157,0.0376293222,0.251258889,-0.942106388
600,1502709,1417430,0.843,-0.84,0.566,10,58.6,153,13.6,-13.6,-15.5,0.22153386,0.0397350993,0.25122837,-0.941373943
601,1506319,1417430,0.839,-0.836,0.55,13.4,58.9,155.9,13.6,-13.6,-15.5,0.2244026,0.041871395,0.251075777,-0.940641499
602,1507958,1417430,0.843,-0.832,0.55,16.5,59.2,158.9,13.6,-13.6,-15.5,0.227332377,0.0440382092,0.250892666,-0.939878536
603,1510194,1417440,0.843,-0.824,0.542,19.2,59.8,161.5,13.6,-13.6,-15.5,0.230292673,0.0462355419,0.250648518,-0.939115574
604,1512676,1417440,0.843,-0.809,0.534,21.4,60.4,163.9,10.6,-14.2,-15.2,0.233283486,0.0484939116,0.250343333,-0.938352611
605,1516176,1417440,0.836,-0.793,0.527,23,61.1,165.7,10.6,-14.2,-15.2,0.236335337,0.0507827998,0.25000763,-0.93755913
606,1518362,1417440,0.832,-0.785,0.519,24.1,61.7,167.2,10.6,-14.2,-15.2,0.239387188,0.053071688,0.249641408,-0.936765648
607,1520637,1417450,0.828,-0.769,0.511,24.7,62.4,168.4,10.6,-14.2,-15.2,0.242469558,0.0553910947,0.249244667,-0.935941649
608,1523027,1417450,0.817,-0.734,0.504,24.9,63.1,169.5,9.3,-14.7,-14.8,0.245551927,0.0577410199,0.248878445,-0.93508713
609,1525165,1417450,0.809,-0.718,0.504,24.5,63.9,170.4,9.3,-14.7,-14.8,0.248634297,0.0600909452,0.248512223,-0.934232612
610,1527987,1417450,0.797,-0.706,0.5,23.3,64.6,171.3,9.3,-14.7,-14.8,0.251747185,0.0624713889,0.248146001,-0.933317057
611,1531992,1417460,0.766,-0.669,0.497,21.1,65.3,172.1,9.3,-14.7,-14.8,0.254860073,0.0648518326,0.247840815,-0.932401502
612,1534226,1417460,0.75,-0.661,0.493,18.3,66,172.7,8.8,-15.3,-14.8,0.258003479,0.0672322764,0.247596667,-0.931424909
613,1536330,1417460,0.731,-0.645,0.49,14.8,66.9,173.2,8.8,-15.3,-14.8,0.261146886,0.0696127201,0.247413556,-0.930417798
614,1537973,1417460,0.711,-0.637,0.487,10.6,67.8,173.5,8.8,-15.3,-14.8,0.264290292,0.0719931639,0.247291482,-0.929380169
615,1540218,1417470,0.667,-0.62,0.484,5.8,68.8,173.5,8.8,-15.3,-14.8,0.26740318,0.0743125706,0.247291482,-0.928312021
616,1542938,1417470,0.64,-0.619,0.484,0.3,69.6,173.3,8.2,-15.2,-14.6,0.270546587,0.0766930143,0.247444075,-0.927182836
617,1546980,1417470,0.624,-0.619,0.477,-5.9,70.6,172.9,8.2,-15.2,-14.6,0.273659474,0.079012421,0.247688223,-0.925992615
618,1549232,1417470,0.596,-0.615,0.466,-12.9,71.5,172.3,8.2,-15.2,-14.6,0.276772362,0.0813318278,0.248054445,-0.924771874
619,1551466,1417480,0.532,-0.617,0.46,-20.3,72.4,171.3,8.2,-15.2,-14.6,0.27988525,0.0835901975,0.248603778,-0.923490097
620,1553766,1417480,0.493,-0.612,0.453,-27.6,73,169.9,11.7,-16.9,-14.8,0.28296762,0.0858180486,0.249305704,-0.922147282
621,1556060,1417480,0.453,-0.623,0.458,-34.6,73.5,168.3,11.7,-16.9,-14.8,0.286019471,0.0879848628,0.250129704,-0.920773949
622,1558183,1417480,0.409,-0.626,0.463,-40.9,73.8,166.6,11.7,-16.9,-14.8,0.289040803,0.0901211585,0.251106296,-0.919370098
623,1560475,1417490,0.31,-0.643,0.486,-46.3,74,164.8,11.7,-16.9,-14.8,0.292031617,0.0922269356,0.252174444,-0.917935728
624,1562993,1417490,0.258,-0.658,0.499,-50.3,74.1,163,9.5,-13.7,-15.1,0.294961394,0.0942716758,0.253334147,-0.916440321
625,1565215,1417490,0.198,-0.672,0.516,-52.8,73.9,161.1,9.5,-13.7,-15.1,0.297891171,0.0962858974,0.254524369,-0.914975433
626,1569445,1417490,0.083,-0.693,0.531,-54,73.4,159.5,9.5,-13.7,-15.1,0.300790429,0.098300119,0.255745109,-0.913449507
627,1571666,1417500,0.039,-0.704,0.544,-54.3,72.5,157.8,9.5,-13.7,-15.1,0.303628651,0.100283822,0.25696585,-0.9119541
628,1573506,1417500,-0.019,-0.702,0.557,-54.1,71.1,156,9.7,-13.6,-14.7,0.306466872,0.102206488,0.258156072,-0.910458693
629,1575963,1417500,-0.067,-0.705,0.566,-53.4,69.5,154.1,9.7,-13.6,-14.7,0.309244057,0.104098636,0.259346294,-0.908963286
630,1578053,1417500,-0.174,-0.703,0.581,-51.9,67.5,151.8,9.7,-13.6,-14.7,0.311990722,0.105960265,0.260475478,-0.907498398
631,1580406,1417510,-0.222,-0.702,0.578,-49.5,65.5,149.6,9.7,-13.6,-14.7,0.31470687,0.107760857,0.261574145,-0.906033509
632,1582790,1417510,-0.265,-0.693,0.587,-45.9,63.4,147.4,10.6,-13.9,-15.2,0.31736198,0.109530931,0.262550737,-0.904599139
633,1585457,1417510,-0.301,-0.684,0.584,-41.3,60.9,145,10.6,-13.9,-15.2,0.319956053,0.111270486,0.263435774,-0.903195288
634,1589459,1417510,-0.356,-0.659,0.597,-36,58.1,142.6,10.6,-13.9,-15.2,0.322519608,0.113010041,0.264229255,-0.901852474
635,1590162,1417520,-0.383,-0.643,0.602,-30.6,55.3,140,10.6,-13.9,-15.2,0.325052644,0.114688559,0.264870144,-0.900540178
636,1592903,1417520,-0.411,-0.627,0.606,-25.1,52.7,137.3,9.8,-14,-15.1,0.327494125,0.11630604,0.265388958,-0.899288919
637,1596377,1417520,-0.454,-0.594,0.607,-19.5,50.6,134.6,9.8,-14,-15.1,0.329905087,0.117954039,0.265785699,-0.898098697
638,1598357,1417520,-0.469,-0.574,0.616,-13.4,48.7,131.9,9.8,-14,-15.1,0.332224494,0.11957152,0.266060366,-0.896938993
639,1600592,1417530,-0.485,-0.55,0.628,-6.9,46.8,129,9.8,-14,-15.1,0.334513382,0.121189001,0.26618244,-0.895840327
640,1602964,1417530,-0.492,-0.523,0.636,-0.6,44.9,125.7,8.8,-16,-15.4,0.336710715,0.122806482,0.266212958,-0.894772179
641,1605327,1417530,-0.515,-0.479,0.652,4.8,43.2,122.2,8.8,-16,-15.4,0.338816492,0.124393445,0.266090884,-0.893795587
642,1607909,1417530,-0.515,-0.451,0.656,9.2,41.8,118.5,8.8,-16,-15.4,0.340861232,0.125980407,0.265907773,-0.892849513
643,1611894,1417540,-0.527,-0.431,0.664,12.7,40.7,114.8,8.8,-16,-15.4,0.342814417,0.127506333,0.265633106,-0.891964476
644,1613981,1417540,-0.534,-0.404,0.675,15.3,40,111,8.4,-16.4,-15.6,0.344706565,0.129062777,0.265327921,-0.891109958
645,1616188,1417540,-0.549,-0.372,0.68,17.4,39.4,107,8.4,-16.4,-15.6,0.346507157,0.130588702,0.264992218,-0.890285958
646,1618405,1417540,-0.557,-0.348,0.68,18.8,39,102.7,8.4,-16.4,-15.6,0.348216193,0.132053591,0.264625996,-0.889492477
647,1620654,1417550,-0.56,-0.324,0.692,19.3,38.7,98.4,8.4,-16.4,-15.6,0.349864193,0.133548997,0.264259774,-0.888760033
648,1623017,1417550,-0.56,-0.324,0.692,19.3,38.7,98.4,8.4,-16.4,-15.6,0.349864193,0.133548997,0.264259774,-0.888760033
649,1625447,1417550,-0.595,-0.253,0.681,16.6,38.5,89.5,7.9,-16.5,-15.3,0.353007599,0.137089145,0.263618885,-0.887142552
650,1628074,1417550,-0.611,-0.233,0.677,13.5,38.7,85.1,7.9,-16.5,-15.3,0.354380932,0.138431959,0.263405255,-0.886471145
651,1630454,1417560,-0.634,-0.221,0.666,10,39.1,80.7,7.9,-16.5,-15.3,0.355693228,0.139713736,0.263252663,-0.885769219
652,1633150,1417560,-0.666,-0.196,0.655,6.4,39.6,76.2,7.4,-17.7,-15.3,0.356913968,0.140964995,0.263222144,-0.885097812
653,1635328,1417560,-0.686,-0.184,0.663,2.5,39.9,71.6,7.4,-17.7,-15.3,0.358073672,0.142185736,0.263252663,-0.884426405
654,1638030,1417560,-0.717,-0.175,0.664,-2,40.1,67.3,7.4,-17.7,-15.3,0.35914182,0.14331492,0.263405255,-0.883754997
655,1641349,1417570,-0.733,-0.167,0.664,-7.4,40.3,63.4,7.4,-17.7,-15.3,0.36014893,0.144413587,0.263649403,-0.883114109
656,1643805,1417570,-0.796,-0.154,0.689,-13.1,40.4,59.8,7.3,-18.6,-15.5,0.361125523,0.145420698,0.264046144,-0.882412183
657,1647066,1417570,-0.832,-0.149,0.698,-19.1,40.6,56.5,7.3,-18.6,-15.5,0.362041078,0.146366771,0.264564959,-0.881740776
658,1648004,1417570,-0.859,-0.133,0.699,-25.4,40.7,53.3,7.3,-18.6,-15.5,0.362895596,0.147282327,0.265205847,-0.88103885
659,1650454,1417580,-0.887,-0.124,0.707,-32.1,40.7,50,7.3,-18.6,-15.5,0.363750114,0.148106326,0.26596881,-0.880336924
660,1653185,1417580,-0.946,-0.099,0.717,-39.2,40.5,46.5,7.9,-14.6,-15.1,0.364513077,0.148838771,0.266884365,-0.87960448
661,1655542,1417580,-0.974,-0.095,0.721,-46.5,40.1,43.2,7.9,-14.6,-15.1,0.36527604,0.149479659,0.267983032,-0.878841517
662,1657690,1417580,-1.005,-0.094,0.714,-53.2,39.6,39.8,7.9,-14.6,-15.1,0.365977966,0.150059511,0.269173254,-0.878078555
663,1661877,1417590,-1.029,-0.086,0.723,-58.7,39.1,36.4,7.9,-14.6,-15.1,0.366649373,0.150547807,0.270485549,-0.877315592
664,1664055,1417590,-1.057,-0.093,0.724,-62.9,38.5,33.1,7.8,-17.5,-16.8,0.367259743,0.150975066,0.271889401,-0.876552629
665,1666337,1417590,-1.073,-0.093,0.712,-66.3,37.5,29.9,7.8,-17.5,-16.8,0.367809076,0.151341288,0.273354289,-0.875789666
666,1669565,1417590,-1.089,-0.096,0.709,-69.7,36.2,26.9,7.8,-17.5,-16.8,0.368358409,0.151585437,0.274910733,-0.875057222
667,1670261,1417600,-1.137,-0.107,0.698,-73.4,34.8,24.2,7.8,-17.5,-16.8,0.368846706,0.151860103,0.276497696,-0.874294259
668,1673550,1417600,-1.157,-0.11,0.687,-77.5,33.7,21.3,8.2,-17.2,-16.8,0.369304483,0.151982177,0.278176214,-0.873531297
669,1675964,1417600,-1.176,-0.106,0.692,-81.8,32.8,18.5,8.2,-17.2,-16.8,0.369731742,0.152073733,0.279946287,-0.872798853
670,1678287,1417600,-1.2,-0.109,0.688,-85.7,32,15.9,8.2,-17.2,-16.8,0.370128483,0.152104251,0.281777398,-0.87203589
671,1680673,1417610,-1.224,-0.097,0.677,-89.2,31.2,13.2,8.2,-17.2,-16.8,0.370464187,0.152043214,0.283669546,-0.871272927
672,1682854,1417610,-1.244,-0.093,0.682,-92.3,30,10.5,8.1,-16.9,-17.3,0.37079989,0.15192114,0.28562273,-0.870509964
673,1685429,1417610,-1.264,-0.092,0.682,-95.4,28.5,7.7,8.1,-16.9,-17.3,0.371074557,0.151768548,0.28766747,-0.869747002
674,1688705,1417610,-1.275,-0.088,0.671,-98.3,27,5.3,8.1,-16.9,-17.3,0.371349223,0.151493881,0.289742729,-0.868984039
675,1690937,1417620,-1.307,-0.087,0.691,-101.1,25.7,3.2,8.1,-16.9,-17.3,0.371562853,0.151188696,0.291848506,-0.868251595
676,1692736,1417620,-1.311,-0.087,0.719,-103.5,24.9,1.3,8.2,-15.4,-17.6,0.371776482,0.150822474,0.29401532,-0.867488632
677,1695166,1417620,-1.311,-0.087,0.742,-105.3,24.3,-0.5,8.2,-15.4,-17.6,0.371959593,0.150425733,0.296212653,-0.866725669
678,1699435,1417620,-1.311,-0.095,0.801,-106.5,23.9,-2.4,8.2,-15.4,-17.6,0.372112186,0.149998474,0.298409986,-0.865993225
679,1700158,1417630,-1.318,-0.095,0.824,-106.9,23.8,-4.2,8.2,-15.4,-17.6,0.372203742,0.149571215,0.300637837,-0.865230262
680,1703951,1417630,-1.33,-0.094,0.856,-107.2,23.9,-5.6,8.5,-14.3,-16,0.372295297,0.149113437,0.302896207,-0.864497818
681,1706226,1417630,-1.334,-0.098,0.879,-107.3,24.3,-6.7,8.5,-14.3,-16,0.372356334,0.14865566,0.305124058,-0.863765374
682,1708442,1417630,-1.346,-0.086,0.919,-107.3,25.1,-7.5,8.5,-14.3,-16,0.372386853,0.148197882,0.307382427,-0.863032929
683,1710858,1417640,-1.353,-0.086,0.927,-106.9,26,-8.7,8.5,-14.3,-16,0.372417371,0.147770623,0.309640797,-0.862300485
684,1712812,1417640,-1.357,-0.086,0.946,-105.9,26.7,-10.3,8.9,-14.5,-18.6,0.372356334,0.147343364,0.311868648,-0.861568041
685,1715165,1417640,-1.357,-0.086,0.958,-104,27,-12.5,8.9,-14.5,-18.6,0.372295297,0.146916105,0.3140965,-0.860896634
686,1717926,1417640,-1.361,-0.086,0.97,-101.1,27.1,-15,8.9,-14.5,-18.6,0.372142705,0.146488845,0.316263314,-0.860225227
687,1720550,1417650,-1.365,-0.085,0.962,-97,26.9,-17.8,8.9,-14.5,-18.6,0.371929075,0.146092105,0.318338572,-0.859614856
688,1722954,1417650,-1.365,-0.085,0.958,-91.9,26.6,-20.8,8.9,-13.7,-19.1,0.371654408,0.145695364,0.320352794,-0.859065523
689,1725244,1417650,-1.365,-0.085,0.947,-86.5,26.3,-23.8,8.9,-13.7,-19.1,0.371288186,0.145329142,0.32227546,-0.858546709
690,1729404,1417650,-1.373,-0.081,0.92,-81.4,25.9,-26.7,8.9,-13.7,-19.1,0.370860927,0.14496292,0.324076052,-0.858119449
691,1731573,1417660,-1.377,-0.058,0.908,-76.6,25.6,-29.5,8.9,-13.7,-19.1,0.370372631,0.144596698,0.325815607,-0.857722709
692,1733779,1417660,-1.389,-0.038,0.892,-72,25.3,-32.2,9,-13.4,-19.3,0.369823298,0.144260994,0.327463607,-0.857387005
693,1735267,1417660,-1.372,0.024,0.868,-67.5,25.2,-34.9,9,-13.4,-19.3,0.369182409,0.143955809,0.329050569,-0.857112339
694,1738334,1417660,-1.376,0.055,0.849,-63.4,25.3,-37.8,9,-13.4,-19.3,0.368511002,0.143650624,0.330545976,-0.856898709
695,1740225,1417670,-1.375,0.09,0.837,-59.2,25.4,-40.5,9,-13.4,-19.3,0.367748039,0.143345439,0.332010865,-0.856715598
696,1742824,1417670,-1.371,0.122,0.817,-54.8,25.2,-42.7,9.5,-12.9,-19.1,0.366924039,0.143070772,0.333353679,-0.856563005
697,1745872,1417670,-1.35,0.188,0.801,-50.4,24.8,-44.2,9.5,-12.9,-19.1,0.366069521,0.142796106,0.334635456,-0.856440931
698,1748875,1417670,-1.349,0.223,0.793,-46.5,24.4,-45.6,9.5,-12.9,-19.1,0.365184484,0.142551958,0.335856197,-0.856440931
699,1750397,1417680,-1.333,0.251,0.777,-43.6,24,-46.8,9.5,-12.9,-19.1,0.364268929,0.14230781,0.336985382,-0.856410413
700,1752714,1417680,-1.325,0.282,0.769,-42,23.6,-48.3,9.8,-13.1,-19,0.363322855,0.142063662,0.338114566,-0.856410413
701,1755811,1417680,-1.281,0.32,0.748,-41.7,23.4,-50,9.8,-13.1,-19,0.362346263,0.141788995,0.339243751,-0.856410413
702,1758799,1417680,-1.261,0.324,0.747,-42.7,23.1,-52.2,9.8,-13.1,-19,0.361339152,0.141514328,0.340372936,-0.856440931
703,1760333,1417690,-1.241,0.323,0.762,-44.3,23,-54.2,9.8,-13.1,-19,0.360271004,0.141178625,0.341563158,-0.856440931
704,1762888,1417690,-1.225,0.319,0.766,-46.1,23.2,-55.7,10.3,-12.9,-17.8,0.359202857,0.140842921,0.342783898,-0.856501968
705,1765184,1417690,-1.182,0.298,0.78,-48,23.7,-56.4,10.3,-12.9,-17.8,0.358134709,0.140476699,0.344035157,-0.856501968
706,1768636,1417690,-1.17,0.27,0.792,-50.5,24.5,-56.4,10.3,-12.9,-17.8,0.357036042,0.140140996,0.345347453,-0.856440931
707,1770308,1417700,-1.155,0.243,0.799,-53.9,25.7,-55.9,10.3,-12.9,-17.8,0.355937376,0.139774773,0.346720786,-0.856440931
708,1773877,1417700,-1.139,0.195,0.819,-58.2,27.1,-54.9,10.3,-12.3,-16.9,0.354899747,0.139408551,0.348185675,-0.856349376
709,1775493,1417700,-1.132,0.167,0.834,-62.7,28.8,-53.6,10.3,-12.3,-16.9,0.353892636,0.139042329,0.349742119,-0.856196783
710,1777650,1417700,-1.132,0.167,0.834,-62.7,28.8,-53.6,10.3,-12.3,-16.9,0.353892636,0.139042329,0.349742119,-0.856196783
711,1781163,1417710,-1.132,0.167,0.834,-62.7,28.8,-53.6,10.3,-12.3,-16.9,0.353892636,0.139042329,0.349742119,-0.856196783
712,1782650,1417710,-1.132,0.167,0.834,-62.7,28.8,-53.6,10.3,-12.3,-16.9,0.353892636,0.139042329,0.349742119,-0.856196783
713,1785717,1417710,-1.132,0.167,0.834,-62.7,28.8,-53.6,10.3,-12.3,-16.9,0.353892636,0.139042329,0.349742119,-0.856196783
714,1787509,1417710,-1.132,0.167,0.834,-62.7,28.8,-53.6,10.3,-12.3,-16.9,0.353892636,0.139042329,0.349742119,-0.856196783
715,1791084,1417720,-1.132,0.167,0.834,-62.7,28.8,-53.6,10.3,-12.3,-16.9,0.353892636,0.139042329,0.349742119,-0.856196783
716,1792766,1417720,-1.084,-0.076,0.9,-75.1,35,-45.1,11.2,-11.2,-16.6,0.347209082,0.136875515,0.362102115,-0.854121525
717,1796249,1417720,-1.076,-0.088,0.908,-74.1,35.1,-43.7,11.2,-11.2,-16.6,0.346354564,0.136631367,0.363872188,-0.853755303
718,1797831,1417720,-1.072,-0.096,0.915,-72.6,35.3,-42.1,11.2,-11.2,-16.6,0.345500046,0.136417737,0.365611744,-0.85338908
719,1800243,1417730,-1.064,-0.12,0.923,-70.6,35.5,-40.4,11.2,-11.2,-16.6,0.344676046,0.136204108,0.36732078,-0.853022858
720,1803699,1417730,-1.06,-0.132,0.927,-67.8,35.7,-38.9,11.5,-11.2,-21.5,0.343852046,0.136051515,0.36896878,-0.852687155
721,1805206,1417730,-1.061,-0.144,0.939,-64.1,35.9,-37.3,11.5,-11.2,-21.5,0.343058565,0.13595996,0.370555742,-0.852320933
722,1807667,1417730,-1.049,-0.16,0.931,-59.7,36.1,-35.8,11.5,-11.2,-21.5,0.342265084,0.135868404,0.372020631,-0.852015748
723,1811538,1417740,-1.033,-0.187,0.938,-54.6,36.2,-34.3,11.5,-11.2,-21.5,0.341502121,0.135868404,0.373424482,-0.851710562
724,1813920,1417740,-1.018,-0.203,0.946,-49.2,36.3,-33,11.8,-10.9,-19.1,0.340739158,0.135898923,0.374706259,-0.851435896
725,1815318,1417740,-1.018,-0.203,0.946,-49.2,36.3,-33,11.8,-10.9,-19.1,0.340739158,0.135898923,0.374706259,-0.851435896
726,1818505,1417740,-0.99,-0.224,0.945,-37.9,36.3,-31,11.8,-10.9,-19.1,0.339213233,0.136143071,0.376934111,-0.851039155
727,1820774,1417750,-0.967,-0.236,0.936,-32.4,36.3,-30.2,11.8,-10.9,-19.1,0.33845027,0.136326182,0.377910703,-0.850886563
728,1823012,1417750,-0.959,-0.24,0.928,-27.2,36.5,-29.4,12.1,-10.8,-20,0.337687307,0.136539811,0.378765221,-0.850764489
729,1825254,1417750,-0.947,-0.233,0.92,-22.3,36.8,-28.7,12.1,-10.8,-20,0.336924345,0.136844996,0.379528184,-0.850672933
730,1827754,1417750,-0.939,-0.229,0.912,-17.6,37.2,-27.9,12.1,-10.8,-20,0.336161382,0.1371807,0.38023011,-0.850642415
731,1831229,1417760,-0.923,-0.218,0.892,-13,37.8,-27.1,12.1,-10.8,-20,0.335367901,0.137546922,0.380809961,-0.850611896
732,1832737,1417760,-0.915,-0.206,0.896,-8.5,38.5,-26.2,12.2,-10.6,-20.9,0.334574419,0.137974181,0.381328776,-0.850611896
733,1835834,1417760,-0.907,-0.198,0.888,-4.3,39.1,-25,12.2,-10.6,-20.9,0.333811457,0.138462477,0.381786554,-0.850642415
734,1838691,1417760,-0.891,-0.175,0.876,-0.5,39.6,-23.7,12.2,-10.6,-20.9,0.333048494,0.139011811,0.382152776,-0.850672933
735,1840291,1417770,-0.875,-0.164,0.863,2.7,40.2,-22.3,12.2,-10.6,-20.9,0.332285531,0.139591662,0.382457961,-0.850764489
736,1843877,1417770,-0.859,-0.156,0.851,5.4,40.8,-20.9,12.7,-10.9,-21.5,0.331522568,0.140202033,0.382732627,-0.850825526
737,1845343,1417770,-0.855,-0.148,0.839,7.4,41.5,-19.4,12.7,-10.9,-21.5,0.330790124,0.140842921,0.382946257,-0.850886563
738,1848468,1417770,-0.831,-0.141,0.819,8.8,42.2,-18.1,12.7,-10.9,-21.5,0.330088198,0.141575365,0.383129368,-0.850978118
739,1850745,1417780,-0.827,-0.133,0.819,9.5,43.1,-16.8,12.7,-10.9,-21.5,0.329386273,0.14230781,0.383281961,-0.851039155
740,1852829,1417780,-0.823,-0.137,0.807,9.5,43.9,-15.7,13,-10.5,-19.4,0.328684347,0.143040254,0.383526109,-0.851100192
741,1855213,1417780,-0.815,-0.13,0.799,8.9,44.8,-14.5,13,-10.5,-19.4,0.32801294,0.143833735,0.38370922,-0.851130711
742,1857767,1417780,-0.807,-0.118,0.783,8,45.7,-13.3,13,-10.5,-19.4,0.327372051,0.144627216,0.383922849,-0.851161229
743,1861148,1417790,-0.799,-0.118,0.775,6.7,46.6,-12.1,13,-10.5,-19.4,0.326731162,0.145420698,0.384166997,-0.851161229
744,1862740,1417790,-0.803,-0.122,0.768,5.4,47.2,-10.7,12.9,-10.4,-19.4,0.326120792,0.146244697,0.384441664,-0.851130711
745,1865841,1417790,-0.791,-0.122,0.775,4,47.8,-9.4,12.9,-10.4,-19.4,0.325510422,0.147099216,0.384746849,-0.851069674
746,1867698,1417790,-0.779,-0.127,0.779,2.7,48.2,-7.9,12.9,-10.4,-19.4,0.324961089,0.147953734,0.385052034,-0.850978118
747,1871729,1417800,-0.775,-0.135,0.783,1.1,48.6,-6.5,12.9,-10.4,-19.4,0.324442274,0.148808252,0.385418256,-0.850886563
748,1873216,1417800,-0.764,-0.158,0.79,-0.3,49,-4.8,12.6,-11,-19.5,0.32392346,0.149632252,0.385784478,-0.850764489
749,1876178,1417800,-0.756,-0.174,0.79,-1.8,49.3,-3.1,12.6,-11,-19.5,0.323465682,0.150547807,0.386181219,-0.850611896
750,1877729,1417800,-0.748,-0.194,0.794,-3.3,49.5,-1.4,12.6,-11,-19.5,0.323038423,0.151432844,0.38657796,-0.850428785
751,1880715,1417810,-0.749,-0.214,0.79,-4.7,49.5,0,12.6,-11,-19.5,0.322611164,0.152317881,0.387035737,-0.850215155
752,1883750,1417810,-0.745,-0.234,0.782,-6.1,49.4,1.3,13.7,-10.4,-18.9,0.322244942,0.153202918,0.387493515,-0.850001526
753,1885510,1417810,-0.738,-0.273,0.79,-7,49.1,2.5,13.7,-10.4,-18.9,0.321909238,0.154087954,0.387951292,-0.849757378
754,1888244,1417810,-0.742,-0.293,0.798,-7.4,48.9,3.6,13.7,-10.4,-18.9,0.321573534,0.154972991,0.38840907,-0.84951323
755,1891204,1417820,-0.738,-0.312,0.794,-7.4,48.5,4.7,13.7,-10.4,-18.9,0.321298868,0.155858028,0.388866848,-0.849238563
756,1892882,1417820,-0.739,-0.328,0.794,-6.9,48,5.8,13.6,-10.3,-19.4,0.321024201,0.156743065,0.389324625,-0.848963897
757,1896063,1417820,-0.731,-0.36,0.809,-5.8,47.4,7.2,13.6,-10.3,-19.4,0.320749535,0.15765862,0.389751885,-0.848719749
758,1897769,1417820,-0.719,-0.376,0.813,-4.1,46.6,8.6,13.6,-10.3,-19.4,0.320535905,0.158543657,0.390118107,-0.848445082
759,1901211,1417830,-0.72,-0.395,0.817,-2,45.6,9.9,13.6,-10.3,-19.4,0.320352794,0.159459212,0.390423292,-0.848200934
760,1902801,1417830,-0.712,-0.411,0.813,0.2,44.6,11.2,12.6,-10.5,-18.7,0.320169683,0.160374767,0.390697958,-0.847987304
761,1905301,1417830,-0.704,-0.427,0.809,2.7,43.5,12.4,12.6,-10.5,-18.7,0.32001709,0.161320841,0.390911588,-0.847773675
762,1908777,1417830,-0.701,-0.443,0.805,5.4,42.3,13.6,12.6,-10.5,-18.7,0.319895016,0.162266915,0.39106418,-0.847560045
763,1910298,1417840,-0.697,-0.451,0.801,8.2,40.8,14.6,12.6,-10.5,-18.7,0.319772942,0.163212989,0.391094699,-0.847376934
764,1912963,1417840,-0.689,-0.463,0.793,11,39.2,15.4,15.7,-10.1,-18.8,0.319681387,0.164128544,0.391155736,-0.847224342
765,1916039,1417840,-0.693,-0.474,0.781,13.9,37.6,16.3,15.7,-10.1,-18.8,0.31962035,0.165074618,0.391094699,-0.847102268
766,1918284,1417840,-0.686,-0.494,0.781,16.7,36.1,16.9,15.7,-10.1,-18.8,0.319559313,0.165990173,0.390972625,-0.847010712
767,1920439,1417850,-0.682,-0.494,0.773,19.7,34.6,17.6,15.7,-10.1,-18.8,0.319528794,0.166936247,0.390789514,-0.846919156
768,1922744,1417850,-0.678,-0.506,0.766,22.9,33.2,18.4,15.7,-10.3,-18.9,0.319498276,0.167851802,0.390545366,-0.846858119
769,1926111,1417850,-0.674,-0.506,0.758,26.1,31.8,19.4,15.7,-10.3,-18.9,0.319498276,0.168797876,0.390209662,-0.846827601
770,1927793,1417850,-0.666,-0.514,0.757,29.2,30.3,20.4,15.7,-10.3,-18.9,0.319498276,0.16974395,0.389782403,-0.846827601
771,1930163,1417860,-0.662,-0.518,0.749,31.9,28.9,21.3,15.7,-10.3,-18.9,0.319528794,0.170659505,0.389324625,-0.846827601
772,1933492,1417860,-0.65,-0.519,0.745,34.5,27.4,22.1,15.8,-10.3,-18.7,0.319589831,0.171605579,0.388805811,-0.846888638
773,1935371,1417860,-0.647,-0.523,0.737,36.8,26,23,15.8,-10.3,-18.7,0.319650868,0.172551653,0.388225959,-0.846919156
774,1938763,1417860,-0.643,-0.523,0.733,38.8,24.7,23.7,15.8,-10.3,-18.7,0.319742424,0.173467208,0.38758507,-0.847010712
775,1940271,1417870,-0.631,-0.519,0.713,40.6,23.5,24.4,15.8,-10.3,-18.7,0.319833979,0.174382763,0.386883145,-0.847071749
776,1942741,1417870,-0.631,-0.519,0.71,41.9,22.2,24.9,15.7,-10.5,-18.7,0.319956053,0.175298318,0.386181219,-0.847163305
777,1946334,1417870,-0.635,-0.519,0.702,43,21,25.6,15.7,-10.5,-18.7,0.320078127,0.176213874,0.385448775,-0.847285379
778,1948438,1417870,-0.631,-0.507,0.694,43.7,19.8,26.5,15.7,-10.5,-18.7,0.32023072,0.17709891,0.384655293,-0.847376934
779,1950820,1417880,-0.623,-0.492,0.674,44.3,18.8,27.4,15.7,-10.5,-18.7,0.320413831,0.177953429,0.383861812,-0.847499008
780,1952985,1417880,-0.627,-0.484,0.678,44.6,17.8,28.1,13.6,-11,-18.1,0.320596942,0.178868984,0.383068331,-0.847590564
781,1955333,1417880,-0.626,-0.48,0.67,44.5,16.7,28.8,13.6,-11,-18.1,0.32084109,0.179723502,0.382244331,-0.847712638
782,1959689,1417880,-0.622,-0.468,0.67,44,15.7,29.5,13.6,-11,-18.1,0.321085238,0.180578021,0.381420331,-0.847804193
783,1960044,1417890,-0.618,-0.453,0.666,43.3,14.6,30.1,13.6,-11,-18.1,0.321329386,0.18140202,0.380596332,-0.847895749
784,1963423,1417890,-0.618,-0.453,0.666,43.3,14.6,30.1,13.6,-11,-18.1,0.321329386,0.18140202,0.380596332,-0.847895749
785,1965113,1417890,-0.606,-0.449,0.674,41.3,12.7,31.3,15,-10.7,-17.8,0.321939756,0.182988983,0.378978851,-0.848048341
786,1968753,1417890,-0.606,-0.449,0.674,40.1,11.7,31.8,15,-10.7,-17.8,0.32227546,0.183751946,0.378215888,-0.848109378
787,1970193,1417900,-0.598,-0.449,0.673,38.9,10.7,32.1,15,-10.7,-17.8,0.322611164,0.184514908,0.377422407,-0.848170415
788,1972675,1417900,-0.598,-0.449,0.673,38.9,10.7,32.1,15,-10.7,-17.8,0.322611164,0.184514908,0.377422407,-0.848170415
789,1976211,1417900,-0.59,-0.461,0.673,35.9,8.9,32.3,14.9,-11.5,-17.8,0.323557237,0.186132389,0.375591296,-0.848261971
790,1977778,1417900,-0.579,-0.481,0.681,34.2,8.3,32.3,14.9,-11.5,-17.8,0.323953978,0.186803797,0.37488937,-0.848261971
791,1980825,1417910,-0.579,-0.481,0.681,34.2,8.3,32.3,14.9,-11.5,-17.8,0.323953978,0.186803797,0.37488937,-0.848261971
792,1983002,1417910,-0.575,-0.501,0.685,30.7,7.5,31.9,14.2,-11.7,-17.7,0.324747459,0.188055055,0.373577074,-0.848261971
793,1985287,1417910,-0.575,-0.509,0.689,29.1,7,31.6,14.2,-11.7,-17.7,0.325174718,0.188665426,0.372936186,-0.848261971
794,1988340,1417910,-0.575,-0.521,0.681,27.7,6.6,31.3,14.2,-11.7,-17.7,0.325571459,0.189245277,0.372356334,-0.848231452
795,1991189,1417920,-0.568,-0.525,0.681,26.4,6.3,31,14.2,-11.7,-17.7,0.325998718,0.18979461,0.371776482,-0.848200934
796,1992813,1417920,-0.568,-0.533,0.681,25.4,6,30.7,13.3,-11.6,-17.8,0.326395459,0.190343944,0.371227149,-0.848170415
797,1995716,1417920,-0.564,-0.537,0.681,24.5,5.7,30.4,13.3,-11.6,-17.8,0.326822718,0.190862758,0.370677816,-0.848109378
798,1998732,1417920,-0.56,-0.544,0.684,23.7,5.1,30,13.3,-11.6,-17.8,0.327219459,0.191381573,0.370159001,-0.84807886
799,2000210,1417930,-0.56,-0.545,0.673,23.3,4.6,29.7,13.3,-11.6,-17.8,0.327646718,0.191869869,0.369609668,-0.848017823
800,2002641,1417930,-0.56,-0.556,0.665,23.2,4.1,29.3,14.6,-12,-17.5,0.328073977,0.192358165,0.369121372,-0.847987304
801,2006239,1417930,-0.556,-0.556,0.665,23.2,3.5,28.9,14.6,-12,-17.5,0.328470717,0.192815943,0.368572039,-0.847956786
802,2007833,1417930,-0.552,-0.556,0.665,23.5,2.9,28.3,14.6,-12,-17.5,0.328867458,0.193273721,0.368053224,-0.847926267
803,2010811,1417940,-0.552,-0.553,0.661,23.8,2.2,27.8,14.6,-12,-17.5,0.329264199,0.19370098,0.367503891,-0.847895749
804,2012721,1417940,-0.552,-0.556,0.665,24.1,1.8,27.3,11.7,-12,-17.4,0.329660939,0.194128239,0.366954558,-0.847895749
805,2016256,1417940,-0.548,-0.561,0.661,24.6,1.3,26.8,11.7,-12,-17.4,0.330027161,0.194555498,0.366405225,-0.847895749
806,2017833,1417940,-0.544,-0.549,0.657,24.8,1,26.4,11.7,-12,-17.4,0.330423902,0.194952239,0.365825373,-0.847895749
807,2021596,1417950,-0.54,-0.553,0.649,25,0.8,26,11.7,-12,-17.4,0.330790124,0.195348979,0.36527604,-0.847895749
808,2023044,1417950,-0.54,-0.553,0.649,25,0.8,26,11.7,-12,-17.4,0.330790124,0.195348979,0.36527604,-0.847895749
809,2026923,1417950,-0.536,-0.537,0.645,25.2,0.3,25.2,11,-12.2,-17.6,0.331186865,0.195623646,0.364543596,-0.847987304
810,2029115,1417950,-0.536,-0.533,0.637,25.3,0,24.8,11,-12.2,-17.6,0.331553087,0.195989868,0.363963744,-0.848017823
811,2030585,1417960,-0.532,-0.526,0.633,25.3,-0.5,24.3,11,-12.2,-17.6,0.331888791,0.19635609,0.363383892,-0.848048341
812,2032821,1417960,-0.528,-0.526,0.629,25.1,-0.8,23.9,10.9,-12.1,-17.4,0.332255013,0.196722312,0.362804041,-0.84807886
813,2035895,1417960,-0.524,-0.514,0.625,24.8,-1,23.5,10.9,-12.1,-17.4,0.332590716,0.197058016,0.362254707,-0.848109378
814,2038784,1417960,-0.52,-0.506,0.621,24.2,-1,23,10.9,-12.1,-17.4,0.332895901,0.197424238,0.361674856,-0.848139897
815,2040311,1417970,-0.52,-0.502,0.617,23.4,-1.3,22.6,10.9,-12.1,-17.4,0.333231605,0.197729423,0.361156041,-0.848170415
816,2043339,1417970,-0.512,-0.495,0.609,22.5,-1.5,22.2,11,-12.4,-17.4,0.333567309,0.198034608,0.360606708,-0.848170415
817,2046256,1417970,-0.512,-0.491,0.609,21.3,-1.7,21.8,11,-12.4,-17.4,0.333903012,0.198339793,0.360118412,-0.848200934
818,2047741,1417970,-0.508,-0.491,0.605,19.9,-1.9,21.4,11,-12.4,-17.4,0.334208197,0.19861446,0.359630116,-0.848200934
819,2050867,1417980,-0.512,-0.487,0.601,18.4,-1.9,20.9,11,-12.4,-17.4,0.334543901,0.198889126,0.359202857,-0.848200934
820,2053168,1417980,-0.504,-0.483,0.605,17,-1.8,20.4,14.6,-14.2,-17.6,0.334849086,0.199133274,0.358775597,-0.848200934
821,2055271,1417980,-0.504,-0.475,0.593,15.6,-1.7,19.8,14.6,-14.2,-17.6,0.33518479,0.199377422,0.358378857,-0.848170415
822,2058240,1417980,-0.508,-0.475,0.589,14,-1.5,19.4,14.6,-14.2,-17.6,0.335489975,0.199591052,0.358043153,-0.848170415
823,2060123,1417990,-0.504,-0.471,0.593,12.4,-1.5,19,14.6,-14.2,-17.6,0.33579516,0.199804682,0.35770745,-0.848109378
824,2063602,1417990,-0.508,-0.463,0.585,10.7,-1.5,18.7,13.1,-11.3,-17.1,0.336100345,0.199987793,0.357402264,-0.84807886
825,2065234,1417990,-0.508,-0.463,0.585,9,-1.6,18.5,13.1,-11.3,-17.1,0.33640553,0.200170904,0.357158116,-0.848017823
826,2068038,1417990,-0.504,-0.456,0.589,7.1,-1.6,18.1,13.1,-11.3,-17.1,0.336741234,0.200354015,0.356913968,-0.847956786
827,2071105,1418000,-0.507,-0.448,0.573,5.3,-1.6,17.8,13.1,-11.3,-17.1,0.337046419,0.200506607,0.356730857,-0.84786523
828,2072720,1418000,-0.503,-0.444,0.577,3.4,-1.7,17.3,13.9,-11.1,-16.8,0.337382122,0.200628681,0.356578265,-0.847773675
829,2075476,1418000,-0.503,-0.44,0.577,1.5,-1.9,16.9,13.9,-11.1,-16.8,0.337687307,0.200720237,0.356456191,-0.847682119
830,2078610,1418000,-0.507,-0.44,0.573,-0.3,-1.9,16.6,13.9,-11.1,-16.8,0.338023011,0.200811792,0.356395154,-0.847560045
831,2080409,1418010,-0.503,-0.432,0.573,-2.2,-1.8,16.3,13.9,-11.1,-16.8,0.338358715,0.200903348,0.356334117,-0.847437971
832,2083783,1418010,-0.507,-0.428,0.573,-4.2,-1.6,16,14,-11.4,-17.1,0.338694418,0.200964385,0.356334117,-0.847285379
833,2085315,1418010,-0.507,-0.428,0.577,-6.2,-1.4,15.6,14,-11.4,-17.1,0.338999603,0.201025422,0.356364635,-0.847132786
834,2088342,1418010,-0.515,-0.424,0.577,-8.2,-1.4,15.3,14,-11.4,-17.1,0.339335307,0.20105594,0.356456191,-0.846949675
835,2091241,1418020,-0.523,-0.42,0.574,-10.2,-1.3,14.8,14,-11.4,-17.1,0.33967101,0.20105594,0.356578265,-0.846766564
836,2092831,1418020,-0.523,-0.416,0.574,-12.3,-1.3,14.4,14.2,-11.5,-17.2,0.340006714,0.20105594,0.356730857,-0.846552934
837,2095877,1418020,-0.523,-0.42,0.578,-14.3,-1.2,14,14.2,-11.5,-17.2,0.340311899,0.201025422,0.356913968,-0.846369823
838,2098124,1418020,-0.527,-0.412,0.574,-16.1,-1.2,13.6,14.2,-11.5,-17.2,0.340678121,0.200994903,0.357127598,-0.846125675
839,2101030,1418030,-0.531,-0.408,0.582,-17.9,-1.3,13,14.2,-11.5,-17.2,0.340983306,0.200933866,0.357402264,-0.845912046
840,2102991,1418030,-0.531,-0.412,0.582,-19.6,-1.4,12.5,12.9,-12.6,-17.2,0.34131901,0.200872829,0.35770745,-0.845667898
841,2106334,1418030,-0.527,-0.412,0.581,-21.3,-1.6,12,12.9,-12.6,-17.2,0.341654714,0.200781274,0.358043153,-0.84542375
842,2107835,1418030,-0.539,-0.412,0.574,-23,-1.7,11.6,12.9,-12.6,-17.2,0.341990417,0.2006592,0.358378857,-0.845149083
843,2110508,1418040,-0.543,-0.419,0.574,-24.6,-1.8,11.1,12.9,-12.6,-17.2,0.342265084,0.200537126,0.358775597,-0.844874416
844,2112746,1418040,-0.543,-0.423,0.57,-25.9,-1.8,10.6,12.9,-12.9,-17.8,0.342631306,0.200384533,0.359202857,-0.84459975
845,2116132,1418040,-0.547,-0.427,0.57,-26.8,-1.8,9.9,12.9,-12.9,-17.8,0.342936491,0.200231941,0.359630116,-0.844325083
846,2117742,1418040,-0.555,-0.439,0.575,-27.5,-1.6,9.2,12.9,-12.9,-17.8,0.343241676,0.20004883,0.360087893,-0.844050417
847,2120598,1418050,-0.555,-0.443,0.582,-27.8,-1.5,8.4,12.9,-12.9,-17.8,0.343546861,0.199896237,0.360545671,-0.84377575
848,2123705,1418050,-0.555,-0.443,0.582,-27.8,-1.5,8.4,12.9,-12.9,-17.8,0.343546861,0.199896237,0.360545671,-0.84377575
849,2125337,1418050,-0.559,-0.462,0.579,-27.3,-1.5,6.9,13,-13.4,-17.7,0.344065676,0.199804682,0.361705374,-0.843104343
850,2127603,1418050,-0.567,-0.466,0.579,-26.7,-1.6,6.2,13,-13.4,-17.7,0.344309824,0.19962157,0.362132633,-0.842860195
851,2131888,1418060,-0.571,-0.466,0.583,-26,-1.7,5.4,13,-13.4,-17.7,0.344553972,0.199438459,0.362590411,-0.842616047
852,2133886,1418060,-0.571,-0.47,0.583,-24.9,-1.9,4.6,12.9,-14,-17.6,0.344767602,0.199255348,0.36301767,-0.842371899
853,2135476,1418060,-0.575,-0.462,0.587,-23.6,-2.1,3.9,12.9,-14,-17.6,0.344950713,0.199072237,0.363414411,-0.842188787
854,2138458,1418060,-0.579,-0.454,0.587,-22.3,-2.2,3.1,12.9,-14,-17.6,0.345133824,0.198858608,0.363750114,-0.841975158
855,2140116,1418070,-0.587,-0.45,0.587,-20.9,-2.4,2.5,12.9,-14,-17.6,0.345286416,0.198675497,0.364146855,-0.841822565
856,2142975,1418070,-0.591,-0.446,0.583,-19.5,-2.6,1.8,12.6,-15.1,-17.8,0.34540849,0.198522904,0.364482559,-0.841669973
857,2145913,1418070,-0.594,-0.43,0.579,-18,-2.9,1.2,12.6,-15.1,-17.8,0.345530564,0.198339793,0.364787744,-0.84151738
858,2147824,1418070,-0.598,-0.422,0.583,-16.7,-3.2,0.4,12.6,-15.1,-17.8,0.345652638,0.198156682,0.36506241,-0.841395306
859,2150236,1418080,-0.602,-0.414,0.584,-15.4,-3.4,-0.1,12.6,-15.1,-17.8,0.345744194,0.197973571,0.365337077,-0.841273232
860,2153521,1418080,-0.598,-0.41,0.587,-14.2,-3.6,-0.8,13,-10.4,-16.3,0.345805231,0.19779046,0.365550707,-0.841181677
861,2155191,1418080,-0.602,-0.398,0.587,-13.3,-3.9,-1.3,13,-10.4,-16.3,0.345866268,0.197607349,0.365794855,-0.84112064
862,2158745,1418080,-0.594,-0.394,0.587,-12.7,-4.1,-1.8,13,-10.4,-16.3,0.345927305,0.197424238,0.365977966,-0.841059603
863,2160923,1418090,-0.602,-0.386,0.587,-12.4,-4.3,-2.4,13,-10.4,-16.3,0.345988342,0.197210608,0.366191595,-0.840968047
864,2162600,1418090,-0.602,-0.39,0.587,-12.4,-4.5,-2.9,13.1,-13.6,-18.4,0.34601886,0.197027497,0.366405225,-0.840937529
865,2165307,1418090,-0.606,-0.382,0.595,-12.6,-4.7,-3.4,13.1,-13.6,-18.4,0.346049379,0.196813868,0.366618854,-0.840876492
866,2168448,1418090,-0.606,-0.386,0.595,-12.9,-4.9,-3.8,13.1,-13.6,-18.4,0.346079897,0.196600238,0.366832484,-0.840815455
867,2170117,1418100,-0.61,-0.382,0.595,-13.5,-5,-4.2,13.1,-13.6,-18.4,0.346079897,0.19635609,0.367046113,-0.840754418
868,2172765,1418100,-0.61,-0.382,0.595,-13.5,-5,-4.2,13.1,-13.6,-18.4,0.346079897,0.19635609,0.367046113,-0.840754418
869,2175892,1418100,-0.621,-0.382,0.611,-15.4,-5.1,-4.8,13.2,-13.2,-19.1,0.34644612,0.196661275,0.367290262,-0.840449232
870,2177631,1418100,-0.617,-0.386,0.607,-16.5,-5.1,-5.1,13.2,-13.2,-19.1,0.346476638,0.196417127,0.367595447,-0.840357677
871,2181111,1418110,-0.629,-0.386,0.615,-17.4,-5.3,-5.4,13.2,-13.2,-19.1,0.346507157,0.19614246,0.367900632,-0.84029664
872,2182618,1418110,-0.625,-0.394,0.623,-18.3,-5.4,-5.4,13.2,-12.2,-18.8,0.346507157,0.195837275,0.368205817,-0.840205084
873,2185189,1418110,-0.626,-0.402,0.627,-18.9,-5.7,-5.5,13.2,-12.2,-18.8,0.346537675,0.19553209,0.36854152,-0.840113529
874,2187876,1418110,-0.63,-0.409,0.631,-19.6,-5.9,-5.5,13.2,-12.2,-18.8,0.346568194,0.195257424,0.368877224,-0.840021973
875,2191647,1418120,-0.626,-0.417,0.639,-20,-6.1,-5.6,13.2,-12.2,-18.8,0.346598712,0.194952239,0.369212928,-0.839930418
876,2193231,1418120,-0.622,-0.441,0.643,-20.4,-6.4,-5.8,13.1,-10.8,-18.7,0.346629231,0.194616535,0.36957915,-0.839838862
877,2196264,1418120,-0.618,-0.445,0.65,-20.6,-6.9,-5.8,13.1,-10.8,-18.7,0.346659749,0.19431135,0.369914853,-0.839747307
878,2197720,1418120,-0.614,-0.461,0.654,-20.6,-7.3,-5.9,13.1,-10.8,-18.7,0.346720786,0.193945128,0.370281075,-0.839655751
879,2200824,1418130,-0.615,-0.473,0.662,-20.4,-7.6,-5.7,13.1,-10.8,-18.7,0.346751305,0.193578906,0.370616779,-0.839564196
880,2203828,1418130,-0.615,-0.5,0.662,-20.3,-7.8,-5.5,12.9,-12,-16.8,0.346812342,0.193273721,0.370952483,-0.83947264
881,2205451,1418130,-0.619,-0.508,0.674,-19.9,-7.9,-5.2,12.9,-12,-16.8,0.34684286,0.192938017,0.371257668,-0.839381085
882,2208030,1418130,-0.619,-0.516,0.682,-19.4,-8.1,-4.9,12.9,-12,-16.8,0.346903897,0.192602313,0.371562853,-0.839289529
883,2210388,1418140,-0.623,-0.531,0.678,-18.7,-8.2,-4.6,12.9,-12,-16.8,0.346964934,0.19226661,0.371898556,-0.839228492
884,2212688,1418140,-0.619,-0.535,0.686,-17.9,-8.2,-4.2,12.7,-12.3,-18.9,0.347025971,0.191961425,0.372173223,-0.839136937
885,2216801,1418140,-0.623,-0.539,0.686,-17.1,-8.3,-3.7,12.7,-12.3,-18.9,0.347117527,0.191625721,0.37244789,-0.8390759
886,2218637,1418140,-0.619,-0.543,0.69,-16.3,-8.5,-3.1,12.7,-12.3,-18.9,0.347178564,0.191320536,0.372692038,-0.838984344
887,2220497,1418150,-0.623,-0.543,0.698,-15.6,-8.7,-2.4,12.7,-12.3,-18.9,0.347270119,0.191015351,0.372905667,-0.838923307
888,2222888,1418150,-0.623,-0.543,0.698,-15.6,-8.7,-2.4,12.7,-12.3,-18.9,0.347270119,0.191015351,0.372905667,-0.838923307
889,2225521,1418150,-0.623,-0.535,0.706,-14.1,-8.8,-1,12.7,-11.7,-18.6,0.347483749,0.190466018,0.373332926,-0.838770714
890,2227877,1418150,-0.627,-0.535,0.706,-13.4,-8.8,-0.3,12.7,-11.7,-18.6,0.347605823,0.190191351,0.373516037,-0.838709677
891,2230150,1418160,-0.623,-0.531,0.717,-12.9,-8.9,0.5,12.7,-11.7,-18.6,0.347758415,0.189947203,0.37366863,-0.83864864
892,2234243,1418160,-0.627,-0.523,0.717,-12.6,-8.9,1.5,12.7,-11.6,-18.9,0.347911008,0.189672536,0.373821223,-0.838557085
893,2236447,1418160,-0.623,-0.527,0.713,-12.4,-8.9,2.6,12.7,-11.6,-18.9,0.348063601,0.189458907,0.373973815,-0.838465529
894,2238641,1418160,-0.623,-0.531,0.725,-12.3,-8.9,3.5,12.7,-11.6,-18.9,0.34827723,0.189245277,0.374126408,-0.838373974
895,2240511,1418170,-0.623,-0.523,0.725,-12.3,-8.9,4.5,12.7,-11.6,-18.9,0.348460341,0.189001129,0.374248482,-0.838282418
896,2243830,1418170,-0.615,-0.527,0.721,-12.5,-8.9,5.4,12.5,-11.7,-18.5,0.348704489,0.1887875,0.374401074,-0.838190863
897,2245362,1418170,-0.619,-0.523,0.725,-12.8,-8.8,6.4,12.5,-11.7,-18.5,0.348948637,0.188604389,0.374553667,-0.838068789
898,2247866,1418170,-0.623,-0.523,0.721,-13.3,-8.7,7.3,12.5,-11.7,-18.5,0.349192785,0.188390759,0.374675741,-0.837916196
899,2250175,1418180,-0.623,-0.523,0.721,-14,-8.5,8.1,12.5,-11.7,-18.5,0.349467452,0.188207648,0.374858852,-0.837794122
900,2253657,1418180,-0.623,-0.519,0.721,-14.9,-8.3,9,12.9,-11.9,-19.3,0.349772637,0.187994018,0.375011444,-0.83764153
901,2255818,1418180,-0.623,-0.515,0.721,-15.8,-8.1,9.7,12.9,-11.9,-19.3,0.350077822,0.187810907,0.375194555,-0.837458419
902,2258760,1418180,-0.627,-0.511,0.729,-16.8,-7.9,10.5,12.9,-11.9,-19.3,0.350413526,0.187627796,0.375408185,-0.837275307
903,2260226,1418190,-0.627,-0.511,0.725,-17.6,-7.7,11.3,12.9,-11.9,-19.3,0.350749229,0.187444685,0.375621815,-0.837061678
904,2263092,1418190,-0.631,-0.507,0.725,-18.3,-7.4,12.1,12.7,-11.3,-17.2,0.351115452,0.187261574,0.375865963,-0.836848048
905,2266036,1418190,-0.631,-0.507,0.725,-18.9,-7.1,12.9,12.7,-11.3,-17.2,0.351481674,0.187078463,0.376110111,-0.836634419
906,2267655,1418190,-0.631,-0.504,0.729,-19.5,-6.9,13.5,12.7,-11.3,-17.2,0.351878414,0.186925871,0.376354259,-0.836390271
907,2270326,1418200,-0.627,-0.508,0.737,-19.9,-6.8,14.2,12.7,-11.3,-17.2,0.352275155,0.186742759,0.376598407,-0.836146123
908,2273540,1418200,-0.627,-0.508,0.737,-19.9,-6.8,14.2,12.7,-11.3,-17.2,0.352275155,0.186742759,0.376598407,-0.836146123
909,2275115,1418200,-0.627,-0.511,0.733,-20.4,-6.5,15.4,12.4,-11.6,-16.3,0.353343303,0.186590167,0.376506851,-0.835779901
910,2277816,1418200,-0.627,-0.515,0.729,-20.7,-6.4,16,12.4,-11.6,-16.3,0.353770562,0.186468093,0.376781518,-0.835505234
911,2281205,1418210,-0.627,-0.511,0.725,-20.8,-6.2,16.4,12.4,-11.6,-16.3,0.354197821,0.1863155,0.377025666,-0.835230567
912,2282647,1418210,-0.623,-0.508,0.725,-21,-6.1,16.9,12.4,-11.4,-16.4,0.354655599,0.186193426,0.377300333,-0.834955901
913,2285487,1418210,-0.627,-0.504,0.717,-21,-6,17.3,12.4,-11.4,-16.4,0.355113376,0.186040834,0.377574999,-0.834681234
914,2288550,1418210,-0.631,-0.504,0.717,-21,-6.1,17.8,12.4,-11.4,-16.4,0.355571154,0.18591876,0.377819147,-0.834376049
915,2290208,1418220,-0.626,-0.496,0.717,-20.8,-6.2,18.2,12.4,-11.4,-16.4,0.356028932,0.185766167,0.378093814,-0.834101382
916,2293306,1418220,-0.626,-0.492,0.713,-20.5,-6.2,18.6,12.5,-11.6,-16.8,0.356517228,0.185674612,0.378337962,-0.833796197
917,2296257,1418220,-0.626,-0.476,0.709,-20.1,-6.3,19,12.5,-11.6,-16.8,0.357005524,0.185552538,0.37858211,-0.833521531
918,2297954,1418220,-0.622,-0.48,0.701,-19.6,-6.4,19.4,12.5,-11.6,-16.8,0.357463301,0.185460982,0.37879574,-0.833216346
919,2300766,1418230,-0.618,-0.476,0.701,-19.3,-6.5,19.7,12.5,-11.6,-16.8,0.357982116,0.185338908,0.379039888,-0.832941679
920,2303719,1418230,-0.618,-0.476,0.697,-19,-6.6,20,12.5,-11.7,-20.3,0.358470412,0.185247353,0.379253517,-0.832667013
921,2305323,1418230,-0.614,-0.472,0.693,-18.6,-6.7,20.2,12.5,-11.7,-20.3,0.358958708,0.185125278,0.379436628,-0.832361827
922,2308422,1418230,-0.61,-0.473,0.697,-18.2,-6.8,20.3,12.5,-11.7,-20.3,0.359477523,0.185033723,0.379650258,-0.832087161
923,2311532,1418240,-0.598,-0.473,0.697,-17.7,-7,20.4,12.5,-11.7,-20.3,0.359965819,0.184942167,0.379833369,-0.831812494
924,2313716,1418240,-0.602,-0.473,0.689,-16.9,-7.2,20.5,12.1,-11.6,-18.6,0.360454115,0.184850612,0.379985961,-0.831537828
925,2315227,1418240,-0.595,-0.473,0.693,-16.4,-7.2,20.6,12.1,-11.6,-18.6,0.36097293,0.184759056,0.380138554,-0.831263161
926,2317716,1418240,-0.598,-0.473,0.697,-16,-7.1,20.7,12.1,-11.6,-18.6,0.361461226,0.184667501,0.380291147,-0.830988495
927,2322005,1418250,-0.59,-0.465,0.689,-16,-7.1,20.8,12.1,-11.6,-18.6,0.361980041,0.184575945,0.380443739,-0.830713828
928,2324259,1418250,-0.59,-0.465,0.689,-16,-7.1,20.8,12.1,-11.6,-18.6,0.361980041,0.184575945,0.380443739,-0.830713828
929,2326557,1418250,-0.591,-0.465,0.677,-15.7,-7.3,21.1,12,-11.9,-19.6,0.363109226,0.18448439,0.380474258,-0.83025605
930,2328735,1418250,-0.591,-0.465,0.677,-15.2,-7.4,21.1,12,-11.9,-19.6,0.363597522,0.184392834,0.380596332,-0.829981384
931,2330966,1418260,-0.591,-0.469,0.673,-14.4,-7.6,21.2,12,-11.9,-19.6,0.364116337,0.184331797,0.380718406,-0.829737236
932,2332692,1418260,-0.579,-0.477,0.681,-13.5,-7.6,21.3,12.3,-11.5,-20.6,0.364604633,0.184240242,0.380809961,-0.829493088
933,2335253,1418260,-0.579,-0.485,0.677,-12.6,-7.7,21.2,12.3,-11.5,-20.6,0.365123447,0.184179205,0.380901517,-0.829248939
934,2337895,1418260,-0.579,-0.481,0.673,-11.5,-7.8,21.2,12.3,-11.5,-20.6,0.365611744,0.184118168,0.380962554,-0.829004791
935,2341273,1418270,-0.583,-0.497,0.681,-10.5,-7.9,20.9,12.3,-11.5,-20.6,0.36610004,0.184087649,0.380993072,-0.828791162
936,2342775,1418270,-0.579,-0.501,0.681,-9.3,-8,20.7,11.8,-11.8,-20.5,0.366588336,0.184026612,0.381023591,-0.828577532
937,2345780,1418270,-0.575,-0.497,0.681,-7.9,-8.2,20.3,11.8,-11.8,-20.5,0.367046113,0.183996094,0.381023591,-0.828363903
938,2348815,1418270,-0.579,-0.501,0.677,-6.4,-8.3,20,11.8,-11.8,-20.5,0.367503891,0.183935057,0.380993072,-0.828180792
939,2350231,1418280,-0.575,-0.501,0.677,-4.8,-8.5,19.7,11.8,-11.8,-20.5,0.367961669,0.183904538,0.380932035,-0.828028199
940,2353328,1418280,-0.571,-0.501,0.677,-3.3,-8.7,19.5,12.1,-11.6,-18.8,0.368388928,0.183904538,0.38084048,-0.827875607
941,2356127,1418280,-0.571,-0.497,0.669,-1.9,-9,19.3,12.1,-11.6,-18.8,0.368816187,0.18387402,0.380718406,-0.827753533
942,2357856,1418280,-0.567,-0.493,0.665,-0.6,-9.3,19,12.1,-11.6,-18.8,0.369243446,0.183812983,0.380565813,-0.827631458
943,2361010,1418290,-0.567,-0.489,0.669,0.4,-9.6,18.8,12.1,-11.6,-18.8,0.369670705,0.183812983,0.380413221,-0.827509384
944,2362686,1418290,-0.563,-0.485,0.665,1.5,-9.8,18.7,11.9,-11.8,-18.7,0.370097964,0.183812983,0.38023011,-0.827417829
945,2366060,1418290,-0.563,-0.482,0.669,2.4,-10,18.6,11.9,-11.8,-18.7,0.370494705,0.183812983,0.380046999,-0.827326273
946,2367823,1418290,-0.567,-0.474,0.665,3.2,-10.1,18.5,11.9,-11.8,-18.7,0.370891446,0.183812983,0.379833369,-0.827234718
947,2370270,1418300,-0.563,-0.47,0.661,3.8,-10.2,18.2,11.9,-11.8,-18.7,0.371288186,0.183812983,0.379589221,-0.827173681
948,2373523,1418300,-0.563,-0.47,0.661,3.8,-10.2,18.2,11.9,-11.8,-18.7,0.371288186,0.183812983,0.379589221,-0.827173681
949,2375260,1418300,-0.559,-0.466,0.657,4.2,-10.6,17.7,11.8,-11.6,-18.8,0.372142705,0.18366039,0.378856777,-0.827173681
950,2378155,1418300,-0.559,-0.462,0.649,4.2,-10.7,17.5,11.8,-11.6,-18.8,0.372539445,0.183629872,0.378612629,-0.827112644
951,2380086,1418310,-0.563,-0.462,0.649,4.1,-10.7,17.2,11.8,-11.6,-18.8,0.372905667,0.183629872,0.37836848,-0.827051607
952,2383513,1418310,-0.555,-0.47,0.645,3.7,-10.7,16.9,11.8,-12,-19.3,0.373302408,0.183599353,0.378154851,-0.826960051
953,2385221,1418310,-0.555,-0.47,0.649,3.4,-10.7,16.7,11.8,-12,-19.3,0.37366863,0.183568834,0.377941221,-0.826899014
954,2388180,1418310,-0.555,-0.47,0.641,3.1,-10.7,16.5,11.8,-12,-19.3,0.374034852,0.183538316,0.377727592,-0.826837977
955,2390471,1418320,-0.559,-0.47,0.641,2.6,-10.8,16.3,11.8,-12,-19.3,0.374431593,0.183507797,0.377513962,-0.82677694
956,2393666,1418320,-0.555,-0.466,0.637,2.2,-10.8,16,11.6,-11.5,-19,0.374797815,0.18344676,0.377330851,-0.826715903
957,2395393,1418320,-0.559,-0.47,0.641,1.6,-10.8,15.7,11.6,-11.5,-19,0.375164037,0.183416242,0.37714774,-0.826624348
958,2397806,1418320,-0.555,-0.47,0.641,1.1,-10.8,15.5,11.6,-11.5,-19,0.375530259,0.183355205,0.376995148,-0.826563311
959,2401362,1418330,-0.559,-0.47,0.645,0.5,-11,15.3,11.6,-11.5,-19,0.375896481,0.183263649,0.376812037,-0.826471755
960,2402931,1418330,-0.555,-0.474,0.645,0,-11,15.1,9.8,-11.8,-18.9,0.376262703,0.183202612,0.376659444,-0.826410718
961,2405388,1418330,-0.555,-0.474,0.645,-0.6,-11,14.9,9.8,-11.8,-18.9,0.376598407,0.183111057,0.37653737,-0.826319163
962,2407854,1418330,-0.551,-0.486,0.641,-1.2,-11.1,14.7,9.8,-11.8,-18.9,0.376964629,0.183019501,0.376415296,-0.826227607
963,2411274,1418340,-0.555,-0.486,0.649,-1.7,-11.2,14.4,9.8,-11.8,-18.9,0.377330851,0.182927946,0.376293222,-0.826136052
964,2412959,1418340,-0.559,-0.49,0.641,-2.1,-11.2,14.2,13.3,-11.5,-18.9,0.377697073,0.18283639,0.376171148,-0.826044496
965,2415394,1418340,-0.555,-0.494,0.645,-2.7,-11.3,13.9,13.3,-11.5,-18.9,0.378063295,0.182714316,0.376079592,-0.82595294
966,2417956,1418340,-0.555,-0.494,0.637,-3.1,-11.3,13.7,13.3,-11.5,-18.9,0.378398999,0.182592242,0.375988037,-0.825861385
967,2420178,1418350,-0.556,-0.501,0.641,-3.5,-11.4,13.4,13.3,-11.5,-18.9,0.378765221,0.182470168,0.375896481,-0.825769829
968,2423960,1418350,-0.556,-0.501,0.641,-3.5,-11.4,13.4,13.3,-11.5,-18.9,0.378765221,0.182470168,0.375896481,-0.825769829
969,2426313,1418350,-0.556,-0.509,0.641,-4,-11.7,12.7,13.3,-12,-18.9,0.379314554,0.181920835,0.375835444,-0.825678274
970,2428620,1418350,-0.552,-0.505,0.641,-4.1,-11.8,12.5,13.3,-12,-18.9,0.379680776,0.181768242,0.375743889,-0.825586718
971,2431418,1418360,-0.556,-0.509,0.645,-4.1,-11.8,12.4,13.3,-12,-18.9,0.38001648,0.18161565,0.375682852,-0.825495163
972,2433238,1418360,-0.552,-0.509,0.649,-4,-11.9,12.4,12.5,-11.7,-19,0.380352184,0.181463057,0.375591296,-0.825403607
973,2435728,1418360,-0.548,-0.521,0.645,-4,-11.9,12.3,12.5,-11.7,-19,0.380687887,0.181340983,0.375530259,-0.825312052
974,2437905,1418360,-0.552,-0.525,0.649,-4,-11.9,12.1,12.5,-11.7,-19,0.381023591,0.181188391,0.375469222,-0.825189978
975,2440221,1418370,-0.552,-0.521,0.649,-4.1,-11.9,11.8,12.5,-11.7,-19,0.381328776,0.181035798,0.375377667,-0.825128941
976,2443769,1418370,-0.552,-0.525,0.645,-4.1,-11.9,11.7,12.8,-11.7,-19,0.38166448,0.180883206,0.37531663,-0.825037385
977,2445924,1418370,-0.556,-0.525,0.653,-4.1,-12,11.6,12.8,-11.7,-19,0.382000183,0.180700095,0.375255593,-0.824976348
978,2448081,1418370,-0.556,-0.517,0.649,-4.1,-12,11.5,12.8,-11.7,-19,0.382305368,0.180547502,0.375164037,-0.824884793
979,2450587,1418380,-0.556,-0.521,0.645,-4.1,-12.2,11.3,12.8,-11.7,-19,0.382641072,0.18039491,0.375103,-0.824793237
980,2452853,1418380,-0.556,-0.517,0.645,-3.9,-12.2,11.1,10.8,-12,-19.3,0.382946257,0.180242317,0.375011444,-0.8247322
981,2455531,1418380,-0.556,-0.513,0.649,-3.8,-12.2,11,10.8,-12,-19.3,0.383251442,0.180059206,0.374950407,-0.824640645
982,2457875,1418380,-0.556,-0.505,0.645,-3.6,-12.3,11,10.8,-12,-19.3,0.383587146,0.179906613,0.374858852,-0.824579608
983,2460420,1418390,-0.556,-0.505,0.641,-3.4,-12.6,11,10.8,-12,-19.3,0.383892331,0.179754021,0.374767296,-0.824488052
984,2462822,1418390,-0.552,-0.505,0.653,-3.5,-12.8,11.1,11.2,-11.9,-19,0.384228034,0.17957091,0.374706259,-0.824427015
985,2465734,1418390,-0.555,-0.501,0.649,-3.7,-12.8,11.1,11.2,-11.9,-19,0.384533219,0.179387799,0.374614704,-0.824365978
986,2468817,1418390,-0.552,-0.501,0.649,-4,-12.7,11,11.2,-11.9,-19,0.384868923,0.179235206,0.374523148,-0.824274422
987,2471753,1418400,-0.555,-0.501,0.661,-4.3,-12.7,10.8,11.2,-11.9,-19,0.385174108,0.179052095,0.374462111,-0.824213385
988,2472799,1418400,-0.555,-0.501,0.661,-4.3,-12.7,10.8,11.2,-11.9,-19,0.385174108,0.179052095,0.374462111,-0.824213385
989,2475270,1418400,-0.555,-0.501,0.657,-4.9,-12.7,10.4,11,-11.8,-18.8,0.385601367,0.178228095,0.374462111,-0.824152348
990,2478583,1418400,-0.555,-0.494,0.657,-5.3,-12.6,10.3,11,-11.8,-18.8,0.385937071,0.178044984,0.374431593,-0.824091311
991,2480882,1418410,-0.552,-0.498,0.641,-5.8,-12.5,10.2,11,-11.8,-18.8,0.386242256,0.177861873,0.374370556,-0.823999756
992,2482945,1418410,-0.559,-0.497,0.649,-6.1,-12.3,10.1,9.9,-11.7,-19.2,0.386547441,0.177648244,0.374340037,-0.8239082
993,2485270,1418410,-0.559,-0.493,0.645,-6.5,-12.2,9.9,9.9,-11.7,-19.2,0.386852626,0.177465133,0.374340037,-0.823816645
994,2487810,1418410,-0.559,-0.49,0.649,-6.9,-12.1,9.7,9.9,-11.7,-19.2,0.387157811,0.177251503,0.374309519,-0.823725089
995,2491317,1418420,-0.559,-0.49,0.645,-7.3,-12,9.5,9.9,-11.7,-19.2,0.387432478,0.177068392,0.374309519,-0.823633534
996,2493421,1418420,-0.559,-0.486,0.645,-7.6,-11.9,9.3,9,-11.7,-19.3,0.387737663,0.176854762,0.374309519,-0.823541978
997,2495256,1418420,-0.559,-0.486,0.649,-8.1,-11.8,9,9,-11.7,-19.3,0.388042848,0.176641133,0.374309519,-0.823450423
998,2498459,1418420,-0.555,-0.49,0.649,-8.5,-11.7,8.7,9,-11.7,-19.3,0.388317515,0.176427503,0.374340037,-0.823358867
999,2500552,1418430,-0.555,-0.49,0.645,-8.9,-11.5,8.5,9,-11.7,-19.3,0.388592181,0.176213874,0.374370556,-0.823236793
1000,2502935,1418430,-0.555,-0.482,0.653,-9.1,-11.4,8.4,11.7,-12.5,-19.4,0.388866848,0.176000244,0.374401074,-0.823145238
1001,2505514,1418430,-0.555,-0.49,0.653,-9.3,-11.3,8.2,11.7,-12.5,-19.4,0.389141514,0.175786615,0.374431593,-0.823023164
1002,2507711,1418430,-0.555,-0.49,0.653,-9.4,-11.2,7.9,11.7,-12.5,-19.4,0.389416181,0.175572985,0.37449263,-0.822931608
1003,2511183,1418440,-0.555,-0.486,0.661,-9.5,-11,7.7,11.7,-12.5,-19.4,0.389690847,0.175359355,0.374523148,-0.822840052
1004,2513486,1418440,-0.559,-0.493,0.657,-9.5,-10.7,7.6,8.3,-11.3,-19.3,0.389965514,0.175145726,0.374584185,-0.822717978
1005,2515271,1418440,-0.555,-0.49,0.657,-9.6,-10.6,7.4,8.3,-11.3,-19.3,0.390209662,0.174932096,0.374645222,-0.822626423
1006,2517880,1418440,-0.555,-0.494,0.661,-9.7,-10.4,7.2,8.3,-11.3,-19.3,0.39045381,0.174718467,0.374706259,-0.822534867
1007,2520271,1418450,-0.555,-0.49,0.668,-9.7,-10.3,6.9,8.3,-11.3,-19.3,0.390697958,0.174504837,0.374767296,-0.822443312
1008,2523709,1418450,-0.555,-0.49,0.668,-9.7,-10.3,6.9,8.3,-11.3,-19.3,0.390697958,0.174504837,0.374767296,-0.822443312
1009,2526022,1418450,-0.555,-0.494,0.665,-10,-9.7,6.3,8.1,-11.4,-19.6,0.39106418,0.173680837,0.37488937,-0.822382275
1010,2528079,1418450,-0.555,-0.494,0.668,-10,-9.6,5.8,8.1,-11.4,-19.6,0.39127781,0.173467208,0.374980926,-0.822290719
1011,2530331,1418460,-0.559,-0.497,0.669,-9.9,-9.5,5.6,8.1,-11.4,-19.6,0.39149144,0.173253578,0.375041963,-0.822199164
1012,2533219,1418460,-0.559,-0.497,0.669,-9.8,-9.3,5.4,8.2,-11.4,-19.4,0.391705069,0.173070467,0.375133518,-0.822107608
1013,2535138,1418460,-0.559,-0.501,0.669,-9.7,-9,5.2,8.2,-11.4,-19.4,0.391918699,0.172856838,0.375194555,-0.822016053
1014,2538601,1418460,-0.559,-0.501,0.672,-9.5,-8.7,5.1,8.2,-11.4,-19.4,0.392132328,0.172673727,0.375286111,-0.821924497
