sample_index,elapsed_us,device_time_ms,acc_x_g,acc_y_g,acc_z_g,gyro_x_dps,gyro_y_dps,gyro_z_dps,mag_x_ut,mag_y_ut,mag_z_ut,quat_w,quat_x,quat_y,quat_z
0,4908,1106430,0.981,-0.104,0.162,-4.5,-1.4,0.2,-5,21.7,-22,0.25901059,-0.628406629,-0.162755211,-0.715170751
1,8040,1106440,0.977,-0.104,0.166,-4.5,-1.4,0.2,-5,21.7,-22,0.258949553,-0.628467666,-0.162694174,-0.715170751
2,10677,1106440,0.981,-0.104,0.162,-4.4,-1.4,0.3,-5,21.7,-22,0.258888516,-0.628498184,-0.162633137,-0.715170751
3,11894,1106440,0.977,-0.104,0.162,-4.3,-1.4,0.5,-4.8,21.3,-21.8,0.258827479,-0.628559221,-0.1625721,-0.715140233
4,14744,1106440,0.977,-0.104,0.162,-4.3,-1.4,0.5,-4.8,21.3,-21.8,0.258827479,-0.628559221,-0.1625721,-0.715140233
5,18778,1106450,0.988,-0.104,0.158,-4,-1.4,0.5,-4.8,21.3,-21.8,0.258705405,-0.628650777,-0.162419507,-0.715140233
6,20033,1106450,0.985,-0.104,0.158,-3.8,-1.4,0.5,-4.8,21.3,-21.8,0.258674886,-0.628711814,-0.162327952,-0.715109714
7,23260,1106450,0.988,-0.105,0.154,-3.6,-1.4,0.6,-4.9,23.8,-20.1,0.258613849,-0.628742332,-0.162327952,-0.715109714
8,24721,1106450,0.985,-0.104,0.154,-3.4,-1.3,0.7,-4.9,23.8,-20.1,0.258583331,-0.628803369,-0.162266915,-0.715109714
9,27893,1106460,0.988,-0.101,0.154,-3,-1.3,0.8,-4.9,23.8,-20.1,0.258552812,-0.628833888,-0.162205878,-0.715079196
10,31137,1106460,0.988,-0.097,0.154,-2.9,-1.3,0.8,-4.9,23.8,-20.1,0.258522294,-0.628864406,-0.162144841,-0.715079196
11,33499,1106460,0.988,-0.097,0.154,-2.9,-1.3,0.8,-4.9,23.8,-20.1,0.258522294,-0.628864406,-0.162144841,-0.715079196
12,34915,1106460,0.988,-0.093,0.154,-2.4,-1.2,1,-4.6,22.9,-21,0.258522294,-0.629016999,-0.161992248,-0.71498764
13,38039,1106470,0.996,-0.093,0.161,-2.3,-1.2,1,-4.6,22.9,-21,0.258491775,-0.629047517,-0.16196173,-0.71498764
14,41070,1106470,0.989,-0.089,0.158,-2.3,-1.2,0.9,-4.6,22.9,-21,0.258461257,-0.629078036,-0.161931211,-0.714957121
15,42461,1106470,0.996,-0.089,0.161,-2.3,-1.1,0.9,-4.4,23.1,-20.8,0.258461257,-0.629108554,-0.161870174,-0.714957121
16,45655,1106470,0.992,-0.089,0.158,-2.4,-1,0.9,-4.4,23.1,-20.8,0.258430738,-0.629139073,-0.161839656,-0.714926603
17,47094,1106480,0.992,-0.089,0.161,-2.4,-1,0.9,-4.4,23.1,-20.8,0.25840022,-0.629169591,-0.161778619,-0.714926603
18,50042,1106480,0.996,-0.085,0.157,-2.5,-1,0.9,-4.4,23.1,-20.8,0.258369701,-0.629230628,-0.1617481,-0.714926603
19,52366,1106480,0.996,-0.089,0.165,-2.5,-1.2,0.9,-4.6,23.4,-20.9,0.258369701,-0.629261147,-0.161687063,-0.714896084
20,54610,1106480,0.996,-0.085,0.161,-2.7,-1.2,0.9,-4.6,23.4,-20.9,0.258339183,-0.629291665,-0.161656545,-0.714896084
21,57899,1106490,0.989,-0.093,0.162,-2.9,-1.1,0.9,-4.6,23.4,-20.9,0.258278146,-0.629322184,-0.161595508,-0.714896084
22,59920,1106490,0.992,-0.089,0.161,-3.1,-0.9,0.9,-4.6,23.4,-20.9,0.258278146,-0.629352702,-0.161534471,-0.714865566
23,63022,1106490,0.992,-0.089,0.165,-3.2,-0.9,1,-4.6,23.7,-21,0.258247627,-0.629413739,-0.161473434,-0.714865566
24,64907,1106490,0.992,-0.089,0.165,-3.2,-0.9,1,-4.6,23.7,-21,0.258247627,-0.629413739,-0.161473434,-0.714865566
25,68915,1106500,0.993,-0.081,0.169,-3.5,-1.1,1.1,-4.6,23.7,-21,0.258156072,-0.629474776,-0.16135136,-0.714835047
26,70271,1106500,0.985,-0.081,0.169,-3.5,-1.2,1.2,-4.6,23.7,-21,0.258125553,-0.629535813,-0.161290323,-0.714835047
27,71904,1106500,0.985,-0.085,0.169,-3.5,-1.2,1.1,-4.8,23.4,-20.7,0.258095035,-0.629566332,-0.161229286,-0.714835047
28,74549,1106500,0.981,-0.081,0.17,-3.6,-1.3,1,-4.8,23.4,-20.7,0.258064516,-0.629627369,-0.161168249,-0.714804529
29,77865,1106510,0.977,-0.081,0.177,-3.7,-1.5,0.9,-4.8,23.4,-20.7,0.258003479,-0.629657888,-0.161107212,-0.714804529
30,80731,1106510,0.977,-0.085,0.17,-3.7,-1.4,0.9,-4.8,23.4,-20.7,0.257972961,-0.629718925,-0.161046175,-0.714804529
31,82429,1106510,0.977,-0.085,0.17,-3.7,-1.4,0.9,-4.8,23.4,-20.7,0.257972961,-0.629718925,-0.161046175,-0.714804529
32,84568,1106510,0.977,-0.085,0.166,-3.7,-1,0.9,-4.9,23.8,-20.6,0.257850887,-0.629627369,-0.160985137,-0.714926603
33,87803,1106520,0.981,-0.085,0.17,-3.7,-0.9,1,-4.9,23.8,-20.6,0.25778985,-0.629657888,-0.1609241,-0.714926603
34,90028,1106520,0.977,-0.085,0.166,-3.7,-0.9,0.9,-4.9,23.8,-20.6,0.257759331,-0.629688406,-0.160863063,-0.714926603
35,92210,1106520,0.981,-0.089,0.173,-3.7,-0.8,0.7,-4.6,23.4,-20.9,0.257728813,-0.629749443,-0.160771508,-0.714926603
36,94598,1106520,0.977,-0.089,0.166,-3.7,-0.7,0.5,-4.6,23.4,-20.9,0.257667776,-0.629779962,-0.160710471,-0.714926603
37,97994,1106530,0.977,-0.093,0.162,-3.6,-0.7,0.2,-4.6,23.4,-20.9,0.257637257,-0.62981048,-0.160679952,-0.714926603
38,99544,1106530,0.977,-0.089,0.17,-3.5,-0.7,0,-4.6,23.4,-20.9,0.25757622,-0.629840999,-0.160618915,-0.714926603
39,103445,1106530,0.981,-0.096,0.166,-3.4,-0.7,-0.2,-5,23.4,-20.7,0.257515183,-0.629871517,-0.160557878,-0.714926603
40,105510,1106530,0.977,-0.096,0.17,-3.3,-0.6,-0.3,-5,23.4,-20.7,0.257454146,-0.629871517,-0.16052736,-0.714926603
41,106999,1106540,0.981,-0.1,0.17,-3.3,-0.5,-0.2,-5,23.4,-20.7,0.257423627,-0.629932554,-0.160466323,-0.714926603
42,109982,1106540,0.985,-0.1,0.162,-3.3,-0.4,-0.3,-5,23.4,-20.7,0.25736259,-0.629963073,-0.160435804,-0.714926603
43,112283,1106540,0.981,-0.1,0.162,-3.3,-0.3,-0.4,-4.9,23.4,-20.8,0.257301553,-0.629963073,-0.160374767,-0.714957121
44,115315,1106540,0.981,-0.1,0.166,-3.4,-0.3,-0.4,-4.9,23.4,-20.8,0.257240516,-0.629993591,-0.160344249,-0.714957121
45,116890,1106550,0.985,-0.104,0.166,-3.5,-0.3,-0.4,-4.9,23.4,-20.8,0.257179479,-0.63002411,-0.160283212,-0.714957121
46,120054,1106550,0.981,-0.104,0.162,-3.5,-0.3,-0.3,-4.9,23.4,-20.8,0.257148961,-0.630054628,-0.160252693,-0.71498764
47,123255,1106550,0.985,-0.1,0.162,-3.4,-0.4,-0.3,-5.3,22.6,-20.5,0.257087924,-0.630054628,-0.160191656,-0.71498764
48,124555,1106550,0.985,-0.101,0.158,-3.3,-0.6,-0.2,-5.3,22.6,-20.5,0.257026887,-0.630085147,-0.160161138,-0.71498764
49,127790,1106560,0.988,-0.104,0.158,-3.2,-0.7,-0.2,-5.3,22.6,-20.5,0.25696585,-0.630115665,-0.160100101,-0.71498764
50,130876,1106560,0.988,-0.101,0.162,-3,-0.9,-0.3,-5.3,22.6,-20.5,0.256935331,-0.630146184,-0.160069582,-0.71498764
51,132236,1106560,0.988,-0.101,0.162,-3,-0.9,-0.3,-5.3,22.6,-20.5,0.256935331,-0.630146184,-0.160069582,-0.71498764
52,135364,1106560,0.988,-0.101,0.162,-2.9,-0.9,-0.3,-4.7,23.4,-20.8,0.256874294,-0.630176702,-0.159947508,-0.715018159
53,138307,1106570,0.985,-0.104,0.158,-2.9,-0.9,-0.1,-4.7,23.4,-20.8,0.256843776,-0.630207221,-0.15991699,-0.715018159
54,139659,1106570,0.985,-0.1,0.162,-2.9,-1,-0.1,-4.7,23.4,-20.8,0.256782739,-0.630268258,-0.159855953,-0.715018159
55,142621,1106570,0.988,-0.101,0.162,-2.9,-1,-0.1,-5.7,23.3,-20.5,0.25675222,-0.630298776,-0.159825434,-0.71498764
56,144581,1106570,0.981,-0.097,0.162,-2.9,-1.1,-0.1,-5.7,23.3,-20.5,0.256691183,-0.630329295,-0.159794916,-0.71498764
57,148643,1106580,0.981,-0.097,0.162,-3.1,-1.2,-0.1,-5.7,23.3,-20.5,0.256660665,-0.630359813,-0.159733879,-0.71498764
58,149973,1106580,0.985,-0.097,0.166,-3.3,-1.4,-0.1,-5.7,23.3,-20.5,0.256599628,-0.630390332,-0.15970336,-0.71498764
59,153016,1106580,0.985,-0.097,0.162,-3.5,-1.5,-0.2,-5.8,23.3,-20.8,0.256538591,-0.630451369,-0.159672842,-0.71498764
60,154885,1106580,0.981,-0.097,0.162,-3.7,-1.7,-0.2,-5.8,23.3,-20.8,0.256477554,-0.630481887,-0.159611805,-0.714957121
61,158053,1106590,0.985,-0.093,0.162,-3.9,-1.8,-0.3,-5.8,23.3,-20.8,0.256416517,-0.630542924,-0.159581286,-0.714957121
62,161127,1106590,0.981,-0.093,0.162,-4,-1.8,-0.4,-5.8,23.3,-20.8,0.256324961,-0.630573443,-0.159520249,-0.714957121
63,163252,1106590,0.981,-0.093,0.158,-4,-1.7,-0.5,-6.3,23.2,-20.7,0.256263924,-0.63063448,-0.159489731,-0.714926603
64,165557,1106590,0.981,-0.093,0.158,-4,-1.7,-0.5,-6.3,23.2,-20.7,0.256263924,-0.63063448,-0.159489731,-0.714926603
65,167985,1106600,0.973,-0.096,0.162,-3.9,-1.4,-0.7,-6.3,23.2,-20.7,0.25614185,-0.630726035,-0.159398175,-0.714926603
66,169908,1106600,0.977,-0.093,0.162,-3.7,-1.4,-0.9,-6.3,23.2,-20.7,0.256050295,-0.630756554,-0.159337138,-0.714926603
67,172461,1106600,0.981,-0.097,0.158,-3.5,-1.4,-1.1,-4.4,22.3,-20.6,0.255989257,-0.630787072,-0.159306619,-0.714926603
68,174537,1106600,0.981,-0.104,0.162,-3.4,-1.5,-1.4,-4.4,22.3,-20.6,0.255897702,-0.630848109,-0.159306619,-0.714926603
69,177002,1106610,0.977,-0.104,0.166,-3.3,-1.4,-1.6,-4.4,22.3,-20.6,0.255836665,-0.630878628,-0.159276101,-0.714926603
70,181395,1106610,0.977,-0.1,0.158,-3.3,-1.4,-1.7,-4.4,22.3,-20.6,0.255745109,-0.630909146,-0.159245582,-0.714926603
71,183339,1106610,0.977,-0.1,0.158,-3.3,-1.4,-1.7,-4.4,22.3,-20.6,0.255745109,-0.630909146,-0.159245582,-0.714926603
72,185662,1106610,0.977,-0.104,0.158,-3,-1.2,-1.9,-6.4,23.4,-20.3,0.255653554,-0.630909146,-0.159154027,-0.71498764
73,187310,1106620,0.969,-0.104,0.162,-2.8,-1.2,-2.1,-6.4,23.4,-20.3,0.255592517,-0.630939665,-0.159154027,-0.71498764
74,189805,1106620,0.973,-0.104,0.158,-2.7,-1.2,-2.4,-6.4,23.4,-20.3,0.255500961,-0.630970183,-0.159154027,-0.71498764
75,192291,1106620,0.973,-0.108,0.158,-2.6,-1.1,-2.5,-6.4,23.5,-20.8,0.255439924,-0.631000702,-0.159154027,-0.71498764
76,196516,1106620,0.973,-0.108,0.158,-2.5,-1.2,-2.7,-6.4,23.5,-20.8,0.255348369,-0.631000702,-0.159154027,-0.715018159
77,198835,1106630,0.973,-0.112,0.162,-2.4,-1.3,-2.9,-6.4,23.5,-20.8,0.255256813,-0.63103122,-0.159154027,-0.715018159
78,201644,1106630,0.973,-0.112,0.158,-2.4,-1.4,-2.9,-6.4,23.5,-20.8,0.255165258,-0.631061739,-0.159154027,-0.715018159
79,203725,1106630,0.973,-0.12,0.162,-2.2,-1.4,-3.1,-6.4,23.8,-20.9,0.255104221,-0.631092257,-0.159184545,-0.715018159
80,206001,1106630,0.973,-0.116,0.162,-2.2,-1.4,-3.1,-6.4,23.8,-20.9,0.255012665,-0.631122776,-0.159184545,-0.715018159
81,208632,1106640,0.977,-0.116,0.158,-2,-1.4,-3.1,-6.4,23.8,-20.9,0.25492111,-0.631122776,-0.159215064,-0.715048677
82,210628,1106640,0.973,-0.116,0.162,-1.9,-1.5,-3.1,-6.4,23.8,-20.9,0.254829554,-0.631153294,-0.159245582,-0.715048677
83,212653,1106640,0.977,-0.116,0.154,-1.8,-1.5,-3.2,-6,23.5,-20.3,0.254768517,-0.631183813,-0.159276101,-0.715048677
84,215097,1106640,0.977,-0.116,0.154,-1.8,-1.5,-3.2,-6,23.5,-20.3,0.254768517,-0.631183813,-0.159276101,-0.715048677
85,217021,1106650,0.973,-0.112,0.158,-1.4,-1.7,-3.1,-6,23.5,-20.3,0.254615925,-0.63124485,-0.159306619,-0.715048677
86,221132,1106650,0.977,-0.112,0.162,-1.3,-1.7,-3,-6,23.5,-20.3,0.254524369,-0.63124485,-0.159337138,-0.715048677
87,223076,1106650,0.981,-0.116,0.162,-1.3,-1.7,-3,-4.2,23.2,-20.5,0.254463332,-0.631275369,-0.159367656,-0.715048677
88,224678,1106650,0.981,-0.112,0.162,-1.2,-1.7,-2.9,-4.2,23.2,-20.5,0.254371776,-0.631305887,-0.159398175,-0.715048677
89,228146,1106660,0.985,-0.116,0.158,-1.1,-1.8,-2.8,-4.2,23.2,-20.5,0.254310739,-0.631336406,-0.159459212,-0.715018159
90,230173,1106660,0.985,-0.108,0.162,-1,-1.9,-2.7,-4.2,23.2,-20.5,0.254249702,-0.631366924,-0.159489731,-0.715018159
91,232574,1106660,0.985,-0.108,0.162,-1,-1.9,-2.7,-4.2,23.2,-20.5,0.254249702,-0.631366924,-0.159489731,-0.715018159
92,234993,1106660,0.985,-0.108,0.162,-0.5,-2,-2.5,-5.1,23.1,-20.6,0.254310739,-0.631366924,-0.159337138,-0.715018159
93,237233,1106670,0.988,-0.105,0.154,-0.2,-2,-2.4,-5.1,23.1,-20.6,0.254280221,-0.631397443,-0.159398175,-0.71498764
94,239644,1106670,0.992,-0.105,0.162,0,-2.2,-2.1,-5.1,23.1,-20.6,0.254219184,-0.631427961,-0.159398175,-0.71498764
95,241968,1106670,0.985,-0.101,0.158,0.1,-2.3,-2,-4.6,22.9,-20,0.254188665,-0.63145848,-0.159459212,-0.714957121
96,245051,1106670,0.988,-0.104,0.162,0.3,-2.3,-1.8,-4.6,22.9,-20,0.254158147,-0.631488998,-0.159520249,-0.714926603
97,247017,1106680,0.992,-0.093,0.158,0.4,-2.1,-1.6,-4.6,22.9,-20,0.254127628,-0.631519517,-0.159550768,-0.714896084
98,251194,1106680,0.992,-0.101,0.162,0.5,-2.1,-1.5,-4.6,22.9,-20,0.254127628,-0.631550035,-0.159611805,-0.714896084
99,253029,1106680,0.996,-0.097,0.165,0.6,-2,-1.3,-4.3,23.2,-20.5,0.25409711,-0.631550035,-0.159642323,-0.714865566
100,254657,1106680,0.996,-0.097,0.161,0.7,-1.9,-1.1,-4.3,23.2,-20.5,0.25409711,-0.631580554,-0.159672842,-0.714835047
101,256971,1106690,0.996,-0.093,0.158,0.8,-1.9,-0.9,-4.3,23.2,-20.5,0.254066591,-0.631611072,-0.15970336,-0.714804529
102,260483,1106690,0.996,-0.085,0.157,0.8,-1.8,-0.9,-4.3,23.2,-20.5,0.254066591,-0.631641591,-0.159764397,-0.714804529
103,261945,1106690,0.996,-0.089,0.158,0.8,-1.6,-0.9,-4.2,23.2,-20.2,0.254066591,-0.631641591,-0.159794916,-0.71477401
104,266081,1106690,0.996,-0.089,0.158,0.8,-1.6,-0.9,-4.2,23.2,-20.2,0.254066591,-0.631641591,-0.159794916,-0.71477401
105,268823,1106700,0.992,-0.085,0.158,1,-1.2,-0.6,-4.2,23.2,-20.2,0.254036073,-0.631672109,-0.159855953,-0.714743492
106,270978,1106700,0.992,-0.081,0.158,1.2,-1.2,-0.5,-4.2,23.2,-20.2,0.254066591,-0.631672109,-0.159886471,-0.714712973
107,272414,1106700,0.996,-0.081,0.157,1.3,-1,-0.3,-5.1,23,-20.4,0.254066591,-0.631702628,-0.15991699,-0.714682455
108,275953,1106700,0.992,-0.081,0.158,1.5,-1,-0.2,-5.1,23,-20.4,0.254066591,-0.631702628,-0.159947508,-0.714682455
109,277305,1106710,0.996,-0.081,0.165,1.5,-1,0.1,-5.1,23,-20.4,0.25409711,-0.631702628,-0.159978027,-0.714651936
110,280586,1106710,0.989,-0.077,0.162,1.5,-0.9,0.2,-5.1,23,-20.4,0.254127628,-0.631702628,-0.160008545,-0.714651936
111,281975,1106710,0.989,-0.077,0.162,1.5,-0.9,0.2,-5.1,23,-20.4,0.254127628,-0.631702628,-0.160008545,-0.714651936
112,284871,1106710,0.981,-0.073,0.162,1.3,-0.8,0.2,-4.9,22.5,-20.1,0.254066591,-0.631611072,-0.160161138,-0.714712973
113,288121,1106720,0.981,-0.077,0.166,1.2,-0.8,0.3,-4.9,22.5,-20.1,0.25409711,-0.631611072,-0.160191656,-0.714682455
114,290476,1106720,0.985,-0.073,0.162,1.1,-0.7,0.6,-4.9,22.5,-20.1,0.25409711,-0.631641591,-0.160191656,-0.714682455
115,292318,1106720,0.981,-0.077,0.158,0.8,-0.5,0.9,-4.6,23.2,-20.2,0.254127628,-0.631641591,-0.160222175,-0.714651936
116,295526,1106720,0.985,-0.077,0.162,0.6,-0.4,1,-4.6,23.2,-20.2,0.254158147,-0.631641591,-0.160222175,-0.714651936
117,297143,1106730,0.981,-0.077,0.162,0.4,-0.3,1.1,-4.6,23.2,-20.2,0.254188665,-0.631641591,-0.160191656,-0.714621418
118,300299,1106730,0.973,-0.077,0.158,0.4,-0.1,1.1,-4.6,23.2,-20.2,0.254188665,-0.631641591,-0.160191656,-0.714621418
119,303480,1106730,0.977,-0.081,0.15,0.3,0,1,-4.6,23.1,-20.3,0.254219184,-0.631672109,-0.160191656,-0.714621418
120,304843,1106730,0.973,-0.089,0.158,0.2,0.3,1,-4.6,23.1,-20.3,0.254249702,-0.631641591,-0.160161138,-0.714621418
121,306916,1106740,0.973,-0.089,0.154,0.2,0.5,0.9,-4.6,23.1,-20.3,0.254280221,-0.631641591,-0.160161138,-0.714621418
122,310069,1106740,0.973,-0.089,0.154,0.3,0.8,1,-4.6,23.1,-20.3,0.254280221,-0.631641591,-0.160161138,-0.714621418
123,313440,1106740,0.969,-0.092,0.154,0.4,0.9,1,-4.8,23,-20.6,0.254310739,-0.631611072,-0.160130619,-0.714621418
124,315837,1106740,0.969,-0.092,0.154,0.4,0.9,1,-4.8,23,-20.6,0.254310739,-0.631611072,-0.160130619,-0.714621418
125,317613,1106750,0.973,-0.096,0.15,0.6,1.1,0.8,-4.8,23,-20.6,0.254371776,-0.631580554,-0.160100101,-0.714621418
126,319989,1106750,0.973,-0.1,0.154,0.6,1,0.7,-4.8,23,-20.6,0.254371776,-0.631580554,-0.160100101,-0.714651936
127,322143,1106750,0.977,-0.1,0.15,0.6,0.9,0.7,-5.8,23.2,-20.2,0.254371776,-0.631550035,-0.160100101,-0.714651936
128,325986,1106750,0.973,-0.104,0.154,0.5,0.7,0.6,-5.8,23.2,-20.2,0.254432814,-0.631550035,-0.160100101,-0.714651936
129,328123,1106760,0.973,-0.1,0.154,0.3,0.5,0.6,-5.8,23.2,-20.2,0.254463332,-0.631519517,-0.160100101,-0.714651936
130,330111,1106760,0.973,-0.104,0.158,0.1,0.2,0.6,-5.8,23.2,-20.2,0.254463332,-0.631519517,-0.160069582,-0.714651936
131,332314,1106760,0.973,-0.104,0.158,0.1,0.2,0.6,-5.8,23.2,-20.2,0.254463332,-0.631519517,-0.160069582,-0.714651936
132,334542,1106760,0.977,-0.108,0.162,0,0,0.6,-4,23,-21.1,0.254554888,-0.631519517,-0.160008545,-0.714651936
133,337559,1106770,0.985,-0.104,0.158,-0.1,-0.1,0.6,-4,23,-21.1,0.254554888,-0.631519517,-0.159978027,-0.714651936
134,339491,1106770,0.981,-0.108,0.166,-0.3,-0.2,0.7,-4,23,-21.1,0.254554888,-0.631550035,-0.159978027,-0.714651936
135,342568,1106770,0.981,-0.104,0.166,-0.6,-0.4,0.8,-4.1,22.8,-20.4,0.254554888,-0.631550035,-0.159947508,-0.714621418
136,344913,1106770,0.985,-0.1,0.166,-0.7,-0.7,0.9,-4.1,22.8,-20.4,0.254554888,-0.631580554,-0.159947508,-0.714621418
137,348206,1106780,0.985,-0.104,0.162,-0.9,-0.9,1,-4.1,22.8,-20.4,0.254554888,-0.631611072,-0.15991699,-0.714590899
138,350626,1106780,0.992,-0.101,0.162,-1,-1,1.1,-4.1,22.8,-20.4,0.254554888,-0.631611072,-0.159886471,-0.714590899
139,352587,1106780,0.992,-0.101,0.165,-1,-1,1.2,-4.1,22.9,-20.6,0.254554888,-0.631641591,-0.159855953,-0.714560381
140,354625,1106780,0.985,-0.101,0.158,-0.9,-1.1,1.2,-4.1,22.9,-20.6,0.254554888,-0.631672109,-0.159825434,-0.714560381
141,358786,1106790,0.996,-0.097,0.161,-0.9,-1.2,1.2,-4.1,22.9,-20.6,0.254554888,-0.631702628,-0.159794916,-0.714529862
142,360949,1106790,0.992,-0.093,0.158,-0.8,-1.3,1.2,-4.1,22.9,-20.6,0.254554888,-0.631733146,-0.159794916,-0.714499344
143,362997,1106790,0.988,-0.097,0.158,-0.7,-1.6,1.3,-4.2,22.5,-20.5,0.254585406,-0.631763665,-0.159764397,-0.714468825
144,364615,1106790,0.988,-0.097,0.158,-0.7,-1.6,1.3,-4.2,22.5,-20.5,0.254585406,-0.631763665,-0.159764397,-0.714468825
145,367421,1106800,0.992,-0.093,0.158,-0.4,-1.9,1.4,-4.2,22.5,-20.5,0.254585406,-0.63185522,-0.159733879,-0.714407788
146,369633,1106800,0.992,-0.089,0.158,-0.3,-1.9,1.3,-4.2,22.5,-20.5,0.254615925,-0.631885739,-0.15970336,-0.71437727
147,373082,1106800,0.992,-0.089,0.161,-0.3,-1.9,1.2,-5.9,23,-20.5,0.254615925,-0.631916257,-0.15970336,-0.714346751
148,374595,1106800,0.989,-0.085,0.158,-0.3,-1.9,1.3,-5.9,23,-20.5,0.254615925,-0.631946776,-0.159672842,-0.714316233
149,377377,1106810,0.992,-0.085,0.158,-0.2,-1.9,1.2,-5.9,23,-20.5,0.254615925,-0.632007813,-0.159672842,-0.714285714
150,379785,1106810,0.985,-0.089,0.158,-0.2,-1.7,1.2,-5.9,23,-20.5,0.254646443,-0.632038331,-0.159672842,-0.714255196
151,382054,1106810,0.985,-0.089,0.158,-0.2,-1.7,1.2,-5.9,23,-20.5,0.254646443,-0.632038331,-0.159672842,-0.714255196
152,386333,1106810,0.985,-0.081,0.162,-0.2,-1.4,1,-4.3,23,-20.4,0.254615925,-0.632007813,-0.15970336,-0.714255196
153,389199,1106820,0.985,-0.081,0.162,-0.2,-1.5,0.9,-4.3,23,-20.4,0.254615925,-0.632038331,-0.15970336,-0.714224677
154,389703,1106820,0.981,-0.081,0.158,-0.2,-1.6,0.7,-4.3,23,-20.4,0.254615925,-0.63206885,-0.159672842,-0.714194159
155,391920,1106820,0.981,-0.089,0.154,-0.2,-1.5,0.5,-4.2,22.9,-20.6,0.254615925,-0.632099368,-0.159672842,-0.714194159
156,395588,1106820,0.973,-0.081,0.158,-0.1,-1.3,0.4,-4.2,22.9,-20.6,0.254615925,-0.632129887,-0.159672842,-0.71416364
157,397366,1106830,0.977,-0.085,0.158,-0.1,-1.2,0.3,-4.2,22.9,-20.6,0.254615925,-0.632160405,-0.159672842,-0.714133122
158,401530,1106830,0.977,-0.085,0.154,-0.1,-0.9,0.3,-4.2,22.9,-20.6,0.254615925,-0.632160405,-0.159672842,-0.714133122
159,403296,1106830,0.969,-0.089,0.146,-0.1,-0.5,0.2,-4.4,22.9,-20.7,0.254615925,-0.632190924,-0.159672842,-0.714133122
160,405600,1106830,0.973,-0.089,0.158,-0.1,-0.2,0.2,-4.4,22.9,-20.7,0.254615925,-0.632190924,-0.159672842,-0.714102603
161,408235,1106840,0.973,-0.089,0.15,-0.1,-0.1,0,-4.4,22.9,-20.7,0.254615925,-0.632190924,-0.159672842,-0.714102603
162,411753,1106840,0.977,-0.089,0.162,-0.1,-0.1,0,-4.4,22.9,-20.7,0.254615925,-0.632190924,-0.159672842,-0.714102603
163,412004,1106840,0.973,-0.092,0.158,-0.1,-0.2,-0.2,-4.3,22.9,-20.8,0.254615925,-0.632190924,-0.159672842,-0.714102603
164,414971,1106840,0.973,-0.092,0.158,-0.1,-0.2,-0.2,-4.3,22.9,-20.8,0.254615925,-0.632190924,-0.159672842,-0.714102603
165,418494,1106850,0.973,-0.096,0.154,-0.1,-0.3,-0.5,-4.3,22.9,-20.8,0.254585406,-0.632190924,-0.15970336,-0.714102603
166,419954,1106850,0.973,-0.093,0.154,-0.1,-0.3,-0.5,-4.3,22.9,-20.8,0.254585406,-0.632221442,-0.15970336,-0.714102603
167,423210,1106850,0.973,-0.093,0.15,-0.2,-0.2,-0.5,-4.3,22.9,-20.8,0.254554888,-0.632221442,-0.15970336,-0.714102603
168,426138,1106850,0.973,-0.1,0.154,-0.3,-0.1,-0.5,-4.3,22.9,-20.8,0.254554888,-0.632221442,-0.15970336,-0.714102603
169,427704,1106860,0.973,-0.092,0.158,-0.4,-0.1,-0.5,-4.3,22.9,-20.8,0.254524369,-0.632221442,-0.15970336,-0.714102603
170,431153,1106860,0.973,-0.1,0.158,-0.6,-0.2,-0.4,-4.3,22.9,-20.8,0.254524369,-0.632221442,-0.15970336,-0.714102603
171,433094,1106860,0.973,-0.1,0.158,-0.6,-0.2,-0.4,-4.3,22.9,-20.8,0.254524369,-0.632221442,-0.15970336,-0.714102603
172,435524,1106860,0.977,-0.093,0.158,-1,-0.2,-0.2,-5.1,22.8,-20.3,0.254493851,-0.632190924,-0.159642323,-0.714133122
173,437170,1106870,0.977,-0.093,0.154,-1.2,-0.2,-0.1,-5.1,22.8,-20.3,0.254493851,-0.632221442,-0.159642323,-0.714133122
174,442028,1106870,0.977,-0.093,0.162,-1.3,-0.2,0,-5.1,22.8,-20.3,0.254463332,-0.632221442,-0.159611805,-0.714133122
175,442028,1106870,0.977,-0.093,0.162,-1.4,-0.3,0,-5.4,23,-20.1,0.254432814,-0.632251961,-0.159611805,-0.714133122
176,445614,1106870,0.977,-0.096,0.166,-1.5,-0.4,0,-5.4,23,-20.1,0.254432814,-0.632251961,-0.159581286,-0.714133122
177,447538,1106880,0.977,-0.089,0.162,-1.5,-0.4,0.1,-5.4,23,-20.1,0.254371776,-0.632282479,-0.159550768,-0.714133122
178,451020,1106880,0.981,-0.093,0.154,-1.5,-0.4,0.2,-5.4,23,-20.1,0.254371776,-0.632282479,-0.159520249,-0.714133122
179,452569,1106880,0.985,-0.089,0.158,-1.4,-0.6,0.3,-5.1,23,-20.6,0.254371776,-0.632312998,-0.159520249,-0.714133122
180,454554,1106880,0.977,-0.093,0.162,-1.3,-0.6,0.3,-5.1,23,-20.6,0.254341258,-0.632312998,-0.159489731,-0.714133122
181,458154,1106890,0.985,-0.089,0.158,-1.3,-0.6,0.4,-5.1,23,-20.6,0.254341258,-0.632343516,-0.159459212,-0.714133122
182,460187,1106890,0.981,-0.089,0.162,-1.3,-0.6,0.4,-5.1,23,-20.6,0.254310739,-0.632374035,-0.159398175,-0.714102603
183,462403,1106890,0.985,-0.089,0.162,-1.3,-0.5,0.4,-4.8,23.1,-20.5,0.254310739,-0.632374035,-0.159398175,-0.714102603
184,464542,1106890,0.985,-0.089,0.162,-1.3,-0.5,0.4,-4.8,23.1,-20.5,0.254310739,-0.632374035,-0.159398175,-0.714102603
185,468119,1106900,0.985,-0.089,0.158,-1.2,-0.5,0.5,-4.8,23.1,-20.5,0.254280221,-0.632404553,-0.159367656,-0.714102603
186,469456,1106900,0.989,-0.089,0.162,-1,-0.4,0.6,-4.8,23.1,-20.5,0.254280221,-0.632435072,-0.159337138,-0.714102603
187,473180,1106900,0.985,-0.089,0.158,-1,-0.4,0.6,-4.8,23.1,-20.5,0.254280221,-0.632435072,-0.159306619,-0.714072085
188,474811,1106900,0.981,-0.089,0.166,-0.9,-0.4,0.7,-4.8,23.1,-20.5,0.254280221,-0.63246559,-0.159306619,-0.714072085
189,478478,1106910,0.985,-0.089,0.158,-0.7,-0.4,0.8,-4.8,23.1,-20.5,0.254280221,-0.63246559,-0.159276101,-0.714072085
190,480843,1106910,0.985,-0.081,0.158,-0.7,-0.4,0.7,-4.8,23.1,-20.5,0.254280221,-0.632496109,-0.159245582,-0.714072085
191,483445,1106910,0.985,-0.081,0.158,-0.7,-0.4,0.7,-4.8,23.1,-20.5,0.254280221,-0.632496109,-0.159245582,-0.714072085
192,485144,1106910,0.985,-0.089,0.162,-0.6,-0.4,0.8,-5.2,23.1,-20,0.254249702,-0.632404553,-0.159276101,-0.714133122
193,487111,1106920,0.981,-0.085,0.154,-0.6,-0.3,0.8,-5.2,23.1,-20,0.254249702,-0.632435072,-0.159245582,-0.714133122
194,490116,1106920,0.981,-0.081,0.162,-0.7,-0.3,0.8,-5.2,23.1,-20,0.254249702,-0.632435072,-0.159215064,-0.714133122
195,492609,1106920,0.977,-0.077,0.158,-0.7,-0.3,0.9,-5.1,23.1,-19.3,0.254249702,-0.632435072,-0.159215064,-0.714133122
196,494776,1106920,0.981,-0.081,0.154,-0.7,-0.3,1,-5.1,23.1,-19.3,0.254249702,-0.63246559,-0.159184545,-0.714102603
197,497088,1106930,0.981,-0.085,0.154,-0.8,-0.4,1.1,-5.1,23.1,-19.3,0.254249702,-0.63246559,-0.159154027,-0.714102603
198,499653,1106930,0.985,-0.085,0.154,-0.9,-0.4,1.2,-5.1,23.1,-19.3,0.254249702,-0.632496109,-0.159123508,-0.714102603
199,503958,1106930,0.977,-0.081,0.15,-0.9,-0.5,1.2,-5.2,23,-18.9,0.254249702,-0.632526627,-0.15909299,-0.714072085
200,506159,1106930,0.977,-0.081,0.154,-0.9,-0.5,1.4,-5.2,23,-18.9,0.254280221,-0.632526627,-0.159062471,-0.714072085
201,508383,1106940,0.985,-0.081,0.158,-0.9,-0.5,1.5,-5.2,23,-18.9,0.254280221,-0.632557146,-0.159031953,-0.714072085
202,510632,1106940,0.981,-0.081,0.158,-1.1,-0.5,1.5,-5.2,23,-18.9,0.254280221,-0.632557146,-0.159001434,-0.714041566
203,512903,1106940,0.981,-0.081,0.154,-1.3,-0.5,1.6,-4.9,22.7,-18.4,0.254280221,-0.632587664,-0.158970916,-0.714041566
204,514848,1106940,0.981,-0.081,0.154,-1.3,-0.5,1.6,-4.9,22.7,-18.4,0.254280221,-0.632587664,-0.158970916,-0.714041566
205,517074,1106950,0.977,-0.077,0.154,-1.6,-0.8,1.7,-4.9,22.7,-18.4,0.254310739,-0.632648701,-0.15887936,-0.714011048
206,519996,1106950,0.977,-0.081,0.15,-1.7,-1,1.7,-4.9,22.7,-18.4,0.254310739,-0.63267922,-0.158818323,-0.713980529
207,523020,1106950,0.977,-0.081,0.158,-1.8,-1.1,1.7,-4.9,22.7,-18.4,0.254280221,-0.632709738,-0.158787805,-0.713980529
208,524594,1106950,0.981,-0.077,0.146,-2,-1.1,1.7,-4.9,22.7,-18.4,0.254280221,-0.632740257,-0.158726768,-0.713950011
209,528290,1106960,0.985,-0.077,0.154,-2.1,-1,1.7,-4.9,22.7,-18.4,0.254280221,-0.632770775,-0.158665731,-0.713919492
210,530686,1106960,0.985,-0.081,0.15,-2.2,-0.8,1.8,-4.9,22.7,-18.4,0.254280221,-0.632801294,-0.158604694,-0.713919492
211,532446,1106960,0.985,-0.081,0.15,-2.2,-0.8,1.8,-4.9,22.7,-18.4,0.254280221,-0.632801294,-0.158604694,-0.713919492
212,534872,1106960,0.985,-0.073,0.15,-2.5,-0.5,1.9,-4.6,23.2,-19.8,0.25409711,-0.632801294,-0.158665731,-0.713980529
213,537157,1106970,0.985,-0.081,0.15,-2.6,-0.4,2,-4.6,23.2,-19.8,0.25409711,-0.632801294,-0.158604694,-0.713980529
214,539459,1106970,0.985,-0.077,0.15,-2.7,-0.3,2,-4.6,23.2,-19.8,0.25409711,-0.632831812,-0.158543657,-0.713980529
215,544326,1106970,0.985,-0.073,0.146,-2.7,-0.2,2.1,-4.7,22.8,-19.9,0.25409711,-0.632862331,-0.15848262,-0.713980529
216,544559,1106970,0.988,-0.081,0.142,-2.7,-0.1,2.1,-4.7,22.8,-19.9,0.25409711,-0.63289285,-0.158391064,-0.713950011
217,547666,1106980,0.988,-0.073,0.142,-2.7,-0.1,2.2,-4.7,22.8,-19.9,0.254066591,-0.632923368,-0.158330027,-0.713950011
218,549626,1106980,0.981,-0.077,0.15,-2.8,-0.2,2.1,-4.7,22.8,-19.9,0.254066591,-0.632953887,-0.15826899,-0.713950011
219,552173,1106980,0.981,-0.077,0.146,-2.9,-0.2,2,-4.6,22.7,-20.1,0.254066591,-0.632984405,-0.158177435,-0.713950011
220,555610,1106980,0.989,-0.069,0.146,-2.9,-0.3,2,-4.6,22.7,-20.1,0.254066591,-0.633014924,-0.158116398,-0.713950011
221,557108,1106990,0.988,-0.081,0.146,-2.9,-0.2,2.1,-4.6,22.7,-20.1,0.254036073,-0.633045442,-0.158024842,-0.713919492
222,560155,1106990,0.988,-0.073,0.142,-3,-0.1,2.2,-4.6,22.7,-20.1,0.254036073,-0.633045442,-0.157963805,-0.713919492
223,562483,1106990,0.992,-0.073,0.146,-3,-0.1,2.3,-5,23,-20.7,0.254036073,-0.633075961,-0.15787225,-0.713919492
224,564627,1106990,0.992,-0.073,0.146,-3,-0.1,2.3,-5,23,-20.7,0.254036073,-0.633075961,-0.15787225,-0.713919492
225,568619,1107000,0.988,-0.069,0.142,-3.3,-0.2,2.3,-5,23,-20.7,0.254005554,-0.633136998,-0.157719657,-0.713919492
226,570789,1107000,0.992,-0.077,0.138,-3.6,-0.3,2.4,-5,23,-20.7,0.254005554,-0.633167516,-0.157628101,-0.713919492
227,573119,1107000,0.988,-0.077,0.146,-3.8,-0.4,2.4,-5,23,-20.7,0.253975036,-0.633228553,-0.157536546,-0.713919492
228,575079,1107000,0.981,-0.073,0.138,-4,-0.5,2.4,-5,23,-20.7,0.253975036,-0.633259072,-0.15744499,-0.713888974
229,577317,1107010,0.985,-0.073,0.142,-4.2,-0.5,2.4,-5,23,-20.7,0.253944517,-0.63328959,-0.157353435,-0.713888974
230,580570,1107010,0.988,-0.073,0.146,-4.4,-0.4,2.4,-5,23,-20.7,0.253913999,-0.633350627,-0.157231361,-0.713888974
231,582052,1107010,0.988,-0.073,0.146,-4.4,-0.4,2.4,-5,23,-20.7,0.253913999,-0.633350627,-0.157231361,-0.713888974
232,584664,1107010,0.985,-0.069,0.138,-4.7,-0.2,2.5,-4.9,23.4,-20.1,0.253608814,-0.633411664,-0.157322916,-0.713919492
233,587609,1107020,0.988,-0.069,0.142,-4.9,-0.2,2.5,-4.9,23.4,-20.1,0.253578295,-0.633442183,-0.157231361,-0.713919492
234,589949,1107020,0.988,-0.073,0.142,-5.1,-0.3,2.4,-4.9,23.4,-20.1,0.253547777,-0.63350322,-0.157109287,-0.713919492
235,592312,1107020,0.988,-0.069,0.138,-5.2,-0.4,2.4,-4.8,23.1,-20.7,0.253517258,-0.633533738,-0.156987213,-0.713919492
236,595503,1107020,0.985,-0.073,0.134,-5.2,-0.6,2.4,-4.8,23.1,-20.7,0.253456221,-0.633594775,-0.156865139,-0.713888974
237,597634,1107030,0.992,-0.07,0.134,-5.2,-0.6,2.4,-4.8,23.1,-20.7,0.253425703,-0.633625294,-0.156773583,-0.713888974
238,599834,1107030,0.992,-0.073,0.134,-5.2,-0.6,2.4,-4.8,23.1,-20.7,0.253395184,-0.633686331,-0.156651509,-0.713888974
239,602070,1107030,0.992,-0.066,0.13,-5.2,-0.6,2.4,-4.9,23.2,-20.7,0.253364666,-0.633716849,-0.156529435,-0.713888974
240,605864,1107030,0.996,-0.066,0.134,-5.3,-0.4,2.4,-4.9,23.2,-20.7,0.253334147,-0.633777886,-0.15643788,-0.713888974
241,608170,1107040,0.996,-0.062,0.134,-5.5,-0.3,2.5,-4.9,23.2,-20.7,0.25327311,-0.633777886,-0.156315806,-0.713888974
242,610553,1107040,1,-0.062,0.138,-5.6,-0.3,2.5,-4.9,23.2,-20.7,0.253242592,-0.633869442,-0.156193731,-0.713888974
243,611994,1107040,1.004,-0.058,0.13,-5.8,-0.2,2.5,-4.7,23.6,-20.9,0.253212073,-0.63389996,-0.156071657,-0.713888974
244,615741,1107040,1.004,-0.058,0.13,-5.8,-0.2,2.5,-4.7,23.6,-20.9,0.253212073,-0.63389996,-0.156071657,-0.713888974
245,617945,1107050,1.004,-0.058,0.126,-6.3,-0.2,2.7,-4.7,23.6,-20.9,0.253120518,-0.633991516,-0.155796991,-0.713888974
246,620027,1107050,1.016,-0.046,0.126,-6.7,-0.2,2.8,-4.7,23.6,-20.9,0.253059481,-0.634052553,-0.155644398,-0.713888974
247,622226,1107050,1.016,-0.05,0.126,-7.1,-0.2,3,-4.7,23.6,-20.9,0.252998444,-0.63411359,-0.155491806,-0.713919492
248,626187,1107050,1.024,-0.039,0.122,-7.5,-0.2,3.3,-4.7,23.6,-20.9,0.252967925,-0.634174627,-0.155339213,-0.713919492
249,628511,1107060,1.024,-0.039,0.126,-8,-0.1,3.5,-4.7,23.6,-20.9,0.252906888,-0.634235664,-0.155156102,-0.713919492
250,630725,1107060,1.028,-0.031,0.125,-8.4,0,3.6,-4.7,23.6,-20.9,0.252845851,-0.634266182,-0.154972991,-0.713919492
251,632486,1107060,1.028,-0.031,0.125,-8.4,0,3.6,-4.7,23.6,-20.9,0.252845851,-0.634266182,-0.154972991,-0.713919492
252,634751,1107060,1.031,-0.031,0.125,-9.4,0.5,3.7,-4.6,23.2,-20.8,0.252388073,-0.634449293,-0.154911954,-0.713950011
253,638072,1107070,1.035,-0.027,0.125,-10.1,0.7,3.8,-4.6,23.2,-20.8,0.252327036,-0.634510331,-0.154698325,-0.713950011
254,640146,1107070,1.035,-0.023,0.125,-10.8,0.9,4,-4.6,23.2,-20.8,0.252235481,-0.634571368,-0.154484695,-0.713980529
255,641996,1107070,1.035,-0.019,0.133,-11.6,0.9,4.2,-4.9,23.1,-20.3,0.252143925,-0.634632405,-0.154240547,-0.714011048
256,644529,1107070,1.032,-0.019,0.129,-12.2,1,4.4,-4.9,23.1,-20.3,0.25205237,-0.634693442,-0.15396588,-0.714041566
257,648132,1107080,1.035,-0.019,0.137,-12.9,1,4.8,-4.9,23.1,-20.3,0.251960814,-0.634784997,-0.153691214,-0.714072085
258,650838,1107080,1.035,-0.019,0.137,-13.6,1,5.2,-4.9,23.1,-20.3,0.25183874,-0.634846034,-0.153416547,-0.714102603
259,652706,1107080,1.043,-0.016,0.137,-14.5,1.3,5.5,-5.2,22.7,-20.4,0.251747185,-0.63493759,-0.153111362,-0.714133122
260,654741,1107080,1.035,-0.016,0.133,-15.6,1.6,5.9,-5.2,22.7,-20.4,0.251625111,-0.634998627,-0.152775658,-0.714194159
261,657307,1107090,1.036,-0.012,0.137,-16.9,2.1,6.1,-5.2,22.7,-20.4,0.251472518,-0.635090182,-0.152409436,-0.714255196
262,661913,1107090,1.036,-0.015,0.141,-18.1,2.5,6.3,-5.2,22.7,-20.4,0.251350444,-0.635151219,-0.152012696,-0.714316233
263,661913,1107090,1.032,-0.019,0.137,-19.1,2.9,6.4,-4.5,22.5,-20.5,0.251197851,-0.635242775,-0.151585437,-0.71437727
264,664518,1107090,1.032,-0.019,0.137,-19.1,2.9,6.4,-4.5,22.5,-20.5,0.251197851,-0.635242775,-0.151585437,-0.71437727
265,668160,1107100,1.024,-0.023,0.137,-21.1,3.4,6.8,-4.5,22.5,-20.5,0.250831629,-0.635425886,-0.150730918,-0.714529862
266,669957,1107100,1.024,-0.023,0.141,-22.1,3.7,7,-4.5,22.5,-20.5,0.250648518,-0.635486923,-0.150273141,-0.714621418
267,672219,1107100,1.024,-0.023,0.141,-23.2,4,7.2,-4.5,22.5,-20.5,0.250465407,-0.635578478,-0.149784845,-0.714712973
268,674416,1107100,1.016,-0.027,0.141,-24.2,4.3,7.2,-4.5,22.5,-20.5,0.250251778,-0.635670034,-0.149296548,-0.714804529
269,677043,1107110,1.008,-0.027,0.149,-25.1,4.6,7.4,-4.5,22.5,-20.5,0.250038148,-0.635761589,-0.148777734,-0.714926603
270,679464,1107110,1.004,-0.031,0.142,-25.8,4.8,7.5,-4.5,22.5,-20.5,0.249824519,-0.635853145,-0.148228401,-0.715018159
271,683709,1107110,1.004,-0.031,0.142,-25.8,4.8,7.5,-4.5,22.5,-20.5,0.249824519,-0.635853145,-0.148228401,-0.715018159
272,686017,1107110,0.996,-0.034,0.15,-27,5.1,7.7,-5,23.1,-21,0.248908963,-0.635975219,-0.147648549,-0.715353862
273,688214,1107120,0.996,-0.042,0.146,-27.6,5.1,7.7,-5,23.1,-21,0.248634297,-0.636066774,-0.147068697,-0.715475936
274,690125,1107120,0.993,-0.042,0.154,-28,5.2,7.8,-5,23.1,-21,0.248390149,-0.63615833,-0.146519364,-0.71559801
275,692470,1107120,0.981,-0.042,0.154,-28.4,5.2,7.8,-4.7,23.2,-21.1,0.248146001,-0.636249886,-0.145908994,-0.715720084
276,694659,1107120,0.981,-0.046,0.15,-28.7,5.2,7.8,-4.7,23.2,-21.1,0.247871334,-0.636341441,-0.145329142,-0.71581164
277,696991,1107130,0.981,-0.042,0.162,-28.9,5.2,7.6,-4.7,23.2,-21.1,0.247627186,-0.636463515,-0.14474929,-0.715964232
278,700895,1107130,0.973,-0.046,0.158,-29.1,5.1,7.5,-4.7,23.2,-21.1,0.247352519,-0.636555071,-0.144169439,-0.716086306
279,703188,1107130,0.969,-0.057,0.158,-29.4,4.9,7.5,-4.8,23.2,-20.8,0.247077853,-0.636646626,-0.143559069,-0.71620838
280,704967,1107130,0.961,-0.053,0.162,-29.6,4.6,7.6,-4.8,23.2,-20.8,0.246803186,-0.6367687,-0.142979217,-0.716330454
281,708321,1107140,0.961,-0.053,0.158,-29.8,4.3,7.7,-4.8,23.2,-20.8,0.246498001,-0.636890774,-0.142368847,-0.716452528
282,710626,1107140,0.953,-0.057,0.162,-29.9,4,7.7,-4.8,23.2,-20.8,0.246223334,-0.637012848,-0.141788995,-0.716544084
283,712718,1107140,0.953,-0.057,0.15,-29.9,3.7,7.7,-4.7,23.1,-20.5,0.245948668,-0.637134922,-0.141178625,-0.71663564
284,714657,1107140,0.953,-0.057,0.15,-29.9,3.7,7.7,-4.7,23.1,-20.5,0.245948668,-0.637134922,-0.141178625,-0.71663564
285,717936,1107150,0.938,-0.061,0.155,-29.7,3.5,8,-4.7,23.1,-20.5,0.245399335,-0.63737907,-0.139988403,-0.716849269
286,719992,1107150,0.93,-0.053,0.143,-29.7,3.5,8.2,-4.7,23.1,-20.5,0.245124668,-0.637531663,-0.139378033,-0.716940825
287,723239,1107150,0.93,-0.057,0.143,-29.8,3.4,8.4,-4.7,23.1,-20.5,0.244850002,-0.637653737,-0.138798181,-0.71703238
288,724844,1107150,0.93,-0.053,0.131,-30,3.2,8.5,-4.7,23.1,-20.5,0.244575335,-0.637775811,-0.138187811,-0.717123936
289,726968,1107160,0.926,-0.057,0.131,-30.2,2.8,8.4,-4.7,23.1,-20.5,0.244300668,-0.637928404,-0.137577441,-0.717215491
290,729979,1107160,0.926,-0.045,0.131,-30.3,2.4,8.4,-4.7,23.1,-20.5,0.243995483,-0.638080996,-0.136936552,-0.717307047
291,733669,1107160,0.926,-0.045,0.131,-30.3,2.4,8.4,-4.7,23.1,-20.5,0.243995483,-0.638080996,-0.136936552,-0.717307047
292,735252,1107160,0.922,-0.041,0.127,-30.2,1.7,8.4,-4.3,24.3,-19.6,0.243293558,-0.638386181,-0.135929441,-0.717459639
293,738206,1107170,0.922,-0.033,0.12,-30.2,1.5,8.3,-4.3,24.3,-19.6,0.243018891,-0.638538774,-0.135319071,-0.717520676
294,740035,1107170,0.918,-0.033,0.116,-30.2,1.4,8.3,-4.3,24.3,-19.6,0.242713706,-0.638721885,-0.134739219,-0.717581713
295,742316,1107170,0.922,-0.033,0.116,-30.4,1.2,8.2,-4.6,24.4,-19.4,0.242408521,-0.638874477,-0.134128849,-0.71764275
296,744612,1107170,0.922,-0.029,0.116,-30.6,1.1,8.1,-4.6,24.4,-19.4,0.242133854,-0.63902707,-0.133548997,-0.717703787
297,747951,1107180,0.926,-0.026,0.108,-30.9,1,7.8,-4.6,24.4,-19.4,0.241828669,-0.639210181,-0.132938627,-0.717764824
298,749485,1107180,0.93,-0.026,0.108,-31.1,1,7.7,-4.6,24.4,-19.4,0.241523484,-0.639393292,-0.132328257,-0.717825861
299,752445,1107180,0.934,-0.026,0.104,-31.3,0.9,7.5,-4.6,24.8,-19.7,0.241218299,-0.639545885,-0.131717887,-0.717886898
300,755511,1107180,0.93,-0.018,0.108,-31.5,0.7,7.3,-4.6,24.8,-19.7,0.240882595,-0.639728996,-0.131138035,-0.717978454
301,756983,1107190,0.938,-0.022,0.104,-31.9,0.6,7.2,-4.6,24.8,-19.7,0.240546892,-0.639912107,-0.130527665,-0.718039491
302,759930,1107190,0.938,-0.026,0.108,-32.4,0.5,7.1,-4.6,24.8,-19.7,0.240211188,-0.640095218,-0.129917295,-0.718100528
303,763141,1107190,0.942,-0.014,0.107,-33.2,0.4,7.1,-4.6,25.2,-19.1,0.239875484,-0.640278329,-0.129306925,-0.718161565
304,764416,1107190,0.942,-0.014,0.107,-33.2,0.4,7.1,-4.6,25.2,-19.1,0.239875484,-0.640278329,-0.129306925,-0.718161565
305,767959,1107200,0.949,-0.01,0.107,-35,0.3,6.7,-4.6,25.2,-19.1,0.239112522,-0.640675069,-0.128025147,-0.718283639
306,770964,1107200,0.953,-0.01,0.111,-36,0.2,6.5,-4.6,25.2,-19.1,0.238715781,-0.64085818,-0.12735374,-0.718344676
307,773045,1107200,0.953,-0.006,0.115,-37.1,0,6.4,-4.6,25.2,-19.1,0.238288522,-0.64107181,-0.126682333,-0.718436232
308,774553,1107200,0.957,-0.01,0.107,-38.3,-0.2,6.3,-4.6,25.2,-19.1,0.237861263,-0.64128544,-0.125980407,-0.718497269
309,778390,1107210,0.965,-0.011,0.115,-39.6,-0.4,6.3,-4.6,25.2,-19.1,0.237403485,-0.641529588,-0.125278481,-0.718558306
310,780676,1107210,0.961,-0.007,0.119,-41.1,-0.4,6.3,-4.6,25.2,-19.1,0.236915189,-0.641773736,-0.124546037,-0.718649861
311,783618,1107210,0.961,-0.007,0.119,-41.1,-0.4,6.3,-4.6,25.2,-19.1,0.236915189,-0.641773736,-0.124546037,-0.718649861
312,786307,1107210,0.957,-0.003,0.115,-43.8,-0.1,6.2,-4.4,24.6,-18.4,0.235389264,-0.642262032,-0.123599963,-0.718863491
313,788774,1107220,0.961,-0.007,0.119,-45,0.1,6,-4.4,24.6,-18.4,0.23483993,-0.642536699,-0.122806482,-0.718955046
314,790338,1107220,0.969,-0.007,0.127,-46.3,0.3,5.7,-4.4,24.6,-18.4,0.234290597,-0.642780847,-0.121982482,-0.719046602
315,793297,1107220,0.965,-0.018,0.123,-47.6,0.5,5.2,-4.6,24.8,-18.6,0.233710746,-0.643024995,-0.121158483,-0.719138157
316,794582,1107220,0.969,-0.022,0.127,-48.8,0.8,4.6,-4.6,24.8,-18.6,0.233100375,-0.643269143,-0.120334483,-0.719260231
317,797485,1107230,0.965,-0.026,0.127,-49.9,1,4.1,-4.6,24.8,-18.6,0.232459487,-0.643513291,-0.119479965,-0.719382305
318,801206,1107230,0.965,-0.026,0.127,-50.8,1.3,3.4,-4.6,24.8,-18.6,0.231818598,-0.643757439,-0.118625446,-0.719534898
319,802860,1107230,0.965,-0.026,0.127,-50.8,1.3,3.4,-4.6,24.8,-18.6,0.231818598,-0.643757439,-0.118625446,-0.719534898
320,804510,1107230,0.965,-0.053,0.131,-53,2,2.1,-4.8,25.2,-18.3,0.230414747,-0.644245735,-0.116885891,-0.719809565
321,807578,1107240,0.969,-0.061,0.123,-54.1,2.4,1.6,-4.8,25.2,-18.3,0.229682302,-0.644489883,-0.116000855,-0.719992676
322,811238,1107240,0.965,-0.061,0.131,-55.1,2.6,0.9,-4.8,25.2,-18.3,0.228949858,-0.644703513,-0.115115818,-0.720145268
323,812811,1107240,0.961,-0.081,0.131,-56.1,2.7,0.2,-4.5,25.4,-18.2,0.228156377,-0.644947661,-0.114230781,-0.720328379
324,815885,1107240,0.961,-0.081,0.131,-56.1,2.7,0.2,-4.5,25.4,-18.2,0.228156377,-0.644947661,-0.114230781,-0.720328379
325,817971,1107250,0.957,-0.092,0.127,-57.5,2.7,-1.1,-4.5,25.4,-18.2,0.226538896,-0.645435957,-0.11239967,-0.720694601
326,819485,1107250,0.949,-0.108,0.119,-57.9,2.7,-1.8,-4.5,25.4,-18.2,0.225684378,-0.645680105,-0.111514634,-0.720908231
327,822437,1107250,0.949,-0.116,0.131,-58.2,2.4,-2.5,-4.5,25.4,-18.2,0.224829859,-0.645893735,-0.110629597,-0.721091342
328,824771,1107250,0.945,-0.116,0.127,-58.4,1.9,-3.2,-4.5,25.4,-18.2,0.223975341,-0.646168401,-0.10974456,-0.721274453
329,827832,1107260,0.941,-0.119,0.127,-58.4,1.4,-3.8,-4.5,25.4,-18.2,0.223090304,-0.646412549,-0.108859523,-0.721457564
330,829439,1107260,0.937,-0.127,0.12,-58.4,1,-4.6,-4.5,25.4,-18.2,0.222205267,-0.646656697,-0.108005005,-0.721610157
331,832547,1107260,0.937,-0.127,0.12,-58.4,1,-4.6,-4.5,25.4,-18.2,0.222205267,-0.646656697,-0.108005005,-0.721610157
332,834863,1107260,0.93,-0.139,0.124,-58.1,0.5,-6,-4.7,26.2,-18.1,0.220282601,-0.647236549,-0.106418043,-0.721915342
333,836910,1107270,0.933,-0.139,0.124,-57.9,0.3,-6.9,-4.7,26.2,-18.1,0.219367046,-0.647511216,-0.105624561,-0.722098453
334,839858,1107270,0.929,-0.147,0.112,-57.6,0,-7.6,-4.7,26.2,-18.1,0.218420972,-0.647755364,-0.104800562,-0.722251045
335,843804,1107270,0.926,-0.151,0.116,-57.4,-0.1,-8.5,-5.6,26.6,-17.5,0.217474899,-0.647999512,-0.104037599,-0.722434156
336,845311,1107270,0.933,-0.155,0.108,-57.2,-0.4,-9.2,-5.6,26.6,-17.5,0.216528825,-0.648274178,-0.103244118,-0.722586749
337,848499,1107280,0.929,-0.158,0.104,-56.7,-0.7,-9.8,-5.6,26.6,-17.5,0.215552232,-0.648518326,-0.102511673,-0.72276986
338,850618,1107280,0.929,-0.162,0.1,-56.3,-1,-10.4,-5.6,26.6,-17.5,0.214606159,-0.648792993,-0.101779229,-0.722922452
339,852078,1107280,0.933,-0.159,0.104,-55.8,-1.3,-10.8,-5.5,26.9,-17.6,0.213629566,-0.649037141,-0.101046785,-0.723075045
340,854954,1107280,0.933,-0.159,0.096,-55.5,-1.5,-11.4,-5.5,26.9,-17.6,0.212652974,-0.649311808,-0.100344859,-0.723227638
341,858868,1107290,0.941,-0.163,0.092,-55.2,-1.5,-12,-5.5,26.9,-17.6,0.211676382,-0.649555956,-0.0996429334,-0.72338023
342,861698,1107290,0.937,-0.163,0.084,-54.8,-1.6,-12.5,-5.5,26.9,-17.6,0.210699789,-0.649800104,-0.0989715262,-0.723532823
343,861958,1107290,0.945,-0.163,0.084,-54.5,-1.7,-13,-6,26.4,-17,0.209723197,-0.650044252,-0.098300119,-0.723685415
344,864727,1107290,0.945,-0.163,0.084,-54.5,-1.7,-13,-6,26.4,-17,0.209723197,-0.650044252,-0.098300119,-0.723685415
345,867022,1107300,0.949,-0.155,0.076,-53.9,-2,-13.6,-6,26.4,-17,0.207739494,-0.650563066,-0.0969878231,-0.7239906
346,870102,1107300,0.957,-0.159,0.08,-53.7,-2.2,-14,-6,26.4,-17,0.206762902,-0.650807215,-0.0963469344,-0.724143193
347,872321,1107300,0.964,-0.163,0.072,-53.7,-2.4,-14.4,-6,26.4,-17,0.205755791,-0.651051363,-0.0957365642,-0.724265267
348,874571,1107300,0.968,-0.163,0.072,-53.8,-2.5,-14.8,-6,26.4,-17,0.20474868,-0.651295511,-0.0950956755,-0.724417859
349,877402,1107310,0.976,-0.163,0.068,-54.2,-2.3,-15.3,-6,26.4,-17,0.203741569,-0.651539659,-0.0944547868,-0.724570452
350,879610,1107310,0.98,-0.163,0.064,-54.6,-2,-15.7,-6,26.4,-17,0.20270394,-0.651783807,-0.0938444166,-0.724723045
351,882760,1107310,0.98,-0.163,0.064,-54.6,-2,-15.7,-6,26.4,-17,0.20270394,-0.651783807,-0.0938444166,-0.724723045
352,884484,1107310,0.992,-0.164,0.068,-55.7,-1.4,-16.5,-5.9,26.6,-16.8,0.2006592,-0.652577288,-0.0924710837,-0.724753563
353,888155,1107320,0.996,-0.168,0.06,-56.3,-1.2,-16.9,-5.9,26.6,-16.8,0.199591052,-0.652821436,-0.0917996765,-0.724936674
354,889939,1107320,0.999,-0.172,0.056,-57.1,-1,-17.3,-5.9,26.6,-16.8,0.198461867,-0.653035066,-0.0911587878,-0.725089267
355,892006,1107320,0.999,-0.176,0.052,-57.9,-1,-17.7,-5.7,27.3,-16.4,0.197393719,-0.653279214,-0.0904873806,-0.725272378
356,894498,1107320,1.003,-0.179,0.06,-58.9,-0.9,-18.2,-5.7,27.3,-16.4,0.196264534,-0.653523362,-0.0898464919,-0.725455489
357,897133,1107330,1.003,-0.179,0.06,-59.8,-1,-18.5,-5.7,27.3,-16.4,0.195104831,-0.653736991,-0.0891445662,-0.7256386
358,900717,1107330,0.999,-0.179,0.056,-60.7,-1,-18.9,-5.7,27.3,-16.4,0.193945128,-0.65398114,-0.088473159,-0.725821711
359,902406,1107330,0.999,-0.183,0.056,-61.5,-1.2,-19.2,-5.7,27,-16,0.192754906,-0.654225288,-0.0877712333,-0.726004822
360,905662,1107330,0.995,-0.183,0.06,-62.4,-1.4,-19.6,-5.7,27,-16,0.191564684,-0.654469436,-0.0870693075,-0.726187933
361,907893,1107340,0.992,-0.195,0.06,-63.1,-1.5,-19.8,-5.7,27,-16,0.190343944,-0.654713584,-0.0863673818,-0.726371044
362,910033,1107340,0.988,-0.191,0.06,-63.8,-1.7,-20,-5.7,27,-16,0.189092685,-0.65498825,-0.0856349376,-0.726554155
363,912254,1107340,0.992,-0.199,0.06,-64.3,-1.9,-20.3,-5.7,27.5,-16.2,0.187841426,-0.655232398,-0.0849330119,-0.726706748
364,915347,1107340,0.992,-0.199,0.06,-64.3,-1.9,-20.3,-5.7,27.5,-16.2,0.187841426,-0.655232398,-0.0849330119,-0.726706748
365,918148,1107350,0.988,-0.207,0.056,-64.9,-1.9,-21.4,-5.7,27.5,-16.2,0.18530839,-0.655751213,-0.0834681234,-0.72707297
366,919555,1107350,0.991,-0.211,0.052,-64.9,-1.8,-22.1,-5.7,27.5,-16.2,0.184026612,-0.655995361,-0.0827661977,-0.727256081
367,922533,1107350,0.988,-0.218,0.056,-64.8,-1.7,-22.7,-5.7,27.5,-16.2,0.182744835,-0.656239509,-0.0820947905,-0.727439192
368,924832,1107350,0.987,-0.222,0.048,-64.6,-1.6,-23.2,-5.7,27.5,-16.2,0.181432539,-0.656483657,-0.0813928648,-0.727622303
369,927903,1107360,0.987,-0.218,0.052,-64.5,-1.2,-23.8,-5.7,27.5,-16.2,0.180150761,-0.656727805,-0.0807214576,-0.727805414
370,929508,1107360,0.999,-0.234,0.048,-64.3,-0.7,-24.2,-5.7,27.5,-16.2,0.178838466,-0.656941435,-0.0800500504,-0.728019044
371,932646,1107360,0.999,-0.234,0.048,-64.3,-0.7,-24.2,-5.7,27.5,-16.2,0.178838466,-0.656941435,-0.0800500504,-0.728019044
372,934775,1107360,1.007,-0.234,0.032,-64,0.4,-25.2,-5.7,26.7,-15.5,0.176580096,-0.657826472,-0.0782189398,-0.727958007
373,937934,1107370,1.015,-0.235,0.028,-63.9,1.1,-25.7,-5.7,26.7,-15.5,0.1752678,-0.658009583,-0.0775780511,-0.728171636
374,940723,1107370,1.03,-0.25,0.02,-63.9,1.9,-26.1,-5.7,26.7,-15.5,0.173924986,-0.658192694,-0.0769371624,-0.728415784
375,943087,1107370,1.034,-0.258,0.016,-63.8,2.7,-26.5,-5.5,26.7,-15,0.172582171,-0.658345286,-0.0762657552,-0.728659932
376,945095,1107370,1.046,-0.263,0.008,-63.8,3.6,-26.8,-5.5,26.7,-15,0.171239357,-0.65846736,-0.075655385,-0.72890408
377,947399,1107380,1.061,-0.278,0,-63.5,4.5,-27.1,-5.5,26.7,-15,0.169927061,-0.658589434,-0.0750144963,-0.729178747
378,949568,1107380,1.069,-0.286,-0.003,-63.2,5.3,-27.2,-5.5,26.7,-15,0.168584246,-0.65868099,-0.0743736076,-0.729453413
379,952556,1107380,1.077,-0.287,-0.007,-62.7,6.2,-27.2,-5.5,26.7,-15,0.167210913,-0.658772546,-0.0737327189,-0.729758599
380,954819,1107380,1.085,-0.291,-0.007,-62.1,7,-27.1,-5.5,26.7,-15,0.165929136,-0.658864101,-0.0731223487,-0.730063784
381,958907,1107390,1.104,-0.311,-0.019,-61.7,8,-27.2,-5.5,26.7,-15,0.16461684,-0.65889462,-0.07248146,-0.730368969
382,961072,1107390,1.112,-0.322,-0.019,-61.4,9,-27.2,-5.5,26.7,-15,0.163304544,-0.658925138,-0.0718710898,-0.730704672
383,963369,1107390,1.12,-0.326,-0.023,-61.3,10.1,-27.2,-5.5,26.7,-15,0.162022767,-0.658955657,-0.0712607196,-0.731040376
384,965526,1107390,1.12,-0.326,-0.023,-61.3,10.1,-27.2,-5.5,26.7,-15,0.162022767,-0.658955657,-0.0712607196,-0.731040376
385,967669,1107400,1.135,-0.358,-0.024,-61.3,12.2,-26.8,-5.5,26.7,-15,0.159398175,-0.658925138,-0.0699789422,-0.731742302
386,969937,1107400,1.143,-0.374,-0.024,-61.6,13,-26.7,-5.5,26.7,-15,0.158146916,-0.65889462,-0.0693380535,-0.732108524
387,972195,1107400,1.143,-0.382,-0.024,-61.8,13.6,-26.8,-5.5,26.7,-15,0.15683462,-0.658833583,-0.0686971648,-0.732505264
388,974763,1107400,1.147,-0.405,-0.024,-62.3,14.2,-26.8,-5.5,26.7,-15,0.155552843,-0.658772546,-0.0680257576,-0.732902005
389,977386,1107410,1.139,-0.421,-0.024,-62.9,14.8,-26.9,-5.5,26.7,-15,0.154240547,-0.658711509,-0.0673543504,-0.733298746
390,979686,1107410,1.139,-0.428,-0.024,-63.6,15.6,-27,-5.5,26.7,-15,0.152897732,-0.658650472,-0.0666829432,-0.733695486
391,982168,1107410,1.131,-0.463,-0.027,-64.5,16.2,-27.2,-5.9,27.2,-14.8,0.151554918,-0.658558916,-0.0659810175,-0.734122745
392,985668,1107410,1.127,-0.483,-0.027,-65.6,16.8,-27.3,-5.9,27.2,-14.8,0.150212104,-0.65846736,-0.0652790918,-0.734550005
393,987074,1107420,1.127,-0.487,-0.027,-66.8,17.2,-27.5,-5.9,27.2,-14.8,0.148838771,-0.658375805,-0.0645466475,-0.734977264
394,990056,1107420,1.119,-0.51,-0.023,-67.9,17.7,-27.8,-5.9,27.2,-14.8,0.147434919,-0.658253731,-0.0637836848,-0.735404523
395,992340,1107420,1.107,-0.541,-0.027,-69.1,18.2,-28.3,-5.9,27.2,-14.8,0.146000549,-0.658162175,-0.0630207221,-0.7358623
396,995476,1107420,1.099,-0.561,-0.027,-70.1,18.4,-28.8,-5.9,27.2,-14.8,0.144566179,-0.658040101,-0.0622577593,-0.736320078
397,997607,1107430,1.095,-0.58,-0.026,-71.1,18.6,-29.4,-5.9,27.2,-14.8,0.143101291,-0.657918027,-0.0614947966,-0.736777856
398,999875,1107430,1.087,-0.592,-0.022,-71.9,18.9,-30,-5.9,27.2,-14.8,0.141605884,-0.657795953,-0.0607013153,-0.737235633
399,1002225,1107430,1.076,-0.627,-0.022,-72.6,19.4,-30.6,-5.9,27.2,-14.8,0.140079958,-0.657673879,-0.0599078341,-0.737693411
400,1004477,1107430,1.072,-0.65,-0.018,-73.1,19.9,-31.3,-5.9,27.2,-14.8,0.138554033,-0.657521287,-0.0591143529,-0.738181707
401,1008231,1107440,1.06,-0.665,-0.01,-73.4,20.3,-31.8,-5.9,27.2,-14.8,0.137028108,-0.657399213,-0.0583208716,-0.738670003
402,1010511,1107440,1.064,-0.685,-0.002,-73.7,20.4,-32.4,-5.9,27.2,-14.8,0.135471664,-0.657216102,-0.0575579089,-0.739127781
403,1012822,1107440,1.052,-0.716,0.013,-73.7,20.3,-33,-5.9,27.2,-14.8,0.133884701,-0.657094028,-0.0567644276,-0.739616077
404,1014870,1107440,1.052,-0.716,0.013,-73.7,20.3,-33,-5.9,27.2,-14.8,0.133884701,-0.657094028,-0.0567644276,-0.739616077
405,1018084,1107450,1.044,-0.755,0.021,-72.8,19.3,-33.4,-5.9,27.2,-14.8,0.130771813,-0.656788842,-0.0552079836,-0.740562151
406,1019881,1107450,1.04,-0.79,0.044,-71.9,18.5,-33.2,-5.9,27.2,-14.8,0.129215369,-0.656666768,-0.0544755394,-0.74098941
407,1022951,1107450,1.036,-0.801,0.048,-70.6,17.6,-32.8,-5.9,27.2,-14.8,0.127689444,-0.656514176,-0.0538041322,-0.741447188
408,1025783,1107450,1.036,-0.821,0.048,-68.9,16.5,-32.4,-5.9,27.2,-14.8,0.126194037,-0.65642262,-0.0531022065,-0.741843928
409,1027186,1107460,1.04,-0.841,0.048,-66.6,15.3,-31.8,-5.9,27.2,-14.8,0.124759667,-0.656300546,-0.0524307993,-0.74221015
410,1030103,1107460,1.028,-0.875,0.06,-63.7,14.1,-31.1,-5.9,27.2,-14.8,0.123355815,-0.656208991,-0.0517899106,-0.742576373
411,1033537,1107460,1.032,-0.891,0.057,-60,12.9,-30.3,-7.3,27.5,-13.1,0.122013001,-0.656147954,-0.0512405774,-0.742912076
412,1034873,1107460,1.032,-0.911,0.06,-55.6,11.9,-29.4,-7.3,27.5,-13.1,0.120761742,-0.656056398,-0.0507217627,-0.743217261
413,1037973,1107470,1.036,-0.926,0.06,-50.3,11.2,-28.5,-7.3,27.5,-13.1,0.119602039,-0.655964843,-0.0502945036,-0.743522446
414,1039484,1107470,1.04,-0.962,0.049,-44.1,10.7,-27.6,-7.3,27.5,-13.1,0.118533891,-0.655873287,-0.0499282815,-0.743797113
415,1042436,1107470,1.04,-0.973,0.049,-37.1,10.4,-26.6,-7.3,27.5,-13.1,0.117557299,-0.655781732,-0.0496841334,-0.744041261
416,1044669,1107470,1.044,-0.989,0.049,-29.6,10.1,-25.6,-7.3,27.5,-13.1,0.116733299,-0.655659658,-0.0495620594,-0.744285409
417,1047757,1107480,1.04,-1.016,0.041,-21.7,10.2,-24.3,-7.3,27.5,-13.1,0.116031373,-0.655537584,-0.0495315409,-0.744529557
418,1050677,1107480,1.047,-1.028,0.029,-13.7,10.2,-22.9,-7.3,27.5,-13.1,0.11548204,-0.655384991,-0.0495925779,-0.744743187
419,1052384,1107480,1.071,-1.037,0.021,-5.8,10.1,-21.7,-7.3,27.5,-13.1,0.115054781,-0.65520188,-0.049775689,-0.744956816
420,1055530,1107480,1.074,-1.044,0.017,1.8,10,-20.7,-7.3,27.5,-13.1,0.114749596,-0.655018769,-0.0500808741,-0.745139927
421,1058253,1107490,1.063,-1.08,0.009,9,9.9,-19.8,-7.3,27.5,-13.1,0.114566485,-0.654805139,-0.0505081332,-0.745323038
422,1061293,1107490,1.047,-1.099,0.01,15.6,10,-18.3,-7.3,27.5,-13.1,0.114505448,-0.654560991,-0.0509964293,-0.745506149
423,1063112,1107490,1.039,-1.11,0.006,21.5,10.1,-16.5,-7.3,27.5,-13.1,0.114566485,-0.654347362,-0.0515457625,-0.745658742
424,1064517,1107490,1.039,-1.11,0.006,21.5,10.1,-16.5,-7.3,27.5,-13.1,0.114566485,-0.654347362,-0.0515457625,-0.745658742
425,1067683,1107500,1.031,-1.157,-0.001,32.4,9.1,-14.2,-7.3,27.5,-13.1,0.114963225,-0.653859066,-0.0528885769,-0.745933409
426,1070342,1107500,1.039,-1.177,-0.001,37.6,8.3,-13.7,-7.3,27.5,-13.1,0.11526841,-0.653584399,-0.0536820582,-0.746055483
427,1072386,1107500,1.019,-1.192,0,42.3,7.5,-13.1,-7.3,27.5,-13.1,0.115665151,-0.653309732,-0.0545365764,-0.746147038
428,1075407,1107500,1.011,-1.227,0.007,46.7,6.9,-12.4,-7.3,27.5,-13.1,0.116153447,-0.653096103,-0.0554521317,-0.746208075
429,1078155,1107510,1.011,-1.239,0.014,50.6,6.4,-11.3,-7.3,27.5,-13.1,0.11670278,-0.652851955,-0.056428724,-0.746269112
430,1079539,1107510,1.011,-1.254,0.03,54.2,5.8,-10.1,-7.3,27.5,-13.1,0.117282632,-0.652607807,-0.0574053163,-0.746330149
431,1082548,1107510,0.996,-1.277,0.05,57.6,5.4,-9.2,-7,27.5,-13.2,0.117984558,-0.652363659,-0.0585039827,-0.746360668
432,1085373,1107510,0.972,-1.297,0.062,60.7,5.4,-8.5,-7,27.5,-13.2,0.118717002,-0.65211951,-0.059602649,-0.746360668
433,1088125,1107520,0.972,-1.308,0.074,63.2,5.8,-8.1,-7,27.5,-13.2,0.119479965,-0.651844844,-0.0607318339,-0.746391186
434,1089559,1107520,0.961,-1.324,0.082,65.5,6.5,-7.8,-7,27.5,-13.2,0.120303964,-0.651539659,-0.0618915372,-0.746421705
435,1092525,1107520,0.929,-1.35,0.102,67.7,7.4,-7.5,-7,27.5,-13.2,0.121158483,-0.651234474,-0.0630817591,-0.746452223
436,1095950,1107520,0.918,-1.374,0.103,70.1,8.2,-6.7,-7,27.5,-13.2,0.122043519,-0.65089877,-0.0643024995,-0.746482742
437,1097296,1107530,0.922,-1.381,0.106,73.1,8.8,-5.4,-7,27.5,-13.2,0.123020112,-0.650563066,-0.0655232398,-0.74651326
438,1100383,1107530,0.918,-1.389,0.114,76.7,9.2,-3.7,-7,27.5,-13.2,0.124057741,-0.650196844,-0.0668050172,-0.746543779
439,1103146,1107530,0.914,-1.405,0.107,81.1,9.6,-1.6,-7,27.5,-13.2,0.125186926,-0.649830622,-0.0681173132,-0.746574297
440,1104548,1107530,0.898,-1.408,0.107,86.3,10,0.4,-7,27.5,-13.2,0.126438185,-0.649403363,-0.0694906461,-0.746574297
441,1107529,1107540,0.886,-1.404,0.099,92.6,10.7,2.5,-7,27.5,-13.2,0.127811518,-0.648976104,-0.0709555345,-0.746574297
442,1110698,1107540,0.879,-1.396,0.096,99.8,11.6,4.7,-7,27.5,-13.2,0.129337443,-0.648518326,-0.07248146,-0.746574297
443,1112565,1107540,0.874,-1.393,0.053,107.9,12.7,7,-7,27.5,-13.2,0.130985443,-0.64803003,-0.074098941,-0.746574297
444,1115890,1107540,0.874,-1.393,0.053,107.9,12.7,7,-7,27.5,-13.2,0.130985443,-0.64803003,-0.074098941,-0.746574297
445,1117305,1107550,0.886,-1.381,0.009,124.7,15.4,11.7,-7,27.5,-13.2,0.134800256,-0.646870327,-0.0776390881,-0.74651326
446,1120485,1107550,0.878,-1.362,-0.013,133.3,17.1,13.9,-7,27.5,-13.2,0.136936552,-0.646229438,-0.0795617542,-0.74651326
447,1122011,1107550,0.89,-1.35,-0.029,142.1,19.1,16.3,-7,27.5,-13.2,0.13922544,-0.645496994,-0.0815759758,-0.746482742
448,1124473,1107550,0.897,-1.331,-0.049,151.1,21.4,18.9,-7,27.5,-13.2,0.141697439,-0.644734031,-0.0837122715,-0.746452223
449,1128068,1107560,0.905,-1.32,-0.072,160.2,23.7,22,-7,27.5,-13.2,0.14435255,-0.643910031,-0.0859401227,-0.746421705
450,1130130,1107560,0.909,-1.273,-0.112,169.4,25.9,25.1,-7,27.5,-13.2,0.147190771,-0.642994476,-0.0882595294,-0.746360668
451,1132227,1107560,0.909,-1.253,-0.124,178.6,27.9,28.4,-6.5,26.4,-15.5,0.150212104,-0.642017884,-0.0907010102,-0.746330149
452,1135926,1107560,0.921,-1.226,-0.139,187.9,29.6,31.8,-6.5,26.4,-15.5,0.153416547,-0.640949736,-0.0932035279,-0.746238594
453,1138181,1107570,0.932,-1.215,-0.155,196.8,31.2,35.5,-6.5,26.4,-15.5,0.156804102,-0.63985107,-0.0957976012,-0.746177557
454,1140496,1107570,0.952,-1.172,-0.175,205.7,32.7,39.7,-6.5,26.4,-15.5,0.160374767,-0.638691366,-0.0984832301,-0.746055483
455,1142185,1107570,0.96,-1.153,-0.183,214.3,34.2,44,-6.5,26.4,-15.5,0.164189581,-0.637470626,-0.101229896,-0.74590289
456,1144536,1107570,0.968,-1.13,-0.199,223.1,35.8,48.3,-6.5,26.4,-15.5,0.168156987,-0.636188849,-0.104068117,-0.745719779
457,1148830,1107580,0.979,-1.067,-0.211,232.2,37.1,52.6,-6.5,26.4,-15.5,0.172307505,-0.634846034,-0.106967376,-0.745506149
458,1151119,1107580,0.983,-1.04,-0.211,241.4,38.1,57,-6.5,26.4,-15.5,0.176671651,-0.633442183,-0.10995819,-0.745231483
459,1153279,1107580,1.003,-1.001,-0.204,250.4,38.8,62.1,-5.9,25.3,-16.4,0.181218909,-0.631977294,-0.113040559,-0.744926298
460,1155556,1107580,1.019,-0.967,-0.204,258.5,39,67.6,-5.9,25.3,-16.4,0.185979797,-0.630481887,-0.116153447,-0.744560076
461,1157295,1107590,1.043,-0.877,-0.197,265.6,38.8,73.6,-5.9,25.3,-16.4,0.190923795,-0.628955962,-0.119296854,-0.744102298
462,1160125,1107590,1.058,-0.826,-0.194,271.5,38.5,79.9,-5.9,25.3,-16.4,0.196050905,-0.627399518,-0.12244026,-0.743583483
463,1162475,1107590,1.066,-0.788,-0.194,275.9,38.1,86.5,-5.4,24.6,-16.8,0.201330607,-0.625812555,-0.125553148,-0.742973113
464,1165314,1107590,1.066,-0.788,-0.194,275.9,38.1,86.5,-5.4,24.6,-16.8,0.201330607,-0.625812555,-0.125553148,-0.742973113
465,1168015,1107600,1.098,-0.698,-0.226,280.5,38.3,100.9,-5.4,24.6,-16.8,0.21231727,-0.622608112,-0.131626331,-0.741569262
466,1169515,1107600,1.101,-0.671,-0.253,281.8,38.9,108.6,-5.4,24.6,-16.8,0.217993713,-0.620960112,-0.13452559,-0.740775781
467,1173232,1107600,1.105,-0.64,-0.277,283.4,40.1,116.1,-5.4,23.8,-17.6,0.223853267,-0.619281594,-0.137333293,-0.739921262
468,1174900,1107600,1.113,-0.617,-0.348,286.4,41.8,123.4,-5.4,23.8,-17.6,0.229834895,-0.617572558,-0.140079958,-0.739005707
469,1178243,1107610,1.117,-0.598,-0.379,290.9,43.9,130.7,-5.4,23.8,-17.6,0.235969115,-0.615771966,-0.142796106,-0.738029115
470,1180036,1107610,1.132,-0.579,-0.399,297.1,46.3,138.1,-5.4,23.8,-17.6,0.242347484,-0.613910337,-0.145481735,-0.736991485
471,1182032,1107610,1.14,-0.524,-0.399,305.2,49,145.7,-4.3,23.6,-21.7,0.248908963,-0.611957152,-0.148167364,-0.735892819
472,1185019,1107610,1.133,-0.493,-0.388,314.7,51.4,153.4,-4.3,23.6,-21.7,0.255745109,-0.609912412,-0.150883511,-0.734702597
473,1187098,1107620,1.133,-0.453,-0.372,324.5,53,161.3,-4.3,23.6,-21.7,0.262794885,-0.607745598,-0.153660695,-0.73342082
474,1190557,1107620,1.133,-0.403,-0.356,332.6,53.1,169.2,-4.3,23.6,-21.7,0.270088809,-0.605548265,-0.156407361,-0.732016968
475,1192361,1107620,1.137,-0.344,-0.302,337.3,51.3,177.3,-3.7,22.7,-20.3,0.277565844,-0.603320414,-0.159154027,-0.730460524
476,1194795,1107620,1.145,-0.305,-0.275,337.5,47.8,185.2,-3.7,22.7,-20.3,0.285103916,-0.6011536,-0.161809137,-0.728782006
477,1198579,1107630,1.146,-0.285,-0.235,332.9,43.2,192.4,-3.7,22.7,-20.3,0.292672506,-0.599047823,-0.164281137,-0.726950896
478,1200066,1107630,1.158,-0.262,-0.197,324.5,38.4,198.7,-3.7,22.7,-20.3,0.300180059,-0.597064119,-0.166600543,-0.724997711
479,1203357,1107630,1.178,-0.211,-0.134,313.4,33.8,203.9,-3.7,22.7,-20.3,0.307626576,-0.595171972,-0.168675802,-0.722922452
480,1204807,1107630,1.186,-0.18,-0.107,301.1,29.9,207.9,-3.7,22.7,-20.3,0.314920499,-0.593432417,-0.170506912,-0.720786157
481,1208383,1107640,1.194,-0.16,-0.084,288.3,27,210.7,-3.7,22.7,-20.3,0.322031312,-0.591784417,-0.172093875,-0.718588824
482,1210125,1107640,1.21,-0.145,-0.069,275.8,25.3,213,-3.7,22.7,-20.3,0.329020051,-0.590227973,-0.173497726,-0.716360973
483,1212313,1107640,1.229,-0.11,-0.045,264.3,25.4,215.2,-3.7,22.7,-20.3,0.335886715,-0.588732566,-0.174687948,-0.714133122
484,1215709,1107640,1.229,-0.11,-0.045,264.3,25.4,215.2,-3.7,22.7,-20.3,0.335886715,-0.588732566,-0.174687948,-0.714133122
485,1218092,1107650,1.311,-0.08,-0.063,247.7,29.6,222,-3.7,22.7,-20.3,0.349375896,-0.585802789,-0.176427503,-0.709646901
486,1219497,1107650,1.472,0.002,-0.085,244.2,32.4,227.9,-3.7,22.7,-20.3,0.356151006,-0.584276864,-0.177037873,-0.707358013
487,1223346,1107650,1.511,0.009,-0.118,244.2,35.9,235.1,-0.9,19.4,-23.7,0.36301767,-0.58272042,-0.17752617,-0.705038606
488,1226007,1107650,1.538,0.04,-0.153,247,41.3,242.9,-0.9,19.4,-23.7,0.370036927,-0.58107242,-0.17792291,-0.702658162
489,1228005,1107660,1.577,0.086,-0.189,252.9,48.8,250.7,-0.9,19.4,-23.7,0.377269814,-0.579210791,-0.178197577,-0.7002472
490,1230142,1107660,1.76,0.18,-0.256,262.4,57.2,258.2,-0.9,19.4,-23.7,0.384746849,-0.577166051,-0.178472243,-0.697805719
491,1232483,1107660,1.811,0.25,-0.272,276,65,265.4,-0.1,18.7,-25.7,0.39249855,-0.574877163,-0.178777429,-0.695303201
492,1234762,1107660,1.792,0.32,-0.284,292.2,71.6,271.8,-0.1,18.7,-25.7,0.400555437,-0.572313608,-0.179174169,-0.692709128
493,1237029,1107670,1.772,0.367,-0.307,309,76,277.6,-0.1,18.7,-25.7,0.40888699,-0.569536424,-0.179723502,-0.689992981
494,1239475,1107670,1.886,0.521,-0.364,323.7,76.9,283.6,-0.1,18.7,-25.7,0.417462691,-0.566576128,-0.180364391,-0.687093722
495,1243114,1107670,1.96,0.614,-0.366,333.5,74.2,289.4,0.6,17.5,-25.3,0.426190985,-0.563554796,-0.181096835,-0.684041871
496,1244628,1107670,1.828,0.62,-0.352,335.1,70.8,293.6,0.6,17.5,-25.3,0.434949797,-0.560502945,-0.181829279,-0.680837428
497,1246951,1107680,1.46,0.494,-0.309,327.4,70.1,294.1,0.6,17.5,-25.3,0.443586535,-0.557481613,-0.18243965,-0.677571947
498,1250997,1107680,1.324,0.481,-0.283,313.3,71.3,289.8,0.6,17.5,-25.3,0.451948607,-0.554521317,-0.18283639,-0.674336985
499,1253235,1107680,1.234,0.545,-0.231,298.4,69.4,280.3,2,16.2,-26.7,0.459944456,-0.551652577,-0.183141575,-0.671193579
500,1255670,1107680,1.121,0.535,-0.174,284.8,60.5,267,2,16.2,-26.7,0.467513047,-0.548966948,-0.183477279,-0.668080691
501,1257686,1107690,1.012,0.412,-0.113,270.3,44.3,252.3,2,16.2,-26.7,0.474593341,-0.546555986,-0.183935057,-0.664937284
502,1260865,1107690,1.075,0.373,-0.067,251.6,23.8,238.3,2,16.2,-26.7,0.481124302,-0.544541765,-0.184514908,-0.661732841
503,1263156,1107690,1.172,0.355,-0.03,227.5,4.2,225.5,2.6,14.8,-27.2,0.48710593,-0.542985321,-0.185064241,-0.658497879
504,1264868,1107690,1.172,0.355,-0.03,227.5,4.2,225.5,2.6,14.8,-27.2,0.48710593,-0.542985321,-0.185064241,-0.658497879
505,1267642,1107700,1.53,0.348,-0.291,168.6,-6.1,207.5,2.6,14.8,-27.2,0.497421186,-0.54094058,-0.185491501,-0.652302622
506,1269676,1107700,1.679,0.443,-0.364,137.9,12.5,208.9,2.6,14.8,-27.2,0.502059999,-0.540116581,-0.184789575,-0.649616993
507,1272324,1107700,1.816,0.608,-0.394,108.3,47.6,221.5,3.3,13.9,-27.3,0.506668294,-0.539139988,-0.183233131,-0.647297586
508,1275023,1107700,1.723,0.833,-0.374,77.5,96,246.5,3.3,13.9,-27.3,0.511429182,-0.53788873,-0.180364391,-0.64537492
509,1277200,1107710,1.494,0.971,-0.189,41.2,152.3,282.3,3.3,13.9,-27.3,0.516495254,-0.536393323,-0.175939207,-0.643848994
510,1280729,1107710,0.883,0.57,-0.256,-4.5,205.5,324.5,3.3,13.9,-27.3,0.521744438,-0.534775842,-0.16974395,-0.642597736
511,1282352,1107710,1.234,-0.253,-0.586,-58.3,241.1,366.1,4,13.5,-27.1,0.527085177,-0.533402509,-0.161900693,-0.641407514
512,1284781,1107710,0.667,-0.645,-0.48,-109.6,251.2,399.6,4,13.5,-27.1,0.532212287,-0.532517472,-0.152806177,-0.640095218
513,1288872,1107720,0.147,-0.98,-0.392,-143.5,242.2,420.1,4,13.5,-27.1,0.537217322,-0.532181768,-0.143101291,-0.638477737
514,1290917,1107720,0.109,-0.928,-0.262,-150.5,224.5,421.1,4,13.5,-27.1,0.542008728,-0.532090213,-0.13348796,-0.636585589
515,1293174,1107720,0.669,-0.631,-0.007,-133.6,202.7,399.2,5.6,13.7,-26.5,0.546555986,-0.531998657,-0.124576556,-0.634571368
516,1295517,1107720,0.826,-0.712,0.04,-105.5,174.1,362,5.6,13.7,-26.5,0.550798059,-0.531785028,-0.116794336,-0.632526627
517,1297502,1107730,0.992,-0.973,-0.02,-81.5,138.9,328.2,5.6,13.7,-26.5,0.554734947,-0.531693472,-0.110232856,-0.630390332
518,1299788,1107730,1.168,-1.234,0.012,-71.4,103.3,315.2,5.6,13.7,-26.5,0.558458205,-0.531876583,-0.104342784,-0.627918332
519,1303020,1107730,1.267,-1.576,-0.141,-75.9,75.2,324.9,7.4,13.8,-26.1,0.562181463,-0.532486953,-0.0986053041,-0.624988556
520,1305147,1107730,1.294,-1.714,-0.204,-86.7,59.5,347.7,7.4,13.8,-26.1,0.566026795,-0.533463546,-0.0926541948,-0.621601001
521,1307339,1107740,1.656,-1.616,0.312,-89.6,53.9,371.5,7.4,13.8,-26.1,0.570116276,-0.534562212,-0.0864284188,-0.617786187
522,1311220,1107740,2.634,-1.035,1.593,-69.1,50.4,390.7,7.4,13.8,-26.1,0.574663533,-0.535477767,-0.0803247169,-0.613605152
523,1313332,1107740,6.778,0.94,4.531,-13.4,37.4,407.8,8.3,13.7,-25.7,0.580004273,-0.535843989,-0.0748924223,-0.60893582
524,1315636,1107740,8.032,1.711,4.952,74,3.9,431,8.3,13.7,-25.7,0.586565752,-0.535538804,-0.070802942,-0.603381451
525,1317618,1107750,8.029,1.887,4.29,165.8,-53.2,466.3,8.3,13.7,-25.7,0.594531083,-0.53480636,-0.0682088687,-0.596514786
526,1319937,1107750,5.147,1.768,-1.026,231,-121,505.1,8.3,13.7,-25.7,0.60359508,-0.534073916,-0.0668965728,-0.588152715
527,1322160,1107750,3.641,2.969,-4.293,280.3,-180.5,518.3,8.9,12.5,-26,0.613177892,-0.533402509,-0.0668050172,-0.578753014
528,1326204,1107750,3.07,4.182,-6.505,375.6,-223.2,477.8,8.9,12.5,-26,0.623187963,-0.531846065,-0.0689413129,-0.569170202
529,1328389,1107760,2.86,5.169,-7.564,574.3,-248.7,386.1,8.9,12.5,-26,0.634205145,-0.52763451,-0.0750144963,-0.560075686
530,1330576,1107760,0.917,7.912,-7.995,870.4,-249.7,271.6,8.9,12.5,-26,0.646992401,-0.518997772,-0.0859401227,-0.551896725
531,1332968,1107760,-2.069,7.959,-7.943,1202.6,-206.5,144.4,8.6,10.3,-25.9,0.661732841,-0.504593036,-0.101657155,-0.545091098
532,1334493,1107760,-2.585,7.982,-5.933,1502.4,-102.6,-12.5,8.6,10.3,-25.9,0.677541429,-0.483809931,-0.121097446,-0.540513321
533,1338363,1107770,-1.441,7.85,-1.858,1675.2,51.2,-197.9,8.6,10.3,-25.9,0.692556536,-0.457594531,-0.14209418,-0.539170507
534,1340812,1107770,0.734,7.186,1.496,1613.9,213,-371.1,8.6,10.3,-25.9,0.704489273,-0.429273354,-0.161473434,-0.541550951
535,1342945,1107770,1.619,7.5,1.71,1252.4,336.4,-482.4,8.2,2.9,-29,0.711386456,-0.404156621,-0.175542467,-0.547471541
536,1344880,1107770,1.203,7.158,1.507,640.2,399.6,-513,8.2,2.9,-29,0.712302011,-0.387401959,-0.181493576,-0.556382946
537,1347160,1107780,-0.035,5.43,1.001,-69.9,410.3,-474.5,8.2,2.9,-29,0.707510605,-0.381572924,-0.178258614,-0.567461165
538,1350088,1107780,-0.41,4.189,0.939,-705.9,384,-393.5,8.2,2.9,-29,0.698110904,-0.386120182,-0.166814173,-0.579363384
539,1352469,1107780,-0.578,2.992,0.847,-1145.4,332.7,-303.6,10.2,1.5,-28.1,0.685598315,-0.398113956,-0.149784845,-0.590746788
540,1354691,1107780,-0.578,2.073,0.755,-1354.7,264.7,-231.9,10.2,1.5,-28.1,0.67137669,-0.4140141,-0.130314035,-0.600665304
541,1357893,1107790,-0.472,0.81,0.81,-1378.4,184.3,-190,10.2,1.5,-28.1,0.656666768,-0.431043428,-0.111209449,-0.608752709
542,1359955,1107790,-0.378,0.135,0.707,-1300.8,92.2,-175.9,10.2,1.5,-28.1,0.642048402,-0.447859127,-0.0942106388,-0.615039521
543,1363365,1107790,-0.225,-0.446,0.396,-1204,-10,-181.9,11.7,7.8,-27.1,0.627582629,-0.464339122,-0.0799584948,-0.619739372
544,1364781,1107790,-0.225,-0.446,0.396,-1204,-10,-181.9,11.7,7.8,-27.1,0.627582629,-0.464339122,-0.0799584948,-0.619739372
545,1367971,1107800,0.331,-1.473,-0.625,-1127,-217.3,-232.5,11.7,7.8,-27.1,0.597399823,-0.498519852,-0.0581377606,-0.625415815
546,1369451,1107800,0.613,-2.03,-0.923,-1150.6,-300.9,-274.2,11.7,7.8,-27.1,0.580523087,-0.517105625,-0.0493179113,-0.626972259
547,1373256,1107800,1.249,-2.758,-1.313,-1190.3,-356.4,-325.5,10.9,13.1,-25.8,0.562059389,-0.536515397,-0.0411999878,-0.628101444
548,1375528,1107800,4.209,-5.562,-1.947,-1226.4,-375.8,-378.3,10.9,13.1,-25.8,0.541917173,-0.556138798,-0.0334177679,-0.629169591
549,1376930,1107810,6.774,-8.094,-3.333,-1250.6,-365.9,-405,10.9,13.1,-25.8,0.52067629,-0.575395978,-0.0254829554,-0.630146184
550,1379810,1107810,6.919,-8.173,-4.62,-1261.6,-359.5,-347.3,10.9,13.1,-25.8,0.499649037,-0.594225898,-0.0165715506,-0.63002411
551,1383111,1107810,3.417,-8.103,-2.362,-1232.7,-396.4,-157.4,9,20.7,-22,0.48115482,-0.61281167,-0.00598162786,-0.626789148
552,1385433,1107810,2.139,-8.024,-0.432,-1099,-467.5,131.3,9,20.7,-22,0.468031861,-0.630542924,0.00585955382,-0.619067965
553,1387424,1107820,0.75,-6.66,0.464,-810.5,-501.3,401.5,9,20.7,-22,0.462263863,-0.64537492,0.0172124393,-0.607837153
554,1389637,1107820,0.005,-4.937,1.027,-402,-432.4,537.8,9,20.7,-22,0.463820307,-0.654866176,0.025757622,-0.596057009
555,1392886,1107820,-0.403,-2.814,1.418,9.3,-269.6,518.2,8.1,21.5,-21.2,0.470809046,-0.657948546,0.0302743614,-0.586901456
556,1394947,1107820,-0.176,-2.249,1.088,306.5,-87.9,402.2,8.1,21.5,-21.2,0.480391858,-0.655598621,0.0312509537,-0.581682791
557,1397272,1107830,0.252,-1.687,0.73,442.3,40.8,265.1,8.1,21.5,-21.2,0.490035707,-0.650227363,0.0298471023,-0.579760125
558,1401228,1107830,0.657,-1.356,0.331,442.3,88.6,154.9,8.1,21.5,-21.2,0.498184149,-0.644245735,0.0274056215,-0.57963805
559,1402848,1107830,1.435,-1.255,-0.278,372,71,88.4,9.2,20.2,-22.8,0.504470962,-0.639240699,0.0247199927,-0.57985168
560,1404834,1107830,1.619,-1.111,-0.427,297.5,27.7,62.9,9.2,20.2,-22.8,0.509384442,-0.63554796,0.0220954009,-0.579699087
561,1408021,1107840,1.712,-0.929,-0.605,259.9,-2.2,66.7,9.2,20.2,-22.8,0.513809626,-0.632648701,0.0197454756,-0.579058199
562,1410385,1107840,1.68,-0.762,-0.765,267.5,-0.8,87,9.2,20.2,-22.8,0.518601032,-0.62959685,0.0175481429,-0.578173162
563,1412476,1107840,1.477,0.031,-0.583,301,25.7,112.9,9.5,19.6,-23.2,0.5241554,-0.625812555,0.0155949583,-0.577349162
564,1414574,1107840,1.477,0.031,-0.583,301,25.7,112.9,9.5,19.6,-23.2,0.5241554,-0.625812555,0.0155949583,-0.577349162
565,1418611,1107850,1.241,-0.172,-0.069,320.9,71.9,158.1,9.5,19.6,-23.2,0.536606952,-0.616595965,0.012939848,-0.575853755
566,1420788,1107850,1.303,-0.571,0.055,280.4,62.4,169.6,9.5,19.6,-23.2,0.542497024,-0.612475967,0.0124210334,-0.574785607
567,1423052,1107850,1.228,-0.801,0.006,230.6,35.9,170.3,9.4,18.5,-24.3,0.547685171,-0.609241005,0.0122379223,-0.573290201
568,1424512,1107850,1.094,-0.998,-0.061,202.1,8.3,161.8,9.4,18.5,-24.3,0.552385022,-0.60667745,0.0119632557,-0.571520127
569,1428634,1107860,0.936,-1.289,-0.21,211.5,-7.1,149.5,9.4,18.5,-24.3,0.557054353,-0.604144414,0.0112308115,-0.569658498
570,1430767,1107860,1.017,-0.458,-0.162,256.9,-8.4,137.5,9.4,18.5,-24.3,0.562120426,-0.601092563,0.00973540452,-0.567918943
571,1433068,1107860,1.001,-0.435,-0.252,319.3,-0.2,129,10.2,18.1,-23.8,0.567888424,-0.597125156,0.00747703482,-0.566393017
572,1435427,1107860,1.09,0.321,-0.067,374.4,10.6,125.5,10.2,18.1,-23.8,0.574297311,-0.59233375,0.00460829493,-0.565019684
573,1438324,1107870,1.127,0.062,-0.318,399.9,19,129.4,10.2,18.1,-23.8,0.581041902,-0.58702353,0.00158696249,-0.56367687
574,1440711,1107870,1.057,0.09,-0.325,396.4,23.3,138.1,10.2,18.1,-23.8,0.587786493,-0.581682791,-0.00119022187,-0.562211982
575,1443067,1107870,1.09,0.645,-0.275,383,22.9,143.7,10.5,16.2,-24.7,0.594409009,-0.576494644,-0.00378429518,-0.560625019
576,1444935,1107870,1.141,0.702,-0.335,381,18.5,138.3,10.5,16.2,-24.7,0.600848415,-0.571275979,-0.0064394055,-0.559007538
577,1447167,1107880,0.996,1.343,-0.103,399.7,11.7,119.8,10.5,16.2,-24.7,0.60728782,-0.565904721,-0.0096743675,-0.557512131
578,1450402,1107880,0.923,1.739,0.042,431.5,3.9,93,10.5,16.2,-24.7,0.613727226,-0.560136723,-0.0137333293,-0.556199835
579,1452583,1107880,0.772,1.883,0.095,462.3,-3.7,63.5,10.4,14.7,-25,0.620105594,-0.553971984,-0.0186162908,-0.555131687
580,1454694,1107880,0.657,2.097,0.359,475,-12.2,36.6,10.4,14.7,-25,0.626239814,-0.547685171,-0.0240485855,-0.554277169
581,1457294,1107890,0.483,1.981,0.668,459.5,-22.1,13.3,10.4,14.7,-25,0.63185522,-0.541673025,-0.0297860652,-0.553544725
582,1461015,1107890,0.408,2.406,1.006,418.2,-34.3,-8.3,10.4,14.7,-25,0.636646626,-0.536271249,-0.035401471,-0.552964873
583,1463286,1107890,0.275,2.342,1.137,353.5,-48.6,-29.7,10.5,12.6,-26,0.640369884,-0.531907102,-0.0406811731,-0.552507096
584,1464924,1107890,0.275,2.342,1.137,353.5,-48.6,-29.7,10.5,12.6,-26,0.640369884,-0.531907102,-0.0406811731,-0.552507096
585,1467203,1107900,0.253,0.715,0.859,159.9,-73.1,-55.1,10.5,12.6,-26,0.643910031,-0.527481918,-0.0489211707,-0.551988281
586,1470529,1107900,0.295,0.477,0.882,61.4,-77.1,-48.8,10.5,12.6,-26,0.64394055,-0.527512436,-0.0513016144,-0.551713614
587,1472467,1107900,0.314,0.289,0.874,-3.8,-73.9,-33.5,10,11.7,-26.3,0.643421735,-0.528397473,-0.0526749474,-0.551347392
588,1474955,1107900,0.391,-0.005,0.799,-29.3,-65.9,-19.4,10,11.7,-26.3,0.642780847,-0.529587695,-0.0534684286,-0.550889615
589,1477151,1107910,0.413,-0.143,0.721,-29.2,-57.1,-13.9,10,11.7,-26.3,0.642200995,-0.530655843,-0.0540787988,-0.550462355
590,1480509,1107910,0.428,-0.261,0.638,-22.6,-50.9,-17.2,10,11.7,-26.3,0.641651662,-0.531571398,-0.0547196875,-0.550126652
591,1482345,1107910,0.47,-0.489,0.473,-21.5,-48.2,-25.1,9.9,11,-26.5,0.64107181,-0.532425916,-0.0554216132,-0.549943541
592,1485618,1107910,0.508,-0.642,0.391,-28.9,-48.4,-32.3,9.9,11,-26.5,0.640278329,-0.53337199,-0.0561235389,-0.549882504
593,1487986,1107920,0.585,-0.757,0.347,-42.5,-50,-36.1,9.9,11,-26.5,0.639271218,-0.534531693,-0.0567339091,-0.549851985
594,1489938,1107920,0.667,-0.833,0.361,-57.7,-50.9,-35.9,9.9,11,-26.5,0.638111515,-0.535905026,-0.0571611682,-0.549821467
595,1493379,1107920,0.819,-0.999,0.397,-70.3,-49.3,-32.6,9.4,11.5,-26.3,0.636829737,-0.537430952,-0.0574053163,-0.549790948
596,1494972,1107920,0.854,-1.062,0.413,-78.1,-44.1,-27,9.4,11.5,-26.3,0.63554796,-0.539017914,-0.0574053163,-0.549729911
597,1497326,1107930,0.835,-1.07,0.436,-80.5,-36.2,-19.6,9.4,11.5,-26.3,0.634296701,-0.54054384,-0.0571611682,-0.549699393
598,1500323,1107930,0.792,-1.096,0.437,-78.9,-27.7,-11,9.4,11.5,-26.3,0.633198035,-0.541947691,-0.0567339091,-0.549607837
599,1503318,1107930,0.799,-1.112,0.363,-75.4,-21.7,-2.6,9.2,11.9,-26.5,0.632251961,-0.543229469,-0.0561540574,-0.549485763
600,1504643,1107930,0.83,-1.101,0.362,-72.7,-19.7,3.6,9.2,11.9,-26.5,0.631427961,-0.544480728,-0.0555131687,-0.549272134
601,1507907,1107940,0.874,-1.047,0.393,-71.9,-21.1,7.1,9.2,11.9,-26.5,0.630603961,-0.545731986,-0.05487228,-0.549027985
602,1511102,1107940,0.901,-0.977,0.443,-73.2,-22.4,9.1,9.2,11.9,-26.5,0.629840999,-0.547013764,-0.0542008728,-0.5487228
603,1513265,1107940,0.894,-0.828,0.474,-76.7,-20.6,10.8,8.7,12.1,-25.8,0.629016999,-0.54832606,-0.0534379101,-0.548417615
604,1514646,1107940,0.894,-0.828,0.474,-76.7,-20.6,10.8,8.7,12.1,-25.8,0.629016999,-0.54832606,-0.0534379101,-0.548417615
605,1517869,1107950,0.856,-0.64,0.467,-85.6,-3.4,10.4,8.7,12.1,-25.8,0.627246925,-0.550859096,-0.05139317,-0.548081912
606,1520740,1107950,0.809,-0.444,0.447,-87.9,8.7,6,8.7,12.1,-25.8,0.626270333,-0.551957762,-0.0501419111,-0.548203986
607,1522199,1107950,0.77,-0.357,0.421,-87.7,20.3,-1.1,8.5,12.5,-26.1,0.625232704,-0.552934355,-0.0488296152,-0.548570208
608,1525272,1107950,0.739,-0.31,0.378,-85.2,30.4,-10.2,8.5,12.5,-26.1,0.624103519,-0.553697317,-0.0475173193,-0.54915006
609,1528319,1107960,0.72,-0.255,0.339,-81.3,39,-19.7,8.5,12.5,-26.1,0.622943815,-0.554338206,-0.0462660604,-0.549974059
610,1529684,1107960,0.657,-0.208,0.258,-76.4,46.3,-29.1,8.5,12.5,-26.1,0.621692557,-0.554765465,-0.0450758385,-0.551011689
611,1532868,1107960,0.641,-0.184,0.227,-69.9,52.3,-38.1,10,12.2,-25.8,0.620441298,-0.555040132,-0.0439771722,-0.552232429
612,1535745,1107960,0.637,-0.165,0.219,-61.5,57,-47.3,10,12.2,-25.8,0.619190039,-0.555162206,-0.0430005799,-0.55363628
613,1537280,1107970,0.629,-0.168,0.211,-50.9,60.7,-57,10,12.2,-25.8,0.61793878,-0.555040132,-0.0422681356,-0.555192724
614,1540458,1107970,0.602,-0.141,0.224,-38.1,63.9,-66.9,10,12.2,-25.8,0.616718039,-0.554734947,-0.0417798395,-0.556901761
615,1541951,1107970,0.587,-0.097,0.232,-23.2,67.1,-76.1,8.7,14,-25.6,0.615588855,-0.554155095,-0.0415051729,-0.558732871
616,1544864,1107970,0.575,-0.046,0.236,-7,70.5,-84.5,8.7,14,-25.6,0.614520707,-0.553300577,-0.0415051729,-0.560747093
617,1547046,1107980,0.56,0.039,0.236,8.9,73.9,-92.5,8.7,14,-25.6,0.613574633,-0.55220191,-0.041749321,-0.56285287
618,1550050,1107980,0.56,0.101,0.236,23.3,77.1,-100.7,8.7,14,-25.6,0.612689596,-0.550859096,-0.0422070986,-0.56511124
619,1553254,1107980,0.556,0.168,0.247,35,80.2,-109.3,8.7,13.9,-25.8,0.611804559,-0.549302652,-0.0428785058,-0.567522202
620,1554629,1107980,0.541,0.231,0.252,42.9,83,-118.3,8.7,13.9,-25.8,0.610950041,-0.547563097,-0.0437025056,-0.570055239
621,1557910,1107990,0.518,0.329,0.256,46.3,85,-127.7,8.7,13.9,-25.8,0.609973449,-0.545762505,-0.0446790979,-0.572710349
622,1561059,1107990,0.502,0.353,0.236,44.7,85.5,-137.2,8.7,13.9,-25.8,0.608874783,-0.543931394,-0.0457472457,-0.575518052
623,1562445,1107990,0.494,0.36,0.205,38.4,83.9,-147,8.8,13.9,-25.7,0.607562487,-0.542252876,-0.046845912,-0.57841731
624,1564637,1107990,0.494,0.36,0.205,38.4,83.9,-147,8.8,13.9,-25.7,0.607562487,-0.542252876,-0.046845912,-0.57841731
625,1567873,1108000,0.466,0.356,0.127,16.9,73.5,-166,8.8,13.9,-25.7,0.604174932,-0.539353618,-0.0491958373,-0.584429456
626,1571354,1108000,0.47,0.345,0.131,4.8,64.6,-175.1,8.8,13.9,-25.7,0.602069155,-0.53828547,-0.0504776147,-0.587511826
627,1572917,1108000,0.474,0.341,0.143,-6.9,53.3,-184.2,9.2,14.5,-25.6,0.599688711,-0.537491989,-0.0518509476,-0.590563677
628,1575903,1108000,0.478,0.325,0.174,-6.9,53.3,-184.2,9.2,14.5,-25.6,0.597277749,-0.536667989,-0.0532242805,-0.593585009
629,1577217,1108010,0.49,0.302,0.178,-18.6,39.7,-193.9,9.2,14.5,-25.6,0.59459212,-0.536179693,-0.0547196875,-0.596606342
630,1580436,1108010,0.505,0.262,0.178,-30.8,24.3,-204.7,9.2,14.5,-25.6,0.591570788,-0.535996582,-0.056428724,-0.599566637
631,1581922,1108010,0.552,0.215,0.189,-59.7,-9.4,-230.6,9.9,13.8,-25.6,0.58784753,-0.536606952,-0.0584429456,-0.602496414
632,1584796,1108010,0.591,0.202,0.2,-59.7,-9.4,-230.6,9.9,13.8,-25.6,0.584093753,-0.537217322,-0.0604876858,-0.605426191
633,1587988,1108020,0.63,0.17,0.199,-76.1,-26.6,-245,9.9,13.8,-25.6,0.579912717,-0.538193915,-0.0626850185,-0.608325449
634,1591089,1108020,0.685,0.15,0.218,-93.5,-43,-259.6,9.9,13.8,-25.6,0.575304422,-0.539597766,-0.0650349437,-0.611224708
635,1593180,1108020,0.818,0.14,0.231,-111.5,-58.2,-274,8.5,14.8,-25.2,0.57023835,-0.54136784,-0.0674764245,-0.614123966
636,1594628,1108020,0.884,0.119,0.234,-130.4,-71.5,-287.1,8.5,14.8,-25.2,0.564745018,-0.543504135,-0.0700399792,-0.617023225
637,1597627,1108030,0.95,0.103,0.232,-150.9,-82.4,-298.3,8.5,14.8,-25.2,0.558793909,-0.546006653,-0.0725730155,-0.619922483
638,1600656,1108030,1.009,0.043,0.22,-173.7,-90.4,-306.3,8.5,14.8,-25.2,0.55241554,-0.548844874,-0.0749534593,-0.62285226
639,1602033,1108030,1.122,0.01,0.21,-199.3,-95.2,-310.2,8,15.7,-25.1,0.545640431,-0.552018799,-0.0771202734,-0.625751518
640,1604957,1108030,1.157,0.009,0.225,-226.8,-97,-309.4,8,15.7,-25.1,0.5384991,-0.555497909,-0.078890347,-0.628620258
641,1608197,1108040,1.18,-0.033,0.232,-255.1,-95.8,-303.7,8,15.7,-25.1,0.531052583,-0.559282205,-0.0801721244,-0.631427961
642,1610938,1108040,1.196,-0.061,0.24,-283.2,-92.5,-293,8,15.7,-25.1,0.523392438,-0.563280129,-0.0809350871,-0.634174627
643,1612358,1108040,1.184,-0.193,0.26,-310.6,-87.8,-277,7.4,17.7,-24.8,0.515549181,-0.567522202,-0.0810571612,-0.6367687
644,1615479,1108040,1.184,-0.193,0.26,-310.6,-87.8,-277,7.4,17.7,-24.8,0.515549181,-0.567522202,-0.0810571612,-0.6367687
645,1616942,1108050,1.191,-0.42,0.198,-361.5,-79.1,-230.7,7.4,17.7,-24.8,0.499771111,-0.576677755,-0.0791650136,-0.641376995
646,1619880,1108050,1.202,-0.538,0.182,-381.6,-75.7,-204.3,7.4,17.7,-24.8,0.491927854,-0.581530198,-0.077211829,-0.643269143
647,1622973,1108050,1.163,-0.596,0.202,-394.6,-72.3,-180.4,6.7,19.1,-23.8,0.484267708,-0.586443678,-0.0747398297,-0.644917142
648,1624398,1108050,1.151,-0.627,0.207,-398.2,-67.2,-162.4,6.7,19.1,-23.8,0.476729637,-0.591296121,-0.0719321268,-0.646412549
649,1627334,1108060,1.131,-0.744,0.148,-393.3,-59.9,-150.9,6.7,19.1,-23.8,0.469435713,-0.595995972,-0.0689413129,-0.647785882
650,1630469,1108060,1.138,-0.842,0.07,-382.3,-50.6,-144.5,6.7,19.1,-23.8,0.4623249,-0.600360118,-0.065950499,-0.649159215
651,1631931,1108060,1.13,-0.861,0.078,-345.9,-26.4,-141.6,5.4,20.5,-22.9,0.455732902,-0.60402234,-0.0631733146,-0.650715659
652,1634839,1108060,1.103,-0.877,0.09,-345.9,-26.4,-141.6,5.4,20.5,-22.9,0.449110385,-0.607623524,-0.0603961303,-0.652241585
653,1638109,1108070,1.084,-0.829,0.122,-318.2,-10,-144.4,5.4,20.5,-22.9,0.442793054,-0.610675375,-0.057863094,-0.653920103
654,1640551,1108070,1.073,-0.696,0.189,-283.8,8.6,-149.1,5.4,20.5,-22.9,0.436902982,-0.613086337,-0.0556962798,-0.65581225
655,1643158,1108070,1.073,-0.625,0.2,-244.9,27.2,-154.5,5.1,21.4,-22.5,0.431440168,-0.614825892,-0.0539872433,-0.657948546
656,1644896,1108070,1.069,-0.531,0.216,-205.6,43.5,-159.2,5.1,21.4,-22.5,0.426435133,-0.615955077,-0.0527665029,-0.660267953
657,1647223,1108080,1.027,-0.406,0.193,-170.2,56.2,-162,5.1,21.4,-22.5,0.421857356,-0.61650441,-0.0520035401,-0.662709433
658,1650405,1108080,1.015,-0.375,0.158,-142.2,65.4,-162.2,5.1,21.4,-22.5,0.417676321,-0.616687521,-0.051515244,-0.66524247
659,1652487,1108080,0.999,-0.339,0.131,-123.2,71.7,-160.2,4.6,22.3,-21.8,0.413769951,-0.616595965,-0.0512405774,-0.667775506
660,1654729,1108080,1.003,-0.328,0.095,-112.6,75.4,-157.5,4.6,22.3,-21.8,0.410046693,-0.616321299,-0.0510269478,-0.670339061
661,1657037,1108090,1.01,-0.305,0.025,-108,77,-155.6,4.6,22.3,-21.8,0.406384472,-0.615985595,-0.0508133183,-0.672902615
662,1660403,1108090,1.026,-0.293,0.001,-107.2,76.4,-156.4,4.6,22.3,-21.8,0.402722251,-0.615619373,-0.0506912442,-0.675405133
663,1662070,1108090,1.053,-0.29,-0.018,-108.8,73.7,-160.7,4.6,23.2,-21.6,0.398968474,-0.615314188,-0.0505691702,-0.677938169
664,1666233,1108090,1.053,-0.29,-0.018,-108.8,73.7,-160.7,4.6,23.2,-21.6,0.398968474,-0.615314188,-0.0505691702,-0.677938169
665,1668439,1108100,1.115,-0.354,-0.055,-119.7,63.2,-178.1,4.6,23.2,-21.6,0.390850551,-0.614978484,-0.0506607257,-0.682943205
666,1670667,1108100,1.139,-0.386,-0.067,-129.8,57,-189.2,4.6,23.2,-21.6,0.38636433,-0.615009003,-0.0507827998,-0.685476241
667,1672978,1108100,1.205,-0.418,-0.091,-143,50.8,-201,4,23.5,-20.7,0.381481368,-0.615222633,-0.0509048738,-0.687978759
668,1674868,1108100,1.361,-0.519,-0.114,-158.1,45.3,-212.6,4,23.5,-20.7,0.376201666,-0.615619373,-0.0509964293,-0.690542314
669,1677300,1108110,1.396,-0.57,-0.087,-173.5,42,-222.9,4,23.5,-20.7,0.370555742,-0.616138188,-0.0510269478,-0.693105869
670,1680626,1108110,1.4,-0.617,-0.067,-187.4,41.6,-230.3,4,23.5,-20.7,0.364604633,-0.616748558,-0.0509659108,-0.695730461
671,1683046,1108110,1.368,-0.725,-0.027,-204.8,47.6,-231.9,2.5,24,-20.2,0.358348338,-0.617389447,-0.0505691702,-0.698416089
672,1684965,1108110,1.341,-0.772,-0.011,-204.8,47.6,-231.9,2.5,24,-20.2,0.352122562,-0.617999817,-0.0502334666,-0.7010712
673,1687425,1108120,1.313,-0.795,0.012,-207,50.1,-226.6,2.5,24,-20.2,0.345896786,-0.61854915,-0.0497146519,-0.70372631
674,1689572,1108120,1.274,-0.825,0.036,-204.5,49.7,-218.6,2.5,24,-20.2,0.339823603,-0.619098483,-0.0491653188,-0.706228828
675,1693062,1108120,1.141,-0.932,0.004,-197.7,46.1,-209.7,4,24.5,-19.5,0.333964049,-0.619617298,-0.0486159856,-0.708609272
676,1695072,1108120,1.067,-0.966,0.001,-186.6,40.5,-201.3,4,24.5,-19.5,0.328379162,-0.620105594,-0.0481276894,-0.710806604
677,1697278,1108130,1.013,-0.914,0.057,-171.4,35.4,-193.6,4,24.5,-19.5,0.323068941,-0.62059389,-0.0478530229,-0.712851344
678,1699560,1108130,0.955,-0.827,0.144,-152,33.1,-187.1,4,24.5,-19.5,0.318124943,-0.620929594,-0.0477919858,-0.71477401
679,1703280,1108130,0.866,-0.786,0.228,-129.9,34,-181.5,2.7,24.9,-18.9,0.313577685,-0.621112705,-0.0479750969,-0.716605121
680,1704811,1108130,0.842,-0.821,0.228,-109.2,36.1,-177,2.7,24.9,-18.9,0.309366131,-0.621082186,-0.0484328745,-0.718436232
681,1707280,1108140,0.838,-0.871,0.217,-94.2,36.2,-173.3,2.7,24.9,-18.9,0.305398724,-0.620960112,-0.0490432447,-0.720175787
682,1711417,1108140,0.845,-0.911,0.197,-85.4,32.5,-170.9,2.7,24.9,-18.9,0.301583911,-0.620838038,-0.0498062075,-0.721854305
683,1713699,1108140,0.908,-0.943,0.172,-79.6,25.7,-170.8,2.4,25.2,-18.6,0.297860652,-0.620777001,-0.0506912442,-0.723410749
684,1715791,1108140,0.908,-0.943,0.172,-79.6,25.7,-170.8,2.4,25.2,-18.6,0.297860652,-0.620777001,-0.0506912442,-0.723410749
685,1718559,1108150,0.923,-0.955,0.176,-61.2,14.3,-176,2.4,25.2,-18.6,0.290566729,-0.620715964,-0.0531022065,-0.72624897
686,1721021,1108150,0.924,-0.904,0.223,-48.1,13.9,-177.3,2.4,25.2,-18.6,0.287118137,-0.62059389,-0.0546586505,-0.727591784
687,1723858,1108150,0.928,-0.861,0.246,-36.2,17.2,-175.4,2.1,25.8,-18.3,0.283852657,-0.620319224,-0.0563371685,-0.728965117
688,1726037,1108150,0.94,-0.85,0.246,-28.4,22.6,-170.4,2.1,25.8,-18.3,0.280800806,-0.619922483,-0.058046205,-0.730368969
689,1728264,1108160,0.932,-0.861,0.246,-26.9,27.7,-163.1,2.1,25.8,-18.3,0.277809992,-0.619434187,-0.059663686,-0.73177282
690,1730563,1108160,0.908,-0.888,0.212,-31.8,30.8,-154.3,2.1,25.8,-18.3,0.275002289,-0.618945891,-0.061037019,-0.733146153
691,1732503,1108160,0.932,-0.885,0.203,-48.8,29.1,-137.8,-0.6,25.6,-18.1,0.272164068,-0.618579669,-0.0619525742,-0.734427931
692,1734832,1108160,0.951,-0.873,0.203,-48.8,29.1,-137.8,-0.6,25.6,-18.1,0.269356365,-0.618213446,-0.0628681295,-0.735709708
693,1737018,1108170,0.967,-0.858,0.21,-52.7,25.6,-132.3,-0.6,25.6,-18.1,0.266548662,-0.617908261,-0.0636616108,-0.73689993
694,1741486,1108170,0.971,-0.768,0.238,-50.9,21.8,-128.2,-0.6,25.6,-18.1,0.263832514,-0.617694632,-0.0644245735,-0.738029115
695,1743462,1108170,0.979,-0.729,0.249,-44.1,18,-124.9,0,25.9,-18.2,0.261238441,-0.617481002,-0.0653096103,-0.739036225
696,1744874,1108170,0.999,-0.69,0.229,-34.9,14.3,-122.2,0,25.9,-18.2,0.258827479,-0.617267373,-0.0662862026,-0.739982299
697,1747211,1108180,1.05,-0.633,0.212,-25.2,10.4,-120.8,0,25.9,-18.2,0.256538591,-0.617053743,-0.0674764245,-0.740836818
698,1750299,1108180,1.065,-0.594,0.196,-16.4,6.5,-120.8,0,25.9,-18.2,0.254371776,-0.616870632,-0.0687887204,-0.741630299
699,1753258,1108180,1.089,-0.563,0.188,-8.5,3.5,-121.5,-0.4,25.9,-18.1,0.252296518,-0.616657002,-0.0702536088,-0.742362743
700,1754757,1108180,1.116,-0.509,0.191,-1.1,1.8,-122.2,-0.4,25.9,-18.1,0.250312815,-0.616443373,-0.0718710898,-0.74303415
701,1756997,1108190,1.156,-0.412,0.206,5.7,1.4,-122.2,-0.4,25.9,-18.1,0.248390149,-0.616199225,-0.0736106449,-0.743705557
702,1760825,1108190,1.171,-0.424,0.19,11.9,1.9,-121.8,-0.4,25.9,-18.1,0.246589557,-0.615924558,-0.0754417554,-0.744376965
703,1762172,1108190,1.167,-0.369,0.186,16.7,2.3,-121.5,-0.5,25.8,-18.1,0.244850002,-0.615588855,-0.077333903,-0.745048372
704,1766039,1108190,1.167,-0.369,0.186,16.7,2.3,-121.5,-0.5,25.8,-18.1,0.244850002,-0.615588855,-0.077333903,-0.745048372
705,1767345,1108200,1.207,-0.295,0.217,25.3,0.5,-124.4,-0.5,25.8,-18.1,0.241431928,-0.61485641,-0.0813623463,-0.746299631
706,1770571,1108200,1.192,-0.221,0.232,31.4,-1.8,-126.8,-0.5,25.8,-18.1,0.239783929,-0.614490188,-0.0835901975,-0.746879482
707,1771874,1108200,1.149,-0.099,0.256,39.1,-4.4,-128.6,-1.7,25.8,-18.2,0.238227485,-0.614123966,-0.0859706412,-0.747428816
708,1774693,1108200,1.091,0.019,0.312,46.2,-5.9,-128.7,-1.7,25.8,-18.2,0.236732078,-0.613757744,-0.088473159,-0.747917112
709,1777403,1108210,1.095,0,0.312,49.4,-6.4,-126.7,-1.7,25.8,-18.2,0.235297708,-0.613361003,-0.0910367138,-0.748405408
710,1780586,1108210,1.083,-0.019,0.305,45.6,-6.4,-122.6,-1.7,25.8,-18.2,0.233893857,-0.612964263,-0.093447676,-0.748863186
711,1781906,1108210,1.083,-0.019,0.305,45.6,-6.4,-122.6,-1.7,25.8,-18.2,0.233893857,-0.612964263,-0.093447676,-0.748863186
712,1785169,1108210,0.997,-0.034,0.287,19,-6.8,-110.3,-2.6,25.2,-18.6,0.230872524,-0.612445448,-0.0974456008,-0.749717704
713,1787440,1108220,0.978,-0.022,0.271,2.9,-6.1,-105,-2.6,25.2,-18.6,0.229194006,-0.612292856,-0.0989104892,-0.750144963
714,1789593,1108220,0.966,-0.084,0.236,-10.8,-3.9,-102,-2.6,25.2,-18.6,0.227362896,-0.6122013,-0.10013123,-0.750633259
715,1792524,1108220,0.922,-0.107,0.186,-20.5,0,-102,-3.3,25,-18.2,0.225409711,-0.612079226,-0.10113834,-0.751182592
716,1795502,1108220,0.914,-0.111,0.147,-25.4,5.8,-103.4,-3.3,25,-18.2,0.223395489,-0.611865596,-0.102084414,-0.751823481
717,1796953,1108230,0.891,-0.037,0.132,-26.5,12.4,-104.7,-3.3,25,-18.2,0.221350749,-0.611560411,-0.102969451,-0.752555925
718,1799886,1108230,0.899,-0.009,0.104,-25.3,18.3,-105,-3.3,25,-18.2,0.219336528,-0.611163671,-0.103885006,-0.753349406
719,1802366,1108230,0.941,-0.014,0.053,-25,21.2,-104.2,-3.3,24.7,-18.1,0.217322306,-0.610675375,-0.104770043,-0.754203925
720,1804818,1108230,0.941,-0.026,0.029,-27.7,20,-102.8,-3.3,24.7,-18.1,0.215308084,-0.610248115,-0.105563524,-0.754997406
721,1808235,1108240,0.949,-0.015,0.017,-33.9,14.9,-102,-3.3,24.7,-18.1,0.213202307,-0.60994293,-0.106295969,-0.755760369
722,1810052,1108240,0.984,-0.023,0.013,-41.2,7.1,-102.5,-3.3,24.7,-18.1,0.210974456,-0.609759819,-0.106967376,-0.756431776
723,1811894,1108240,1.047,0.006,0.07,-46.9,-1.6,-104.8,-4,24.9,-17.7,0.208624531,-0.609759819,-0.107577746,-0.756981109
724,1815118,1108240,1.047,0.006,0.07,-46.9,-1.6,-104.8,-4,24.9,-17.7,0.208624531,-0.609759819,-0.107577746,-0.756981109
725,1816990,1108250,1.075,0.018,0.128,-48.8,-17.1,-109.5,-4,24.9,-17.7,0.203650014,-0.610126041,-0.108951079,-0.757835627
726,1820461,1108250,1.044,0.046,0.164,-47.7,-21.7,-109.7,-4,24.9,-17.7,0.201147496,-0.610461745,-0.10974456,-0.758140812
727,1822070,1108250,1.044,0.03,0.168,-48.1,-23.6,-108.1,-4.1,24.6,-16.7,0.198675497,-0.610797449,-0.110446486,-0.758415479
728,1825100,1108250,1.028,0.023,0.153,-52.1,-23.2,-105.2,-4.1,24.6,-16.7,0.196172979,-0.611133152,-0.111117893,-0.758690146
729,1826928,1108260,1.032,0.011,0.145,-59.8,-21.4,-101.1,-4.1,24.6,-16.7,0.193670461,-0.611499374,-0.111575671,-0.758995331
730,1830033,1108260,1.039,0.014,0.094,-70.4,-18.6,-96.3,-4.1,24.6,-16.7,0.191076388,-0.611865596,-0.111758782,-0.759300516
731,1833422,1108260,1.039,0.014,0.094,-70.4,-18.6,-96.3,-4.1,24.6,-16.7,0.191076388,-0.611865596,-0.111758782,-0.759300516
732,1834997,1108260,0.992,-0.039,0.06,-95.8,-9.4,-86.3,-5,25.3,-18.8,0.185247353,-0.612475967,-0.111423078,-0.760307627
733,1837286,1108270,0.96,-0.128,0.037,-109.3,-2.9,-81.7,-5,25.3,-18.8,0.182409131,-0.612781152,-0.110721152,-0.76085696
734,1840610,1108270,0.909,-0.244,0.026,-122.1,3.7,-77.4,-5,25.3,-18.8,0.179509873,-0.6130253,-0.109714042,-0.761528367
735,1842923,1108270,0.901,-0.272,0.03,-131.7,8.4,-73.2,-5.5,25.3,-16.4,0.176549577,-0.613208411,-0.108493301,-0.762230293
736,1844895,1108270,0.893,-0.299,0.027,-136,9.3,-68.9,-5.5,25.3,-16.4,0.173589282,-0.61342204,-0.107119968,-0.762932218
737,1847250,1108280,0.885,-0.322,0.019,-135,6.2,-64.8,-5.5,25.3,-16.4,0.170720542,-0.613666189,-0.105716117,-0.763573107
738,1849703,1108280,0.889,-0.342,0.011,-130.3,0.4,-60.8,-5.5,25.3,-16.4,0.167973876,-0.614001892,-0.104342784,-0.764091922
739,1853785,1108280,0.893,-0.35,0.007,-124.4,-5.8,-57,-5.7,25.8,-15.6,0.165318766,-0.614429151,-0.103061007,-0.764519181
740,1856393,1108280,0.893,-0.369,0.007,-119.1,-10.9,-53.1,-5.7,25.8,-15.6,0.162816248,-0.614917447,-0.101809748,-0.764824366
741,1858508,1108290,0.901,-0.401,0.023,-115.3,-14.1,-49.2,-5.7,25.8,-15.6,0.160435804,-0.615436262,-0.100619526,-0.765068514
742,1859917,1108290,0.893,-0.412,0.031,-112.5,-15.5,-45.2,-5.7,25.8,-15.6,0.158116398,-0.615985595,-0.0993987854,-0.765251625
743,1862033,1108290,0.889,-0.42,0.043,-110,-15.9,-41.2,-5.8,25.9,-15.3,0.155919065,-0.616534928,-0.0981475265,-0.765434736
744,1865774,1108290,0.889,-0.42,0.043,-110,-15.9,-41.2,-5.8,25.9,-15.3,0.155919065,-0.616534928,-0.0981475265,-0.765434736
745,1867618,1108300,0.893,-0.459,0.082,-105.3,-16.1,-33.9,-5.8,25.9,-15.3,0.151799066,-0.617633595,-0.0956755272,-0.765678884
746,1869776,1108300,0.897,-0.478,0.097,-102.7,-16.3,-30.6,-5.8,25.9,-15.3,0.149845882,-0.618152409,-0.0944242683,-0.76577044
747,1872096,1108300,0.901,-0.482,0.105,-99.8,-16.7,-27.5,-6.4,25.5,-14.7,0.148014771,-0.618732261,-0.0931730094,-0.765831477
748,1874772,1108300,0.909,-0.486,0.125,-96.8,-17,-24.6,-6.4,25.5,-14.7,0.146244697,-0.619281594,-0.0919522691,-0.765892514
749,1877539,1108310,0.909,-0.49,0.136,-93.7,-17.2,-21.8,-6.4,25.5,-14.7,0.144596698,-0.619830927,-0.0907315287,-0.765923032
750,1880636,1108310,0.905,-0.482,0.144,-90.5,-17.3,-19.1,-6.4,25.5,-14.7,0.143009735,-0.620380261,-0.0895413068,-0.765923032
751,1883035,1108310,0.905,-0.482,0.144,-90.5,-17.3,-19.1,-6.4,25.5,-14.7,0.143009735,-0.620380261,-0.0895413068,-0.765923032
752,1884945,1108310,0.909,-0.478,0.172,-83.8,-17,-14.4,-6.1,26.5,-16.9,0.141148106,-0.621814631,-0.0860316782,-0.765495773
753,1887090,1108320,0.913,-0.47,0.179,-80.4,-16.7,-12.1,-6.1,26.5,-16.9,0.139805292,-0.622302927,-0.0849024934,-0.765465255
754,1890510,1108320,0.909,-0.466,0.187,-77,-16.4,-9.9,-6.1,26.5,-16.9,0.138584552,-0.622791223,-0.083803827,-0.765404218
755,1892566,1108320,0.917,-0.451,0.199,-73.9,-16.1,-7.5,-6.3,26,-14.6,0.137424848,-0.623279519,-0.0827051607,-0.765343181
756,1895081,1108320,0.913,-0.439,0.207,-70.8,-15.8,-5.2,-6.3,26,-14.6,0.136326182,-0.623737297,-0.0816370128,-0.765282144
757,1897149,1108330,0.913,-0.439,0.207,-68.1,-15.5,-3,-6.3,26,-14.6,0.135319071,-0.624195074,-0.0805993835,-0.765190588
758,1900946,1108330,0.91,-0.431,0.207,-65.7,-15.2,-0.8,-6.3,26,-14.6,0.134403516,-0.624652852,-0.0795617542,-0.765099033
759,1903328,1108330,0.902,-0.415,0.203,-63.4,-14.7,1.3,-6.3,26.8,-14.9,0.133518479,-0.625080111,-0.0785241249,-0.765007477
760,1905463,1108330,0.902,-0.415,0.199,-61.2,-14.3,3.4,-6.3,26.8,-14.9,0.132724998,-0.62550737,-0.0774864956,-0.764915922
761,1907514,1108340,0.902,-0.408,0.203,-58.8,-14.1,5.3,-6.3,26.8,-14.9,0.131992553,-0.625934629,-0.0764793847,-0.764793847
762,1911374,1108340,0.902,-0.404,0.199,-56.2,-13.9,7.1,-6.3,26.8,-14.9,0.131321146,-0.62633137,-0.0754722739,-0.764671773
763,1913736,1108340,0.898,-0.388,0.195,-53.4,-13.8,8.8,-6.4,26.8,-15.3,0.130710776,-0.626728111,-0.0744956816,-0.764549699
764,1915978,1108340,0.898,-0.388,0.195,-53.4,-13.8,8.8,-6.4,26.8,-15.3,0.130710776,-0.626728111,-0.0744956816,-0.764549699
765,1918249,1108350,0.902,-0.372,0.195,-47.6,-13.7,11.9,-6.4,26.8,-15.3,0.129703665,-0.627491073,-0.0726340526,-0.764275033
766,1920518,1108350,0.906,-0.361,0.191,-44.8,-13.7,13.4,-6.4,26.8,-15.3,0.129276406,-0.627887814,-0.0717490158,-0.76412244
767,1922513,1108350,0.91,-0.357,0.183,-42.2,-13.6,14.8,-6.2,26.9,-15.5,0.128940703,-0.628254036,-0.0708944975,-0.763939329
768,1924715,1108350,0.914,-0.357,0.187,-39.5,-13.6,16.1,-6.2,26.9,-15.5,0.128635517,-0.628620258,-0.0700399792,-0.763786737
769,1927144,1108360,0.914,-0.349,0.183,-36.9,-13.8,17.4,-6.2,26.9,-15.5,0.128391369,-0.628955962,-0.0692159795,-0.763603626
770,1929561,1108360,0.921,-0.338,0.175,-34.3,-13.9,18.5,-6.2,26.9,-15.5,0.128208258,-0.629322184,-0.0684224982,-0.763389996
771,1933118,1108360,0.921,-0.338,0.175,-34.3,-13.9,18.5,-6.2,26.9,-15.5,0.128208258,-0.629322184,-0.0684224982,-0.763389996
772,1935420,1108360,0.925,-0.326,0.167,-29.4,-14.3,21,-6.3,27,-14.3,0.129245888,-0.630237739,-0.0655232398,-0.762749107
773,1937490,1108370,0.933,-0.322,0.163,-26.8,-14.6,22.1,-6.3,27,-14.3,0.129215369,-0.630573443,-0.0647907956,-0.762504959
774,1939866,1108370,0.941,-0.307,0.163,-24.1,-15,23,-6.3,27,-14.3,0.129245888,-0.630939665,-0.0641193884,-0.762260811
775,1941997,1108370,0.945,-0.295,0.159,-21.5,-15.4,23.9,-6.1,27.2,-14.4,0.129306925,-0.631275369,-0.0634784997,-0.762016663
776,1944596,1108370,0.945,-0.287,0.159,-18.8,-15.8,24.7,-6.1,27.2,-14.4,0.129459517,-0.631641591,-0.0628681295,-0.761772515
777,1948991,1108380,0.957,-0.276,0.155,-16.1,-16.1,25.7,-6.1,27.2,-14.4,0.129642628,-0.631977294,-0.0622882778,-0.761497848
778,1951195,1108380,0.957,-0.264,0.155,-13.7,-16.2,26.6,-6.1,27.2,-14.4,0.129856258,-0.632343516,-0.0617389447,-0.761192663
779,1953537,1108380,0.961,-0.256,0.151,-11.7,-16.4,27.6,-6.3,26.9,-14,0.130100406,-0.63267922,-0.06122013,-0.760917997
780,1955801,1108380,0.968,-0.245,0.154,-10,-16.4,28.5,-6.3,26.9,-14,0.130466628,-0.633014924,-0.0607013153,-0.760612812
781,1958001,1108390,0.976,-0.233,0.158,-8.5,-16.5,29.4,-6.3,26.9,-14,0.130802332,-0.633350627,-0.0602130192,-0.760307627
782,1960070,1108390,0.984,-0.237,0.162,-7,-16.4,30,-6.3,26.9,-14,0.131168554,-0.633686331,-0.059724723,-0.760002441
783,1962308,1108390,0.98,-0.229,0.158,-5.2,-16.1,30.6,-6.3,27,-13.9,0.131595813,-0.633991516,-0.0592364269,-0.759697256
784,1966306,1108390,0.98,-0.229,0.158,-5.2,-16.1,30.6,-6.3,27,-13.9,0.131595813,-0.633991516,-0.0592364269,-0.759697256
785,1968489,1108400,0.976,-0.222,0.154,-2.2,-14.5,31.8,-6.3,27,-13.9,0.132511368,-0.634601886,-0.0583819086,-0.759117405
786,1970873,1108400,0.976,-0.214,0.162,-1.2,-13.7,32.4,-6.3,27,-13.9,0.133030183,-0.634876553,-0.0578936125,-0.758842738
787,1973047,1108400,0.98,-0.206,0.158,-0.7,-13.1,33.1,-6.1,27.2,-14.6,0.133548997,-0.635120701,-0.0574968719,-0.758568072
788,1974909,1108400,0.976,-0.202,0.162,-0.5,-12.8,33.9,-6.1,27.2,-14.6,0.134067812,-0.635395367,-0.0570696127,-0.758293405
789,1977273,1108410,0.976,-0.194,0.158,-0.6,-12.6,34.5,-6.1,27.2,-14.6,0.134617145,-0.635639515,-0.0566118351,-0.758018738
790,1979561,1108410,0.973,-0.198,0.166,-1.1,-12.5,35.1,-6.1,27.2,-14.6,0.135166478,-0.635883663,-0.0561540574,-0.757744072
791,1982055,1108410,0.973,-0.198,0.166,-1.1,-12.5,35.1,-6.1,27.2,-14.6,0.135166478,-0.635883663,-0.0561540574,-0.757744072
792,1986530,1108410,0.973,-0.186,0.17,-2.8,-12.3,35.5,-5.8,27.5,-13,0.137058626,-0.636738182,-0.0541398358,-0.756828516
793,1988707,1108420,0.965,-0.186,0.17,-3.9,-12.2,35.3,-5.8,27.5,-13,0.137577441,-0.63698233,-0.0536210211,-0.75655385
794,1990962,1108420,0.965,-0.182,0.174,-5.2,-11.9,35.1,-5.8,27.5,-13,0.138065737,-0.637256996,-0.053071688,-0.756309702
795,1993372,1108420,0.961,-0.182,0.174,-6.4,-11.4,34.8,-5.4,26.9,-14.6,0.138523515,-0.637501144,-0.0525223548,-0.756035035
796,1995329,1108420,0.969,-0.178,0.174,-7.7,-10.9,34.6,-5.4,26.9,-14.6,0.138981292,-0.637745293,-0.0519425031,-0.755790887
797,1998150,1108430,0.969,-0.182,0.178,-8.7,-10.3,34.3,-5.4,26.9,-14.6,0.139408551,-0.637989441,-0.0513016144,-0.755546739
798,1999580,1108430,0.965,-0.182,0.174,-9.6,-10,34.2,-5.4,26.9,-14.6,0.13983581,-0.63820307,-0.0507522813,-0.75533311
799,2002814,1108430,0.965,-0.182,0.17,-10.3,-10,34,-5.7,26.8,-14.6,0.140232551,-0.638447218,-0.0501419111,-0.755088961
800,2004887,1108430,0.961,-0.182,0.162,-10.9,-10.2,33.6,-5.7,26.8,-14.6,0.140629292,-0.638691366,-0.0495010224,-0.754844813
801,2007107,1108440,0.965,-0.182,0.166,-11.3,-10.7,33.3,-5.7,26.8,-14.6,0.141026032,-0.638935514,-0.0488601337,-0.754631184
802,2010238,1108440,0.969,-0.182,0.166,-11.6,-11,32.9,-5.7,26.8,-14.6,0.141392254,-0.639179662,-0.048280282,-0.754387036
803,2013081,1108440,0.973,-0.174,0.17,-11.6,-11.5,32.4,-5.5,26.4,-14.5,0.141727958,-0.639454329,-0.0476393933,-0.754112369
804,2014485,1108440,0.973,-0.174,0.17,-11.6,-11.5,32.4,-5.5,26.4,-14.5,0.141727958,-0.639454329,-0.0476393933,-0.754112369
805,2017528,1108450,0.984,-0.175,0.177,-10.8,-12.4,31,-5.5,26.4,-14.5,0.142429884,-0.639973144,-0.0465102084,-0.753624073
806,2019802,1108450,0.996,-0.187,0.166,-10.4,-12.8,30.3,-5.5,26.4,-14.5,0.142765587,-0.64024781,-0.0459303568,-0.753349406
807,2022939,1108450,1.004,-0.183,0.169,-10.1,-13.1,29.7,-5.2,26.4,-14.4,0.143101291,-0.640522477,-0.0454115421,-0.75307474
808,2024998,1108450,1.004,-0.179,0.173,-9.8,-13.2,29,-5.2,26.4,-14.4,0.143436995,-0.640797143,-0.0448622089,-0.752830592
809,2028040,1108460,1.008,-0.179,0.177,-9.4,-13.2,28.2,-5.2,26.4,-14.4,0.14374218,-0.64107181,-0.0443739128,-0.752555925
810,2029428,1108460,1.012,-0.171,0.177,-8.9,-13.1,27.3,-5.2,26.4,-14.4,0.144077883,-0.641346477,-0.0438856166,-0.752281259
811,2032465,1108460,1.012,-0.171,0.177,-8.9,-13.1,27.3,-5.2,26.4,-14.4,0.144077883,-0.641346477,-0.0438856166,-0.752281259
812,2035546,1108460,1.027,-0.175,0.173,-8.6,-12.9,26.1,-5.2,28.5,-12.7,0.144932402,-0.641956847,-0.0426343577,-0.751701407
813,2037039,1108470,1.023,-0.171,0.173,-9,-12.8,25.5,-5.2,28.5,-12.7,0.145207068,-0.642200995,-0.0421460616,-0.75142674
814,2040309,1108470,1.027,-0.175,0.173,-9.5,-12.6,24.9,-5.2,28.5,-12.7,0.145481735,-0.642475661,-0.0416882839,-0.751182592
815,2043103,1108470,1.024,-0.179,0.181,-10,-12.3,24.3,-5.1,27.2,-14.3,0.145725883,-0.64271981,-0.0412305063,-0.750938444
816,2044618,1108470,1.027,-0.171,0.177,-10.2,-11.9,23.5,-5.1,27.2,-14.3,0.145939512,-0.642963958,-0.0407727287,-0.750724815
817,2047729,1108480,1.031,-0.172,0.177,-10.1,-11.6,22.7,-5.1,27.2,-14.3,0.146153142,-0.643208106,-0.040314951,-0.750480667
818,2049602,1108480,1.035,-0.172,0.177,-9.8,-11.4,21.9,-5.1,27.2,-14.3,0.146366771,-0.643452254,-0.0398876919,-0.750267037
819,2052813,1108480,1.043,-0.168,0.18,-9.4,-11.1,21.2,-4.8,27.6,-14.4,0.146580401,-0.643696402,-0.0394604328,-0.750053407
820,2055886,1108480,1.039,-0.176,0.176,-9.2,-11,20.6,-4.8,27.6,-14.4,0.146794031,-0.643910031,-0.0390636921,-0.749839778
821,2058056,1108490,1.027,-0.179,0.169,-9,-10.7,20,-4.8,27.6,-14.4,0.146977142,-0.644123661,-0.0386669515,-0.749626148
822,2060084,1108490,1.031,-0.175,0.173,-8.7,-10.3,19.3,-4.8,27.6,-14.4,0.147160253,-0.644337291,-0.0382702109,-0.749443037
823,2061758,1108490,1.027,-0.172,0.165,-8.3,-9.7,18.5,-4.7,27.7,-14.3,0.147343364,-0.64455092,-0.0378734703,-0.749229408
824,2065416,1108490,1.027,-0.172,0.165,-8.3,-9.7,18.5,-4.7,27.7,-14.3,0.147343364,-0.64455092,-0.0378734703,-0.749229408
825,2066850,1108500,1.027,-0.164,0.165,-7.2,-9,16.9,-4.7,27.7,-14.3,0.147679067,-0.644917142,-0.0372325816,-0.748893704
826,2069648,1108500,1.023,-0.168,0.161,-6.9,-8.8,16,-4.7,27.7,-14.3,0.14783166,-0.645100253,-0.036896878,-0.748710593
827,2072978,1108500,1.023,-0.168,0.165,-6.7,-8.9,15.2,-5.1,27.8,-14.4,0.147984252,-0.645283364,-0.0366222114,-0.748527482
828,2074431,1108500,1.008,-0.175,0.157,-6.8,-8.9,14.5,-5.1,27.8,-14.4,0.148106326,-0.645466475,-0.0363475448,-0.748374889
829,2077333,1108510,1.008,-0.175,0.161,-6.9,-9,13.7,-5.1,27.8,-14.4,0.148228401,-0.645649586,-0.0360728782,-0.748222297
830,2080951,1108510,1.004,-0.179,0.161,-7,-8.9,13,-5.1,27.8,-14.4,0.148350475,-0.645832698,-0.0357982116,-0.748039186
831,2082459,1108510,1.004,-0.179,0.161,-7,-8.9,13,-5.1,27.8,-14.4,0.148350475,-0.645832698,-0.0357982116,-0.748039186
832,2085416,1108510,0.988,-0.19,0.162,-6.8,-8.4,11.5,-4.8,28.4,-13.5,0.14865566,-0.646259957,-0.0350657674,-0.747642445
833,2086879,1108520,0.984,-0.194,0.166,-6.6,-8,10.8,-4.8,28.4,-13.5,0.148777734,-0.646412549,-0.0348521378,-0.747489853
834,2089855,1108520,0.984,-0.194,0.166,-6.3,-7.6,10.1,-4.8,28.4,-13.5,0.148838771,-0.646565142,-0.0346079897,-0.747367779
835,2093562,1108520,0.973,-0.194,0.17,-5.9,-7.5,9.4,-5,28.1,-13.5,0.148899808,-0.646717734,-0.0344248787,-0.747245705
836,2095166,1108520,0.965,-0.19,0.17,-5.3,-7.3,8.6,-5,28.1,-13.5,0.148960845,-0.646870327,-0.0342112491,-0.747062593
837,2098069,1108530,0.965,-0.202,0.17,-5,-7.2,7.7,-5,28.1,-13.5,0.149021882,-0.646992401,-0.0340586566,-0.746971038
838,2099598,1108530,0.969,-0.206,0.166,-4.9,-7,6.7,-5,28.1,-13.5,0.1490524,-0.647144993,-0.033906064,-0.746848964
839,2102682,1108530,0.965,-0.21,0.17,-5.2,-6.8,5.6,-5.1,28.3,-13.4,0.1490524,-0.647267067,-0.033722953,-0.746757408
840,2105581,1108530,0.961,-0.213,0.166,-5.6,-6.4,4.6,-5.1,28.3,-13.4,0.1490524,-0.647389142,-0.0336313974,-0.746635334
841,2107097,1108540,0.961,-0.209,0.166,-6.1,-6.1,3.7,-5.1,28.3,-13.4,0.149021882,-0.647511216,-0.0334788049,-0.746543779
842,2110173,1108540,0.961,-0.213,0.17,-6.4,-5.7,2.8,-5.1,28.3,-13.4,0.148960845,-0.64763329,-0.0333567309,-0.746482742
843,2112062,1108540,0.961,-0.206,0.166,-6.6,-5.4,2,-5.2,28.4,-13.5,0.148899808,-0.647755364,-0.0332346568,-0.746391186
844,2115250,1108540,0.961,-0.206,0.166,-6.6,-5.4,2,-5.2,28.4,-13.5,0.148899808,-0.647755364,-0.0332346568,-0.746391186
845,2118115,1108550,0.969,-0.21,0.162,-6.3,-5.3,0.7,-5.2,28.4,-13.5,0.148747215,-0.647968993,-0.0330515458,-0.746238594
846,2119537,1108550,0.969,-0.202,0.17,-6,-5.2,0.1,-5.2,28.4,-13.5,0.14865566,-0.648060549,-0.0329599902,-0.746177557
847,2122529,1108550,0.973,-0.202,0.17,-5.5,-5.3,-0.4,-4.9,28.4,-13.5,0.148564104,-0.648182623,-0.0328989532,-0.746086001
848,2125678,1108550,0.973,-0.202,0.166,-5,-5.3,-1.1,-4.9,28.4,-13.5,0.148472549,-0.648274178,-0.0328379162,-0.746024964
849,2127263,1108560,0.977,-0.194,0.17,-4.5,-5.4,-1.6,-4.9,28.4,-13.5,0.148380993,-0.648365734,-0.0328073977,-0.745963927
850,2130418,1108560,0.973,-0.186,0.174,-4,-5.6,-2,-4.9,28.4,-13.5,0.148289438,-0.648487808,-0.0327463607,-0.74590289
851,2132461,1108560,0.973,-0.186,0.174,-4,-5.6,-2,-4.9,28.4,-13.5,0.148289438,-0.648487808,-0.0327463607,-0.74590289
852,2134755,1108560,0.98,-0.179,0.17,-3.4,-6.2,-2.7,-4.9,27.8,-13.4,0.148380993,-0.6486404,-0.0324716941,-0.745750298
853,2137004,1108570,0.984,-0.175,0.174,-3.3,-6.5,-3,-4.9,27.8,-13.4,0.148258919,-0.648762474,-0.0324716941,-0.745658742
854,2139903,1108570,0.984,-0.163,0.174,-3.3,-6.9,-3.3,-4.9,27.8,-13.4,0.148167364,-0.648884548,-0.0325022126,-0.745567186
855,2142121,1108570,0.988,-0.155,0.181,-3.3,-7.2,-3.6,-4.9,28.2,-13.5,0.148045289,-0.649006623,-0.0325022126,-0.745506149
856,2146038,1108570,0.988,-0.155,0.177,-3.2,-7.7,-3.8,-4.9,28.2,-13.5,0.147923215,-0.649159215,-0.0325022126,-0.745384075
857,2147515,1108580,0.992,-0.151,0.177,-3.1,-8,-4,-4.9,28.2,-13.5,0.147801141,-0.649281289,-0.0325632496,-0.74529252
858,2150805,1108580,0.985,-0.147,0.173,-3,-8.1,-4.2,-4.9,28.2,-13.5,0.147679067,-0.649403363,-0.0326242866,-0.745200964
859,2153219,1108580,0.992,-0.144,0.177,-3,-8,-4.3,-4.8,28,-13.3,0.147587512,-0.649555956,-0.0326548051,-0.745109409
860,2155532,1108580,0.992,-0.136,0.177,-2.9,-7.9,-4.3,-4.8,28,-13.3,0.147465438,-0.649708548,-0.0326853236,-0.745017853
861,2157890,1108590,0.996,-0.132,0.177,-2.8,-7.8,-4.3,-4.8,28,-13.3,0.147343364,-0.649830622,-0.0327158422,-0.744895779
862,2161253,1108590,0.996,-0.132,0.173,-2.7,-7.6,-4.4,-4.8,28,-13.3,0.14722129,-0.649952696,-0.0327463607,-0.744804224
863,2162795,1108590,0.996,-0.128,0.169,-2.7,-7.4,-4.3,-4.9,27.9,-13.3,0.147099216,-0.65007477,-0.0328073977,-0.744712668
864,2165811,1108590,0.996,-0.128,0.169,-2.7,-7.4,-4.3,-4.9,27.9,-13.3,0.147099216,-0.65007477,-0.0328073977,-0.744712668
865,2167080,1108600,0.992,-0.136,0.162,-2.5,-6.9,-4.5,-4.9,27.9,-13.3,0.146885586,-0.650318918,-0.0328989532,-0.744560076
866,2170334,1108600,0.992,-0.132,0.162,-2.5,-6.4,-4.7,-4.9,27.9,-13.3,0.146763512,-0.650440992,-0.0329599902,-0.744499039
867,2173306,1108600,0.992,-0.14,0.162,-2.5,-5.9,-4.6,-5.1,28.4,-12.9,0.146641438,-0.650532548,-0.0329905087,-0.744407483
868,2176169,1108600,0.988,-0.147,0.154,-2.5,-5.6,-4.6,-5.1,28.4,-12.9,0.146519364,-0.650624104,-0.0329905087,-0.744346446
869,2177837,1108610,0.984,-0.147,0.158,-2.5,-5.4,-4.5,-5.1,28.4,-12.9,0.146427808,-0.650715659,-0.0330820643,-0.744285409
870,2179899,1108610,0.981,-0.147,0.158,-2.8,-5.1,-4.6,-5.1,28.4,-12.9,0.146305734,-0.650807215,-0.0331125828,-0.744224372
871,2182964,1108610,0.981,-0.147,0.158,-2.8,-5.1,-4.6,-5.1,28.4,-12.9,0.146305734,-0.650807215,-0.0331125828,-0.744224372
872,2184539,1108610,0.973,-0.159,0.162,-3.2,-4.4,-4.7,-4.4,27.1,-13.1,0.146092105,-0.65089877,-0.0331431013,-0.744193854
873,2187452,1108620,0.973,-0.171,0.154,-3.4,-4.2,-4.7,-4.4,27.1,-13.1,0.145970031,-0.650990326,-0.0331431013,-0.744163335
874,2190092,1108620,0.973,-0.167,0.162,-3.6,-4,-4.6,-4.4,27.1,-13.1,0.145817438,-0.651051363,-0.0331736198,-0.744102298
875,2192035,1108620,0.965,-0.171,0.15,-3.9,-3.9,-4.6,-5.8,28.6,-12.9,0.145695364,-0.651142918,-0.0332041383,-0.74407178
876,2195150,1108620,0.965,-0.174,0.15,-4.1,-3.8,-4.4,-5.8,28.6,-12.9,0.14557329,-0.651203955,-0.0332041383,-0.744041261
877,2197194,1108630,0.961,-0.182,0.154,-4.2,-3.6,-4.4,-5.8,28.6,-12.9,0.145420698,-0.651264992,-0.0332041383,-0.744010743
878,2200345,1108630,0.957,-0.182,0.162,-4.3,-3.6,-4.3,-5.8,28.6,-12.9,0.145298624,-0.651356548,-0.0332041383,-0.743980224
879,2203483,1108630,0.953,-0.19,0.155,-4.3,-3.5,-4.2,-6,28.8,-13.2,0.145146031,-0.651417585,-0.0332041383,-0.743919187
880,2205734,1108630,0.957,-0.194,0.158,-4.3,-3.4,-4,-6,28.8,-13.2,0.145023957,-0.651478622,-0.0332041383,-0.743888668
881,2208271,1108640,0.953,-0.194,0.155,-4.2,-3.5,-3.9,-6,28.8,-13.2,0.144901883,-0.651539659,-0.0332041383,-0.74385815
882,2211926,1108640,0.949,-0.194,0.155,-4.1,-3.6,-3.9,-6,28.8,-13.2,0.14474929,-0.651631214,-0.0332041383,-0.743827631
883,2211926,1108640,0.957,-0.198,0.162,-3.8,-3.6,-3.7,-5.8,28.8,-12.9,0.144657735,-0.651692251,-0.0332041383,-0.743797113
884,2216433,1108640,0.957,-0.198,0.162,-3.8,-3.6,-3.7,-5.8,28.8,-12.9,0.144657735,-0.651692251,-0.0332041383,-0.743797113
885,2218555,1108650,0.957,-0.198,0.162,-3.1,-3.5,-3.4,-5.8,28.8,-12.9,0.144444105,-0.651814325,-0.0332346568,-0.743705557
886,2220084,1108650,0.953,-0.198,0.17,-2.7,-3.5,-3.2,-5.8,28.8,-12.9,0.14435255,-0.651875362,-0.0332346568,-0.743675039
887,2222489,1108650,0.957,-0.198,0.166,-2.2,-3.6,-3,-6.1,28.7,-12.4,0.144260994,-0.651936399,-0.0332346568,-0.74364452
888,2224694,1108650,0.957,-0.194,0.17,-1.9,-3.8,-2.9,-6.1,28.7,-12.4,0.144169439,-0.652027955,-0.0332346568,-0.743583483
889,2227099,1108660,0.965,-0.194,0.17,-1.5,-3.9,-2.7,-6.1,28.7,-12.4,0.144108402,-0.652088992,-0.0332956938,-0.743552965
890,2229462,1108660,0.961,-0.19,0.17,-1.1,-3.9,-2.6,-6.1,28.7,-12.4,0.144047365,-0.652150029,-0.0333262123,-0.743491928
891,2233823,1108660,0.961,-0.19,0.17,-1.1,-3.9,-2.6,-6.1,28.7,-12.4,0.144047365,-0.652150029,-0.0333262123,-0.743491928
892,2234457,1108660,0.961,-0.186,0.174,-0.5,-3.7,-1.9,-4.5,27.8,-13.2,0.144413587,-0.652088992,-0.0328989532,-0.743491928
893,2239065,1108670,0.965,-0.182,0.174,-0.3,-3.5,-1.4,-4.5,27.8,-13.2,0.144383068,-0.652150029,-0.0329294717,-0.743461409
894,2241261,1108670,0.965,-0.182,0.17,0,-3.4,-1.1,-4.5,27.8,-13.2,0.14435255,-0.652211066,-0.0329599902,-0.743400372
895,2243448,1108670,0.961,-0.17,0.174,0.3,-3.4,-0.7,-5.8,28.4,-13,0.14435255,-0.652272103,-0.0329599902,-0.743369854
896,2245665,1108670,0.965,-0.174,0.182,0.7,-3.3,-0.4,-5.8,28.4,-13,0.14435255,-0.652302622,-0.0329905087,-0.743308817
897,2247639,1108680,0.965,-0.174,0.17,1.2,-3.2,-0.1,-5.8,28.4,-13,0.14435255,-0.652363659,-0.0329905087,-0.74324778
898,2249846,1108680,0.969,-0.171,0.174,1.6,-2.9,0.2,-5.8,28.4,-13,0.144383068,-0.652394177,-0.0330820643,-0.743217261
899,2252333,1108680,0.965,-0.17,0.174,2.1,-2.6,0.6,-5.3,28.4,-13,0.144444105,-0.652455214,-0.0331125828,-0.743156224
900,2254708,1108680,0.965,-0.163,0.17,2.6,-2.1,0.9,-5.3,28.4,-13,0.144474624,-0.652485733,-0.0331431013,-0.743125706
901,2258552,1108690,0.965,-0.17,0.166,3,-1.6,1.1,-5.3,28.4,-13,0.144535661,-0.652485733,-0.0331736198,-0.743125706
902,2260595,1108690,0.961,-0.166,0.166,3.5,-1.1,1.4,-5.3,28.4,-13,0.144627216,-0.652485733,-0.0332041383,-0.743095187
903,2263103,1108690,0.965,-0.178,0.166,4,-0.6,1.7,-5,28.3,-13,0.144688253,-0.652485733,-0.0332346568,-0.743064669
904,2264938,1108690,0.965,-0.178,0.166,4,-0.6,1.7,-5,28.3,-13,0.144688253,-0.652485733,-0.0332346568,-0.743064669
905,2268194,1108700,0.965,-0.182,0.162,4.8,-0.1,2.3,-5,28.3,-13,0.144901883,-0.652485733,-0.0333567309,-0.74303415
906,2269872,1108700,0.961,-0.182,0.154,5.2,0,2.5,-5,28.3,-13,0.145023957,-0.652455214,-0.0333872494,-0.74303415
907,2272211,1108700,0.969,-0.182,0.154,5.5,0.1,2.9,-4.5,28.6,-13.3,0.145146031,-0.652455214,-0.0334482864,-0.743003632
908,2275525,1108700,0.973,-0.186,0.158,5.8,0.1,3.2,-4.5,28.6,-13.3,0.145298624,-0.652424696,-0.0334788049,-0.743003632
909,2278531,1108710,0.973,-0.186,0.154,6,0,3.6,-4.5,28.6,-13.3,0.145420698,-0.652424696,-0.0335398419,-0.742973113
910,2280897,1108710,0.969,-0.19,0.15,6.1,-0.3,3.9,-4.5,28.6,-13.3,0.14557329,-0.652394177,-0.0336008789,-0.742973113
911,2282980,1108710,0.969,-0.19,0.15,6.1,-0.3,3.9,-4.5,28.6,-13.3,0.14557329,-0.652394177,-0.0336008789,-0.742973113
912,2284411,1108710,0.973,-0.198,0.158,6.2,-1,4.5,-5.1,27.9,-13.2,0.146519364,-0.652302622,-0.0329599902,-0.742881558
913,2287504,1108720,0.976,-0.198,0.158,6.4,-1.2,4.8,-5.1,27.9,-13.2,0.146671957,-0.652302622,-0.0329905087,-0.742851039
914,2289627,1108720,0.976,-0.194,0.158,6.5,-1.4,5.1,-5.1,27.9,-13.2,0.146855068,-0.65233314,-0.0330515458,-0.742820521
915,2292906,1108720,0.98,-0.198,0.154,6.5,-1.5,5.4,-5.2,27.8,-13.5,0.147038179,-0.65233314,-0.0330820643,-0.742759484
916,2294515,1108720,0.98,-0.198,0.158,6.5,-1.8,5.7,-5.2,27.8,-13.5,0.14722129,-0.65233314,-0.0331125828,-0.742728965
917,2298133,1108730,0.984,-0.198,0.162,6.6,-2,5.8,-5.2,27.8,-13.5,0.147404401,-0.652363659,-0.0331431013,-0.742667928
918,2299546,1108730,0.976,-0.198,0.162,6.7,-2.3,6,-5.2,27.8,-13.5,0.14761803,-0.652394177,-0.0331736198,-0.742606891
919,2302431,1108730,0.98,-0.194,0.162,6.9,-2.4,6.3,-5,28.2,-13.5,0.147801141,-0.652394177,-0.0332041383,-0.742545854
920,2305582,1108730,0.984,-0.194,0.166,7.2,-2.7,6.5,-5,28.2,-13.5,0.148014771,-0.652424696,-0.0332346568,-0.742484817
921,2307018,1108740,0.98,-0.194,0.166,7.4,-3.2,6.8,-5,28.2,-13.5,0.148228401,-0.652455214,-0.0332346568,-0.742393262
922,2310068,1108740,0.977,-0.198,0.174,7.6,-3.6,7,-5,28.2,-13.5,0.14844203,-0.652516251,-0.0332956938,-0.742332224
923,2312191,1108740,0.984,-0.19,0.166,7.8,-4,7.3,-4.6,27.9,-13.5,0.14865566,-0.65254677,-0.0333262123,-0.742240669
924,2315473,1108740,0.984,-0.19,0.166,7.8,-4,7.3,-4.6,27.9,-13.5,0.14865566,-0.65254677,-0.0333262123,-0.742240669
925,2317556,1108750,0.984,-0.186,0.17,8,-4.5,7.9,-4.6,27.9,-13.5,0.149143956,-0.652638325,-0.0333872494,-0.742057558
926,2319781,1108750,0.98,-0.19,0.17,8.3,-4.6,8.2,-4.6,27.9,-13.5,0.149388104,-0.652699362,-0.0334177679,-0.741966002
927,2323015,1108750,0.98,-0.186,0.174,8.6,-4.6,8.6,-4.8,27.6,-13.5,0.149632252,-0.652760399,-0.0334482864,-0.741843928
928,2324972,1108750,0.98,-0.186,0.166,9,-4.5,8.8,-4.8,27.6,-13.5,0.149937437,-0.652821436,-0.0334788049,-0.741752373
929,2328625,1108760,0.984,-0.19,0.17,9.4,-4.6,9.1,-4.8,27.6,-13.5,0.150212104,-0.652851955,-0.0335398419,-0.741660817
930,2330804,1108760,0.98,-0.182,0.162,9.9,-4.5,9.4,-4.8,27.6,-13.5,0.15048677,-0.652912992,-0.0335703604,-0.741538743
931,2333120,1108760,0.98,-0.182,0.162,9.9,-4.5,9.4,-4.8,27.6,-13.5,0.15048677,-0.652912992,-0.0335703604,-0.741538743
932,2335084,1108760,0.977,-0.186,0.166,11,-4.1,9.7,-5.3,28.1,-13.3,0.151493881,-0.652790918,-0.0332346568,-0.741447188
933,2337027,1108770,0.976,-0.19,0.162,11.5,-3.8,9.9,-5.3,28.1,-13.3,0.151829585,-0.652821436,-0.0333262123,-0.741355632
934,2341152,1108770,0.976,-0.19,0.158,11.9,-3.4,10,-5.3,28.1,-13.3,0.15213477,-0.652851955,-0.0333872494,-0.741264077
935,2343329,1108770,0.976,-0.194,0.162,12.1,-3.3,10,-3.9,28.1,-13.3,0.152470473,-0.652851955,-0.0334482864,-0.741172521
936,2345488,1108770,0.973,-0.19,0.162,12.4,-3.1,10.2,-3.9,28.1,-13.3,0.152806177,-0.652882473,-0.0334788049,-0.741080966
937,2346978,1108780,0.973,-0.19,0.162,12.7,-3,10.3,-3.9,28.1,-13.3,0.153172399,-0.652882473,-0.0335703604,-0.741019929
938,2350935,1108780,0.973,-0.19,0.158,13,-2.9,10.6,-3.9,28.1,-13.3,0.153538621,-0.652912992,-0.033661916,-0.740928373
939,2353175,1108780,0.973,-0.194,0.158,13.2,-2.9,10.7,-3.8,27.9,-13.4,0.153874325,-0.652912992,-0.033722953,-0.740836818
940,2355457,1108780,0.969,-0.194,0.162,13.4,-3,10.8,-3.8,27.9,-13.4,0.154240547,-0.65294351,-0.03378399,-0.740745262
941,2357484,1108790,0.969,-0.194,0.154,13.5,-3.3,10.8,-3.8,27.9,-13.4,0.154606769,-0.65294351,-0.0338755455,-0.740653706
942,2361347,1108790,0.969,-0.198,0.154,13.7,-3.6,11,-3.8,27.9,-13.4,0.154972991,-0.652974029,-0.0339365825,-0.740562151
943,2362904,1108790,0.965,-0.198,0.158,14,-3.9,11.1,-3.2,28.2,-13.4,0.155369732,-0.652974029,-0.0340281381,-0.740440077
944,2366056,1108790,0.965,-0.198,0.158,14,-3.9,11.1,-3.2,28.2,-13.4,0.155369732,-0.652974029,-0.0340281381,-0.740440077
945,2368309,1108800,0.965,-0.194,0.158,14.9,-4.6,11.1,-3.2,28.2,-13.4,0.156132694,-0.653035066,-0.0342112491,-0.740226447
946,2370625,1108800,0.965,-0.194,0.154,15.4,-4.8,11.2,-3.2,28.2,-13.4,0.156529435,-0.653096103,-0.0343333232,-0.740104373
947,2372035,1108800,0.969,-0.198,0.154,15.9,-5.1,11.3,-3.6,28.1,-13.4,0.156956694,-0.653126621,-0.0344248787,-0.739982299
948,2375473,1108800,0.965,-0.19,0.154,16.4,-5.3,11.4,-3.6,28.1,-13.4,0.157353435,-0.65315714,-0.0345469527,-0.739860225
949,2376953,1108810,0.969,-0.19,0.158,16.8,-5.6,11.6,-3.6,28.1,-13.4,0.157780694,-0.653187658,-0.0346995453,-0.739707633
950,2380722,1108810,0.965,-0.19,0.154,17.3,-5.7,11.7,-3.6,28.1,-13.4,0.158207953,-0.653248695,-0.0348216193,-0.739585559
951,2382115,1108810,0.965,-0.19,0.154,17.3,-5.7,11.7,-3.6,28.1,-13.4,0.158207953,-0.653248695,-0.0348216193,-0.739585559
952,2385328,1108810,0.961,-0.19,0.162,18,-6,11.7,-5.1,27.9,-13.5,0.159398175,-0.653248695,-0.0346995453,-0.739341411
953,2388076,1108820,0.961,-0.186,0.154,18.3,-6.2,11.7,-5.1,27.9,-13.5,0.159886471,-0.653279214,-0.0348826563,-0.739188818
954,2389555,1108820,0.953,-0.182,0.158,18.6,-6.2,11.8,-5.1,27.9,-13.5,0.16031373,-0.653309732,-0.0350352489,-0.739036225
955,2393419,1108820,0.957,-0.182,0.154,18.9,-6.2,11.9,-4,28,-13.9,0.160771508,-0.653370769,-0.0351878414,-0.738883633
956,2395615,1108820,0.953,-0.182,0.155,19,-6.3,11.8,-4,28,-13.9,0.161229286,-0.653401288,-0.035340434,-0.738761559
957,2397093,1108830,0.953,-0.182,0.151,19.3,-6.3,11.9,-4,28,-13.9,0.161717582,-0.653462325,-0.035523545,-0.738608966
958,2400972,1108830,0.953,-0.182,0.151,19.4,-6.4,11.9,-4,28,-13.9,0.162175359,-0.653492843,-0.0356761376,-0.738456374
959,2403165,1108830,0.953,-0.178,0.151,19.5,-6.4,11.9,-4.2,28.1,-13.8,0.162633137,-0.65355388,-0.0358592486,-0.738303781
960,2404615,1108830,0.953,-0.182,0.151,19.6,-6.5,12,-4.2,28.1,-13.8,0.163090915,-0.653584399,-0.0360118412,-0.738151189
961,2407666,1108840,0.953,-0.178,0.155,19.7,-6.6,12.1,-4.2,28.1,-13.8,0.163579211,-0.653645436,-0.0361644337,-0.737998596
962,2410014,1108840,0.953,-0.178,0.151,19.6,-6.9,12.2,-4.2,28.1,-13.8,0.164036988,-0.653675954,-0.0363475448,-0.737846004
963,2412194,1108840,0.949,-0.182,0.151,19.6,-7.2,12.2,-4.1,27.9,-14,0.164525285,-0.653736991,-0.0365306558,-0.737693411
964,2415447,1108840,0.949,-0.182,0.151,19.6,-7.2,12.2,-4.1,27.9,-14,0.164525285,-0.653736991,-0.0365306558,-0.737693411
965,2417458,1108850,0.949,-0.178,0.155,19.7,-7.6,12.2,-4.1,27.9,-14,0.165471358,-0.653859066,-0.0368663594,-0.737357707
966,2419724,1108850,0.957,-0.17,0.147,19.7,-7.9,12.1,-4.1,27.9,-14,0.165929136,-0.653920103,-0.037018952,-0.737174596
967,2422996,1108850,0.957,-0.174,0.147,19.7,-8.1,12.1,-3.9,27.8,-13.7,0.166417432,-0.654011658,-0.0372020631,-0.736991485
968,2424925,1108850,0.961,-0.171,0.147,19.8,-8.4,12,-3.9,27.8,-13.7,0.16687521,-0.654072695,-0.0373851741,-0.736808374
969,2427128,1108860,0.957,-0.163,0.151,20,-8.6,12,-3.9,27.8,-13.7,0.167363506,-0.654164251,-0.0375682852,-0.736625263
970,2430520,1108860,0.965,-0.163,0.15,20.3,-8.8,12,-3.9,27.8,-13.7,0.167821284,-0.654225288,-0.0377513962,-0.736442152
971,2432510,1108860,0.965,-0.163,0.15,20.3,-8.8,12,-3.9,27.8,-13.7,0.167821284,-0.654225288,-0.0377513962,-0.736442152
972,2434431,1108860,0.961,-0.163,0.15,20.8,-8.6,12,-4.4,27.8,-13.8,0.168858913,-0.654286325,-0.0380870998,-0.736136967
973,2438517,1108870,0.965,-0.159,0.154,21,-8.6,11.9,-4.4,27.8,-13.8,0.169347209,-0.654347362,-0.0382702109,-0.735953856
974,2440683,1108870,0.969,-0.159,0.158,21.3,-8.8,11.9,-4.4,27.8,-13.8,0.169835505,-0.654438917,-0.0384838404,-0.735770745
975,2442666,1108870,0.969,-0.155,0.154,21.4,-9,11.8,-4.1,27.8,-14.3,0.170323801,-0.654499954,-0.03869747,-0.735587634
976,2445018,1108870,0.973,-0.155,0.158,21.7,-9.1,11.8,-4.1,27.8,-14.3,0.170812098,-0.65459151,-0.0389110996,-0.735343486
977,2447263,1108880,0.973,-0.159,0.154,22,-9.1,11.8,-4.1,27.8,-14.3,0.171300394,-0.654652547,-0.0390942106,-0.735190893
978,2449634,1108880,0.973,-0.155,0.154,22.2,-9.1,11.8,-4.1,27.8,-14.3,0.171819208,-0.654713584,-0.0393383587,-0.735007782
979,2452482,1108880,0.977,-0.151,0.162,22.3,-9.1,11.9,-4.4,27.8,-14.1,0.172307505,-0.654805139,-0.0395519883,-0.734794153
980,2455026,1108880,0.973,-0.151,0.158,22.5,-9.1,11.9,-4.4,27.8,-14.1,0.172826319,-0.654866176,-0.0397961364,-0.734611042
981,2457302,1108890,0.969,-0.155,0.158,22.6,-9.3,11.9,-4.4,27.8,-14.1,0.173314615,-0.654957732,-0.0400097659,-0.734397412
982,2461347,1108890,0.977,-0.151,0.158,22.6,-9.5,11.8,-4.4,27.8,-14.1,0.17383343,-0.655018769,-0.040253914,-0.734214301
983,2461813,1108890,0.969,-0.155,0.162,22.4,-9.8,11.7,-4,27.5,-14,0.174321726,-0.655110324,-0.0404675436,-0.734000671
984,2464411,1108890,0.969,-0.155,0.162,22.4,-9.8,11.7,-4,27.5,-14,0.174321726,-0.655110324,-0.0404675436,-0.734000671
985,2468659,1108900,0.973,-0.147,0.154,22,-9.9,11.5,-4,27.5,-14,0.175328837,-0.655262917,-0.0409253212,-0.733573412
986,2470909,1108900,0.973,-0.147,0.15,21.9,-9.7,11.6,-4,27.5,-14,0.175817133,-0.655354472,-0.0411694693,-0.733390301
987,2473164,1108900,0.973,-0.155,0.15,21.7,-9.4,11.6,-3.9,27.5,-14.4,0.176305429,-0.655446028,-0.0413830988,-0.733176672
988,2475954,1108900,0.973,-0.147,0.15,21.4,-8.9,11.6,-3.9,27.5,-14.4,0.176793725,-0.655507065,-0.0415967284,-0.732993561
989,2478121,1108910,0.977,-0.151,0.15,21.2,-8.8,11.6,-3.9,27.5,-14.4,0.177282022,-0.655568102,-0.0417798395,-0.73281045
990,2480461,1108910,0.976,-0.155,0.142,21.1,-8.6,11.6,-3.9,27.5,-14.4,0.177739799,-0.655659658,-0.041993469,-0.73259682
991,2482476,1108910,0.976,-0.155,0.142,21.1,-8.6,11.6,-3.9,27.5,-14.4,0.177739799,-0.655659658,-0.041993469,-0.73259682
992,2484697,1108910,0.969,-0.151,0.142,21.3,-8.8,11.9,-3.9,27.8,-15.2,0.178563799,-0.655629139,-0.0426038392,-0.73238319
993,2487270,1108920,0.969,-0.155,0.146,21.5,-8.9,11.9,-3.9,27.8,-15.2,0.179052095,-0.655720695,-0.0428174688,-0.732200079
994,2490062,1108920,0.969,-0.155,0.139,21.7,-9,11.8,-3.9,27.8,-15.2,0.179540391,-0.655781732,-0.0430005799,-0.73198645
995,2492066,1108920,0.973,-0.155,0.142,21.8,-9.1,11.4,-4,27.6,-14,0.180028687,-0.655842769,-0.0432447279,-0.731803339
996,2494446,1108920,0.973,-0.159,0.142,21.7,-9.2,11.1,-4,27.6,-14,0.180516984,-0.655934324,-0.043488876,-0.731589709
997,2497553,1108930,0.973,-0.163,0.135,21.6,-9.3,10.9,-4,27.6,-14,0.18100528,-0.655995361,-0.0437025056,-0.731406598
998,2500886,1108930,0.973,-0.171,0.142,21.5,-9.3,10.7,-4,27.6,-14,0.181463057,-0.656056398,-0.0439161351,-0.731223487
999,2503189,1108930,0.973,-0.171,0.139,21.4,-9.3,10.5,-3.4,27.3,-13.5,0.181920835,-0.656147954,-0.0441602832,-0.731009857
1000,2505499,1108930,0.973,-0.167,0.142,21.2,-9.1,10.2,-3.4,27.3,-13.5,0.182378613,-0.656208991,-0.0443739128,-0.730826746
