sample_index,elapsed_us,device_time_ms,acc_x_g,acc_y_g,acc_z_g,gyro_x_dps,gyro_y_dps,gyro_z_dps,mag_x_ut,mag_y_ut,mag_z_ut,quat_w,quat_x,quat_y,quat_z
0,5087,418330,0.922,-0.228,0.304,-8.8,0.1,-4.4,-1.7,27.6,-18.3,0.193273721,0.548265023,-0.256630146,0.772087771
1,6894,418330,0.923,-0.224,0.304,-8.2,0,-4.3,-1.7,27.6,-18.3,0.193426313,0.548265023,-0.256721702,0.772026734
2,10958,418330,0.923,-0.224,0.304,-8.2,0,-4.3,-1.7,27.6,-18.3,0.193578906,0.548265023,-0.256813257,0.771965697
3,13132,418340,0.923,-0.224,0.304,-8.2,0,-4.3,-1.7,27.6,-18.3,0.193578906,0.548265023,-0.256813257,0.771965697
4,15239,418340,0.923,-0.224,0.304,-8.2,0,-4.3,-1.7,27.6,-18.3,0.193578906,0.548265023,-0.256813257,0.771965697
5,17442,418340,0.93,-0.22,0.3,-6.2,0.2,-3.8,-1.7,28.1,-18.4,0.193578906,0.547563097,-0.257240516,0.772331919
6,20439,418340,0.926,-0.216,0.3,-5.5,0.3,-3.6,-1.7,28.1,-18.4,0.19370098,0.547563097,-0.257271035,0.772270882
7,22682,418350,0.926,-0.216,0.3,-5.5,0.3,-3.6,-1.7,28.1,-18.4,0.193823054,0.547563097,-0.257332072,0.772240364
8,25670,418350,0.926,-0.216,0.3,-5.5,0.3,-3.6,-1.7,28.1,-18.4,0.193823054,0.547563097,-0.257332072,0.772240364
9,27218,418350,0.93,-0.22,0.292,-4.3,0.3,-3.6,-1.6,28.1,-18.1,0.193945128,0.547563097,-0.25736259,0.772209845
10,30815,418350,0.934,-0.216,0.296,-3,0.5,-3.2,-1.6,28.1,-18.1,0.194158757,0.547532579,-0.257393109,0.772148808
11,32444,418360,0.93,-0.216,0.296,-2.6,0.5,-3,-1.6,28.1,-18.1,0.194219794,0.547532579,-0.257393109,0.77211829
12,34700,418360,0.93,-0.216,0.296,-2.6,0.5,-3,-1.6,28.1,-18.1,0.194219794,0.547532579,-0.257393109,0.77211829
13,37726,418360,0.938,-0.216,0.288,-2.3,0.6,-2.8,-1.4,29.9,-16,0.19431135,0.547532579,-0.257393109,0.77211829
14,39918,418360,0.938,-0.212,0.292,-2,0.8,-2.7,-1.4,29.9,-16,0.194463942,0.547532579,-0.257393109,0.772087771
15,42925,418370,0.938,-0.208,0.292,-1.9,0.8,-2.6,-1.4,29.9,-16,0.194524979,0.54750206,-0.257393109,0.772057253
16,45336,418370,0.938,-0.208,0.292,-1.9,0.8,-2.6,-1.4,29.9,-16,0.194524979,0.54750206,-0.257393109,0.772057253
17,47410,418370,0.946,-0.209,0.292,-1.9,1,-2.4,-1.8,28.4,-18.2,0.194616535,0.54750206,-0.257393109,0.772057253
18,49660,418370,0.938,-0.205,0.288,-1.8,1.3,-1.9,-1.8,28.4,-18.2,0.194738609,0.547471541,-0.257393109,0.772057253
19,52636,418380,0.942,-0.209,0.292,-1.9,1.5,-1.7,-1.8,28.4,-18.2,0.194799646,0.547441023,-0.257393109,0.772057253
20,55743,418380,0.942,-0.209,0.292,-1.9,1.5,-1.7,-1.8,28.4,-18.2,0.194799646,0.547441023,-0.257393109,0.772057253
21,57438,418380,0.938,-0.208,0.292,-2.1,1.7,-1.5,-1.4,29.2,-18.5,0.194860683,0.547410504,-0.257423627,0.772057253
22,59910,418380,0.938,-0.212,0.288,-2.2,1.9,-1.3,-1.4,29.2,-18.5,0.19492172,0.547379986,-0.257423627,0.772057253
23,61731,418390,0.938,-0.208,0.288,-2.6,2,-1.1,-1.4,29.2,-18.5,0.195043794,0.54728843,-0.257454146,0.772057253
24,65745,418390,0.938,-0.208,0.288,-2.6,2,-1.1,-1.4,29.2,-18.5,0.195043794,0.54728843,-0.257454146,0.772057253
25,67446,418390,0.938,-0.208,0.288,-2.6,2,-1.1,-1.4,29.2,-18.5,0.195043794,0.54728843,-0.257454146,0.772057253
26,69712,418390,0.934,-0.212,0.288,-3.2,2.1,-0.4,-1.4,29.3,-18.4,0.194891202,0.546861171,-0.257728813,0.772331919
27,71836,418400,0.93,-0.216,0.284,-3.4,2.1,-0.3,-1.4,29.3,-18.4,0.194952239,0.546830653,-0.257759331,0.772331919
28,75785,418400,0.93,-0.216,0.296,-3.6,1.9,0.1,-1.4,29.3,-18.4,0.195043794,0.546739097,-0.257881405,0.772331919
29,78317,418400,0.93,-0.216,0.296,-3.6,1.9,0.1,-1.4,29.3,-18.4,0.195043794,0.546739097,-0.257881405,0.772331919
30,80212,418400,0.934,-0.216,0.296,-3.6,1.9,0.2,-1.5,29.7,-18.3,0.195104831,0.54667806,-0.257942442,0.772331919
31,82405,418410,0.93,-0.216,0.296,-3.5,1.8,0.4,-1.5,29.7,-18.3,0.19513535,0.546617023,-0.257972961,0.772331919
32,84780,418410,0.93,-0.216,0.292,-3.5,1.5,0.7,-1.5,29.7,-18.3,0.195226905,0.546525468,-0.258095035,0.772331919
33,88052,418410,0.93,-0.216,0.292,-3.5,1.5,0.7,-1.5,29.7,-18.3,0.195226905,0.546525468,-0.258095035,0.772331919
34,90205,418410,0.93,-0.216,0.296,-3.4,1.3,0.8,-1.7,29.2,-17,0.195257424,0.546494949,-0.258156072,0.772331919
35,92487,418420,0.934,-0.216,0.3,-3.4,1.3,1.1,-1.7,29.2,-17,0.195287942,0.546464431,-0.258247627,0.772331919
36,94797,418420,0.934,-0.22,0.292,-3.2,1.3,1.3,-1.7,29.2,-17,0.195318461,0.546403394,-0.258278146,0.772331919
37,96844,418420,0.934,-0.22,0.292,-3,1.4,1.3,-1.7,29.2,-17,0.195318461,0.546372875,-0.258369701,0.772362438
38,99177,418420,0.938,-0.22,0.292,-2.7,1.4,1.4,-1.5,29.4,-16.9,0.195348979,0.546311838,-0.258430738,0.772362438
39,103029,418430,0.938,-0.22,0.292,-2.4,1.3,1.4,-1.5,29.4,-16.9,0.195348979,0.54628132,-0.258461257,0.772362438
40,105126,418430,0.942,-0.224,0.296,-2.1,1.3,1.6,-1.5,29.4,-16.9,0.195348979,0.546250801,-0.258522294,0.772392956
41,107253,418430,0.942,-0.22,0.292,-1.8,1.2,1.7,-1.5,29.4,-16.9,0.195348979,0.546189764,-0.258552812,0.772392956
42,110922,418430,0.946,-0.216,0.296,-1.4,1,1.8,-1.6,29.7,-16.7,0.195348979,0.546159246,-0.258613849,0.772392956
43,112784,418440,0.938,-0.216,0.292,-1.2,0.9,1.9,-1.6,29.7,-16.7,0.195348979,0.546128727,-0.258644368,0.772423475
44,115226,418440,0.942,-0.212,0.292,-0.9,0.8,2.1,-1.6,29.7,-16.7,0.195318461,0.546098209,-0.258674886,0.772423475
45,117318,418440,0.946,-0.216,0.296,-0.6,0.9,2.2,-1.6,29.7,-16.7,0.195287942,0.54606769,-0.258705405,0.772453993
46,120893,418440,0.946,-0.216,0.296,-0.6,0.9,2.2,-1.6,29.7,-16.7,0.195287942,0.54606769,-0.258705405,0.772453993
47,123315,418450,0.942,-0.216,0.296,0.1,1.3,2.3,-1.6,29.2,-17.4,0.195074313,0.545670949,-0.258949553,0.772698141
48,125652,418450,0.946,-0.216,0.292,0.1,1.3,2.3,-1.6,29.2,-17.4,0.195013276,0.545640431,-0.258949553,0.77272866
49,127987,418450,0.946,-0.212,0.3,0.4,1.4,2.3,-1.6,29.2,-17.4,0.194982757,0.545609912,-0.258980071,0.772759178
50,131048,418450,0.946,-0.216,0.296,0.7,1.3,2.3,-1.6,29.2,-17.4,0.194952239,0.545579394,-0.258980071,0.772789697
51,132890,418460,0.946,-0.212,0.292,0.9,1.4,2.3,-1.9,29.6,-17,0.194891202,0.545548875,-0.258980071,0.772820215
52,135054,418460,0.946,-0.212,0.296,0.9,1.4,2.3,-1.9,29.6,-17,0.194860683,0.545518357,-0.25901059,0.772850734
53,137388,418460,0.938,-0.212,0.296,0.9,1.4,2.5,-1.9,29.6,-17,0.194799646,0.545487838,-0.25901059,0.772881252
54,139822,418460,0.946,-0.212,0.296,0.8,1.4,2.5,-1.9,29.6,-17,0.194769127,0.54545732,-0.25901059,0.772911771
55,141773,418470,0.938,-0.212,0.296,0.7,1.7,2.4,-1.1,28.6,-17,0.194738609,0.545396283,-0.25901059,0.772972808
56,145183,418470,0.938,-0.216,0.296,0.8,1.7,2.5,-1.1,28.6,-17,0.194677572,0.545365764,-0.259041108,0.773003327
57,147233,418470,0.938,-0.216,0.296,0.8,1.7,2.5,-1.1,28.6,-17,0.194647053,0.545335246,-0.259041108,0.773033845
58,150407,418470,0.942,-0.209,0.296,0.8,1.7,2.6,-1.1,28.6,-17,0.194555498,0.545274209,-0.259041108,0.773064364
59,152714,418480,0.934,-0.212,0.296,0.9,1.7,2.7,-1.1,28.6,-17,0.194555498,0.54524369,-0.259071627,0.773094882
60,154830,418480,0.93,-0.208,0.3,0.9,1.7,2.8,-1.1,28.6,-17,0.194494461,0.545213172,-0.259071627,0.773155919
61,157276,418480,0.93,-0.208,0.3,0.9,1.7,2.8,-1.1,28.6,-17,0.194433424,0.545152135,-0.259071627,0.773186438
62,159353,418480,0.926,-0.216,0.296,0.9,1.7,2.8,-1.1,28.6,-17,0.194402905,0.545121616,-0.259102145,0.773216956
63,162649,418490,0.926,-0.216,0.296,0.9,1.7,2.8,-1.1,28.6,-17,0.194402905,0.545121616,-0.259102145,0.773216956
64,164738,418490,0.93,-0.208,0.3,0.6,1.4,2.8,-1.1,28.6,-17,0.19431135,0.545030061,-0.259132664,0.773277993
65,166762,418490,0.93,-0.208,0.3,0.5,1.3,2.9,-1.1,28.6,-17,0.194250313,0.544999542,-0.259132664,0.773308512
66,170759,418490,0.93,-0.212,0.288,0.5,1.3,2.9,-1.1,28.6,-17,0.194189276,0.544969024,-0.259163182,0.77333903
67,173050,418500,0.93,-0.212,0.288,0.5,1.3,2.9,-1.1,28.6,-17,0.194189276,0.544969024,-0.259163182,0.77333903
68,175118,418500,0.93,-0.212,0.288,0.5,1.3,2.9,-1.1,28.6,-17,0.194189276,0.544969024,-0.259163182,0.77333903
69,177433,418500,0.922,-0.208,0.292,0.6,1.6,2.8,-3.1,29.8,-17.8,0.194036683,0.54463332,-0.259254738,0.773583178
70,180810,418500,0.926,-0.212,0.296,1,1.7,2.8,-3.1,29.8,-17.8,0.193945128,0.544541765,-0.259285257,0.773674734
71,182896,418510,0.922,-0.208,0.292,1,1.7,2.8,-3.1,29.8,-17.8,0.193914609,0.544511246,-0.259285257,0.773705252
72,185575,418510,0.922,-0.208,0.292,1,1.7,2.8,-3.1,29.8,-17.8,0.193914609,0.544511246,-0.259285257,0.773705252
73,187474,418510,0.922,-0.22,0.292,1.5,1.5,2.5,-0.7,28.4,-17.2,0.193853572,0.544480728,-0.259285257,0.773735771
74,189794,418510,0.926,-0.208,0.296,1.9,1.2,2.5,-0.7,28.4,-17.2,0.193731498,0.544419691,-0.259285257,0.773827326
75,191764,418520,0.926,-0.208,0.296,1.9,1.2,2.5,-0.7,28.4,-17.2,0.193670461,0.544389172,-0.259254738,0.773857845
76,195922,418520,0.926,-0.208,0.296,1.9,1.2,2.5,-0.7,28.4,-17.2,0.193670461,0.544389172,-0.259254738,0.773857845
77,198031,418520,0.926,-0.212,0.288,2.2,0.8,2.6,-2.3,29.5,-17.4,0.193578906,0.544358654,-0.259254738,0.773888363
78,200205,418520,0.93,-0.204,0.288,2.5,0.4,2.7,-2.3,29.5,-17.4,0.193456832,0.544328135,-0.259224219,0.7739494
79,202556,418530,0.934,-0.201,0.292,2.6,0.3,2.7,-2.3,29.5,-17.4,0.193395795,0.544328135,-0.259224219,0.773979919
80,206011,418530,0.934,-0.201,0.292,2.6,0.3,2.7,-2.3,29.5,-17.4,0.193395795,0.544328135,-0.259224219,0.773979919
81,207695,418530,0.934,-0.201,0.3,2.6,0.2,2.7,-2.4,29.6,-17.7,0.193304239,0.544328135,-0.259224219,0.774010437
82,210027,418530,0.934,-0.201,0.304,2.8,0,2.7,-2.4,29.6,-17.7,0.193151646,0.544297617,-0.259193701,0.774071474
83,212271,418540,0.934,-0.197,0.292,3,0,2.7,-2.4,29.6,-17.7,0.193060091,0.544297617,-0.259163182,0.774101993
84,214703,418540,0.934,-0.197,0.292,3,0,2.7,-2.4,29.6,-17.7,0.193060091,0.544297617,-0.259163182,0.774101993
85,217743,418540,0.938,-0.197,0.292,3.1,0,2.8,-2,29.4,-17.4,0.192999054,0.544297617,-0.259132664,0.774132511
86,219850,418540,0.938,-0.193,0.292,3.1,0,2.9,-2,29.4,-17.4,0.192907498,0.544297617,-0.259132664,0.77416303
87,222867,418550,0.934,-0.193,0.296,3,0.4,2.8,-2,29.4,-17.4,0.192724387,0.544267098,-0.259071627,0.774224067
88,225898,418550,0.934,-0.193,0.296,3,0.4,2.8,-2,29.4,-17.4,0.192724387,0.544267098,-0.259071627,0.774224067
89,228116,418550,0.934,-0.193,0.296,3,0.4,2.8,-2,29.4,-17.4,0.192724387,0.544267098,-0.259071627,0.774224067
90,229605,418550,0.938,-0.193,0.296,3.1,0.9,2.6,-1.4,29.3,-17.1,0.192693869,0.544053468,-0.258980071,0.774407178
91,232737,418560,0.934,-0.193,0.296,3.2,1,2.6,-1.4,29.3,-17.1,0.192602313,0.54402295,-0.258949553,0.774468215
92,234891,418560,0.934,-0.193,0.292,3.3,1.2,2.4,-1.4,29.3,-17.1,0.192449721,0.543992431,-0.258888516,0.774559771
93,237920,418560,0.934,-0.193,0.292,3.3,1.2,2.4,-1.4,29.3,-17.1,0.192449721,0.543992431,-0.258888516,0.774559771
94,240929,418560,0.93,-0.193,0.292,3.3,1.2,2.4,-1.6,29,-17.3,0.192388684,0.543931394,-0.258857997,0.774620808
95,243205,418570,0.93,-0.197,0.292,3.4,1.2,2.4,-1.6,29,-17.3,0.192297128,0.543931394,-0.258827479,0.774651326
96,245532,418570,0.93,-0.201,0.292,3.4,1.2,2.3,-1.6,29,-17.3,0.192236091,0.543931394,-0.25879696,0.774712363
97,247748,418570,0.926,-0.2,0.292,3.4,1.2,2.3,-1.6,29,-17.3,0.192175054,0.543900876,-0.258735923,0.774742882
98,249970,418570,0.926,-0.193,0.296,3.3,1.3,2.3,-1.6,28.7,-16.8,0.192083499,0.543900876,-0.258705405,0.774803919
99,252302,418580,0.926,-0.2,0.288,3.2,1.4,2.2,-1.6,28.7,-16.8,0.192022462,0.543870357,-0.258674886,0.774834437
100,254680,418580,0.926,-0.2,0.292,3.2,1.5,2.1,-1.6,28.7,-16.8,0.191961425,0.543839839,-0.258644368,0.774895474
101,257967,418580,0.926,-0.197,0.292,3.2,1.5,2.1,-1.6,28.7,-16.8,0.191900388,0.54380932,-0.258613849,0.774925993
102,259693,418580,0.926,-0.197,0.288,3.1,1.4,2.2,-1.4,28.6,-16.4,0.191808832,0.543778802,-0.258583331,0.77498703
103,261800,418590,0.926,-0.2,0.292,3.1,1.2,2.1,-1.4,28.6,-16.4,0.191747795,0.543778802,-0.258552812,0.775017548
104,265761,418590,0.923,-0.196,0.292,2.9,1.2,2.1,-1.4,28.6,-16.4,0.191686758,0.543748283,-0.258522294,0.775048067
105,268013,418590,0.926,-0.197,0.292,2.8,1.1,2,-1.4,28.6,-16.4,0.191625721,0.543717765,-0.258491775,0.775078585
106,270283,418590,0.919,-0.204,0.296,2.8,1.2,2,-1.4,28.9,-16.9,0.191564684,0.543717765,-0.258461257,0.775139622
107,272667,418600,0.923,-0.2,0.292,2.9,1.2,2,-1.4,28.9,-16.9,0.191503647,0.543687246,-0.258430738,0.775170141
108,274786,418600,0.923,-0.196,0.292,3.1,1.1,2,-1.4,28.9,-16.9,0.19144261,0.543656728,-0.25840022,0.775200659
109,278059,418600,0.923,-0.196,0.296,3.1,1,2,-1.4,28.9,-16.9,0.191381573,0.543656728,-0.258339183,0.775261696
110,279708,418600,0.923,-0.196,0.296,3.1,1,2,-1.4,28.9,-16.9,0.191381573,0.543656728,-0.258339183,0.775261696
111,282675,418610,0.919,-0.193,0.288,3.3,0.7,1.7,-1.5,28.7,-17.2,0.191290017,0.54341258,-0.258278146,0.775444807
112,284963,418610,0.919,-0.193,0.288,3.3,0.7,1.7,-1.5,28.7,-17.2,0.191198462,0.54341258,-0.258278146,0.775505844
113,287249,418610,0.915,-0.192,0.285,3.3,0.8,1.8,-1.5,28.7,-17.2,0.191137425,0.543382061,-0.258217109,0.775536363
114,289251,418610,0.915,-0.192,0.288,3.4,0.8,1.8,-1.5,28.7,-17.2,0.191076388,0.543382061,-0.25818659,0.775566881
115,292401,418620,0.919,-0.193,0.288,3.6,0.6,1.8,-1.9,29,-17.7,0.191015351,0.543382061,-0.258156072,0.7755974
116,295554,418620,0.919,-0.193,0.284,3.8,0.6,1.7,-1.9,29,-17.7,0.190923795,0.543382061,-0.258095035,0.775627918
117,297769,418620,0.915,-0.192,0.285,3.8,0.6,1.7,-1.9,29,-17.7,0.190862758,0.543382061,-0.258064516,0.775688955
118,299922,418620,0.915,-0.192,0.285,4.1,0.4,1.5,-1.9,29,-17.7,0.190801721,0.543382061,-0.258003479,0.775719474
119,302897,418630,0.915,-0.192,0.285,4.1,0.4,1.5,-1.9,29,-17.7,0.190801721,0.543382061,-0.258003479,0.775719474
120,306093,418630,0.922,-0.193,0.284,4.8,0,1.1,-0.8,28.9,-17.4,0.190649129,0.543382061,-0.257881405,0.775780511
121,307579,418630,0.926,-0.189,0.292,4.8,0,1.1,-0.8,28.9,-17.4,0.190557573,0.54341258,-0.25778985,0.775811029
122,310448,418630,0.926,-0.189,0.284,4.9,-0.1,1,-0.8,28.9,-17.4,0.190496536,0.54341258,-0.257728813,0.775841548
123,311744,418640,0.926,-0.189,0.284,4.9,-0.1,1,-0.8,28.9,-17.4,0.190496536,0.54341258,-0.257728813,0.775841548
124,314923,418640,0.926,-0.185,0.288,5.3,-0.4,0.9,-0.8,28.9,-17.4,0.190313425,0.543473617,-0.25757622,0.775902585
125,317930,418640,0.93,-0.185,0.292,5.3,-0.4,0.9,-0.8,28.9,-17.4,0.190252388,0.543504135,-0.257484664,0.775933103
126,320153,418640,0.93,-0.189,0.288,5.3,-0.5,0.8,-0.8,28.9,-17.4,0.190160833,0.543504135,-0.257423627,0.775963622
127,321564,418650,0.93,-0.189,0.288,5.3,-0.5,0.8,-0.8,28.9,-17.4,0.190160833,0.543504135,-0.257423627,0.775963622
128,325451,418650,0.938,-0.181,0.292,5,-0.4,0.9,-0.8,28.9,-17.4,0.19000824,0.543565172,-0.257271035,0.776024659
129,326746,418650,0.934,-0.181,0.288,4.9,-0.4,0.9,-0.8,28.9,-17.4,0.189916684,0.543595691,-0.257209998,0.776024659
130,330621,418650,0.938,-0.181,0.288,4.9,-0.4,0.9,-0.8,28.9,-17.4,0.189855647,0.543595691,-0.257118442,0.776055177
131,332158,418660,0.938,-0.181,0.288,4.9,-0.4,0.9,-0.8,28.9,-17.4,0.189855647,0.543595691,-0.257118442,0.776055177
132,335399,418660,0.938,-0.181,0.288,4.9,-0.4,0.9,-0.8,28.9,-17.4,0.189855647,0.543595691,-0.257118442,0.776055177
133,337682,418660,0.938,-0.173,0.292,4.1,-0.7,1.1,-0.8,28.9,-17.4,0.189886166,0.543595691,-0.256935331,0.776146733
134,339846,418660,0.942,-0.169,0.288,3.5,-0.8,0.9,-0.8,28.9,-17.4,0.189764092,0.543656728,-0.256843776,0.776177252
135,342091,418670,0.938,-0.169,0.292,3.5,-0.8,0.9,-0.8,28.9,-17.4,0.189672536,0.543656728,-0.256782739,0.776177252
136,346238,418670,0.938,-0.169,0.292,3.5,-0.8,0.9,-0.8,28.9,-17.4,0.189672536,0.543656728,-0.256782739,0.776177252
137,346422,418670,0.942,-0.169,0.284,2.8,-0.8,1,-0.3,28.9,-16.6,0.189642018,0.543687246,-0.25675222,0.776177252
138,350054,418670,0.942,-0.166,0.284,2.5,-0.7,1.1,-0.3,28.9,-16.6,0.189580981,0.543717765,-0.256721702,0.77620777
139,352311,418680,0.942,-0.162,0.284,2,-0.6,1.3,-0.3,28.9,-16.6,0.189489425,0.543748283,-0.256691183,0.77620777
140,354647,418680,0.942,-0.162,0.284,2,-0.6,1.3,-0.3,28.9,-16.6,0.189489425,0.543748283,-0.256691183,0.77620777
141,356728,418680,0.942,-0.162,0.288,1.8,-0.7,1.2,-0.7,28.8,-17.4,0.189428388,0.543748283,-0.256660665,0.77620777
142,360645,418680,0.946,-0.162,0.284,1.6,-0.8,1.1,-0.7,28.8,-17.4,0.189367351,0.543748283,-0.256660665,0.776238289
143,362464,418690,0.938,-0.158,0.284,1.4,-1,0.9,-0.7,28.8,-17.4,0.189306314,0.54380932,-0.256630146,0.776238289
144,364679,418690,0.938,-0.158,0.284,1.4,-1,0.9,-0.7,28.8,-17.4,0.189306314,0.54380932,-0.256630146,0.776238289
145,366799,418690,0.938,-0.154,0.284,1.2,-1.1,0.9,-0.5,28.7,-17.4,0.189275796,0.54380932,-0.256630146,0.776238289
146,370489,418690,0.938,-0.154,0.276,1.1,-1.3,0.9,-0.5,28.7,-17.4,0.189214759,0.543839839,-0.256630146,0.77620777
147,372733,418700,0.938,-0.154,0.284,0.9,-1.4,0.9,-0.5,28.7,-17.4,0.18918424,0.543870357,-0.256630146,0.77620777
148,374891,418700,0.942,-0.154,0.288,0.9,-1.4,1,-0.5,28.7,-17.4,0.189153722,0.543900876,-0.256630146,0.77620777
149,377152,418700,0.938,-0.15,0.288,0.8,-1.2,1,-0.9,28.8,-17.5,0.189123203,0.543900876,-0.256630146,0.77620777
150,379232,418700,0.934,-0.15,0.284,0.7,-1.1,1.1,-0.9,28.8,-17.5,0.189092685,0.543931394,-0.256660665,0.776177252
151,381526,418710,0.934,-0.158,0.284,0.7,-1,1,-0.9,28.8,-17.5,0.189062166,0.543931394,-0.256660665,0.776177252
152,385379,418710,0.93,-0.15,0.288,0.7,-1.1,0.9,-0.9,28.8,-17.5,0.189031648,0.543931394,-0.256660665,0.776177252
153,386732,418710,0.93,-0.15,0.288,0.7,-1.1,0.9,-0.9,28.8,-17.5,0.189031648,0.543931394,-0.256660665,0.776177252
154,390162,418710,0.934,-0.154,0.288,0.5,-1.4,0.8,-1.7,28.7,-17.4,0.18939787,0.544083987,-0.25614185,0.776177252
155,391613,418720,0.93,-0.154,0.284,0.3,-1.4,0.7,-1.7,28.7,-17.4,0.189367351,0.544083987,-0.25614185,0.776177252
156,394864,418720,0.93,-0.158,0.284,0.1,-1.4,0.5,-1.7,28.7,-17.4,0.189336833,0.544114505,-0.25614185,0.776146733
157,397862,418720,0.93,-0.154,0.284,0,-1.2,0.5,-1.7,28.7,-17.4,0.189336833,0.544145024,-0.256172369,0.776146733
158,400130,418720,0.93,-0.154,0.28,-0.6,-1,0.4,-1.1,28.8,-17.2,0.189336833,0.544145024,-0.256172369,0.776116214
159,402389,418730,0.93,-0.154,0.28,-0.6,-1,0.4,-1.1,28.8,-17.2,0.189336833,0.544175542,-0.256202887,0.776116214
160,404701,418730,0.934,-0.158,0.28,-1,-0.9,0.4,-1.1,28.8,-17.2,0.189336833,0.544175542,-0.256233406,0.776085696
161,406668,418730,0.934,-0.154,0.284,-1.4,-0.9,0.3,-1.1,28.8,-17.2,0.189336833,0.544175542,-0.256263924,0.776085696
162,410571,418730,0.927,-0.154,0.28,-2.1,-1.2,0.3,-0.9,28.9,-16.9,0.189336833,0.544206061,-0.256324961,0.776055177
163,412984,418740,0.93,-0.158,0.284,-2.1,-1.2,0.3,-0.9,28.9,-16.9,0.189367351,0.544206061,-0.256324961,0.776024659
164,415119,418740,0.93,-0.154,0.276,-2.5,-1.4,0.3,-0.9,28.9,-16.9,0.189367351,0.544206061,-0.256416517,0.77599414
165,417420,418740,0.934,-0.154,0.28,-2.8,-1.6,0.2,-0.9,28.9,-16.9,0.18939787,0.544236579,-0.256477554,0.775963622
166,419580,418740,0.934,-0.154,0.28,-2.8,-1.6,0.2,-0.9,28.9,-16.9,0.18939787,0.544236579,-0.256477554,0.775963622
167,421701,418750,0.927,-0.154,0.288,-3.5,-2.3,0,-1.1,28.9,-16.3,0.189458907,0.544267098,-0.256599628,0.775872066
168,425548,418750,0.93,-0.154,0.284,-3.5,-2.3,0,-1.1,28.9,-16.3,0.189489425,0.544297617,-0.256660665,0.775811029
169,427045,418750,0.927,-0.154,0.284,-3.7,-2.5,0,-1.1,28.9,-16.3,0.189519944,0.544328135,-0.25675222,0.775780511
170,430132,418750,0.927,-0.154,0.284,-3.7,-2.5,0,-1.1,28.9,-16.3,0.189519944,0.544328135,-0.25675222,0.775780511
171,431587,418760,0.934,-0.15,0.284,-4.3,-2.6,0.1,-1.4,28.9,-16.2,0.189580981,0.544389172,-0.256904813,0.775658437
172,435540,418760,0.934,-0.154,0.284,-4.3,-2.6,0.1,-1.4,28.9,-16.2,0.189611499,0.544419691,-0.256996368,0.7755974
173,437034,418760,0.93,-0.15,0.28,-4.6,-2.7,0.1,-1.4,28.9,-16.2,0.189642018,0.544419691,-0.257087924,0.775536363
174,440067,418760,0.93,-0.15,0.28,-4.6,-2.7,0.1,-1.4,28.9,-16.2,0.189642018,0.544419691,-0.257087924,0.775536363
175,442902,418770,0.93,-0.15,0.28,-4.6,-2.7,0.1,-1.4,28.9,-16.2,0.189642018,0.544419691,-0.257087924,0.775536363
176,445238,418770,0.938,-0.146,0.284,-5.4,-2.9,0.1,-1.3,28.9,-18.6,0.19022187,0.544602802,-0.256691183,0.775414289
177,447595,418770,0.938,-0.146,0.288,-5.4,-2.9,0.1,-1.3,28.9,-18.6,0.190252388,0.54463332,-0.256782739,0.775353252
178,450803,418770,0.938,-0.142,0.284,-5.5,-2.9,0.1,-1.3,28.9,-18.6,0.190313425,0.544663839,-0.256904813,0.775292215
179,452428,418780,0.938,-0.142,0.284,-5.5,-2.9,0.1,-1.3,28.9,-18.6,0.190313425,0.544663839,-0.256904813,0.775292215
180,455451,418780,0.938,-0.142,0.28,-5.6,-2.7,0,-1,29,-16.5,0.190343944,0.544663839,-0.256996368,0.775231178
181,456786,418780,0.942,-0.146,0.272,-6,-2.4,-0.1,-1,29,-16.5,0.190466018,0.544724876,-0.257240516,0.775109104
182,460043,418780,0.95,-0.146,0.272,-6,-2.4,-0.1,-1,29,-16.5,0.190527055,0.544724876,-0.257332072,0.775048067
183,461616,418790,0.95,-0.146,0.272,-6,-2.4,-0.1,-1,29,-16.5,0.190527055,0.544724876,-0.257332072,0.775048067
184,465114,418790,0.946,-0.15,0.268,-6.6,-2,-0.1,-1,29,-16.5,0.190588092,0.544724876,-0.257454146,0.77498703
185,466736,418790,0.946,-0.154,0.268,-7.1,-1.6,-0.3,-1,29,-16.5,0.190771203,0.544755394,-0.257698294,0.774864956
186,470070,418790,0.95,-0.154,0.264,-7.1,-1.6,-0.3,-1,29,-16.5,0.19083224,0.544755394,-0.257820368,0.774803919
187,472953,418800,0.95,-0.154,0.264,-7.1,-1.6,-0.3,-1,29,-16.5,0.19083224,0.544755394,-0.257820368,0.774803919
188,475188,418800,0.946,-0.154,0.264,-7.3,-0.8,-0.6,-1,29,-16.5,0.190923795,0.544724876,-0.257942442,0.774742882
189,477412,418800,0.946,-0.162,0.256,-7.8,-0.2,-0.9,-1,29,-16.5,0.191137425,0.544694357,-0.25818659,0.774620808
190,479695,418800,0.946,-0.166,0.26,-7.8,-0.2,-0.9,-1,29,-16.5,0.191259499,0.544663839,-0.258278146,0.774590289
191,481759,418810,0.946,-0.166,0.26,-7.8,-0.2,-0.9,-1,29,-16.5,0.191259499,0.544663839,-0.258278146,0.774590289
192,485780,418810,0.95,-0.166,0.264,-8.3,0,-1.1,-1,29,-16.5,0.191381573,0.54463332,-0.258430738,0.774529252
193,487972,418810,0.95,-0.17,0.264,-8.9,0.1,-1.4,-1,29,-16.5,0.191625721,0.544572283,-0.258705405,0.774407178
194,490326,418810,0.954,-0.17,0.264,-8.9,0.1,-1.4,-1,29,-16.5,0.191747795,0.544541765,-0.258827479,0.774376659
195,492689,418820,0.954,-0.17,0.264,-8.9,0.1,-1.4,-1,29,-16.5,0.191747795,0.544541765,-0.258827479,0.774376659
196,495622,418820,0.954,-0.17,0.264,-8.9,0.1,-1.4,-1,29,-16.5,0.191747795,0.544541765,-0.258827479,0.774376659
197,497968,418820,0.95,-0.17,0.26,-10.1,0.6,-1.3,-1.7,28.8,-18.9,0.192083499,0.544755394,-0.25879696,0.77416303
198,500196,418820,0.958,-0.17,0.264,-10.6,0.5,-1.4,-1.7,28.8,-18.9,0.192236091,0.544724876,-0.258949553,0.774101993
199,502592,418830,0.954,-0.166,0.268,-11.7,0.1,-1.5,-1.7,28.8,-18.9,0.192571795,0.54463332,-0.259285257,0.7739494
200,504759,418830,0.954,-0.166,0.268,-11.7,0.1,-1.5,-1.7,28.8,-18.9,0.192571795,0.54463332,-0.259285257,0.7739494
201,506798,418830,0.954,-0.17,0.268,-12.3,0,-1.6,-1.7,28.6,-17.6,0.192754906,0.544572283,-0.259468368,0.773888363
202,510719,418830,0.954,-0.17,0.272,-12.8,-0.3,-1.5,-1.7,28.6,-17.6,0.192938017,0.544541765,-0.259681997,0.773796808
203,512374,418840,0.958,-0.162,0.276,-13.7,-1,-1.5,-1.7,28.6,-17.6,0.193304239,0.544480728,-0.260109256,0.773613697
204,514726,418840,0.958,-0.162,0.276,-13.7,-1,-1.5,-1.7,28.6,-17.6,0.193304239,0.544480728,-0.260109256,0.773613697
205,516687,418840,0.958,-0.166,0.272,-14.1,-1.1,-1.6,-1.4,29.1,-17.9,0.19348735,0.544450209,-0.260322886,0.773522141
206,520131,418840,0.954,-0.166,0.276,-14.4,-1.1,-1.8,-1.4,29.1,-17.9,0.193670461,0.544419691,-0.260567034,0.773400067
207,522375,418850,0.958,-0.162,0.268,-15.4,-1,-2,-1.4,29.1,-17.9,0.19409772,0.544358654,-0.261024812,0.773186438
208,524688,418850,0.958,-0.162,0.268,-15.4,-1,-2,-1.4,29.1,-17.9,0.19409772,0.544358654,-0.261024812,0.773186438
209,526679,418850,0.958,-0.162,0.268,-15.9,-0.9,-1.9,-1.2,29,-18.5,0.19431135,0.544297617,-0.261299478,0.773094882
210,530691,418850,0.958,-0.162,0.268,-16.4,-1,-2,-1.2,29,-18.5,0.194524979,0.544267098,-0.261543626,0.772972808
211,533066,418860,0.958,-0.162,0.268,-16.7,-1,-2.1,-1.2,29,-18.5,0.194769127,0.544236579,-0.261818293,0.772850734
212,535278,418860,0.958,-0.162,0.264,-17,-0.9,-2.1,-1.2,29,-18.5,0.194982757,0.544175542,-0.262062441,0.77272866
213,537414,418860,0.962,-0.162,0.26,-17.1,-0.7,-2.1,-1.6,29.1,-16.4,0.195226905,0.544145024,-0.262337107,0.772606586
214,540817,418860,0.954,-0.158,0.26,-17.2,-0.5,-2.2,-1.6,29.1,-16.4,0.195471053,0.544083987,-0.262611774,0.772484512
215,542546,418870,0.962,-0.158,0.26,-17.1,-0.2,-2.3,-1.6,29.1,-16.4,0.195715201,0.54402295,-0.262855922,0.772392956
216,544831,418870,0.965,-0.162,0.256,-16.9,-0.2,-2.3,-1.6,29.1,-16.4,0.195959349,0.543931394,-0.263130589,0.772270882
217,546831,418870,0.965,-0.162,0.256,-16.9,-0.2,-2.3,-1.6,29.1,-16.4,0.195959349,0.543931394,-0.263130589,0.772270882
218,550700,418870,0.973,-0.158,0.248,-16.1,-0.1,-2.4,-1.6,29.5,-17.8,0.196508683,0.544328135,-0.262977996,0.77190466
219,552355,418880,0.969,-0.166,0.248,-15.8,0,-2.4,-1.6,29.5,-17.8,0.196752831,0.544297617,-0.263222144,0.771813105
220,554699,418880,0.969,-0.162,0.248,-15.6,0.1,-2.2,-1.6,29.5,-17.8,0.19696646,0.544236579,-0.263466292,0.771721549
221,556863,418880,0.973,-0.166,0.248,-15.5,0.4,-2.1,-1.6,29.5,-17.8,0.197210608,0.544175542,-0.26371044,0.771629994
222,559691,418880,0.977,-0.17,0.24,-15.2,0.7,-2,-1.4,29.5,-17.6,0.197424238,0.544083987,-0.26392407,0.771538438
223,561534,418890,0.977,-0.162,0.244,-14.9,1.1,-1.9,-1.4,29.5,-17.6,0.197637867,0.54402295,-0.2641377,0.771446883
224,564635,418890,0.973,-0.162,0.244,-14.5,1.5,-2,-1.4,29.5,-17.6,0.197851497,0.543931394,-0.264351329,0.771385846
225,567685,418890,0.973,-0.162,0.248,-14.2,1.9,-2,-1.4,29.5,-17.6,0.198065126,0.543870357,-0.264564959,0.771324808
226,569902,418890,0.973,-0.151,0.244,-14.1,2.3,-2,-1.8,29.1,-17.7,0.198278756,0.543778802,-0.264778588,0.771263771
227,572123,418900,0.973,-0.155,0.244,-14.1,2.6,-2,-1.8,29.1,-17.7,0.198461867,0.543687246,-0.264992218,0.771202734
228,575070,418900,0.969,-0.154,0.252,-14.4,2.7,-1.8,-1.8,29.1,-17.7,0.198736534,0.543595691,-0.265175329,0.771141697
229,576439,418900,0.969,-0.162,0.248,-14.9,2.7,-1.6,-1.8,29.1,-17.7,0.198950163,0.543473617,-0.265419477,0.77108066
230,580982,418900,0.969,-0.155,0.244,-15.5,2.8,-1.4,-1.6,29.2,-17,0.199163793,0.543382061,-0.265633106,0.771019623
231,582657,418910,0.958,-0.154,0.248,-16.1,2.9,-1.3,-1.6,29.2,-17,0.199407941,0.543259987,-0.265877255,0.770928068
232,584829,418910,0.961,-0.154,0.252,-16.7,3.2,-1.1,-1.6,29.2,-17,0.199652089,0.543137913,-0.266090884,0.770867031
233,587978,418910,0.958,-0.15,0.256,-17.3,3.5,-0.9,-1.6,29.2,-17,0.199865719,0.543015839,-0.266396069,0.770805994
234,590101,418910,0.954,-0.154,0.264,-18.1,3.6,-0.7,-1.5,29.8,-15.5,0.200140385,0.542893765,-0.266670736,0.770744957
235,592347,418920,0.954,-0.154,0.26,-18.9,3.7,-0.7,-1.5,29.8,-15.5,0.200384533,0.542741173,-0.266975921,0.77068392
236,594669,418920,0.954,-0.154,0.26,-19.7,3.6,-0.7,-1.5,29.8,-15.5,0.2006592,0.54258858,-0.267281106,0.770592364
237,596773,418920,0.95,-0.154,0.26,-20.6,3.5,-0.6,-1.5,29.8,-15.5,0.200933866,0.542466506,-0.267586291,0.770500809
238,600665,418920,0.95,-0.154,0.26,-20.6,3.5,-0.6,-1.5,29.8,-15.5,0.200933866,0.542466506,-0.267586291,0.770500809
239,602896,418930,0.95,-0.154,0.26,-20.6,3.5,-0.6,-1.5,29.8,-15.5,0.200933866,0.542466506,-0.267586291,0.770500809
240,605126,418930,0.946,-0.154,0.256,-23.8,3.1,-0.1,-1.6,28.6,-17.4,0.201788385,0.542405469,-0.268044069,0.770165105
241,607345,418930,0.946,-0.15,0.264,-25,3.1,0,-1.6,28.6,-17.4,0.202124088,0.542222358,-0.268471328,0.77007355
242,609619,418930,0.95,-0.158,0.26,-26.1,3.1,0.1,-1.6,28.6,-17.4,0.202429273,0.542069765,-0.268898587,0.769951476
243,611681,418940,0.95,-0.158,0.26,-26.1,3.1,0.1,-1.6,28.6,-17.4,0.202429273,0.542069765,-0.268898587,0.769951476
244,614934,418940,0.946,-0.154,0.264,-27.7,3.3,0.4,-2,28.2,-17.7,0.203131199,0.541703543,-0.269814142,0.769707327
245,617188,418940,0.95,-0.158,0.256,-28.4,3.2,0.4,-2,28.2,-17.7,0.203466903,0.541520432,-0.27027192,0.769585253
246,620769,418940,0.942,-0.162,0.26,-28.9,3.1,0.4,-2,28.2,-17.7,0.203833125,0.541337321,-0.270760216,0.769463179
247,622397,418950,0.942,-0.162,0.26,-28.9,3.1,0.4,-2,28.2,-17.7,0.203833125,0.541337321,-0.270760216,0.769463179
248,624725,418950,0.942,-0.158,0.264,-29.8,3.1,0.3,-1.5,28.4,-17.2,0.204199347,0.54115421,-0.271248512,0.769310587
249,626671,418950,0.946,-0.166,0.26,-30.1,3,0.4,-1.5,28.4,-17.2,0.204931791,0.540757469,-0.272255623,0.76903592
250,630649,418950,0.946,-0.166,0.26,-30.4,3,0.5,-1.5,28.4,-17.2,0.205298013,0.540574358,-0.272743919,0.768883328
251,632839,418960,0.946,-0.166,0.26,-30.4,3,0.5,-1.5,28.4,-17.2,0.205298013,0.540574358,-0.272743919,0.768883328
252,635144,418960,0.946,-0.166,0.256,-30.8,2.8,0.4,-1.4,28.2,-17.2,0.205664235,0.540391247,-0.273262734,0.768730735
253,636436,418960,0.946,-0.166,0.26,-31,2.6,0.4,-1.4,28.2,-17.2,0.206427198,0.540025025,-0.274300363,0.76842555
254,639598,418960,0.95,-0.166,0.268,-31.5,2.3,0.4,-1.4,28.2,-17.2,0.20679342,0.539841914,-0.274819178,0.768272958
255,642650,418970,0.95,-0.166,0.268,-31.5,2.3,0.4,-1.4,28.2,-17.2,0.20679342,0.539841914,-0.274819178,0.768272958
256,644859,418970,0.946,-0.17,0.268,-32.3,1.7,0.5,-1.5,30.9,-15.6,0.207190161,0.539658803,-0.275368511,0.768089846
257,647691,418970,0.946,-0.174,0.264,-32.7,1.5,0.6,-1.5,30.9,-15.6,0.207556383,0.539475692,-0.275917844,0.767937254
258,650776,418970,0.946,-0.174,0.26,-32.9,1.6,0.6,-1.5,30.9,-15.6,0.208319346,0.53910947,-0.277016511,0.767571032
259,652381,418980,0.946,-0.174,0.26,-32.9,1.6,0.6,-1.5,30.9,-15.6,0.208319346,0.53910947,-0.277016511,0.767571032
260,655009,418980,0.946,-0.174,0.26,-32.9,1.6,0.6,-1.5,30.9,-15.6,0.208319346,0.53910947,-0.277016511,0.767571032
261,656395,418980,0.95,-0.181,0.264,-33.9,2.1,0.1,-1.5,29.5,-16.2,0.209021271,0.539139988,-0.27723014,0.767296365
262,660805,418980,0.946,-0.181,0.264,-34.2,2.4,0.1,-1.5,29.5,-16.2,0.209448531,0.538956877,-0.277779473,0.767113254
263,662399,418990,0.946,-0.181,0.264,-34.5,2.8,0,-1.5,29.5,-16.2,0.210303049,0.538529618,-0.278908658,0.766747032
264,664990,418990,0.946,-0.181,0.264,-34.5,2.8,0,-1.5,29.5,-16.2,0.210303049,0.538529618,-0.278908658,0.766747032
265,666524,418990,0.95,-0.185,0.264,-34.7,3.4,0,-1.3,30,-16.1,0.210730308,0.538315989,-0.27948851,0.76659444
266,671077,418990,0.954,-0.189,0.26,-34.6,3.6,-0.1,-1.3,30,-16.1,0.211157567,0.538102359,-0.280037843,0.766411328
267,672529,419000,0.95,-0.185,0.268,-34.7,3.7,-0.2,-1.3,30,-16.1,0.211584826,0.53788873,-0.280587176,0.766258736
268,674738,419000,0.946,-0.181,0.264,-34.7,3.7,-0.2,-1.3,30,-16.1,0.212012085,0.537644581,-0.281167028,0.766075625
269,677791,419000,0.946,-0.185,0.264,-35,3.5,-0.1,-1.5,30,-16,0.212469863,0.537430952,-0.281716361,0.765892514
270,679943,419000,0.942,-0.189,0.272,-35.2,3.2,0,-1.5,30,-16,0.212897122,0.537217322,-0.282296213,0.765709403
271,681444,419010,0.938,-0.181,0.272,-35.4,3,0,-1.5,30,-16,0.213324381,0.537003693,-0.282876064,0.765526292
272,685986,419010,0.942,-0.185,0.272,-35.7,2.9,0.3,-1.5,30,-16,0.21375164,0.536790063,-0.283455916,0.765343181
273,687567,419010,0.934,-0.185,0.272,-36,2.7,0.5,-1.4,30.7,-15.2,0.2141789,0.536576434,-0.284066286,0.76516007
274,689736,419010,0.93,-0.181,0.28,-36.2,2.6,0.8,-1.4,30.7,-15.2,0.214606159,0.536332286,-0.284676656,0.764976959
275,692908,419020,0.926,-0.185,0.273,-36.5,2.3,0.9,-1.4,30.7,-15.2,0.215033418,0.536118656,-0.285287027,0.764793847
276,694969,419020,0.926,-0.181,0.273,-36.6,2.1,1,-1.4,30.7,-15.2,0.215460677,0.535905026,-0.285897397,0.764580218
277,697998,419020,0.922,-0.177,0.269,-36.9,1.9,1.1,-1.1,30.7,-15.1,0.215887936,0.535691397,-0.286507767,0.764366588
278,700855,419020,0.919,-0.181,0.273,-37,1.8,1.1,-1.1,30.7,-15.1,0.216315195,0.535477767,-0.287118137,0.764183477
279,702531,419030,0.915,-0.177,0.269,-37.1,1.8,1.3,-1.1,30.7,-15.1,0.216742454,0.535264138,-0.287759026,0.763969848
280,705552,419030,0.915,-0.185,0.265,-37.1,1.8,1.4,-1.1,30.7,-15.1,0.217169713,0.535050508,-0.288399915,0.763756218
281,706992,419030,0.915,-0.185,0.265,-37.1,1.8,1.4,-1.1,30.7,-15.1,0.217169713,0.535050508,-0.288399915,0.763756218
282,709948,419030,0.911,-0.185,0.253,-37.3,2.1,1.6,-1.4,31.2,-15,0.217719047,0.534867397,-0.288827174,0.763573107
283,712960,419040,0.907,-0.181,0.253,-37.3,2.2,1.7,-1.4,31.2,-15,0.218146306,0.534653768,-0.289468062,0.763359478
284,715884,419040,0.911,-0.185,0.257,-37.4,2.2,1.7,-1.4,31.2,-15,0.218573565,0.534409619,-0.290108951,0.763176366
285,717472,419040,0.907,-0.177,0.253,-37.6,1.9,1.7,-1.4,31.2,-15,0.218970305,0.53419599,-0.29074984,0.762962737
286,720408,419040,0.907,-0.181,0.249,-37.9,1.5,1.7,-1,31.4,-14.6,0.219397565,0.53398236,-0.291390728,0.762749107
287,722122,419050,0.907,-0.177,0.253,-38,1,1.7,-1,31.4,-14.6,0.219824824,0.533768731,-0.292031617,0.762535478
288,725510,419050,0.903,-0.177,0.257,-38.2,0.4,1.9,-1,31.4,-14.6,0.220252083,0.533555101,-0.292703024,0.76229133
289,727130,419050,0.907,-0.177,0.257,-38.5,-0.1,2.2,-1,31.4,-14.6,0.220648824,0.53337199,-0.293374432,0.762047182
290,730001,419050,0.903,-0.173,0.253,-38.9,-0.6,2.3,-1.5,31.2,-14.2,0.221076083,0.533158361,-0.294045839,0.761803034
291,731437,419060,0.903,-0.169,0.257,-39.2,-1,2.5,-1.5,31.2,-14.2,0.221472823,0.532975249,-0.294717246,0.761558885
292,735897,419060,0.903,-0.165,0.265,-39.5,-1.4,2.7,-1.5,31.2,-14.2,0.221869564,0.532792138,-0.295388653,0.761284219
293,737585,419060,0.903,-0.165,0.257,-39.8,-1.7,2.8,-1.5,31.2,-14.2,0.222266305,0.532609027,-0.296121097,0.761040071
294,740512,419060,0.903,-0.165,0.257,-39.8,-1.7,2.8,-1.5,31.2,-14.2,0.222266305,0.532609027,-0.296121097,0.761040071
295,742028,419070,0.903,-0.157,0.253,-40.7,-2.1,2.7,-1.4,30.4,-14.6,0.223090304,0.532212287,-0.297555467,0.760490738
296,745161,419070,0.907,-0.161,0.253,-41.3,-2,2.4,-1.4,30.4,-14.6,0.223517563,0.532059694,-0.298287912,0.760216071
297,747397,419070,0.907,-0.165,0.253,-41.9,-2,2.2,-1.4,30.4,-14.6,0.223975341,0.531876583,-0.299020356,0.759910886
298,750267,419070,0.907,-0.165,0.253,-41.9,-2,2.2,-1.4,30.4,-14.6,0.223975341,0.531876583,-0.299020356,0.759910886
299,751994,419080,0.911,-0.169,0.253,-43.1,-1.4,1.7,-2,31.5,-14.2,0.224829859,0.531479843,-0.300485244,0.759331034
300,755742,419080,0.911,-0.177,0.249,-43.5,-1.1,1.5,-2,31.5,-14.2,0.225348674,0.531296731,-0.301248207,0.759056368
301,757357,419080,0.911,-0.177,0.249,-43.8,-1.1,1.3,-2,31.5,-14.2,0.225806452,0.531083102,-0.301980651,0.758751183
302,760347,419080,0.911,-0.177,0.249,-43.8,-1.1,1.3,-2,31.5,-14.2,0.225806452,0.531083102,-0.301980651,0.758751183
303,762768,419090,0.911,-0.177,0.249,-43.8,-1.1,1.3,-2,31.5,-14.2,0.225806452,0.531083102,-0.301980651,0.758751183
304,764823,419090,0.918,-0.181,0.249,-45.2,-1.1,0.6,-2.1,31.9,-14.3,0.226599933,0.531022065,-0.30240791,0.75838496
305,767339,419090,0.914,-0.185,0.241,-45.8,-0.7,0.4,-2.1,31.9,-14.3,0.227637562,0.530594806,-0.303933836,0.75777459
306,770851,419090,0.918,-0.193,0.245,-46.3,-0.3,0.2,-2.1,31.9,-14.3,0.228156377,0.530381176,-0.304727317,0.757469405
307,773222,419100,0.918,-0.193,0.245,-46.3,-0.3,0.2,-2.1,31.9,-14.3,0.228156377,0.530381176,-0.304727317,0.757469405
308,775605,419100,0.914,-0.201,0.238,-47,0.4,-0.2,-2.7,32.1,-14.1,0.22870571,0.530137028,-0.30549028,0.75716422
309,777686,419100,0.918,-0.201,0.241,-47,0.4,-0.2,-2.7,32.1,-14.1,0.229255043,0.52989288,-0.306253243,0.756828516
310,779881,419100,0.914,-0.204,0.238,-47,0.9,-1,-2.7,32.1,-14.1,0.230384228,0.529404584,-0.307779168,0.756218146
311,782183,419110,0.914,-0.204,0.238,-47,0.9,-1,-2.7,32.1,-14.1,0.230384228,0.529404584,-0.307779168,0.756218146
312,786459,419110,0.918,-0.212,0.241,-46.9,1.2,-1.5,-2.6,32.3,-13.9,0.23096408,0.529160436,-0.308542131,0.755912961
313,786459,419110,0.918,-0.216,0.238,-46.9,1.3,-1.7,-2.6,32.3,-13.9,0.231543931,0.528885769,-0.309274575,0.755607776
314,790493,419110,0.922,-0.22,0.241,-46.9,1.6,-1.9,-2.6,32.3,-13.9,0.232703635,0.528397473,-0.310769982,0.754997406
315,792819,419120,0.922,-0.22,0.241,-46.9,1.6,-1.9,-2.6,32.3,-13.9,0.232703635,0.528397473,-0.310769982,0.754997406
316,795070,419120,0.918,-0.22,0.23,-47,1.8,-2.5,-0.8,31,-13.5,0.233314005,0.528153325,-0.311502426,0.754692221
317,796852,419120,0.918,-0.224,0.241,-47,1.9,-2.7,-0.8,31,-13.5,0.233893857,0.527909177,-0.31223487,0.754356517
318,799692,419120,0.918,-0.224,0.238,-47,1.9,-2.7,-0.8,31,-13.5,0.234504227,0.52763451,-0.312967315,0.754051332
319,801704,419130,0.918,-0.224,0.238,-46.9,1.9,-2.9,-0.8,31,-13.5,0.235114597,0.527390362,-0.313699759,0.753746147
320,805627,419130,0.914,-0.232,0.242,-46.9,1.9,-3.4,-2.2,32.5,-13.5,0.235724967,0.527146214,-0.314432203,0.753410443
321,807747,419130,0.914,-0.236,0.238,-46.9,1.9,-3.7,-2.2,32.5,-13.5,0.236335337,0.526902066,-0.315134129,0.753105258
322,809959,419130,0.914,-0.232,0.238,-46.8,2,-4,-2.2,32.5,-13.5,0.236945708,0.526657918,-0.315866573,0.752769555
323,812412,419140,0.918,-0.236,0.238,-46.8,2,-4,-2.2,32.5,-13.5,0.237525559,0.526383251,-0.316568499,0.75246437
324,815990,419140,0.918,-0.236,0.238,-46.8,2,-4,-2.2,32.5,-13.5,0.237525559,0.526383251,-0.316568499,0.75246437
325,818310,419140,0.914,-0.24,0.234,-46.8,1.8,-4.8,-2.5,32.4,-12.9,0.238105411,0.526139103,-0.31736198,0.752128666
326,820375,419140,0.914,-0.243,0.238,-46.9,1.7,-5,-2.5,32.4,-12.9,0.2387463,0.525894955,-0.318063906,0.751792962
327,822423,419150,0.914,-0.24,0.23,-47,1.6,-5.2,-2.5,32.4,-12.9,0.239387188,0.525681326,-0.31879635,0.751457259
328,824693,419150,0.914,-0.247,0.234,-47,1.6,-5.2,-2.5,32.4,-12.9,0.240028077,0.525437178,-0.319498276,0.751121555
329,827515,419150,0.914,-0.247,0.226,-47.2,1.3,-5.9,-2.3,32.7,-12.5,0.240668966,0.52519303,-0.320169683,0.750785852
330,829668,419150,0.914,-0.247,0.226,-47.2,1.1,-6.3,-2.3,32.7,-12.5,0.241340373,0.5249794,-0.320871609,0.75041963
331,832440,419160,0.922,-0.236,0.23,-47.1,1,-6.6,-2.3,32.7,-12.5,0.241981262,0.52476577,-0.321573534,0.750053407
332,834803,419160,0.926,-0.24,0.233,-47.1,1,-6.6,-2.3,32.7,-12.5,0.242652669,0.524552141,-0.322244942,0.749717704
333,837043,419160,0.926,-0.24,0.23,-46.7,0.8,-7.5,-2.3,32.7,-12.5,0.243324076,0.524338511,-0.322946867,0.749351482
334,840452,419160,0.93,-0.236,0.226,-46.6,0.6,-7.9,-2.3,32.7,-12.5,0.243964965,0.524124882,-0.323587756,0.74898526
335,841938,419170,0.926,-0.232,0.226,-46.5,0.6,-8.4,-2.3,32.7,-12.5,0.244636372,0.523941771,-0.324259163,0.748619037
336,844967,419170,0.93,-0.236,0.226,-46.6,0.6,-8.7,-2.3,32.7,-12.5,0.245338298,0.523728141,-0.32493057,0.748252815
337,847186,419170,0.934,-0.236,0.226,-46.6,0.8,-9,-2,32.5,-12.3,0.246009705,0.52354503,-0.325571459,0.747886593
338,850239,419170,0.938,-0.236,0.225,-46.7,1,-9.2,-2,32.5,-12.3,0.246711631,0.5233314,-0.326212348,0.747520371
339,851969,419180,0.942,-0.232,0.225,-46.6,1.1,-9.5,-2,32.5,-12.3,0.247413556,0.523148289,-0.326853236,0.747154149
340,854732,419180,0.942,-0.232,0.225,-46.5,1.1,-9.8,-2,32.5,-12.3,0.248115482,0.52293466,-0.327494125,0.746757408
341,857550,419180,0.942,-0.232,0.225,-46.5,1.1,-9.8,-2,32.5,-12.3,0.248115482,0.52293466,-0.327494125,0.746757408
342,859739,419180,0.949,-0.232,0.229,-46,0.9,-10.3,-1.5,32.7,-12.4,0.249519333,0.522537919,-0.328775903,0.746024964
343,862806,419190,0.949,-0.232,0.225,-45.9,1,-10.6,-1.5,32.7,-12.4,0.250221259,0.522354808,-0.329386273,0.745658742
344,865008,419190,0.949,-0.225,0.229,-45.9,1.3,-10.6,-1.5,32.7,-12.4,0.250923185,0.522171697,-0.329996643,0.745262001
345,867254,419190,0.949,-0.225,0.229,-45.9,1.3,-10.6,-1.5,32.7,-12.4,0.250923185,0.522171697,-0.329996643,0.745262001
346,870018,419190,0.949,-0.225,0.229,-45.9,1.3,-10.6,-1.5,32.7,-12.4,0.250923185,0.522171697,-0.329996643,0.745262001
347,872292,419200,0.961,-0.221,0.221,-46,2.3,-10.4,-1.4,32.9,-12.1,0.251625111,0.522049623,-0.330637532,0.744834742
348,874600,419200,0.965,-0.213,0.229,-46.3,3,-10.7,-1.4,32.9,-12.1,0.253059481,0.521591845,-0.331858272,0.744102298
349,876595,419200,0.965,-0.213,0.221,-46.3,3.4,-10.8,-1.4,32.9,-12.1,0.253791925,0.521347697,-0.332468642,0.743766594
350,880864,419200,0.965,-0.213,0.221,-46.3,3.4,-10.8,-1.4,32.9,-12.1,0.253791925,0.521347697,-0.332468642,0.743766594
351,882791,419210,0.961,-0.205,0.221,-46.2,3.6,-11,-1.2,32.7,-12.2,0.254524369,0.521134068,-0.333079012,0.743400372
352,885614,419210,0.965,-0.209,0.221,-46.1,3.9,-11.3,-1.2,32.7,-12.2,0.255989257,0.520645772,-0.334269234,0.742698447
353,887036,419210,0.969,-0.209,0.225,-46.1,4.3,-11.5,-1.2,32.7,-12.2,0.25675222,0.520401624,-0.334879604,0.742332224
354,890071,419210,0.969,-0.209,0.225,-46.1,4.3,-11.5,-1.2,32.7,-12.2,0.25675222,0.520401624,-0.334879604,0.742332224
355,891566,419220,0.965,-0.209,0.217,-46.2,4.6,-11.9,-2.5,33.1,-11.3,0.257484664,0.520157476,-0.335459456,0.741996521
356,895755,419220,0.965,-0.205,0.217,-46.2,5,-12,-2.5,33.1,-11.3,0.258247627,0.519913327,-0.336039308,0.741630299
357,897143,419220,0.965,-0.205,0.213,-46.6,5.3,-12.3,-2.5,33.1,-11.3,0.259773553,0.519394513,-0.337199011,0.740928373
358,900099,419220,0.965,-0.205,0.213,-46.6,5.3,-12.3,-2.5,33.1,-11.3,0.259773553,0.519394513,-0.337199011,0.740928373
359,901649,419230,0.953,-0.205,0.202,-47.1,5.6,-13,-1.2,33.2,-11.1,0.260567034,0.519119846,-0.337778863,0.740562151
360,904770,419230,0.957,-0.205,0.205,-47.1,5.6,-13,-1.2,33.2,-11.1,0.261360515,0.518875698,-0.338358715,0.740226447
361,907890,419230,0.953,-0.213,0.202,-48,6.2,-13.8,-1.2,33.2,-11.1,0.262977996,0.518326365,-0.339548936,0.739494003
362,910744,419230,0.953,-0.213,0.202,-48,6.2,-13.8,-1.2,33.2,-11.1,0.262977996,0.518326365,-0.339548936,0.739494003
363,912261,419240,0.949,-0.213,0.198,-49.3,7.1,-14.4,-1.3,33.1,-11,0.263801996,0.51802118,-0.340128788,0.739127781
364,915521,419240,0.941,-0.209,0.198,-49.3,7.1,-14.4,-1.3,33.1,-11,0.264656514,0.517746513,-0.34070864,0.738761559
365,917634,419240,0.945,-0.217,0.198,-50.1,7.6,-14.6,-1.3,33.1,-11,0.265511032,0.517441328,-0.34131901,0.738395337
366,919768,419240,0.945,-0.225,0.194,-50.8,8.1,-15,-1.3,33.1,-11,0.266396069,0.517105625,-0.34192938,0.737998596
367,922925,419250,0.945,-0.225,0.194,-50.8,8.1,-15,-1.3,33.1,-11,0.266396069,0.517105625,-0.34192938,0.737998596
368,926019,419250,0.941,-0.225,0.19,-53.1,9.4,-15.8,-1.3,32.9,-10.4,0.267342143,0.517075106,-0.342600787,0.737388226
369,928402,419250,0.937,-0.228,0.194,-53.9,9.7,-16,-1.3,32.9,-10.4,0.268257698,0.516708884,-0.343211158,0.737022004
370,930694,419250,0.941,-0.225,0.19,-53.9,9.7,-16,-1.3,32.9,-10.4,0.269203772,0.51637318,-0.343852046,0.736625263
371,933070,419260,0.941,-0.225,0.19,-53.9,9.7,-16,-1.3,32.9,-10.4,0.269203772,0.51637318,-0.343852046,0.736625263
372,934816,419260,0.941,-0.236,0.182,-56.2,10.3,-16.9,-1.3,33.4,-10.8,0.271126438,0.515640736,-0.345133824,0.735831782
373,936808,419260,0.941,-0.236,0.182,-56.9,10.6,-17.3,-1.3,33.4,-10.8,0.272133549,0.515243995,-0.345805231,0.735404523
374,939182,419260,0.941,-0.236,0.182,-56.9,10.6,-17.3,-1.3,33.4,-10.8,0.272133549,0.515243995,-0.345805231,0.735404523
375,941579,419270,0.941,-0.236,0.182,-56.9,10.6,-17.3,-1.3,33.4,-10.8,0.272133549,0.515243995,-0.345805231,0.735404523
376,945149,419270,0.941,-0.236,0.182,-56.9,10.6,-17.3,-1.3,33.4,-10.8,0.272133549,0.515243995,-0.345805231,0.735404523
377,947442,419270,0.941,-0.236,0.182,-56.9,10.6,-17.3,-1.3,33.4,-10.8,0.272133549,0.515243995,-0.345805231,0.735404523
378,949585,419270,0.941,-0.236,0.182,-56.9,10.6,-17.3,-1.3,33.4,-10.8,0.272133549,0.515243995,-0.345805231,0.735404523
379,951690,419280,0.941,-0.236,0.182,-56.9,10.6,-17.3,-1.3,33.4,-10.8,0.272133549,0.515243995,-0.345805231,0.735404523
380,953919,419280,0.941,-0.236,0.182,-56.9,10.6,-17.3,-1.3,33.4,-10.8,0.272133549,0.515243995,-0.345805231,0.735404523
381,956502,419280,0.941,-0.236,0.182,-56.9,10.6,-17.3,-1.3,33.4,-10.8,0.272133549,0.515243995,-0.345805231,0.735404523
382,961023,419280,0.941,-0.236,0.182,-56.9,10.6,-17.3,-1.3,33.4,-10.8,0.272133549,0.515243995,-0.345805231,0.735404523
383,963133,419290,0.941,-0.236,0.182,-56.9,10.6,-17.3,-1.3,33.4,-10.8,0.272133549,0.515243995,-0.345805231,0.735404523
384,965428,419290,0.941,-0.236,0.182,-56.9,10.6,-17.3,-1.3,33.4,-10.8,0.272133549,0.515243995,-0.345805231,0.735404523
385,967644,419290,0.965,-0.288,0.186,-61.6,14.7,-18.7,-1.4,33.9,-9.4,0.287087619,0.509079257,-0.355204932,0.729544969
386,969845,419290,0.965,-0.288,0.186,-61.6,14.7,-18.7,-1.4,33.9,-9.4,0.287087619,0.509079257,-0.355204932,0.729544969
387,971888,419300,0.965,-0.288,0.186,-61.6,14.7,-18.7,-1.4,33.9,-9.4,0.287087619,0.509079257,-0.355204932,0.729544969
388,975815,419300,0.968,-0.295,0.186,-61.6,15.2,-18.4,-1.6,34.1,-9.3,0.290108951,0.507736442,-0.357615894,0.728110599
389,978245,419300,0.972,-0.299,0.186,-61.6,15.2,-18.4,-1.6,34.1,-9.3,0.291207617,0.507217627,-0.358287301,0.727652821
390,980429,419300,0.972,-0.299,0.186,-61.6,15.2,-18.4,-1.6,34.1,-9.3,0.291207617,0.507217627,-0.358287301,0.727652821
391,982565,419310,0.972,-0.299,0.186,-61.6,15.2,-18.4,-1.6,34.1,-9.3,0.291207617,0.507217627,-0.358287301,0.727652821
392,985221,419310,0.972,-0.299,0.186,-61.6,15.2,-18.4,-1.6,34.1,-9.3,0.291207617,0.507217627,-0.358287301,0.727652821
393,987603,419310,0.972,-0.311,0.182,-60.4,15.7,-18.6,-1.1,34.2,-8.9,0.295541246,0.505264443,-0.360911893,0.725974303
394,989849,419310,0.972,-0.311,0.182,-60.4,15.7,-18.6,-1.1,34.2,-8.9,0.295541246,0.505264443,-0.360911893,0.725974303
395,991698,419320,0.972,-0.311,0.182,-60.4,15.7,-18.6,-1.1,34.2,-8.9,0.295541246,0.505264443,-0.360911893,0.725974303
396,995501,419320,0.972,-0.311,0.182,-60.4,15.7,-18.6,-1.1,34.2,-8.9,0.295541246,0.505264443,-0.360911893,0.725974303
397,997802,419320,0.972,-0.311,0.182,-60.4,15.7,-18.6,-1.1,34.2,-8.9,0.295541246,0.505264443,-0.360911893,0.725974303
398,999625,419320,0.972,-0.311,0.182,-60.4,15.7,-18.6,-1.1,34.2,-8.9,0.295541246,0.505264443,-0.360911893,0.725974303
399,1002067,419330,0.972,-0.311,0.182,-60.4,15.7,-18.6,-1.1,34.2,-8.9,0.295541246,0.505264443,-0.360911893,0.725974303
400,1004132,419330,0.972,-0.311,0.182,-60.4,15.7,-18.6,-1.1,34.2,-8.9,0.295541246,0.505264443,-0.360911893,0.725974303
401,1006477,419330,0.972,-0.311,0.182,-60.4,15.7,-18.6,-1.1,34.2,-8.9,0.295541246,0.505264443,-0.360911893,0.725974303
402,1008925,419330,0.972,-0.311,0.182,-60.4,15.7,-18.6,-1.1,34.2,-8.9,0.295541246,0.505264443,-0.360911893,0.725974303
403,1012625,419340,0.972,-0.311,0.182,-60.4,15.7,-18.6,-1.1,34.2,-8.9,0.295541246,0.505264443,-0.360911893,0.725974303
404,1014770,419340,0.972,-0.311,0.182,-60.4,15.7,-18.6,-1.1,34.2,-8.9,0.295541246,0.505264443,-0.360911893,0.725974303
405,1018087,419340,0.972,-0.311,0.182,-60.4,15.7,-18.6,-1.1,34.2,-8.9,0.295541246,0.505264443,-0.360911893,0.725974303
406,1020259,419340,0.972,-0.311,0.182,-60.4,15.7,-18.6,-1.1,34.2,-8.9,0.295541246,0.505264443,-0.360911893,0.725974303
407,1022546,419350,0.972,-0.311,0.182,-60.4,15.7,-18.6,-1.1,34.2,-8.9,0.295541246,0.505264443,-0.360911893,0.725974303
408,1024764,419350,0.972,-0.311,0.182,-60.4,15.7,-18.6,-1.1,34.2,-8.9,0.295541246,0.505264443,-0.360911893,0.725974303
409,1027488,419350,0.956,-0.428,0.182,-60.9,21.9,-23.5,-2.4,34.6,-6.3,0.314157537,0.49610889,-0.37162389,0.719046602
410,1029091,419350,0.956,-0.428,0.182,-60.9,21.9,-23.5,-2.4,34.6,-6.3,0.314157537,0.49610889,-0.37162389,0.719046602
411,1032282,419360,0.956,-0.428,0.182,-60.9,21.9,-23.5,-2.4,34.6,-6.3,0.314157537,0.49610889,-0.37162389,0.719046602
412,1035271,419360,0.956,-0.452,0.182,-60.9,22.8,-24.2,-2.4,34.6,-6.3,0.317819758,0.494369335,-0.373241371,0.717795343
413,1037699,419360,0.956,-0.452,0.182,-60.9,22.8,-24.2,-2.4,34.6,-6.3,0.317819758,0.494369335,-0.373241371,0.717795343
414,1039832,419360,0.956,-0.452,0.182,-60.9,22.8,-24.2,-2.4,34.6,-6.3,0.317819758,0.494369335,-0.373241371,0.717795343
415,1042907,419370,0.956,-0.452,0.182,-60.9,22.8,-24.2,-2.4,34.6,-6.3,0.317819758,0.494369335,-0.373241371,0.717795343
416,1045013,419370,0.952,-0.502,0.183,-59.8,24.4,-25.1,-2.4,34.6,-6.3,0.322733238,0.491988891,-0.375255593,0.716177862
417,1046488,419370,0.952,-0.502,0.183,-59.8,24.4,-25.1,-2.4,34.6,-6.3,0.322733238,0.491988891,-0.375255593,0.716177862
418,1050938,419370,0.968,-0.522,0.182,-57.3,24.2,-25.8,-2.7,34.7,-6.6,0.325205237,0.490829188,-0.376171148,0.715384381
419,1052661,419380,0.975,-0.53,0.178,-55.2,23.6,-25.7,-2.7,34.7,-6.6,0.326395459,0.490279855,-0.376567888,0.71498764
420,1054867,419380,0.979,-0.542,0.186,-55.2,23.6,-25.7,-2.7,34.7,-6.6,0.327585681,0.489730522,-0.376995148,0.714621418
421,1056460,419380,0.979,-0.542,0.186,-55.2,23.6,-25.7,-2.7,34.7,-6.6,0.327585681,0.489730522,-0.376995148,0.714621418
422,1059675,419380,0.995,-0.554,0.182,-50.9,21.9,-25.2,-3,34.9,-6.1,0.328714866,0.489211707,-0.37736137,0.714255196
423,1062946,419390,1.011,-0.574,0.178,-47.2,20.8,-24.5,-3,34.9,-6.1,0.330851161,0.488296152,-0.378032777,0.71355327
424,1065168,419390,1.011,-0.574,0.178,-45.6,20.6,-23.9,-3,34.9,-6.1,0.331888791,0.487838374,-0.378337962,0.713217566
425,1067620,419390,1.011,-0.574,0.178,-45.6,20.6,-23.9,-3,34.9,-6.1,0.331888791,0.487838374,-0.378337962,0.713217566
426,1069856,419390,1.034,-0.582,0.185,-42.1,20,-23.2,-3,34.9,-5.9,0.332865383,0.487411115,-0.378612629,0.712912381
427,1072082,419400,1.038,-0.586,0.181,-40.2,19.8,-22.9,-3,34.9,-5.9,0.333811457,0.486983856,-0.378826258,0.712637715
428,1075840,419400,1.042,-0.59,0.177,-40.2,19.8,-22.9,-3,34.9,-5.9,0.33475753,0.486587115,-0.379070406,0.71233253
429,1078113,419400,1.05,-0.594,0.181,-38.5,19.9,-22.6,-3,34.9,-5.9,0.335673086,0.486159856,-0.379284036,0.712057863
430,1080447,419400,1.046,-0.625,0.189,-35.7,20.4,-22,-2.8,34.8,-5.4,0.336558123,0.485763115,-0.379467147,0.711813715
431,1082660,419410,1.046,-0.625,0.189,-34.6,20.8,-21.7,-2.8,34.8,-5.4,0.337443159,0.485366375,-0.379619739,0.711600085
432,1085880,419410,1.049,-0.629,0.193,-34.6,20.8,-21.7,-2.8,34.8,-5.4,0.338328196,0.484969634,-0.379772332,0.711386456
433,1088109,419410,1.053,-0.645,0.197,-33.7,21.3,-21.5,-2.8,34.8,-5.4,0.339182714,0.484572893,-0.379924924,0.711172826
434,1090508,419410,1.049,-0.668,0.201,-32.5,22.7,-21.4,-3.4,35.1,-8.5,0.340067751,0.484145634,-0.38001648,0.710959197
435,1092782,419420,1.045,-0.684,0.205,-32.3,23.5,-21.4,-3.4,35.1,-8.5,0.340922269,0.483718375,-0.380108036,0.710806604
436,1095828,419420,1.038,-0.703,0.205,-32.3,23.5,-21.4,-3.4,35.1,-8.5,0.341807306,0.483291116,-0.38023011,0.710623493
437,1097404,419420,1.038,-0.722,0.209,-32.7,24.4,-21.4,-3.4,35.1,-8.5,0.342661824,0.482863857,-0.380321665,0.710440382
438,1099722,419420,1.038,-0.722,0.209,-32.7,24.4,-21.4,-3.4,35.1,-8.5,0.342661824,0.482863857,-0.380321665,0.710440382
439,1101738,419430,1.014,-0.792,0.221,-35.6,28.6,-22.5,-3.1,35.3,-6,0.344553972,0.481826228,-0.380504776,0.710104678
440,1105645,419430,1.01,-0.82,0.217,-37.1,30,-23,-3.1,35.3,-6,0.345561083,0.481276894,-0.38062685,0.709952086
441,1107331,419430,1.002,-0.843,0.218,-37.1,30,-23,-3.1,35.3,-6,0.346568194,0.480727561,-0.380718406,0.709768975
442,1109722,419430,1.002,-0.843,0.218,-37.1,30,-23,-3.1,35.3,-6,0.346568194,0.480727561,-0.380718406,0.709768975
443,1111626,419440,0.947,-0.92,0.223,-40.5,34.1,-24.8,-3.1,35.2,-5.9,0.348704489,0.479476302,-0.380962554,0.709433271
444,1115768,419440,0.935,-0.947,0.223,-40.8,35.4,-25.5,-3.1,35.2,-5.9,0.349833674,0.478835414,-0.381054109,0.709280679
445,1117960,419440,0.92,-0.978,0.227,-40.8,35.4,-25.5,-3.1,35.2,-5.9,0.35093234,0.478194525,-0.381145665,0.709097568
446,1120235,419440,0.92,-0.978,0.227,-40.8,35.4,-25.5,-3.1,35.2,-5.9,0.35093234,0.478194525,-0.381145665,0.709097568
447,1122433,419450,0.877,-1.056,0.24,-38.2,36.7,-28.8,-3.5,35.4,-6,0.352092044,0.477584155,-0.381145665,0.708944975
448,1124770,419450,0.865,-1.071,0.24,-38.2,36.7,-28.8,-3.5,35.4,-6,0.353251747,0.476943266,-0.381145665,0.708792383
449,1126644,419450,0.841,-1.094,0.244,-36.3,36.3,-29.8,-3.5,35.4,-6,0.354380932,0.476363414,-0.381145665,0.70863979
450,1130710,419450,0.833,-1.121,0.241,-33.7,35.7,-30.5,-3.5,35.4,-6,0.355510117,0.475783563,-0.381054109,0.708487197
451,1132450,419460,0.833,-1.121,0.241,-33.7,35.7,-30.5,-3.5,35.4,-6,0.355510117,0.475783563,-0.381054109,0.708487197
452,1134813,419460,0.774,-1.199,0.211,-22.8,33.7,-31.7,-3.5,35.4,-6.4,0.357585376,0.474868007,-0.380657369,0.708304086
453,1138009,419460,0.755,-1.21,0.203,-18,32.9,-31.6,-3.5,35.4,-6.4,0.358531449,0.474501785,-0.380321665,0.708243049
454,1139733,419460,0.739,-1.229,0.2,-18,32.9,-31.6,-3.5,35.4,-6.4,0.359477523,0.474105045,-0.38001648,0.708182012
455,1141841,419470,0.739,-1.229,0.2,-18,32.9,-31.6,-3.5,35.4,-6.4,0.359477523,0.474105045,-0.38001648,0.708182012
456,1145709,419470,0.704,-1.272,0.181,-6.5,30.8,-30.4,-3.7,35.2,-6.1,0.360271004,0.473830378,-0.379558702,0.708212531
457,1147272,419470,0.692,-1.283,0.169,0.1,29.4,-29.1,-3.7,35.2,-6.1,0.360942412,0.473616749,-0.379039888,0.708273568
458,1149675,419470,0.68,-1.307,0.154,16.3,24.9,-25.7,-3.7,35.2,-6.1,0.361980041,0.473433638,-0.377697073,0.708609272
459,1151693,419480,0.68,-1.307,0.154,16.3,24.9,-25.7,-3.7,35.2,-6.1,0.361980041,0.473433638,-0.377697073,0.708609272
460,1155503,419480,0.676,-1.33,0.142,25.8,21.8,-23.8,-3.7,35.4,-6.1,0.362254707,0.473494675,-0.376873074,0.70885342
461,1157857,419480,0.684,-1.346,0.13,35.9,18.4,-21.5,-3.7,35.4,-6.1,0.362346263,0.473677786,-0.375957518,0.709158605
462,1159934,419480,0.703,-1.346,0.134,46.5,14.8,-18.9,-3.7,35.4,-6.1,0.362285226,0.473982971,-0.374919889,0.709555345
463,1162285,419490,0.738,-1.363,0.126,57.3,11.1,-16,-3.7,35.4,-6.1,0.362041078,0.474379711,-0.373790704,0.710013123
464,1164715,419490,0.777,-1.363,0.125,67.9,7.4,-13.2,-3.9,34.8,-6.7,0.361613819,0.474898526,-0.372539445,0.710531938
465,1166615,419490,0.793,-1.367,0.121,78,3.8,-10.5,-3.9,34.8,-6.7,0.36097293,0.475539415,-0.371166112,0.711142308
466,1170738,419490,0.816,-1.372,0.124,87.2,0.3,-7.7,-3.9,34.8,-6.7,0.360209967,0.476302377,-0.369731742,0.711783197
467,1172675,419500,0.847,-1.384,0.124,95.3,-2.9,-5,-3.9,34.8,-6.7,0.359263894,0.477126377,-0.368236335,0.712485122
468,1175980,419500,0.847,-1.384,0.124,95.3,-2.9,-5,-3.9,34.8,-6.7,0.359263894,0.477126377,-0.368236335,0.712485122
469,1176468,419500,0.91,-1.404,0.154,108.9,-9.1,0.6,-3.8,34.8,-6.8,0.358043153,0.478133488,-0.366618854,0.713248085
470,1180647,419500,0.91,-1.393,0.158,115.1,-12,3.5,-3.8,34.8,-6.8,0.356700339,0.479171117,-0.364940336,0.714072085
471,1182946,419510,0.934,-1.401,0.157,121.2,-14.8,5.9,-3.8,34.8,-6.8,0.355204932,0.480300302,-0.3632313,0.714926603
472,1185586,419510,0.937,-1.409,0.153,126.9,-17.3,8.1,-3.8,34.8,-6.8,0.353617969,0.481490524,-0.361491745,0.71581164
473,1187795,419510,0.949,-1.425,0.157,136.7,-20.5,14,-4,34.5,-7.5,0.351786859,0.482741783,-0.359660634,0.716788232
474,1189834,419510,0.945,-1.417,0.161,136.7,-20.5,14,-4,34.5,-7.5,0.349986267,0.48402356,-0.357829524,0.717734306
475,1192087,419520,0.941,-1.409,0.173,141.2,-20.7,17,-4,34.5,-7.5,0.348063601,0.485274819,-0.355937376,0.718741417
476,1194710,419520,0.938,-1.405,0.177,145.6,-20.1,19.3,-4,34.5,-7.5,0.346049379,0.486556597,-0.353984191,0.719809565
477,1196607,419520,0.938,-1.405,0.177,145.6,-20.1,19.3,-4,34.5,-7.5,0.346049379,0.486556597,-0.353984191,0.719809565
478,1200391,419520,0.887,-1.377,0.146,158.1,-17.4,22,-3.7,33.3,-9.6,0.341746269,0.489120151,-0.349833674,0.72215949
479,1202589,419530,0.871,-1.377,0.131,161.3,-16.3,22.4,-3.7,33.3,-9.6,0.339548936,0.490401929,-0.347636341,0.72338023
480,1205630,419530,0.855,-1.376,0.112,161.3,-16.3,22.4,-3.7,33.3,-9.6,0.337351604,0.491683706,-0.345469527,0.72460097
481,1207219,419530,0.855,-1.376,0.112,161.3,-16.3,22.4,-3.7,33.3,-9.6,0.337351604,0.491683706,-0.345469527,0.72460097
482,1210466,419530,0.812,-1.384,0.081,165.2,-13.2,23.6,-3.3,32.7,-10.3,0.335093234,0.492934965,-0.343211158,0.725852229
483,1212772,419540,0.792,-1.391,0.05,166.4,-11.3,24.2,-3.3,32.7,-10.3,0.332834864,0.494155705,-0.340891751,0.727164525
484,1215861,419540,0.761,-1.41,0.008,169,-8,25.9,-3.3,32.7,-10.3,0.328257088,0.496475112,-0.336222419,0.729819636
485,1218128,419540,0.761,-1.41,0.008,169,-8,25.9,-3.3,32.7,-10.3,0.328257088,0.496475112,-0.336222419,0.729819636
486,1220463,419540,0.737,-1.418,-0.022,170.9,-6.6,27.9,-3.5,32.1,-10.8,0.325907163,0.497604297,-0.333841975,0.731192969
487,1222890,419550,0.714,-1.406,-0.037,173.9,-5.5,31.2,-3.5,32.1,-10.8,0.3234962,0.498702963,-0.331461531,0.732627338
488,1224933,419550,0.667,-1.374,-0.072,178.4,-4.5,36.1,-3.5,32.1,-10.8,0.320932646,0.499771111,-0.329020051,0.734122745
489,1227072,419550,0.651,-1.347,-0.079,184,-3.7,42.5,-3.5,32.1,-10.8,0.318216498,0.500808741,-0.32657857,0.735679189
490,1231557,419550,0.651,-1.347,-0.079,184,-3.7,42.5,-3.5,32.1,-10.8,0.318216498,0.500808741,-0.32657857,0.735679189
491,1231557,419560,0.639,-1.304,-0.115,195.8,-2.6,57.9,-2.9,31.8,-11.6,0.315134129,0.501785333,-0.324076052,0.737449263
492,1235034,419560,0.651,-1.253,-0.142,200.4,-2.6,65.6,-2.9,31.8,-11.6,0.31183813,0.502731407,-0.321573534,0.739249855
493,1237301,419560,0.667,-1.226,-0.166,207.7,-3.5,78.9,-2.9,31.8,-11.6,0.304818873,0.504562517,-0.316629536,0.743095187
494,1239655,419560,0.667,-1.226,-0.166,207.7,-3.5,78.9,-2.9,31.8,-11.6,0.304818873,0.504562517,-0.316629536,0.743095187
495,1241609,419570,0.69,-1.199,-0.186,211.9,-4.8,84.3,-2.7,33.3,-11,0.301095614,0.505447554,-0.314157537,0.745048372
496,1245574,419570,0.694,-1.184,-0.198,217.3,-6.6,89.1,-2.7,33.3,-11,0.297189245,0.506363109,-0.3116245,0.747062593
497,1247110,419570,0.713,-1.176,-0.218,224.4,-9,93.6,-2.7,33.3,-11,0.293130284,0.507339702,-0.309060945,0.749076815
498,1250111,419570,0.737,-1.173,-0.234,233.1,-11.4,98,-2.7,33.3,-11,0.288857692,0.508346812,-0.306405835,0.751152074
499,1252459,419580,0.776,-1.146,-0.25,242.9,-13.8,102.5,-2.2,31.2,-14.2,0.284371471,0.50941496,-0.303659169,0.753227332
500,1254698,419580,0.799,-1.123,-0.263,253.3,-15.5,106.9,-2.2,31.2,-14.2,0.279702139,0.510513627,-0.300759911,0.755394147
501,1256630,419580,0.819,-1.1,-0.275,263.6,-16.5,111.1,-2.2,31.2,-14.2,0.274819178,0.511642811,-0.297769097,0.757591479
502,1259838,419580,0.834,-1.081,-0.287,273.5,-17.1,115.3,-2.2,31.2,-14.2,0.269753105,0.512833033,-0.29462569,0.759880367
503,1262164,419590,0.87,-1.027,-0.311,282.7,-17.3,120,-2,31,-15.2,0.264473403,0.513992737,-0.29136021,0.762169256
504,1265813,419590,0.873,-0.996,-0.331,291.3,-17,125.5,-2,31,-15.2,0.25901059,0.51515244,-0.288033692,0.764549699
505,1267289,419590,0.885,-0.969,-0.347,299.1,-16.2,131.8,-2,31,-15.2,0.253334147,0.516251106,-0.284615619,0.766960662
506,1270531,419590,0.901,-0.93,-0.367,306.2,-15,138.6,-2,31,-15.2,0.247474593,0.517319254,-0.281105991,0.769432661
507,1272803,419600,0.947,-0.873,-0.446,318.6,-11.6,152.8,-1.1,30.2,-16.8,0.241218299,0.518295846,-0.277535325,0.772057253
508,1274951,419600,0.947,-0.873,-0.446,318.6,-11.6,152.8,-1.1,30.2,-16.8,0.234962004,0.51924192,-0.27396466,0.774651326
509,1276456,419600,0.975,-0.842,-0.49,324.1,-10.4,160.1,-1.1,30.2,-16.8,0.228522599,0.520096438,-0.270332957,0.777275918
510,1280202,419600,0.974,-0.834,-0.513,329.6,-10.1,167.4,-1.1,30.2,-16.8,0.221869564,0.520920438,-0.266701254,0.77990051
511,1281635,419610,0.974,-0.834,-0.513,329.6,-10.1,167.4,-1.1,30.2,-16.8,0.221869564,0.520920438,-0.266701254,0.77990051
512,1285478,419610,0.982,-0.8,-0.537,340.2,-13.1,182.4,-1,29,-18,0.214819788,0.521683401,-0.263039033,0.782586138
513,1286798,419610,0.99,-0.757,-0.533,345.4,-16.2,189.8,-1,29,-18,0.207525864,0.522476882,-0.259346294,0.785241249
514,1290136,419610,0.995,-0.698,-0.502,353.3,-24.7,204.3,-1,29,-18,0.192358165,0.524094363,-0.25205237,0.790398877
515,1292616,419620,0.995,-0.698,-0.502,353.3,-24.7,204.3,-1,29,-18,0.192358165,0.524094363,-0.25205237,0.790398877
516,1294892,419620,1.003,-0.635,-0.432,354.7,-29.2,211.8,0.2,28.5,-17.3,0.18448439,0.524887844,-0.248451186,0.792870876
517,1297088,419620,1.023,-0.612,-0.405,353.4,-33.2,220.1,0.2,28.5,-17.3,0.176427503,0.525681326,-0.245002594,0.795281838
518,1300620,419620,1.042,-0.604,-0.382,349.5,-36.9,229,0.2,28.5,-17.3,0.168248543,0.52641377,-0.241676077,0.797570727
519,1302949,419630,1.062,-0.609,-0.362,343.4,-40.2,238.6,0.2,28.5,-17.3,0.159947508,0.527085177,-0.238593707,0.799768059
520,1305219,419630,1.113,-0.601,-0.289,336.8,-42.6,248.3,0.6,27,-19.6,0.151493881,0.527695547,-0.235694449,0.801843318
521,1307497,419630,1.16,-0.586,-0.247,331.2,-43.3,257.2,0.6,27,-19.6,0.142948698,0.528214362,-0.23300882,0.803888058
522,1309791,419630,1.239,-0.564,-0.217,328,-41.5,263.9,0.6,27,-19.6,0.13431196,0.528611103,-0.230414747,0.805841243
523,1311763,419640,1.321,-0.506,-0.176,327.7,-36.8,267.5,0.6,27,-19.6,0.125644704,0.528824732,-0.227851192,0.807824946
524,1315707,419640,1.404,-0.383,-0.127,332.4,-20.2,265.8,1.1,25.9,-20.7,0.117038484,0.528763695,-0.225104526,0.809930723
525,1317391,419640,1.408,-0.273,-0.15,332.4,-20.2,265.8,1.1,25.9,-20.7,0.108371227,0.528641621,-0.222327342,0.811975463
526,1319659,419640,1.47,-0.232,-0.202,333.7,-9.9,264.1,1.1,25.9,-20.7,0.099795526,0.528305918,-0.219458602,0.81408124
527,1322958,419650,1.56,-0.206,-0.251,331.9,0.5,264.3,1.1,25.9,-20.7,0.0912808618,0.527726066,-0.21662038,0.816217536
528,1324756,419650,1.822,-0.082,-0.342,318.7,22.9,269.9,2.1,24.8,-21.9,0.0829187902,0.526657918,-0.213995788,0.818475906
529,1326835,419650,1.837,-0.024,-0.386,309.5,35,271.6,2.1,24.8,-21.9,0.0746787927,0.525315104,-0.211523789,0.820795312
530,1330812,419650,1.837,-0.024,-0.386,309.5,35,271.6,2.1,24.8,-21.9,0.0664082766,0.523911252,-0.209021271,0.823023164
531,1333030,419660,1.841,0.049,-0.48,300.7,47.4,270.9,2.1,24.8,-21.9,0.0583208716,0.522232734,-0.206640828,0.825312052
532,1335332,419660,1.841,0.049,-0.48,300.7,47.4,270.9,2.1,24.8,-21.9,0.0583208716,0.522232734,-0.206640828,0.825312052
533,1337623,419660,1.777,0.053,-0.635,288.8,72.1,265,3.3,23.2,-22.5,0.0505691702,0.520096438,-0.204321421,0.827723014
534,1339707,419660,1.784,-0.009,-0.726,286.2,84.9,261.8,3.3,23.2,-22.5,0.0429700613,0.517685476,-0.202063051,0.830225532
535,1342067,419670,1.717,-0.079,-0.904,286.1,98.3,258.2,3.3,23.2,-22.5,0.0354930265,0.514999847,-0.199682608,0.832819605
536,1345758,419670,1.662,-0.063,-0.942,290.6,112.5,253.6,3.3,23.2,-22.5,0.0280770287,0.51207007,-0.197149571,0.835505234
537,1347395,419670,1.619,-0.05,-0.918,301.2,127.2,247.6,4.5,20.4,-22.6,0.0207525864,0.508835108,-0.194341868,0.838343455
538,1349769,419670,1.596,-0.065,-0.847,317.6,142,241,4.5,20.4,-22.6,0.0134586627,0.505355998,-0.191137425,0.841334269
539,1352827,419680,1.464,-0.059,-0.77,337.3,156.2,235.3,4.5,20.4,-22.6,0.00607318339,0.501571703,-0.187475204,0.844508194
540,1355017,419680,1.551,0.014,-0.651,357.2,169.2,232,4.5,20.4,-22.6,0.00140385144,-0.497512741,0.183416242,-0.847804193
541,1357192,419680,1.518,0.22,-0.235,375.2,180,231.5,4.5,20.4,-22.6,0.0090334788,-0.49324015,0.178991058,-0.851222266
542,1360272,419680,1.532,0.373,-0.013,388.2,187.3,233.5,4.5,20.4,-22.6,0.0168156987,-0.488723411,0.174321726,-0.854640339
543,1362567,419690,1.49,0.429,0.159,392.3,189.4,237.3,4.5,20.4,-22.6,0.0246589557,-0.484115116,0.169591357,-0.858027894
544,1364918,419690,1.409,0.38,0.263,383.2,185.4,241.9,4.5,20.4,-22.6,0.0325937681,-0.479537339,0.165044099,-0.861232337
545,1367050,419690,1.475,0.376,0.367,323.6,165.1,248.4,4.5,20.4,-22.6,0.0400402844,-0.475264748,0.161687063,-0.863887448
546,1370170,419690,1.463,0.341,0.324,323.6,165.1,248.4,4.5,20.4,-22.6,0.0475173193,-0.470992157,0.158299509,-0.866481521
547,1371723,419700,1.506,0.331,0.206,282.9,155.8,249.9,4.5,20.4,-22.6,0.0545976135,-0.466872158,0.155674917,-0.868770409
548,1375782,419700,1.524,0.373,0.022,244.4,152.4,254.3,4.5,20.4,-22.6,0.0613727226,-0.462813196,0.153813288,-0.870815149
549,1378085,419700,1.524,0.373,0.022,244.4,152.4,254.3,4.5,20.4,-22.6,0.0613727226,-0.462813196,0.153813288,-0.870815149
550,1380380,419700,1.097,0.258,-0.255,140.1,183.7,339.7,4.5,20.4,-22.6,0.0755027924,-0.453474532,0.15457625,-0.874477371
551,1382568,419710,1.612,-1.051,-0.188,82.6,188.1,392.2,4.5,20.4,-22.6,0.0831629383,-0.44840846,0.157170324,-0.875942259
552,1384804,419710,2.094,-1.323,0.214,82.6,188.1,392.2,4.5,20.4,-22.6,0.0908230842,-0.44328135,0.159764397,-0.877315592
553,1387968,419710,2.094,-1.323,0.214,82.6,188.1,392.2,4.5,20.4,-22.6,0.0908230842,-0.44328135,0.159764397,-0.877315592
554,1390186,419710,1.521,-1.004,0.165,54.9,102.1,395,4.5,20.4,-22.6,0.0985442671,-0.439832759,0.162724693,-0.877681814
555,1392457,419720,1.35,-1.281,-0.151,54.9,102.1,395,4.5,20.4,-22.6,0.10626545,-0.436353648,0.165684988,-0.877956481
556,1394715,419720,1.435,-1.466,-0.301,138.4,69.1,349.2,4.5,20.4,-22.6,0.114017151,-0.433423872,0.166508988,-0.878292184
557,1396717,419720,1.278,-1.234,-0.448,217.7,45.3,320.1,4.5,20.4,-22.6,0.122043519,-0.430829798,0.165471358,-0.878658406
558,1401349,419720,1.278,-1.234,-0.448,217.7,45.3,320.1,4.5,20.4,-22.6,0.122043519,-0.430829798,0.165471358,-0.878658406
559,1401573,419730,0.986,-1.143,-0.415,263.2,17.9,344.4,9.3,12.3,-23.7,0.131076998,-0.428510392,0.163701285,-0.878841517
560,1405321,419730,0.761,-0.864,-0.196,180.9,-5.1,432.6,9.3,12.3,-23.7,0.150578326,-0.424298837,0.163426618,-0.877803888
561,1406641,419730,0.73,-0.876,-0.191,130.2,-14.7,477,9.3,12.3,-23.7,0.160954619,-0.422437208,0.165257729,-0.876522111
562,1409894,419730,0.73,-0.876,-0.191,130.2,-14.7,477,9.3,12.3,-23.7,0.160954619,-0.422437208,0.165257729,-0.876522111
563,1412850,419740,1.868,-0.225,2.354,92.2,-17.5,510.3,9.3,11.5,-23.9,0.171605579,-0.420575579,0.168156987,-0.874843593
564,1415965,419740,3.352,1.166,4.414,73.6,-5,527.4,9.3,11.5,-23.9,0.182378613,-0.418439283,0.171544542,-0.873012482
565,1417549,419740,8.021,3.435,1.974,81.2,29.7,521,9.3,11.5,-23.9,0.192907498,-0.415570544,0.174871059,-0.871456038
566,1419871,419740,7.996,4.811,-2.479,124.4,61.1,475.8,9.3,11.5,-23.9,0.202826014,-0.412060915,0.177068392,-0.870448927
567,1421825,419750,6.755,7.819,-6.835,231.2,23.2,368.5,9.8,9.7,-23.6,0.211828974,-0.409131138,0.1760918,-0.869869076
568,1425745,419750,4.65,7.852,-7.402,406.9,-131.2,190.8,9.8,9.7,-23.6,0.219550157,-0.409009064,0.169438765,-0.869350261
569,1428025,419750,3.403,7.875,-7.027,600.3,-354.9,-26.1,9.8,9.7,-23.6,0.225714896,-0.412915433,0.156102176,-0.868404187
570,1429620,419750,1.411,7.909,-7.009,736.6,-523.5,-225.7,9.8,9.7,-23.6,0.229804376,-0.419873653,0.137516404,-0.867152928
571,1431654,419760,-0.861,7.965,-3.486,792.1,-323,-433.2,7.7,6.4,-24.9,0.229773858,-0.423230689,0.11691641,-0.868526261
572,1435508,419760,-1.109,6.379,0.49,792.1,-323,-433.2,7.7,6.4,-24.9,0.229682302,-0.426404614,0.0962553789,-0.86956389
573,1437738,419760,-1.109,6.379,0.49,712.8,14.4,-420.2,7.7,6.4,-24.9,0.228247932,-0.423352763,0.078890347,-0.873165075
574,1440021,419760,-1.678,5.875,2.291,493.4,361.2,-337.5,7.7,6.4,-24.9,0.225745415,-0.414532914,0.0681478317,-0.878902554
575,1442229,419770,-1.678,5.875,2.291,493.4,361.2,-337.5,7.7,6.4,-24.9,0.225745415,-0.414532914,0.0681478317,-0.878902554
576,1445246,419770,-1.507,3.745,2.065,-343,602.4,-119.2,11.8,5.1,-23.5,0.219428083,-0.404828028,0.0766014588,-0.884334849
577,1447521,419770,-1.228,2.487,1.533,-745.3,451.8,-63.7,11.8,5.1,-23.5,0.210821863,-0.399700919,0.0925626392,-0.887234107
578,1449763,419770,-0.551,1.207,1.151,-982.6,213.5,-61.7,11.8,5.1,-23.5,0.200567644,-0.400128178,0.11200293,-0.88717307
579,1452922,419780,-0.072,0.707,1.19,-1029.2,-19.3,-98.9,11.8,5.1,-23.5,0.189672536,-0.405133213,0.130954924,-0.884701071
580,1454658,419780,0.931,0.488,1.348,-801,-283.9,-201.5,10.4,9.6,-23.4,0.179479354,-0.414441359,0.143436995,-0.880581072
581,1457384,419780,1.446,-0.011,0.912,-801,-283.9,-201.5,10.4,9.6,-23.4,0.169225135,-0.423566393,0.155858028,-0.87612537
582,1460134,419780,1.917,-0.07,0.72,-689.3,-311.4,-228.4,10.4,9.6,-23.4,0.159520249,-0.432782983,0.165746025,-0.871608631
583,1461562,419790,2.598,-1.124,0.157,-639.8,-297,-225,10.4,9.6,-23.4,0.150242622,-0.441419721,0.174748985,-0.867183447
584,1464655,419790,3.424,-2.102,-0.372,-693.7,-221,-132.7,10.3,13,-23.3,0.141880551,-0.448316904,0.185857723,-0.862727744
585,1467778,419790,3.813,-2.769,-0.241,-693.7,-221,-132.7,10.3,13,-23.3,0.133457442,-0.455122532,0.196905423,-0.858027894
586,1469951,419790,4.177,-3.507,-0.474,-729.2,-178.9,-57.9,10.3,13,-23.3,0.125888852,-0.460768456,0.209418012,-0.853175451
587,1471428,419800,4.706,-4.639,-0.768,-729.2,-145.5,28.5,10.3,13,-23.3,0.119724113,-0.465285195,0.222846156,-0.848200934
588,1474681,419800,4.706,-4.639,-0.768,-729.2,-145.5,28.5,10.3,13,-23.3,0.119724113,-0.465285195,0.222846156,-0.848200934
589,1476631,419800,2.916,-6.491,-1.31,-523.3,-198.7,355.6,9.6,16.2,-23.2,0.120944853,-0.471694082,0.248908963,-0.837183752
590,1480554,419800,0.428,-6.445,-0.653,-433.8,-229.6,439.8,9.6,16.2,-23.2,0.125736259,-0.474593341,0.260719626,-0.831202124
591,1482142,419810,0.428,-6.445,-0.653,-433.8,-229.6,439.8,9.6,16.2,-23.2,0.130527665,-0.477401044,0.272469253,-0.825067904
592,1485197,419810,0.428,-6.445,-0.653,-433.8,-229.6,439.8,9.6,16.2,-23.2,0.130527665,-0.477401044,0.272469253,-0.825067904
593,1487541,419810,-1.082,-4.632,0.42,-224.1,-153.2,386.8,9.8,17.6,-22.2,0.136051515,-0.478469192,0.28009888,-0.821008942
594,1489662,419810,-1.704,-3.256,0.864,28.6,21.6,130.4,9.8,17.6,-22.2,0.142612995,-0.476973785,0.285287027,-0.818964202
595,1492603,419820,-1.205,-2.763,1.104,28.6,21.6,130.4,9.8,17.6,-22.2,0.145115513,-0.475661489,0.286202582,-0.818964202
596,1494737,419820,-1.205,-2.763,1.104,28.6,21.6,130.4,9.8,17.6,-22.2,0.145115513,-0.475661489,0.286202582,-0.818964202
597,1497884,419820,0.117,-1.617,0.964,224.9,32,-27,9.1,17.3,-22.7,0.146763512,-0.474562822,0.281991028,-0.820795312
598,1500030,419820,0.476,-1.402,0.784,224.9,32,-27,9.1,17.3,-22.7,0.148411512,-0.473403119,0.277779473,-0.822565386
599,1502339,419830,0.476,-1.402,0.784,221.8,-14.3,-1,9.1,17.3,-22.7,0.150761437,-0.472945341,0.27375103,-0.823755608
600,1504651,419830,1.14,-1.179,0.646,197.8,-54.2,44.4,9.1,17.3,-22.7,0.153935362,-0.473006378,0.270455031,-0.824243904
601,1506655,419830,1.14,-1.179,0.646,197.8,-54.2,44.4,9.1,17.3,-22.7,0.153935362,-0.473006378,0.270455031,-0.824243904
602,1510634,419830,2.667,-0.134,0.788,132.2,-87.9,159.6,9.6,16.9,-23.1,0.163121433,-0.473525193,0.267921995,-0.822992645
603,1512892,419840,3.188,0.177,0.762,132.2,-87.9,159.6,9.6,16.9,-23.1,0.167851802,-0.473708304,0.266884365,-0.822290719
604,1514992,419840,3.492,0.394,0.646,128.9,-73.9,172.2,9.6,16.9,-23.1,0.172704245,-0.473555712,0.266090884,-0.821619312
605,1516603,419840,3.492,0.394,0.646,128.9,-73.9,172.2,9.6,16.9,-23.1,0.172704245,-0.473555712,0.266090884,-0.821619312
606,1520722,419840,3.4,0.977,0.483,124.3,-5.3,193.5,9.6,16.9,-23.1,0.177495651,-0.472029786,0.265846736,-0.821558275
607,1522429,419850,2.693,1.273,0.323,105,77.6,208.2,9.6,16.9,-23.1,0.186498611,-0.46662801,0.266548662,-0.822443312
608,1524652,419850,2.275,1.296,0.323,105,77.6,208.2,9.6,16.9,-23.1,0.19083224,-0.463576159,0.267067476,-0.822962127
609,1527902,419850,2.275,1.296,0.323,105,77.6,208.2,9.6,16.9,-23.1,0.19083224,-0.463576159,0.267067476,-0.822962127
610,1529648,419850,1.607,1.19,0.308,50.8,61.7,174.4,9.6,16.9,-23.1,0.194128239,-0.461256752,0.268196661,-0.823145238
611,1531669,419860,1.43,0.873,0.39,20.4,11.5,143.5,9.6,16.9,-23.1,0.196844386,-0.460097049,0.269325846,-0.822779015
612,1535718,419860,1.109,0.293,0.542,9.2,-72.6,102.6,9.6,16.9,-23.1,0.201574755,-0.460798975,0.270821253,-0.820764794
613,1537933,419860,1.109,0.293,0.542,9.2,-72.6,102.6,9.6,16.9,-23.1,0.201574755,-0.460798975,0.270821253,-0.820764794
614,1539723,419860,1.082,0.251,0.551,44.4,-73.6,103.5,9.6,16.9,-23.1,0.204290902,-0.461317789,0.270729698,-0.81981872
615,1541868,419870,0.836,0.29,0.618,97.7,-47.4,115.4,9.6,16.9,-23.1,0.20761742,-0.461043123,0.269936216,-0.819391461
616,1545712,419870,0.754,0.202,0.651,149,-6.2,130.7,9.6,16.9,-23.1,0.211493271,-0.459700308,0.268562883,-0.81960509
617,1547928,419870,0.598,0.173,0.689,180.6,35.7,142.2,9.6,16.9,-23.1,0.215643788,-0.457380902,0.266914884,-0.820368053
618,1549673,419870,0.598,0.173,0.689,180.6,35.7,142.2,9.6,16.9,-23.1,0.215643788,-0.457380902,0.266914884,-0.820368053
619,1551786,419880,0.244,0.27,0.817,165.7,82.7,136.1,10.6,12.8,-23.5,0.219244972,-0.454329051,0.265694143,-0.821497238
620,1555509,419880,0.265,-0.09,0.684,76.3,73.6,93.3,10.6,12.8,-23.5,0.224127934,-0.449324015,0.264870144,-0.823206275
621,1557816,419880,0.327,-0.2,0.597,76.3,73.6,93.3,10.6,12.8,-23.5,0.226142155,-0.447065645,0.264778588,-0.8239082
622,1559980,419880,0.327,-0.2,0.597,76.3,73.6,93.3,10.6,12.8,-23.5,0.226142155,-0.447065645,0.264778588,-0.8239082
623,1562229,419890,0.244,-0.258,0.512,-16.7,46.6,35.9,11.2,12.8,-23.5,0.226355785,-0.446119572,0.265663625,-0.824091311
624,1564693,419890,0.228,-0.289,0.458,-39.9,36.1,10.4,11.2,12.8,-23.5,0.225928526,-0.445600757,0.266670736,-0.824152348
625,1566598,419890,0.247,-0.337,0.356,-43.1,25.1,-20.7,11.2,12.8,-23.5,0.224219489,-0.445234535,0.268257698,-0.824304941
626,1570462,419890,0.247,-0.337,0.356,-43.1,25.1,-20.7,11.2,12.8,-23.5,0.224219489,-0.445234535,0.268257698,-0.824304941
627,1572668,419900,0.277,-0.385,0.277,-35.9,22.9,-28.2,11.3,12.9,-23.5,0.223242897,-0.445173498,0.268745994,-0.824457533
628,1574875,419900,0.297,-0.393,0.242,-28.6,20.5,-33,11.3,12.9,-23.5,0.222235786,-0.445112461,0.26905118,-0.824640645
629,1577101,419900,0.324,-0.409,0.225,-23.6,16.2,-36.4,11.3,12.9,-23.5,0.221259194,-0.445142979,0.269173254,-0.824854274
630,1579936,419900,0.41,-0.442,0.224,-21.9,10.1,-39.6,11.3,12.9,-23.5,0.220282601,-0.44532609,0.269234291,-0.825006867
631,1581409,419910,0.464,-0.513,0.243,-23.6,2.8,-42.8,11.3,13.4,-23.2,0.219244972,-0.445631275,0.269264809,-0.825098422
632,1584579,419910,0.511,-0.565,0.285,-27.7,-3.8,-46.3,11.3,13.4,-23.2,0.218176824,-0.446089053,0.269295328,-0.825128941
633,1586589,419910,0.574,-0.64,0.335,-31.5,-9.2,-50.5,11.3,13.4,-23.2,0.217017121,-0.446699423,0.269325846,-0.825067904
634,1589781,419910,0.581,-0.679,0.335,-32.7,-13,-55.8,11.3,13.4,-23.2,0.215765862,-0.447431867,0.269325846,-0.825037385
635,1592826,419920,0.581,-0.698,0.335,-30.6,-15.1,-62,9.4,13.5,-23.2,0.214423048,-0.448225349,0.269203772,-0.824976348
636,1595054,419920,0.593,-0.691,0.319,-26.3,-15,-67.9,9.4,13.5,-23.2,0.213049715,-0.44901883,0.268929106,-0.825006867
637,1597216,419920,0.57,-0.679,0.315,-22,-12.5,-72.7,9.4,13.5,-23.2,0.211584826,-0.449751274,0.268562883,-0.825098422
638,1600382,419920,0.554,-0.659,0.3,-19.5,-7.9,-75.9,9.4,13.5,-23.2,0.210089419,-0.450422681,0.268135624,-0.825251015
639,1602564,419930,0.554,-0.659,0.3,-19.5,-7.9,-75.9,9.4,13.5,-23.2,0.210089419,-0.450422681,0.268135624,-0.825251015
640,1604814,419930,0.495,-0.569,0.203,-21.2,3.9,-79.5,10.8,13.4,-22.8,0.208410901,-0.450941496,0.267738884,-0.825525681
641,1607832,419930,0.452,-0.502,0.192,-22.8,8.2,-80.3,10.8,13.4,-22.8,0.206701865,-0.451338237,0.26740318,-0.825830866
642,1610887,419930,0.448,-0.455,0.168,-22.6,10.1,-80.1,10.8,13.4,-22.8,0.20496231,-0.451734977,0.267067476,-0.82616657
643,1613023,419940,0.449,-0.388,0.157,-20,9.2,-78.5,10.8,13.4,-22.8,0.203283792,-0.452131718,0.266701254,-0.826502274
644,1614635,419940,0.48,-0.252,0.14,-15.3,5.5,-75.5,10.4,13.9,-22.9,0.201757866,-0.452528459,0.266243477,-0.82677694
645,1617756,419940,0.504,-0.178,0.147,-9.8,-0.5,-71.6,10.4,13.9,-22.9,0.200354015,-0.452986236,0.265724662,-0.827051607
646,1620055,419940,0.535,-0.124,0.151,-4.5,-7.7,-67.9,10.4,13.9,-22.9,0.199133274,-0.453535569,0.265083773,-0.827234718
647,1622109,419950,0.582,-0.066,0.165,-0.4,-15.2,-65.7,10.4,13.9,-22.9,0.198034608,-0.454206977,0.264381848,-0.827356792
648,1625057,419950,0.797,-0.047,0.149,2.4,-22,-65.7,10.6,13.9,-23.1,0.196996979,-0.454969939,0.263588366,-0.827448347
649,1627285,419950,0.895,-0.029,0.159,5.3,-27.4,-68.4,10.6,13.9,-23.1,0.195989868,-0.455824458,0.26270333,-0.827478866
650,1629609,419950,0.942,0.021,0.213,10.5,-30.2,-73.6,10.6,13.9,-23.1,0.19492172,-0.456770531,0.261635182,-0.827570421
651,1631562,419960,1.056,0.089,0.281,19.4,-29.6,-81.3,10.6,13.9,-23.1,0.193823054,-0.457686087,0.260353404,-0.827723014
652,1635609,419960,1.092,0.245,0.351,41.6,-21.6,-105.8,10.2,14,-23,0.192449721,-0.458479568,0.258461257,-0.828180792
653,1637931,419960,1.054,0.364,0.406,41.6,-21.6,-105.8,10.2,14,-23,0.191076388,-0.459303568,0.256538591,-0.828638569
654,1640236,419960,1.093,0.351,0.386,48.7,-17.1,-123.6,10.2,14,-23,0.189428388,-0.460097049,0.254341258,-0.829279458
655,1642390,419970,1.105,0.37,0.393,48.9,-13.3,-142.9,10.2,14,-23,0.187383648,-0.460921049,0.251991333,-0.829981384
656,1644743,419970,1.105,0.37,0.393,48.9,-13.3,-142.9,10.2,14,-23,0.187383648,-0.460921049,0.251991333,-0.829981384
657,1646782,419970,0.988,0.4,0.411,22.7,-6,-178,9.4,14.2,-23.6,0.181463057,-0.462904752,0.247505112,-0.831537828
658,1650592,419970,0.937,0.401,0.412,-1.1,-1.4,-192.1,9.4,14.2,-23.6,0.177953429,-0.4639729,0.245582446,-0.832270272
659,1652016,419980,0.925,0.354,0.389,-28.8,3.4,-203.6,9.4,14.2,-23.6,0.173955504,-0.465102084,0.24405652,-0.832941679
660,1655303,419980,0.925,0.354,0.389,-28.8,3.4,-203.6,9.4,14.2,-23.6,0.173955504,-0.465102084,0.24405652,-0.832941679
661,1657419,419980,0.893,0.209,0.304,-85.3,8.9,-219.8,9.7,14.5,-23.2,0.169042024,-0.466444899,0.243385113,-0.833399457
662,1659677,419980,0.877,0.147,0.265,-109.2,8,-225.1,9.7,14.5,-23.2,0.16379284,-0.467879269,0.243140965,-0.83373516
663,1661768,419990,0.853,0.089,0.23,-128,4.9,-228.3,9.7,14.5,-23.2,0.158299509,-0.469435713,0.243140965,-0.833887753
664,1665612,419990,0.833,0.026,0.199,-141.3,0.2,-229,9.7,14.5,-23.2,0.152684103,-0.471144749,0.243354595,-0.833918271
665,1667875,419990,0.801,-0.027,0.153,-149.7,-5.3,-227.6,9.3,15.3,-22.4,0.147038179,-0.472945341,0.243720817,-0.833826716
666,1670934,419990,0.797,-0.051,0.142,-154,-11.4,-225.8,9.3,15.3,-22.4,0.141392254,-0.474837489,0.244148076,-0.833582568
667,1672357,420000,0.824,-0.067,0.125,-156.1,-17.4,-225.5,9.3,15.3,-22.4,0.135776849,-0.476821192,0.244605853,-0.833246864
668,1675403,420000,0.855,-0.091,0.117,-158.3,-22.6,-228.4,9.3,15.3,-22.4,0.130100406,-0.478926969,0.245033113,-0.832850124
669,1676661,420000,0.855,-0.091,0.117,-158.3,-22.6,-228.4,9.3,15.3,-22.4,0.130100406,-0.478926969,0.245033113,-0.832850124
670,1679943,420000,1.023,-0.219,0.106,-168.8,-29.1,-244.5,8.5,16.5,-21.8,0.117984558,-0.483504746,0.245887631,-0.831751457
671,1682281,420010,1.058,-0.262,0.11,-176.5,-30.5,-256.2,8.5,16.5,-21.8,0.111636708,-0.485885189,0.246284371,-0.831110569
672,1685795,420010,1.085,-0.286,0.109,-184.1,-30.6,-268,8.5,16.5,-21.8,0.104983673,-0.488296152,0.246711631,-0.830439161
673,1687202,420010,1.085,-0.286,0.109,-184.1,-30.6,-268,8.5,16.5,-21.8,0.104983673,-0.488296152,0.246711631,-0.830439161
674,1690191,420010,1.081,-0.333,0.113,-196.1,-25.5,-286.8,8.5,16.5,-21.8,0.0978118229,-0.490707114,0.24713889,-0.829737236
675,1691622,420020,1.097,-0.368,0.121,-201,-19.9,-293.7,8.5,16.5,-21.8,0.0904263436,-0.493118076,0.247596667,-0.82903531
676,1695389,420020,1.132,-0.385,0.128,-205.8,-13.1,-298.9,8.5,16.5,-21.8,0.075533311,-0.497665334,0.248481704,-0.827570421
677,1697421,420020,1.132,-0.385,0.128,-205.8,-13.1,-298.9,8.5,16.5,-21.8,0.075533311,-0.497665334,0.248481704,-0.827570421
678,1700348,420020,1.128,-0.404,0.116,-214.6,-1.5,-300.9,7.1,20.3,-21.7,0.0677816095,-0.499649037,0.249061556,-0.826837977
679,1701935,420030,1.101,-0.388,0.117,-218.1,1.3,-295.7,7.1,20.3,-21.7,0.0600604266,-0.501541185,0.249763482,-0.826075014
680,1704867,420030,1.073,-0.36,0.114,-221.2,2.5,-286.1,7.1,20.3,-21.7,0.0524613178,-0.503341777,0.250618,-0.825251015
681,1708070,420030,0.983,-0.351,0.056,-224,2.4,-273.4,7.1,20.3,-21.7,0.04504532,-0.505020295,0.251655629,-0.824335459
682,1710919,420030,0.983,-0.351,0.056,-224,2.4,-273.4,7.1,20.3,-21.7,0.04504532,-0.505020295,0.251655629,-0.824335459
683,1712573,420040,0.932,-0.366,0.007,-226.7,0.3,-245.6,6.2,21.1,-21.1,0.0381176183,-0.506576739,0.253028962,-0.823328349
684,1714677,420040,0.971,-0.402,-0.017,-223.9,-0.1,-232.9,6.2,21.1,-21.1,0.0247810297,-0.509475997,0.255897702,-0.821161534
685,1717638,420040,0.994,-0.414,-0.017,-217.1,0.9,-221.7,6.2,21.1,-21.1,0.0184331797,-0.510788293,0.257301553,-0.820062868
686,1720702,420040,0.994,-0.414,-0.017,-217.1,0.9,-221.7,6.2,21.1,-21.1,0.0184331797,-0.510788293,0.257301553,-0.820062868
687,1722353,420050,1.002,-0.442,-0.021,-194,7.9,-207.3,6,22.5,-20.8,0.0125125889,-0.511886959,0.258461257,-0.819116794
688,1724702,420050,1.021,-0.481,-0.021,-179.5,11.6,-206.3,6,22.5,-20.8,0.00674459059,-0.51289407,0.259376812,-0.818292795
689,1726714,420050,1.017,-0.544,-0.021,-164.7,13.8,-209.7,6,22.5,-20.8,0.00454725791,0.514786218,-0.260536515,0.816736351
690,1730681,420050,1.017,-0.544,-0.021,-164.7,13.8,-209.7,6,22.5,-20.8,0.00454725791,0.514786218,-0.260536515,0.816736351
691,1732991,420060,1.025,-0.614,-0.021,-140,11.4,-226.3,5.1,23.4,-20.1,0.0102237007,0.515823847,-0.260475478,0.816034425
692,1735229,420060,1.036,-0.634,-0.029,-132.3,7.1,-237,5.1,23.4,-20.1,0.0159611805,0.517014069,-0.260170293,0.815301981
693,1737427,420060,1.048,-0.657,-0.037,-127.7,1.2,-247.4,5.1,23.4,-20.1,0.0218207343,0.518356883,-0.259651479,0.814477981
694,1739697,420060,1.068,-0.646,-0.03,-127.7,1.2,-247.4,5.1,23.4,-20.1,0.0276802881,0.519669179,-0.259102145,0.813623463
695,1741716,420070,1.087,-0.642,-0.03,-124.1,-12.4,-262.1,4.1,24.2,-21.9,0.033661916,0.52128666,-0.258339183,0.812616352
696,1745767,420070,1.107,-0.619,-0.031,-123.1,-19.4,-264.8,4.1,24.2,-21.9,0.0396435438,0.522995697,-0.257515183,0.811487167
697,1748000,420070,1.119,-0.573,-0.027,-121.5,-26.4,-264.5,4.1,24.2,-21.9,0.0455641346,0.524857326,-0.256691183,0.810266427
698,1750541,420070,1.131,-0.518,-0.027,-118.8,-32.7,-261.4,4.1,24.2,-21.9,0.0513626514,0.526749474,-0.255806146,0.808954131
699,1753161,420080,1.205,-0.355,-0.021,-115.2,-37.6,-256,3.4,25,-20.1,0.0570085757,0.528733177,-0.254951628,0.807550279
700,1755501,420080,1.229,-0.285,-0.01,-112,-40.2,-247.7,3.4,25,-20.1,0.0624408704,0.530655843,-0.25409711,0.806146428
701,1757511,420080,1.241,-0.227,0.008,-111.2,-39.5,-236,3.4,25,-20.1,0.0676595355,0.532517472,-0.253364666,0.804742576
702,1760406,420080,1.253,-0.192,0.016,-113.8,-35.3,-221.4,3.4,25,-20.1,0.0726645711,0.534165471,-0.252845851,0.803369243
703,1761746,420090,1.253,-0.192,0.016,-113.8,-35.3,-221.4,3.4,25,-20.1,0.0726645711,0.534165471,-0.252845851,0.803369243
704,1764967,420090,1.234,-0.137,0.004,-128.6,-18.4,-190.4,2.8,25.7,-21.2,0.07739494,0.535325175,-0.252906888,0.802117985
705,1766416,420090,1.101,-0.146,-0.004,-139.6,-5.6,-178.9,2.8,25.7,-21.2,0.086855678,0.537003693,-0.253639332,0.799798578
706,1769577,420090,1.065,-0.15,-0.015,-152.1,9.7,-172,2.8,25.7,-21.2,0.091708121,0.537491989,-0.254249702,0.798760949
707,1771591,420100,1.065,-0.15,-0.015,-152.1,9.7,-172,2.8,25.7,-21.2,0.091708121,0.537491989,-0.254249702,0.798760949
708,1774669,420100,1.011,-0.188,-0.03,-175.5,42.7,-167.6,2,26.5,-20.6,0.0968962676,0.537308878,-0.255256813,0.797936949
709,1777860,420100,0.963,-0.195,-0.083,-184.1,57,-166.6,2,26.5,-20.6,0.107669301,0.536393323,-0.257515183,0.79647206
710,1780732,420100,0.975,-0.25,-0.091,-192.2,68.8,-164.9,2,26.5,-20.6,0.113162633,0.535660878,-0.258735923,0.795770135
711,1782047,420110,0.975,-0.25,-0.091,-192.2,68.8,-164.9,2,26.5,-20.6,0.113162633,0.535660878,-0.258735923,0.795770135
712,1785098,420110,0.967,-0.324,-0.083,-215.8,85.2,-158.6,1.8,27.1,-20,0.118930631,0.534531693,-0.260414441,0.795159764
713,1788078,420110,0.959,-0.527,-0.012,-228.2,91.2,-158.1,1.8,27.1,-20,0.130741295,0.53193762,-0.2641377,0.79381695
714,1789759,420110,0.939,-0.605,0.019,-234.7,96.8,-163,1.8,27.1,-20,0.136844996,0.53050325,-0.266060366,0.793084506
715,1792731,420120,0.939,-0.605,0.019,-234.7,96.8,-163,1.8,27.1,-20,0.136844996,0.53050325,-0.266060366,0.793084506
716,1795764,420120,0.924,-0.678,0.058,-227.3,104.9,-186.4,1.6,28,-16.5,0.14331492,0.52906888,-0.267494736,0.792413099
717,1797180,420120,0.884,-0.818,0.126,-219.4,105.6,-199.5,1.6,28,-16.5,0.149906919,0.527726066,-0.268654439,0.791711173
718,1800304,420120,0.904,-0.931,0.184,-213.6,102.3,-210.5,1.6,28,-16.5,0.16318247,0.525070956,-0.270729698,0.790154729
719,1801683,420130,0.904,-0.931,0.184,-213.6,102.3,-210.5,1.6,28,-16.5,0.16318247,0.525070956,-0.270729698,0.790154729
720,1804601,420130,0.974,-1.018,0.222,-212.3,82,-223.6,0.9,28.5,-18.3,0.169957579,0.524216437,-0.271523179,0.789025544
721,1807895,420130,1.009,-1.046,0.233,-214.5,66.8,-225.5,0.9,28.5,-18.3,0.17670217,0.523575549,-0.272377697,0.787652211
722,1811396,420130,1.103,-1.091,0.251,-215.4,50.9,-224.2,0.9,28.5,-18.3,0.19000824,0.522507401,-0.274147771,0.784630879
723,1811513,420140,1.103,-1.091,0.251,-215.4,50.9,-224.2,0.9,28.5,-18.3,0.19000824,0.522507401,-0.274147771,0.784630879
724,1815117,420140,1.181,-1.092,0.289,-207.3,25.2,-211.8,0.4,29,-17.2,0.19614246,0.522476882,-0.2751854,0.782799768
725,1816736,420140,1.197,-1.045,0.32,-197,17.9,-201.9,0.4,29,-17.2,0.201940977,0.522537919,-0.276161992,0.780938139
726,1819825,420140,1.197,-1.045,0.32,-183.2,14.5,-190.7,0.4,29,-17.2,0.207373272,0.522629475,-0.277047029,0.779137547
727,1821640,420150,1.249,-0.901,0.346,-167.6,13.9,-179.3,0.4,29,-17.2,0.212408826,0.522690512,-0.277779473,0.777459029
728,1825241,420150,1.319,-0.789,0.36,-153.4,14.4,-168.8,-0.5,29.4,-16.9,0.217108676,0.522751549,-0.278389843,0.775902585
729,1826681,420150,1.351,-0.735,0.367,-143.6,14.9,-159.8,-0.5,29.4,-16.9,0.22153386,0.522782067,-0.278908658,0.774407178
730,1830363,420150,1.355,-0.68,0.379,-139.5,14.7,-152.2,-0.5,29.4,-16.9,0.225806452,0.522782067,-0.279457991,0.773003327
731,1832181,420160,1.347,-0.629,0.383,-139.9,13.9,-145.5,-0.5,29.4,-16.9,0.22992645,0.522751549,-0.28009888,0.771599475
732,1835564,420160,1.347,-0.629,0.383,-139.9,13.9,-145.5,-0.5,29.4,-16.9,0.22992645,0.522751549,-0.28009888,0.771599475
733,1837994,420160,1.351,-0.582,0.363,-145.1,11.3,-133.3,-0.8,29.9,-16.4,0.2379223,0.522537919,-0.281685842,0.768730735
734,1840029,420160,1.359,-0.579,0.351,-147.1,10.3,-127.4,-0.8,29.9,-16.4,0.241798151,0.522385327,-0.282662435,0.767265847
735,1842227,420170,1.343,-0.559,0.328,-147.2,10.5,-121.3,-0.8,29.9,-16.4,0.245582446,0.522171697,-0.283669546,0.765831477
736,1844867,420170,1.343,-0.559,0.328,-147.2,10.5,-121.3,-0.8,29.9,-16.4,0.245582446,0.522171697,-0.283669546,0.765831477
737,1846629,420170,1.288,-0.582,0.259,-137.7,20,-107.4,-1.4,31.5,-13.4,0.252693258,0.521469771,-0.28562273,0.763237403
738,1850438,420170,1.257,-0.55,0.244,-127.3,30.1,-100.1,-1.4,31.5,-13.4,0.256019776,0.52088992,-0.286477248,0.762230293
739,1852819,420180,1.202,-0.487,0.233,-113.3,43,-92.2,-1.4,31.5,-13.4,0.259102145,0.520096438,-0.287087619,0.761497848
740,1855073,420180,1.202,-0.487,0.233,-113.3,43,-92.2,-1.4,31.5,-13.4,0.259102145,0.520096438,-0.287087619,0.761497848
741,1857308,420180,0.996,-0.237,0.217,-80,68.5,-75.2,-1.7,30.7,-15.1,0.26453444,0.51802118,-0.287484359,0.760917997
742,1860829,420180,0.938,-0.185,0.214,-68.2,75.4,-68.5,-1.7,30.7,-15.1,0.266914884,0.516800439,-0.287423322,0.760948515
743,1863139,420190,0.91,-0.165,0.202,-64.4,75.3,-66.8,-1.7,30.7,-15.1,0.269203772,0.515579699,-0.287301248,0.760979034
744,1864965,420190,0.91,-0.165,0.202,-64.4,75.3,-66.8,-1.7,30.7,-15.1,0.269203772,0.515579699,-0.287301248,0.760979034
745,1867331,420190,0.991,-0.296,0.08,-80,55.2,-84.9,-1.6,30.7,-14.8,0.271858882,0.514725181,-0.287331767,0.760612812
746,1870807,420190,1.034,-0.348,0.048,-92.6,40.2,-101.7,-1.6,30.7,-14.8,0.274849696,0.514145329,-0.287484359,0.759880367
747,1873182,420200,1.045,-0.384,0.036,-101.9,26.3,-117.8,-1.6,30.7,-14.8,0.278115177,0.513840144,-0.287697989,0.758781701
748,1875530,420200,1.053,-0.391,0.036,-101.9,26.3,-117.8,-1.6,30.7,-14.8,0.281380657,0.51350444,-0.287911618,0.757744072
749,1877616,420200,1.034,-0.395,0.056,-100.2,9.9,-133.9,-1.6,30.9,-14,0.284768212,0.513565477,-0.288003174,0.756401257
750,1879969,420200,1.006,-0.391,0.052,-92.2,7.6,-132.8,-1.6,30.9,-14,0.288033692,0.51371807,-0.287972655,0.755088961
751,1881749,420210,0.995,-0.39,0.056,-84.2,7.6,-128.2,-1.6,30.9,-14,0.29114658,0.513840144,-0.2878811,0.753837703
752,1885346,420210,0.971,-0.374,0.065,-79,8.9,-122.1,-1.6,30.9,-14,0.294106876,0.513962218,-0.287759026,0.752647481
753,1886881,420210,0.94,-0.346,0.069,-77.5,10.5,-116.2,-2.4,31.3,-14.1,0.296945097,0.514023255,-0.28766747,0.751518296
754,1889925,420210,0.925,-0.338,0.061,-79.5,12,-111.2,-2.4,31.3,-14.1,0.299722282,0.514023255,-0.287636952,0.750450148
755,1892661,420220,0.905,-0.326,0.054,-84.1,13.3,-107.3,-2.4,31.3,-14.1,0.302499466,0.513901181,-0.287728507,0.749351482
756,1895416,420220,0.882,-0.326,0.035,-90,14.3,-104.4,-2.4,31.3,-14.1,0.305307169,0.513748589,-0.287911618,0.748252815
757,1896862,420220,0.819,-0.325,-0.014,-96.2,14.9,-102,-3.3,32.8,-12.6,0.30814539,0.513473922,-0.288247322,0.747154149
758,1899704,420220,0.807,-0.352,-0.021,-102,15,-99.5,-3.3,32.8,-12.6,0.31101413,0.513168737,-0.2887051,0.745994446
759,1901831,420230,0.791,-0.368,-0.025,-107,15.1,-96.1,-3.3,32.8,-12.6,0.31388287,0.512802515,-0.289254433,0.744834742
760,1904627,420230,0.768,-0.375,-0.025,-110.8,15.2,-91.8,-3.3,32.8,-12.6,0.316690573,0.512375256,-0.28992584,0.743675039
761,1907715,420230,0.768,-0.375,-0.025,-110.8,15.2,-91.8,-3.3,32.8,-12.6,0.316690573,0.512375256,-0.28992584,0.743675039
762,1910594,420230,0.736,-0.457,-0.032,-114.5,15.6,-82,-3.5,31.8,-12.6,0.322183905,0.511368145,-0.291482284,0.741416669
763,1912182,420240,0.74,-0.496,-0.028,-115.1,14.9,-78.3,-3.5,31.8,-12.6,0.324839015,0.510818812,-0.292397839,0.740287484
764,1915006,420240,0.767,-0.524,-0.032,-115,12.9,-76.1,-3.5,31.8,-12.6,0.327433088,0.510269478,-0.293313395,0.7391583
765,1916600,420240,0.767,-0.524,-0.032,-115,12.9,-76.1,-3.5,31.8,-12.6,0.327433088,0.510269478,-0.293313395,0.7391583
766,1920488,420240,0.736,-0.57,-0.012,-113.5,6,-74.1,-4.2,32.1,-12.1,0.329905087,0.509811701,-0.294259468,0.737968078
767,1922724,420250,0.724,-0.609,0.019,-113.1,2.2,-72.1,-4.2,32.1,-12.1,0.332346568,0.509445479,-0.295266579,0.736747337
768,1925475,420250,0.713,-0.624,0.046,-113.1,2.2,-72.1,-4.2,32.1,-12.1,0.334788049,0.509048738,-0.29627369,0.735496078
769,1927077,420250,0.685,-0.651,0.066,-113.4,-1.1,-68.7,-4.2,32.1,-12.1,0.337137974,0.508682516,-0.297341838,0.734244819
770,1930107,420250,0.623,-0.681,0.087,-118.1,-6.1,-59.2,-4.1,32.4,-12.1,0.339365825,0.508285775,-0.298623615,0.732993561
771,1931590,420260,0.588,-0.692,0.1,-122.4,-7.5,-54.5,-4.1,32.4,-12.1,0.34153264,0.507858516,-0.300027467,0.731681265
772,1935082,420260,0.565,-0.692,0.112,-122.4,-7.5,-54.5,-4.1,32.4,-12.1,0.343699454,0.507400739,-0.301431318,0.730399487
773,1937514,420260,0.553,-0.695,0.116,-127.9,-8.9,-50.4,-4.1,32.4,-12.1,0.345866268,0.506912442,-0.302957244,0.729087191
774,1939687,420260,0.541,-0.714,0.132,-141.5,-12.4,-43.8,-4.1,32.4,-12.1,0.348033082,0.506332591,-0.304818873,0.72768334
775,1941646,420270,0.529,-0.714,0.148,-148.9,-14.7,-40.8,-4.1,32.4,-12.1,0.350230415,0.505722221,-0.306863613,0.726187933
776,1945739,420270,0.526,-0.714,0.156,-148.9,-14.7,-40.8,-4.1,32.4,-12.1,0.352427747,0.505081332,-0.308877834,0.724723045
777,1947935,420270,0.537,-0.73,0.167,-155.8,-17.2,-37.8,-4.1,32.4,-12.1,0.35462508,0.504409925,-0.31101413,0.723197119
778,1950047,420270,0.534,-0.765,0.203,-164.5,-21.8,-31.9,-5.2,33.2,-10.2,0.356791894,0.50367748,-0.313455611,0.721579638
779,1952438,420280,0.522,-0.761,0.226,-164.9,-23.9,-29.3,-5.2,33.2,-10.2,0.358897671,0.502975555,-0.31592761,0.719962157
780,1954615,420280,0.522,-0.745,0.246,-162,-25.9,-27.1,-5.2,33.2,-10.2,0.360911893,0.502304147,-0.318369091,0.718344676
781,1958046,420280,0.53,-0.733,0.269,-162,-25.9,-27.1,-5.2,33.2,-10.2,0.362956633,0.50163274,-0.320780053,0.716696677
782,1960722,420280,0.577,-0.746,0.288,-149,-30.9,-24.3,-5.2,33.2,-10.2,0.364726707,0.501083407,-0.323129978,0.715140233
783,1963100,420290,0.585,-0.714,0.303,-140.8,-33.6,-23.4,-5.2,33.2,-10.2,0.366405225,0.500656148,-0.325327311,0.713583789
784,1965151,420290,0.605,-0.687,0.299,-132.6,-36.2,-22.4,-5.2,33.2,-10.2,0.36793115,0.500320444,-0.327433088,0.712057863
785,1967419,420290,0.616,-0.672,0.299,-132.6,-36.2,-22.4,-5.2,33.2,-10.2,0.369487594,0.499984741,-0.329538865,0.710531938
786,1971127,420290,0.616,-0.672,0.299,-132.6,-36.2,-22.4,-5.2,33.2,-10.2,0.369487594,0.499984741,-0.329538865,0.710531938
787,1973282,420300,0.714,-0.619,0.269,-115.1,-42,-18.8,-5.2,33.2,-10.2,0.36957915,0.49897763,-0.332895901,0.709585864
788,1975671,420300,0.722,-0.607,0.261,-111.3,-43.5,-17.5,-5.2,33.2,-10.2,0.370738853,0.498886074,-0.334788049,0.708182012
789,1978015,420300,0.741,-0.608,0.261,-107.3,-44.5,-15.8,-5.2,33.2,-10.2,0.371837519,0.498825037,-0.33661916,0.706778161
790,1979934,420300,0.761,-0.612,0.257,-107.3,-44.5,-15.8,-5.2,33.2,-10.2,0.372936186,0.498764,-0.338480789,0.70537431
791,1981572,420310,0.788,-0.597,0.264,-97,-45.7,-11.7,-5.9,34.4,-7.6,0.373821223,0.498764,-0.340220344,0.704062014
792,1985454,420310,0.812,-0.589,0.264,-90.2,-46.7,-9.6,-5.9,34.4,-7.6,0.374614704,0.498794519,-0.341868343,0.702810755
793,1987657,420310,0.812,-0.554,0.279,-82.4,-47.8,-7.3,-5.9,34.4,-7.6,0.375255593,0.498916593,-0.343455306,0.701590014
794,1989829,420310,0.82,-0.543,0.279,-82.4,-47.8,-7.3,-5.9,34.4,-7.6,0.375896481,0.499038667,-0.34501175,0.700399792
795,1991541,420320,0.851,-0.531,0.271,-67.1,-50,-2.4,-5.2,33.3,-7.1,0.376293222,0.499252297,-0.34644612,0.699331645
796,1995652,420320,0.867,-0.532,0.27,-61.6,-50.7,-0.5,-5.2,33.3,-7.1,0.376598407,0.499526963,-0.347788934,0.698294015
797,1997988,420320,0.874,-0.528,0.27,-57.3,-51.3,0.7,-5.2,33.3,-7.1,0.376812037,0.499832148,-0.349070711,0.697317423
798,1999821,420320,0.894,-0.544,0.262,-57.3,-51.3,0.7,-5.2,33.3,-7.1,0.377025666,0.500137333,-0.350383007,0.696279794
799,2003433,420330,0.91,-0.525,0.273,-48.5,-52.3,3.1,-6.4,34.8,-6.8,0.377117222,0.500503555,-0.351573229,0.695394757
800,2006288,420330,0.917,-0.525,0.273,-43.1,-52.7,4.6,-6.4,34.8,-6.8,0.377117222,0.500930815,-0.352732933,0.694540239
801,2006601,420330,0.925,-0.521,0.273,-37.3,-52.9,6.2,-6.4,34.8,-6.8,0.377025666,0.501358074,-0.35380108,0.693716239
802,2011085,420330,0.929,-0.513,0.277,-31.6,-53.1,7.6,-6.4,34.8,-6.8,0.376842555,0.50184637,-0.354808191,0.692953276
803,2011634,420340,0.929,-0.513,0.277,-31.6,-53.1,7.6,-6.4,34.8,-6.8,0.376842555,0.50184637,-0.354808191,0.692953276
804,2015888,420340,0.937,-0.502,0.277,-21.1,-53.4,10.3,-6.2,35.4,-6.8,0.376232185,0.502914518,-0.356608783,0.691579943
805,2018551,420340,0.933,-0.502,0.273,-16.2,-53.5,11.7,-6.2,35.4,-6.8,0.375835444,0.503524888,-0.357432783,0.690969573
806,2020484,420340,0.933,-0.502,0.273,-11.5,-53.8,13.1,-6.2,35.4,-6.8,0.375347148,0.504135258,-0.358165227,0.690389721
807,2022795,420350,0.933,-0.502,0.273,-11.5,-53.8,13.1,-6.2,35.4,-6.8,0.375347148,0.504135258,-0.358165227,0.690389721
808,2024896,420350,0.933,-0.502,0.273,-11.5,-53.8,13.1,-6.2,35.4,-6.8,0.375347148,0.504135258,-0.358165227,0.690389721
809,2026578,420350,0.949,-0.494,0.281,-2.2,-55.4,15.5,-7.1,35.2,-6.9,0.374156926,0.504348888,-0.359477523,0.69020661
810,2030558,420350,0.953,-0.486,0.288,2.4,-56.5,16.4,-7.1,35.2,-6.9,0.373424482,0.505081332,-0.360087893,0.689748833
811,2032697,420360,0.968,-0.479,0.284,11.1,-58.1,18.5,-7.1,35.2,-6.9,0.371776482,0.506668294,-0.361156041,0.688894314
812,2035511,420360,0.968,-0.479,0.284,11.1,-58.1,18.5,-7.1,35.2,-6.9,0.371776482,0.506668294,-0.361156041,0.688894314
813,2038008,420360,0.988,-0.459,0.284,14.8,-58.5,19.6,-7.3,35.1,-7,0.370860927,0.507522813,-0.361613819,0.688528092
814,2040367,420360,0.992,-0.456,0.287,18,-58.8,20.8,-7.3,35.1,-7,0.369884335,0.508377331,-0.362041078,0.688192389
815,2042462,420370,1.004,-0.44,0.279,20.5,-58.6,22.1,-7.3,35.1,-7,0.368846706,0.509262368,-0.362468337,0.687887204
816,2044797,420370,1.004,-0.44,0.279,20.5,-58.6,22.1,-7.3,35.1,-7,0.368846706,0.509262368,-0.362468337,0.687887204
817,2046803,420370,1.015,-0.421,0.279,23.9,-55.5,26.1,-4.9,34.1,-6.4,0.366679891,0.510940886,-0.3632313,0.687368389
818,2050626,420370,1.027,-0.398,0.275,23.9,-55.5,26.1,-4.9,34.1,-6.4,0.365581225,0.511764885,-0.363597522,0.687154759
819,2052467,420380,1.031,-0.39,0.271,24.1,-53.9,27.5,-4.9,34.1,-6.4,0.364482559,0.512527848,-0.363994263,0.686971648
820,2055626,420380,1.031,-0.386,0.267,24.1,-52.1,29,-4.9,34.1,-6.4,0.363353374,0.513290811,-0.364360485,0.686788537
821,2057066,420380,1.047,-0.371,0.259,24.8,-48.2,32.3,-7.1,34.7,-6.6,0.362224189,0.5139317,-0.364726707,0.686696982
822,2060399,420380,1.047,-0.359,0.255,25.4,-46.1,34,-7.1,34.7,-6.6,0.361064486,0.514572588,-0.365092929,0.686666463
823,2063112,420390,1.051,-0.351,0.247,25.4,-46.1,34,-7.1,34.7,-6.6,0.359843745,0.515182958,-0.365459151,0.686605426
824,2064843,420390,1.055,-0.347,0.243,26.3,-44,35.6,-7.1,34.7,-6.6,0.35871456,0.51576281,-0.365825373,0.686605426
825,2067296,420390,1.059,-0.328,0.239,29.1,-39.9,38.5,-6.6,34.6,-7.1,0.35749382,0.516281625,-0.366130558,0.686696982
826,2069622,420390,1.059,-0.305,0.227,30.8,-38.1,39.9,-6.6,34.6,-7.1,0.356242561,0.516769921,-0.366405225,0.686819056
827,2071520,420400,1.059,-0.305,0.227,32.6,-36.4,41.1,-6.6,34.6,-7.1,0.354960784,0.517258217,-0.366679891,0.687002167
828,2075444,420400,1.059,-0.297,0.227,32.6,-36.4,41.1,-6.6,34.6,-7.1,0.353679006,0.517715995,-0.366924039,0.687154759
829,2077943,420400,1.059,-0.297,0.227,32.6,-36.4,41.1,-6.6,34.6,-7.1,0.353679006,0.517715995,-0.366924039,0.687154759
830,2079829,420400,1.059,-0.266,0.215,39.3,-32.1,44,-6.2,34.6,-7,0.352305673,0.518143254,-0.367076632,0.687459944
831,2081973,420410,1.055,-0.258,0.215,39.3,-32.1,44,-6.2,34.6,-7,0.350962859,0.518570513,-0.367229225,0.687734611
832,2085030,420410,1.055,-0.25,0.215,41.9,-30.8,44.8,-6.2,34.6,-7,0.349559008,0.518997772,-0.367351299,0.688070315
833,2087460,420410,1.063,-0.234,0.211,44.4,-29.7,45.4,-6.2,34.6,-7,0.348124638,0.519425031,-0.367412336,0.688436537
834,2090901,420410,1.055,-0.219,0.211,49.7,-27,46.3,-5.5,34.5,-7,0.346659749,0.51985229,-0.367412336,0.688863796
835,2092551,420420,1.055,-0.219,0.211,52.4,-25.7,46.5,-5.5,34.5,-7,0.345164342,0.520249031,-0.36732078,0.689352092
836,2095538,420420,1.055,-0.207,0.208,52.4,-25.7,46.5,-5.5,34.5,-7,0.343668935,0.52067629,-0.367259743,0.689840388
837,2097121,420420,1.055,-0.203,0.2,54.8,-24.6,46.6,-5.5,34.5,-7,0.34214301,0.521073031,-0.367168188,0.690328684
838,2099772,420420,1.055,-0.195,0.204,58.3,-22.8,46.5,-4.7,34.4,-7.2,0.340586566,0.521469771,-0.366985076,0.690908536
839,2103426,420430,1.059,-0.18,0.207,59.4,-21.9,46.5,-4.7,34.4,-7.2,0.339030122,0.521866512,-0.366771447,0.691457869
840,2105386,420430,1.059,-0.168,0.211,59.4,-21.9,46.5,-4.7,34.4,-7.2,0.337473678,0.522263253,-0.366557817,0.692037721
841,2107988,420430,1.055,-0.172,0.211,59.8,-20.8,46.5,-4.7,34.4,-7.2,0.335917234,0.522659993,-0.366344188,0.692617573
842,2109750,420430,1.055,-0.172,0.211,59.8,-20.8,46.5,-4.7,34.4,-7.2,0.335917234,0.522659993,-0.366344188,0.692617573
843,2112733,420440,1.059,-0.16,0.215,55,-16.1,46.1,-4.5,34.3,-7.2,0.33149205,0.52354503,-0.365764336,0.694387646
844,2115217,420440,1.059,-0.16,0.211,51.6,-14.4,45.2,-4.5,34.3,-7.2,0.330118717,0.52375866,-0.365581225,0.694967498
845,2116599,420440,1.059,-0.16,0.211,51.6,-14.4,45.2,-4.5,34.3,-7.2,0.330118717,0.52375866,-0.365581225,0.694967498
846,2120792,420440,1.059,-0.16,0.215,47.7,-12.4,44.3,-4.3,34.2,-8,0.328806421,0.523941771,-0.365459151,0.695516831
847,2123227,420450,1.063,-0.152,0.215,39.5,-8.9,42.7,-4.3,34.2,-8,0.32636494,0.5241554,-0.365337077,0.696584979
848,2125394,420450,1.063,-0.152,0.211,35.5,-7.1,41.9,-4.3,34.2,-8,0.325266274,0.524185919,-0.365306558,0.697073275
849,2127295,420450,1.063,-0.152,0.211,35.5,-7.1,41.9,-4.3,34.2,-8,0.325266274,0.524185919,-0.365306558,0.697073275
850,2129832,420450,1.063,-0.152,0.211,35.5,-7.1,41.9,-4.3,34.2,-8,0.325266274,0.524185919,-0.365306558,0.697073275
851,2131837,420460,1.071,-0.16,0.211,27.6,-3.6,40.2,-3.9,33.9,-7.5,0.324503311,0.524246956,-0.365184484,0.697470016
852,2135584,420460,1.071,-0.156,0.211,23.6,-1.8,39.4,-3.9,33.9,-7.5,0.323618274,0.524124882,-0.36527604,0.697897275
853,2137869,420460,1.071,-0.156,0.207,16.5,1.8,37.5,-3.9,33.9,-7.5,0.322061831,0.523728141,-0.365581225,0.698751793
854,2139920,420460,1.071,-0.156,0.207,16.5,1.8,37.5,-3.9,33.9,-7.5,0.322061831,0.523728141,-0.365581225,0.698751793
855,2141468,420470,1.075,-0.156,0.211,13.4,3.4,36.5,-4,34.3,-8.3,0.321390423,0.523483993,-0.365764336,0.699148534
856,2145500,420470,1.071,-0.152,0.211,10.7,5,35.5,-4,34.3,-8.3,0.320749535,0.523209326,-0.365977966,0.699545274
857,2147511,420470,1.067,-0.156,0.211,5.8,7.5,33.2,-4,34.3,-8.3,0.319681387,0.522537919,-0.366435743,0.700308237
858,2151544,420470,1.067,-0.156,0.211,5.8,7.5,33.2,-4,34.3,-8.3,0.319681387,0.522537919,-0.366435743,0.700308237
859,2151544,420480,1.051,-0.168,0.211,3.7,8.4,32,-3.1,34.3,-7.9,0.319193091,0.522202216,-0.366679891,0.700643941
860,2155948,420480,1.039,-0.175,0.2,1.6,9.2,30.7,-3.1,34.3,-7.9,0.31879635,0.521805475,-0.366954558,0.700979644
861,2157841,420480,1.031,-0.187,0.2,-1.8,10.5,28.2,-3.1,34.3,-7.9,0.318094424,0.521011994,-0.367503891,0.701590014
862,2159762,420480,1.031,-0.187,0.2,-1.8,10.5,28.2,-3.1,34.3,-7.9,0.318094424,0.521011994,-0.367503891,0.701590014
863,2161524,420490,1.02,-0.199,0.204,-3.2,10.8,26.7,-3.2,34.3,-8.1,0.317819758,0.520615253,-0.367778558,0.701895199
864,2164658,420490,1.016,-0.21,0.2,-4.2,11,25.3,-3.2,34.3,-8.1,0.31757561,0.520218513,-0.368053224,0.702139348
865,2167872,420490,1.012,-0.214,0.197,-4.8,11,23.8,-3.2,34.3,-8.1,0.317331462,0.519821772,-0.368327891,0.702414014
866,2169846,420490,0.996,-0.222,0.197,-5,10.9,22.2,-3.2,34.3,-8.1,0.31714835,0.519425031,-0.368572039,0.702627644
867,2171917,420500,0.98,-0.237,0.193,-4.8,10.7,20.6,-3.2,34.5,-7.9,0.316965239,0.519058809,-0.368816187,0.702871792
868,2175911,420500,0.973,-0.249,0.197,-4.4,10.7,19,-3.2,34.5,-7.9,0.316812647,0.518723106,-0.368999298,0.703085421
869,2177403,420500,0.969,-0.256,0.19,-3.8,10.8,17.4,-3.2,34.5,-7.9,0.316690573,0.518387402,-0.369182409,0.703299051
870,2181075,420500,0.949,-0.272,0.186,-3,10.8,16.1,-3.2,34.5,-7.9,0.31653798,0.518082217,-0.36936552,0.70351268
871,2182669,420510,0.949,-0.272,0.186,-3,10.8,16.1,-3.2,34.5,-7.9,0.31653798,0.518082217,-0.36936552,0.70351268
872,2186231,420510,0.933,-0.291,0.186,-1.6,10.7,13.8,-2.8,34.2,-7.9,0.316293832,0.517715995,-0.369609668,0.70372631
873,2186407,420510,0.926,-0.299,0.187,-1.3,10.5,12.8,-2.8,34.2,-7.9,0.316202277,0.517441328,-0.369731742,0.70393994
874,2189840,420510,0.914,-0.306,0.187,-1,10.5,11.7,-2.8,34.2,-7.9,0.316110721,0.517166662,-0.369792779,0.704092532
875,2192953,420520,0.914,-0.31,0.179,-0.8,10.4,10.7,-2.8,34.2,-7.9,0.316049684,0.516922514,-0.369853816,0.704306162
876,2196236,420520,0.91,-0.318,0.183,-0.6,10.3,9,-4.3,34.4,-8.1,0.315988647,0.516678365,-0.369914853,0.704489273
877,2196394,420520,0.906,-0.322,0.187,-0.6,10.3,9,-4.3,34.4,-8.1,0.315958129,0.516464736,-0.369945372,0.704641865
878,2200496,420520,0.898,-0.326,0.187,-0.8,10.3,8.5,-4.3,34.4,-8.1,0.315897092,0.516220588,-0.36997589,0.704824976
879,2202699,420530,0.898,-0.326,0.191,-1.1,10.1,7.9,-4.3,34.4,-8.1,0.315866573,0.516006958,-0.370006409,0.704977569
880,2205229,420530,0.902,-0.322,0.191,-2.5,9.6,7.1,-3.1,34.5,-8.2,0.315866573,0.51576281,-0.370067446,0.705130161
881,2207539,420530,0.898,-0.318,0.195,-2.5,9.6,7.1,-3.1,34.5,-8.2,0.315866573,0.515549181,-0.370128483,0.705252235
882,2209634,420530,0.902,-0.318,0.199,-3.3,9.3,6.8,-3.1,34.5,-8.2,0.315866573,0.515335551,-0.37018952,0.70537431
883,2211644,420540,0.898,-0.314,0.199,-4.3,8.8,6.3,-3.1,34.5,-8.2,0.315897092,0.515091403,-0.370250557,0.705496384
884,2215450,420540,0.902,-0.306,0.199,-6.8,8.1,5.3,-2.8,34.5,-8,0.315958129,0.514877773,-0.370372631,0.705557421
885,2216753,420540,0.902,-0.306,0.199,-6.8,8.1,5.3,-2.8,34.5,-8,0.316019166,0.514664144,-0.370464187,0.705648976
886,2220719,420540,0.902,-0.31,0.195,-8.1,7.9,4.9,-2.8,34.5,-8,0.316110721,0.514450514,-0.370616779,0.705710013
887,2222123,420550,0.902,-0.306,0.207,-9.3,7.8,4.6,-2.8,34.5,-8,0.316202277,0.514236885,-0.370738853,0.705740532
888,2225392,420550,0.906,-0.302,0.203,-11.2,7.9,4.3,-2.8,34.7,-7.9,0.316324351,0.513992737,-0.370921964,0.70577105
889,2226561,420550,0.906,-0.302,0.203,-11.2,7.9,4.3,-2.8,34.7,-7.9,0.316446425,0.513748589,-0.371074557,0.705801569
890,2229668,420550,0.906,-0.298,0.199,-11.7,8,4.1,-2.8,34.7,-7.9,0.316568499,0.513534959,-0.371257668,0.705832087
891,2233292,420560,0.914,-0.298,0.199,-12,7.9,4,-2.8,34.7,-7.9,0.316721091,0.513290811,-0.371440779,0.705832087
892,2235455,420560,0.914,-0.298,0.199,-12,7.9,4,-2.8,34.7,-7.9,0.316721091,0.513290811,-0.371440779,0.705832087
893,2238225,420560,0.91,-0.287,0.206,-12.1,8,3.7,-2.8,34.4,-8,0.316385388,0.512649922,-0.372112186,0.706106754
894,2240147,420560,0.914,-0.287,0.202,-12,8,3.6,-2.8,34.4,-8,0.316507462,0.512405774,-0.372295297,0.706106754
895,2242277,420570,0.914,-0.287,0.202,-12,8,3.6,-2.8,34.4,-8,0.316507462,0.512405774,-0.372295297,0.706106754
896,2245463,420570,0.914,-0.287,0.202,-12,7.9,3.4,-2.8,34.4,-8,0.316812647,0.511947996,-0.372631001,0.706137272
897,2247638,420570,0.918,-0.287,0.198,-11.9,7.6,3,-3.6,34.6,-7.7,0.316965239,0.511703848,-0.372783593,0.706137272
898,2249996,420570,0.922,-0.283,0.214,-11.7,7.3,2.6,-3.6,34.6,-7.7,0.317117832,0.511490219,-0.372966704,0.706167791
899,2252502,420580,0.922,-0.279,0.21,-11.4,7,2,-3.6,34.6,-7.7,0.317270425,0.511307108,-0.373119297,0.706167791
900,2255888,420580,0.922,-0.283,0.206,-11.1,6.7,1.7,-3.6,34.6,-7.7,0.317423017,0.511093478,-0.373241371,0.706137272
901,2257981,420580,0.93,-0.279,0.218,-10.6,6.5,1.4,-3.9,34.3,-7.4,0.31757561,0.510910367,-0.373393963,0.706137272
902,2260216,420580,0.926,-0.283,0.218,-10.2,6.1,1.1,-3.9,34.3,-7.4,0.317728202,0.510727256,-0.373516037,0.706137272
903,2262693,420590,0.934,-0.279,0.214,-9.9,5.9,0.8,-3.9,34.3,-7.4,0.317850276,0.510574664,-0.373638112,0.706137272
904,2264760,420590,0.934,-0.275,0.218,-9.7,5.7,0.4,-3.9,34.3,-7.4,0.318002869,0.510422071,-0.373760186,0.706106754
905,2266444,420590,0.934,-0.279,0.222,-9.5,5.5,0.2,-3.7,34.3,-7,0.318155461,0.51023896,-0.373851741,0.706106754
906,2270353,420590,0.938,-0.275,0.222,-9.3,5.3,0,-3.7,34.3,-7,0.318308054,0.510116886,-0.373973815,0.706076235
907,2271640,420600,0.941,-0.271,0.218,-9.1,5.1,-0.1,-3.7,34.3,-7,0.318460646,0.509964293,-0.374065371,0.706076235
908,2275376,420600,0.941,-0.275,0.229,-8.9,4.8,-0.4,-3.7,34.3,-7,0.31858272,0.509842219,-0.374187445,0.706045717
909,2277133,420600,0.938,-0.275,0.226,-8.5,4.5,-0.5,-3.5,34.4,-6.2,0.318735313,0.509689627,-0.374279,0.706015198
910,2280376,420600,0.938,-0.271,0.229,-8.1,4.4,-0.6,-3.5,34.4,-6.2,0.318826868,0.509598071,-0.374370556,0.706015198
911,2282716,420610,0.941,-0.275,0.233,-7.6,4.1,-0.5,-3.5,34.4,-6.2,0.31900998,0.509475997,-0.374431593,0.70598468
912,2284668,420610,0.938,-0.263,0.233,-7.2,3.9,-0.4,-3.5,34.4,-6.2,0.319132054,0.509353923,-0.374523148,0.705954161
913,2286624,420610,0.938,-0.263,0.233,-7.2,3.9,-0.4,-3.5,34.4,-6.2,0.319132054,0.509353923,-0.374523148,0.705954161
914,2290877,420610,0.938,-0.267,0.225,-5.7,3.4,0.1,-3.8,34.3,-6.3,0.318887906,0.508774071,-0.37488937,0.706289865
915,2293047,420620,0.938,-0.267,0.225,-5.7,3.4,0.1,-3.8,34.3,-6.3,0.318979461,0.508713034,-0.374950407,0.706289865
916,2294605,420620,0.934,-0.271,0.226,-5.3,3,0.2,-3.8,34.3,-6.3,0.319071017,0.508621479,-0.375011444,0.706259346
917,2297772,420620,0.938,-0.271,0.225,-4.8,2.7,0.5,-3.8,34.3,-6.3,0.319132054,0.508529923,-0.375072481,0.706259346
918,2300174,420620,0.93,-0.275,0.218,-3.7,1.9,1.1,-3.3,34.5,-9.4,0.319162572,0.508468886,-0.375133518,0.706259346
919,2302124,420630,0.93,-0.275,0.222,-3.7,1.9,1.1,-3.3,34.5,-9.4,0.319193091,0.508407849,-0.375194555,0.706259346
920,2304634,420630,0.93,-0.279,0.218,-3,1.6,1.4,-3.3,34.5,-9.4,0.319223609,0.508346812,-0.375255593,0.706259346
921,2306783,420630,0.934,-0.275,0.226,-2.4,1.4,1.7,-3.3,34.5,-9.4,0.319254128,0.508285775,-0.375286111,0.706259346
922,2310485,420630,0.934,-0.275,0.222,-1.3,1,2.5,-3.2,34.4,-7.1,0.319223609,0.508255257,-0.375347148,0.706289865
923,2311999,420640,0.934,-0.275,0.222,-1.3,1,2.5,-3.2,34.4,-7.1,0.319193091,0.50819422,-0.375377667,0.706320383
924,2314922,420640,0.934,-0.275,0.222,-0.8,0.7,2.9,-3.2,34.4,-7.1,0.319193091,0.508163701,-0.375408185,0.706320383
925,2316420,420640,0.938,-0.271,0.222,-0.4,0.5,3.3,-3.2,34.4,-7.1,0.319132054,0.508133183,-0.375469222,0.706350902
926,2320387,420640,0.934,-0.271,0.222,0.2,0.3,4.2,-3.2,34.4,-7,0.319071017,0.508072146,-0.375469222,0.70638142
927,2323357,420650,0.934,-0.271,0.218,0.2,0.3,4.2,-3.2,34.4,-7,0.31900998,0.508041627,-0.375530259,0.706442457
928,2325501,420650,0.934,-0.271,0.218,0.4,0.1,4.8,-3.2,34.4,-7,0.318918424,0.508011109,-0.375591296,0.706472976
929,2327075,420650,0.93,-0.271,0.218,0.6,0,5.2,-3.2,34.4,-7,0.318826868,0.507950072,-0.375621815,0.706503494
930,2330497,420650,0.934,-0.271,0.214,0.9,-0.2,6.1,-3.3,34.6,-7.1,0.318735313,0.507919553,-0.375682852,0.706564531
931,2332220,420660,0.934,-0.267,0.214,1,-0.2,6.5,-3.3,34.6,-7.1,0.318613239,0.507889035,-0.375743889,0.706625568
932,2334611,420660,0.934,-0.267,0.214,1,-0.2,6.5,-3.3,34.6,-7.1,0.318491165,0.507827998,-0.375804926,0.706656087
933,2336842,420660,0.934,-0.271,0.218,1.3,-0.2,6.8,-3.3,34.6,-7.1,0.318369091,0.507797479,-0.375865963,0.706717124
934,2340717,420660,0.934,-0.271,0.218,1.3,-0.2,6.8,-3.3,34.6,-7.1,0.318369091,0.507797479,-0.375865963,0.706717124
935,2342309,420670,0.934,-0.271,0.218,1.3,-0.2,6.8,-3.3,34.6,-7.1,0.318369091,0.507797479,-0.375865963,0.706717124
936,2344769,420670,0.941,-0.275,0.214,3.3,-0.3,8.4,-3.2,34.6,-7.4,0.317392499,0.506973479,-0.376628925,0.707358013
937,2346602,420670,0.934,-0.275,0.214,3.8,-0.2,8.8,-3.2,34.6,-7.4,0.317209387,0.506912442,-0.376659444,0.707449568
938,2350558,420670,0.934,-0.275,0.214,3.8,-0.2,8.8,-3.2,34.6,-7.4,0.317026276,0.506881924,-0.376720481,0.707541124
939,2353046,420680,0.934,-0.275,0.214,3.8,-0.2,8.8,-3.2,34.6,-7.4,0.317026276,0.506881924,-0.376720481,0.707541124
940,2355192,420680,0.945,-0.283,0.221,5.3,0.1,9.8,-3.2,34.8,-8.1,0.316599017,0.506790368,-0.376750999,0.707754753
941,2356749,420680,0.941,-0.283,0.218,5.7,0,10.2,-3.2,34.8,-8.1,0.316385388,0.50675985,-0.376781518,0.707876827
942,2359952,420680,0.941,-0.279,0.218,5.7,0,10.2,-3.2,34.8,-8.1,0.316171758,0.506698813,-0.376812037,0.707998901
943,2362287,420690,0.941,-0.279,0.218,5.7,0,10.2,-3.2,34.8,-8.1,0.316171758,0.506698813,-0.376812037,0.707998901
944,2366084,420690,0.945,-0.279,0.221,6.5,-0.3,10.7,-3.2,34.8,-8.6,0.31592761,0.506668294,-0.376842555,0.708120975
945,2368359,420690,0.941,-0.279,0.222,6.9,-0.6,11.2,-3.2,34.8,-8.6,0.315408795,0.506607257,-0.376873074,0.708365123
946,2370579,420690,0.949,-0.275,0.225,6.9,-0.6,11.2,-3.2,34.8,-8.6,0.315164647,0.506576739,-0.376903592,0.708487197
947,2372982,420700,0.949,-0.275,0.225,6.9,-0.6,11.2,-3.2,34.8,-8.6,0.315164647,0.506576739,-0.376903592,0.708487197
948,2375012,420700,0.953,-0.283,0.229,7.6,-0.7,12.1,-3.1,34.8,-9.2,0.314889981,0.506515702,-0.376903592,0.70863979
949,2376610,420700,0.953,-0.275,0.229,8.2,-0.8,12.9,-3.1,34.8,-9.2,0.314310129,0.506454665,-0.376964629,0.708914457
950,2380706,420700,0.957,-0.268,0.225,8.4,-0.8,13.2,-3.1,34.8,-9.2,0.314004944,0.506424146,-0.376964629,0.709067049
951,2383082,420710,0.957,-0.268,0.225,8.4,-0.8,13.2,-3.1,34.8,-9.2,0.314004944,0.506424146,-0.376964629,0.709067049
952,2385481,420710,0.957,-0.264,0.233,8.6,-0.8,13.7,-3,34.6,-9,0.31366924,0.506393628,-0.376995148,0.709219642
953,2387690,420710,0.961,-0.26,0.221,9.2,-1,14.2,-3,34.6,-9,0.313028352,0.506302072,-0.377056185,0.709555345
954,2390466,420710,0.965,-0.26,0.229,9.5,-1.1,14.3,-3,34.6,-9,0.312692648,0.506271554,-0.377056185,0.709707938
955,2392754,420720,0.965,-0.26,0.229,9.5,-1.1,14.3,-3,34.6,-9,0.312692648,0.506271554,-0.377056185,0.709707938
956,2395032,420720,0.965,-0.26,0.229,9.5,-1.1,14.3,-3,34.6,-9,0.312692648,0.506271554,-0.377056185,0.709707938
957,2397112,420720,0.969,-0.252,0.225,10,-1.3,14.3,-3,34.6,-9,0.312173833,0.50593585,-0.377239296,0.71007416
958,2401476,420720,0.969,-0.252,0.225,10.5,-1.4,14.4,-3,34.6,-9,0.311807611,0.50593585,-0.377239296,0.710257271
959,2402025,420730,0.969,-0.244,0.225,11.4,-1.4,14.7,-3,34.6,-9,0.311075167,0.505874813,-0.377239296,0.710592975
960,2405503,420730,0.969,-0.244,0.225,11.4,-1.4,14.7,-3,34.6,-9,0.311075167,0.505874813,-0.377239296,0.710592975
961,2407928,420730,0.973,-0.245,0.221,11.7,-1.3,14.9,-2.8,34.6,-8.2,0.310708945,0.505844295,-0.377239296,0.710776086
962,2409851,420730,0.973,-0.241,0.221,12.1,-1,15.1,-2.8,34.6,-8.2,0.310342723,0.505844295,-0.377208777,0.710959197
963,2412339,420740,0.965,-0.241,0.221,12.5,-0.8,15,-2.8,34.6,-8.2,0.30957976,0.505783258,-0.377178259,0.711355937
964,2414692,420740,0.965,-0.241,0.221,12.5,-0.8,15,-2.8,34.6,-8.2,0.30957976,0.505783258,-0.377178259,0.711355937
965,2416448,420740,0.965,-0.244,0.217,12.5,-0.7,15,-2.9,34.4,-8.1,0.30918302,0.505752739,-0.37714774,0.711569567
966,2421161,420740,0.965,-0.244,0.221,12.5,-0.6,14.9,-2.9,34.4,-8.1,0.308816797,0.505722221,-0.377117222,0.711752678
967,2421424,420750,0.965,-0.241,0.213,12.4,-0.3,14.8,-2.9,34.4,-8.1,0.308450575,0.505691702,-0.377086703,0.711966308
968,2425746,420750,0.961,-0.244,0.217,12.3,-0.1,14.9,-2.9,34.4,-8.1,0.308084353,0.505661184,-0.377056185,0.712149419
969,2427351,420750,0.961,-0.241,0.213,12.3,0,14.8,-2.7,34,-8.1,0.307718131,0.505600146,-0.377025666,0.712363048
970,2430729,420750,0.957,-0.24,0.217,12.3,0.1,14.8,-2.7,34,-8.1,0.307351909,0.505569628,-0.377025666,0.712546159
971,2433543,420760,0.953,-0.24,0.213,12.3,0.1,14.8,-2.7,34,-8.1,0.306985687,0.505539109,-0.376995148,0.712759789
972,2436012,420760,0.953,-0.244,0.209,12.3,0.2,14.7,-2.7,34,-8.1,0.306619465,0.505478072,-0.376964629,0.712973418
973,2436480,420760,0.949,-0.248,0.21,12.2,0.4,14.5,-3.2,33.5,-8.6,0.306253243,0.505447554,-0.376903592,0.713156529
974,2440180,420760,0.945,-0.248,0.202,12,0.6,14.2,-3.2,33.5,-8.6,0.305917539,0.505386517,-0.376873074,0.713370159
975,2442198,420770,0.945,-0.252,0.202,11.7,0.8,13.9,-3.2,33.5,-8.6,0.305581835,0.505355998,-0.376842555,0.71355327
976,2445553,420770,0.937,-0.248,0.202,11.4,1,13.6,-3.2,33.5,-8.6,0.305246132,0.505294961,-0.376812037,0.7137669
977,2447884,420770,0.937,-0.248,0.202,11.4,1,13.6,-3.2,33.5,-8.6,0.305246132,0.505294961,-0.376812037,0.7137669
978,2449847,420770,0.937,-0.256,0.198,11.1,1.3,12.8,-2.9,35.5,-7.4,0.304788354,0.505203406,-0.376903592,0.713980529
979,2451700,420780,0.934,-0.256,0.202,11.1,1.3,12.8,-2.9,35.5,-7.4,0.304483169,0.505142369,-0.376873074,0.71416364
980,2456333,420780,0.93,-0.256,0.202,11.1,1.3,12.7,-2.9,35.5,-7.4,0.304177984,0.505081332,-0.376842555,0.714346751
981,2456480,420780,0.93,-0.256,0.206,11.2,1.1,12.6,-2.9,35.5,-7.4,0.303872799,0.505050813,-0.376781518,0.714529862
982,2460256,420780,0.926,-0.259,0.21,11,0.5,12.1,-2.8,33.9,-9.3,0.303567614,0.505020295,-0.376750999,0.714712973
983,2461981,420790,0.926,-0.256,0.21,10.9,0.3,11.8,-2.8,33.9,-9.3,0.303262429,0.504959258,-0.376720481,0.714896084
984,2466265,420790,0.926,-0.256,0.21,10.9,0.3,11.8,-2.8,33.9,-9.3,0.302957244,0.504928739,-0.376659444,0.715079196
985,2466448,420790,0.922,-0.263,0.214,10.8,0.2,11.5,-2.8,33.9,-9.3,0.302652058,0.504928739,-0.376628925,0.715231788
986,2471200,420790,0.922,-0.263,0.214,10.8,0.2,11.5,-2.8,33.9,-9.3,0.302652058,0.504928739,-0.376628925,0.715231788
987,2471402,420800,0.926,-0.263,0.21,10.4,0,10.5,-2.4,33.9,-9.3,0.302102725,0.504867702,-0.37653737,0.715536973
988,2474634,420800,0.922,-0.259,0.206,10.4,0,10.5,-2.4,33.9,-9.3,0.301828059,0.504867702,-0.376476333,0.715689566
989,2478453,420800,0.926,-0.267,0.214,10,0,10.3,-2.4,33.9,-9.3,0.301553392,0.504837184,-0.376445814,0.71581164
990,2480906,420800,0.926,-0.267,0.214,10,0,10.3,-2.4,33.9,-9.3,0.301553392,0.504837184,-0.376445814,0.71581164
991,2483239,420810,0.922,-0.263,0.214,9.5,0.5,9.5,-2.7,33.6,-9.4,0.301034577,0.504776147,-0.376354259,0.716147343
992,2485413,420810,0.922,-0.259,0.214,9.5,0.5,9.5,-2.7,33.6,-9.4,0.300790429,0.504776147,-0.376293222,0.716299936
993,2487436,420810,0.922,-0.255,0.21,9.3,0.6,9.2,-2.7,33.6,-9.4,0.300546281,0.504745628,-0.376262703,0.716452528
994,2490181,420810,0.922,-0.255,0.21,9.3,0.6,9.2,-2.7,33.6,-9.4,0.300546281,0.504745628,-0.376262703,0.716452528
995,2491758,420820,0.926,-0.259,0.218,8.7,1.2,8.5,-2.4,34.2,-9.4,0.300088504,0.504684591,-0.376140629,0.716727195
996,2496155,420820,0.926,-0.256,0.218,8.7,1.2,8.5,-2.4,34.2,-9.4,0.299874874,0.504654073,-0.376110111,0.716879788
997,2496640,420820,0.926,-0.255,0.226,8.6,1.3,8.2,-2.4,34.2,-9.4,0.299661245,0.504623554,-0.376049074,0.717001862
998,2499584,420820,0.926,-0.255,0.226,8.6,1.3,8.2,-2.4,34.2,-9.4,0.299661245,0.504623554,-0.376049074,0.717001862
999,2501462,420830,0.926,-0.255,0.226,8.6,1.3,8.2,-2.4,34.2,-9.4,0.299661245,0.504623554,-0.376049074,0.717001862
1000,2505765,420830,0.938,-0.252,0.222,7.7,1.4,7,-2.6,35.4,-7.5,0.299111911,0.504257332,-0.376079592,0.717459639
1001,2507945,420830,0.938,-0.244,0.225,7.7,1.4,7,-2.6,35.4,-7.5,0.2989288,0.504226814,-0.376018555,0.717581713
1002,2509598,420830,0.938,-0.244,0.225,7.4,1.5,6.7,-2.6,35.4,-7.5,0.298776208,0.504196295,-0.375957518,0.717703787
1003,2512795,420840,0.938,-0.244,0.225,7.4,1.5,6.7,-2.6,35.4,-7.5,0.298776208,0.504196295,-0.375957518,0.717703787
1004,2515039,420840,0.949,-0.236,0.225,5.8,1.6,6,-3,34.7,-9.3,0.298471023,0.504135258,-0.375896481,0.717917417
1005,2517135,420840,0.949,-0.232,0.225,5.8,1.6,6,-3,34.7,-9.3,0.29831843,0.50410474,-0.375865963,0.718039491
1006,2520951,420840,0.949,-0.232,0.225,5.2,1.7,5.8,-3,34.7,-9.3,0.298196356,0.504043703,-0.375835444,0.718131046
1007,2524031,420850,0.949,-0.232,0.225,5.2,1.7,5.8,-3,34.7,-9.3,0.298196356,0.504043703,-0.375835444,0.718131046
1008,2526010,420850,0.953,-0.232,0.225,3.5,2.2,5.2,-2.9,35.1,-9.8,0.297952208,0.503952147,-0.375804926,0.718314158
1009,2527967,420850,0.957,-0.225,0.225,3.5,2.2,5.2,-2.9,35.1,-9.8,0.297860652,0.50389111,-0.375774407,0.718405713
1010,2530001,420850,0.953,-0.229,0.225,3,2.3,5.1,-2.9,35.1,-9.8,0.297769097,0.503830073,-0.375774407,0.718497269
1011,2532144,420860,0.953,-0.229,0.225,3,2.3,5.1,-2.9,35.1,-9.8,0.297769097,0.503830073,-0.375774407,0.718497269
1012,2535157,420860,0.953,-0.225,0.221,2.2,2.6,4.3,-2.4,35.5,-9.6,0.297616504,0.503707999,-0.375774407,0.718649861
1013,2536651,420860,0.949,-0.225,0.217,2.2,2.6,4.3,-2.4,35.5,-9.6,0.297555467,0.503646962,-0.375774407,0.718710898
1014,2540360,420860,0.945,-0.228,0.217,2.2,2.5,4.1,-2.4,35.5,-9.6,0.297463912,0.503585925,-0.375743889,0.718802454
1015,2542897,420870,0.945,-0.228,0.217,2.2,2.5,4.1,-2.4,35.5,-9.6,0.297463912,0.503585925,-0.375743889,0.718802454
1016,2544670,420870,0.945,-0.221,0.221,2.2,2.3,3.4,-2.4,35.5,-9.6,0.297341838,0.503494369,-0.375743889,0.718924528
1017,2547865,420870,0.942,-0.217,0.217,2.2,2.3,3.4,-2.4,35.5,-9.6,0.297280801,0.503433332,-0.37571337,0.718985565
1018,2549593,420870,0.938,-0.221,0.221,2.3,2.2,3.3,-2.4,35.5,-9.6,0.297219764,0.503402814,-0.37571337,0.719046602
1019,2552103,420880,0.938,-0.221,0.221,2.3,2.2,3.3,-2.4,35.5,-9.6,0.297219764,0.503402814,-0.37571337,0.719046602
1020,2554841,420880,0.938,-0.221,0.221,2.3,2.2,3.3,-2.4,35.5,-9.6,0.297219764,0.503402814,-0.37571337,0.719046602
1021,2556472,420880,0.93,-0.22,0.218,2.6,1.9,2.7,-2.2,34.2,-8,0.297341838,0.503433332,-0.375469222,0.719107639
1022,2559944,420880,0.926,-0.22,0.218,2.6,1.9,2.6,-2.2,34.2,-8,0.297250282,0.503341777,-0.375408185,0.719229713
1023,2562112,420890,0.926,-0.22,0.218,2.6,1.9,2.6,-2.2,34.2,-8,0.297219764,0.503311258,-0.375377667,0.71929075
1024,2566492,420890,0.926,-0.22,0.218,2.6,1.9,2.6,-2.2,34.2,-8,0.297219764,0.503311258,-0.375377667,0.71929075
1025,2566492,420890,0.926,-0.224,0.214,2.6,2.3,2.3,-2.4,34.3,-8.8,0.297158727,0.50328074,-0.375347148,0.719351787
1026,2569725,420890,0.926,-0.228,0.21,2.6,2.6,1.9,-2.4,34.3,-8.8,0.297067171,0.503189184,-0.375286111,0.719473861
1027,2571770,420900,0.926,-0.228,0.21,2.6,2.6,1.9,-2.4,34.3,-8.8,0.297036653,0.503158666,-0.375225074,0.719534898
1028,2575728,420900,0.926,-0.228,0.21,2.6,2.6,1.9,-2.4,34.3,-8.8,0.297036653,0.503158666,-0.375225074,0.719534898
1029,2577946,420900,0.93,-0.224,0.214,2.4,2.7,1.5,-3,34.3,-8.6,0.297006134,0.503128147,-0.375194555,0.719595935
1030,2580271,420900,0.926,-0.232,0.21,2,2.8,1.2,-3,34.3,-8.6,0.296975616,0.503036592,-0.375133518,0.719718009
1031,2582508,420910,0.926,-0.232,0.21,2,2.8,1.2,-3,34.3,-8.6,0.296945097,0.503006073,-0.375103,0.719779046
1032,2584696,420910,0.926,-0.232,0.21,2,2.8,1.2,-3,34.3,-8.6,0.296945097,0.503006073,-0.375103,0.719779046
1033,2586755,420910,0.926,-0.232,0.214,1.4,2.9,0.9,-3.2,34.4,-8.7,0.296945097,0.502945036,-0.375072481,0.719809565
