sample_index,elapsed_us,device_time_ms,acc_x_g,acc_y_g,acc_z_g,gyro_x_dps,gyro_y_dps,gyro_z_dps,mag_x_ut,mag_y_ut,mag_z_ut,quat_w,quat_x,quat_y,quat_z
0,4643,552770,0.985,0.036,-0.014,0.1,0.1,0,-35.1,5.9,25.3,0.175664541,0.698080386,-0.152195807,0.677205725
1,7268,552780,0.985,0.04,-0.022,0,0,0,-35.1,5.9,25.3,0.175664541,0.698080386,-0.152195807,0.677205725
2,10586,552780,0.981,0.036,-0.022,0,0,0,-35.6,6.3,27.5,0.175664541,0.698080386,-0.152195807,0.677205725
3,12791,552780,0.985,0.036,-0.026,0,0,0,-35.6,6.3,27.5,0.175664541,0.698080386,-0.152195807,0.677205725
4,14992,552780,0.988,0.04,-0.022,0,0,0,-35.6,6.3,27.5,0.175664541,0.698080386,-0.152195807,0.677205725
5,17245,552790,0.985,0.044,-0.018,0,0,0,-35.6,6.3,27.5,0.175664541,0.698080386,-0.152195807,0.677205725
6,20234,552790,0.988,0.044,-0.018,0,0,0,-35.5,5.9,27.7,0.175664541,0.698110904,-0.152165288,0.677175207
7,22482,552790,0.988,0.044,-0.018,0,0,0,-35.5,5.9,27.7,0.175664541,0.698110904,-0.152165288,0.677175207
8,25478,552790,0.988,0.04,-0.018,-0.1,0,0,-35.5,5.9,27.7,0.175664541,0.698110904,-0.152165288,0.677175207
9,26998,552800,0.985,0.04,-0.014,-0.1,0,0,-35.5,5.9,27.7,0.175695059,0.698110904,-0.152165288,0.677175207
10,29313,552800,0.988,0.04,-0.018,-0.1,-0.1,0,-35.3,5.9,27.8,0.175695059,0.698110904,-0.152195807,0.677175207
11,32241,552800,0.985,0.04,-0.022,0,-0.2,0,-35.3,5.9,27.8,0.175695059,0.698110904,-0.152195807,0.677175207
12,34512,552800,0.985,0.044,-0.026,0,-0.1,0,-35.3,5.9,27.8,0.175695059,0.698110904,-0.152195807,0.677175207
13,37526,552810,0.985,0.036,-0.022,-0.1,0,0,-35.3,5.9,27.8,0.175695059,0.698110904,-0.152195807,0.677144688
14,39731,552810,0.985,0.044,-0.014,-0.1,0,0,-35.1,6,27.4,0.175695059,0.698110904,-0.152195807,0.677144688
15,42732,552810,0.985,0.036,-0.018,0,0,0,-35.1,6,27.4,0.175695059,0.698110904,-0.152195807,0.677144688
16,45086,552810,0.988,0.032,-0.018,0,0,0,-35.1,6,27.4,0.175695059,0.698110904,-0.152195807,0.677144688
17,47220,552820,0.985,0.036,-0.022,0,0,0,-35.1,6,27.4,0.175695059,0.698110904,-0.152195807,0.677144688
18,49475,552820,0.988,0.036,-0.022,0,0,0,-35.3,6,26.1,0.175695059,0.698110904,-0.152195807,0.677144688
19,52452,552820,0.988,0.036,-0.022,0,0,0,-35.3,6,26.1,0.175695059,0.698110904,-0.152195807,0.677144688
20,55556,552820,0.985,0.04,-0.022,0,0,-0.1,-35.3,6,26.1,0.175695059,0.698110904,-0.152195807,0.677144688
21,57136,552830,0.985,0.04,-0.018,0,0.1,-0.2,-35.3,6,26.1,0.175695059,0.698110904,-0.152195807,0.677144688
22,59404,552830,0.985,0.044,-0.022,0,0.1,-0.2,-35.1,6.3,26.7,0.175695059,0.698110904,-0.152165288,0.677144688
23,62007,552830,0.988,0.036,-0.022,0,0,-0.1,-35.1,6.3,26.7,0.175695059,0.698110904,-0.152165288,0.677144688
24,65492,552830,0.985,0.04,-0.018,0.1,0,0,-35.1,6.3,26.7,0.175695059,0.698110904,-0.152165288,0.677175207
25,67111,552840,0.988,0.044,-0.022,0.1,0,0,-35.1,6.3,26.7,0.175695059,0.698110904,-0.152165288,0.677175207
26,69457,552840,0.988,0.036,-0.022,0.1,0.1,0,-35.4,6,26.2,0.175725578,0.698141423,-0.15213477,0.677144688
27,72094,552840,0.985,0.04,-0.022,0.1,0.1,0,-35.4,6,26.2,0.175725578,0.698141423,-0.15213477,0.677144688
28,75483,552840,0.985,0.036,-0.026,0,0.2,0,-35.4,6,26.2,0.175725578,0.698141423,-0.15213477,0.677144688
29,77770,552850,0.985,0.036,-0.026,0,0.2,0,-35.4,6,26.2,0.175725578,0.698141423,-0.15213477,0.677144688
30,79919,552850,0.985,0.036,-0.022,0,0.1,0,-35.7,5.9,25.9,0.175725578,0.698110904,-0.15213477,0.677144688
31,82141,552850,0.985,0.04,-0.022,0,0,0,-35.7,5.9,25.9,0.175725578,0.698110904,-0.15213477,0.677144688
32,84457,552850,0.988,0.044,-0.022,0,0,0,-35.7,5.9,25.9,0.175725578,0.698110904,-0.15213477,0.677175207
33,87775,552860,0.988,0.04,-0.026,0,0,0,-35.7,5.9,25.9,0.175725578,0.698110904,-0.15213477,0.677175207
34,89955,552860,0.988,0.04,-0.014,0,0,0,-35.4,5.9,26,0.175725578,0.698110904,-0.15213477,0.677144688
35,92218,552860,0.988,0.036,-0.018,0,-0.1,0,-35.4,5.9,26,0.175725578,0.698141423,-0.15213477,0.677144688
36,94517,552860,0.985,0.04,-0.022,0,-0.1,0,-35.4,5.9,26,0.175725578,0.698141423,-0.15213477,0.677144688
37,97126,552870,0.988,0.04,-0.022,0,-0.1,0,-35.4,5.9,26,0.175725578,0.698141423,-0.15213477,0.677144688
38,99576,552870,0.985,0.04,-0.022,0,-0.1,0,-35.2,6,27.5,0.175725578,0.698141423,-0.15213477,0.677144688
39,102745,552870,0.988,0.036,-0.018,0,0,0,-35.2,6,27.5,0.175725578,0.698141423,-0.15213477,0.677144688
40,104657,552870,0.985,0.036,-0.022,0,-0.1,0,-35.2,6,27.5,0.175725578,0.698141423,-0.15213477,0.677144688
41,106987,552880,0.988,0.036,-0.018,0,0,0,-35.2,6,27.5,0.175725578,0.698141423,-0.15213477,0.677144688
42,110389,552880,0.988,0.036,-0.018,0.1,0,0,-35.2,5.8,26.2,0.175725578,0.698141423,-0.15213477,0.677144688
43,112509,552880,0.988,0.04,-0.01,0,0,0,-35.2,5.8,26.2,0.175725578,0.698141423,-0.15213477,0.677144688
44,114798,552880,0.988,0.036,-0.014,0,0.1,0,-35.2,5.8,26.2,0.175725578,0.698141423,-0.15213477,0.677144688
45,117064,552890,0.985,0.036,-0.018,0,0.1,0,-35.2,5.8,26.2,0.175725578,0.698141423,-0.15213477,0.677144688
46,119338,552890,0.981,0.044,-0.022,-0.1,0.1,0,-34.9,5,26.7,0.175725578,0.698080386,-0.15213477,0.677205725
47,123057,552890,0.985,0.036,-0.022,-0.1,0.1,0,-34.9,5,26.7,0.175725578,0.698080386,-0.15213477,0.677205725
48,125370,552890,0.985,0.036,-0.022,-0.1,0,0,-34.9,5,26.7,0.175725578,0.698080386,-0.15213477,0.677205725
49,127557,552900,0.988,0.036,-0.022,0,0,0,-34.9,5,26.7,0.175725578,0.698080386,-0.15213477,0.677205725
50,130695,552900,0.988,0.036,-0.022,0,-0.1,0,-35.1,4.4,26.3,0.175725578,0.698080386,-0.15213477,0.677205725
51,132589,552900,0.992,0.036,-0.018,0.1,0,0,-35.1,4.4,26.3,0.175725578,0.698080386,-0.15213477,0.677205725
52,134806,552900,0.988,0.036,-0.022,0.1,0,0,-35.1,4.4,26.3,0.175725578,0.698080386,-0.15213477,0.677205725
53,137128,552910,0.988,0.04,-0.014,0,0.1,-0.1,-35.1,4.4,26.3,0.175725578,0.698080386,-0.15213477,0.677205725
54,139583,552910,0.988,0.036,-0.018,0,0.1,0,-35.2,3.6,26.6,0.175725578,0.698080386,-0.15213477,0.677205725
55,142002,552910,0.985,0.036,-0.022,0,0.1,0,-35.2,3.6,26.6,0.175725578,0.698080386,-0.15213477,0.677205725
56,144937,552910,0.988,0.032,-0.018,0,0,0,-35.2,3.6,26.6,0.175725578,0.698080386,-0.15213477,0.677205725
57,147003,552920,0.988,0.04,-0.018,0,0,0,-35.2,3.6,26.6,0.175725578,0.698080386,-0.15213477,0.677205725
58,150145,552920,0.985,0.036,-0.022,0,0,0,-35.3,7.8,27.9,0.175725578,0.698080386,-0.15213477,0.677205725
59,152340,552920,0.988,0.04,-0.022,0,0.1,0,-35.3,7.8,27.9,0.175725578,0.698080386,-0.15213477,0.677205725
60,154569,552920,0.988,0.04,-0.022,0,0,0,-35.3,7.8,27.9,0.175725578,0.698080386,-0.15213477,0.677205725
61,157019,552930,0.985,0.036,-0.014,0,0,0,-35.3,7.8,27.9,0.175725578,0.698080386,-0.15213477,0.677205725
62,160121,552930,0.992,0.04,-0.014,0,-0.1,0,-35.5,5.4,26.4,0.175725578,0.698080386,-0.15213477,0.677205725
63,162194,552930,0.985,0.036,-0.018,0,-0.1,0,-35.5,5.4,26.4,0.175725578,0.698080386,-0.15213477,0.677205725
64,164404,552930,0.985,0.04,-0.018,0,0,0,-35.5,5.4,26.4,0.175725578,0.698080386,-0.15213477,0.677205725
65,167102,552940,0.985,0.04,-0.026,0,0,0,-35.5,5.4,26.4,0.175725578,0.698080386,-0.15213477,0.677205725
66,170382,552940,0.988,0.036,-0.026,0.1,0,0.2,-35.2,5.1,26.5,0.175756096,0.698049867,-0.152104251,0.677236244
67,172644,552940,0.988,0.036,-0.026,0.1,0,0.2,-35.2,5.1,26.5,0.175756096,0.698049867,-0.152104251,0.677236244
68,174811,552940,0.985,0.036,-0.022,0.1,0,0.2,-35.2,5.1,26.5,0.175725578,0.698049867,-0.152104251,0.677236244
69,177099,552950,0.988,0.04,-0.022,0.1,0,0.1,-35.2,5.1,26.5,0.175725578,0.698049867,-0.15213477,0.677236244
70,180508,552950,0.985,0.04,-0.014,0,-0.1,0,-35.2,5.8,26.2,0.175725578,0.698049867,-0.15213477,0.677236244
71,182306,552950,0.985,0.04,-0.026,-0.1,-0.1,0,-35.2,5.8,26.2,0.175725578,0.698049867,-0.15213477,0.677236244
72,185301,552950,0.985,0.04,-0.022,-0.1,-0.1,0,-35.2,5.8,26.2,0.175725578,0.698080386,-0.15213477,0.677205725
73,187230,552960,0.985,0.032,-0.026,-0.1,-0.1,0,-35.2,5.8,26.2,0.175725578,0.698080386,-0.15213477,0.677205725
74,189557,552960,0.985,0.036,-0.022,0,0,0,-35.1,6.2,26.1,0.175756096,0.698080386,-0.15213477,0.677205725
75,191986,552960,0.985,0.036,-0.018,0,0,0,-35.1,6.2,26.1,0.175756096,0.698080386,-0.15213477,0.677205725
76,195494,552960,0.981,0.04,-0.022,0,0.1,0,-35.1,6.2,26.1,0.175756096,0.698080386,-0.15213477,0.677205725
77,197785,552970,0.985,0.036,-0.014,0,0,0,-35.1,6.2,26.1,0.175756096,0.698049867,-0.15213477,0.677205725
78,199963,552970,0.985,0.044,-0.018,0,0,0,-35.3,6.5,27,0.175756096,0.698080386,-0.15213477,0.677205725
79,202247,552970,0.985,0.04,-0.018,-0.1,-0.1,0,-35.3,6.5,27,0.175756096,0.698080386,-0.15213477,0.677205725
80,205722,552970,0.985,0.04,-0.022,0,-0.1,0,-35.3,6.5,27,0.175756096,0.698080386,-0.15213477,0.677205725
81,207447,552980,0.988,0.032,-0.022,0,0,0,-35.3,6.5,27,0.175756096,0.698080386,-0.15213477,0.677205725
82,209789,552980,0.985,0.04,-0.022,0,0,0.1,-35.1,6.7,27,0.175756096,0.698080386,-0.15213477,0.677205725
83,212048,552980,0.985,0.032,-0.018,0,0.1,0.2,-35.1,6.7,27,0.175756096,0.698080386,-0.15213477,0.677205725
84,214480,552980,0.988,0.032,-0.022,0,0.2,0.1,-35.1,6.7,27,0.175756096,0.698049867,-0.15213477,0.677205725
85,217523,552990,0.988,0.04,-0.022,0,0.2,0,-35.1,6.7,27,0.175756096,0.698049867,-0.15213477,0.677236244
86,219669,552990,0.988,0.036,-0.018,0,0.1,0,-35.2,6.6,27.2,0.175725578,0.698049867,-0.152165288,0.677205725
87,222677,552990,0.988,0.036,-0.018,0,0.1,0,-35.2,6.6,27.2,0.175725578,0.698049867,-0.152165288,0.677236244
88,225707,552990,0.988,0.04,-0.022,0,0,0,-35.2,6.6,27.2,0.175725578,0.698049867,-0.15213477,0.677236244
89,227913,553000,0.985,0.04,-0.018,-0.1,0,0,-35.2,6.6,27.2,0.175725578,0.698049867,-0.152165288,0.677205725
90,229397,553000,0.985,0.036,-0.018,0,0,0,-35.2,6.6,27,0.175725578,0.698049867,-0.15213477,0.677205725
91,232507,553000,0.981,0.04,-0.022,0,0,0,-35.2,6.6,27,0.175725578,0.698049867,-0.15213477,0.677205725
92,234682,553000,0.988,0.04,-0.018,0,0,0,-35.2,6.6,27,0.175725578,0.698049867,-0.152165288,0.677205725
93,237691,553010,0.985,0.04,-0.022,0,-0.1,0,-35.2,6.6,27,0.175725578,0.698049867,-0.152165288,0.677205725
94,240680,553010,0.988,0.032,-0.022,0,-0.1,0,-35.1,6.9,27,0.175725578,0.698080386,-0.152165288,0.677205725
95,242948,553010,0.985,0.036,-0.022,0,-0.1,0,-35.1,6.9,27,0.175725578,0.698080386,-0.15213477,0.677205725
96,245313,553010,0.988,0.04,-0.014,0,0,0,-35.1,6.9,27,0.175725578,0.698080386,-0.15213477,0.677205725
97,247528,553020,0.985,0.04,-0.026,0,0,0,-35.1,6.9,27,0.175725578,0.698080386,-0.15213477,0.677205725
98,249745,553020,0.985,0.04,-0.018,0,0,0,-35.1,6.9,27,0.175725578,0.698080386,-0.15213477,0.677205725
99,252063,553020,0.985,0.036,-0.018,0,0,0,-35.1,6.9,27,0.175725578,0.698080386,-0.15213477,0.677205725
100,254380,553020,0.988,0.04,-0.022,0,0,0,-35.1,6.9,27,0.175725578,0.698080386,-0.15213477,0.677205725
101,257691,553030,0.985,0.04,-0.018,0.1,0,0,-35.1,6.9,27,0.175725578,0.698080386,-0.15213477,0.677205725
102,259460,553030,0.985,0.036,-0.022,0.1,-0.1,0,-35.4,6.9,27.1,0.175725578,0.698080386,-0.15213477,0.677205725
103,262050,553030,0.985,0.032,-0.026,0.1,-0.1,0,-35.4,6.9,27.1,0.175725578,0.698080386,-0.15213477,0.677205725
104,265532,553030,0.988,0.032,-0.022,0.1,-0.2,0,-35.4,6.9,27.1,0.175725578,0.698080386,-0.15213477,0.677205725
105,267755,553040,0.985,0.04,-0.018,0,-0.2,0,-35.4,6.9,27.1,0.175725578,0.698080386,-0.15213477,0.677205725
106,270005,553040,0.985,0.036,-0.018,0,-0.1,0,-36.2,6.9,27,0.175664541,0.698110904,-0.152165288,0.677175207
107,272377,553040,0.988,0.04,-0.018,0,-0.1,0,-36.2,6.9,27,0.175664541,0.698110904,-0.152165288,0.677175207
108,274526,553040,0.985,0.036,-0.022,0,0,0,-36.2,6.9,27,0.175664541,0.698110904,-0.152165288,0.677175207
109,277785,553050,0.988,0.036,-0.022,0,0,0,-36.2,6.9,27,0.175664541,0.698110904,-0.152165288,0.677175207
110,279451,553050,0.985,0.036,-0.018,0,0.1,0,-36.8,7.1,26.9,0.175664541,0.698110904,-0.152165288,0.677175207
111,282435,553050,0.985,0.036,-0.018,0,0.1,0,-36.8,7.1,26.9,0.175664541,0.698110904,-0.152165288,0.677175207
112,284713,553050,0.985,0.036,-0.014,0.1,0.1,0.1,-36.8,7.1,26.9,0.175664541,0.698110904,-0.152165288,0.677175207
113,286997,553060,0.985,0.036,-0.018,0.1,0,0.2,-36.8,7.1,26.9,0.175664541,0.698110904,-0.152165288,0.677205725
114,289449,553060,0.988,0.04,-0.018,0,0,0.2,-37.3,6.9,26.9,0.175664541,0.698110904,-0.152165288,0.677205725
115,292220,553060,0.985,0.036,-0.022,0,-0.1,0,-37.3,6.9,26.9,0.175664541,0.698110904,-0.152165288,0.677205725
116,295346,553060,0.985,0.04,-0.026,0,0,0,-37.3,6.9,26.9,0.175664541,0.698110904,-0.152195807,0.677175207
117,297579,553070,0.988,0.032,-0.018,0,0,0,-37.3,6.9,26.9,0.175664541,0.698110904,-0.152165288,0.677175207
118,299737,553070,0.988,0.04,-0.022,0,0,0,-37.3,6.9,26.9,0.175664541,0.698110904,-0.152165288,0.677175207
119,302712,553070,0.985,0.036,-0.026,0,0.1,0,-37.3,6.9,26.9,0.175664541,0.698110904,-0.152165288,0.677205725
120,305908,553070,0.988,0.04,-0.026,0,0.1,0,-37.3,6.9,26.9,0.175664541,0.698110904,-0.152165288,0.677205725
121,307396,553080,0.988,0.036,-0.022,0,0,0,-37.3,6.9,26.9,0.175664541,0.698080386,-0.152165288,0.677205725
122,310238,553080,0.988,0.032,-0.022,0,0,0,-37.3,7.2,27.1,0.175664541,0.698080386,-0.152195807,0.677205725
123,311925,553080,0.988,0.036,-0.018,0,0,0,-37.3,7.2,27.1,0.175664541,0.698080386,-0.152195807,0.677205725
124,314738,553080,0.988,0.036,-0.01,0,0,0,-37.3,7.2,27.1,0.175664541,0.698080386,-0.152195807,0.677205725
125,317702,553090,0.988,0.044,-0.022,0,0,0,-37.3,7.2,27.1,0.175664541,0.698080386,-0.152195807,0.677205725
126,319927,553090,0.988,0.04,-0.018,0,0.3,0,-36.3,7.2,27.5,0.175664541,0.698080386,-0.152195807,0.677236244
127,321783,553090,0.988,0.04,-0.018,0,0.3,0,-36.3,7.2,27.5,0.175664541,0.698049867,-0.152195807,0.677236244
128,325240,553090,0.985,0.036,-0.022,0,0.3,0,-36.3,7.2,27.5,0.175664541,0.698049867,-0.152195807,0.677236244
129,326947,553100,0.985,0.04,-0.018,0,0.2,0,-36.3,7.2,27.5,0.175664541,0.698049867,-0.152195807,0.677236244
130,330407,553100,0.981,0.036,-0.022,0,0.1,0,-36,7.1,27.4,0.175664541,0.698049867,-0.152195807,0.677236244
131,331953,553100,0.985,0.036,-0.018,0,0.1,0,-36,7.1,27.4,0.175664541,0.698049867,-0.152195807,0.677236244
132,335172,553100,0.985,0.036,-0.014,0,0.1,0,-36,7.1,27.4,0.175664541,0.698049867,-0.152195807,0.677236244
133,337422,553110,0.985,0.044,-0.018,0,0.1,0,-36,7.1,27.4,0.175664541,0.698049867,-0.152195807,0.677236244
134,339612,553110,0.981,0.04,-0.022,0,0.2,0,-35.5,7.3,27.3,0.175664541,0.698049867,-0.152195807,0.677236244
135,341860,553110,0.985,0.036,-0.022,0,0.2,0.1,-35.5,7.3,27.3,0.175664541,0.698049867,-0.152195807,0.677236244
136,346028,553110,0.981,0.04,-0.018,0,0.1,0,-35.5,7.3,27.3,0.175664541,0.698049867,-0.152195807,0.677266762
137,348395,553120,0.988,0.036,-0.018,0,0.1,0,-35.5,7.3,27.3,0.175664541,0.698019349,-0.152195807,0.677266762
138,349810,553120,0.985,0.036,-0.022,0.1,0.2,0,-35.5,7.3,27.3,0.175664541,0.698019349,-0.152195807,0.677266762
139,352062,553120,0.988,0.036,-0.026,0.1,0.1,0,-35.5,7.3,27.3,0.175664541,0.698019349,-0.152165288,0.677266762
140,354405,553120,0.988,0.04,-0.018,0.1,0.1,0,-35.5,7.3,27.3,0.175664541,0.698019349,-0.152165288,0.677266762
141,357037,553130,0.992,0.036,-0.022,0,0,0,-35.5,7.3,27.3,0.175664541,0.698019349,-0.152165288,0.677266762
142,360371,553130,0.985,0.044,-0.022,0,-0.1,0,-35.3,6.4,27.4,0.175664541,0.698019349,-0.152165288,0.677266762
143,362046,553130,0.985,0.04,-0.018,0,-0.1,0,-35.3,6.4,27.4,0.175664541,0.698019349,-0.152165288,0.677266762
144,364433,553130,0.985,0.036,-0.022,0,0,0,-35.3,6.4,27.4,0.175664541,0.698019349,-0.152165288,0.677266762
145,367129,553140,0.985,0.04,-0.018,0,0,-0.1,-35.3,6.4,27.4,0.175664541,0.698019349,-0.152165288,0.677266762
146,370198,553140,0.985,0.044,-0.022,-0.1,0,0,-35.3,5.8,27.2,0.175695059,0.698049867,-0.152165288,0.677266762
147,372419,553140,0.985,0.036,-0.022,-0.1,0,0,-35.3,5.8,27.2,0.175695059,0.698049867,-0.152165288,0.677236244
148,374606,553140,0.988,0.04,-0.018,-0.1,-0.1,0,-35.3,5.8,27.2,0.175695059,0.698049867,-0.152165288,0.677236244
149,376884,553150,0.985,0.04,-0.018,-0.1,-0.1,0,-35.3,5.8,27.2,0.175695059,0.698049867,-0.152165288,0.677236244
150,379482,553150,0.992,0.036,-0.018,0,0,0,-35,6.3,27.3,0.175695059,0.698049867,-0.152165288,0.677236244
151,383582,553150,0.988,0.036,-0.018,0,0,0.1,-35,6.3,27.3,0.175695059,0.698049867,-0.152165288,0.677236244
152,385171,553150,0.985,0.04,-0.022,0,0.1,0.1,-35,6.3,27.3,0.175695059,0.698049867,-0.152165288,0.677236244
153,386937,553160,0.985,0.036,-0.022,0,0.2,0,-35,6.3,27.3,0.175695059,0.698049867,-0.152165288,0.677236244
154,389917,553160,0.981,0.04,-0.014,0,0.2,0,-35.1,5.9,26.9,0.175695059,0.698019349,-0.152165288,0.677266762
155,391821,553160,0.985,0.036,-0.022,0,0.2,0,-35.1,5.9,26.9,0.175695059,0.698019349,-0.152165288,0.677266762
156,394642,553160,0.985,0.04,-0.022,0.1,0.1,0,-35.1,5.9,26.9,0.175695059,0.698019349,-0.152165288,0.677266762
157,397636,553170,0.985,0.036,-0.018,0.1,0.3,0.1,-35.1,5.9,26.9,0.175695059,0.698019349,-0.152165288,0.677266762
158,399889,553170,0.985,0.036,-0.018,0.2,0.3,0.1,-35.1,5.9,26.9,0.175695059,0.698019349,-0.152165288,0.677266762
159,402187,553170,0.988,0.036,-0.018,0.1,0.3,0,-35.1,5.9,26.9,0.175695059,0.698019349,-0.152165288,0.677266762
160,404482,553170,0.985,0.04,-0.018,0.1,0.1,0,-35.1,5.9,26.9,0.175695059,0.698019349,-0.152165288,0.677297281
161,406908,553180,0.988,0.036,-0.026,0,0,0,-35.1,5.9,26.9,0.175695059,0.698019349,-0.152165288,0.677266762
162,410302,553180,0.985,0.036,-0.018,0,-0.1,0,-34.4,6.5,27,0.175695059,0.698019349,-0.152165288,0.677266762
163,412723,553180,0.988,0.04,-0.018,0,-0.3,0,-34.4,6.5,27,0.175695059,0.698019349,-0.152165288,0.677266762
164,414874,553180,0.985,0.036,-0.022,0,-0.2,0,-34.4,6.5,27,0.175695059,0.698019349,-0.152165288,0.677266762
165,417093,553190,0.988,0.032,-0.026,0,-0.1,0,-34.4,6.5,27,0.175695059,0.698019349,-0.152165288,0.677266762
166,419358,553190,0.985,0.04,-0.022,0.1,0,0,-34.2,6.2,27.3,0.175664541,0.698019349,-0.152165288,0.677266762
167,421916,553190,0.988,0.036,-0.018,0.1,0,0,-34.2,6.2,27.3,0.175664541,0.698019349,-0.152165288,0.677266762
168,425359,553190,0.985,0.036,-0.014,0.1,0.1,0,-34.2,6.2,27.3,0.175664541,0.698019349,-0.152165288,0.677266762
169,426840,553200,0.985,0.036,-0.026,0,0,0,-34.2,6.2,27.3,0.175664541,0.698019349,-0.152165288,0.677266762
170,429904,553200,0.985,0.04,-0.022,0,0,0,-34.3,6.4,26.9,0.175664541,0.698019349,-0.152165288,0.677266762
171,431795,553200,0.985,0.036,-0.022,0,0,-0.1,-34.3,6.4,26.9,0.175664541,0.698019349,-0.152165288,0.677266762
172,435308,553200,0.988,0.036,-0.026,0,0,-0.1,-34.3,6.4,26.9,0.175664541,0.698019349,-0.152165288,0.677266762
173,436841,553210,0.988,0.04,-0.018,0,0,0,-34.3,6.4,26.9,0.175664541,0.698019349,-0.152165288,0.677266762
174,439883,553210,0.985,0.04,-0.022,0,0,0,-34.3,6.3,26.7,0.175664541,0.698019349,-0.152165288,0.677266762
175,442677,553210,0.988,0.04,-0.014,0,-0.1,0,-34.3,6.3,26.7,0.175664541,0.698049867,-0.152165288,0.677266762
176,445053,553210,0.985,0.04,-0.022,0,0,0,-34.3,6.3,26.7,0.175664541,0.698049867,-0.152165288,0.677266762
177,447413,553220,0.988,0.04,-0.022,0,0,0,-34.3,6.3,26.7,0.175664541,0.698049867,-0.152165288,0.677266762
178,449321,553220,0.981,0.036,-0.018,0,-0.1,0,-34.3,6.3,26.7,0.175664541,0.698049867,-0.152165288,0.677266762
179,452237,553220,0.988,0.04,-0.026,0,-0.1,0,-34.3,6.3,26.7,0.175664541,0.698049867,-0.152165288,0.677266762
180,455267,553220,0.988,0.036,-0.022,0,0,0.1,-34.3,6.3,26.7,0.175664541,0.698049867,-0.152165288,0.677266762
181,456964,553230,0.985,0.036,-0.022,0,0,0.2,-34.3,6.3,26.7,0.175664541,0.698049867,-0.152165288,0.677266762
182,459862,553230,0.985,0.036,-0.022,0,-0.1,0,-34.4,6.2,27,0.175664541,0.698049867,-0.152165288,0.677236244
183,461799,553230,0.988,0.036,-0.022,0,-0.1,0,-34.4,6.2,27,0.175664541,0.698049867,-0.152165288,0.677236244
184,464931,553230,0.988,0.04,-0.022,0,-0.1,-0.1,-34.4,6.2,27,0.175664541,0.698049867,-0.152165288,0.677236244
185,466920,553240,0.988,0.036,-0.018,0,0,0,-34.4,6.2,27,0.175664541,0.698049867,-0.152165288,0.677236244
186,469861,553240,0.985,0.036,-0.018,0,0,0,-34.6,6.2,27.2,0.175634022,0.698049867,-0.152165288,0.677236244
187,472712,553240,0.985,0.036,-0.018,0,0,0,-34.6,6.2,27.2,0.175634022,0.698049867,-0.152165288,0.677236244
188,474948,553240,0.981,0.04,-0.018,0,0,0,-34.6,6.2,27.2,0.175634022,0.698080386,-0.152165288,0.677236244
189,477162,553250,0.985,0.036,-0.018,0,0,0,-34.6,6.2,27.2,0.175634022,0.698080386,-0.152165288,0.677236244
190,479468,553250,0.988,0.036,-0.022,0,0,0.1,-34.6,6,27,0.175634022,0.698049867,-0.152165288,0.677236244
191,482033,553250,0.988,0.036,-0.022,0,0,0.1,-34.6,6,27,0.175634022,0.698049867,-0.152165288,0.677236244
192,485535,553250,0.992,0.036,-0.014,0,0,0,-34.6,6,27,0.175634022,0.698049867,-0.152165288,0.677236244
193,487731,553260,0.988,0.04,-0.014,0,0,0,-34.6,6,27,0.175634022,0.698049867,-0.152165288,0.677236244
194,490089,553260,0.988,0.036,-0.014,0,0,0,-34.6,6.2,27.2,0.175634022,0.698049867,-0.152165288,0.677236244
195,492448,553260,0.985,0.036,-0.022,0,-0.1,0,-34.6,6.2,27.2,0.175634022,0.698049867,-0.152195807,0.677236244
196,495367,553260,0.981,0.036,-0.022,0,-0.1,0,-34.6,6.2,27.2,0.175634022,0.698080386,-0.152195807,0.677236244
197,497706,553270,0.981,0.04,-0.022,-0.1,-0.2,0,-34.6,6.2,27.2,0.175634022,0.698080386,-0.152195807,0.677236244
198,499903,553270,0.985,0.036,-0.022,-0.1,-0.1,0,-34.6,6.2,27.2,0.175634022,0.698080386,-0.152195807,0.677236244
199,502289,553270,0.985,0.04,-0.022,-0.1,0,-0.1,-34.6,6.2,27.2,0.175634022,0.698080386,-0.152195807,0.677236244
200,504456,553270,0.985,0.04,-0.026,0,0.1,0,-34.6,6.2,27.2,0.175664541,0.698080386,-0.152195807,0.677236244
201,507089,553280,0.985,0.044,-0.018,0,0.1,0,-34.6,6.2,27.2,0.175664541,0.698080386,-0.152195807,0.677236244
202,510427,553280,0.988,0.04,-0.018,0,0.1,0,-35.2,6.1,27.2,0.175664541,0.698049867,-0.152195807,0.677236244
203,512116,553280,0.985,0.036,-0.022,0,0,0,-35.2,6.1,27.2,0.175664541,0.698049867,-0.152195807,0.677236244
204,514483,553280,0.988,0.036,-0.022,0,0,0,-35.2,6.1,27.2,0.175634022,0.698049867,-0.152195807,0.677236244
205,516889,553290,0.988,0.04,-0.022,0,0,0,-35.2,6.1,27.2,0.175634022,0.698049867,-0.152195807,0.677236244
206,519888,553290,0.981,0.04,-0.026,-0.1,0.1,0,-35.4,6.2,27.8,0.175664541,0.698080386,-0.152195807,0.677236244
207,522156,553290,0.988,0.036,-0.014,-0.1,0.1,0,-35.4,6.2,27.8,0.175664541,0.698080386,-0.152195807,0.677236244
208,524453,553290,0.985,0.036,-0.018,-0.1,0.1,0,-35.4,6.2,27.8,0.175664541,0.698049867,-0.152195807,0.677236244
209,526899,553300,0.985,0.04,-0.022,-0.1,0.2,0,-35.4,6.2,27.8,0.175664541,0.698049867,-0.152195807,0.677236244
210,530404,553300,0.981,0.04,-0.018,0,0.2,0,-35.4,6.1,28.2,0.175664541,0.698049867,-0.152195807,0.677236244
211,532744,553300,0.985,0.032,-0.018,0.1,0.2,0,-35.4,6.1,28.2,0.175664541,0.698049867,-0.152195807,0.677236244
212,535029,553300,0.985,0.036,-0.018,0.1,0.1,0,-35.4,6.1,28.2,0.175664541,0.698049867,-0.152195807,0.677236244
213,537163,553310,0.985,0.04,-0.022,0,0.1,-0.1,-35.4,6.1,28.2,0.175664541,0.698049867,-0.152195807,0.677236244
214,540539,553310,0.985,0.036,-0.022,0,0,-0.2,-35.2,6,28.7,0.175664541,0.698049867,-0.152195807,0.677236244
215,542219,553310,0.985,0.036,-0.018,0,0,0,-35.2,6,28.7,0.175664541,0.698049867,-0.152195807,0.677236244
216,544587,553310,0.985,0.04,-0.022,0,0,0,-35.2,6,28.7,0.175664541,0.698049867,-0.152195807,0.677236244
217,547089,553320,0.985,0.04,-0.018,0,-0.1,0,-35.2,6,28.7,0.175664541,0.698049867,-0.152195807,0.677236244
218,550462,553320,0.985,0.032,-0.018,0,-0.2,0,-35.2,6,28.7,0.175664541,0.698049867,-0.152195807,0.677236244
219,552079,553320,0.988,0.036,-0.014,0,-0.3,0,-35.2,6,28.7,0.175664541,0.698049867,-0.152195807,0.677236244
220,554443,553320,0.988,0.04,-0.018,0,-0.2,0,-35.2,6,28.7,0.175664541,0.698080386,-0.152195807,0.677236244
221,557110,553330,0.985,0.036,-0.026,0,-0.1,0,-35.2,6,28.7,0.175664541,0.698080386,-0.152195807,0.677236244
222,559363,553330,0.985,0.036,-0.022,0,0,0,-35.1,5.4,27.7,0.175664541,0.698080386,-0.152165288,0.677236244
223,562917,553330,0.985,0.04,-0.022,0,0,0,-35.1,5.4,27.7,0.175664541,0.698080386,-0.152165288,0.677236244
224,564398,553330,0.985,0.036,-0.018,0.1,0.1,0,-35.1,5.4,27.7,0.175664541,0.698080386,-0.152165288,0.677236244
225,567462,553340,0.985,0.04,-0.014,0,0.1,-0.1,-35.1,5.4,27.7,0.175664541,0.698080386,-0.152165288,0.677236244
226,569684,553340,0.988,0.04,-0.014,0,0,-0.1,-35.4,6,27.7,0.175664541,0.698049867,-0.152165288,0.677236244
227,571929,553340,0.985,0.036,-0.022,0,0,-0.1,-35.4,6,27.7,0.175664541,0.698049867,-0.152165288,0.677236244
228,574878,553340,0.988,0.032,-0.014,0,0,0,-35.4,6,27.7,0.175664541,0.698049867,-0.152165288,0.677236244
229,577893,553350,0.988,0.04,-0.014,0.1,0,0,-35.4,6,27.7,0.175664541,0.698049867,-0.152165288,0.677236244
230,579393,553350,0.985,0.036,-0.014,0,0,0,-35.4,5.6,27,0.175664541,0.698049867,-0.152165288,0.677236244
231,582473,553350,0.985,0.04,-0.018,0,0,0,-35.4,5.6,27,0.175664541,0.698049867,-0.152165288,0.677236244
232,584630,553350,0.985,0.04,-0.022,0,0,0,-35.4,5.6,27,0.175664541,0.698049867,-0.152165288,0.677236244
233,587724,553360,0.985,0.04,-0.018,-0.1,0,0,-35.4,5.6,27,0.175664541,0.698049867,-0.152165288,0.677236244
234,589883,553360,0.985,0.04,-0.018,0,0.1,0,-35.1,6,27.1,0.175664541,0.698049867,-0.152165288,0.677236244
235,592129,553360,0.985,0.036,-0.014,0,0.1,0,-35.1,6,27.1,0.175664541,0.698049867,-0.152165288,0.677236244
236,594443,553360,0.985,0.036,-0.018,0,0.1,0,-35.1,6,27.1,0.175664541,0.698049867,-0.152165288,0.677236244
237,596991,553370,0.988,0.04,-0.022,0,0.1,0,-35.1,6,27.1,0.175664541,0.698049867,-0.152165288,0.677236244
238,600436,553370,0.988,0.04,-0.026,0,0,0,-35.1,6,27.1,0.175664541,0.698049867,-0.152165288,0.677236244
239,602660,553370,0.988,0.04,-0.022,0,0,0,-35.1,6,27.1,0.175664541,0.698049867,-0.152165288,0.677236244
240,604904,553370,0.988,0.04,-0.022,0,-0.1,0,-35.1,6,27.1,0.175664541,0.698049867,-0.152165288,0.677236244
241,607128,553380,0.985,0.04,-0.018,0,-0.2,0,-35.1,6,27.1,0.175664541,0.698049867,-0.152165288,0.677236244
242,609402,553380,0.988,0.036,-0.026,0,-0.2,0,-35.1,6.2,26.3,0.175664541,0.698049867,-0.152165288,0.677236244
243,611872,553380,0.988,0.036,-0.022,0,-0.2,0,-35.1,6.2,26.3,0.175664541,0.698049867,-0.152165288,0.677236244
244,614702,553380,0.985,0.036,-0.022,0.1,0,0,-35.1,6.2,26.3,0.175664541,0.698049867,-0.152165288,0.677236244
245,616983,553390,0.988,0.04,-0.018,0.1,0.1,0,-35.1,6.2,26.3,0.175664541,0.698049867,-0.152165288,0.677236244
246,619290,553390,0.988,0.04,-0.022,0.1,0.1,0,-35.1,6,26.4,0.175664541,0.698080386,-0.152165288,0.677236244
247,622195,553390,0.988,0.04,-0.022,0,0.1,0,-35.1,6,26.4,0.175664541,0.698080386,-0.152165288,0.677236244
248,624498,553390,0.988,0.036,-0.022,0,0,-0.1,-35.1,6,26.4,0.175664541,0.698080386,-0.152165288,0.677236244
249,626886,553400,0.988,0.04,-0.022,-0.1,0,-0.1,-35.1,6,26.4,0.175664541,0.698080386,-0.152165288,0.677236244
250,630424,553400,0.988,0.036,-0.018,-0.1,0.1,0,-34.7,6.3,25.8,0.175664541,0.698080386,-0.152165288,0.677236244
251,632629,553400,0.985,0.04,-0.018,-0.1,0.1,0,-34.7,6.3,25.8,0.175664541,0.698080386,-0.152165288,0.677236244
252,634920,553400,0.988,0.04,-0.022,-0.1,0.1,0,-34.7,6.3,25.8,0.175664541,0.698049867,-0.152165288,0.677236244
253,637879,553410,0.985,0.036,-0.022,-0.1,0.1,0,-34.7,6.3,25.8,0.175664541,0.698049867,-0.152165288,0.677236244
254,639421,553410,0.988,0.04,-0.022,0,0.1,0.1,-35.2,5.6,25.5,0.175664541,0.698049867,-0.152165288,0.677236244
255,642463,553410,0.985,0.032,-0.018,0,0,0.1,-35.2,5.6,25.5,0.175664541,0.698049867,-0.152165288,0.677236244
256,644636,553410,0.985,0.036,-0.018,0,0,0,-35.2,5.6,25.5,0.175664541,0.698049867,-0.152165288,0.677236244
257,647564,553420,0.985,0.04,-0.018,0,-0.1,0,-35.2,5.6,25.5,0.175664541,0.698049867,-0.152165288,0.677236244
258,650608,553420,0.985,0.032,-0.018,0,-0.1,0,-35.2,5.6,25.5,0.175664541,0.698049867,-0.152165288,0.677236244
259,652148,553420,0.985,0.04,-0.026,0,-0.1,0,-35.2,5.6,25.5,0.175664541,0.698049867,-0.152165288,0.677236244
260,654877,553420,0.985,0.036,-0.022,0,-0.1,0,-35.2,5.6,25.5,0.175664541,0.698049867,-0.152195807,0.677236244
261,657863,553430,0.988,0.036,-0.022,0,0,0,-35.2,5.6,25.5,0.175664541,0.698049867,-0.152195807,0.677236244
262,660652,553430,0.985,0.036,-0.018,0,0.1,0,-35.4,5.9,26.3,0.175664541,0.698049867,-0.152195807,0.677236244
263,662234,553430,0.988,0.044,-0.018,0,0.1,0,-35.4,5.9,26.3,0.175664541,0.698049867,-0.152165288,0.677236244
264,664865,553430,0.981,0.036,-0.018,0,0.1,0,-35.4,5.9,26.3,0.175664541,0.698049867,-0.152195807,0.677236244
265,667901,553440,0.988,0.036,-0.014,0,0.1,0,-35.4,5.9,26.3,0.175664541,0.698049867,-0.152195807,0.677236244
266,670928,553440,0.985,0.04,-0.014,0,0,0,-35.2,5.7,26.3,0.175664541,0.698019349,-0.152165288,0.677266762
267,672361,553440,0.981,0.036,-0.018,0,0,0,-35.2,5.7,26.3,0.175664541,0.698019349,-0.152165288,0.677266762
268,674603,553440,0.985,0.04,-0.014,0,0.1,0,-35.2,5.7,26.3,0.175664541,0.698019349,-0.152165288,0.677266762
269,677626,553450,0.985,0.044,-0.022,0,0.2,-0.1,-35.2,5.7,26.3,0.175695059,0.698019349,-0.152165288,0.677266762
270,679806,553450,0.985,0.04,-0.022,0,0.2,0,-35.3,4.8,26.2,0.175695059,0.698019349,-0.152165288,0.677266762
271,682856,553450,0.985,0.04,-0.018,0,0.1,0,-35.3,4.8,26.2,0.175695059,0.698019349,-0.152165288,0.677266762
272,684369,553450,0.985,0.04,-0.018,0,-0.1,0,-35.3,4.8,26.2,0.175695059,0.698019349,-0.152165288,0.677266762
273,687398,553460,0.985,0.036,-0.022,0,-0.1,0,-35.3,4.8,26.2,0.175695059,0.698019349,-0.152165288,0.677266762
274,689589,553460,0.985,0.036,-0.018,0,-0.1,0,-35.3,4.8,26.2,0.175695059,0.698019349,-0.152165288,0.677266762
275,692552,553460,0.985,0.04,-0.014,0,0,0,-35.3,4.8,26.2,0.175695059,0.698019349,-0.152165288,0.677266762
276,694831,553460,0.985,0.04,-0.022,0,0,0,-35.3,4.8,26.2,0.175695059,0.698019349,-0.152165288,0.677266762
277,697855,553470,0.988,0.044,-0.018,0,0,0,-35.3,4.8,26.2,0.175695059,0.698019349,-0.152165288,0.677266762
278,699362,553470,0.985,0.036,-0.022,0.1,0,0,-35.3,4.8,26.2,0.175695059,0.698019349,-0.152165288,0.677266762
279,702366,553470,0.985,0.04,-0.018,0.1,0,0,-35.3,4.8,26.2,0.175695059,0.698019349,-0.152165288,0.677266762
280,705399,553470,0.988,0.036,-0.022,0,0,0,-35.3,4.8,26.2,0.175695059,0.698019349,-0.152165288,0.677266762
281,706858,553480,0.988,0.04,-0.018,0,0,0.1,-35.3,4.8,26.2,0.175695059,0.698019349,-0.152165288,0.677266762
282,709807,553480,0.988,0.04,-0.022,0,0,0,-35.2,7.8,28.1,0.175664541,0.698019349,-0.152165288,0.677266762
283,712802,553480,0.985,0.036,-0.026,0,0,0,-35.2,7.8,28.1,0.175664541,0.698019349,-0.152165288,0.677266762
284,714305,553480,0.985,0.036,-0.022,0,0.1,0,-35.2,7.8,28.1,0.175695059,0.698019349,-0.152165288,0.677266762
285,717346,553490,0.988,0.036,-0.018,0,0,0,-35.2,7.8,28.1,0.175695059,0.698019349,-0.152165288,0.677266762
286,720164,553490,0.981,0.036,-0.026,0,0,0,-35.2,7.8,28.1,0.175664541,0.698049867,-0.152165288,0.677266762
287,721827,553490,0.988,0.048,-0.022,0.1,-0.1,0,-35.2,7.8,28.1,0.175664541,0.698049867,-0.152165288,0.677266762
288,725375,553490,0.988,0.04,-0.022,0.1,-0.1,0,-35.2,7.8,28.1,0.175664541,0.698049867,-0.152165288,0.677236244
289,727003,553500,0.985,0.036,-0.018,0,0,0,-35.2,7.8,28.1,0.175664541,0.698049867,-0.152165288,0.677236244
290,729841,553500,0.988,0.04,-0.022,0,0,0,-35.2,7.8,28.1,0.175664541,0.698049867,-0.152165288,0.677236244
291,732880,553500,0.992,0.036,-0.018,0,0.1,0,-35.2,7.8,28.1,0.175664541,0.698049867,-0.152165288,0.677266762
292,734416,553500,0.992,0.04,-0.018,0,0.1,0,-35.2,7.8,28.1,0.175664541,0.698049867,-0.152165288,0.677266762
293,737463,553510,0.985,0.04,-0.018,0,0.1,0,-35.2,7.8,28.1,0.175664541,0.698049867,-0.152165288,0.677266762
294,740390,553510,0.985,0.032,-0.018,0,0.1,0,-35.2,7.8,28.1,0.175664541,0.698019349,-0.152165288,0.677266762
295,741895,553510,0.985,0.036,-0.018,0,0.1,0,-35.2,7.8,28.1,0.175664541,0.698019349,-0.152165288,0.677266762
296,745043,553510,0.981,0.036,-0.022,0,0.2,0,-35.2,7.8,28.1,0.175664541,0.698019349,-0.152165288,0.677266762
297,747279,553520,0.985,0.036,-0.022,0,0.2,0,-35.2,7.8,28.1,0.175664541,0.698019349,-0.152165288,0.677266762
298,750148,553520,0.988,0.032,-0.018,0,0.1,0,-35.2,7.8,28.1,0.175664541,0.698019349,-0.152165288,0.677266762
299,751878,553520,0.988,0.036,-0.018,-0.1,0,0.1,-35.2,7.8,28.1,0.175664541,0.698019349,-0.152165288,0.677266762
300,755603,553520,0.988,0.044,-0.022,-0.1,-0.1,0,-35.2,7.8,28.1,0.175664541,0.698019349,-0.152195807,0.677266762
301,757226,553530,0.985,0.036,-0.022,-0.1,-0.1,0,-35.2,7.8,28.1,0.175664541,0.698019349,-0.152195807,0.677266762
302,760181,553530,0.985,0.04,-0.014,0,-0.1,0,-35.3,6.7,27,0.175664541,0.698019349,-0.152195807,0.677266762
303,762573,553530,0.988,0.036,-0.018,0,-0.1,0,-35.3,6.7,27,0.175664541,0.698019349,-0.152195807,0.677266762
304,764642,553530,0.988,0.036,-0.022,0,-0.1,0,-35.3,6.7,27,0.175664541,0.698019349,-0.152195807,0.677266762
305,767033,553540,0.988,0.04,-0.018,0,0,0,-35.3,6.7,27,0.175664541,0.698019349,-0.152195807,0.677266762
306,770670,553540,0.985,0.04,-0.018,0,0.1,0,-35.3,6.7,27,0.175664541,0.698019349,-0.152195807,0.677266762
307,772955,553540,0.985,0.04,-0.018,0,0,0,-35.3,6.7,27,0.175695059,0.698019349,-0.152195807,0.677266762
308,775172,553540,0.985,0.04,-0.014,0,0,0,-35.3,6.7,27,0.175695059,0.698019349,-0.152195807,0.677297281
309,777352,553550,0.988,0.036,-0.022,0,0,0,-35.3,6.7,27,0.175695059,0.698019349,-0.152195807,0.677266762
310,779676,553550,0.988,0.032,-0.022,0,0,0,-35.3,6.7,27,0.175695059,0.698019349,-0.152195807,0.677266762
311,781953,553550,0.988,0.032,-0.022,0,0,0,-35.3,6.7,27,0.175695059,0.698019349,-0.152195807,0.677266762
312,784281,553550,0.985,0.036,-0.022,0,0,0,-35.3,6.7,27,0.175664541,0.698019349,-0.152195807,0.677266762
313,786965,553560,0.988,0.04,-0.03,0,0.1,0,-35.3,6.7,27,0.175664541,0.698019349,-0.152195807,0.677297281
314,790105,553560,0.985,0.036,-0.022,0,0.2,0,-35.1,6.8,27.2,0.175664541,0.69798883,-0.152195807,0.677297281
315,792400,553560,0.985,0.036,-0.018,0,0.1,-0.1,-35.1,6.8,27.2,0.175695059,0.69798883,-0.152165288,0.677297281
316,794571,553560,0.988,0.036,-0.022,0,0.1,0,-35.1,6.8,27.2,0.175695059,0.69798883,-0.152165288,0.677297281
317,797264,553570,0.992,0.04,-0.026,0,0,0,-35.1,6.8,27.2,0.175695059,0.69798883,-0.152165288,0.677297281
318,799346,553570,0.988,0.04,-0.018,0,0,0,-35.2,6.9,27.1,0.175695059,0.69798883,-0.152165288,0.677297281
319,801981,553570,0.988,0.036,-0.018,0,0,0,-35.2,6.9,27.1,0.175695059,0.69798883,-0.152195807,0.677297281
320,805341,553570,0.985,0.036,-0.018,0,0,0,-35.2,6.9,27.1,0.175695059,0.69798883,-0.152195807,0.677297281
321,807498,553580,0.985,0.036,-0.018,0,0,0,-35.2,6.9,27.1,0.175695059,0.69798883,-0.152195807,0.677297281
322,809627,553580,0.985,0.036,-0.018,0,0.1,0,-35,5.1,26.9,0.175695059,0.69798883,-0.152195807,0.677297281
323,812103,553580,0.985,0.032,-0.018,0,0.1,0,-35,5.1,26.9,0.175695059,0.69798883,-0.152195807,0.677297281
324,815625,553580,0.985,0.04,-0.022,0,0.2,0.1,-35,5.1,26.9,0.175695059,0.69798883,-0.152195807,0.677297281
325,817855,553590,0.981,0.036,-0.022,0,0.2,0,-35,5.1,26.9,0.175695059,0.69798883,-0.152195807,0.677297281
326,820049,553590,0.988,0.04,-0.014,0,0.1,0,-35.7,6.7,27.1,0.175664541,0.69798883,-0.152195807,0.677297281
327,822239,553590,0.988,0.04,-0.022,0,0.1,-0.1,-35.7,6.7,27.1,0.175664541,0.69798883,-0.152195807,0.677297281
328,824506,553590,0.985,0.036,-0.022,0.1,0.1,-0.2,-35.7,6.7,27.1,0.175664541,0.69798883,-0.152195807,0.677297281
329,827329,553600,0.985,0.036,-0.014,0,0.1,-0.2,-35.7,6.7,27.1,0.175664541,0.69798883,-0.152195807,0.677297281
330,829486,553600,0.981,0.04,-0.022,0,0.1,-0.1,-36.2,6.8,27,0.175664541,0.69798883,-0.152195807,0.677327799
331,832257,553600,0.988,0.04,-0.022,0,0.2,0,-36.2,6.8,27,0.175695059,0.697958312,-0.152195807,0.677327799
332,834595,553600,0.988,0.04,-0.022,0,0.2,0,-36.2,6.8,27,0.175695059,0.697958312,-0.152195807,0.677327799
333,836857,553610,0.988,0.036,-0.014,0,0.2,0.1,-36.2,6.8,27,0.175695059,0.697958312,-0.152195807,0.677327799
334,840262,553610,0.992,0.044,-0.022,0,0.1,0,-37.2,7.4,27.2,0.175695059,0.697958312,-0.152195807,0.677327799
335,841755,553610,0.992,0.04,-0.018,0,0,0,-37.2,7.4,27.2,0.175695059,0.697958312,-0.152195807,0.677327799
336,844778,553610,0.988,0.036,-0.022,0,-0.1,0,-37.2,7.4,27.2,0.175695059,0.697958312,-0.152195807,0.677327799
337,847003,553620,0.985,0.032,-0.022,0.1,-0.1,0,-37.2,7.4,27.2,0.175664541,0.697958312,-0.152195807,0.677327799
338,850041,553620,0.981,0.036,-0.018,0,0,0,-37.7,6.9,27.2,0.175664541,0.697958312,-0.152195807,0.677327799
339,851780,553620,0.985,0.036,-0.018,0,0.1,0,-37.7,6.9,27.2,0.175664541,0.697958312,-0.152195807,0.677327799
340,854546,553620,0.981,0.04,-0.018,0,0.2,0,-37.7,6.9,27.2,0.175664541,0.697958312,-0.152195807,0.677327799
341,857341,553630,0.988,0.04,-0.018,0,0.1,0,-37.7,6.9,27.2,0.175695059,0.697958312,-0.152195807,0.677327799
342,859551,553630,0.988,0.036,-0.022,0,0,0.2,-34,4.9,27,0.175664541,0.697958312,-0.152195807,0.677327799
343,862587,553630,0.988,0.036,-0.022,0,0,0.2,-34,4.9,27,0.175664541,0.697958312,-0.152195807,0.677327799
344,864811,553630,0.988,0.04,-0.018,0,0,0.2,-34,4.9,27,0.175664541,0.697958312,-0.152195807,0.677327799
345,867063,553640,0.985,0.036,-0.018,0,0,0,-34,4.9,27,0.175664541,0.697958312,-0.152195807,0.677327799
346,869821,553640,0.985,0.036,-0.018,0,0,0,-37,6.8,27,0.175664541,0.697958312,-0.152195807,0.677327799
347,872107,553640,0.988,0.04,-0.018,0,0,0,-37,6.8,27,0.175664541,0.697958312,-0.152195807,0.677327799
348,874332,553640,0.985,0.04,-0.018,0.1,0.1,0,-37,6.8,27,0.175664541,0.697958312,-0.152195807,0.677327799
349,876773,553650,0.985,0.036,-0.018,0.1,0.2,0,-37,6.8,27,0.175664541,0.697958312,-0.152195807,0.677327799
350,879338,553650,0.988,0.036,-0.014,0,0.1,0,-36.3,7.1,27.2,0.175664541,0.697958312,-0.152195807,0.677358318
351,882615,553650,0.985,0.032,-0.014,0,0,0,-36.3,7.1,27.2,0.175664541,0.697958312,-0.152195807,0.677358318
352,884342,553650,0.985,0.036,-0.022,-0.1,0,0,-36.3,7.1,27.2,0.175664541,0.697958312,-0.152195807,0.677358318
353,886904,553660,0.981,0.036,-0.018,0,0,0.2,-36.3,7.1,27.2,0.175664541,0.697958312,-0.152195807,0.677358318
354,889952,553660,0.985,0.036,-0.018,0,0,0.2,-35.8,7.3,26.8,0.175664541,0.697958312,-0.152195807,0.677358318
355,892747,553660,0.981,0.036,-0.03,0,0,0.1,-35.8,7.3,26.8,0.175634022,0.697958312,-0.152195807,0.677358318
356,895635,553660,0.985,0.036,-0.018,0,-0.1,0,-35.8,7.3,26.8,0.175634022,0.697958312,-0.152195807,0.677358318
357,896982,553670,0.985,0.04,-0.022,0,-0.1,0,-35.8,7.3,26.8,0.175634022,0.697958312,-0.152195807,0.677327799
358,899981,553670,0.985,0.04,-0.014,0,0,0,-35.2,7.1,27.3,0.175634022,0.697958312,-0.152195807,0.677327799
359,903220,553670,0.988,0.036,-0.022,0,0,0,-35.2,7.1,27.3,0.175664541,0.697958312,-0.152195807,0.677327799
360,904650,553670,0.992,0.036,-0.022,-0.1,0,0,-35.2,7.1,27.3,0.175664541,0.697958312,-0.152195807,0.677327799
361,907754,553680,0.988,0.036,-0.022,-0.1,0,0,-35.2,7.1,27.3,0.175664541,0.697958312,-0.152195807,0.677327799
362,910598,553680,0.985,0.036,-0.026,0,-0.1,0,-35,5.8,27,0.175664541,0.697958312,-0.152195807,0.677327799
363,912108,553680,0.985,0.036,-0.026,0,-0.1,0,-35,5.8,27,0.175664541,0.697958312,-0.152195807,0.677327799
364,915355,553680,0.985,0.04,-0.022,0,-0.1,0,-35,5.8,27,0.175664541,0.697958312,-0.152195807,0.677327799
365,917441,553690,0.985,0.036,-0.022,0,-0.1,0,-35,5.8,27,0.175664541,0.697958312,-0.152195807,0.677327799
366,919573,553690,0.985,0.04,-0.018,0,0,0,-35.4,6,27.1,0.175634022,0.69798883,-0.152226325,0.677297281
367,922711,553690,0.985,0.04,-0.018,0,0,0,-35.4,6,27.1,0.175634022,0.69798883,-0.152226325,0.677297281
368,925785,553690,0.985,0.04,-0.022,0,0,0,-35.4,6,27.1,0.175634022,0.69798883,-0.152226325,0.677297281
369,928133,553700,0.985,0.04,-0.018,0,0,0,-35.4,6,27.1,0.175634022,0.69798883,-0.152226325,0.677297281
370,930443,553700,0.985,0.036,-0.018,0,0.1,0,-35.4,6,27,0.175634022,0.69798883,-0.152226325,0.677297281
371,932820,553700,0.985,0.04,-0.018,0,0,-0.2,-35.4,6,27,0.175664541,0.69798883,-0.152226325,0.677297281
372,934530,553700,0.988,0.04,-0.018,0,0,-0.1,-35.4,6,27,0.175664541,0.69798883,-0.152226325,0.677297281
373,937054,553710,0.988,0.04,-0.022,-0.1,-0.1,0,-35.4,6,27,0.175664541,0.69798883,-0.152226325,0.677297281
374,939424,553710,0.988,0.036,-0.018,-0.1,-0.1,0,-35.3,5.8,26.7,0.175664541,0.69798883,-0.152226325,0.677297281
375,941826,553710,0.988,0.04,-0.026,-0.1,-0.1,0.1,-35.3,5.8,26.7,0.175664541,0.69798883,-0.152226325,0.677266762
376,944869,553710,0.988,0.044,-0.018,0,0,0.1,-35.3,5.8,26.7,0.175664541,0.69798883,-0.152226325,0.677266762
377,947085,553720,0.985,0.04,-0.014,0,0,0,-35.3,5.8,26.7,0.175664541,0.698019349,-0.152226325,0.677266762
378,949321,553720,0.985,0.036,-0.018,0,0,0,-35,6,27.1,0.175664541,0.698019349,-0.152226325,0.677266762
379,951939,553720,0.988,0.04,-0.022,0,0,0,-35,6,27.1,0.175664541,0.698019349,-0.152226325,0.677266762
380,956145,553720,0.988,0.04,-0.018,0,0,0,-35,6,27.1,0.175664541,0.698019349,-0.152226325,0.677266762
381,958428,553730,0.985,0.04,-0.018,0,-0.1,0,-35,6,27.1,0.175664541,0.698019349,-0.152256844,0.677266762
382,960627,553730,0.992,0.036,-0.018,0,-0.1,0,-36.2,6.1,27,0.175664541,0.698019349,-0.152256844,0.677266762
383,962850,553730,0.985,0.04,-0.026,0,-0.3,0,-36.2,6.1,27,0.175634022,0.698019349,-0.152256844,0.677266762
384,965125,553730,0.988,0.04,-0.018,0,-0.2,0,-36.2,6.1,27,0.175634022,0.698019349,-0.152256844,0.677266762
385,967396,553740,0.985,0.044,-0.018,0.1,-0.1,0,-36.2,6.1,27,0.175634022,0.698019349,-0.152256844,0.677266762
386,969558,553740,0.988,0.04,-0.018,0.1,0,0,-33.9,5.7,26.7,0.175664541,0.698019349,-0.152226325,0.677266762
387,972306,553740,0.988,0.044,-0.022,0.1,0.1,0,-33.9,5.7,26.7,0.175664541,0.698019349,-0.152226325,0.677266762
388,975392,553740,0.985,0.036,-0.018,0,0.2,0,-33.9,5.7,26.7,0.175664541,0.698019349,-0.152226325,0.677266762
389,977735,553750,0.988,0.036,-0.018,0,0.2,0.1,-33.9,5.7,26.7,0.175664541,0.698019349,-0.152226325,0.677266762
390,980022,553750,0.985,0.04,-0.022,0,0.2,0.2,-34.2,6.1,26.7,0.175664541,0.698019349,-0.152226325,0.677266762
391,982170,553750,0.981,0.04,-0.022,0,0.2,0.1,-34.2,6.1,26.7,0.175664541,0.698019349,-0.152226325,0.677266762
392,984798,553750,0.985,0.036,-0.022,0,0.2,0,-34.2,6.1,26.7,0.175664541,0.69798883,-0.152226325,0.677297281
393,987200,553760,0.985,0.04,-0.018,0,0.1,0,-34.2,6.1,26.7,0.175664541,0.69798883,-0.152226325,0.677297281
394,989486,553760,0.985,0.036,-0.022,0.1,0,0,-33.8,5.8,26.8,0.175664541,0.69798883,-0.152226325,0.677297281
395,992049,553760,0.985,0.036,-0.014,0.1,0,0,-33.8,5.8,26.8,0.175664541,0.69798883,-0.152226325,0.677297281
396,995166,553760,0.988,0.036,-0.018,0.1,0,0.1,-33.8,5.8,26.8,0.175664541,0.69798883,-0.152226325,0.677297281
397,997466,553770,0.985,0.036,-0.018,0,0,0,-33.8,5.8,26.8,0.175664541,0.69798883,-0.152226325,0.677297281
398,999333,553770,0.988,0.04,-0.018,0,0,0,-34,5.5,26.7,0.175634022,0.69798883,-0.152226325,0.677297281
399,1001795,553770,0.988,0.036,-0.018,0,0,0,-34,5.5,26.7,0.175634022,0.69798883,-0.152226325,0.677297281
400,1004423,553770,0.981,0.04,-0.022,0.1,0.1,0,-34,5.5,26.7,0.175634022,0.69798883,-0.152226325,0.677297281
401,1008575,553780,0.988,0.036,-0.018,0.1,0.1,0,-34,5.5,26.7,0.175634022,0.69798883,-0.152226325,0.677297281
402,1010790,553780,0.981,0.036,-0.022,0.1,0.1,0,-36.3,5.9,26.9,0.175634022,0.69798883,-0.152226325,0.677297281
403,1012368,553780,0.981,0.036,-0.022,0,0.1,0,-36.3,5.9,26.9,0.175634022,0.69798883,-0.152226325,0.677297281
404,1014530,553780,0.981,0.04,-0.018,0,0,0,-36.3,5.9,26.9,0.175634022,0.69798883,-0.152226325,0.677297281
405,1017827,553790,0.988,0.04,-0.018,0,0,0,-36.3,5.9,26.9,0.175634022,0.69798883,-0.152226325,0.677297281
406,1020027,553790,0.981,0.036,-0.022,0,0,0,-34.1,5.7,27.2,0.175664541,0.69798883,-0.152226325,0.677297281
407,1022326,553790,0.988,0.032,-0.026,0,0,0,-34.1,5.7,27.2,0.175664541,0.69798883,-0.152226325,0.677297281
408,1024581,553790,0.988,0.04,-0.026,0,-0.1,0,-34.1,5.7,27.2,0.175664541,0.69798883,-0.152226325,0.677297281
409,1027286,553800,0.988,0.036,-0.018,0,-0.1,0,-34.1,5.7,27.2,0.175664541,0.69798883,-0.152226325,0.677297281
410,1029271,553800,0.988,0.036,-0.018,0,-0.1,0,-34.4,5.7,27.2,0.175664541,0.698019349,-0.152226325,0.677297281
411,1032089,553800,0.988,0.04,-0.022,0,-0.1,0,-34.4,5.7,27.2,0.175664541,0.698019349,-0.152226325,0.677297281
412,1035063,553800,0.988,0.036,-0.022,0,0,0,-34.4,5.7,27.2,0.175664541,0.698019349,-0.152226325,0.677266762
413,1037476,553810,0.988,0.036,-0.014,0,0,0,-34.4,5.7,27.2,0.175664541,0.698019349,-0.152226325,0.677297281
414,1039615,553810,0.988,0.04,-0.014,0,0.1,0,-34.2,6,27.3,0.175664541,0.698019349,-0.152195807,0.677297281
415,1042688,553810,0.985,0.032,-0.022,0,0.2,0,-34.2,6,27.3,0.175664541,0.69798883,-0.152195807,0.677297281
416,1044809,553810,0.981,0.04,-0.018,0,0.2,0,-34.2,6,27.3,0.175664541,0.69798883,-0.152195807,0.677297281
417,1047862,553820,0.985,0.04,-0.022,0,0.2,0,-34.2,6,27.3,0.175664541,0.69798883,-0.152195807,0.677297281
418,1049318,553820,0.988,0.04,-0.022,0,0.1,0,-33.9,6,27.2,0.175664541,0.69798883,-0.152226325,0.677297281
419,1052410,553820,0.985,0.04,-0.022,0,0,0,-33.9,6,27.2,0.175664541,0.69798883,-0.152195807,0.677297281
420,1054576,553820,0.988,0.04,-0.022,0,0,0,-33.9,6,27.2,0.175664541,0.69798883,-0.152195807,0.677297281
421,1057909,553830,0.988,0.04,-0.018,0,0,0,-33.9,6,27.2,0.175664541,0.69798883,-0.152195807,0.677297281
422,1059402,553830,0.988,0.036,-0.022,0,0.1,0.1,-35.2,5.7,27,0.175664541,0.69798883,-0.152226325,0.677297281
423,1062701,553830,0.988,0.036,-0.018,0,0.1,0.1,-35.2,5.7,27,0.175664541,0.69798883,-0.152226325,0.677297281
424,1064944,553830,0.985,0.04,-0.018,0,0.1,0,-35.2,5.7,27,0.175634022,0.69798883,-0.152226325,0.677297281
425,1067395,553840,0.988,0.032,-0.018,0,-0.1,0,-35.2,5.7,27,0.175634022,0.69798883,-0.152226325,0.677297281
426,1069614,553840,0.988,0.036,-0.018,0,0.1,0,-35,5.8,27.3,0.175634022,0.69798883,-0.152226325,0.677327799
427,1071826,553840,0.988,0.036,-0.018,0,0.1,0,-35,5.8,27.3,0.175634022,0.697958312,-0.152226325,0.677327799
428,1075581,553840,0.985,0.04,-0.018,0,0.2,0,-35,5.8,27.3,0.175634022,0.697958312,-0.152226325,0.677327799
429,1077859,553850,0.988,0.036,-0.018,0,0.2,0,-35,5.8,27.3,0.175634022,0.697958312,-0.152226325,0.677327799
430,1080189,553850,0.988,0.036,-0.014,0,0.1,0,-35.3,6.1,27.4,0.175634022,0.697958312,-0.152226325,0.677327799
431,1082405,553850,0.985,0.036,-0.022,0,0.1,0.1,-35.3,6.1,27.4,0.175634022,0.697958312,-0.152226325,0.677327799
432,1085592,553850,0.988,0.036,-0.018,0,0.1,0.1,-35.3,6.1,27.4,0.175634022,0.697958312,-0.152226325,0.677327799
433,1087836,553860,0.985,0.04,-0.018,0,0.1,0,-35.3,6.1,27.4,0.175634022,0.697958312,-0.152226325,0.677327799
434,1090210,553860,0.985,0.04,-0.026,0,0,0,-35.4,6.2,27.9,0.175634022,0.697958312,-0.152226325,0.677327799
435,1092503,553860,0.988,0.04,-0.018,0,0,0,-35.4,6.2,27.9,0.175634022,0.697958312,-0.152226325,0.677327799
436,1095587,553860,0.985,0.036,-0.022,0,0,0,-35.4,6.2,27.9,0.175634022,0.697958312,-0.152226325,0.677327799
437,1097160,553870,0.981,0.036,-0.018,0,0,0.1,-35.4,6.2,27.9,0.175634022,0.697958312,-0.152226325,0.677327799
438,1099479,553870,0.988,0.036,-0.018,0,0,0,-34.9,5.7,28.7,0.175634022,0.697958312,-0.152226325,0.677327799
439,1101969,553870,0.988,0.036,-0.014,0,0,0,-34.9,5.7,28.7,0.175634022,0.697958312,-0.152226325,0.677327799
440,1105376,553870,0.988,0.04,-0.018,0,0,0,-34.9,5.7,28.7,0.175634022,0.697958312,-0.152226325,0.677327799
441,1107053,553880,0.988,0.036,-0.018,0,0,0,-34.9,5.7,28.7,0.175634022,0.697958312,-0.152226325,0.677327799
442,1109443,553880,0.985,0.04,-0.022,0,0,0,-35.3,6,25.7,0.175634022,0.697958312,-0.152226325,0.677327799
443,1111902,553880,0.988,0.036,-0.022,0,0,0,-35.3,6,25.7,0.175634022,0.697958312,-0.152226325,0.677327799
444,1115417,553880,0.985,0.036,-0.022,0,0.1,0,-35.3,6,25.7,0.175634022,0.697958312,-0.152226325,0.677327799
445,1117636,553890,0.981,0.036,-0.022,0,0,0,-35.3,6,25.7,0.175634022,0.697958312,-0.152226325,0.677358318
446,1119916,553890,0.988,0.036,-0.022,0,0,0,-35.1,6.1,27.9,0.175634022,0.697958312,-0.152226325,0.677327799
447,1122107,553890,0.988,0.036,-0.022,0,0,0,-35.1,6.1,27.9,0.175634022,0.697958312,-0.152226325,0.677327799
448,1124425,553890,0.985,0.036,-0.022,0,0,0,-35.1,6.1,27.9,0.175603504,0.697958312,-0.152226325,0.677327799
449,1126936,553900,0.988,0.036,-0.022,0,-0.1,0,-35.1,6.1,27.9,0.175603504,0.69798883,-0.152226325,0.677327799
450,1130422,553900,0.988,0.04,-0.022,0,-0.1,0,-34.7,6.1,27.8,0.175603504,0.69798883,-0.152226325,0.677327799
451,1132196,553900,0.988,0.044,-0.022,0,-0.1,0,-34.7,6.1,27.8,0.175634022,0.69798883,-0.152226325,0.677327799
452,1134557,553900,0.988,0.036,-0.018,0,-0.1,0,-34.7,6.1,27.8,0.175603504,0.69798883,-0.152226325,0.677297281
453,1137733,553910,0.988,0.036,-0.018,0.1,-0.1,0,-34.7,6.1,27.8,0.175603504,0.69798883,-0.152226325,0.677297281
454,1139465,553910,0.988,0.036,-0.022,0.1,0,0,-35.2,6,27.3,0.175603504,0.69798883,-0.152226325,0.677297281
455,1142095,553910,0.985,0.04,-0.022,0.1,0,0,-35.2,6,27.3,0.175603504,0.69798883,-0.152226325,0.677297281
456,1145475,553910,0.988,0.036,-0.018,0,0.1,0,-35.2,6,27.3,0.175603504,0.69798883,-0.152226325,0.677327799
457,1147063,553920,0.988,0.044,-0.022,0,0.1,0,-35.2,6,27.3,0.175603504,0.69798883,-0.152226325,0.677327799
458,1149402,553920,0.988,0.036,-0.022,0,0.1,0,-35.2,6,27.4,0.175603504,0.69798883,-0.152226325,0.677327799
459,1151926,553920,0.988,0.04,-0.022,0,0,0,-35.2,6,27.4,0.175603504,0.69798883,-0.152226325,0.677327799
460,1155297,553920,0.985,0.036,-0.026,0,0,0,-35.2,6,27.4,0.175603504,0.69798883,-0.152226325,0.677327799
461,1157622,553930,0.985,0.036,-0.022,0,0,0,-35.2,6,27.4,0.175603504,0.69798883,-0.152226325,0.677327799
462,1159699,553930,0.985,0.044,-0.018,0,-0.1,0,-35.4,6.1,26,0.175603504,0.69798883,-0.152226325,0.677327799
463,1162047,553930,0.988,0.04,-0.018,0,0,0,-35.4,6.1,26,0.175603504,0.69798883,-0.152226325,0.677327799
464,1164429,553930,0.992,0.04,-0.018,0,0,0,-35.4,6.1,26,0.175603504,0.69798883,-0.152226325,0.677297281
465,1166935,553940,0.985,0.036,-0.022,0,0,0,-35.4,6.1,26,0.175603504,0.69798883,-0.152226325,0.677297281
466,1170414,553940,0.988,0.04,-0.018,0,0.1,0,-34.8,6.5,26.9,0.175634022,0.69798883,-0.152195807,0.677327799
467,1172326,553940,0.988,0.036,-0.022,0,0.1,0,-34.8,6.5,26.9,0.175634022,0.69798883,-0.152195807,0.677327799
468,1175672,553940,0.985,0.036,-0.022,0.1,0.1,0,-34.8,6.5,26.9,0.175634022,0.69798883,-0.152195807,0.677327799
469,1176884,553950,0.985,0.036,-0.022,0,0.2,0.1,-34.8,6.5,26.9,0.175634022,0.697958312,-0.152195807,0.677327799
470,1180311,553950,0.985,0.036,-0.022,0.1,0.2,0.1,-35.3,6,26.1,0.175634022,0.697958312,-0.152195807,0.677327799
471,1182579,553950,0.981,0.033,-0.018,0,0,0,-35.3,6,26.1,0.175634022,0.697958312,-0.152195807,0.677327799
472,1185225,553950,0.985,0.04,-0.022,0,-0.1,0,-35.3,6,26.1,0.175634022,0.697958312,-0.152195807,0.677327799
473,1187518,553960,0.981,0.04,-0.014,0,-0.1,0,-35.3,6,26.1,0.175634022,0.69798883,-0.152195807,0.677327799
474,1189578,553960,0.985,0.036,-0.018,0,-0.1,0,-35.1,6.4,26.1,0.175634022,0.69798883,-0.152195807,0.677327799
475,1191833,553960,0.985,0.036,-0.014,0,0,0,-35.1,6.4,26.1,0.175634022,0.69798883,-0.152195807,0.677327799
476,1194313,553960,0.988,0.04,-0.022,0,0,0,-35.1,6.4,26.1,0.175634022,0.69798883,-0.152195807,0.677327799
477,1196860,553970,0.988,0.04,-0.018,0,0,-0.1,-35.1,6.4,26.1,0.175634022,0.69798883,-0.152195807,0.677327799
478,1200134,553970,0.985,0.04,-0.014,0,-0.1,-0.1,-35.5,5.9,26.2,0.175634022,0.69798883,-0.152195807,0.677327799
479,1202307,553970,0.988,0.036,-0.018,0,-0.1,-0.1,-35.5,5.9,26.2,0.175634022,0.69798883,-0.152195807,0.677327799
480,1205439,553970,0.988,0.036,-0.026,0,-0.2,-0.1,-35.5,5.9,26.2,0.175634022,0.69798883,-0.152195807,0.677297281
481,1207038,553980,0.985,0.04,-0.022,0,-0.3,-0.1,-35.5,5.9,26.2,0.175634022,0.69798883,-0.152195807,0.677297281
482,1210252,553980,0.985,0.04,-0.022,0,-0.3,0,-35.1,6.2,27.5,0.175634022,0.69798883,-0.152195807,0.677297281
483,1212563,553980,0.985,0.036,-0.022,0,-0.1,0,-35.1,6.2,27.5,0.175634022,0.69798883,-0.152195807,0.677297281
484,1215603,553980,0.988,0.04,-0.026,0,0,0,-35.1,6.2,27.5,0.175634022,0.69798883,-0.152195807,0.677297281
485,1217834,553990,0.988,0.04,-0.022,0,0.1,0,-35.1,6.2,27.5,0.175634022,0.69798883,-0.152195807,0.677297281
486,1220102,553990,0.985,0.036,-0.03,0,0.2,0,-35.3,5.7,26.7,0.175664541,0.698019349,-0.152195807,0.677266762
487,1222537,553990,0.985,0.036,-0.03,0,0.2,0,-35.3,5.7,26.7,0.175664541,0.698019349,-0.152195807,0.677266762
488,1224628,553990,0.985,0.04,-0.022,0,0.2,0,-35.3,5.7,26.7,0.175664541,0.698019349,-0.152195807,0.677266762
489,1226834,554000,0.985,0.04,-0.018,0,0,0,-35.3,5.7,26.7,0.175664541,0.698019349,-0.152195807,0.677266762
490,1229252,554000,0.985,0.036,-0.022,0,0,0,-35.6,5.5,26.7,0.175664541,0.698019349,-0.152165288,0.677266762
491,1231973,554000,0.985,0.04,-0.018,0,0,-0.1,-35.6,5.5,26.7,0.175664541,0.698019349,-0.152165288,0.677266762
492,1234783,554000,0.985,0.036,-0.018,0,0,0,-35.6,5.5,26.7,0.175664541,0.698019349,-0.152165288,0.677266762
493,1237061,554010,0.992,0.04,-0.014,0,-0.1,0,-35.6,5.5,26.7,0.175664541,0.698019349,-0.152165288,0.677266762
494,1239352,554010,0.988,0.032,-0.022,0,-0.1,0,-35.6,4.8,26.7,0.175664541,0.698019349,-0.152165288,0.677266762
495,1241817,554010,0.988,0.04,-0.022,0.1,-0.1,0,-35.6,4.8,26.7,0.175664541,0.698019349,-0.152165288,0.677266762
496,1245360,554010,0.985,0.036,-0.018,0,-0.1,-0.1,-35.6,4.8,26.7,0.175664541,0.698019349,-0.152165288,0.677266762
497,1246881,554020,0.988,0.036,-0.022,0,-0.1,-0.1,-35.6,4.8,26.7,0.175664541,0.698019349,-0.152165288,0.677266762
498,1249877,554020,0.981,0.036,-0.026,0,0,0,-35.3,4.1,26.8,0.175664541,0.698019349,-0.152165288,0.677266762
499,1252215,554020,0.977,0.036,-0.022,0,0.1,0,-35.3,4.1,26.8,0.175664541,0.698019349,-0.152165288,0.677266762
500,1254487,554020,0.988,0.04,-0.022,0,0.1,0,-35.3,4.1,26.8,0.175664541,0.698019349,-0.152165288,0.677266762
501,1256830,554030,0.988,0.036,-0.018,0,0,0,-35.3,4.1,26.8,0.175664541,0.698019349,-0.152165288,0.677266762
502,1259621,554030,0.985,0.032,-0.022,0,-0.1,0,-35.5,7.7,28.2,0.175664541,0.698019349,-0.152165288,0.677266762
503,1261942,554030,0.988,0.036,-0.018,-0.1,-0.1,0,-35.5,7.7,28.2,0.175664541,0.698049867,-0.152165288,0.677266762
504,1265630,554030,0.988,0.036,-0.022,0,-0.2,0,-35.5,7.7,28.2,0.175664541,0.698049867,-0.152165288,0.677266762
505,1267106,554040,0.988,0.036,-0.018,0,-0.2,0,-35.5,7.7,28.2,0.175664541,0.698049867,-0.152165288,0.677266762
506,1270330,554040,0.988,0.036,-0.018,0,-0.1,0,-35.3,5,26,0.175634022,0.698049867,-0.152195807,0.677266762
507,1272593,554040,0.988,0.04,-0.022,0,-0.1,0,-35.3,5,26,0.175634022,0.698049867,-0.152195807,0.677266762
508,1274742,554040,0.992,0.044,-0.022,0,0,0,-35.3,5,26,0.175634022,0.698049867,-0.152195807,0.677266762
509,1278638,554050,0.988,0.044,-0.022,0,0,0,-35.3,5,26,0.175634022,0.698049867,-0.152195807,0.677266762
510,1280000,554050,0.988,0.036,-0.014,0,0.1,0,-35.2,5.2,26,0.175634022,0.698049867,-0.152195807,0.677266762
511,1281825,554050,0.988,0.036,-0.018,0,0,0,-35.2,5.2,26,0.175634022,0.698049867,-0.152195807,0.677266762
512,1285281,554050,0.981,0.04,-0.018,0,0,0,-35.2,5.2,26,0.175634022,0.698049867,-0.152195807,0.677266762
513,1287013,554060,0.985,0.036,-0.022,0,0,0,-35.2,5.2,26,0.175634022,0.698049867,-0.152195807,0.677266762
514,1289916,554060,0.981,0.036,-0.026,0,0.1,0,-35.5,5.3,26,0.175634022,0.698019349,-0.152195807,0.677266762
515,1292380,554060,0.985,0.036,-0.014,0,0.2,0.1,-35.5,5.3,26,0.175634022,0.698019349,-0.152195807,0.677266762
516,1294650,554060,0.985,0.036,-0.018,0,0.2,0.1,-35.5,5.3,26,0.175634022,0.698019349,-0.152195807,0.677266762
517,1296796,554070,0.988,0.04,-0.022,0,0.2,0.1,-35.5,5.3,26,0.175634022,0.698019349,-0.152195807,0.677266762
518,1300370,554070,0.992,0.036,-0.022,0,0,0,-35.2,5.5,25.7,0.175634022,0.698019349,-0.152195807,0.677266762
519,1302628,554070,0.992,0.044,-0.015,-0.1,-0.1,0,-35.2,5.5,25.7,0.175634022,0.698019349,-0.152226325,0.677266762
520,1304923,554070,0.985,0.04,-0.018,-0.1,-0.2,0,-35.2,5.5,25.7,0.175634022,0.698019349,-0.152226325,0.677266762
521,1307169,554080,0.988,0.036,-0.018,0,-0.3,0,-35.2,5.5,25.7,0.175634022,0.698019349,-0.152226325,0.677266762
522,1309453,554080,0.988,0.036,-0.022,0,-0.2,0,-35.5,6.9,27.2,0.175634022,0.698019349,-0.152226325,0.677266762
523,1312091,554080,0.988,0.04,-0.022,0.1,-0.1,0,-35.5,6.9,27.2,0.175634022,0.698049867,-0.152226325,0.677266762
524,1315441,554080,0.985,0.04,-0.022,0,0,0,-35.5,6.9,27.2,0.175634022,0.698049867,-0.152226325,0.677266762
525,1317115,554090,0.981,0.04,-0.018,0,0.1,0,-35.5,6.9,27.2,0.175634022,0.698049867,-0.152226325,0.677266762
526,1319383,554090,0.985,0.036,-0.022,0,0.3,0,-35.5,6.1,26.9,0.175634022,0.698049867,-0.152195807,0.677236244
527,1322624,554090,0.985,0.036,-0.014,0,0.3,0,-35.5,6.1,26.9,0.175634022,0.698049867,-0.152195807,0.677266762
528,1324463,554090,0.985,0.036,-0.018,0,0.2,0,-35.5,6.1,26.9,0.175634022,0.698019349,-0.152195807,0.677266762
529,1327127,554100,0.985,0.04,-0.018,0,0.2,0.1,-35.5,6.1,26.9,0.175634022,0.698019349,-0.152195807,0.677266762
530,1330506,554100,0.988,0.036,-0.022,0,0.1,0.2,-35.5,6.5,26.5,0.175634022,0.698019349,-0.152195807,0.677266762
531,1332715,554100,0.988,0.036,-0.022,0,0.1,0.1,-35.5,6.5,26.5,0.175634022,0.698019349,-0.152226325,0.677266762
532,1335044,554100,0.988,0.036,-0.022,0,0,0,-35.5,6.5,26.5,0.175634022,0.698019349,-0.152226325,0.677266762
533,1337338,554110,0.985,0.044,-0.022,0,0,0,-35.5,6.5,26.5,0.175634022,0.698019349,-0.152226325,0.677266762
534,1339499,554110,0.985,0.04,-0.022,0,0,0,-35.6,6.5,26.8,0.175634022,0.698019349,-0.152226325,0.677266762
535,1341817,554110,0.985,0.036,-0.018,0,-0.1,0,-35.6,6.5,26.8,0.175634022,0.698019349,-0.152226325,0.677266762
536,1345549,554110,0.985,0.04,-0.022,0,-0.2,0,-35.6,6.5,26.8,0.175634022,0.698019349,-0.152226325,0.677266762
537,1347181,554120,0.985,0.04,-0.018,0,-0.2,0,-35.6,6.5,26.8,0.175634022,0.698019349,-0.152226325,0.677266762
538,1349531,554120,0.988,0.04,-0.018,0,-0.1,0,-35.5,6.6,27.1,0.175634022,0.698049867,-0.152226325,0.677266762
539,1352604,554120,0.985,0.04,-0.026,0.1,-0.1,0,-35.5,6.6,27.1,0.175634022,0.698049867,-0.152226325,0.677266762
540,1354739,554120,0.988,0.04,-0.022,0,-0.1,0,-35.5,6.6,27.1,0.175634022,0.698049867,-0.152195807,0.677236244
541,1356964,554130,0.981,0.036,-0.022,0,0,0,-35.5,6.6,27.1,0.175634022,0.698049867,-0.152195807,0.677236244
542,1360018,554130,0.988,0.04,-0.014,0,0,-0.1,-35.2,5.1,27,0.175634022,0.698049867,-0.152195807,0.677236244
543,1362333,554130,0.985,0.036,-0.022,0,0,0,-35.2,5.1,27,0.175634022,0.698049867,-0.152195807,0.677236244
544,1364677,554130,0.985,0.036,-0.022,0,0,0,-35.2,5.1,27,0.175634022,0.698049867,-0.152195807,0.677236244
545,1366832,554140,0.981,0.04,-0.018,0,0,0,-35.2,5.1,27,0.175634022,0.698049867,-0.152195807,0.677236244
546,1369918,554140,0.988,0.036,-0.018,0,0,0.1,-35.2,6.6,27,0.175634022,0.698019349,-0.152195807,0.677266762
547,1372013,554140,0.988,0.036,-0.018,0,0,0.1,-35.2,6.6,27,0.175634022,0.698019349,-0.152195807,0.677266762
548,1375482,554140,0.988,0.036,-0.026,0,0,0,-35.2,6.6,27,0.175634022,0.698019349,-0.152195807,0.677266762
549,1377778,554150,0.985,0.036,-0.014,0,0,0,-35.2,6.6,27,0.175634022,0.698019349,-0.152195807,0.677266762
550,1380016,554150,0.985,0.04,-0.022,0,0,0,-36,7.1,27.2,0.175634022,0.698019349,-0.152195807,0.677266762
551,1382270,554150,0.985,0.036,-0.018,0,0,0,-36,7.1,27.2,0.175634022,0.698019349,-0.152195807,0.677266762
552,1384488,554150,0.988,0.04,-0.018,0,0,0,-36,7.1,27.2,0.175634022,0.698019349,-0.152195807,0.677266762
553,1387716,554160,0.988,0.036,-0.018,0,0,0,-36,7.1,27.2,0.175634022,0.698019349,-0.152195807,0.677266762
554,1389946,554160,0.985,0.036,-0.022,0,0,0,-36.8,6.7,27.3,0.175634022,0.698019349,-0.152195807,0.677266762
555,1392173,554160,0.985,0.04,-0.022,0,0,0,-36.8,6.7,27.3,0.175634022,0.698019349,-0.152195807,0.677266762
556,1394469,554160,0.985,0.04,-0.022,0,0,0,-36.8,6.7,27.3,0.175634022,0.698019349,-0.152195807,0.677266762
557,1396957,554170,0.985,0.04,-0.022,0,-0.1,0,-36.8,6.7,27.3,0.175634022,0.698019349,-0.152195807,0.677266762
558,1399285,554170,0.988,0.036,-0.018,0,0,0,-37.5,6.5,27.5,0.175634022,0.698019349,-0.152226325,0.677266762
559,1403521,554170,-4.42,-3.071,-0.951,0,0.1,0,-37.5,6.5,27.5,0.175634022,0.698019349,-0.152195807,0.677266762
560,1405123,554170,4.263,-3.588,-8.108,-8.2,47.3,4.4,-37.5,6.5,27.5,0.175847652,0.697286905,-0.152226325,0.677968688
561,1406858,554180,5.538,-2.343,-8.152,-23.5,195.8,8.9,-37.5,6.5,27.5,0.176732688,0.694265572,-0.151951659,0.680898465
562,1409668,554180,7.449,6.259,-8.236,16.5,298.3,4.4,-35.6,4.8,26.2,0.177404096,0.689870907,-0.150608844,0.685476241
563,1412623,554180,5.62,8.002,4.326,138.1,232.6,-15.3,-35.6,4.8,26.2,0.176305429,0.686971648,-0.147434919,0.689352092
564,1415754,554180,3.191,4.44,7.946,246.9,23.9,-38.1,-35.6,4.8,26.2,0.173253578,0.687673574,-0.143040254,0.690359203
565,1417336,554190,2.078,-8.083,7.937,163.3,-109.9,-37.7,-35.6,4.8,26.2,0.171025727,0.690054018,-0.140415662,0.689077425
566,1419646,554190,-3.775,5.99,8.163,-41.5,-81.7,-13.7,-37.6,8.9,27,0.171605579,0.691152684,-0.141148106,0.687643056
567,1422051,554190,-2.207,0.449,5.166,-186,33.7,8.9,-37.6,8.9,27,0.174382763,0.689931944,-0.143955809,0.687612537
568,1425541,554190,0.625,-4.388,-6.843,-179.8,91.2,10.6,-37.6,8.9,27,0.177220985,0.687826167,-0.146458327,0.688467055
569,1427812,554200,0.05,0.567,1.161,-111.3,66.5,-6.8,-37.6,8.9,27,0.179204688,0.686422315,-0.147770623,0.689077425
570,1429357,554200,0.84,-2.635,-3.677,-55.7,-16,-23.2,-37.2,7.2,27.6,0.180333872,0.686513871,-0.148319956,0.688558611
571,1431851,554200,-0.575,-3.109,-2.801,-7.5,-56,-28.8,-37.2,7.2,27.6,0.180700095,0.687429426,-0.148228401,0.687582018
572,1435283,554200,-1.159,-1.85,-0.372,28.8,-30.2,-22.3,-37.2,7.2,27.6,0.180486465,0.688070315,-0.147587512,0.687124241
573,1437537,554210,0.183,-3.76,1.631,33.3,14.2,-7.9,-37.2,7.2,27.6,0.18018128,0.688009278,-0.146885586,0.687429426
574,1439821,554210,0.791,-2.014,2.731,17.7,29.3,6,-37.2,8.1,27.7,0.179906613,0.687612537,-0.14661092,0.687948241
575,1442039,554210,1.222,1.195,3.124,1,2.6,14.1,-37.2,8.1,27.7,0.179692984,0.687520981,-0.146794031,0.688039796
576,1445047,554210,0.658,0.464,-0.362,-1.5,-33.1,14.5,-37.2,8.1,27.7,0.179387799,0.687978759,-0.147160253,0.687612537
577,1447333,554220,0.901,0.079,-0.936,11,-43.2,9.6,-37.2,8.1,27.7,0.178930021,0.688650166,-0.147312845,0.687032685
578,1449586,554220,1.354,0.512,-0.591,20.7,-29,4,-36.1,8,27.6,0.178472243,0.689138462,-0.147190771,0.686666463
579,1452733,554220,1.492,0.521,0.332,18.9,-12.6,1,-36.1,8,27.6,0.17813654,0.689413129,-0.146946623,0.686544389
580,1454445,554220,0.878,-0.096,-0.445,12.7,-5.9,0.5,-36.1,8,27.6,0.177892392,0.689535203,-0.146794031,0.686483352
581,1457198,554230,0.551,0.141,-0.937,5.8,-1.8,2.1,-36.1,8,27.6,0.177770318,0.68959624,-0.146763512,0.686483352
582,1459935,554230,0.468,0.034,-1.303,-1.1,5.7,5.1,-36.6,6.6,27.5,0.177739799,0.689474166,-0.146824549,0.686605426
583,1463092,554230,0.668,-0.425,-0.489,-7,11.1,8.1,-36.6,6.6,27.5,0.177770318,0.689260537,-0.14700766,0.686788537
584,1464471,554230,0.812,-0.462,-0.434,-12.1,7.7,10,-36.6,6.6,27.5,0.177831355,0.689077425,-0.147312845,0.686880093
585,1467594,554240,0.819,-0.348,-0.49,-15,-1.6,10.3,-36.6,6.6,27.5,0.177892392,0.68898587,-0.147679067,0.686849574
586,1469762,554240,1.057,-0.177,-0.588,-12.3,-8.3,8.9,-36.5,6.3,27.5,0.177892392,0.689046907,-0.148045289,0.6867275
587,1472739,554240,1.306,-0.073,-0.592,-4.9,-8.5,6.7,-36.5,6.3,27.5,0.177861873,0.689138462,-0.148258919,0.686605426
588,1474494,554240,1.358,0.324,-0.305,3.2,-4.7,4.8,-36.5,6.3,27.5,0.177709281,0.689199499,-0.148289438,0.686574908
589,1476828,554250,1.343,0.501,-0.317,9.3,-0.2,3.6,-36.5,6.3,27.5,0.17752617,0.689230018,-0.148228401,0.686605426
590,1480332,554250,1.307,0.285,-0.507,11.1,4.3,3,-36.1,6.2,27.3,0.17731254,0.689199499,-0.148075808,0.6867275
591,1481936,554250,1.362,0.497,-0.317,8.4,8.3,2.7,-36.1,6.2,27.3,0.177190466,0.689107944,-0.147953734,0.686880093
592,1484965,554250,1.468,0.615,-0.113,3.2,9.6,2.6,-36.1,6.2,27.3,0.177129429,0.688955351,-0.147923215,0.687063204
593,1487308,554260,1.561,0.535,-0.069,-1.6,6.9,2.2,-36.1,6.2,27.3,0.177129429,0.688833277,-0.147953734,0.687154759
594,1489440,554260,1.508,0.674,0.26,-4.1,2.3,1.5,-36.5,6.2,27.5,0.177190466,0.68877224,-0.148014771,0.687185278
595,1492392,554260,1.434,0.632,0.608,-4.3,-0.6,0.3,-36.5,6.2,27.5,0.177251503,0.68877224,-0.148106326,0.687154759
596,1494532,554260,1.344,0.373,0.607,-2.8,-0.8,-1,-36.5,6.2,27.5,0.177282022,0.68877224,-0.148136845,0.687124241
597,1497647,554270,0.849,-0.094,0.491,-1.3,0.9,-2.2,-36.5,6.2,27.5,0.177343059,0.68877224,-0.148106326,0.687154759
598,1499795,554270,0.728,-0.121,0.205,-1,4.4,-2.7,-36.4,6.1,27.4,0.177434614,0.688711203,-0.148075808,0.687185278
599,1502085,554270,0.685,-0.074,0.01,-1.4,8.6,-2.5,-36.4,6.1,27.4,0.17752617,0.688589129,-0.148014771,0.687307352
600,1504409,554270,0.7,-0.007,-0.056,-1.1,11.6,-2.2,-36.4,6.1,27.4,0.177587207,0.688406018,-0.147953734,0.687459944
601,1506888,554280,0.934,0.124,0.057,-0.2,10.7,-2.3,-36.4,6.1,27.4,0.177678762,0.688253426,-0.147892697,0.687612537
602,1510333,554280,1.059,0.072,0.131,0.3,5.8,-2.8,-37.7,6.2,27.5,0.177739799,0.68816187,-0.147801141,0.687704093
603,1512637,554280,1.141,0.031,0.16,0,-0.5,-3,-37.7,6.2,27.5,0.177770318,0.688192389,-0.147770623,0.687673574
604,1514749,554280,1.164,-0.051,0.038,-1,-5.5,-2.9,-37.7,6.2,27.5,0.177831355,0.688283944,-0.147770623,0.687582018
605,1516838,554290,1.136,-0.067,-0.117,-2,-7.4,-2.5,-37.7,6.2,27.5,0.177861873,0.688406018,-0.147770623,0.687459944
606,1520404,554290,1.074,-0.046,-0.189,-2,-6.5,-2.1,-35.4,6.5,27.8,0.177892392,0.688467055,-0.147801141,0.68733787
607,1522219,554290,1.019,-0.026,-0.121,-1.2,-4.3,-1.8,-35.4,6.5,27.8,0.17792291,0.688558611,-0.147801141,0.687276833
608,1524450,554290,0.973,-0.009,0.165,0.1,-3.1,-1.6,-35.4,6.5,27.8,0.177953429,0.688619648,-0.147801141,0.687215796
609,1527657,554300,0.958,0.061,0.354,1.1,-3.6,-1.2,-35.4,6.5,27.8,0.177953429,0.688680685,-0.147770623,0.687154759
610,1529372,554300,0.951,0.112,0.436,1.9,-5.4,-0.7,-35.6,6.3,28,0.177892392,0.68877224,-0.147770623,0.687063204
611,1531931,554300,0.978,0.069,0.326,2.2,-7.1,-0.3,-35.6,6.3,28,0.177861873,0.688894314,-0.147740104,0.686971648
612,1535409,554300,0.989,0.1,0.223,1.8,-7.6,0.1,-35.6,6.3,28,0.177800836,0.68898587,-0.147740104,0.686880093
613,1537655,554310,1.044,0.123,0.194,0.9,-7.6,0.4,-35.6,6.3,28,0.177739799,0.689107944,-0.147770623,0.686758019
614,1539427,554310,1.078,0.091,0.087,0.1,-8,0.7,-35.6,6.5,27.7,0.177709281,0.689230018,-0.147801141,0.686635945
615,1542154,554310,1.086,0.043,-0.01,-0.7,-9.3,1.2,-35.6,6.5,27.7,0.177678762,0.689382611,-0.147892697,0.686513871
616,1545459,554310,1.07,0.032,0.009,-1.9,-10.9,1.9,-35.6,6.5,27.7,0.177648244,0.689535203,-0.147984252,0.68633076
617,1547676,554320,1.012,0.009,0.015,-3.4,-12.3,2.8,-35.6,6.5,27.7,0.177617725,0.689687796,-0.148136845,0.686147649
618,1549393,554320,0.961,-0.025,0.029,-4.9,-12.8,3.7,-34.9,6.5,27.6,0.177587207,0.689840388,-0.148289438,0.685964537
619,1552056,554320,0.918,-0.029,0.046,-6.2,-13,4.5,-34.9,6.5,27.6,0.177556688,0.689992981,-0.148503067,0.685750908
620,1555265,554320,0.915,-0.06,0.109,-7.2,-13.8,5.3,-34.9,6.5,27.6,0.177556688,0.690145573,-0.148747215,0.685537278
621,1557531,554330,0.879,-0.119,0.118,-8,-15.4,6.1,-34.9,6.5,27.6,0.17752617,0.690328684,-0.149021882,0.685323649
622,1559692,554330,0.875,-0.182,0.071,-8.9,-17.4,6.9,-37.3,6.2,27.7,0.177495651,0.690542314,-0.149327067,0.685048982
623,1561952,554330,0.852,-0.158,0.048,-9.8,-19,7.6,-37.3,6.2,27.7,0.177495651,0.690755943,-0.149632252,0.684743797
624,1564360,554330,0.852,-0.119,0.056,-9.6,-19.5,7.6,-37.3,6.2,27.7,0.177434614,0.691000092,-0.149998474,0.684469131
625,1566916,554340,0.868,-0.091,0.067,-8.7,-18.3,7.2,-37.3,6.2,27.7,0.177404096,0.691213721,-0.150303659,0.684194464
626,1570255,554340,0.841,-0.044,0.091,-7.5,-15.4,6.2,-35.4,6.3,28.3,0.177373577,0.691396832,-0.150578326,0.683950316
627,1572477,554340,0.802,0.03,0.081,-6.3,-12.5,5,-35.4,6.3,28.3,0.177373577,0.691549425,-0.150791955,0.683767205
628,1574686,554340,0.833,0.081,0.056,-5.1,-10.7,3.4,-35.4,6.3,28.3,0.177343059,0.691671499,-0.150975066,0.683584094
629,1576910,554350,0.775,0.031,0.07,-3.9,-9.8,1.8,-35.4,6.3,28.3,0.177343059,0.691793573,-0.15109714,0.683431501
630,1579738,554350,0.755,0.082,0.055,-3.3,-9.1,0.3,-35.4,6.2,28,0.177373577,0.691915647,-0.151188696,0.683278909
631,1582832,554350,0.736,0.157,0.078,-2.9,-8.3,-0.4,-35.4,6.2,28,0.177404096,0.692037721,-0.151249733,0.683156835
632,1584389,554350,0.74,0.177,0.078,-2,-8.5,-0.6,-35.4,6.2,28,0.177404096,0.692159795,-0.15131077,0.683004242
633,1586776,554360,0.802,0.121,0.053,-0.6,-10.5,-0.7,-35.4,6.2,28,0.177373577,0.692312387,-0.151341288,0.68285165
634,1589580,554360,0.849,0.152,0.059,0.3,-14,-0.8,-35.1,5.7,28,0.177343059,0.692526017,-0.151371807,0.68263802
635,1592634,554360,0.915,0.195,0.053,1.2,-18.2,-0.9,-35.1,5.7,28,0.177282022,0.692800684,-0.151432844,0.682363353
636,1594856,554360,1.043,0.182,0.026,2.4,-21.7,-1.1,-35.1,5.7,28,0.177190466,0.693136387,-0.151463363,0.68202765
637,1597035,554370,1.09,0.158,0.02,4.1,-23.8,-1.1,-35.1,5.7,28,0.177068392,0.693502609,-0.151463363,0.681691946
638,1600168,554370,1.133,0.145,0.019,5.3,-24.2,-0.9,-34.8,6.3,27.6,0.176915799,0.69389935,-0.151463363,0.681325724
639,1602333,554370,1.164,0.137,0.014,5.9,-23.3,-0.5,-34.8,6.3,27.6,0.176763207,0.694265572,-0.151463363,0.68099002
640,1604622,554370,1.136,0.106,-0.027,5.8,-21.3,0,-34.8,6.3,27.6,0.176610614,0.694601276,-0.151463363,0.680654317
641,1607625,554380,1.097,0.079,-0.038,5.2,-18.6,0.6,-34.8,6.3,27.6,0.176458022,0.694906461,-0.151463363,0.680440687
642,1610669,554380,1.07,0.036,-0.048,4,-15.8,1.1,-36.2,6,27.6,0.176305429,0.695150609,-0.151463363,0.680196539
643,1612821,554380,0.984,-0.01,-0.128,2.3,-13.5,1.4,-36.2,6,27.6,0.176213874,0.695364238,-0.1515244,0.680013428
644,1614369,554380,0.957,-0.006,-0.178,0.4,-12,1.4,-36.2,6,27.6,0.176152837,0.695547349,-0.151585437,0.679830317
645,1617549,554390,0.934,-0.002,-0.193,-0.8,-11.5,1.1,-36.2,6,27.6,0.1760918,0.695699942,-0.151646474,0.679677725
646,1619823,554390,0.922,-0.01,-0.232,-1.3,-11.5,0.6,-35.6,6.2,27.1,0.1760918,0.695852535,-0.151738029,0.679494613
647,1621926,554390,0.941,-0.01,-0.279,-1.2,-11.7,0.2,-35.6,6.2,27.1,0.176061281,0.696035646,-0.151799066,0.679311502
648,1624844,554390,0.965,0.001,-0.307,-1,-12,-0.2,-35.6,6.2,27.1,0.176000244,0.696218757,-0.151860103,0.679128391
649,1627001,554400,0.98,0.016,-0.312,-0.8,-12.5,-0.4,-35.6,6.2,27.1,0.176000244,0.696401868,-0.151890622,0.678914762
650,1629350,554400,1.038,0.02,-0.314,-0.3,-13.1,-0.5,-36,6.2,27.4,0.175969726,0.696584979,-0.151951659,0.678731651
651,1631805,554400,1.07,0.023,-0.319,0,-13.6,-0.5,-36,6.2,27.4,0.175939207,0.696798608,-0.151982177,0.678518021
652,1635275,554400,1.101,0.031,-0.323,0.5,-13.9,-0.3,-36,6.2,27.4,0.175908689,0.697012238,-0.152043214,0.678304392
653,1637680,554410,1.116,0.039,-0.324,0.9,-13.7,-0.2,-36,6.2,27.4,0.175847652,0.697195349,-0.152073733,0.678090762
654,1639971,554410,1.136,0.042,-0.309,1.3,-12.8,0,-36.3,6.2,27.6,0.175786615,0.697408979,-0.152104251,0.677907651
655,1642191,554410,1.124,0.05,-0.297,1.8,-11,0,-36.3,6.2,27.6,0.175725578,0.697561571,-0.152104251,0.67772454
656,1644503,554410,1.124,0.058,-0.277,2.1,-8.5,0,-36.3,6.2,27.6,0.175664541,0.697714164,-0.152104251,0.677602466
657,1646977,554420,1.093,0.063,-0.245,2.5,-5.6,0,-36.3,6.2,27.6,0.175603504,0.697805719,-0.152104251,0.677541429
658,1650402,554420,1.074,0.067,-0.225,2.7,-2.8,0.1,-35.9,5.6,28.5,0.175542467,0.697866756,-0.152073733,0.67751091
659,1651889,554420,1.047,0.067,-0.2,2.6,-0.3,0.1,-35.9,5.6,28.5,0.175481429,0.697866756,-0.152043214,0.67751091
660,1655058,554420,1.023,0.067,-0.172,2.2,1.8,0,-35.9,5.6,28.5,0.175450911,0.697836238,-0.152012696,0.677541429
661,1657209,554430,0.981,0.056,-0.128,1.7,3.5,-0.1,-35.9,5.6,28.5,0.175450911,0.697805719,-0.151951659,0.677602466
662,1659368,554430,0.969,0.056,-0.104,1.2,4.8,-0.1,-35.5,6,25.5,0.175450911,0.697744682,-0.15192114,0.677694021
663,1661972,554430,0.961,0.06,-0.076,0.6,5.6,-0.1,-35.5,6,25.5,0.175450911,0.697653127,-0.151890622,0.677755058
664,1665388,554430,0.953,0.06,-0.025,0.1,5.9,-0.1,-35.5,6,25.5,0.175481429,0.697561571,-0.151860103,0.677846614
665,1667691,554440,0.957,0.056,-0.01,-0.1,5.5,-0.1,-35.5,6,25.5,0.175511948,0.697500534,-0.151829585,0.677938169
666,1670760,554440,0.954,0.06,0.021,-0.4,4.7,0,-35.5,5.9,28.2,0.175542467,0.697439497,-0.151799066,0.677968688
667,1672170,554440,0.954,0.06,0.021,-0.7,4,0,-35.5,5.9,28.2,0.175572985,0.69737846,-0.151799066,0.678029725
668,1675266,554440,0.965,0.06,0.028,-1,3.5,0,-35.5,5.9,28.2,0.175603504,0.697347942,-0.151799066,0.678090762
669,1676784,554450,0.977,0.06,0.036,-1.2,3,0,-35.5,5.9,28.2,0.175634022,0.697286905,-0.151829585,0.678121281
670,1679618,554450,0.993,0.056,0.047,-1.5,2.5,0,-35.6,5.9,28.5,0.175664541,0.697256386,-0.151829585,0.678151799
671,1681946,554450,1,0.04,0.055,-1.6,2.2,0,-35.6,5.9,28.5,0.175695059,0.697195349,-0.151860103,0.678182318
672,1685674,554450,1,0.04,0.055,-1.8,2.1,0,-35.6,5.9,28.5,0.175725578,0.69716483,-0.151860103,0.678212836
673,1687080,554460,0.992,0.029,0.055,-1.8,2.1,0,-35.6,5.9,28.5,0.175756096,0.697134312,-0.151890622,0.678243355
674,1690075,554460,0.985,0.025,0.055,-1.9,2.2,0.1,-35.5,6.2,28.1,0.175786615,0.697073275,-0.15192114,0.678273873
675,1691728,554460,0.95,0.013,0.049,-1.8,2.4,0.2,-35.5,6.2,28.1,0.175817133,0.697042756,-0.15192114,0.678304392
676,1695277,554460,0.942,0.021,0.053,-1.6,2.5,0.2,-35.5,6.2,28.1,0.175847652,0.696981719,-0.151951659,0.67833491
677,1697301,554470,0.93,0.017,0.045,-1.2,2.6,0.2,-35.5,6.2,28.1,0.17587817,0.696951201,-0.151951659,0.678365429
678,1700241,554470,0.922,0.017,0.042,-0.9,2.2,0.2,-35.7,6,28,0.17587817,0.696920682,-0.151982177,0.678395947
679,1701839,554470,0.926,0.017,0.038,-0.6,1.5,0,-35.7,6,28,0.175908689,0.696890164,-0.151982177,0.678426466
680,1704743,554470,0.938,0.025,0.033,-0.3,0.3,0,-35.7,6,28,0.175908689,0.696890164,-0.151982177,0.678426466
681,1707830,554480,0.95,0.025,0.033,0,-0.9,0,-35.7,6,28,0.175908689,0.696890164,-0.151982177,0.678426466
682,1710811,554480,0.977,0.025,0.024,0.1,-2.1,0,-35.8,6,26.2,0.175908689,0.696920682,-0.151982177,0.678395947
683,1712406,554480,0.996,0.032,0.024,0.4,-2.9,0,-35.8,6,26.2,0.17587817,0.696981719,-0.151982177,0.67833491
684,1714575,554480,1.004,0.04,0.023,0.6,-3.5,0.1,-35.8,6,26.2,0.175847652,0.697012238,-0.152012696,0.678273873
685,1717470,554490,1.02,0.032,0.015,0.9,-3.7,0,-35.8,6,26.2,0.175817133,0.697073275,-0.152012696,0.678243355
686,1720527,554490,1.02,0.044,0.007,1.1,-3.7,0,-35.5,6,26.8,0.175817133,0.697042756,-0.151982177,0.678273873
687,1722179,554490,1.02,0.044,0.007,1.2,-3.3,0,-35.5,6,26.8,0.175786615,0.697103793,-0.151982177,0.678243355
688,1724444,554490,1.012,0.052,0.003,1.2,-2.6,0,-35.5,6,26.8,0.175756096,0.697134312,-0.151982177,0.678212836
689,1726927,554500,0.992,0.052,-0.011,1.2,-1.8,0,-35.5,6,26.8,0.175725578,0.69716483,-0.151982177,0.678182318
690,1730431,554500,0.985,0.052,-0.022,1.2,-1.1,0,-35.4,6,26.5,0.175695059,0.697195349,-0.151951659,0.678151799
691,1732705,554500,0.977,0.056,-0.034,1,-0.5,0,-35.4,6,26.5,0.175695059,0.697195349,-0.151951659,0.678151799
692,1734966,554500,0.961,0.044,-0.041,0.7,-0.1,0,-35.4,6,26.5,0.175664541,0.697225867,-0.15192114,0.678151799
693,1737170,554510,0.957,0.041,-0.045,0.4,-0.1,0,-35.4,6,26.5,0.175664541,0.697225867,-0.15192114,0.678151799
694,1739434,554510,0.957,0.041,-0.056,0.2,-0.4,0,-36,5.8,26.2,0.175664541,0.697225867,-0.15192114,0.678151799
695,1741985,554510,0.965,0.037,-0.057,0.1,-1,0,-36,5.8,26.2,0.175664541,0.697225867,-0.15192114,0.678151799
696,1745475,554510,0.977,0.032,-0.069,0,-1.7,0,-36,5.8,26.2,0.175634022,0.697256386,-0.15192114,0.678121281
697,1747719,554520,0.981,0.032,-0.069,0,-2.4,0,-36,5.8,26.2,0.175634022,0.697286905,-0.151951659,0.678090762
698,1749913,554520,0.992,0.036,-0.069,0,-2.9,0.1,-35.6,5.8,26.2,0.175634022,0.697347942,-0.151951659,0.678029725
699,1752903,554520,1,0.04,-0.07,0.1,-3.2,0.2,-35.6,5.8,26.2,0.175603504,0.69737846,-0.151982177,0.677968688
700,1755166,554520,1.02,0.04,-0.074,0.2,-3.3,0.2,-35.6,5.8,26.2,0.175603504,0.697439497,-0.151982177,0.677938169
701,1757357,554530,1.023,0.044,-0.074,0.3,-3.1,0.1,-35.6,5.8,26.2,0.175572985,0.697500534,-0.151982177,0.677877132
702,1760207,554530,1.031,0.048,-0.071,0.3,-2.7,0,-35.5,6,27.5,0.175572985,0.697531053,-0.152012696,0.677846614
703,1761872,554530,1.027,0.048,-0.067,0.4,-2.1,0,-35.5,6,27.5,0.175542467,0.697561571,-0.152012696,0.677816095
704,1764838,554530,1.02,0.044,-0.062,0.4,-1.4,0,-35.5,6,27.5,0.175542467,0.69759209,-0.152012696,0.677785577
705,1767953,554540,1.008,0.048,-0.062,0.2,-0.5,0,-35.5,6,27.5,0.175542467,0.69759209,-0.151982177,0.677785577
706,1769335,554540,0.988,0.04,-0.057,0.1,0.1,0,-35.5,6.1,27,0.175511948,0.697714164,-0.151982177,0.677663503
707,1771741,554540,0.985,0.036,-0.053,0.1,0.9,0,-35.5,6.1,27,0.175511948,0.697714164,-0.151982177,0.677663503
708,1774547,554540,0.969,0.036,-0.053,0,1.4,0,-35.5,6.1,27,0.175511948,0.697683645,-0.151982177,0.677694021
709,1777715,554550,0.965,0.033,-0.045,0,1.6,-0.1,-35.5,6.1,27,0.175542467,0.697653127,-0.151982177,0.67772454
710,1780448,554550,0.965,0.04,-0.041,0,1.5,-0.1,-35.6,5.3,26.7,0.175542467,0.697653127,-0.151982177,0.677755058
711,1781925,554550,0.965,0.033,-0.033,-0.1,1.1,0,-35.6,5.3,26.7,0.175542467,0.697622608,-0.151982177,0.677755058
712,1784960,554550,0.973,0.04,-0.033,-0.1,0.5,0,-35.6,5.3,26.7,0.175542467,0.697622608,-0.151982177,0.677755058
713,1787950,554560,0.977,0.04,-0.022,-0.1,0.1,0,-35.6,5.3,26.7,0.175542467,0.697622608,-0.151982177,0.677755058
714,1789571,554560,0.996,0.044,-0.011,-0.1,-0.2,0,-35.1,4.8,26.6,0.175542467,0.697622608,-0.151982177,0.677755058
715,1792487,554560,1,0.044,-0.003,0,-0.5,0,-35.1,4.8,26.6,0.175542467,0.697622608,-0.151982177,0.677755058
716,1795468,554560,1.008,0.044,-0.003,-0.1,-0.6,-0.1,-35.1,4.8,26.6,0.175542467,0.697622608,-0.151982177,0.677755058
717,1797064,554570,1,0.044,0.004,-0.1,-0.3,0,-35.1,4.8,26.6,0.175542467,0.697653127,-0.151982177,0.67772454
718,1800186,554570,1,0.044,0,-0.1,0.1,0,-35.3,4.1,26.6,0.175572985,0.697622608,-0.151982177,0.677755058
719,1801802,554570,0.996,0.044,0,0,0.5,0,-35.3,4.1,26.6,0.175572985,0.697622608,-0.151982177,0.677755058
720,1804447,554570,0.985,0.04,0.004,0,1,0,-35.3,4.1,26.6,0.175572985,0.697622608,-0.151982177,0.677755058
721,1807778,554580,0.973,0.037,0.005,0,1.2,-0.1,-35.3,4.1,26.6,0.175572985,0.69759209,-0.151951659,0.677785577
722,1809319,554580,0.965,0.041,0.001,-0.1,1.3,-0.1,-35.5,7.5,28.2,0.175572985,0.697561571,-0.151951659,0.677816095
723,1813031,554580,0.961,0.037,0.001,-0.1,1.2,-0.1,-35.5,7.5,28.2,0.175603504,0.697561571,-0.151951659,0.677816095
724,1814648,554580,0.961,0.033,0.001,-0.2,1,-0.1,-35.5,7.5,28.2,0.175603504,0.697531053,-0.151951659,0.677846614
725,1816884,554590,0.969,0.033,0.001,-0.2,0.6,0,-35.5,7.5,28.2,0.175603504,0.697531053,-0.151951659,0.677846614
726,1819659,554590,0.981,0.036,-0.002,-0.3,0.2,0,-35.7,4.5,25.9,0.175634022,0.697470016,-0.151951659,0.677907651
727,1821926,554590,0.981,0.036,-0.002,-0.2,-0.1,0,-35.7,4.5,25.9,0.175634022,0.697470016,-0.151951659,0.677907651
728,1824990,554590,0.985,0.032,-0.014,-0.1,-0.4,0,-35.7,4.5,25.9,0.175634022,0.697470016,-0.151951659,0.677907651
729,1826930,554600,0.992,0.036,-0.011,0,-0.7,0,-35.7,4.5,25.9,0.175634022,0.697470016,-0.151951659,0.677877132
730,1829891,554600,0.996,0.04,-0.011,0.1,-1,0,-35.8,4.4,26.1,0.175603504,0.697500534,-0.151951659,0.677877132
731,1831953,554600,1,0.04,-0.015,0.2,-0.9,0,-35.8,4.4,26.1,0.175603504,0.697500534,-0.151951659,0.677846614
732,1835277,554600,1,0.04,-0.015,0.2,-0.9,0,-35.8,4.4,26.1,0.175603504,0.697531053,-0.151951659,0.677846614
733,1837609,554610,0.996,0.044,-0.019,0.2,-0.6,0,-35.8,4.4,26.1,0.175603504,0.697531053,-0.151951659,0.677846614
734,1839725,554610,0.992,0.044,-0.018,0.2,-0.4,0,-35.5,5.1,25.9,0.175603504,0.697561571,-0.151951659,0.677816095
735,1841945,554610,0.981,0.044,-0.022,0.2,-0.2,0,-35.5,5.1,25.9,0.175603504,0.697561571,-0.151951659,0.677816095
736,1844593,554610,0.977,0.04,-0.022,0.1,0,0.1,-35.5,5.1,25.9,0.175572985,0.697561571,-0.151951659,0.677816095
737,1846887,554620,0.977,0.04,-0.026,0.1,0.1,0,-35.5,5.1,25.9,0.175572985,0.697561571,-0.151951659,0.677816095
738,1850179,554620,0.977,0.036,-0.03,0,0.1,0,-35.4,5.7,26.2,0.175572985,0.697561571,-0.151951659,0.677816095
739,1852516,554620,0.973,0.036,-0.03,0.1,0,0,-35.4,5.7,26.2,0.175572985,0.697561571,-0.151951659,0.677816095
740,1854805,554620,0.977,0.036,-0.026,0.1,-0.2,0,-35.4,5.7,26.2,0.175572985,0.697561571,-0.151951659,0.677816095
741,1857026,554630,0.981,0.044,-0.026,0.1,-0.4,0,-35.4,5.7,26.2,0.175572985,0.697561571,-0.151951659,0.677816095
742,1860506,554630,0.992,0.04,-0.03,0,-0.6,0,-35.6,6.8,27,0.175572985,0.697561571,-0.151951659,0.677816095
743,1862828,554630,0.996,0.036,-0.026,0,-0.7,0,-35.6,6.8,27,0.175572985,0.69759209,-0.151951659,0.677785577
744,1864669,554630,1,0.04,-0.023,0.1,-0.9,0,-35.6,6.8,27,0.175572985,0.69759209,-0.151951659,0.677785577
745,1867016,554640,1,0.044,-0.023,0.1,-0.9,0,-35.6,6.8,27,0.175542467,0.697622608,-0.151951659,0.677755058
746,1870566,554640,1.008,0.04,-0.027,0.1,-0.7,0,-35.8,6.2,27.3,0.175542467,0.697653127,-0.151951659,0.67772454
747,1872905,554640,1.008,0.04,-0.027,0,-0.3,0,-35.8,6.2,27.3,0.175542467,0.697653127,-0.151951659,0.67772454
748,1875117,554640,0.996,0.04,-0.022,0,0,0.1,-35.8,6.2,27.3,0.175542467,0.697653127,-0.151951659,0.67772454
749,1877254,554650,0.988,0.04,-0.034,0,0.2,0.2,-35.8,6.2,27.3,0.175542467,0.697653127,-0.151951659,0.67772454
750,1879557,554650,0.981,0.036,-0.026,0,0.3,0.2,-35.9,6.3,27.4,0.175542467,0.697653127,-0.151982177,0.67772454
751,1882119,554650,0.977,0.036,-0.03,0,0.4,0.2,-35.9,6.3,27.4,0.175542467,0.697653127,-0.151982177,0.677755058
752,1885187,554650,0.973,0.037,-0.022,0,0.5,0,-35.9,6.3,27.4,0.175542467,0.697622608,-0.151982177,0.677755058
753,1886760,554660,0.977,0.033,-0.026,0,0.4,0,-35.9,6.3,27.4,0.175542467,0.697622608,-0.151951659,0.677755058
754,1889753,554660,0.977,0.036,-0.022,0.1,0.3,-0.1,-35.7,6.6,27.2,0.175542467,0.697622608,-0.151951659,0.677755058
755,1892499,554660,0.981,0.04,-0.022,0.1,0,0,-35.7,6.6,27.2,0.175542467,0.697622608,-0.151951659,0.677755058
756,1895201,554660,0.985,0.044,-0.014,0.1,-0.4,0,-35.7,6.6,27.2,0.175542467,0.697622608,-0.151951659,0.677755058
757,1896746,554670,0.992,0.036,-0.018,0.1,-0.6,0,-35.7,6.6,27.2,0.175542467,0.697653127,-0.151951659,0.677755058
758,1899525,554670,0.996,0.04,-0.019,0,-0.6,-0.1,-35.9,6.7,27,0.175542467,0.697653127,-0.151951659,0.67772454
759,1901713,554670,0.992,0.04,-0.022,0,-0.5,0,-35.9,6.7,27,0.175542467,0.697653127,-0.151951659,0.67772454
760,1904446,554670,0.992,0.044,-0.018,0,-0.3,0,-35.9,6.7,27,0.175542467,0.697653127,-0.151951659,0.67772454
761,1907534,554680,0.988,0.036,-0.014,0,-0.1,0,-35.9,6.7,27,0.175542467,0.697653127,-0.151951659,0.67772454
762,1910447,554680,0.988,0.04,-0.026,0.1,0,0,-35.6,5.4,27.2,0.175542467,0.697683645,-0.151951659,0.67772454
763,1912060,554680,0.981,0.04,-0.018,0.1,0.1,0,-35.6,5.4,27.2,0.175542467,0.697653127,-0.151951659,0.67772454
764,1914887,554680,0.985,0.04,-0.022,0,0.2,0,-35.6,5.4,27.2,0.175511948,0.697653127,-0.151951659,0.67772454
765,1918732,554690,0.981,0.036,-0.018,0,0.3,0,-35.6,5.4,27.2,0.175542467,0.697653127,-0.151951659,0.67772454
766,1920351,554690,0.985,0.044,-0.018,0,0.3,0,-35.7,7,27.2,0.175542467,0.697653127,-0.151951659,0.67772454
767,1922588,554690,0.985,0.04,-0.022,-0.1,0.2,0,-35.7,7,27.2,0.175542467,0.697653127,-0.151951659,0.67772454
768,1925316,554690,0.985,0.036,-0.01,-0.1,0.1,0,-35.7,7,27.2,0.175542467,0.697653127,-0.151951659,0.67772454
769,1926932,554700,0.988,0.036,-0.014,0,0,0,-35.7,7,27.2,0.175542467,0.697653127,-0.151951659,0.67772454
770,1929931,554700,0.992,0.04,-0.014,0,-0.1,0,-36.2,6.7,27.3,0.175542467,0.697653127,-0.151951659,0.67772454
771,1931793,554700,0.985,0.04,-0.01,0,-0.1,0,-36.2,6.7,27.3,0.175542467,0.697653127,-0.151951659,0.67772454
772,1934861,554700,0.988,0.04,-0.014,0,-0.1,0,-36.2,6.7,27.3,0.175542467,0.697653127,-0.151951659,0.67772454
773,1937193,554710,0.988,0.04,-0.014,0,0,0,-36.2,6.7,27.3,0.175542467,0.697653127,-0.151951659,0.67772454
774,1939418,554710,0.988,0.036,-0.014,0,0.1,0,-37.4,6.2,27.7,0.175542467,0.697653127,-0.151951659,0.67772454
775,1941931,554710,0.985,0.04,-0.018,0,0.2,0,-37.4,6.2,27.7,0.175542467,0.697653127,-0.151951659,0.67772454
776,1945441,554710,0.985,0.04,-0.01,0,0.1,0,-37.4,6.2,27.7,0.175542467,0.697653127,-0.151951659,0.67772454
777,1947651,554720,0.985,0.036,-0.018,0,0,0,-37.4,6.2,27.7,0.175542467,0.697653127,-0.151951659,0.67772454
778,1949765,554720,0.985,0.036,-0.018,0,0,0.1,-37.5,6.8,27.4,0.175542467,0.697653127,-0.151951659,0.67772454
779,1952155,554720,0.977,0.04,-0.022,0,0,0.1,-37.5,6.8,27.4,0.175542467,0.697653127,-0.151951659,0.67772454
780,1954363,554720,0.981,0.036,-0.026,0,0,0,-37.5,6.8,27.4,0.175542467,0.697653127,-0.151951659,0.67772454
781,1957779,554730,0.985,0.04,-0.018,0.1,-0.1,0,-37.5,6.8,27.4,0.175542467,0.697653127,-0.151951659,0.67772454
782,1960395,554730,0.988,0.032,-0.022,0,-0.2,0,-34.8,4.6,27,0.175542467,0.697653127,-0.151951659,0.67772454
783,1962783,554730,0.992,0.036,-0.022,0,-0.4,0,-34.8,4.6,27,0.175542467,0.697683645,-0.151951659,0.67772454
784,1964820,554730,0.992,0.04,-0.018,0,-0.5,0,-34.8,4.6,27,0.175542467,0.697683645,-0.151951659,0.67772454
785,1967117,554740,0.988,0.04,-0.022,0,-0.6,0,-34.8,4.6,27,0.175511948,0.697683645,-0.151951659,0.677694021
786,1970850,554740,0.992,0.044,-0.018,0,-0.6,0,-37.2,6.8,27,0.175511948,0.697714164,-0.151982177,0.677663503
787,1972975,554740,0.992,0.044,-0.018,0,-0.4,0,-37.2,6.8,27,0.175511948,0.697714164,-0.151982177,0.677663503
788,1975369,554740,0.988,0.044,-0.022,0.1,-0.2,0,-37.2,6.8,27,0.175511948,0.697714164,-0.151982177,0.677663503
789,1977699,554750,0.985,0.04,-0.022,0,0,0,-37.2,6.8,27,0.175511948,0.697744682,-0.151982177,0.677663503
790,1979665,554750,0.985,0.04,-0.022,0,0,0,-37.4,6.8,27,0.175511948,0.697744682,-0.151982177,0.677663503
791,1981842,554750,0.985,0.036,-0.022,0,0,0,-37.4,6.8,27,0.175511948,0.697744682,-0.151982177,0.677663503
792,1985022,554750,0.981,0.04,-0.018,0,0,0.1,-37.4,6.8,27,0.175511948,0.697714164,-0.151982177,0.677663503
793,1987390,554760,0.985,0.04,-0.018,0,0,0,-37.4,6.8,27,0.175481429,0.697714164,-0.151982177,0.677663503
794,1989580,554760,0.985,0.036,-0.026,0,-0.1,0,-36.9,6.7,27.1,0.175481429,0.697744682,-0.151982177,0.677663503
795,1991860,554760,0.985,0.04,-0.018,0,-0.1,0,-36.9,6.7,27.1,0.175481429,0.697744682,-0.151982177,0.677663503
796,1995329,554760,0.988,0.04,-0.022,0,-0.2,0,-36.9,6.7,27.1,0.175481429,0.697744682,-0.151982177,0.677663503
797,1997657,554770,0.988,0.036,-0.018,0,-0.1,0,-36.9,6.7,27.1,0.175481429,0.697744682,-0.151982177,0.677663503
798,1999451,554770,0.988,0.044,-0.022,0,-0.1,0,-36.3,6.8,27,0.175481429,0.697744682,-0.151982177,0.677632984
799,2002961,554770,0.985,0.044,-0.018,0,0,0,-36.3,6.8,27,0.175481429,0.697744682,-0.151982177,0.677632984
800,2005981,554770,0.988,0.04,-0.014,0,-0.1,0,-36.3,6.8,27,0.175481429,0.697744682,-0.151982177,0.677632984
801,2006835,554780,0.988,0.036,-0.018,0,-0.1,0,-36.3,6.8,27,0.175481429,0.697744682,-0.151982177,0.677632984
802,2010581,554780,0.985,0.04,-0.018,0,-0.1,0,-35.3,6.1,27.2,0.175481429,0.697744682,-0.151982177,0.677632984
803,2011889,554780,0.985,0.04,-0.022,0,0,0,-35.3,6.1,27.2,0.175481429,0.697744682,-0.151982177,0.677632984
804,2015644,554780,0.977,0.036,-0.018,0,0,0,-35.3,6.1,27.2,0.175481429,0.697744682,-0.151982177,0.677632984
805,2017993,554790,0.985,0.04,-0.018,0,0,0,-35.3,6.1,27.2,0.175481429,0.697744682,-0.151982177,0.677632984
806,2020280,554790,0.985,0.04,-0.018,0,0,0,-35.2,6,27.5,0.175511948,0.697744682,-0.151982177,0.677632984
807,2022565,554790,0.985,0.04,-0.018,0,-0.1,0,-35.2,6,27.5,0.175511948,0.697744682,-0.151982177,0.677632984
808,2024718,554790,0.988,0.04,-0.014,0,-0.2,0,-35.2,6,27.5,0.175511948,0.697775201,-0.151982177,0.677632984
809,2026799,554800,0.985,0.04,-0.018,0,-0.2,0,-35.2,6,27.5,0.175511948,0.697775201,-0.151982177,0.677632984
810,2030347,554800,0.988,0.036,-0.022,0,-0.3,0,-35.3,5.9,27.4,0.175511948,0.697775201,-0.151982177,0.677632984
811,2032491,554800,0.992,0.04,-0.022,0,-0.2,0,-35.3,5.9,27.4,0.175511948,0.697775201,-0.151982177,0.677602466
812,2035100,554800,0.988,0.04,-0.018,0,-0.1,0.1,-35.3,5.9,27.4,0.175481429,0.697775201,-0.151982177,0.677602466
813,2037698,554810,0.988,0.036,-0.01,0,-0.2,0.1,-35.3,5.9,27.4,0.175481429,0.697775201,-0.151982177,0.677602466
814,2040076,554810,0.988,0.04,-0.018,0,-0.3,0,-35.2,6.1,27,0.175481429,0.697775201,-0.151982177,0.677602466
815,2042239,554810,0.988,0.044,-0.018,0,-0.3,0,-35.2,6.1,27,0.175481429,0.697775201,-0.151982177,0.677602466
816,2044618,554810,0.985,0.04,-0.022,0,-0.2,0,-35.2,6.1,27,0.175481429,0.697775201,-0.151982177,0.677602466
817,2047009,554820,0.981,0.036,-0.018,0,-0.1,0,-35.2,6.1,27,0.175481429,0.697805719,-0.151982177,0.677602466
818,2050431,554820,0.981,0.036,-0.018,0,0,0,-35.1,6.2,27.4,0.175481429,0.697805719,-0.151982177,0.677602466
819,2052003,554820,0.985,0.036,-0.014,0,0.1,0,-35.1,6.2,27.4,0.175481429,0.697775201,-0.151982177,0.677602466
820,2055450,554820,0.981,0.04,-0.018,0,0.1,0,-35.1,6.2,27.4,0.175481429,0.697775201,-0.151982177,0.677602466
821,2056893,554830,0.981,0.04,-0.022,0,0,0,-35.1,6.2,27.4,0.175481429,0.697775201,-0.151982177,0.677602466
822,2059965,554830,0.988,0.044,-0.022,0,0,0,-36.5,5.7,27.3,0.175481429,0.697775201,-0.152012696,0.677602466
823,2062914,554830,0.992,0.04,-0.022,0,0,0,-36.5,5.7,27.3,0.175481429,0.697775201,-0.152012696,0.677602466
824,2064642,554830,0.988,0.036,-0.014,0,0,0,-36.5,5.7,27.3,0.175481429,0.697775201,-0.152012696,0.677602466
825,2066992,554840,0.992,0.036,-0.018,0,0,0,-36.5,5.7,27.3,0.175481429,0.697775201,-0.151982177,0.677602466
826,2069281,554840,0.996,0.044,-0.026,0.1,0,0,-34.5,6.2,27.1,0.175511948,0.697805719,-0.151982177,0.677602466
827,2071720,554840,0.992,0.044,-0.022,0.1,0,0,-34.5,6.2,27.1,0.175511948,0.697805719,-0.151982177,0.677602466
828,2075232,554840,0.988,0.04,-0.018,0.1,0,0,-34.5,6.2,27.1,0.175481429,0.697805719,-0.151982177,0.677602466
829,2077426,554850,0.988,0.044,-0.022,0.1,0,0,-34.5,6.2,27.1,0.175481429,0.697805719,-0.151982177,0.677602466
830,2079630,554850,0.985,0.04,-0.018,0.1,0.1,0,-34.9,6,27.1,0.175481429,0.697805719,-0.151982177,0.677602466
831,2081779,554850,0.981,0.04,-0.018,0,0.1,0,-34.9,6,27.1,0.175481429,0.697805719,-0.151982177,0.677602466
832,2084816,554850,0.981,0.04,-0.018,0,0.2,0,-34.9,6,27.1,0.175481429,0.697805719,-0.151982177,0.677602466
833,2087147,554860,0.981,0.036,-0.018,0,0.2,0,-34.9,6,27.1,0.175481429,0.697775201,-0.151982177,0.677602466
834,2090684,554860,0.981,0.036,-0.026,0,0.2,0,-34.9,5.7,27.2,0.175481429,0.697775201,-0.151982177,0.677602466
835,2092285,554860,0.981,0.04,-0.018,0,0,0,-34.9,5.7,27.2,0.175481429,0.697775201,-0.151982177,0.677602466
836,2095324,554860,0.985,0.036,-0.018,0,0,0,-34.9,5.7,27.2,0.175481429,0.697775201,-0.151982177,0.677602466
837,2096907,554870,0.988,0.036,-0.018,0,-0.1,0,-34.9,5.7,27.2,0.175481429,0.697775201,-0.151982177,0.677602466
838,2099520,554870,0.985,0.032,-0.018,0,-0.2,0,-35.1,6.2,27.4,0.175481429,0.697775201,-0.151982177,0.677602466
839,2102953,554870,0.992,0.036,-0.018,0,-0.2,0,-35.1,6.2,27.4,0.175481429,0.697805719,-0.151982177,0.677602466
840,2105201,554870,0.988,0.044,-0.018,0,-0.1,0,-35.1,6.2,27.4,0.175481429,0.697805719,-0.151982177,0.677602466
841,2107772,554880,0.988,0.044,-0.026,0,0,0,-35.1,6.2,27.4,0.175481429,0.697805719,-0.151982177,0.677602466
842,2109563,554880,0.988,0.04,-0.022,0,0.1,0,-36.8,6.1,27.2,0.175481429,0.697805719,-0.151982177,0.677602466
843,2112511,554880,0.988,0.04,-0.014,0,0,0,-36.8,6.1,27.2,0.175481429,0.697805719,-0.151982177,0.677602466
844,2115004,554880,0.985,0.04,-0.022,0,-0.1,0,-36.8,6.1,27.2,0.175481429,0.697805719,-0.151982177,0.677602466
845,2116809,554890,0.981,0.04,-0.018,0,-0.2,0,-36.8,6.1,27.2,0.175481429,0.697805719,-0.151982177,0.677602466
846,2120377,554890,0.981,0.04,-0.018,0,0,0,-34.6,6.5,26.9,0.175511948,0.697805719,-0.151951659,0.677571947
847,2122849,554890,0.981,0.04,-0.018,0,0,0,-34.6,6.5,26.9,0.175511948,0.697805719,-0.151951659,0.677571947
848,2125144,554890,0.985,0.036,-0.018,0,0,0,-34.6,6.5,26.9,0.175511948,0.697805719,-0.151951659,0.677571947
849,2127052,554900,0.985,0.04,-0.018,0,0,0,-34.6,6.5,26.9,0.175511948,0.697805719,-0.151951659,0.677571947
850,2129423,554900,0.985,0.04,-0.014,0,0,0,-34.6,6,26.9,0.175511948,0.697805719,-0.151951659,0.677571947
851,2132213,554900,0.988,0.04,-0.018,0,-0.1,0,-34.6,6,26.9,0.175511948,0.697805719,-0.151951659,0.677571947
852,2135396,554900,0.992,0.04,-0.014,0,-0.1,0,-34.6,6,26.9,0.175511948,0.697805719,-0.151951659,0.677571947
853,2137689,554910,0.996,0.036,-0.022,0,-0.3,0,-34.6,6,26.9,0.175511948,0.697805719,-0.151951659,0.677571947
854,2139735,554910,0.988,0.04,-0.018,0,-0.3,0,-34.5,6.2,27,0.175511948,0.697805719,-0.151951659,0.677571947
855,2143565,554910,0.992,0.04,-0.018,0,-0.2,0,-34.5,6.2,27,0.175511948,0.697836238,-0.151951659,0.677571947
856,2145061,554910,0.992,0.04,-0.022,0,0,0,-34.5,6.2,27,0.175511948,0.697836238,-0.151951659,0.677571947
857,2147334,554920,0.985,0.044,-0.018,0,0,0,-34.5,6.2,27,0.175511948,0.697836238,-0.151951659,0.677571947
858,2151114,554920,0.985,0.04,-0.022,0,0,0,-34.5,6.2,27,0.175511948,0.697836238,-0.151951659,0.677571947
859,2152169,554920,0.985,0.04,-0.022,0,0.1,0,-34.5,6.2,27,0.175511948,0.697805719,-0.151951659,0.677571947
860,2155573,554920,0.981,0.036,-0.018,0,0.1,0,-34.5,6.2,27,0.175511948,0.697805719,-0.151951659,0.677571947
861,2157704,554930,0.985,0.032,-0.018,0,0.1,0,-34.5,6.2,27,0.175511948,0.697805719,-0.151951659,0.677571947
862,2159493,554930,0.981,0.04,-0.022,0,0,0,-35.5,6,27.2,0.175511948,0.697805719,-0.151951659,0.677571947
863,2163003,554930,0.985,0.036,-0.022,0,0,0,-35.5,6,27.2,0.175511948,0.697805719,-0.151951659,0.677571947
864,2164515,554930,0.988,0.036,-0.018,0,-0.1,0,-35.5,6,27.2,0.175511948,0.697805719,-0.151951659,0.677571947
865,2167729,554940,0.988,0.036,-0.014,0,-0.3,0,-35.5,6,27.2,0.175511948,0.697836238,-0.151951659,0.677571947
866,2169421,554940,0.988,0.04,-0.022,0,-0.3,0.1,-35,5.8,27.2,0.175481429,0.697836238,-0.151982177,0.677571947
867,2172341,554940,0.988,0.04,-0.022,0,-0.3,0.1,-35,5.8,27.2,0.175481429,0.697836238,-0.151982177,0.677571947
868,2175751,554940,0.988,0.04,-0.018,0,-0.2,0.1,-35,5.8,27.2,0.175481429,0.697836238,-0.151982177,0.677571947
869,2177199,554950,0.988,0.036,-0.022,0,-0.1,0.2,-35,5.8,27.2,0.175481429,0.697836238,-0.151982177,0.677541429
870,2180451,554950,0.988,0.036,-0.022,0.1,0,0.1,-35.5,5.9,26.9,0.175481429,0.697836238,-0.151982177,0.677541429
871,2182512,554950,0.988,0.04,-0.014,0.1,0,0,-35.5,5.9,26.9,0.175481429,0.697836238,-0.151982177,0.677541429
872,2185753,554950,0.981,0.036,-0.022,0,0,0,-35.5,5.9,26.9,0.175481429,0.697836238,-0.151982177,0.677571947
873,2187689,554960,0.985,0.04,-0.018,0,0.1,0,-35.5,5.9,26.9,0.175481429,0.697836238,-0.151982177,0.677571947
874,2189502,554960,0.985,0.04,-0.022,0,0.1,0,-35.7,5.9,27.7,0.175481429,0.697836238,-0.151982177,0.677571947
875,2192733,554960,0.981,0.036,-0.018,0,0.1,0,-35.7,5.9,27.7,0.175481429,0.697836238,-0.151982177,0.677571947
876,2195885,554960,0.981,0.044,-0.014,-0.1,0.1,0,-35.7,5.9,27.7,0.175481429,0.697836238,-0.151982177,0.677571947
877,2198433,554970,0.985,0.036,-0.022,-0.1,0.1,0,-35.7,5.9,27.7,0.175481429,0.697836238,-0.151982177,0.677571947
878,2200345,554970,0.985,0.036,-0.018,-0.1,0,0,-35.3,5.7,28.3,0.175481429,0.697836238,-0.151982177,0.677571947
879,2202169,554970,0.988,0.044,-0.022,0,0,0,-35.3,5.7,28.3,0.175481429,0.697836238,-0.151982177,0.677571947
880,2204795,554970,0.988,0.04,-0.022,0,0,0,-35.3,5.7,28.3,0.175481429,0.697836238,-0.151982177,0.677571947
881,2207103,554980,0.992,0.04,-0.022,0.1,0,0,-35.3,5.7,28.3,0.175481429,0.697836238,-0.151982177,0.677571947
882,2209293,554980,0.988,0.04,-0.018,0.1,0,-0.1,-35.5,5.9,25.6,0.175481429,0.697836238,-0.151982177,0.677571947
883,2211772,554980,0.988,0.036,-0.018,0.1,0,-0.1,-35.5,5.9,25.6,0.175481429,0.697836238,-0.151982177,0.677571947
884,2215277,554980,0.988,0.036,-0.022,0,-0.1,-0.1,-35.5,5.9,25.6,0.175481429,0.697836238,-0.151982177,0.677571947
885,2217081,554990,0.988,0.04,-0.018,0,-0.1,0,-35.5,5.9,25.6,0.175481429,0.697836238,-0.151982177,0.677541429
886,2220534,554990,0.985,0.04,-0.018,-0.1,0,0,-35.7,6.1,27.7,0.175481429,0.697836238,-0.151982177,0.677541429
887,2222023,554990,0.988,0.04,-0.022,-0.1,0,0,-35.7,6.1,27.7,0.175481429,0.697836238,-0.151982177,0.677541429
888,2225270,554990,0.985,0.044,-0.022,-0.1,0,0,-35.7,6.1,27.7,0.175481429,0.697836238,-0.151982177,0.677541429
889,2227728,555000,0.981,0.04,-0.018,-0.1,0,0,-35.7,6.1,27.7,0.175511948,0.697836238,-0.151982177,0.677541429
890,2229539,555000,0.985,0.036,-0.022,0,0.1,0,-36,6.2,28,0.175511948,0.697836238,-0.151982177,0.677541429
891,2233142,555000,0.988,0.036,-0.018,0,0.1,0,-36,6.2,28,0.175511948,0.697836238,-0.151982177,0.677571947
892,2234910,555000,0.988,0.036,-0.014,0,0,0,-36,6.2,28,0.175511948,0.697836238,-0.151982177,0.677571947
893,2237602,555010,0.985,0.036,-0.014,0,0,0,-36,6.2,28,0.175511948,0.697836238,-0.151982177,0.677541429
894,2239778,555010,0.988,0.036,-0.022,0,0,0,-36,6.4,28.1,0.175511948,0.697836238,-0.151982177,0.677541429
895,2242085,555010,0.985,0.036,-0.022,0,0,0,-36,6.4,28.1,0.175511948,0.697836238,-0.151982177,0.677541429
896,2245168,555010,0.988,0.04,-0.022,0,0,0,-36,6.4,28.1,0.175511948,0.697836238,-0.151982177,0.677541429
897,2247384,555020,0.988,0.04,-0.018,0,0,0,-36,6.4,28.1,0.175511948,0.697836238,-0.151982177,0.677541429
898,2249644,555020,0.981,0.04,-0.018,0,-0.1,0,-35.7,5.8,27.5,0.175511948,0.697836238,-0.151982177,0.677541429
899,2252004,555020,0.988,0.036,-0.022,0,-0.3,0,-35.7,5.8,27.5,0.175511948,0.697836238,-0.151982177,0.677541429
900,2255619,555020,0.985,0.04,-0.022,0,-0.3,0,-35.7,5.8,27.5,0.175511948,0.697836238,-0.151982177,0.677541429
901,2257758,555030,0.985,0.036,-0.022,0,-0.2,0,-35.7,5.8,27.5,0.175511948,0.697836238,-0.151982177,0.677541429
902,2259807,555030,0.985,0.044,-0.026,0.1,-0.1,0,-35.6,5.9,26.2,0.175511948,0.697836238,-0.151982177,0.677541429
903,2262404,555030,0.985,0.032,-0.018,0.1,0,0,-35.6,5.9,26.2,0.175481429,0.697836238,-0.151982177,0.677541429
904,2264544,555030,0.985,0.04,-0.022,0.2,0,0,-35.6,5.9,26.2,0.175481429,0.697836238,-0.151982177,0.677541429
905,2266935,555040,0.988,0.04,-0.022,0.1,0.1,0,-35.6,5.9,26.2,0.175481429,0.697836238,-0.151982177,0.677541429
906,2269970,555040,0.988,0.036,-0.018,0,-0.1,0,-35.7,5.8,27.3,0.175481429,0.697897275,-0.151982177,0.67751091
907,2271835,555040,0.988,0.036,-0.018,0,-0.1,0,-35.7,5.8,27.3,0.175481429,0.697897275,-0.151982177,0.67751091
908,2274934,555040,0.985,0.036,-0.014,0,-0.3,0,-35.7,5.8,27.3,0.175481429,0.697897275,-0.151982177,0.677480392
909,2276943,555050,0.988,0.04,-0.022,0,-0.4,0,-35.7,5.8,27.3,0.175481429,0.697897275,-0.151982177,0.677480392
910,2280176,555050,0.988,0.044,-0.014,0,-0.4,0,-35.6,6.1,26.5,0.175481429,0.697897275,-0.151982177,0.677480392
911,2282453,555050,0.985,0.04,-0.018,0,-0.2,0,-35.6,6.1,26.5,0.175481429,0.697897275,-0.151982177,0.677480392
912,2284451,555050,0.981,0.04,-0.018,-0.1,0,0,-35.6,6.1,26.5,0.175481429,0.697897275,-0.151982177,0.677480392
913,2286871,555060,0.981,0.036,-0.022,-0.1,0.1,0.1,-35.6,6.1,26.5,0.175481429,0.697897275,-0.151982177,0.677480392
914,2290485,555060,0.985,0.032,-0.018,-0.1,0.1,0.1,-35.6,5.9,26.5,0.175481429,0.697897275,-0.151982177,0.677480392
915,2292701,555060,0.985,0.036,-0.022,0,0.1,0,-35.6,5.9,26.5,0.175481429,0.697897275,-0.151982177,0.677480392
916,2294396,555060,0.981,0.036,-0.022,0,0,0,-35.6,5.9,26.5,0.175481429,0.697897275,-0.151982177,0.677480392
917,2297597,555070,0.985,0.036,-0.018,0,-0.1,0,-35.6,5.9,26.5,0.175511948,0.697897275,-0.151982177,0.677480392
918,2299747,555070,0.985,0.04,-0.022,0,-0.2,0,-35.5,6.1,26.2,0.175511948,0.697897275,-0.151982177,0.677480392
919,2301973,555070,0.988,0.036,-0.022,0,-0.1,0,-35.5,6.1,26.2,0.175481429,0.697897275,-0.151982177,0.677480392
920,2304460,555070,0.988,0.036,-0.022,0,-0.1,0.2,-35.5,6.1,26.2,0.175481429,0.697897275,-0.152012696,0.677480392
921,2306942,555080,0.988,0.036,-0.022,0.1,-0.1,0.1,-35.5,6.1,26.2,0.175481429,0.697927793,-0.152012696,0.677480392
922,2310234,555080,0.988,0.04,-0.022,0.1,-0.1,0.1,-35.5,6,27.5,0.175481429,0.697927793,-0.152012696,0.677480392
923,2311825,555080,0.985,0.044,-0.018,0.1,-0.2,0,-35.5,6,27.5,0.175481429,0.697927793,-0.152012696,0.677449873
924,2314747,555080,0.988,0.036,-0.022,0,-0.2,0,-35.5,6,27.5,0.175481429,0.697927793,-0.152012696,0.677449873
925,2318081,555090,0.985,0.04,-0.018,0,-0.1,0,-35.5,6,27.5,0.175481429,0.697927793,-0.152012696,0.677449873
926,2320199,555090,0.988,0.04,-0.014,0,0.1,0,-35.6,6,26.6,0.175511948,0.697927793,-0.151982177,0.677449873
927,2322646,555090,0.988,0.04,-0.014,0,0.1,0,-35.6,6,26.6,0.175511948,0.697927793,-0.151982177,0.677449873
928,2325320,555090,0.981,0.036,-0.018,0,0.1,0,-35.6,6,26.6,0.175511948,0.697927793,-0.151982177,0.677449873
929,2326895,555100,0.981,0.04,-0.022,0,0,0,-35.6,6,26.6,0.175511948,0.697927793,-0.151982177,0.677449873
930,2330303,555100,0.985,0.04,-0.022,0,0.1,0,-35.9,5.6,26.3,0.175511948,0.697927793,-0.151982177,0.677449873
931,2332013,555100,0.985,0.04,-0.018,0,0.1,0,-35.9,5.6,26.3,0.175511948,0.697927793,-0.151982177,0.677449873
932,2334364,555100,0.985,0.036,-0.022,0,0,0,-35.9,5.6,26.3,0.175511948,0.697927793,-0.151982177,0.677449873
933,2337272,555110,0.988,0.04,-0.018,0,0,0,-35.9,5.6,26.3,0.175511948,0.697927793,-0.151982177,0.677449873
934,2340507,555110,0.988,0.036,-0.014,0,-0.1,0,-35.7,4.8,26.5,0.175511948,0.697927793,-0.151982177,0.677449873
935,2342113,555110,0.988,0.036,-0.022,0.1,-0.2,0,-35.7,4.8,26.5,0.175511948,0.697927793,-0.151982177,0.677449873
936,2344418,555110,0.988,0.036,-0.018,0.1,-0.2,0.1,-35.7,4.8,26.5,0.175481429,0.697927793,-0.151982177,0.677449873
937,2346825,555120,0.985,0.04,-0.01,0.1,-0.1,0,-35.7,4.8,26.5,0.175481429,0.697927793,-0.151982177,0.677449873
938,2350361,555120,0.985,0.04,-0.018,0,-0.1,0,-35.9,4.2,26.5,0.175481429,0.697958312,-0.151982177,0.677449873
939,2352622,555120,0.985,0.04,-0.014,0,0,0,-35.9,4.2,26.5,0.175481429,0.697958312,-0.151982177,0.677449873
940,2354898,555120,0.985,0.036,-0.022,0,0,0,-35.9,4.2,26.5,0.175481429,0.697958312,-0.151982177,0.677449873
941,2356937,555130,0.985,0.036,-0.018,0,0.1,0.1,-35.9,4.2,26.5,0.175481429,0.697927793,-0.151982177,0.677449873
942,2359726,555130,0.981,0.04,-0.014,0,0.1,0,-35.4,7.5,28.2,0.175481429,0.697927793,-0.151982177,0.677449873
943,2362076,555130,0.985,0.036,-0.022,0,0.1,0,-35.4,7.5,28.2,0.175481429,0.697927793,-0.151982177,0.677449873
944,2365822,555130,0.988,0.036,-0.018,0,0,0,-35.4,7.5,28.2,0.175481429,0.697927793,-0.151982177,0.677449873
945,2368101,555140,0.988,0.036,-0.022,0.1,-0.1,0,-35.4,7.5,28.2,0.175481429,0.697927793,-0.151982177,0.677449873
946,2370338,555140,0.985,0.036,-0.022,0,-0.3,0,-35.4,4.5,25.8,0.175481429,0.697927793,-0.151982177,0.677449873
947,2372744,555140,0.992,0.04,-0.026,0,-0.3,0,-35.4,4.5,25.8,0.175481429,0.697958312,-0.151982177,0.677449873
948,2374796,555140,0.988,0.036,-0.018,0,-0.2,0,-35.4,4.5,25.8,0.175481429,0.697958312,-0.151982177,0.677449873
949,2376850,555150,0.988,0.04,-0.026,0,-0.1,0,-35.4,4.5,25.8,0.175481429,0.697958312,-0.151982177,0.677449873
950,2380359,555150,0.988,0.036,-0.022,0,0,0,-35.2,4.9,26.2,0.175481429,0.697958312,-0.151982177,0.677449873
951,2382865,555150,0.988,0.04,-0.022,0,0,0,-35.2,4.9,26.2,0.175481429,0.697958312,-0.151982177,0.677449873
952,2385252,555150,0.985,0.032,-0.018,0,0.1,0,-35.2,4.9,26.2,0.175481429,0.697958312,-0.152012696,0.677449873
953,2387458,555160,0.985,0.04,-0.018,0,0.2,0.1,-35.2,4.9,26.2,0.175481429,0.697927793,-0.152012696,0.677449873
954,2390237,555160,0.981,0.04,-0.022,0,0.2,0,-35.3,5.5,26.2,0.175481429,0.697927793,-0.152012696,0.677449873
955,2392508,555160,0.981,0.036,-0.022,-0.1,0.2,0,-35.3,5.5,26.2,0.175481429,0.697927793,-0.152012696,0.677449873
956,2394770,555160,0.981,0.032,-0.026,0,0.2,0,-35.3,5.5,26.2,0.175481429,0.697927793,-0.152012696,0.677449873
957,2396880,555170,0.981,0.036,-0.022,0,0.2,0.1,-35.3,5.5,26.2,0.175481429,0.697927793,-0.152012696,0.677449873
958,2400884,555170,0.988,0.04,-0.018,0,0.1,0.1,-35.5,6.2,25.8,0.175481429,0.697927793,-0.152012696,0.677449873
959,2401803,555170,0.988,0.04,-0.018,0,0,0.1,-35.5,6.2,25.8,0.175481429,0.697927793,-0.152012696,0.677480392
960,2405206,555170,0.992,0.036,-0.018,0,0,0,-35.5,6.2,25.8,0.175450911,0.697927793,-0.152012696,0.677480392
961,2407575,555180,0.992,0.04,-0.022,0,-0.2,0,-35.5,6.2,25.8,0.175450911,0.697927793,-0.152012696,0.677449873
962,2409628,555180,0.988,0.04,-0.018,0,-0.4,0,-35.9,6.8,27.3,0.175450911,0.697927793,-0.152012696,0.677449873
963,2412044,555180,0.988,0.04,-0.014,0.1,-0.3,0,-35.9,6.8,27.3,0.175450911,0.697927793,-0.152012696,0.677449873
964,2414356,555180,0.985,0.04,-0.018,0.1,-0.1,0,-35.9,6.8,27.3,0.175450911,0.697927793,-0.152012696,0.677449873
965,2418865,555190,0.988,0.04,-0.018,0,0,0,-35.9,6.8,27.3,0.175450911,0.697927793,-0.152012696,0.677449873
966,2420908,555190,0.985,0.044,-0.022,0,0.2,0,-35.7,6.5,27.3,0.175481429,0.697927793,-0.151982177,0.677480392
967,2423334,555190,0.981,0.04,-0.018,0,0.2,0,-35.7,6.5,27.3,0.175481429,0.697927793,-0.151982177,0.677480392
968,2425405,555190,0.981,0.04,-0.022,0,0.2,0,-35.7,6.5,27.3,0.175481429,0.697897275,-0.151982177,0.677480392
969,2427137,555200,0.981,0.036,-0.018,0,0.1,0,-35.7,6.5,27.3,0.175481429,0.697897275,-0.151982177,0.677480392
970,2430265,555200,0.977,0.036,-0.022,0,0.1,-0.1,-35.6,6.4,27.5,0.175481429,0.697897275,-0.151982177,0.677480392
971,2433336,555200,0.985,0.036,-0.01,0,0.2,-0.1,-35.6,6.4,27.5,0.175511948,0.697897275,-0.151982177,0.677480392
972,2435525,555200,0.985,0.04,-0.022,0,0.1,-0.1,-35.6,6.4,27.5,0.175511948,0.697897275,-0.151982177,0.677480392
973,2436945,555210,0.985,0.036,-0.022,0,0,0,-35.6,6.4,27.5,0.175511948,0.697897275,-0.151982177,0.677480392
974,2439921,555210,0.988,0.044,-0.022,0,0,0,-35.7,6.9,27.4,0.175511948,0.697897275,-0.151951659,0.677480392
975,2442061,555210,0.988,0.036,-0.018,0.1,-0.1,0,-35.7,6.9,27.4,0.175511948,0.697897275,-0.151951659,0.677480392
976,2445163,555210,0.988,0.04,-0.018,0,0,0,-35.7,6.9,27.4,0.175511948,0.697897275,-0.151951659,0.677480392
977,2447653,555220,0.996,0.04,-0.022,0,-0.1,0,-35.7,6.9,27.4,0.175481429,0.697897275,-0.151951659,0.677480392
978,2449469,555220,0.985,0.04,-0.018,0,0,0,-35.8,6.6,27.2,0.175481429,0.697897275,-0.151951659,0.677480392
979,2451930,555220,0.985,0.04,-0.022,0,0.1,0,-35.8,6.6,27.2,0.175481429,0.697897275,-0.151951659,0.677480392
980,2454245,555220,0.985,0.036,-0.018,0,0.2,-0.1,-35.8,6.6,27.2,0.175511948,0.697897275,-0.151951659,0.677480392
981,2458528,555230,0.988,0.036,-0.022,0,0.2,0,-35.8,6.6,27.2,0.175511948,0.697897275,-0.151951659,0.677480392
982,2460124,555230,0.985,0.04,-0.018,0,0.2,0,-35.5,5.4,27.3,0.175511948,0.697897275,-0.151951659,0.67751091
983,2462136,555230,0.981,0.04,-0.018,0.1,0.3,0,-35.5,5.4,27.3,0.175511948,0.697897275,-0.151951659,0.67751091
984,2464327,555230,0.985,0.04,-0.022,0.1,0.3,0,-35.5,5.4,27.3,0.175511948,0.697866756,-0.151951659,0.67751091
985,2468672,555240,0.985,0.04,-0.022,0,0.2,0,-35.5,5.4,27.3,0.175511948,0.697866756,-0.151951659,0.67751091
986,2471016,555240,0.988,0.036,-0.018,0,0,-0.1,-36,6.4,27.2,0.175511948,0.697897275,-0.15192114,0.67751091
987,2472964,555240,0.988,0.036,-0.018,0,0,-0.1,-36,6.4,27.2,0.175511948,0.697897275,-0.15192114,0.67751091
988,2474405,555240,0.985,0.04,-0.018,0,0,0,-36,6.4,27.2,0.175511948,0.697897275,-0.15192114,0.67751091
989,2477844,555250,0.988,0.036,-0.018,0,0,0,-36,6.4,27.2,0.175511948,0.697897275,-0.15192114,0.67751091
990,2480669,555250,0.988,0.04,-0.018,0,0,0.1,-36.7,6.8,27.4,0.175511948,0.697897275,-0.15192114,0.67751091
991,2482749,555250,0.988,0.04,-0.018,0,0,0,-36.7,6.8,27.4,0.175511948,0.697897275,-0.15192114,0.67751091
992,2485011,555250,0.988,0.044,-0.018,0,0,0,-36.7,6.8,27.4,0.175511948,0.697897275,-0.15192114,0.67751091
993,2487297,555260,0.988,0.044,-0.018,0,0,0,-36.7,6.8,27.4,0.175511948,0.697897275,-0.15192114,0.67751091
994,2490022,555260,0.988,0.04,-0.018,0,0,-0.1,-37.3,7.1,27.4,0.175511948,0.697897275,-0.15192114,0.67751091
995,2492174,555260,0.985,0.036,-0.014,0,0.1,-0.1,-37.3,7.1,27.4,0.175511948,0.697897275,-0.15192114,0.67751091
996,2495608,555260,0.988,0.044,-0.018,0,0,-0.1,-37.3,7.1,27.4,0.175511948,0.697897275,-0.15192114,0.67751091
997,2497305,555270,0.985,0.036,-0.022,0.1,0,-0.1,-37.3,7.1,27.4,0.175511948,0.697897275,-0.15192114,0.67751091
998,2499396,555270,0.985,0.04,-0.022,0.1,-0.1,-0.1,-37.8,6.9,27.3,0.175511948,0.697897275,-0.15192114,0.67751091
999,2503491,555270,0.981,0.036,-0.014,0,-0.1,0,-37.8,6.9,27.3,0.175511948,0.697897275,-0.15192114,0.67751091
1000,2505579,555270,0.988,0.04,-0.026,0,-0.1,0.1,-37.8,6.9,27.3,0.175511948,0.697897275,-0.15192114,0.67751091
1001,2507440,555280,0.985,0.032,-0.022,0,0,0.1,-37.8,6.9,27.3,0.175511948,0.697897275,-0.15192114,0.67751091
1002,2509383,555280,0.988,0.04,-0.022,0,0,0.1,-37.8,6.9,27.3,0.175511948,0.697897275,-0.15192114,0.67751091
1003,2512566,555280,0.988,0.04,-0.018,0,-0.1,0.1,-37.8,6.9,27.3,0.175511948,0.697897275,-0.15192114,0.677480392
1004,2514850,555280,0.992,0.04,-0.018,0,-0.1,0,-37.8,6.9,27.3,0.175511948,0.697897275,-0.15192114,0.677480392
1005,2516928,555290,0.985,0.036,-0.022,0,0,0,-37.8,6.9,27.3,0.175511948,0.697897275,-0.15192114,0.677480392
1006,2519283,555290,0.985,0.04,-0.022,0,0,0,-37.1,7.3,27.2,0.175511948,0.697897275,-0.15192114,0.677480392
1007,2523311,555290,0.988,0.036,-0.022,0,0,0,-37.1,7.3,27.2,0.175511948,0.697897275,-0.15192114,0.677480392
1008,2524301,555290,0.988,0.04,-0.018,0.1,0,0,-37.1,7.3,27.2,0.175511948,0.697897275,-0.15192114,0.677480392
1009,2527738,555300,0.988,0.04,-0.018,0.1,0,0,-37.1,7.3,27.2,0.175511948,0.697897275,-0.15192114,0.677480392
1010,2529717,555300,0.985,0.036,-0.018,0.1,0,0,-37,7.1,26.9,0.175511948,0.697897275,-0.15192114,0.677480392
1011,2531898,555300,0.985,0.036,-0.018,0,0,0,-37,7.1,26.9,0.175511948,0.697897275,-0.15192114,0.677480392
1012,2534932,555300,0.988,0.04,-0.022,0,0,0,-37,7.1,26.9,0.175511948,0.697897275,-0.15192114,0.677480392
1013,2536923,555310,0.985,0.036,-0.014,0,0,-0.1,-37,7.1,26.9,0.175511948,0.697897275,-0.15192114,0.677480392
1014,2540067,555310,0.988,0.04,-0.018,0,0,-0.1,-36.6,7.3,27.1,0.175511948,0.697897275,-0.151890622,0.677480392
1015,2542461,555310,0.985,0.032,-0.022,0,0,-0.1,-36.6,7.3,27.1,0.175511948,0.697897275,-0.151890622,0.677480392
1016,2544443,555310,0.988,0.036,-0.018,0,0,0,-36.6,7.3,27.1,0.175511948,0.697897275,-0.151890622,0.677480392
1017,2547653,555320,0.985,0.036,-0.014,0,0,0,-36.6,7.3,27.1,0.175511948,0.697897275,-0.151890622,0.677480392
1018,2549284,555320,0.985,0.036,-0.018,0.1,-0.1,0,-35.6,7.5,27.2,0.175511948,0.697897275,-0.151890622,0.677480392
1019,2551889,555320,0.985,0.04,-0.018,0.1,-0.1,0,-35.6,7.5,27.2,0.175511948,0.697897275,-0.151890622,0.677480392
1020,2554427,555320,0.985,0.04,-0.022,0,0,0,-35.6,7.5,27.2,0.175511948,0.697927793,-0.151890622,0.677480392
1021,2558044,555330,0.985,0.04,-0.022,0,0,0,-35.6,7.5,27.2,0.175511948,0.697927793,-0.151890622,0.677480392
1022,2559693,555330,0.988,0.036,-0.018,0,0,0,-35.6,7.5,27.2,0.175511948,0.697897275,-0.151890622,0.677480392
1023,2561872,555330,0.988,0.036,-0.022,0,0,0,-35.6,7.5,27.2,0.175511948,0.697897275,-0.151890622,0.677480392
1024,2564258,555330,0.985,0.04,-0.026,0,0,0,-35.6,7.5,27.2,0.175511948,0.697897275,-0.151890622,0.677480392
1025,2567116,555340,0.985,0.04,-0.018,0.1,0.1,0.1,-35.6,7.5,27.2,0.175511948,0.697897275,-0.151890622,0.677480392
1026,2569379,555340,0.988,0.036,-0.018,0.1,0.1,0.1,-36.1,5.8,27.1,0.175511948,0.697927793,-0.151890622,0.677480392
1027,2572087,555340,0.988,0.036,-0.026,0.1,0.1,0.1,-36.1,5.8,27.1,0.175511948,0.697927793,-0.151890622,0.677480392
1028,2575363,555340,0.992,0.044,-0.018,0,0.1,0,-36.1,5.8,27.1,0.175511948,0.697927793,-0.151890622,0.677480392
1029,2577634,555350,0.985,0.04,-0.018,0,0.2,0,-36.1,5.8,27.1,0.175511948,0.697927793,-0.151890622,0.677480392
1030,2579953,555350,0.988,0.04,-0.018,0,0.3,-0.1,-35.9,5.9,27.2,0.175511948,0.697927793,-0.151890622,0.677480392
1031,2582151,555350,0.985,0.04,-0.014,0,0.3,0,-35.9,5.9,27.2,0.175511948,0.697897275,-0.151890622,0.677480392
1032,2584377,555350,0.988,0.04,-0.022,0,0.1,0,-35.9,5.9,27.2,0.175511948,0.697897275,-0.151890622,0.67751091
1033,2587056,555360,0.988,0.04,-0.018,0,0,0,-35.9,5.9,27.2,0.175511948,0.697897275,-0.151890622,0.67751091
1034,2590408,555360,0.988,0.04,-0.022,0,0,0,-35.8,6.1,27.2,0.175511948,0.697897275,-0.151890622,0.67751091
1035,2592671,555360,0.985,0.036,-0.022,0,-0.1,0,-35.8,6.1,27.2,0.175511948,0.697897275,-0.151890622,0.67751091
1036,2594960,555360,0.985,0.04,-0.018,0,0,0.1,-35.8,6.1,27.2,0.175511948,0.697897275,-0.151890622,0.67751091
1037,2597166,555370,0.985,0.04,-0.022,0,0,0.1,-35.8,6.1,27.2,0.175511948,0.697897275,-0.151890622,0.67751091
1038,2599538,555370,0.992,0.036,-0.018,-0.1,0,0.1,-35.7,6.2,27.6,0.175511948,0.697897275,-0.151890622,0.67751091
1039,2602066,555370,0.988,0.036,-0.018,0,0,0,-35.7,6.2,27.6,0.175511948,0.697897275,-0.151890622,0.67751091
1040,2605461,555370,0.988,0.04,-0.014,0,0,-0.1,-35.7,6.2,27.6,0.175511948,0.697897275,-0.151890622,0.67751091
1041,2607715,555380,0.985,0.036,-0.018,0,0,-0.2,-35.7,6.2,27.6,0.175511948,0.697897275,-0.151890622,0.677480392
1042,2609962,555380,0.992,0.036,-0.018,0,-0.1,-0.1,-35.7,6.2,27.6,0.175511948,0.697897275,-0.151890622,0.677480392
1043,2612295,555380,0.988,0.036,-0.018,0,-0.1,0,-35.7,6.2,27.6,0.175511948,0.697897275,-0.151890622,0.677480392
1044,2614435,555380,0.988,0.032,-0.018,0,-0.1,0,-35.7,6.2,27.6,0.175511948,0.697927793,-0.151890622,0.677480392
1045,2617114,555390,0.985,0.04,-0.018,-0.1,0,0,-35.7,6.2,27.6,0.175511948,0.697927793,-0.151890622,0.677480392
1046,2620459,555390,0.985,0.04,-0.022,-0.1,0,0,-34.8,6,27.6,0.175511948,0.697897275,-0.15192114,0.67751091
1047,2622675,555390,0.985,0.04,-0.022,-0.1,0.1,0,-34.8,6,27.6,0.175511948,0.697897275,-0.15192114,0.67751091
1048,2624900,555390,0.985,0.04,-0.018,0,0,-0.1,-34.8,6,27.6,0.175511948,0.697897275,-0.15192114,0.67751091
1049,2627142,555400,0.985,0.04,-0.018,0,0,-0.1,-34.8,6,27.6,0.175511948,0.697897275,-0.15192114,0.67751091
1050,2629364,555400,0.985,0.036,-0.018,0,-0.1,-0.1,-34.8,5.7,27.4,0.175511948,0.697897275,-0.15192114,0.67751091
1051,2632043,555400,0.981,0.036,-0.018,0,-0.1,0,-34.8,5.7,27.4,0.175511948,0.697897275,-0.15192114,0.67751091
1052,2635369,555400,0.985,0.04,-0.026,0,-0.2,0,-34.8,5.7,27.4,0.175511948,0.697897275,-0.15192114,0.67751091
1053,2637196,555410,0.992,0.036,-0.018,0,-0.2,0,-34.8,5.7,27.4,0.175511948,0.697897275,-0.15192114,0.677480392
1054,2639321,555410,0.985,0.04,-0.022,0,-0.2,0,-34.7,6.1,27.3,0.175511948,0.697897275,-0.15192114,0.677480392
1055,2643096,555410,0.985,0.04,-0.018,0,-0.1,0,-34.7,6.1,27.3,0.175511948,0.697897275,-0.15192114,0.677480392
1056,2645333,555410,0.988,0.04,-0.022,0,-0.1,0,-34.7,6.1,27.3,0.175511948,0.697897275,-0.15192114,0.677480392
1057,2647571,555420,0.992,0.04,-0.018,0,-0.1,0,-34.7,6.1,27.3,0.175511948,0.697897275,-0.15192114,0.677480392
1058,2649885,555420,0.988,0.04,-0.022,0,-0.1,0,-34.5,5.9,27.1,0.175511948,0.697927793,-0.15192114,0.677480392
1059,2651929,555420,0.985,0.036,-0.014,0,0,0,-34.5,5.9,27.1,0.175511948,0.697927793,-0.15192114,0.677480392
1060,2655157,555420,0.981,0.04,-0.014,0,0,0.1,-34.5,5.9,27.1,0.175511948,0.697927793,-0.15192114,0.677480392
1061,2656914,555430,0.985,0.04,-0.022,0,0.1,0.1,-34.5,5.9,27.1,0.175511948,0.697897275,-0.15192114,0.677480392
1062,2660449,555430,0.981,0.04,-0.018,0,0.2,0,-34.5,5.9,27.1,0.175511948,0.697897275,-0.15192114,0.677480392
1063,2662702,555430,0.985,0.036,-0.018,0,0.1,-0.1,-34.5,5.9,27.1,0.175511948,0.697897275,-0.15192114,0.677480392
1064,2665589,555430,0.985,0.04,-0.026,0,0,0,-34.5,5.9,27.1,0.175511948,0.697897275,-0.15192114,0.677480392
1065,2666763,555440,0.985,0.036,-0.022,0,0,0,-34.5,5.9,27.1,0.175511948,0.697897275,-0.15192114,0.677480392
1066,2669892,555440,0.988,0.04,-0.022,0,0,0,-34.4,6.2,27,0.175511948,0.697927793,-0.15192114,0.677480392
1067,2672653,555440,0.988,0.04,-0.018,0.1,0,0,-34.4,6.2,27,0.175511948,0.697927793,-0.15192114,0.677480392
1068,2674401,555440,0.988,0.04,-0.018,0.1,0.1,0,-34.4,6.2,27,0.175511948,0.697927793,-0.15192114,0.677480392
1069,2678092,555450,0.988,0.036,-0.018,0,0,0,-34.4,6.2,27,0.175481429,0.697927793,-0.15192114,0.677480392
1070,2680346,555450,0.985,0.036,-0.022,0,0,0.1,-34.5,5.7,27,0.175481429,0.697927793,-0.15192114,0.677480392
1071,2681990,555450,0.985,0.04,-0.026,0,0,0,-34.5,5.7,27,0.175481429,0.697927793,-0.15192114,0.677480392
1072,2685209,555450,0.988,0.036,-0.018,0,0.1,-0.1,-34.5,5.7,27,0.175481429,0.697927793,-0.15192114,0.677480392
1073,2687687,555460,0.985,0.036,-0.018,0,0.2,-0.1,-34.5,5.7,27,0.175511948,0.697927793,-0.15192114,0.677480392
1074,2689556,555460,0.981,0.04,-0.022,0,0.3,0,-34.3,6.1,26.9,0.175511948,0.697897275,-0.15192114,0.677480392
1075,2692649,555460,0.985,0.036,-0.018,0,0.4,0,-34.3,6.1,26.9,0.175511948,0.697897275,-0.15192114,0.67751091
1076,2695774,555460,0.981,0.04,-0.022,0,0.2,0.1,-34.3,6.1,26.9,0.175511948,0.697897275,-0.15192114,0.67751091
1077,2697315,555470,0.981,0.04,-0.014,0,0.1,0,-34.3,6.1,26.9,0.175511948,0.697897275,-0.15192114,0.67751091
1078,2699635,555470,0.981,0.04,-0.018,0,0,0,-34.7,6.1,27,0.175511948,0.697897275,-0.15192114,0.67751091
1079,2701859,555470,0.981,0.036,-0.018,0,-0.1,0,-34.7,6.1,27,0.175511948,0.697897275,-0.15192114,0.67751091
1080,2705697,555470,0.985,0.036,-0.014,0,0,0,-34.7,6.1,27,0.175511948,0.697897275,-0.15192114,0.67751091
1081,2706809,555480,0.988,0.04,-0.018,0,0,0,-34.7,6.1,27,0.175511948,0.697897275,-0.15192114,0.67751091
1082,2710110,555480,0.988,0.04,-0.018,0,0,0,-34.7,6.1,27,0.175511948,0.697897275,-0.15192114,0.67751091
1083,2712316,555480,0.988,0.04,-0.022,0,-0.1,0,-34.7,6.1,27,0.175511948,0.697897275,-0.15192114,0.67751091
1084,2714550,555480,0.988,0.036,-0.014,0,-0.1,0,-34.7,6.1,27,0.175511948,0.697897275,-0.15192114,0.677480392
1085,2716871,555490,0.992,0.04,-0.018,0,0,0,-34.7,6.1,27,0.175511948,0.697897275,-0.15192114,0.677480392
1086,2720447,555490,0.985,0.04,-0.022,0,0,0,-35.8,6.1,27.2,0.175511948,0.697897275,-0.151890622,0.67751091
1087,2722781,555490,0.985,0.036,-0.018,0,0.1,0,-35.8,6.1,27.2,0.175511948,0.697897275,-0.151890622,0.67751091
1088,2725118,555490,0.985,0.04,-0.022,0,0.2,0,-35.8,6.1,27.2,0.175511948,0.697897275,-0.151890622,0.67751091
1089,2727366,555500,0.981,0.04,-0.022,0,0.2,0,-35.8,6.1,27.2,0.175511948,0.697897275,-0.15192114,0.67751091
1090,2729501,555500,0.985,0.036,-0.018,0,0.2,0.1,-35.7,6.2,28,0.175511948,0.697866756,-0.15192114,0.67751091
1091,2732857,555500,0.985,0.036,-0.022,0,0.2,0,-35.7,6.2,28,0.175511948,0.697866756,-0.15192114,0.67751091
1092,2734243,555500,0.985,0.036,-0.022,0,0.2,0.1,-35.7,6.2,28,0.175511948,0.697866756,-0.15192114,0.67751091
1093,2738095,555510,0.985,0.04,-0.018,0,0,0,-35.7,6.2,28,0.175511948,0.697866756,-0.15192114,0.677541429
1094,2740275,555510,0.985,0.036,-0.018,0,-0.1,0,-35.9,6.3,27.9,0.175511948,0.697866756,-0.15192114,0.67751091
1095,2741828,555510,0.988,0.04,-0.018,0,-0.3,0,-35.9,6.3,27.9,0.175511948,0.697866756,-0.15192114,0.67751091
1096,2745636,555510,0.985,0.036,-0.022,0,-0.3,0,-35.9,6.3,27.9,0.175511948,0.697897275,-0.15192114,0.67751091
1097,2747888,555520,0.985,0.04,-0.022,0,-0.3,0,-35.9,6.3,27.9,0.175511948,0.697897275,-0.15192114,0.67751091
1098,2750155,555520,0.988,0.04,-0.026,0,-0.2,0,-35.2,6.4,28.9,0.175511948,0.697897275,-0.15192114,0.67751091
1099,2752427,555520,0.985,0.04,-0.022,0,-0.1,0,-35.2,6.4,28.9,0.175511948,0.697897275,-0.15192114,0.67751091
