sample_index,elapsed_us,device_time_ms,acc_x_g,acc_y_g,acc_z_g,gyro_x_dps,gyro_y_dps,gyro_z_dps,mag_x_ut,mag_y_ut,mag_z_ut,quat_w,quat_x,quat_y,quat_z
0,3712,632590,-0.566,-0.627,0.56,2.7,5.6,0,4.7,-3.1,-25.2,0.494430372,0.0651570177,0.475692007,-0.724539933
1,7018,632600,-0.562,-0.627,0.56,2.8,5.7,-0.2,4.7,-3.1,-25.2,0.494369335,0.0652790918,0.475692007,-0.724570452
2,9220,632600,-0.566,-0.627,0.556,2.8,5.7,-0.3,4.7,-3.1,-25.2,0.494308298,0.0654011658,0.475722526,-0.72460097
3,11490,632600,-0.566,-0.627,0.556,2.9,5.9,-0.4,4.7,-3.1,-25.2,0.494216742,0.0655232398,0.475753044,-0.72460097
4,13748,632600,-0.566,-0.627,0.556,2.9,5.9,-0.4,4.7,-3.1,-25.2,0.494216742,0.0655232398,0.475753044,-0.72460097
5,16355,632610,-0.566,-0.623,0.552,3.1,6,-0.5,4.4,-3.6,-25.9,0.494155705,0.0657368694,0.475569933,-0.724753563
6,19665,632610,-0.57,-0.623,0.548,3.2,6,-0.6,4.4,-3.6,-25.9,0.49406415,0.0658589434,0.475569933,-0.7248146
7,21132,632610,-0.566,-0.615,0.552,3.1,6,-0.8,4.4,-3.6,-25.9,0.493972594,0.0659810175,0.475600452,-0.724845119
8,23837,632610,-0.562,-0.615,0.552,3.1,6,-1,4.4,-3.4,-26.1,0.493911557,0.0661030915,0.475600452,-0.724875637
9,26060,632620,-0.562,-0.619,0.548,3.2,5.9,-1,4.4,-3.4,-26.1,0.493820002,0.0662251656,0.47563097,-0.724906156
10,30181,632620,-0.562,-0.615,0.548,3.4,6,-1,4.4,-3.4,-26.1,0.493728446,0.0663472396,0.47563097,-0.724936674
11,32660,632620,-0.566,-0.615,0.548,3.5,6,-1,4.4,-3.4,-26.1,0.493636891,0.0664693136,0.47563097,-0.724997711
12,34749,632620,-0.566,-0.615,0.548,3.4,6.1,-1.1,4.5,-3.8,-25.7,0.493545335,0.0665913877,0.475661489,-0.72502823
13,36576,632630,-0.566,-0.615,0.544,3.4,6.2,-1.3,4.5,-3.8,-25.7,0.493484298,0.0667134617,0.475661489,-0.725058748
14,39105,632630,-0.566,-0.619,0.548,3.2,6.2,-1.5,4.5,-3.8,-25.7,0.493362224,0.0668355358,0.475692007,-0.725119785
15,42248,632630,-0.562,-0.623,0.556,3,6.3,-1.7,4.5,-3.8,-25.7,0.493270669,0.0669270913,0.475722526,-0.725150304
16,43804,632630,-0.566,-0.627,0.556,2.8,6.4,-1.9,4.5,-3.8,-25.7,0.493179113,0.0670491653,0.475753044,-0.725180822
17,47321,632640,-0.562,-0.623,0.548,2.8,6.5,-2.2,4.5,-3.8,-25.7,0.493057039,0.0671712394,0.475783563,-0.725241859
18,48914,632640,-0.566,-0.627,0.552,2.9,6.5,-2.5,4.5,-3.8,-25.7,0.492965484,0.0672627949,0.475783563,-0.725272378
19,52028,632640,-0.562,-0.627,0.548,3,6.5,-2.7,4.5,-3.8,-25.7,0.49284341,0.0673848689,0.475814081,-0.725333415
20,53735,632640,-0.562,-0.627,0.548,3,6.4,-2.8,5.1,-3.6,-25,0.492721335,0.0674764245,0.4758446,-0.725394452
21,56513,632650,-0.566,-0.627,0.544,3.1,6.5,-2.9,5.1,-3.6,-25,0.492599261,0.0675984985,0.475875118,-0.725455489
22,60124,632650,-0.566,-0.627,0.54,3.2,6.7,-3,5.1,-3.6,-25,0.492477187,0.0677205725,0.475905637,-0.725486007
23,61493,632650,-0.562,-0.627,0.54,3.1,6.8,-3.2,5.1,-3.6,-25,0.492355113,0.0678121281,0.475936155,-0.725547044
24,65285,632650,-0.562,-0.627,0.54,3.1,6.8,-3.2,5.1,-3.6,-25,0.492355113,0.0678121281,0.475936155,-0.725547044
25,66719,632660,-0.562,-0.623,0.544,2.9,6.8,-3.4,4.9,-3.9,-25.1,0.492110965,0.0679647206,0.475905637,-0.725730155
26,69820,632660,-0.566,-0.623,0.54,2.9,7,-3.4,4.9,-3.9,-25.1,0.491958373,0.0680867946,0.475936155,-0.725760674
27,72019,632660,-0.562,-0.623,0.544,2.9,7.2,-3.3,4.9,-3.9,-25.1,0.491836299,0.0682088687,0.475997192,-0.725821711
28,74201,632660,-0.57,-0.623,0.54,3,7.3,-3.3,5.2,-3.9,-25.1,0.491714225,0.0683004242,0.476027711,-0.725882748
29,76534,632670,-0.566,-0.623,0.54,3.2,7.4,-3.2,5.2,-3.9,-25.1,0.491561632,0.0684224982,0.476058229,-0.725943785
30,79018,632670,-0.57,-0.615,0.54,3.2,7.3,-3.1,5.2,-3.9,-25.1,0.491439558,0.0685445723,0.476088748,-0.726004822
31,81120,632670,-0.57,-0.623,0.536,3.2,7.2,-3.1,5.2,-3.9,-25.1,0.491317484,0.0686666463,0.476119266,-0.726065859
32,84936,632670,-0.57,-0.619,0.544,3.2,6.9,-3,5.3,-3.6,-24.9,0.49119541,0.0687887204,0.476149785,-0.726126896
33,87041,632680,-0.57,-0.619,0.529,3.2,6.9,-2.9,5.3,-3.6,-24.9,0.491042817,0.0688802759,0.476180303,-0.726157414
34,88749,632680,-0.57,-0.619,0.532,3.2,6.8,-2.8,5.3,-3.6,-24.9,0.490920743,0.0690023499,0.476210822,-0.726218451
35,91070,632680,-0.574,-0.627,0.529,3.2,6.9,-2.7,5.3,-3.6,-24.9,0.490829188,0.069124424,0.476210822,-0.726279489
36,93879,632680,-0.57,-0.619,0.529,3.1,7,-2.5,3.2,-3.9,-25,0.490707114,0.069246498,0.47624134,-0.726340526
37,97034,632690,-0.57,-0.623,0.532,3.1,7,-2.4,3.2,-3.9,-25,0.49058504,0.069368572,0.476271859,-0.726371044
38,99199,632690,-0.57,-0.623,0.536,3.1,7,-2.2,3.2,-3.9,-25,0.490462966,0.0694906461,0.476302377,-0.726432081
39,101420,632690,-0.574,-0.623,0.537,3,7,-2.2,3.2,-3.9,-25,0.490340892,0.0696127201,0.476332896,-0.7264626
40,104802,632690,-0.574,-0.635,0.537,2.9,7.1,-2.1,6.7,-3.8,-24.9,0.490249336,0.0697347942,0.476363414,-0.726523637
41,106838,632700,-0.578,-0.631,0.537,2.9,7.3,-2,6.7,-3.8,-24.9,0.490127262,0.0698568682,0.476424451,-0.726554155
42,109093,632700,-0.574,-0.631,0.54,2.9,7.3,-1.9,6.7,-3.8,-24.9,0.490005188,0.0699789422,0.47645497,-0.726584674
43,111501,632700,-0.578,-0.639,0.537,3,7.3,-1.8,6.7,-3.8,-24.9,0.489913633,0.0701010163,0.476485488,-0.726615192
44,113841,632700,-0.578,-0.639,0.537,3,7.3,-1.8,6.7,-3.8,-24.9,0.489913633,0.0701010163,0.476485488,-0.726615192
45,116082,632710,-0.582,-0.635,0.541,2.8,7.1,-1.6,6.6,-3.7,-25,0.489669485,0.0703756829,0.476607562,-0.726676229
46,119863,632710,-0.578,-0.627,0.537,2.8,7,-1.6,6.6,-3.7,-25,0.489577929,0.0704977569,0.476638081,-0.726706748
47,121981,632710,-0.574,-0.627,0.537,2.8,7,-1.5,6.6,-3.7,-25,0.489486373,0.0706198309,0.4766686,-0.726737266
48,124107,632710,-0.578,-0.623,0.533,2.8,7,-1.6,6.6,-3.7,-25,0.489364299,0.0707724235,0.476699118,-0.726798303
49,126332,632720,-0.578,-0.623,0.537,2.9,6.8,-1.5,6.6,-3.7,-25,0.489272744,0.0708944975,0.476729637,-0.726828822
50,129453,632720,-0.578,-0.615,0.533,3,6.6,-1.4,6.6,-3.7,-25,0.489181188,0.0710165716,0.476760155,-0.72685934
51,131336,632720,-0.582,-0.619,0.533,3,6.5,-1.4,6.6,-3.7,-25,0.489089633,0.0711386456,0.476760155,-0.726889859
52,134613,632720,-0.582,-0.615,0.529,3,6.3,-1.4,6.8,-3.6,-25,0.488967559,0.0712302011,0.476790674,-0.726920377
53,136252,632730,-0.578,-0.615,0.529,2.8,6.2,-1.4,6.8,-3.6,-25,0.488876003,0.0713522752,0.476821192,-0.726981414
54,138897,632730,-0.582,-0.615,0.525,2.7,6.1,-1.5,6.8,-3.6,-25,0.488753929,0.0714743492,0.476851711,-0.727011933
55,141113,632730,-0.582,-0.611,0.529,2.7,6,-1.6,6.8,-3.6,-25,0.488692892,0.0715659047,0.476851711,-0.727042451
56,144202,632730,-0.582,-0.615,0.533,2.7,5.9,-1.5,5.2,-3.9,-25,0.488601337,0.0716879788,0.476882229,-0.72707297
57,146056,632740,-0.574,-0.615,0.529,2.8,5.9,-1.4,5.2,-3.9,-25,0.488509781,0.0718100528,0.476912748,-0.727103488
58,148658,632740,-0.578,-0.615,0.533,2.9,5.9,-1.3,5.2,-3.9,-25,0.488448744,0.0718710898,0.476912748,-0.727164525
59,151771,632740,-0.578,-0.615,0.525,2.8,5.8,-1.2,5.2,-3.9,-25,0.488357189,0.0720236824,0.476943266,-0.727195044
60,154774,632740,-0.578,-0.615,0.521,2.6,5.8,-1.3,5,-4.2,-24.6,0.488265633,0.0721152379,0.476973785,-0.727225562
61,156336,632750,-0.582,-0.615,0.521,2.3,5.7,-1.3,5,-4.2,-24.6,0.488174078,0.0722373119,0.477004303,-0.727256081
62,159206,632750,-0.582,-0.615,0.525,1.9,5.8,-1.3,5,-4.2,-24.6,0.488082522,0.0723288675,0.477034822,-0.727256081
63,162262,632750,-0.582,-0.607,0.525,1.5,5.7,-1.2,5,-4.2,-24.6,0.488021485,0.072420423,0.477034822,-0.727286599
64,163798,632750,-0.582,-0.607,0.525,1.5,5.7,-1.2,5,-4.2,-24.6,0.488021485,0.072420423,0.477034822,-0.727286599
65,166652,632760,-0.582,-0.611,0.529,1.2,5.5,-1.1,4.4,-3.9,-24.7,0.487899411,0.0727866451,0.477187414,-0.727256081
66,170390,632760,-0.582,-0.607,0.529,1,5.4,-1,4.4,-3.9,-24.7,0.487838374,0.0728476821,0.477248451,-0.727256081
67,172728,632760,-0.586,-0.615,0.529,0.9,5.4,-0.9,4.4,-3.9,-24.7,0.487746818,0.0729392376,0.47727897,-0.727256081
68,174795,632760,-0.59,-0.611,0.525,0.7,5.4,-0.9,2.7,-4.3,-24.8,0.487685781,0.0730307932,0.477340007,-0.727286599
69,176630,632770,-0.586,-0.615,0.529,0.6,5.4,-1,2.7,-4.3,-24.8,0.487594226,0.0731223487,0.477370525,-0.727286599
70,178950,632770,-0.586,-0.619,0.533,0.5,5.3,-1,2.7,-4.3,-24.8,0.487533189,0.0732139042,0.477431562,-0.727286599
71,181130,632770,-0.586,-0.619,0.529,0.4,5.1,-0.9,2.7,-4.3,-24.8,0.487472152,0.0732749413,0.477462081,-0.727317118
72,184190,632770,-0.59,-0.623,0.537,0.4,5.1,-0.9,2,-4,-24.6,0.487380596,0.0733359783,0.477523118,-0.727317118
73,186471,632780,-0.586,-0.623,0.525,0.4,5,-1,2,-4,-24.6,0.487319559,0.0734275338,0.477584155,-0.727317118
74,188969,632780,-0.59,-0.623,0.533,0.3,5.1,-1,2,-4,-24.6,0.487258522,0.0734885708,0.477614673,-0.727317118
75,191239,632780,-0.59,-0.623,0.533,0.2,5,-0.9,2,-4,-24.6,0.487197485,0.0735801263,0.47767571,-0.727317118
76,195452,632780,-0.59,-0.623,0.533,0.3,4.9,-0.9,6.4,-5.2,-25,0.48710593,0.0736411634,0.477736747,-0.727347636
77,196127,632790,-0.594,-0.623,0.533,0.2,4.7,-0.9,6.4,-5.2,-25,0.487044893,0.0737327189,0.477767266,-0.727347636
78,198886,632790,-0.59,-0.623,0.537,0.3,4.5,-0.9,6.4,-5.2,-25,0.486983856,0.0737937559,0.477828303,-0.727347636
79,202426,632790,-0.594,-0.623,0.541,0.4,4.4,-0.9,6.4,-5.2,-25,0.486922819,0.0738242744,0.477858821,-0.727347636
80,204587,632790,-0.59,-0.627,0.541,0.5,4.3,-0.9,3.2,-3,-24.9,0.486861782,0.07391583,0.47788934,-0.727378155
81,206283,632800,-0.59,-0.623,0.537,0.8,4.3,-1.1,3.2,-3,-24.9,0.486800745,0.073976867,0.477919858,-0.727378155
82,210283,632800,-0.586,-0.634,0.537,1,4.2,-1.1,3.2,-3,-24.9,0.486739708,0.074037904,0.477950377,-0.727378155
83,212512,632800,-0.59,-0.634,0.537,1.2,4.1,-0.9,3.2,-3,-24.9,0.486678671,0.0741294595,0.477980895,-0.727408673
84,214948,632800,-0.59,-0.634,0.537,1.2,4.1,-0.9,3.2,-3,-24.9,0.486678671,0.0741294595,0.477980895,-0.727408673
85,217881,632810,-0.59,-0.63,0.533,1.3,3.9,-0.9,3.7,-3,-24.7,0.486587115,0.0743125706,0.478011414,-0.727408673
86,220003,632810,-0.594,-0.63,0.533,1.3,3.8,-0.9,3.7,-3,-24.7,0.486556597,0.0744041261,0.478041932,-0.727439192
87,222400,632810,-0.598,-0.626,0.541,1.3,3.8,-0.9,3.7,-3,-24.7,0.48649556,0.0744651631,0.478072451,-0.727439192
88,224416,632810,-0.594,-0.623,0.541,1.3,3.8,-0.8,4.5,-2.9,-25.1,0.486434523,0.0745262001,0.478072451,-0.72746971
89,226484,632820,-0.598,-0.626,0.537,1.3,3.8,-0.8,4.5,-2.9,-25.1,0.486373486,0.0746177557,0.478102969,-0.72746971
90,228858,632820,-0.594,-0.626,0.541,1.5,3.7,-0.5,4.5,-2.9,-25.1,0.486312449,0.0746787927,0.478133488,-0.727500229
91,231466,632820,-0.594,-0.623,0.533,1.6,3.7,-0.3,4.5,-2.9,-25.1,0.48628193,0.0747398297,0.478133488,-0.727500229
92,235475,632820,-0.594,-0.619,0.537,1.6,3.7,-0.2,5.6,-2.7,-24.8,0.486220893,0.0748008667,0.478164006,-0.727530747
93,236087,632830,-0.594,-0.619,0.537,1.7,3.7,-0.1,5.6,-2.7,-24.8,0.486190374,0.0748924223,0.478164006,-0.727530747
94,239363,632830,-0.594,-0.623,0.537,1.8,3.6,0,5.6,-2.7,-24.8,0.486159856,0.0749839778,0.478164006,-0.727530747
95,241430,632830,-0.594,-0.619,0.537,1.8,3.6,0.1,5.6,-2.7,-24.8,0.486098819,0.0750450148,0.478194525,-0.727530747
96,243744,632830,-0.594,-0.623,0.537,1.7,3.7,0.3,5.4,-4.8,-24.7,0.4860683,0.0751365703,0.478194525,-0.727530747
97,246389,632840,-0.59,-0.623,0.541,1.5,3.9,0.6,5.4,-4.8,-24.7,0.486037782,0.0752281259,0.478225043,-0.727591784
98,249664,632840,-0.586,-0.623,0.541,1.4,3.9,0.7,5.4,-4.8,-24.7,0.486007263,0.0752891629,0.478225043,-0.727591784
99,251158,632840,-0.59,-0.623,0.537,1.2,3.7,1,5.4,-4.8,-24.7,0.485976745,0.0753807184,0.478255562,-0.727530747
100,253946,632840,-0.586,-0.619,0.533,1,3.5,0.9,5.2,-3.4,-24.8,0.485946226,0.0754722739,0.478255562,-0.727530747
101,256610,632850,-0.59,-0.623,0.537,0.9,3.4,0.9,5.2,-3.4,-24.8,0.485946226,0.075533311,0.478286081,-0.727530747
102,259381,632850,-0.59,-0.623,0.533,0.9,3.4,0.8,5.2,-3.4,-24.8,0.485915708,0.0756248665,0.478316599,-0.727530747
103,261052,632850,-0.59,-0.619,0.533,0.9,3.4,0.9,5.2,-3.4,-24.8,0.485885189,0.0756859035,0.478316599,-0.727530747
104,263914,632850,-0.59,-0.619,0.533,0.9,3.4,0.9,5.2,-3.4,-24.8,0.485885189,0.0756859035,0.478316599,-0.727530747
105,266995,632860,-0.586,-0.627,0.533,0.6,3.6,1.1,5.7,-3.3,-25,0.485915708,0.0760216071,0.478347118,-0.72746971
106,270122,632860,-0.59,-0.623,0.525,0.6,3.7,1.2,5.7,-3.3,-25,0.485915708,0.0761131626,0.478377636,-0.72746971
107,271642,632860,-0.586,-0.627,0.533,0.7,3.8,1.4,5.7,-3.3,-25,0.485885189,0.0762047182,0.478408155,-0.727439192
108,273786,632860,-0.59,-0.627,0.537,0.9,3.9,1.5,5.3,-3.7,-25,0.485885189,0.0762657552,0.478438673,-0.727439192
109,276267,632870,-0.586,-0.627,0.537,1.1,3.9,1.5,5.3,-3.7,-25,0.485854671,0.0763878292,0.478438673,-0.727408673
110,279567,632870,-0.586,-0.627,0.533,1.3,3.9,1.5,5.3,-3.7,-25,0.485824152,0.0764793847,0.478469192,-0.727408673
111,281049,632870,-0.586,-0.631,0.533,1.5,3.8,1.6,5.3,-3.7,-25,0.485824152,0.0765709403,0.478469192,-0.727408673
112,283866,632870,-0.59,-0.63,0.533,1.6,3.7,1.6,5.3,-4.1,-25.2,0.485793634,0.0766624958,0.47849971,-0.727408673
113,287049,632880,-0.586,-0.623,0.529,1.7,3.8,1.5,5.3,-4.1,-25.2,0.485793634,0.0767540513,0.47849971,-0.727408673
114,288629,632880,-0.586,-0.631,0.533,1.8,3.9,1.5,5.3,-4.1,-25.2,0.485763115,0.0768456069,0.47849971,-0.727378155
115,291282,632880,-0.59,-0.63,0.537,1.9,4,1.5,5.3,-4.1,-25.2,0.485732597,0.0769676809,0.478530229,-0.727378155
116,294321,632880,-0.582,-0.631,0.533,2.1,4.2,1.5,5.3,-3,-24.7,0.485732597,0.0770592364,0.478530229,-0.727378155
117,297504,632890,-0.586,-0.631,0.537,2.5,4.2,1.6,5.3,-3,-24.7,0.485702078,0.0771813105,0.478530229,-0.727378155
118,298804,632890,-0.582,-0.631,0.533,2.9,4.3,1.6,5.3,-3,-24.7,0.48567156,0.0772423475,0.478530229,-0.727408673
119,301812,632890,-0.582,-0.631,0.537,3.2,4.4,1.6,5.3,-3,-24.7,0.485641041,0.07739494,0.478530229,-0.727408673
120,304869,632890,-0.582,-0.631,0.529,3.5,4.6,1.5,5.6,-5.6,-25.2,0.485610523,0.0775475326,0.47849971,-0.727408673
121,306326,632900,-0.582,-0.631,0.533,3.8,4.8,1.5,5.6,-5.6,-25.2,0.485580004,0.0776696066,0.47849971,-0.727439192
122,310350,632900,-0.59,-0.634,0.533,3.9,4.9,1.5,5.6,-5.6,-25.2,0.485549486,0.0778221992,0.47849971,-0.727439192
123,311810,632900,-0.586,-0.631,0.533,4,5.2,1.5,5.6,-5.6,-25.2,0.485518967,0.0779442732,0.478469192,-0.72746971
124,313784,632900,-0.586,-0.631,0.533,4,5.2,1.5,5.6,-5.6,-25.2,0.485518967,0.0779442732,0.478469192,-0.72746971
125,316166,632910,-0.59,-0.63,0.533,4.6,5.7,1.5,5.4,-6.1,-25.3,0.485396893,0.0782189398,0.478530229,-0.72746971
126,319641,632910,-0.59,-0.63,0.533,5.1,5.6,1.4,5.4,-6.1,-25.3,0.485366375,0.0784020508,0.47849971,-0.727500229
127,321391,632910,-0.59,-0.63,0.529,5.5,5.5,1.1,5.4,-6.1,-25.3,0.485305338,0.0785546434,0.478469192,-0.727530747
128,324739,632910,-0.59,-0.63,0.529,5.9,5.5,0.9,5.4,-6.2,-25.1,0.485244301,0.0787072359,0.478408155,-0.727591784
129,326974,632920,-0.59,-0.634,0.533,6.2,5.6,0.6,5.4,-6.2,-25.1,0.485183264,0.078890347,0.478377636,-0.727652821
130,329074,632920,-0.586,-0.638,0.529,6.5,5.8,0.3,5.4,-6.2,-25.1,0.485122227,0.0790429395,0.478347118,-0.72768334
131,332183,632920,-0.586,-0.638,0.529,6.7,5.9,0.1,5.4,-6.2,-25.1,0.48506119,0.0791955321,0.478286081,-0.727744377
132,333751,632920,-0.594,-0.642,0.529,7,6.1,0,5.9,-5.9,-24.9,0.484969634,0.0794091617,0.478255562,-0.727805414
133,336371,632930,-0.586,-0.642,0.529,7.2,6.2,-0.1,5.9,-5.9,-24.9,0.484908597,0.0795617542,0.478194525,-0.72789697
134,339068,632930,-0.59,-0.642,0.529,7.4,6.4,-0.2,5.9,-5.9,-24.9,0.484817042,0.0797448653,0.478133488,-0.727958007
135,341226,632930,-0.594,-0.634,0.525,7.6,6.6,-0.4,5.9,-5.9,-24.9,0.484725486,0.0799279763,0.478102969,-0.728019044
136,343835,632930,-0.594,-0.638,0.525,7.7,6.9,-0.5,5.5,-3.1,-23.1,0.48463393,0.0801110874,0.478041932,-0.728110599
137,347268,632940,-0.59,-0.634,0.525,7.8,7.2,-0.6,5.5,-3.1,-23.1,0.484542375,0.0802941984,0.478011414,-0.728171636
138,348930,632940,-0.59,-0.634,0.521,7.9,7.5,-0.7,5.5,-3.1,-23.1,0.484420301,0.080507828,0.477950377,-0.728263192
139,351338,632940,-0.59,-0.634,0.521,7.9,7.7,-0.9,5.5,-3.1,-23.1,0.484328745,0.0806604205,0.477919858,-0.728324229
140,353825,632940,-0.586,-0.631,0.521,7.9,7.7,-0.9,5.2,-4,-26.6,0.484206671,0.0809045686,0.477858821,-0.728415784
141,356199,632950,-0.59,-0.627,0.517,7.9,7.7,-0.8,5.2,-4,-26.6,0.484115116,0.0810876797,0.477828303,-0.728476821
142,359663,632950,-0.586,-0.627,0.521,7.9,7.8,-0.9,5.2,-4,-26.6,0.483993042,0.0813013092,0.477797784,-0.728568377
143,361775,632950,-0.59,-0.623,0.517,7.8,8,-1,5.2,-4,-26.6,0.483870968,0.0814844203,0.477736747,-0.728659932
144,363953,632950,-0.59,-0.623,0.517,7.8,8,-1,5.2,-4,-26.6,0.483870968,0.0814844203,0.477736747,-0.728659932
145,366216,632960,-0.59,-0.615,0.513,7.4,8.3,-1.3,5.3,-3.3,-26.3,0.483596301,0.0819421979,0.477828303,-0.728720969
146,368783,632960,-0.594,-0.619,0.517,7.3,8.4,-1.3,5.3,-3.3,-26.3,0.483474227,0.082125309,0.477828303,-0.728812525
147,373133,632960,-0.586,-0.623,0.509,7.1,8.5,-1.5,5.3,-3.3,-26.3,0.483352153,0.0823084201,0.477797784,-0.728873562
148,373685,632960,-0.59,-0.623,0.514,7,8.5,-1.8,5.6,-3,-26.1,0.483199561,0.0825220496,0.477767266,-0.728965117
149,376798,632970,-0.594,-0.623,0.51,6.8,8.7,-2.1,5.6,-3,-26.1,0.483077486,0.0827051607,0.477767266,-0.729026154
150,378918,632970,-0.598,-0.622,0.51,6.7,9.1,-2.5,5.6,-3,-26.1,0.482894375,0.0828882717,0.477767266,-0.72911771
151,381313,632970,-0.598,-0.622,0.514,6.5,9.3,-2.8,5.6,-3,-26.1,0.482772301,0.0830713828,0.477767266,-0.729209265
152,384010,632970,-0.594,-0.626,0.518,6.3,9.4,-3.1,5.6,-3,-26.2,0.482619709,0.0832544939,0.477767266,-0.729270302
153,386684,632980,-0.598,-0.626,0.518,6.2,9.4,-3.1,5.6,-3,-26.2,0.482436598,0.0834376049,0.477767266,-0.729361858
154,388811,632980,-0.598,-0.634,0.522,6.3,9.4,-3.1,5.6,-3,-26.2,0.482284005,0.0835901975,0.477767266,-0.729453413
155,392476,632980,-0.598,-0.638,0.518,6.8,9.4,-3.2,5.6,-3,-26.2,0.482131413,0.0838343455,0.477767266,-0.729544969
156,394712,632980,-0.606,-0.63,0.522,7.3,9.5,-3.4,5.5,-4.6,-24.7,0.481948302,0.0840174566,0.477767266,-0.729636525
157,396768,632990,-0.606,-0.626,0.518,7.9,9.5,-3.6,5.5,-4.6,-24.7,0.481795709,0.0842005676,0.477736747,-0.72972808
158,399447,632990,-0.602,-0.626,0.526,8.1,9.4,-3.8,5.5,-4.6,-24.7,0.481612598,0.0844141972,0.477706229,-0.729850154
159,401267,632990,-0.606,-0.626,0.522,8,9.4,-4.1,5.5,-4.6,-24.7,0.481429487,0.0845667898,0.477706229,-0.72994171
160,404623,632990,-0.602,-0.626,0.533,7.7,9.5,-4.5,5.5,-4.4,-24.2,0.481246376,0.0847804193,0.47767571,-0.730063784
161,406383,633000,-0.602,-0.626,0.533,7.3,9.6,-5.1,5.5,-4.4,-24.2,0.481032746,0.0849635304,0.47767571,-0.730185858
162,410167,633000,-0.606,-0.63,0.53,7.2,9.9,-5.4,5.5,-4.4,-24.2,0.480849635,0.0851466414,0.47767571,-0.730277413
163,411697,633000,-0.606,-0.638,0.541,7.3,10.1,-5.7,5.5,-4.4,-24.2,0.480636006,0.0853297525,0.47767571,-0.730399487
164,413802,633000,-0.606,-0.638,0.541,7.3,10.1,-5.7,5.5,-4.4,-24.2,0.480636006,0.0853297525,0.47767571,-0.730399487
165,416365,633010,-0.614,-0.646,0.545,8.2,10.5,-5.6,5.7,-4.6,-23.1,0.480208747,0.0857570116,0.47767571,-0.730613117
166,419294,633010,-0.61,-0.65,0.553,8.6,10.6,-5.4,5.7,-4.6,-23.1,0.479995117,0.0859706412,0.47767571,-0.730735191
167,421303,633010,-0.614,-0.653,0.557,9,10.7,-5.3,5.7,-4.6,-23.1,0.479781487,0.0861842708,0.477645192,-0.730857265
168,425304,633010,-0.614,-0.653,0.561,9.1,10.8,-5.4,5.5,-4.7,-22.2,0.479567858,0.0863979003,0.477645192,-0.731009857
169,426079,633020,-0.61,-0.654,0.561,9.1,10.9,-5.5,5.5,-4.7,-22.2,0.479354228,0.0866115299,0.477614673,-0.731131932
170,428810,633020,-0.614,-0.657,0.565,9,11,-5.6,5.5,-4.7,-22.2,0.479140599,0.0868251595,0.477584155,-0.731254006
171,432052,633020,-0.614,-0.65,0.553,8.7,11.1,-5.6,5.5,-4.7,-22.2,0.478896451,0.0870082705,0.477584155,-0.731406598
172,434421,633020,-0.618,-0.646,0.553,8.4,11.3,-5.4,5.9,-4.3,-21.3,0.478682821,0.0872524186,0.477584155,-0.731528672
173,436349,633030,-0.618,-0.653,0.557,8.2,11.4,-5.2,5.9,-4.3,-21.3,0.478469192,0.0874660482,0.477584155,-0.731650746
174,440376,633030,-0.606,-0.658,0.557,8.2,11.6,-5,5.9,-4.3,-21.3,0.478255562,0.0876796777,0.477584155,-0.731742302
175,441331,633030,-0.598,-0.658,0.553,8.5,11.7,-4.9,5.9,-4.3,-21.3,0.478041932,0.0878933073,0.477584155,-0.731864376
176,445432,633030,-0.586,-0.658,0.553,9.1,11.6,-5,5.8,-4.6,-26.8,0.477797784,0.0881374554,0.477553636,-0.73198645
177,446258,633040,-0.578,-0.662,0.545,9.9,11.5,-5.6,5.8,-4.6,-26.8,0.477584155,0.0883510849,0.477523118,-0.732139042
178,448877,633040,-0.575,-0.674,0.544,10.8,11.4,-6.5,5.8,-4.6,-26.8,0.477340007,0.088595233,0.477492599,-0.732291635
179,451775,633040,-0.571,-0.67,0.537,11.5,11.4,-7.6,5.8,-4.6,-26.8,0.477034822,0.0888088626,0.477431562,-0.732474746
180,454252,633040,-0.575,-0.674,0.533,12,11.5,-8.7,6.2,-4.5,-23.4,0.476790674,0.0890224921,0.477370525,-0.732657857
181,456205,633050,-0.579,-0.67,0.525,12,11.8,-9.8,6.2,-4.5,-23.4,0.476485488,0.0892361217,0.477340007,-0.732871487
182,459347,633050,-0.575,-0.666,0.521,12.1,12.3,-10.5,6.2,-4.5,-23.4,0.476149785,0.0894497513,0.47727897,-0.733085116
183,461924,633050,-0.578,-0.662,0.521,12.2,12.7,-11,6.2,-4.5,-23.4,0.475814081,0.0896633808,0.477248451,-0.733298746
184,464565,633050,-0.578,-0.662,0.521,12.2,12.7,-11,6.2,-4.5,-23.4,0.475814081,0.0896633808,0.477248451,-0.733298746
185,467309,633060,-0.571,-0.662,0.513,12.8,13.4,-11.7,6.5,-4.8,-24.6,0.474990081,0.0899075289,0.477309488,-0.733787042
186,469478,633060,-0.567,-0.659,0.521,13.5,13.7,-12.1,6.5,-4.8,-24.6,0.474623859,0.0901211585,0.477248451,-0.73403119
187,471705,633060,-0.563,-0.659,0.521,14.2,14,-12.7,6.5,-4.8,-24.6,0.474257637,0.0903653066,0.477187414,-0.734275338
188,473853,633060,-0.566,-0.655,0.517,14.9,14.3,-13.1,6.5,-4.5,-25.3,0.473860897,0.0906094546,0.477126377,-0.734550005
189,476312,633070,-0.566,-0.643,0.517,15.4,14.6,-13.6,6.5,-4.5,-25.3,0.473464156,0.0908841212,0.477034822,-0.734794153
190,479924,633070,-0.558,-0.647,0.524,15.8,14.9,-14,6.5,-4.5,-25.3,0.473036897,0.0911282693,0.476973785,-0.735099338
191,481430,633070,-0.562,-0.643,0.521,16.1,15.2,-14.4,6.5,-4.5,-25.3,0.472609638,0.0914029359,0.476912748,-0.735343486
192,484018,633070,-0.558,-0.643,0.517,16.4,15.5,-14.7,6.5,-4.9,-26.1,0.472182379,0.091647084,0.476851711,-0.735679189
193,487210,633080,-0.562,-0.639,0.517,16.4,15.8,-14.9,6.5,-4.9,-26.1,0.471755119,0.091891232,0.476760155,-0.735953856
194,489442,633080,-0.562,-0.643,0.525,16.5,15.9,-15.2,6.5,-4.9,-26.1,0.471297342,0.0921964171,0.476699118,-0.736259041
195,491206,633080,-0.566,-0.635,0.521,16.7,16,-15.5,6.5,-4.9,-26.1,0.470839564,0.0924710837,0.476638081,-0.736564226
196,493762,633080,-0.562,-0.639,0.521,16.7,16.3,-16,6.4,-4.9,-24.2,0.470381787,0.0927152318,0.476546525,-0.736869411
197,496765,633090,-0.562,-0.631,0.517,16.6,16.6,-16.3,6.4,-4.9,-24.2,0.469924009,0.0929898984,0.476485488,-0.737174596
198,499580,633090,-0.562,-0.631,0.509,16.6,17,-16.7,6.4,-4.9,-24.2,0.469435713,0.093264565,0.476424451,-0.737479781
199,501094,633090,-0.566,-0.631,0.509,16.6,17.3,-17,6.4,-4.9,-24.2,0.468947417,0.0935392315,0.476363414,-0.737784967
200,504241,633090,-0.562,-0.635,0.517,16.7,17.6,-17.3,6.4,-4.6,-24.1,0.46845912,0.0938138981,0.476332896,-0.73812067
201,506603,633100,-0.558,-0.631,0.517,16.9,17.8,-17.6,6.4,-4.6,-24.1,0.467940306,0.0940885647,0.476271859,-0.738425855
202,508742,633100,-0.562,-0.631,0.525,17.3,18.1,-18.1,6.4,-4.6,-24.1,0.46745201,0.0943327128,0.476210822,-0.738761559
203,511770,633100,-0.562,-0.627,0.528,17.7,18.5,-18.5,6.4,-4.6,-24.1,0.466902676,0.0946684164,0.476149785,-0.739097262
204,514795,633100,-0.562,-0.627,0.528,17.7,18.5,-18.5,6.4,-4.6,-24.1,0.466902676,0.0946684164,0.476149785,-0.739097262
205,516240,633110,-0.566,-0.611,0.544,18.4,19.4,-19.1,6.7,-4.8,-23.9,0.465742973,0.0950956755,0.476058229,-0.739829707
206,518679,633110,-0.562,-0.604,0.54,18.5,19.7,-19.4,6.7,-4.8,-23.9,0.46519364,0.0954008606,0.475997192,-0.74016541
207,521442,633110,-0.566,-0.6,0.54,18.6,19.8,-19.5,6.7,-4.8,-23.9,0.464644307,0.0957060457,0.475936155,-0.740531632
208,525177,633110,-0.561,-0.596,0.556,18.8,20,-19.7,6.8,-5,-24.1,0.464064455,0.0960417493,0.475875118,-0.740867336
209,527671,633120,-0.557,-0.592,0.559,19.1,20.3,-19.9,6.8,-5,-24.1,0.463484603,0.0963469344,0.475814081,-0.741233558
210,529047,633120,-0.565,-0.588,0.552,19.6,20.8,-19.9,6.8,-5,-24.1,0.462904752,0.096682638,0.475753044,-0.74159978
211,531075,633120,-0.569,-0.584,0.54,20,21.2,-19.6,6.8,-5,-24.1,0.4623249,0.0970183416,0.475692007,-0.741966002
212,535283,633120,-0.566,-0.604,0.536,20.4,21.6,-19.4,7,-5.3,-23.9,0.461745048,0.0973845637,0.47563097,-0.742332224
213,536111,633130,-0.566,-0.619,0.536,20.8,22,-19.3,7,-5.3,-23.9,0.461165197,0.0977202673,0.475539415,-0.742698447
214,538819,633130,-0.558,-0.635,0.548,21.6,22.3,-19.4,7,-5.3,-23.9,0.460554827,0.098117008,0.475478378,-0.743064669
215,542778,633130,-0.543,-0.663,0.559,22.8,22.5,-19.8,7,-5.3,-23.9,0.459944456,0.0985137486,0.475356304,-0.743461409
216,544349,633130,-0.535,-0.679,0.567,24.1,22.4,-20.3,5.7,-5.2,-24.1,0.459334086,0.0989104892,0.47523423,-0.74385815
217,546525,633140,-0.539,-0.683,0.575,25.1,22.2,-20.7,5.7,-5.2,-24.1,0.458723716,0.0993072298,0.475081637,-0.744285409
218,549162,633140,-0.551,-0.682,0.567,25.5,22.1,-20.9,5.7,-5.2,-24.1,0.458082827,0.0997039705,0.474959563,-0.744712668
219,551299,633140,-0.554,-0.663,0.56,25.5,22.2,-21.1,5.7,-5.2,-24.1,0.457472457,0.100100711,0.47480697,-0.745139927
220,554640,633140,-0.566,-0.647,0.556,25.5,22.5,-21.2,8.2,-5.5,-24.1,0.456831568,0.100497452,0.474654378,-0.745567186
221,556238,633150,-0.562,-0.643,0.552,25.6,23,-21.4,8.2,-5.5,-24.1,0.45619068,0.100894192,0.474532304,-0.745994446
222,559225,633150,-0.566,-0.631,0.544,26,23.3,-21.4,8.2,-5.5,-24.1,0.455549791,0.101321451,0.474379711,-0.746421705
223,561625,633150,-0.562,-0.611,0.532,26.8,23.4,-21.3,8.2,-5.5,-24.1,0.454878384,0.101748711,0.474227119,-0.746848964
224,563690,633150,-0.562,-0.611,0.532,26.8,23.4,-21.3,8.2,-5.5,-24.1,0.454878384,0.101748711,0.474227119,-0.746848964
225,567610,633160,-0.562,-0.6,0.524,28.5,23.2,-21.3,8.5,-5.8,-24,0.453566088,0.102511673,0.47379986,-0.747825556
226,569489,633160,-0.562,-0.596,0.524,29.5,23.3,-21.4,8.5,-5.8,-24,0.452894681,0.102969451,0.47358623,-0.748283334
227,571238,633160,-0.562,-0.588,0.517,30.3,23.4,-21.5,8.5,-5.8,-24,0.452253792,0.103427229,0.4733726,-0.74877163
228,575242,633160,-0.561,-0.58,0.509,30.9,23.6,-21.5,8.5,-5.5,-23.8,0.451582385,0.103885006,0.473128452,-0.749229408
229,577314,633170,-0.569,-0.58,0.509,31.3,23.8,-21.6,8.5,-5.5,-23.8,0.450910978,0.104342784,0.472914823,-0.749717704
230,578792,633170,-0.569,-0.584,0.505,31.5,24.1,-21.7,8.5,-5.5,-23.8,0.45023957,0.10483108,0.472701193,-0.750206
231,581228,633170,-0.57,-0.592,0.505,31.6,24.3,-21.9,8.5,-5.5,-23.8,0.449537645,0.105319376,0.472457045,-0.750694296
232,584339,633170,-0.57,-0.596,0.505,31.6,24.6,-22.1,8.6,-5.9,-23.8,0.448866237,0.105807672,0.472243416,-0.751182592
233,586647,633180,-0.57,-0.596,0.509,31.5,24.7,-22.3,8.6,-5.9,-23.8,0.448164312,0.106295969,0.471999268,-0.751670888
234,589001,633180,-0.566,-0.611,0.517,31.2,24.8,-22.5,8.6,-5.9,-23.8,0.447462386,0.106784265,0.471785638,-0.752159185
235,591519,633180,-0.566,-0.615,0.525,30.5,24.9,-22.7,8.6,-5.9,-23.8,0.44676046,0.107242042,0.471572008,-0.752616962
236,594653,633180,-0.57,-0.619,0.525,29.7,25.2,-23,6.9,-5.6,-23.5,0.446058535,0.10769982,0.471388897,-0.753105258
237,596382,633190,-0.57,-0.611,0.521,28.9,25.6,-23.1,6.9,-5.6,-23.5,0.445356609,0.108188116,0.471236305,-0.753563036
238,599951,633190,-0.566,-0.604,0.525,28.1,25.9,-23.2,6.9,-5.6,-23.5,0.444624165,0.108645894,0.471083712,-0.754020814
239,602146,633190,-0.566,-0.604,0.521,27.3,26.1,-23.5,6.9,-5.6,-23.5,0.44389172,0.109103671,0.47093112,-0.754478591
240,603767,633190,-0.57,-0.603,0.525,26.5,26.2,-23.6,8.7,-5.5,-23.6,0.443189795,0.109530931,0.470809046,-0.754875332
241,606995,633200,-0.573,-0.595,0.525,25.8,26.3,-23.8,8.7,-5.5,-23.6,0.44245735,0.10995819,0.470686972,-0.75533311
242,608693,633200,-0.565,-0.592,0.528,25.2,26.4,-23.9,8.7,-5.5,-23.6,0.441724906,0.110415967,0.470595416,-0.755760369
243,611182,633200,-0.565,-0.588,0.528,24.8,26.5,-24.1,8.7,-5.5,-23.6,0.440992462,0.110843226,0.470503861,-0.756187628
244,615269,633200,-0.565,-0.588,0.528,24.8,26.5,-24.1,8.7,-5.5,-23.6,0.440992462,0.110843226,0.470503861,-0.756187628
245,617499,633210,-0.569,-0.596,0.532,24.4,26.9,-24.4,9,-5.4,-23.6,0.439558092,0.111728263,0.470229194,-0.757042146
246,619046,633210,-0.566,-0.6,0.54,24.3,27.2,-24.5,9,-5.4,-23.6,0.438825648,0.112155522,0.470168157,-0.757469405
247,621282,633210,-0.566,-0.604,0.536,24.3,27.5,-24.7,9,-5.4,-23.6,0.438062685,0.112582781,0.470076601,-0.757896664
248,624000,633210,-0.566,-0.611,0.54,24.3,27.9,-24.7,8.6,-5.8,-23.4,0.437299722,0.113040559,0.470015564,-0.758293405
249,626144,633220,-0.574,-0.607,0.544,24.3,28.2,-24.7,8.6,-5.8,-23.4,0.43653676,0.113467818,0.469924009,-0.758720664
250,630282,633220,-0.578,-0.611,0.54,24.2,28.5,-24.7,8.6,-5.8,-23.4,0.435773797,0.113925596,0.469862972,-0.759117405
251,631783,633220,-0.578,-0.607,0.54,24,28.6,-24.8,8.6,-5.8,-23.4,0.435010834,0.114352855,0.469801935,-0.759544664
252,634040,633220,-0.581,-0.607,0.544,23.8,28.8,-24.8,8.2,-5.5,-23.5,0.434247871,0.114810633,0.469740898,-0.759941404
253,636274,633230,-0.581,-0.607,0.548,23.7,29.1,-24.6,8.2,-5.5,-23.5,0.433484909,0.11526841,0.469679861,-0.760368664
254,639971,633230,-0.581,-0.607,0.544,23.4,29.3,-24.5,8.2,-5.5,-23.5,0.432721946,0.115726188,0.469649342,-0.760765404
255,641434,633230,-0.582,-0.607,0.537,23.1,29.6,-24.4,8.2,-5.5,-23.5,0.431958983,0.116183966,0.469588305,-0.761131626
256,643863,633230,-0.589,-0.607,0.537,22.8,29.7,-24.3,9.2,-6.2,-23.4,0.43119602,0.116672262,0.469557787,-0.761528367
257,647054,633240,-0.589,-0.599,0.537,22.3,29.8,-24.4,9.2,-6.2,-23.4,0.430402539,0.117099521,0.469527268,-0.761925108
258,649252,633240,-0.593,-0.607,0.533,22,29.8,-24.5,9.2,-6.2,-23.4,0.429639576,0.117557299,0.46949675,-0.76229133
259,651201,633240,-0.593,-0.603,0.541,21.8,29.9,-24.8,9.2,-6.2,-23.4,0.428876614,0.118015076,0.46949675,-0.76268807
260,654149,633240,-0.597,-0.599,0.537,21.7,30.1,-25.2,6.5,-6.2,-23.1,0.428083132,0.118442335,0.469466231,-0.763054292
261,656435,633250,-0.601,-0.595,0.537,21.6,30.3,-25.4,6.5,-6.2,-23.1,0.427289651,0.118900113,0.469466231,-0.763451033
262,659428,633250,-0.605,-0.591,0.533,21.5,30.6,-25.5,6.5,-6.2,-23.1,0.42649617,0.119357891,0.469466231,-0.763817255
263,661300,633250,-0.613,-0.599,0.518,21.5,30.8,-25.6,6.5,-6.2,-23.1,0.425702689,0.119815668,0.469435713,-0.764183477
264,663666,633250,-0.613,-0.599,0.518,21.5,30.8,-25.6,6.5,-6.2,-23.1,0.425702689,0.119815668,0.469435713,-0.764183477
265,666661,633260,-0.617,-0.591,0.518,21.8,31,-26.1,6.5,-5.9,-23.2,0.424207282,0.120944853,0.469344157,-0.764915922
266,668953,633260,-0.613,-0.595,0.518,22,31,-26.2,6.5,-5.9,-23.2,0.423383282,0.121402631,0.469344157,-0.765282144
267,671245,633260,-0.609,-0.591,0.506,22.1,31,-26.3,6.5,-5.9,-23.2,0.422559282,0.121860408,0.469313639,-0.765678884
268,674424,633260,-0.621,-0.591,0.506,22.4,31,-26.3,6.6,-6.4,-22.8,0.421765801,0.122287667,0.469313639,-0.766075625
269,676441,633270,-0.617,-0.591,0.499,22.6,31,-26.3,6.6,-6.4,-22.8,0.420941801,0.122745445,0.46928312,-0.766472365
270,678637,633270,-0.613,-0.591,0.502,22.9,31.1,-26.3,6.6,-6.4,-22.8,0.420117801,0.123233741,0.469222083,-0.766869106
271,681972,633270,-0.617,-0.587,0.499,23,31.1,-26.2,6.6,-6.4,-22.8,0.419293802,0.123691519,0.469222083,-0.767235328
272,684156,633270,-0.617,-0.583,0.498,22.8,31.1,-26.1,7.6,-6.6,-22.9,0.418439283,0.124118778,0.469191565,-0.767632069
273,686228,633280,-0.617,-0.583,0.498,22.3,31.1,-26.3,7.6,-6.6,-22.9,0.417645802,0.124607074,0.469161046,-0.768028809
274,689239,633280,-0.625,-0.575,0.503,21.6,31.2,-26.6,7.6,-6.6,-22.9,0.416821802,0.125064852,0.469161046,-0.768395032
275,691544,633280,-0.629,-0.563,0.499,20.9,31.2,-26.9,7.6,-6.6,-22.9,0.415997803,0.125492111,0.469191565,-0.768761254
276,693845,633280,-0.629,-0.563,0.503,20.1,31.2,-27.2,10.5,-7.7,-22.7,0.415173803,0.12591937,0.469191565,-0.769157994
277,696071,633290,-0.633,-0.563,0.499,19.5,31.2,-27.3,10.5,-7.7,-22.7,0.414319285,0.126346629,0.469222083,-0.769493698
278,698778,633290,-0.633,-0.555,0.503,18.9,31.2,-27.5,10.5,-7.7,-22.7,0.413495285,0.12674337,0.469222083,-0.76985992
279,701393,633290,-0.628,-0.547,0.518,18.5,31.3,-27.7,10.5,-7.7,-22.7,0.412671285,0.127170629,0.469313639,-0.770226142
280,704207,633290,-0.632,-0.547,0.514,18.1,31.4,-27.6,10.3,-4.8,-22.9,0.411816767,0.12756737,0.469374676,-0.770561846
281,706716,633300,-0.632,-0.539,0.514,17.9,31.7,-27.6,10.3,-4.8,-22.9,0.410992767,0.127994629,0.469435713,-0.770897549
282,708977,633300,-0.636,-0.535,0.522,17.7,31.8,-27.5,10.3,-4.8,-22.9,0.410138249,0.128391369,0.46949675,-0.771233253
283,711388,633300,-0.64,-0.535,0.53,17.5,32,-27.5,10.3,-4.8,-22.9,0.409314249,0.128818628,0.469557787,-0.771568957
284,714339,633300,-0.64,-0.535,0.53,17.5,32,-27.5,10.3,-4.8,-22.9,0.409314249,0.128818628,0.469557787,-0.771568957
285,716492,633310,-0.656,-0.535,0.546,16.9,32.1,-27.4,11,-4.7,-22.8,0.408093509,0.130466628,0.469405194,-0.772057253
286,718740,633310,-0.648,-0.535,0.554,16.6,32.1,-27.3,11,-4.7,-22.8,0.40723899,0.130863369,0.46949675,-0.772362438
287,721219,633310,-0.652,-0.539,0.558,16.2,32.1,-27.1,11,-4.7,-22.8,0.406414991,0.131260109,0.469557787,-0.772698141
288,724413,633310,-0.66,-0.535,0.57,15.9,32.3,-26.7,11.4,-4.7,-22.6,0.405590991,0.131687368,0.469679861,-0.773003327
289,726567,633320,-0.664,-0.538,0.57,15.6,32.5,-26.2,11.4,-4.7,-22.6,0.404766991,0.132114628,0.469771416,-0.773308512
290,728826,633320,-0.676,-0.542,0.586,15.3,32.8,-25.6,11.4,-4.7,-22.6,0.403942991,0.132541887,0.469862972,-0.773583178
291,731765,633320,-0.676,-0.542,0.57,14.9,33,-25.1,11.4,-4.7,-22.6,0.40314951,0.132969146,0.469985046,-0.773857845
292,733933,633320,-0.68,-0.538,0.566,14.4,32.9,-24.8,11.7,-4.3,-22.5,0.40232551,0.133396405,0.47010712,-0.774132511
293,736228,633330,-0.68,-0.546,0.559,13.9,32.6,-24.4,11.7,-4.3,-22.5,0.401562548,0.133823664,0.470229194,-0.774407178
294,739276,633330,-0.684,-0.546,0.555,13.5,32.4,-24.1,11.7,-4.3,-22.5,0.400769066,0.134220405,0.470351268,-0.774651326
295,741223,633330,-0.688,-0.55,0.555,13.1,32.1,-23.8,11.7,-4.3,-22.5,0.400006104,0.134647664,0.470473342,-0.774895474
296,744363,633330,-0.688,-0.557,0.543,12.8,32.1,-23.4,10.9,-6.2,-22.5,0.399243141,0.135044404,0.470595416,-0.775139622
297,746249,633340,-0.7,-0.561,0.536,12.5,32,-23,10.9,-6.2,-22.5,0.398480178,0.135471664,0.470748009,-0.77538377
298,749349,633340,-0.696,-0.569,0.524,12.2,31.9,-22.6,10.9,-6.2,-22.5,0.397717215,0.135898923,0.470870083,-0.7755974
299,751839,633340,-0.7,-0.573,0.528,12.1,31.9,-22.3,10.9,-6.2,-22.5,0.396954253,0.136295663,0.471022675,-0.775811029
300,753806,633340,-0.704,-0.581,0.52,12.2,31.7,-22.2,11,-6.5,-22.5,0.396252327,0.136722922,0.471144749,-0.776055177
301,756103,633350,-0.704,-0.581,0.497,12.4,31.3,-22.1,11,-6.5,-22.5,0.395519883,0.137119663,0.471266823,-0.776268807
302,759546,633350,-0.7,-0.569,0.493,12.7,30.7,-22,11,-6.5,-22.5,0.394787439,0.137546922,0.471388897,-0.776512955
303,761245,633350,-0.712,-0.581,0.474,13.2,30.3,-21.9,11,-6.5,-22.5,0.394054994,0.137913144,0.471510971,-0.776726585
304,764030,633350,-0.712,-0.581,0.474,13.2,30.3,-21.9,11,-6.5,-22.5,0.394054994,0.137913144,0.471510971,-0.776726585
305,766642,633360,-0.705,-0.596,0.47,14,29.5,-22.4,11.2,-8.2,-22.5,0.392834254,0.139255959,0.471694082,-0.77703177
306,768978,633360,-0.701,-0.601,0.458,14.5,28.9,-22.5,11.2,-8.2,-22.5,0.39210181,0.139622181,0.471755119,-0.777275918
307,771293,633360,-0.705,-0.597,0.458,15.5,28,-22.3,11.2,-8.2,-22.5,0.391369366,0.140018921,0.471785638,-0.777550584
308,773631,633360,-0.713,-0.604,0.458,17,27.2,-21.6,11.3,-8.6,-22.2,0.390697958,0.140385144,0.471816156,-0.777825251
309,776976,633370,-0.713,-0.596,0.474,18.7,26.7,-20.8,11.3,-8.6,-22.2,0.389996033,0.140781884,0.471785638,-0.778099918
310,779056,633370,-0.709,-0.589,0.478,20.1,26.3,-20.2,11.3,-8.6,-22.2,0.389324625,0.141209143,0.471724601,-0.778405103
311,781385,633370,-0.705,-0.585,0.489,20.8,26,-20,11.3,-8.6,-22.2,0.388653218,0.141605884,0.471663564,-0.778710288
312,783711,633370,-0.7,-0.569,0.505,20.9,25.5,-20.1,10.9,-9.3,-22.1,0.387981811,0.142033143,0.471572008,-0.779015473
313,786091,633380,-0.696,-0.553,0.512,20.8,25,-20.4,10.9,-9.3,-22.1,0.387310404,0.142399365,0.471510971,-0.779320658
314,788807,633380,-0.696,-0.546,0.524,20.9,24.6,-20.6,10.9,-9.3,-22.1,0.386638997,0.142796106,0.471419416,-0.779625843
315,792717,633380,-0.696,-0.542,0.532,21.2,24.3,-20.5,10.9,-9.3,-22.1,0.385967589,0.143162328,0.47132786,-0.779961547
316,793726,633380,-0.703,-0.514,0.551,21.7,24.2,-20.2,11.6,-4.5,-20.7,0.385296182,0.143559069,0.471175268,-0.780266732
317,797111,633390,-0.707,-0.502,0.559,22.1,24.3,-19.5,11.6,-4.5,-20.7,0.384655293,0.143955809,0.471114231,-0.780602435
318,798648,633390,-0.711,-0.494,0.567,22.1,24.4,-18.9,11.6,-4.5,-20.7,0.384014405,0.144383068,0.470992157,-0.78090762
319,801621,633390,-0.718,-0.49,0.571,21.6,24.5,-18.3,11.6,-4.5,-20.7,0.383373516,0.14474929,0.470900601,-0.781182287
320,803699,633390,-0.734,-0.458,0.575,20.5,24.4,-18.1,11.7,-7.2,-23.1,0.382763146,0.14517655,0.470809046,-0.781487472
321,806387,633400,-0.738,-0.454,0.572,19.1,24.2,-17.8,11.7,-7.2,-23.1,0.382152776,0.14557329,0.470748009,-0.781762139
322,808713,633400,-0.749,-0.438,0.58,17.5,24.1,-17.4,11.7,-7.2,-23.1,0.381542405,0.145939512,0.470686972,-0.782006287
323,811348,633400,-0.753,-0.438,0.568,15.9,23.8,-16.8,11.7,-7.2,-23.1,0.380962554,0.146305734,0.470686972,-0.782219916
324,813636,633400,-0.753,-0.438,0.568,15.9,23.8,-16.8,11.7,-7.2,-23.1,0.380962554,0.146305734,0.470686972,-0.782219916
325,816942,633410,-0.777,-0.434,0.569,12.7,23.2,-15.8,11.9,-6.2,-23.3,0.38145085,0.149449141,0.469130528,-0.782311472
326,819221,633410,-0.785,-0.433,0.577,11.5,22.9,-15.6,11.9,-6.2,-23.3,0.380932035,0.149784845,0.469161046,-0.782494583
327,821412,633410,-0.813,-0.437,0.574,10.2,22.8,-15.7,11.9,-6.2,-23.3,0.380382702,0.150120548,0.469222083,-0.782647176
328,823739,633410,-0.813,-0.429,0.581,8.6,22.7,-15.8,11.8,-5.5,-23.1,0.379863887,0.150395215,0.469344157,-0.782799768
329,826978,633420,-0.821,-0.425,0.578,6.3,22.5,-16.2,11.8,-5.5,-23.1,0.379314554,0.150669881,0.469466231,-0.782921842
330,829255,633420,-0.829,-0.425,0.574,3.5,22.2,-16.7,11.8,-5.5,-23.1,0.37879574,0.150914029,0.469649342,-0.783013398
331,831535,633420,-0.844,-0.42,0.567,0.6,21.7,-17,11.8,-5.5,-23.1,0.378276925,0.151127659,0.469862972,-0.783104953
332,833733,633420,-0.856,-0.416,0.567,-1.7,21.1,-16.9,12.4,-4.7,-23.1,0.377788629,0.151280251,0.470137638,-0.783135472
333,836508,633430,-0.86,-0.416,0.563,-3.3,20.5,-16.6,12.4,-4.7,-23.1,0.377300333,0.151432844,0.470412305,-0.783196509
334,838710,633430,-0.864,-0.404,0.559,-4.1,19.9,-16.2,12.4,-4.7,-23.1,0.376812037,0.151585437,0.470686972,-0.783196509
335,842792,633430,-0.868,-0.408,0.563,-4.7,19.1,-15.9,12.4,-4.7,-23.1,0.376384777,0.151707511,0.470992157,-0.783227027
336,844994,633430,-0.868,-0.416,0.563,-5.5,18.1,-15.7,12.3,-6.5,-21.5,0.375927,0.151799066,0.471297342,-0.783227027
337,847230,633440,-0.868,-0.424,0.559,-6.3,16.8,-15.7,12.3,-6.5,-21.5,0.375469222,0.151890622,0.471572008,-0.783257546
338,849585,633440,-0.868,-0.431,0.563,-7.1,15.6,-15.7,12.3,-6.5,-21.5,0.375103,0.15192114,0.471877194,-0.783257546
339,851716,633440,-0.865,-0.436,0.552,-7.5,14.4,-15.7,12.3,-6.5,-21.5,0.374706259,0.151951659,0.472182379,-0.783257546
340,854049,633440,-0.869,-0.447,0.56,-7.6,13.4,-15.7,12.2,-6.2,-21.9,0.374340037,0.151951659,0.472487564,-0.783257546
341,856328,633450,-0.869,-0.443,0.559,-7.6,12.3,-15.9,12.2,-6.2,-21.9,0.373943297,0.151951659,0.47276223,-0.783257546
342,858774,633450,-0.869,-0.443,0.559,-7.2,11,-16.3,12.2,-6.2,-21.9,0.373577074,0.15192114,0.473036897,-0.783288064
343,861186,633450,-0.873,-0.439,0.563,-6.4,9.8,-16.6,12.2,-6.2,-21.9,0.373210852,0.151860103,0.473281045,-0.783318583
344,865287,633450,-0.872,-0.431,0.563,-5,8.5,-16.7,12.3,-6.3,-21.5,0.372875149,0.151768548,0.473494675,-0.78337962
345,867559,633460,-0.876,-0.423,0.567,-3.2,7.4,-16.7,12.3,-6.3,-21.5,0.372508927,0.151707511,0.473647267,-0.783471175
346,869780,633460,-0.872,-0.4,0.587,-1.1,6.2,-16.6,12.3,-6.3,-21.5,0.372173223,0.151646474,0.47379986,-0.783562731
347,872033,633460,-0.868,-0.396,0.606,1,4.8,-16.4,12.3,-6.3,-21.5,0.371837519,0.151554918,0.473860897,-0.783684805
348,874190,633460,-0.863,-0.38,0.622,3.2,3.6,-16.3,12.6,-6,-21.2,0.371501816,0.151463363,0.473891415,-0.783837397
349,876511,633470,-0.859,-0.361,0.633,5.5,2.6,-16,12.6,-6,-21.2,0.371196631,0.151402326,0.473860897,-0.784020508
350,878785,633470,-0.867,-0.345,0.649,7.7,1.7,-15.8,12.6,-6,-21.2,0.370860927,0.151341288,0.47379986,-0.784234138
351,881437,633470,-0.87,-0.325,0.653,9.6,0.9,-15.5,12.6,-6,-21.2,0.370555742,0.151249733,0.473708304,-0.784447768
352,885467,633470,-0.886,-0.313,0.665,11,0,-15.2,12.9,-6.3,-20.6,0.370250557,0.151188696,0.473555712,-0.784691916
353,887777,633480,-0.901,-0.277,0.673,11.7,-1,-15.1,12.9,-6.3,-20.6,0.36997589,0.151127659,0.473403119,-0.784936064
354,890034,633480,-0.913,-0.253,0.681,11.7,-2.1,-15,12.9,-6.3,-20.6,0.369701224,0.151005585,0.473220008,-0.785180212
355,892273,633480,-0.924,-0.23,0.685,10.9,-3.1,-15,12.9,-6.3,-20.6,0.369426557,0.150883511,0.473067415,-0.78542436
356,893806,633480,-0.944,-0.213,0.682,9.3,-4,-15.1,12.5,-6.4,-23.6,0.369182409,0.150761437,0.472914823,-0.785668508
357,896479,633490,-0.971,-0.177,0.683,7,-4.8,-15.3,12.5,-6.4,-23.6,0.36896878,0.150547807,0.472823267,-0.785882138
358,900525,633490,-0.995,-0.149,0.683,4.3,-5.7,-15.2,12.5,-6.4,-23.6,0.368724631,0.150334178,0.472731712,-0.786065249
359,902788,633490,-1.006,-0.149,0.687,1.2,-6.8,-15,12.5,-6.4,-23.6,0.36854152,0.15009003,0.472731712,-0.786217841
360,905024,633490,-1.034,-0.148,0.7,-2.1,-7.9,-14.7,12.6,-6.3,-20.1,0.368388928,0.149784845,0.472731712,-0.786339915
361,907294,633500,-1.089,-0.128,0.701,-5.3,-9.1,-14.2,12.6,-6.3,-20.1,0.368266854,0.149418622,0.472792749,-0.786431471
362,909547,633500,-1.117,-0.135,0.71,-8.4,-10.3,-13.3,12.6,-6.3,-20.1,0.36814478,0.1490524,0.472914823,-0.786461989
363,911740,633500,-1.133,-0.138,0.71,-11.1,-11.6,-12,12.6,-6.3,-20.1,0.368114261,0.148625141,0.473036897,-0.786492508
364,914061,633500,-1.181,-0.149,0.723,-14.2,-13.4,-10.4,12.6,-6.5,-20.2,0.368114261,0.148167364,0.473220008,-0.786461989
365,916282,633510,-1.197,-0.156,0.728,-17.4,-15.5,-8.7,12.6,-6.5,-20.2,0.368175298,0.147679067,0.473433638,-0.786431471
366,918857,633510,-1.213,-0.16,0.724,-20.8,-17.7,-6.8,12.6,-6.5,-20.2,0.368297372,0.147129734,0.473647267,-0.786309397
367,921193,633510,-1.233,-0.171,0.736,-24.3,-20.1,-4.9,12.6,-6.5,-20.2,0.368511002,0.146549883,0.473921934,-0.786126286
368,924723,633510,-1.261,-0.186,0.765,-27.9,-22.8,-3,12.4,-6.2,-20.4,0.368785669,0.145908994,0.474227119,-0.785973693
369,926958,633520,-1.268,-0.186,0.784,-31.3,-25.7,-1.1,12.4,-6.2,-20.4,0.369121372,0.14517655,0.474562822,-0.785729545
370,929417,633520,-1.272,-0.194,0.808,-34.2,-28.8,0.6,12.4,-6.2,-20.4,0.369548631,0.144413587,0.474929044,-0.785485397
371,931506,633520,-1.28,-0.194,0.824,-36.6,-31.9,2.4,12.4,-6.2,-20.4,0.370036927,0.143620106,0.475295267,-0.785180212
372,933857,633520,-1.284,-0.197,0.875,-38.1,-35.2,4.3,12.3,-5.9,-21.4,0.370586261,0.142735069,0.47563097,-0.784844508
373,937310,633530,-1.292,-0.205,0.886,-38.5,-38.4,6.1,12.3,-5.9,-21.4,0.371227149,0.141819514,0.475966674,-0.784508805
374,939603,633530,-1.284,-0.213,0.898,-37.5,-41.5,7.9,12.3,-5.9,-21.4,0.371898556,0.140903958,0.47624134,-0.784203619
375,941740,633530,-1.292,-0.209,0.894,-35.2,-44.6,9.7,12.3,-5.9,-21.4,0.372631001,0.139957884,0.47645497,-0.783898434
376,944068,633530,-1.292,-0.217,0.89,-31.7,-47.6,11.6,12.1,-6.1,-22.8,0.373424482,0.139011811,0.476577044,-0.783593249
377,946107,633540,-1.296,-0.221,0.887,-27.3,-50.9,13.5,12.1,-6.1,-22.8,0.374279,0.138065737,0.476577044,-0.78337962
378,950364,633540,-1.296,-0.221,0.871,-22.2,-54.2,15.5,12.1,-6.1,-22.8,0.375164037,0.137089145,0.476485488,-0.78316599
379,952620,633540,-1.3,-0.217,0.863,-16.5,-57.5,17.6,12.1,-6.1,-22.8,0.376110111,0.136173589,0.47624134,-0.783013398
380,954772,633540,-1.3,-0.209,0.848,-10.4,-60.7,19.8,11.8,-5.7,-22.2,0.377117222,0.135258034,0.475875118,-0.782921842
381,957057,633550,-1.304,-0.197,0.84,-4.1,-63.8,22.1,11.8,-5.7,-22.2,0.378185369,0.134342479,0.475325785,-0.782891324
382,959279,633550,-1.308,-0.177,0.832,1.9,-66.8,24.3,11.8,-5.7,-22.2,0.379284036,0.13348796,0.474684896,-0.782921842
383,961640,633550,-1.311,-0.114,0.805,7.4,-69.5,26.1,11.8,-5.7,-22.2,0.380413221,0.132633442,0.473891415,-0.782982879
384,963815,633550,-1.303,-0.087,0.789,11.9,-72,27.5,11.6,-6.2,-22.7,0.381603442,0.131778924,0.473006378,-0.783074435
385,966764,633560,-1.31,-0.059,0.789,15.5,-74.4,28.6,11.6,-6.2,-22.7,0.382824183,0.130924406,0.472060305,-0.783196509
386,968833,633560,-1.298,-0.02,0.792,18.4,-76.8,29.3,11.6,-6.2,-22.7,0.384075442,0.130069887,0.471022675,-0.78337962
387,971135,633560,-1.3,0.061,0.804,20.7,-79.1,30.1,11.6,-6.2,-22.7,0.385326701,0.129215369,0.46989349,-0.783562731
388,973569,633560,-1.3,0.104,0.804,22.2,-81.1,30.9,10.9,-6,-22.7,0.386638997,0.128330332,0.468764306,-0.783745842
389,977876,633570,-1.299,0.148,0.811,22.8,-82.7,31.9,10.9,-6,-22.7,0.387951292,0.127414777,0.467574084,-0.783959471
390,980088,633570,-1.302,0.191,0.807,22.2,-83.9,32.8,10.9,-6,-22.7,0.389324625,0.12652974,0.466383862,-0.784112064
391,982250,633570,-1.301,0.266,0.788,20.4,-84.9,33.6,10.9,-6,-22.7,0.390697958,0.125583666,0.465224158,-0.784295175
392,984635,633570,-1.301,0.305,0.784,17.5,-86,34.1,10.2,-6.4,-22.8,0.39210181,0.124607074,0.464094974,-0.784417249
393,986386,633580,-1.3,0.332,0.768,13.7,-87.2,34.3,10.2,-6.4,-22.8,0.39353618,0.123569445,0.463026826,-0.784478286
394,988643,633580,-1.3,0.372,0.764,9,-88.3,34.3,10.2,-6.4,-22.8,0.395001068,0.122470779,0.462019715,-0.784508805
395,991154,633580,-1.292,0.391,0.756,3.4,-89.5,33.8,10.2,-6.4,-22.8,0.396465957,0.121311075,0.46110416,-0.784508805
396,995163,633580,-1.291,0.403,0.756,-2.6,-90.6,33.1,9.5,-6.7,-22.3,0.397961364,0.120090335,0.46028016,-0.784417249
397,997368,633590,-1.287,0.399,0.752,-9,-91.4,32.6,9.5,-6.7,-22.3,0.399456771,0.11874752,0.459547716,-0.784295175
398,999396,633590,-1.284,0.391,0.767,-15.2,-92,32.7,9.5,-6.7,-22.3,0.400952177,0.117374187,0.458906827,-0.784081545
399,1001668,633590,-1.288,0.383,0.764,-21,-92.2,33.4,9.5,-6.7,-22.3,0.402508621,0.115970336,0.458388012,-0.783806879
400,1003884,633590,-1.284,0.375,0.771,-26.1,-92.4,34.9,9.7,-6.6,-22.2,0.404095584,0.114505448,0.457930235,-0.783471175
401,1006123,633600,-1.296,0.36,0.76,-30.6,-92.6,36.7,9.7,-6.6,-22.2,0.405743583,0.113010041,0.457502976,-0.783074435
402,1008627,633600,-1.293,0.324,0.752,-34.4,-92.9,38.5,9.7,-6.6,-22.2,0.407391583,0.111514634,0.45719779,-0.782616657
403,1012907,633600,-1.301,0.297,0.749,-37.2,-93.2,40,9.7,-6.6,-22.2,0.40910062,0.10995819,0.456923124,-0.782128361
404,1015101,633600,-1.305,0.27,0.733,-39.1,-93.8,41.2,8.8,-6.7,-22.7,0.410840175,0.108432264,0.456648457,-0.781579028
405,1016860,633610,-1.318,0.238,0.714,-39.7,-94.7,42.4,8.8,-6.7,-22.7,0.41257973,0.10687582,0.456373791,-0.781029695
406,1019162,633610,-1.343,0.152,0.676,-39.4,-96.2,43.4,8.8,-6.7,-22.7,0.414380322,0.105319376,0.456068606,-0.780480361
407,1021375,633610,-1.352,0.121,0.649,-38.2,-97.9,44.3,8.8,-6.7,-22.7,0.416211432,0.103762932,0.455732902,-0.77990051
408,1023657,633610,-1.372,0.09,0.626,-36.4,-99.9,44.9,8.4,-6.7,-22.4,0.418042543,0.102145451,0.455336161,-0.779351176
409,1026261,633620,-1.417,0.056,0.577,-34.1,-101.8,45,8.4,-6.7,-22.4,0.419904172,0.100558489,0.454908902,-0.778832362
410,1029376,633620,-1.445,0.056,0.566,-31.6,-103.9,44.6,8.4,-6.7,-22.4,0.421765801,0.0989715262,0.454390088,-0.778313547
411,1031636,633620,-1.464,0.065,0.543,-29.1,-106.1,43.8,8.4,-6.7,-22.4,0.42362743,0.0973235267,0.453810236,-0.777886288
412,1033933,633620,-1.48,0.088,0.52,-26.3,-108.5,42.7,8,-6.7,-22.7,0.425458541,0.0956450087,0.453169347,-0.777459029
413,1036093,633630,-1.511,0.148,0.485,-22.6,-110.9,41.4,8,-6.7,-22.7,0.42732017,0.0939664907,0.452436903,-0.777062288
414,1039614,633630,-1.523,0.18,0.454,-17.8,-113.4,40.3,8,-6.7,-22.7,0.42915128,0.0922879727,0.451582385,-0.776757103
415,1041140,633630,-1.534,0.208,0.439,-11.7,-116.2,39.4,8,-6.7,-22.7,0.430982391,0.0905789361,0.450605792,-0.776482437
416,1043803,633630,-1.546,0.223,0.423,-4.1,-118.9,38.5,5.1,-6.7,-23,0.432813501,0.0889309366,0.449476608,-0.776329844
417,1046039,633640,-1.574,0.228,0.432,4.7,-121.7,37.6,5.1,-6.7,-23,0.434644612,0.0872829371,0.44819483,-0.776238289
418,1049405,633640,-1.586,0.22,0.436,14.7,-124.5,36.4,5.1,-6.7,-23,0.436445204,0.0856654561,0.446668905,-0.776268807
419,1051653,633640,-1.602,0.209,0.456,25.6,-126.9,35,5.1,-6.7,-23,0.438215278,0.0840784936,0.444959868,-0.7764214
420,1053920,633640,-1.622,0.19,0.48,36.8,-128.8,33.5,7.7,-6.8,-22.5,0.439985351,0.0825830866,0.443037202,-0.776696066
421,1056271,633650,-1.662,0.132,0.536,47.8,-130,32.1,7.7,-6.8,-22.5,0.441694388,0.0811487167,0.440931425,-0.777092807
422,1058634,633650,-1.682,0.113,0.56,58.1,-130.8,30.9,7.7,-6.8,-22.5,0.443372906,0.0798059023,0.438612018,-0.777581103
423,1061706,633650,-1.702,0.098,0.588,67.7,-131.2,29.6,7.7,-6.8,-22.5,0.445020905,0.0784936064,0.436140019,-0.778160955
424,1063956,633650,-1.725,0.09,0.647,76.5,-131.6,27.9,7.3,-7,-23.2,0.446607868,0.0772423475,0.433515427,-0.778832362
425,1066564,633660,-1.737,0.102,0.671,85.2,-131.9,25.6,7.3,-7,-23.2,0.448133793,0.0761131626,0.430738243,-0.779595325
426,1069564,633660,-1.737,0.122,0.698,93.7,-132.3,22.8,7.3,-7,-23.2,0.449598682,0.0749839778,0.427808466,-0.780480361
427,1072419,633660,-1.732,0.142,0.718,102.6,-132.6,19.8,7.3,-7,-23.2,0.451002533,0.07391583,0.424726096,-0.781456954
428,1073934,633660,-1.715,0.196,0.779,111.4,-132.6,16.7,6.4,-7.7,-22.6,0.452345347,0.0729087191,0.421491134,-0.782525101
429,1077133,633670,-1.706,0.236,0.822,119.8,-132.3,13.6,6.4,-7.7,-22.6,0.453596606,0.0719626453,0.418134098,-0.783715323
430,1078588,633670,-1.71,0.271,0.865,127.8,-131.5,10.3,6.4,-7.7,-22.6,0.454786828,0.0710776086,0.41462447,-0.784966582
431,1081458,633670,-1.709,0.303,0.908,135.4,-130.2,7,6.4,-7.7,-22.6,0.455854976,0.0702536088,0.410992767,-0.786309397
432,1083848,633670,-1.708,0.346,1.017,143,-128.5,3.3,5.6,-8.1,-22.5,0.456862087,0.0694906461,0.40723899,-0.787743767
433,1086957,633680,-1.707,0.362,1.072,151.2,-126.3,-0.7,5.6,-8.1,-22.5,0.457716605,0.0688192389,0.403393658,-0.789300211
434,1088753,633680,-1.719,0.362,1.127,160.1,-123.6,-5.4,5.6,-8.1,-22.5,0.458479568,0.0682393872,0.399395734,-0.79094821
435,1091278,633680,-1.742,0.367,1.237,169.7,-120.3,-10.1,5.6,-8.1,-22.5,0.459089938,0.0677816095,0.395275735,-0.792687765
436,1094474,633680,-1.753,0.367,1.288,179.6,-116.5,-15,2.9,-9.2,-22.3,0.459547716,0.0674153874,0.391003143,-0.794549394
437,1096543,633690,-1.765,0.367,1.335,189.4,-112.1,-20.1,2.9,-9.2,-22.3,0.459883419,0.0672017579,0.386638997,-0.796533097
438,1098785,633690,-1.781,0.372,1.382,199.1,-107.2,-25.5,2.9,-9.2,-22.3,0.460036012,0.0671407208,0.382122257,-0.798608356
439,1101567,633690,-1.823,0.408,1.454,208.4,-101.8,-31.3,2.9,-9.2,-22.3,0.460036012,0.0671712394,0.377513962,-0.800805689
440,1104521,633690,-1.851,0.44,1.466,216.8,-95.8,-37.6,2.1,-10,-21.8,0.459852901,0.0673848689,0.372814112,-0.803094577
441,1107648,633700,-1.881,0.496,1.463,223.7,-89.4,-44.5,2.1,-10,-21.8,0.45945616,0.067690054,0.368053224,-0.805475021
442,1109891,633700,-1.928,0.548,1.444,228.1,-82.8,-52.4,2.1,-10,-21.8,0.45884579,0.0680867946,0.363292337,-0.80794702
443,1112037,633700,-2.026,0.711,1.364,229.9,-76.7,-61.8,2.1,-10,-21.8,0.45802179,0.0685445723,0.358561968,-0.810480056
444,1114290,633700,-2.073,0.783,1.299,229,-71.6,-73.1,0.6,-10.9,-21.4,0.456953642,0.0690023499,0.353892636,-0.813104648
445,1116551,633710,-2.115,0.859,1.233,225.8,-68.3,-86.3,0.6,-10.9,-21.4,0.455610828,0.069368572,0.349314859,-0.815790277
446,1118709,633710,-2.162,0.942,1.168,221.3,-67.8,-102.2,0.6,-10.9,-21.4,0.453962828,0.0695822016,0.344859157,-0.81859798
447,1122088,633710,-2.204,1.104,1.036,216.3,-70,-121.7,0.6,-10.9,-21.4,0.451979125,0.0695516831,0.34049501,-0.821527757
448,1123875,633710,-2.237,1.297,0.982,210.1,-73.6,-144.6,-0.8,-12,-21.2,0.449598682,0.069246498,0.3361919,-0.824610126
449,1126470,633720,-2.089,1.655,0.918,201.2,-75.2,-168.7,-0.8,-12,-21.2,0.446790979,0.0686056093,0.33210242,-0.827845088
450,1128859,633720,-2.163,1.669,1.236,190.1,-71.3,-186.3,-0.8,-12,-21.2,0.443647572,0.0678426466,0.328226569,-0.831141087
451,1132112,633720,-2.181,1.823,1.131,179.7,-64.7,-191,-0.8,-12,-21.2,0.440382092,0.0669881283,0.324625385,-0.834345531
452,1133651,633720,-2.159,1.929,1.126,172.1,-59.4,-184.7,-1.7,-12.8,-19.7,0.437177648,0.0662862026,0.321176794,-0.837397382
453,1136637,633730,-2.129,2.042,1.172,166.6,-58.5,-177,-1.7,-12.8,-19.7,0.434125797,0.0655232398,0.317850276,-0.840327158
454,1138994,633730,-2.071,2.198,1.279,160.7,-59.8,-177.6,-1.7,-12.8,-19.7,0.431043428,0.0647602771,0.314584796,-0.843226417
455,1141201,633730,-2.042,2.248,1.345,153.5,-60.7,-187.4,-1.7,-12.8,-19.7,0.427777947,0.0638142033,0.311441389,-0.846095157
456,1143598,633730,-2.001,2.287,1.421,145.4,-60.3,-204,3.2,-14.4,-19.2,0.424207282,0.0626545,0.308481094,-0.849055452
457,1147216,633740,-1.965,2.318,1.51,137,-58.5,-224.1,3.2,-14.4,-19.2,0.420270394,0.0613116855,0.305703909,-0.852137822
458,1148664,633740,-1.848,2.355,1.683,128.8,-55.6,-245.4,3.2,-14.4,-19.2,0.415906247,0.0598467971,0.303109836,-0.855281228
459,1151083,633740,-1.752,2.368,1.754,120.2,-52,-266.8,3.2,-14.4,-19.2,0.411084323,0.0581987976,0.300729392,-0.858546709
460,1153606,633740,-1.645,2.37,1.814,110.5,-47.9,-288.2,0.8,-12.4,-18.8,0.405865658,0.0563982055,0.298593097,-0.861903745
461,1156075,633750,-1.501,2.37,1.853,98.7,-43,-310.5,0.8,-12.4,-18.8,0.400158696,0.0544450209,0.296731468,-0.865352336
462,1158874,633750,-1.116,2.377,1.96,84.9,-37.1,-334.6,0.8,-12.4,-18.8,0.393963439,0.0522782067,0.295175024,-0.868831446
463,1161671,633750,-0.921,2.397,1.99,70.1,-29.7,-361.9,0.8,-12.4,-18.8,0.38718833,0.050019837,0.29401532,-0.872402112
464,1163876,633750,-0.706,2.427,1.953,55.6,-21.7,-392.9,2.4,-12.4,-18.4,0.37980285,0.0475478378,0.293191321,-0.876064333
465,1166850,633760,-0.233,2.51,1.862,42.4,-13.8,-427.9,2.4,-12.4,-18.4,0.371654408,0.0448927274,0.292672506,-0.879848628
466,1168606,633760,0,2.532,1.816,31.6,-6.6,-466.2,2.4,-12.4,-18.4,0.362681967,0.0420239875,0.292458876,-0.883785516
467,1171399,633760,0.246,2.519,1.759,23.8,0,-506.4,2.4,-12.4,-18.4,0.352885525,0.0390026551,0.292458876,-0.887905515
468,1174460,633760,0.523,2.485,1.728,19.1,6.8,-547.8,5,-12.1,-18.1,0.342173528,0.0357676931,0.29258095,-0.892178106
469,1176559,633770,1.088,2.409,1.522,16.2,13.6,-589.4,5,-12.1,-18.1,0.330545976,0.0324106571,0.29279458,-0.89660329
470,1179550,633770,1.381,2.371,1.456,12.6,20.3,-631.4,5,-12.1,-18.1,0.318063906,0.0288094729,0.293130284,-0.901120029
471,1181075,633770,1.706,2.32,1.42,7.1,25.7,-674.2,5,-12.1,-18.1,0.304605243,0.0250862148,0.293557543,-0.905728324
472,1183949,633770,2.11,2.267,1.386,0.2,29.2,-718.7,8.7,-11.6,-17.9,0.290169988,0.0210577715,0.294106876,-0.910397656
473,1186959,633780,2.994,2.168,0.788,-6.7,29.9,-764.7,8.7,-11.6,-17.9,0.274758141,0.0166936247,0.294717246,-0.91503647
474,1189960,633780,2.928,1.785,-1.489,-13.9,26,-810.8,8.7,-11.6,-17.9,0.258369701,0.0119327372,0.295388653,-0.919675283
475,1191406,633780,2.041,-0.639,-7.36,-10.7,-5,-852.6,8.7,-11.6,-17.9,0.241248817,0.00625629444,0.295785394,-0.924253059
476,1194414,633780,-1.184,-3.474,-7.929,115.3,-124.5,-878.6,11.1,-12.8,-18.2,0.224280526,-0.0012817774,0.292855617,-0.929471725
477,1196729,633790,7.966,-8.273,-1.59,483.1,-350.7,-818.9,11.1,-12.8,-18.2,0.20987579,-0.01126133,0.281258583,-0.936307871
478,1199506,633790,7.995,-8.255,3.56,978.1,-543.3,-508.5,11.1,-12.8,-18.2,0.202978607,-0.0209967345,0.258552812,-0.944181646
479,1201124,633790,7.95,-8.271,-0.293,1104.9,-487.2,-27,11.1,-12.8,-18.2,0.205603198,-0.0262459181,0.233527635,-0.949980163
480,1204086,633790,6.402,-2.576,7.859,741.7,-170.6,304.6,11.8,-13.6,-16.1,0.213171789,-0.0249031037,0.217535936,-0.952146977
481,1207082,633800,2.914,2.691,7.913,114.2,156.2,225.7,11.8,-13.6,-16.1,0.217200232,-0.0200811792,0.21601001,-0.951689199
482,1209701,633800,0.648,2.979,5.86,-350,282.9,-159.1,11.8,-13.6,-16.1,0.212378307,-0.0166020692,0.224524674,-0.9508652
483,1211079,633800,-0.429,8.022,5.038,-548.3,261.7,-495.8,11.8,-13.6,-16.1,0.200598163,-0.016113773,0.236915189,-0.950437941
484,1214160,633800,-4.105,8.1,0.472,-523.4,221.3,-574.3,12.2,-13.2,-17.6,0.187322611,-0.0168156987,0.248481704,-0.950163274
485,1217208,633810,-5.17,8.122,-1.174,-309.1,198.6,-414,12.2,-13.2,-17.6,0.17752617,-0.0162053285,0.25553148,-0.950193793
486,1219306,633810,-5.44,8.129,-0.55,-40.5,148.1,-170.4,12.2,-13.2,-17.6,0.173162023,-0.0142521439,0.256904813,-0.950682089
487,1221089,633810,-3.558,8.083,-2.561,155,94.6,-18.5,12.2,-13.2,-17.6,0.172276986,-0.0118106632,0.254036073,-0.951628162
488,1224573,633810,1.371,7.973,0.049,254.4,63.3,17.2,12.4,-12.4,-17.2,0.172368542,-0.00943021943,0.249000519,-0.952970977
489,1226217,633820,2.961,6.103,1.219,274.6,51.3,11.9,12.4,-12.4,-17.2,0.172368542,-0.00726340526,0.243476669,-0.954405347
490,1228679,633820,2.964,3.533,1.636,248.2,26.8,41.1,12.4,-12.4,-17.2,0.173131504,-0.00555436872,0.238410596,-0.95556505
491,1232878,633820,0.412,0.24,-0.679,185.1,-13.8,106.8,12.4,-12.4,-17.2,0.175450911,-0.00460829493,0.234504227,-0.956114383
492,1235111,633820,-0.148,-0.485,-0.341,120.2,-53.2,161.5,12.9,-13.3,-16.5,0.179113132,-0.00442518387,0.231788079,-0.956114383
493,1237390,633830,-0.772,-0.913,0.633,87.4,-70.3,169.9,12.9,-13.3,-16.5,0.183019501,-0.00466933195,0.229712821,-0.955870235
494,1239917,633830,-1.98,-4.861,1.911,91.1,-63.2,122.5,12.9,-13.3,-16.5,0.185888241,-0.00503555406,0.227576525,-0.955809198
495,1241848,633830,-0.942,-4.584,3.066,110.3,-49.4,22,12.9,-13.3,-16.5,0.186620685,-0.00549333171,0.225074007,-0.956266976
496,1244047,633830,-1.095,-5.272,3.865,111.7,-37.5,-98.9,12.7,-13.2,-16.3,0.184728538,-0.00631733146,0.22257149,-0.95721305
497,1246349,633840,-1.185,-5.379,4.372,78.7,-25.6,-193.3,12.7,-13.2,-16.3,0.180852687,-0.00747703482,0.220801416,-0.958342235
498,1250403,633840,-1.166,-4.77,4.717,17,-10,-215.6,12.7,-13.2,-16.3,0.176366466,-0.00863673818,0.220374157,-0.959288308
499,1252686,633840,-0.536,-2.838,4.975,-42.8,3,-172.9,12.7,-13.2,-16.3,0.172734764,-0.00958281198,0.221228675,-0.959715567
500,1254199,633840,-0.278,-1.866,4.38,-68.2,5.2,-100.8,13.4,-15.2,-16.3,0.170567949,-0.0102237007,0.222663045,-0.959776605
501,1256392,633850,-0.252,-1.306,3.862,-53.6,-1.3,-31,13.4,-15.2,-16.3,0.169927061,-0.0105899228,0.223761711,-0.959624012
502,1259369,633850,-0.263,-0.905,3.673,-18.5,-8.2,20.5,13.4,-15.2,-16.3,0.170384838,-0.0107425153,0.224127934,-0.959471419
503,1261235,633850,-0.303,-0.605,3.615,10.1,-10.7,49.1,13.4,-15.2,-16.3,0.171483505,-0.0106814783,0.223853267,-0.959318827
504,1263845,633850,-0.35,-0.789,3.449,16.4,-9.8,53.4,13.8,-15.6,-16.6,0.172643208,-0.0105594043,0.223517563,-0.959196753
505,1266249,633860,-0.376,-1.103,3.251,-1.3,-8.8,34.8,13.8,-15.6,-16.6,0.173406171,-0.0105899228,0.223517563,-0.959074679
506,1269479,633860,-0.374,-1.898,2.894,-33,-9.6,-0.5,13.8,-15.6,-16.6,0.173436689,-0.0109256264,0.224188971,-0.958891568
507,1271821,633860,-0.356,-2.225,2.672,-63.7,-12.5,-42.9,13.8,-15.6,-16.6,0.172582171,-0.0116275521,0.225470748,-0.958738975
508,1274017,633860,-0.356,-2.225,2.672,-63.7,-12.5,-42.9,13.8,-15.6,-16.6,0.172582171,-0.0116275521,0.225470748,-0.958738975
509,1276381,633870,-0.292,-2.75,2.125,-89,-19.8,-107,13.4,-16.1,-16.4,0.168767357,-0.0139774773,0.228858303,-0.958586383
510,1279157,633870,-0.343,-2.925,1.943,-84.8,-23.2,-115.3,13.4,-16.1,-16.4,0.166447951,-0.0153508103,0.230536821,-0.958586383
511,1281332,633870,-0.308,-2.954,1.88,-77,-26.8,-108.4,13.4,-16.1,-16.4,0.164281137,-0.0167241432,0.232001709,-0.958586383
512,1283713,633870,-0.185,-2.953,1.853,-70.1,-30.5,-92.7,13.7,-15.5,-17,0.162480544,-0.0180669576,0.233314005,-0.958525346
513,1286428,633880,-0.021,-2.886,1.86,-65.6,-34.7,-76.4,13.7,-15.5,-17,0.161046175,-0.019409772,0.234534745,-0.958464309
514,1288906,633880,0.38,-2.49,1.856,-62.4,-38.7,-64.8,13.7,-15.5,-17,0.159855953,-0.0207525864,0.235694449,-0.958342235
515,1291190,633880,0.56,-2.145,1.768,-60,-42.3,-59.6,13.7,-15.5,-17,0.158787805,-0.0221869564,0.236762597,-0.958220161
516,1293970,633880,0.704,-1.735,1.646,-59.1,-44.3,-59.4,13.9,-11.5,-15.3,0.157750175,-0.0236213263,0.237830744,-0.958098086
517,1296186,633890,0.821,-1.294,1.497,-59.6,-44.8,-62,13.9,-11.5,-15.3,0.156651509,-0.0250862148,0.238868374,-0.957976012
518,1299392,633890,0.983,-0.485,1.116,-59.3,-44.2,-65.3,13.9,-11.5,-15.3,0.155491806,-0.0265816218,0.239936522,-0.957853938
519,1301741,633890,1.01,-0.171,0.958,-55.9,-43,-69,13.9,-11.5,-15.3,0.154240547,-0.0280159917,0.240913114,-0.957792901
520,1304021,633890,1.08,0.066,0.799,-49.5,-41.6,-72.9,13.9,-12.2,-19,0.152897732,-0.0294198431,0.241767632,-0.957731864
521,1306289,633900,1.194,0.334,0.533,-42.5,-40.9,-76.6,13.9,-12.2,-19,0.151493881,-0.0308542131,0.242469558,-0.957731864
522,1308645,633900,1.214,0.349,0.404,-36.8,-40.8,-78.4,13.9,-12.2,-19,0.150059511,-0.032227546,0.243049409,-0.957762383
523,1311671,633900,1.224,0.313,0.298,-32.2,-41.1,-76.2,13.9,-12.2,-19,0.14865566,-0.0336008789,0.243537706,-0.95782342
524,1313821,633900,1.251,0.053,0.099,-27.3,-40.5,-70.3,14.1,-11.3,-19.3,0.147373882,-0.0349131748,0.243934446,-0.957884457
525,1316176,633910,1.252,-0.123,-0.025,-20.7,-38.8,-62.5,14.1,-11.3,-19.3,0.146244697,-0.0361339152,0.244178594,-0.957945494
526,1319849,633910,1.232,-0.312,-0.137,-11.8,-36.7,-54.5,14.1,-11.3,-19.3,0.145298624,-0.0372325816,0.24427015,-0.958006531
527,1321299,633910,1.213,-0.484,-0.222,0,-34.9,-46.8,14.1,-11.3,-19.3,0.144505142,-0.0382091739,0.244117557,-0.958128605
528,1323835,633910,1.183,-0.621,-0.224,14.9,-33.4,-39.3,14.4,-10.7,-19.1,0.143864254,-0.0390636921,0.24365978,-0.958311716
529,1327326,633920,1.186,-0.813,-0.044,33.5,-31.6,-32.7,14.4,-10.7,-19.1,0.143375958,-0.0397961364,0.24283578,-0.958555864
530,1328733,633920,1.137,-0.859,-0.004,55.4,-28.7,-27.5,14.4,-10.7,-19.1,0.143009735,-0.040375988,0.241554003,-0.958922086
531,1331219,633920,0.995,-0.817,0.003,81.1,-24.3,-23.4,14.4,-10.7,-19.1,0.142735069,-0.0407422102,0.239783929,-0.959379864
532,1333604,633920,1.104,-0.717,0.043,110.4,-19.6,-19.7,14.2,-10.5,-19.3,0.142521439,-0.0409253212,0.237372967,-0.960020753
533,1337041,633930,1.395,-0.798,0.523,141.2,-15.9,-15.2,14.2,-10.5,-19.3,0.142399365,-0.0408948027,0.234351634,-0.960783715
534,1338798,633930,1.63,-0.909,0.955,169.9,-12.1,-6.7,14.2,-10.5,-19.3,0.142460402,-0.0406506546,0.23075045,-0.961638234
535,1341543,633930,1.673,-1,1.075,192.6,-6.5,9.5,14.2,-10.5,-19.3,0.142857143,-0.04013184,0.226691488,-0.962584307
536,1344510,633930,1.578,-0.833,0.581,204.2,1.2,36.3,14.2,-12.3,-17.2,0.143772698,-0.0393078402,0.222449416,-0.963469344
537,1346206,633940,1.646,-0.678,0.247,198.7,9.6,70.6,14.2,-12.3,-17.2,0.145420698,-0.0381176183,0.218359935,-0.964201788
538,1349556,633940,1.714,-0.562,0.038,174.3,17.1,105.8,14.2,-12.3,-17.2,0.147679067,-0.0367137669,0.214819788,-0.964690085
539,1351054,633940,1.771,-0.446,-0.03,138.5,23.3,135.2,14.2,-12.3,-17.2,0.150547807,-0.0351268044,0.212073122,-0.964934233
540,1354189,633940,1.826,-0.297,0.19,103.1,28.6,156,13.8,-12.7,-16.3,0.153782769,-0.0334788049,0.210119938,-0.964903714
541,1356303,633950,1.811,-0.281,0.354,77.2,34.1,169.1,13.8,-12.7,-16.3,0.157231361,-0.0317087313,0.208746605,-0.964690085
542,1359313,633950,1.776,-0.315,0.477,62.8,40.8,177.3,13.8,-12.7,-16.3,0.160832545,-0.0298471023,0.207678457,-0.964415418
543,1362345,633950,1.727,-0.377,0.537,57.6,49,183.6,13.8,-12.7,-16.3,0.164494766,-0.0277718436,0.206762902,-0.964049196
544,1363629,633950,1.63,-0.52,0.505,57.4,57.8,189.9,13.4,-13.1,-15.1,0.168279061,-0.0254829554,0.205877865,-0.963652455
545,1366742,633960,1.581,-0.566,0.432,59,66,196.5,13.4,-13.1,-15.1,0.172154912,-0.0230109561,0.20496231,-0.963225196
546,1369795,633960,1.537,-0.585,0.355,60.1,72.6,202.7,13.4,-13.1,-15.1,0.1760918,-0.0203558458,0.204077273,-0.9627369
547,1371315,633960,1.473,-0.541,0.224,59.9,77.6,207.8,13.4,-13.1,-15.1,0.180150761,-0.0175481429,0.203222755,-0.962248604
548,1374322,633960,1.438,-0.477,0.178,58.6,81.3,211.5,13,-13.7,-13.3,0.184240242,-0.0146794031,0.202368236,-0.961699271
549,1376100,633970,1.407,-0.394,0.163,56.2,84.3,213.9,13,-13.7,-13.3,0.188390759,-0.0117496261,0.201605274,-0.9610889
550,1378827,633970,1.389,-0.303,0.159,52.4,86.6,215.8,13,-13.7,-13.3,0.192541276,-0.00875881222,0.200903348,-0.960448012
551,1381177,633970,1.372,-0.13,0.143,46.6,88.6,217.4,13,-13.7,-13.3,0.196722312,-0.00573747978,0.200354015,-0.959746086
552,1384281,633970,1.357,-0.055,0.151,39,90.4,218.6,11.8,-14.2,-12.7,0.200903348,-0.00271614734,0.199957274,-0.958952605
553,1386408,633980,1.33,-0.007,0.16,30.4,92.3,219.2,11.8,-14.2,-12.7,0.205084384,0.000274666585,0.199713126,-0.958128605
554,1388935,633980,1.314,0.016,0.156,21.5,94,219.3,11.8,-14.2,-12.7,0.209265419,0.00326548051,0.199682608,-0.95721305
555,1391610,633980,1.271,0.009,0.157,13.1,95.6,218.7,11.8,-14.2,-12.7,0.213385418,0.00628681295,0.1998352,-0.956266976
556,1394767,633980,1.242,-0.032,0.162,5.9,97,217.6,11.4,-14.9,-17.5,0.217505417,0.00927762688,0.200140385,-0.955259865
557,1396395,633990,1.21,-0.091,0.159,0.2,98.4,216,11.4,-14.9,-17.5,0.221594897,0.0122989593,0.200537126,-0.954191717
558,1399356,633990,1.177,-0.161,0.152,-3.8,99.7,214.2,11.4,-14.9,-17.5,0.225592822,0.0152897732,0.20105594,-0.953093051
559,1401216,633990,1.099,-0.289,0.116,-6.3,101,212,11.4,-14.9,-17.5,0.229560228,0.0182805872,0.201605274,-0.951994385
560,1404386,633990,1.066,-0.351,0.109,-7.2,101.8,209.6,11.3,-15.1,-14.3,0.233466597,0.0212408826,0.202185125,-0.9508652
561,1406476,634000,1.03,-0.409,0.095,-6.5,102.3,206.8,11.3,-15.1,-14.3,0.23731193,0.0242927335,0.202734458,-0.949705496
562,1409303,634000,0.957,-0.478,0.042,-4.4,102.3,203.7,11.3,-15.1,-14.3,0.241096225,0.0272835475,0.203253273,-0.948576312
563,1411597,634000,0.925,-0.493,0.039,-1.5,101.9,200,11.3,-15.1,-14.3,0.244758446,0.0302743614,0.203680532,-0.947447127
564,1413816,634000,0.889,-0.508,0.02,1.5,101.2,196.3,10.3,-15.5,-14.8,0.24835963,0.0332346568,0.204077273,-0.946287423
565,1416175,634010,0.849,-0.503,0.018,4.5,100.2,192.7,10.3,-15.5,-14.8,0.251899777,0.0361644337,0.204382458,-0.945219275
566,1418688,634010,0.77,-0.489,0.028,7.3,99,189.5,10.3,-15.5,-14.8,0.255348369,0.0390942106,0.204626606,-0.944120609
567,1422981,634010,0.734,-0.489,0.036,9.8,97.6,187,10.3,-15.5,-14.8,0.258766442,0.0420239875,0.204779199,-0.943021943
568,1425322,634010,0.695,-0.48,0.049,12.1,96,185.1,10,-15.7,-15.7,0.262123478,0.0448927274,0.204901273,-0.941923276
569,1426811,634020,0.655,-0.483,0.062,14.3,93.8,183.7,10,-15.7,-15.7,0.265480514,0.0477309488,0.20496231,-0.940855129
570,1429062,634020,0.592,-0.485,0.099,16.3,91.2,182.6,10,-15.7,-15.7,0.268807031,0.0505081332,0.20496231,-0.939756462
571,1431276,634020,0.56,-0.5,0.131,17.8,88.2,182,10,-15.7,-15.7,0.27210303,0.053254799,0.204931791,-0.938657796
572,1435245,634020,0.532,-0.523,0.167,18.9,84.9,181.8,9.4,-15.9,-16.2,0.275429548,0.0559099094,0.204840236,-0.93755913
573,1437437,634030,0.484,-0.569,0.211,19.5,81.4,182,9.4,-15.9,-16.2,0.278756066,0.0585039827,0.204687643,-0.936429945
574,1439011,634030,0.46,-0.6,0.228,19.7,77.8,182.5,9.4,-15.9,-16.2,0.282113102,0.061037019,0.204535051,-0.93530076
575,1441373,634030,0.44,-0.627,0.252,19.2,74.4,183.1,9.4,-15.9,-16.2,0.285500656,0.0634784997,0.204321421,-0.934171575
576,1443682,634030,0.42,-0.654,0.291,18.1,70.8,183.5,8.4,-16.4,-14.4,0.288888211,0.0658589434,0.204168828,-0.932981353
577,1446174,634040,0.368,-0.688,0.355,16.4,67.3,183.5,8.4,-16.4,-14.4,0.292306284,0.0681478317,0.203985717,-0.931791131
578,1450410,634040,0.344,-0.699,0.383,14.3,64.1,183.4,8.4,-16.4,-14.4,0.295724357,0.0703756829,0.203833125,-0.930600909
579,1452725,634040,0.312,-0.706,0.411,11.6,61,183,8.4,-16.4,-14.4,0.29914243,0.07248146,0.203711051,-0.929380169
580,1454890,634040,0.285,-0.698,0.443,8.4,58,182.4,7.9,-17,-14.4,0.302560503,0.0745262001,0.203619495,-0.928098392
581,1456579,634050,0.222,-0.673,0.492,4.7,55.1,181.7,7.9,-17,-14.4,0.305978576,0.0764793847,0.203588977,-0.926847133
582,1459133,634050,0.195,-0.656,0.532,0.8,52.4,180.7,7.9,-17,-14.4,0.309396649,0.0783715323,0.203619495,-0.925534837
583,1461210,634050,0.163,-0.64,0.552,-2.8,49.7,179.2,7.9,-17,-14.4,0.312814722,0.0801416059,0.203711051,-0.924222541
584,1463729,634050,0.105,-0.599,0.604,-6.1,47.1,177.3,7.5,-17.1,-14.3,0.316171758,0.0818506424,0.203833125,-0.922849208
585,1467086,634060,0.089,-0.575,0.636,-8.8,44.5,175.1,7.5,-17.1,-14.3,0.319528794,0.0834376049,0.204016236,-0.921567431
586,1468711,634060,0.074,-0.543,0.632,-11.2,42,172.6,7.5,-17.1,-14.3,0.322824793,0.0849940489,0.204229865,-0.920224616
587,1471090,634060,0.058,-0.539,0.652,-13.4,39.7,170,7.5,-17.1,-14.3,0.326090274,0.0864589373,0.204443495,-0.918881802
588,1473569,634060,0.012,-0.471,0.665,-15.6,37.7,167,7,-16.7,-14.1,0.329294717,0.0878322703,0.204718162,-0.917538987
589,1477827,634070,-0.011,-0.443,0.669,-17.5,35.9,163.7,7,-16.7,-14.1,0.332438124,0.0891750847,0.204992828,-0.916226691
590,1479884,634070,-0.03,-0.419,0.678,-18.9,34.7,160,7,-16.7,-14.1,0.335520493,0.0904263436,0.205298013,-0.914914396
591,1481551,634070,-0.046,-0.395,0.686,-20.2,33.8,156.2,7,-16.7,-14.1,0.338511307,0.091647084,0.205664235,-0.9136021
592,1483805,634070,-0.104,-0.343,0.703,-21.7,33.2,152.5,6.4,-17,-14.5,0.341471603,0.0928373058,0.206030457,-0.912289804
593,1486779,634080,-0.135,-0.307,0.715,-23.6,32.9,149,6.4,-17,-14.5,0.344309824,0.0939970092,0.206457717,-0.911008026
594,1489017,634080,-0.163,-0.274,0.739,-26.1,33.1,145.8,6.4,-17,-14.5,0.347117527,0.095126194,0.206915494,-0.909726249
595,1491254,634080,-0.194,-0.246,0.752,-29.2,33.5,142.8,6.4,-17,-14.5,0.349864193,0.0961943419,0.207464827,-0.908444472
596,1493714,634080,-0.264,-0.186,0.765,-32.6,33.9,139.9,4.7,-17.4,-14.2,0.352549821,0.0972624897,0.208075198,-0.907132176
597,1496169,634090,-0.296,-0.157,0.774,-36.3,34.2,136.6,4.7,-17.4,-14.2,0.355174413,0.098239082,0.208777123,-0.905850398
598,1499206,634090,-0.327,-0.129,0.778,-40,34.2,133.2,4.7,-17.4,-14.2,0.357737968,0.0992156743,0.209540086,-0.904568621
599,1502470,634090,-0.362,-0.113,0.772,-43.3,34.1,129.5,4.7,-17.4,-14.2,0.360240486,0.100192267,0.210364086,-0.903256325
600,1504594,634090,-0.422,-0.099,0.781,-46.1,33.8,125.6,6.3,-17.1,-14.3,0.362651448,0.101046785,0.211279641,-0.902005066
601,1506163,634100,-0.445,-0.091,0.778,-48.7,33.5,121.6,6.3,-17.1,-14.3,0.365001373,0.101901303,0.212225715,-0.900723289
602,1509064,634100,-0.477,-0.09,0.782,-50.9,33,117.6,6.3,-17.1,-14.3,0.367259743,0.102694784,0.213232826,-0.89947203
603,1511548,634100,-0.521,-0.089,0.799,-52.7,32.4,113.6,6.3,-17.1,-14.3,0.369457076,0.103427229,0.214270455,-0.898251289
604,1514605,634100,-0.521,-0.089,0.799,-52.7,32.4,113.6,6.3,-17.1,-14.3,0.369457076,0.103427229,0.214270455,-0.898251289
605,1516395,634110,-0.56,-0.096,0.831,-54.2,31.2,106.1,6.1,-17.2,-14.9,0.373943297,0.105777154,0.215613269,-0.89577929
606,1519354,634110,-0.584,-0.1,0.848,-53.8,30.6,102.6,6.1,-17.2,-14.9,0.375927,0.106418043,0.216681417,-0.894619587
607,1521432,634110,-0.627,-0.095,0.876,-53.1,29.8,99.4,6.1,-17.2,-14.9,0.377849666,0.107028413,0.217719047,-0.893490402
608,1523748,634110,-0.639,-0.098,0.88,-52.4,28.8,96.4,5.6,-17.4,-15,0.379711295,0.107608264,0.218756676,-0.892361217
609,1526019,634120,-0.663,-0.098,0.889,-52.1,27.8,93.6,5.6,-17.4,-15,0.381542405,0.108157598,0.219763787,-0.891293069
610,1528636,634120,-0.695,-0.089,0.894,-52,26.9,90.9,5.6,-17.4,-15,0.383281961,0.108706931,0.220801416,-0.890194403
611,1532529,634120,-0.73,-0.069,0.894,-52,25.9,88.1,5.6,-17.4,-15,0.384990997,0.109195227,0.221808527,-0.889156774
612,1534153,634120,-0.75,-0.056,0.899,-52,25.9,88.1,5,-17.2,-15.2,0.386700034,0.109683523,0.222846156,-0.888088626
613,1536215,634130,-0.758,-0.056,0.919,-52.1,24.7,85.2,5,-17.2,-15.2,0.388378552,0.110141301,0.223853267,-0.887050996
614,1540303,634130,-0.765,-0.04,0.942,-52.3,23.4,82.1,5,-17.2,-15.2,0.389965514,0.110538041,0.224829859,-0.886043886
615,1542257,634130,-0.789,-0.028,0.997,-52.4,22.1,79.1,5,-17.2,-15.2,0.391521958,0.110904263,0.225867489,-0.885067293
616,1544578,634130,-0.796,-0.028,1.025,-52.7,21.2,76.1,3,-17.2,-15.6,0.393017365,0.111239967,0.226874599,-0.88412122
617,1546802,634140,-0.792,-0.028,1.044,-53.3,20.7,73.6,3,-17.2,-15.6,0.394451735,0.111545152,0.227912229,-0.883144627
618,1548786,634140,-0.788,-0.004,1.068,-54.4,20.5,71.3,3,-17.2,-15.6,0.395855586,0.111850337,0.228980377,-0.882229072
619,1552627,634140,-0.784,0.003,1.075,-56.6,20.5,69.3,3,-17.2,-15.6,0.397228919,0.112094485,0.230079043,-0.881282998
620,1554222,634140,-0.783,0.01,1.079,-60.2,20.7,67.5,3,-17.2,-15.6,0.398571734,0.112308115,0.231238746,-0.880336924
621,1557042,634150,-0.783,0.03,1.075,-65.6,21.2,65.7,3,-17.2,-15.6,0.39988403,0.112460707,0.232520524,-0.879390851
622,1558830,634150,-0.795,0.066,1.083,-72.5,22,63.5,3,-17.2,-15.6,0.401165807,0.112582781,0.233954894,-0.878414258
623,1561613,634150,-0.802,0.086,1.072,-80.4,23.3,60.6,3,-17.2,-15.6,0.402417066,0.112643818,0.235541856,-0.877407147
624,1563775,634150,-0.814,0.102,1.06,-97.3,26.9,53.7,3,-17.2,-15.6,0.403546251,0.112582781,0.237525559,-0.876369518
625,1566627,634160,-0.834,0.114,1.033,-97.3,26.9,53.7,3,-17.2,-15.6,0.404644917,0.112521744,0.239478744,-0.875331889
626,1568999,634160,-0.889,0.146,0.996,-105.5,28.9,49.9,3,-17.2,-15.6,0.405713065,0.11239967,0.24161504,-0.874263741
627,1572763,634160,-0.917,0.151,0.985,-113.4,30.8,46.1,3,-17.2,-15.6,0.406720176,0.112216559,0.243964965,-0.873165075
628,1574292,634160,-0.949,0.156,0.978,-120.9,32.4,42.4,3,-17.2,-15.6,0.407635731,0.11200293,0.246436964,-0.872066408
629,1576511,634170,-1.024,0.153,0.972,-128.1,33.9,38.8,3,-17.2,-15.6,0.408520768,0.111697745,0.249092074,-0.870937223
630,1578992,634170,-1.06,0.154,0.969,-135,35.4,35.1,3,-17.2,-15.6,0.409314249,0.111362041,0.251869259,-0.869808039
631,1581379,634170,-1.096,0.151,0.962,-141.5,36.9,31,3,-17.2,-15.6,0.410046693,0.110934782,0.254829554,-0.868648335
632,1585505,634170,-1.127,0.144,0.955,-147.4,38.2,26.7,3,-17.2,-15.6,0.410687582,0.110538041,0.257881405,-0.867488632
633,1586106,634180,-1.168,0.117,0.949,-152.5,39.4,22.2,3,-17.2,-15.6,0.411267434,0.110019227,0.261085849,-0.866359447
634,1589649,634180,-1.18,0.102,0.953,-156.6,40.3,17.5,3,-17.2,-15.6,0.411725211,0.109469893,0.264351329,-0.865199744
635,1591154,634180,-1.196,0.083,0.957,-159.4,41,12.5,3,-17.2,-15.6,0.412121952,0.108890042,0.267708365,-0.864070559
636,1595032,634180,-1.204,0.051,0.969,-160.6,41.1,7.1,4,-15.6,-17.7,0.4123661,0.108279672,0.271065401,-0.862941374
637,1596531,634190,-1.209,0.012,0.973,-160.4,41,1.7,4,-15.6,-17.7,0.412549211,0.107608264,0.274452956,-0.861873226
638,1598775,634190,-1.209,-0.006,0.974,-159.1,40.7,-3.5,4,-15.6,-17.7,0.41257973,0.106936857,0.277809992,-0.860866115
639,1601369,634190,-1.209,-0.022,0.97,-156.8,40.4,-8.9,4,-15.6,-17.7,0.412549211,0.106234931,0.281167028,-0.859889523
640,1605485,634190,-1.206,-0.046,0.974,-153.9,40,-14,4,-15.6,-17.7,0.412396619,0.105502487,0.284432508,-0.858973968
641,1607647,634200,-1.198,-0.066,0.97,-150.4,39.5,-19,4,-15.6,-17.7,0.41215247,0.104770043,0.28766747,-0.858119449
642,1609121,634200,-1.198,-0.074,0.97,-146.5,39,-23.8,4,-15.6,-17.7,0.411786248,0.104037599,0.290810877,-0.857325968
643,1611181,634200,-1.19,-0.078,0.965,-142.6,38.3,-28.4,4,-15.6,-17.7,0.411328471,0.103274636,0.293893246,-0.856563005
644,1614018,634200,-1.182,-0.082,0.965,-135.1,36.7,-36.7,1.1,-14.3,-18.7,0.410718101,0.102511673,0.296823023,-0.855952635
645,1616271,634210,-1.179,-0.086,0.973,-135.1,36.7,-36.7,1.1,-14.3,-18.7,0.410077212,0.101748711,0.2997528,-0.855311747
646,1619060,634210,-1.171,-0.086,0.973,-131.5,36,-40.6,1.1,-14.3,-18.7,0.409375286,0.100985748,0.30262154,-0.854731895
647,1621165,634210,-1.159,-0.086,0.972,-128,35.7,-44.4,1.1,-14.3,-18.7,0.408612323,0.100192267,0.305429243,-0.85421308
648,1624264,634210,-1.147,-0.083,0.972,-124.9,35.4,-47.9,1.6,-13.5,-19.6,0.407727287,0.0994293039,0.308175909,-0.853724784
649,1626520,634220,-1.139,-0.075,0.972,-122.3,35.1,-51.2,1.6,-13.5,-19.6,0.406811731,0.0986663411,0.310861538,-0.853267006
650,1629299,634220,-1.131,-0.083,0.968,-120.3,34.7,-54.4,1.6,-13.5,-19.6,0.405835139,0.0978728599,0.313547166,-0.852870266
651,1632043,634220,-1.131,-0.083,0.968,-118.8,34.6,-57.6,1.6,-13.5,-19.6,0.404766991,0.0970793786,0.316171758,-0.852473525
652,1634409,634220,-1.123,-0.079,0.975,-117.4,34.7,-60.8,1.6,-13.5,-19.6,0.403637806,0.0962553789,0.31879635,-0.852137822
653,1636580,634230,-1.119,-0.087,0.983,-115.6,35.1,-63.8,1.6,-13.5,-19.6,0.402447584,0.0954618976,0.321390423,-0.851802118
654,1638691,634230,-1.111,-0.091,0.983,-113.5,35.5,-66.3,1.6,-13.5,-19.6,0.401196326,0.0946378979,0.323953978,-0.851527451
655,1641094,634230,-1.107,-0.091,0.983,-111.3,36,-68.3,1.6,-13.5,-19.6,0.399914548,0.0938444166,0.326487014,-0.851252785
656,1643710,634230,-1.092,-0.107,0.975,-109.2,36.5,-69.9,5.2,-11,-19.7,0.398571734,0.0930814539,0.328959014,-0.851008637
657,1647798,634240,-1.088,-0.115,0.971,-107.4,37,-71,5.2,-11,-19.7,0.397198401,0.0923184912,0.331431013,-0.850764489
658,1649419,634240,-1.084,-0.127,0.967,-106,37.5,-71.9,5.2,-11,-19.7,0.395794549,0.0915860469,0.333872494,-0.850550859
659,1651527,634240,-1.076,-0.147,0.966,-105,38,-72.7,5.2,-11,-19.7,0.394390698,0.0908536027,0.336283456,-0.85033723
660,1653892,634240,-1.081,-0.167,0.963,-104.4,38.6,-73.1,6.9,-10.3,-20.3,0.392956328,0.0901211585,0.338694418,-0.8501236
661,1657164,634250,-1.081,-0.175,0.963,-104.2,39.2,-73.5,6.9,-10.3,-20.3,0.39149144,0.0894192328,0.34110538,-0.84990997
662,1659162,634250,-1.081,-0.178,0.955,-104.3,39.9,-73.7,6.9,-10.3,-20.3,0.390026551,0.088717307,0.343516343,-0.849665822
663,1661208,634250,-1.077,-0.186,0.947,-105.1,40.8,-73.8,6.9,-10.3,-20.3,0.388561663,0.0880458998,0.345957823,-0.849421674
664,1664760,634250,-1.081,-0.194,0.936,-109.5,42.6,-74.2,7.6,-9.9,-20.8,0.387066256,0.0873439741,0.34849086,-0.849147008
665,1666837,634260,-1.073,-0.194,0.924,-109.5,42.6,-74.2,7.6,-9.9,-20.8,0.385570849,0.0866420484,0.351023896,-0.848841823
666,1669259,634260,-1.077,-0.202,0.92,-113,43.6,-74.5,7.6,-9.9,-20.8,0.384075442,0.0859096042,0.353617969,-0.848536637
667,1671606,634260,-1.085,-0.202,0.904,-117.1,44.6,-74.8,7.6,-9.9,-20.8,0.382549516,0.0851771599,0.356303598,-0.848170415
668,1673720,634260,-1.077,-0.194,0.896,-121.3,45.7,-75.3,8.4,-9.5,-21.2,0.381023591,0.0844447157,0.359080782,-0.847773675
669,1676103,634270,-1.085,-0.194,0.881,-125.6,46.7,-75.7,8.4,-9.5,-21.2,0.379497665,0.0836512345,0.361919004,-0.847315897
670,1679619,634270,-1.089,-0.186,0.877,-130,47.6,-76.2,8.4,-9.5,-21.2,0.377941221,0.0828577532,0.364848781,-0.846827601
671,1681418,634270,-1.093,-0.174,0.862,-134.5,48.5,-76.5,8.4,-9.5,-21.2,0.376384777,0.0820337535,0.367870113,-0.846308786
672,1683749,634270,-1.089,-0.167,0.858,-139,49.4,-76.6,8.4,-9.5,-21.2,0.374828333,0.0812097537,0.370983001,-0.845698416
673,1687112,634280,-1.089,-0.167,0.854,-143.5,50.3,-76.3,8.4,-9.5,-21.2,0.373271889,0.0803247169,0.374187445,-0.845088046
674,1688979,634280,-1.073,-0.155,0.845,-147.6,51.3,-75.7,8.4,-9.5,-21.2,0.371684927,0.0794701987,0.377422407,-0.84438612
675,1691790,634280,-1.069,-0.163,0.837,-151.6,52.1,-74.8,8.4,-9.5,-21.2,0.370159001,0.0785851619,0.380779443,-0.843653676
676,1694170,634280,-1.05,-0.175,0.841,-155.4,53,-73.6,8,-9.3,-21.9,0.368633076,0.0776696066,0.384197516,-0.842860195
677,1696219,634290,-1.042,-0.195,0.841,-159.1,53.8,-72.3,8,-9.3,-21.9,0.36710715,0.0767540513,0.387676626,-0.842005676
678,1699342,634290,-1.027,-0.235,0.833,-162.8,54.8,-71.2,8,-9.3,-21.9,0.365611744,0.0758995331,0.391216773,-0.84112064
679,1702339,634290,-1.007,-0.271,0.832,-166.3,55.5,-70.1,8,-9.3,-21.9,0.364116337,0.0749839778,0.394848476,-0.840144047
680,1703785,634290,-1.004,-0.29,0.824,-169.8,56.2,-69,8.7,-9.1,-22.3,0.36262093,0.0740684225,0.398510697,-0.839136937
681,1706212,634300,-0.996,-0.314,0.82,-173.2,57,-68,8.7,-9.1,-22.3,0.361156041,0.0731528672,0.402233955,-0.838068789
682,1709859,634300,-1.001,-0.365,0.801,-176.7,57.6,-67,8.7,-9.1,-22.3,0.359721671,0.0722067934,0.40601825,-0.836909085
683,1711624,634300,-1.002,-0.385,0.789,-180,58.4,-65.9,8.7,-9.1,-22.3,0.358287301,0.0712912381,0.409863582,-0.835779901
684,1713967,634300,-1.002,-0.401,0.793,-185.6,59.5,-62.7,8.9,-9.1,-22.6,0.35688345,0.0703451643,0.413830988,-0.834498123
685,1716224,634310,-1.006,-0.428,0.782,-185.6,59.5,-62.7,8.9,-9.1,-22.6,0.355479598,0.0694296091,0.417767876,-0.833216346
686,1719376,634310,-1.014,-0.444,0.774,-187.2,60,-60.6,8.9,-9.1,-22.6,0.354106265,0.0685140538,0.421704764,-0.831873531
687,1721735,634310,-1.019,-0.451,0.763,-188,60.3,-58.4,8.9,-9.1,-22.6,0.352763451,0.067629017,0.42567217,-0.830500198
688,1723568,634310,-1.015,-0.463,0.763,-187.6,60.3,-55.9,9.5,-9.3,-23.2,0.351481674,0.0667439802,0.429609058,-0.829096347
689,1726372,634320,-1.027,-0.49,0.767,-186.2,60.2,-53.2,9.5,-9.3,-23.2,0.350230415,0.0659199805,0.433515427,-0.827661977
690,1729269,634320,-1.023,-0.506,0.771,-183.7,60,-50.4,9.5,-9.3,-23.2,0.349009674,0.0651264992,0.437360759,-0.826197089
691,1731561,634320,-1.024,-0.522,0.775,-180.5,59.5,-47.6,9.5,-9.3,-23.2,0.347819452,0.0643635365,0.441145054,-0.824762719
692,1733829,634320,-1.016,-0.534,0.786,-176.8,58.8,-44.9,9.5,-9.3,-23.2,0.346690268,0.0636310923,0.444837794,-0.82329783
693,1736098,634330,-1.008,-0.577,0.802,-172.7,57.9,-42.4,9.5,-9.3,-23.2,0.34562212,0.062959685,0.44840846,-0.82186346
694,1738806,634330,-1.009,-0.593,0.806,-168.1,56.8,-40.1,9.5,-9.3,-23.2,0.344553972,0.0622882778,0.451918088,-0.82042909
695,1742810,634330,-1.017,-0.605,0.802,-162.8,55.7,-37.8,9.5,-9.3,-23.2,0.343546861,0.0617084262,0.455305643,-0.819025239
696,1744505,634330,-1.017,-0.612,0.798,-157,54.2,-35.2,10.2,-6.2,-24,0.342600787,0.061159093,0.458571123,-0.817651906
697,1746257,634340,-1.029,-0.604,0.791,-150.8,52.8,-32.5,10.2,-6.2,-24,0.341685232,0.0606402783,0.461684011,-0.816309091
698,1749981,634340,-1.033,-0.596,0.791,-144.5,51.3,-29.7,10.2,-6.2,-24,0.340830714,0.0601825007,0.464674825,-0.814996796
699,1751769,634340,-1.036,-0.585,0.795,-138,49.8,-26.9,10.2,-6.2,-24,0.340006714,0.0597857601,0.467543565,-0.813745537
700,1754027,634340,-1.024,-0.573,0.794,-131.2,48.2,-23.9,10.6,-5.5,-24.3,0.33927427,0.0594195379,0.470259713,-0.812524796
701,1756357,634350,-1.02,-0.553,0.794,-124,46.3,-20.8,10.6,-5.5,-24.3,0.338572344,0.0591143529,0.472823267,-0.811334574
702,1760309,634350,-1.016,-0.53,0.794,-116.4,44.3,-17.5,10.6,-5.5,-24.3,0.337961974,0.0588396863,0.47523423,-0.81020539
703,1761837,634350,-1.007,-0.518,0.794,-108.5,42.4,-14.3,10.6,-5.5,-24.3,0.337412641,0.0586260567,0.477462081,-0.809137242
704,1764109,634350,-0.999,-0.491,0.774,-93.6,38.5,-8.5,11,-4.1,-24.2,0.336985382,0.0585345012,0.479415265,-0.808160649
705,1766285,634360,-0.999,-0.467,0.77,-93.6,38.5,-8.5,11,-4.1,-24.2,0.336558123,0.0584429456,0.48136845,-0.807184057
706,1768768,634360,-0.991,-0.46,0.77,-87.1,36.4,-6.1,11,-4.1,-24.2,0.336161382,0.0583819086,0.483169042,-0.806268502
707,1771529,634360,-0.991,-0.448,0.766,-81.1,34.4,-4,11,-4.1,-24.2,0.335825678,0.0583513901,0.48484756,-0.805413984
708,1774656,634360,-0.97,-0.417,0.765,-75.3,32.4,-2.2,11.4,-2.9,-24.1,0.335551012,0.0583513901,0.486434523,-0.804589984
709,1776687,634370,-0.962,-0.409,0.773,-69.7,30.3,-0.6,11.4,-2.9,-24.1,0.335306864,0.0583513901,0.487868892,-0.803796503
710,1779329,634370,-0.954,-0.398,0.765,-64.2,28.3,1,11.4,-2.9,-24.1,0.335093234,0.0583819086,0.489211707,-0.803064058
711,1781386,634370,-0.942,-0.39,0.78,-59,26.3,2.7,11.4,-2.9,-24.1,0.334940641,0.0584734642,0.490432447,-0.802392651
712,1783632,634370,-0.926,-0.379,0.799,-54,24.5,4.6,11.4,-2.9,-24.1,0.334818567,0.0585345012,0.491561632,-0.801751762
713,1786737,634380,-0.91,-0.371,0.795,-49.3,22.9,6.5,11.4,-2.9,-24.1,0.33475753,0.0586260567,0.492568743,-0.801141392
714,1789053,634380,-0.902,-0.367,0.791,-44.8,21.3,8.4,11.4,-2.9,-24.1,0.334727012,0.0588091678,0.493514817,-0.800561541
715,1792179,634380,-0.897,-0.32,0.825,-40.8,19.8,10.2,11.4,-2.9,-24.1,0.33475753,0.0589617603,0.494338816,-0.800012207
716,1793551,634380,-0.885,-0.313,0.813,-37.3,18.3,11.9,11.4,-2.9,-24.9,0.334818567,0.0591143529,0.495101779,-0.799493393
717,1796717,634390,-0.885,-0.313,0.813,-37.3,18.3,11.9,11.4,-2.9,-24.9,0.334818567,0.0591143529,0.495101779,-0.799493393
718,1799673,634390,-0.861,-0.313,0.797,-33.4,15.7,14.4,11.4,-2.9,-24.9,0.335032197,0.0595110935,0.496505631,-0.7985168
719,1801207,634390,-0.826,-0.326,0.816,-32.9,14.4,15.1,11.4,-2.9,-24.9,0.33518479,0.0596942045,0.497177038,-0.798028504
720,1803758,634390,-0.806,-0.338,0.804,-31.9,12.9,15.5,11.3,-2.8,-25,0.335337382,0.0598467971,0.497787408,-0.797570727
721,1806231,634400,-0.791,-0.35,0.803,-29.7,11.3,16.1,11.3,-2.8,-25,0.335551012,0.0599993896,0.49836726,-0.797112949
722,1809439,634400,-0.783,-0.366,0.791,-26.6,9.9,17.3,11.3,-2.8,-25,0.335764641,0.0601519822,0.498886074,-0.79668569
723,1811686,634400,-0.763,-0.394,0.795,-23.2,8.5,19.2,11.3,-2.8,-25,0.336039308,0.0603350932,0.499343852,-0.796258431
724,1813989,634400,-0.763,-0.398,0.803,-16.3,6.4,24,11.2,-2.8,-24.8,0.33640553,0.0605792413,0.499649037,-0.795892209
725,1816208,634410,-0.752,-0.402,0.814,-16.3,6.4,24,11.2,-2.8,-24.8,0.336771752,0.0608233894,0.499923704,-0.795556505
726,1818774,634410,-0.74,-0.414,0.822,-13,5.8,26.3,11.2,-2.8,-24.8,0.337199011,0.061159093,0.500167852,-0.795190283
727,1821086,634410,-0.736,-0.418,0.825,-10.1,5.3,28.2,11.2,-2.8,-24.8,0.33762627,0.0614947966,0.500350963,-0.794885098
728,1824500,634410,-0.724,-0.427,0.833,-7.8,4.9,30.1,11.5,-2.7,-24.1,0.338114566,0.0617999817,0.500473037,-0.794549394
729,1826645,634420,-0.724,-0.427,0.833,-5.4,4.3,31.9,11.5,-2.7,-24.1,0.338633381,0.0622272408,0.500564592,-0.794244209
730,1828934,634420,-0.708,-0.431,0.829,-2.9,3.8,33.7,11.5,-2.7,-24.1,0.339182714,0.0625934629,0.500595111,-0.793939024
731,1831162,634420,-0.704,-0.443,0.832,-0.2,3.2,35.4,11.5,-2.7,-24.1,0.339762566,0.0630817591,0.500564592,-0.793694876
732,1835077,634420,-0.705,-0.451,0.84,2,2.7,37.1,11.5,-2.7,-24.1,0.340372936,0.0635395367,0.500503555,-0.793450728
733,1837145,634430,-0.701,-0.462,0.836,3.9,2.2,38.3,11.5,-2.7,-24.1,0.341013825,0.0640278329,0.500412,-0.79320658
734,1839338,634430,-0.701,-0.462,0.836,3.9,2.2,38.3,11.5,-2.7,-24.1,0.341013825,0.0640278329,0.500412,-0.79320658
735,1841711,634430,-0.69,-0.51,0.836,7,1.6,39.9,11.5,-2.7,-24.1,0.342326121,0.0650349437,0.500106815,-0.792748802
736,1843854,634430,-0.69,-0.518,0.84,8.7,1.4,40.2,11.5,-2.6,-24.3,0.342997528,0.0655842769,0.499893185,-0.792535173
737,1846229,634440,-0.686,-0.541,0.836,10.6,1.3,40.5,11.5,-2.6,-24.3,0.343668935,0.06613361,0.499679556,-0.792352062
738,1848642,634440,-0.69,-0.561,0.836,12.6,1.2,40.9,11.5,-2.6,-24.3,0.344340342,0.0666829432,0.499404889,-0.79216895
739,1852873,634440,-0.69,-0.569,0.836,14.5,1.1,41.6,11.5,-2.6,-24.3,0.34501175,0.0672627949,0.499099704,-0.792016358
740,1854381,634440,-0.695,-0.573,0.825,16.2,1,42.4,11.4,-2.7,-21.5,0.345713675,0.0678731651,0.498764,-0.791863765
741,1856630,634450,-0.699,-0.592,0.809,17.5,0.7,43,11.4,-2.7,-21.5,0.346415601,0.0684530168,0.498397778,-0.791741691
742,1858892,634450,-0.703,-0.6,0.806,18.8,0.5,43.2,11.4,-2.7,-21.5,0.347148045,0.069124424,0.498001038,-0.791619617
743,1861170,634450,-0.707,-0.604,0.81,20.3,0.2,43.3,11.4,-2.7,-21.5,0.347849971,0.0697347942,0.497604297,-0.791497543
744,1863669,634450,-0.699,-0.62,0.79,23.4,-0.6,43.5,11.2,-3.3,-21.5,0.348582415,0.0703756829,0.497116001,-0.791436506
745,1867244,634460,-0.692,-0.628,0.782,23.4,-0.6,43.5,11.2,-3.3,-21.5,0.349314859,0.0710165716,0.496627705,-0.791344951
746,1868705,634460,-0.688,-0.628,0.77,24.8,-1.2,43.9,11.2,-3.3,-21.5,0.350047304,0.0716574602,0.496139409,-0.791283914
747,1871395,634460,-0.688,-0.632,0.758,26,-1.8,44.6,11.2,-3.3,-21.5,0.350779748,0.0723288675,0.495590075,-0.791222877
748,1873576,634460,-0.688,-0.632,0.754,27,-2.4,45.5,11.2,-3.5,-21.4,0.351542711,0.0729697562,0.495040742,-0.791192358
749,1876920,634470,-0.688,-0.636,0.735,27.8,-3,46.5,11.2,-3.5,-21.4,0.352336192,0.0736411634,0.494460891,-0.791131321
750,1879181,634470,-0.684,-0.64,0.735,28.4,-3.7,47.5,11.2,-3.5,-21.4,0.353160192,0.0743125706,0.493881039,-0.791070284
751,1881508,634470,-0.684,-0.644,0.723,28.9,-4.1,48.5,11.2,-3.5,-21.4,0.353984191,0.0749839778,0.493270669,-0.791009247
752,1883733,634470,-0.684,-0.648,0.719,29.2,-4.6,49.5,11.2,-3.5,-21.4,0.354869228,0.075655385,0.49262978,-0.79094821
753,1886058,634480,-0.681,-0.656,0.715,29.4,-5.1,50.5,11.2,-3.5,-21.4,0.355723746,0.0763267922,0.49201941,-0.790887173
754,1888741,634480,-0.681,-0.66,0.711,29.4,-5.7,51.6,11.2,-3.5,-21.4,0.356639302,0.0770287179,0.491378521,-0.790826136
755,1892392,634480,-0.685,-0.66,0.708,29.5,-6.2,52.6,11.2,-3.5,-21.4,0.357554857,0.0777001251,0.490707114,-0.790734581
756,1893985,634480,-0.677,-0.672,0.688,29.4,-6.8,53.6,11,-3.5,-23.6,0.358500931,0.0784020508,0.490066225,-0.790643025
757,1896177,634490,-0.677,-0.672,0.684,29.1,-7.3,54.5,11,-3.5,-23.6,0.359477523,0.0790734581,0.489425336,-0.790520951
758,1899160,634490,-0.665,-0.68,0.668,28.6,-7.8,55.5,11,-3.5,-23.6,0.360484634,0.0797448653,0.488753929,-0.790429395
759,1902141,634490,-0.665,-0.68,0.664,28.1,-8.5,56.5,11,-3.5,-23.6,0.361491745,0.080446791,0.488113041,-0.790276803
760,1903681,634490,-0.654,-0.692,0.648,27.8,-9.4,57.9,11.2,-3.7,-24.5,0.362529374,0.0811181982,0.487441633,-0.790154729
761,1906637,634500,-0.658,-0.696,0.641,27.9,-10.3,59.5,11.2,-3.7,-24.5,0.36362804,0.0817896054,0.486770226,-0.789971618
762,1908752,634500,-0.654,-0.7,0.64,28.2,-11.3,61.3,11.2,-3.7,-24.5,0.364757225,0.0824610126,0.486098819,-0.789819025
763,1911831,634500,-0.654,-0.707,0.637,28.5,-12.2,63.2,11.2,-3.7,-24.5,0.365916929,0.0831629383,0.485396893,-0.789635914
764,1913754,634500,-0.65,-0.723,0.621,28.9,-13.4,66,10.6,-4.2,-25.2,0.367137669,0.083864864,0.484664449,-0.789452803
765,1916398,634510,-0.651,-0.735,0.609,28.9,-13.4,66,10.6,-4.2,-25.2,0.368388928,0.0845362712,0.483932005,-0.789239174
766,1918724,634510,-0.639,-0.747,0.613,28.7,-14,66.7,10.6,-4.2,-25.2,0.369609668,0.085238197,0.483199561,-0.789025544
767,1921974,634510,-0.627,-0.767,0.597,28.4,-14.8,67.2,10.6,-4.2,-25.2,0.370891446,0.0859401227,0.482467116,-0.788811914
768,1923670,634510,-0.619,-0.767,0.585,28,-15.7,67.5,10.4,-4.3,-25.3,0.372173223,0.0865810114,0.481734672,-0.788598285
769,1926677,634520,-0.608,-0.783,0.581,27.8,-16.5,67.9,10.4,-4.3,-25.3,0.373455,0.0872524186,0.481002228,-0.788354137
770,1929828,634520,-0.604,-0.787,0.577,27.5,-17.4,68.4,10.4,-4.3,-25.3,0.374767296,0.0878933073,0.480239265,-0.788140507
771,1931192,634520,-0.596,-0.795,0.573,27.1,-18.2,69,10.4,-4.3,-25.3,0.376079592,0.088534196,0.479506821,-0.787865841
772,1933874,634520,-0.592,-0.795,0.565,26.6,-19.1,69.6,10.4,-4.3,-25.3,0.377422407,0.0891445662,0.478743858,-0.787621693
773,1936024,634530,-0.588,-0.799,0.565,25.8,-19.8,70.2,10.4,-4.3,-25.3,0.37879574,0.0897549364,0.478011414,-0.787347026
774,1939364,634530,-0.584,-0.792,0.561,24.8,-20.2,70.9,10.4,-4.3,-25.3,0.380169073,0.090334788,0.47727897,-0.787072359
775,1941591,634530,-0.58,-0.784,0.564,23.4,-20.5,71.8,10.4,-4.3,-25.3,0.381572924,0.0909146397,0.476546525,-0.786736656
776,1943524,634530,-0.576,-0.772,0.56,21.9,-20.7,72.8,9.8,-4.9,-23.1,0.383007294,0.0915250099,0.475875118,-0.786400952
777,1946041,634540,-0.576,-0.768,0.549,20.1,-20.9,74,9.8,-4.9,-23.1,0.384441664,0.0921048616,0.475203711,-0.78603473
778,1949079,634540,-0.576,-0.757,0.545,18,-21.1,75.2,9.8,-4.9,-23.1,0.385906552,0.0926541948,0.474562822,-0.785637989
779,1951158,634540,-0.568,-0.741,0.548,15.7,-21.3,76.2,9.8,-4.9,-23.1,0.387401959,0.0932035279,0.473952452,-0.78521073
780,1954492,634540,-0.56,-0.729,0.54,12.9,-21.8,77.3,9.6,-4.9,-23.3,0.388927885,0.0937528611,0.4733726,-0.784722434
781,1956115,634550,-0.556,-0.726,0.532,9.9,-22.4,78.3,9.6,-4.9,-23.3,0.390484329,0.0942716758,0.472853786,-0.784203619
782,1959874,634550,-0.547,-0.71,0.528,6.7,-22.9,79.3,9.6,-4.9,-23.3,0.392071291,0.0947294534,0.472396008,-0.783654286
783,1961242,634550,-0.543,-0.706,0.52,3.3,-23.2,80,9.6,-4.9,-23.3,0.393658254,0.0951872311,0.471968749,-0.783043916
784,1964515,634550,-0.543,-0.706,0.52,3.3,-23.2,80,9.6,-4.9,-23.3,0.393658254,0.0951872311,0.471968749,-0.783043916
785,1966183,634560,-0.535,-0.695,0.504,-3.8,-23.6,81.3,9.2,-5.5,-23.6,0.397076327,0.0961638234,0.471175268,-0.781670583
786,1968577,634560,-0.527,-0.691,0.489,-7.2,-23.7,82,9.2,-5.5,-23.6,0.398724326,0.0965300455,0.470961638,-0.780938139
787,1972184,634560,-0.523,-0.675,0.481,-10.8,-23.7,82.4,9.2,-5.5,-23.6,0.400402844,0.0968657491,0.470748009,-0.780144658
788,1974377,634560,-0.519,-0.679,0.481,-14.7,-23.8,82.9,9.1,-5.2,-23,0.402081362,0.0972014527,0.470625935,-0.779320658
789,1976661,634570,-0.519,-0.668,0.477,-18.8,-23.8,83.2,9.1,-5.2,-23,0.403790399,0.0974761193,0.470564898,-0.77846614
790,1978875,634570,-0.511,-0.664,0.457,-22.9,-24,83.5,9.1,-5.2,-23,0.405499435,0.0977202673,0.470564898,-0.777520066
791,1981018,634570,-0.507,-0.656,0.461,-27,-24.2,83.5,9.1,-5.2,-23,0.407208472,0.0979338969,0.470625935,-0.776573992
792,1984393,634570,-0.503,-0.648,0.457,-30.7,-24.3,83.5,6.9,-5.6,-23.7,0.408948027,0.0980864895,0.470748009,-0.775566881
793,1986529,634580,-0.503,-0.644,0.453,-34.3,-24.2,83.5,6.9,-5.6,-23.7,0.410687582,0.098239082,0.47093112,-0.774498733
794,1989327,634580,-0.491,-0.633,0.444,-37.5,-24.1,83.5,6.9,-5.6,-23.7,0.412427137,0.098361156,0.471175268,-0.773430586
795,1991668,634580,-0.491,-0.633,0.444,-40.4,-24,83.4,6.9,-5.6,-23.7,0.414166692,0.0984527116,0.471449934,-0.772301401
796,1993667,634580,-0.483,-0.629,0.444,-43.1,-24,83.2,9.9,-5.5,-23.7,0.415906247,0.0985137486,0.471785638,-0.771172216
797,1997804,634590,-0.475,-0.641,0.44,-45.5,-24.1,83.1,9.9,-5.5,-23.7,0.417645802,0.0985442671,0.47215186,-0.769981994
798,1999332,634590,-0.468,-0.649,0.428,-47.7,-24.3,82.9,9.9,-5.5,-23.7,0.419385357,0.0985442671,0.472548601,-0.768791772
799,2001596,634590,-0.468,-0.657,0.424,-49.6,-24.5,82.6,9.9,-5.5,-23.7,0.421124912,0.0985442671,0.47297586,-0.767571032
800,2003691,634590,-0.46,-0.665,0.413,-50.9,-24.7,82.1,9.5,-5.3,-23.9,0.422864467,0.0985137486,0.473433638,-0.766350291
801,2007067,634600,-0.465,-0.693,0.397,-51.9,-25,81.5,9.5,-5.3,-23.9,0.424604022,0.0984527116,0.473891415,-0.765099033
802,2010140,634600,-0.461,-0.7,0.389,-52.6,-25.2,80.8,9.5,-5.3,-23.9,0.426343577,0.098361156,0.474349193,-0.763878292
803,2011333,634600,-0.461,-0.708,0.381,-53.2,-25.4,80.1,9.5,-5.3,-23.9,0.428052614,0.098239082,0.474837489,-0.762627033
804,2013603,634600,-0.461,-0.708,0.381,-53.2,-25.4,80.1,9.5,-5.3,-23.9,0.428052614,0.098239082,0.474837489,-0.762627033
805,2017062,634610,-0.461,-0.724,0.366,-54.1,-25.6,78.4,9.1,-5.3,-23.7,0.43119602,0.0978118229,0.476149785,-0.760093997
806,2019057,634610,-0.457,-0.72,0.366,-54.4,-25.8,77.6,9.1,-5.3,-23.7,0.432874538,0.0976897488,0.476638081,-0.758842738
807,2021995,634610,-0.457,-0.72,0.358,-54.6,-26.1,76.7,9.1,-5.3,-23.7,0.434522538,0.0975371563,0.477156896,-0.757591479
808,2023634,634610,-0.445,-0.713,0.358,-54.4,-26.7,75.8,8.8,-4.9,-24.1,0.436170537,0.0973540452,0.477614673,-0.756370739
809,2026910,634620,-0.433,-0.701,0.357,-53.7,-27.1,74.9,8.8,-4.9,-24.1,0.437818537,0.0971709342,0.478102969,-0.755149998
810,2028858,634620,-0.433,-0.689,0.357,-53,-27.3,73.9,8.8,-4.9,-24.1,0.439436018,0.0969878231,0.478560747,-0.753959777
811,2032582,634620,-0.425,-0.69,0.353,-52.3,-27.4,72.8,8.8,-4.9,-24.1,0.44102298,0.0967741935,0.478988006,-0.752769555
812,2033929,634620,-0.425,-0.67,0.345,-51.9,-27.4,71.4,7.2,-5.1,-24,0.442579424,0.0965910825,0.479415265,-0.751579333
813,2037451,634630,-0.425,-0.67,0.345,-51.4,-27.5,69.8,7.2,-5.1,-24,0.444135868,0.0963774529,0.479873043,-0.75041963
814,2039289,634630,-0.421,-0.674,0.345,-50.6,-27.5,68.1,7.2,-5.1,-24,0.445631275,0.0961638234,0.480269784,-0.749290445
815,2041672,634630,-0.417,-0.674,0.353,-49.2,-27.7,66.4,7.2,-5.1,-24,0.447126682,0.0959196753,0.480666524,-0.748191778
816,2043820,634630,-0.421,-0.682,0.372,-47.2,-27.9,64.8,7.3,-4.8,-23.7,0.448561052,0.0956755272,0.481032746,-0.74712363
817,2046612,634640,-0.421,-0.678,0.372,-44.9,-28,63.5,7.3,-4.8,-23.7,0.449995422,0.0954618976,0.48136845,-0.746086001
818,2050600,634640,-0.421,-0.686,0.384,-42.2,-28,62.3,7.3,-4.8,-23.7,0.451399274,0.0952177496,0.481643117,-0.74507889
819,2052845,634640,-0.417,-0.682,0.388,-39.3,-27.9,61.1,7.3,-4.8,-23.7,0.452742088,0.0950346385,0.481887265,-0.744132817
820,2055141,634640,-0.417,-0.678,0.396,-36.5,-27.8,59.8,6.5,-4.6,-23.5,0.454084902,0.0948210089,0.482070376,-0.743217261
821,2057266,634650,-0.421,-0.674,0.404,-33.7,-27.7,58.7,6.5,-4.6,-23.5,0.455397198,0.0946684164,0.482222968,-0.742332224
822,2059642,634650,-0.421,-0.674,0.408,-31,-27.7,57.4,6.5,-4.6,-23.5,0.456709494,0.0945158238,0.482314524,-0.741477706
823,2061814,634650,-0.42,-0.65,0.4,-28.3,-27.7,56.1,6.5,-4.6,-23.5,0.457960753,0.0943937498,0.482406079,-0.740684225
824,2063875,634650,-0.416,-0.639,0.403,-23.8,-27.8,53,5.9,-4.6,-24.6,0.459150975,0.0942411573,0.482375561,-0.739951781
825,2066975,634660,-0.412,-0.623,0.403,-23.8,-27.8,53,5.9,-4.6,-24.6,0.460341197,0.0941190832,0.482375561,-0.739219337
826,2069763,634660,-0.411,-0.599,0.395,-22,-28,51.4,5.9,-4.6,-24.6,0.461531419,0.0939970092,0.482345042,-0.738547929
827,2071351,634660,-0.411,-0.58,0.403,-20.6,-28.2,49.6,5.9,-4.6,-24.6,0.462660604,0.0938444166,0.482284005,-0.737876522
828,2073567,634660,-0.407,-0.56,0.399,-19.7,-28.2,47.9,4.5,-4.7,-23.9,0.46375927,0.0936918241,0.482222968,-0.737235633
829,2076867,634670,-0.407,-0.548,0.403,-19.3,-27.8,46.3,4.5,-4.7,-23.9,0.464857936,0.0935392315,0.482161931,-0.736625263
830,2079238,634670,-0.403,-0.537,0.403,-19.1,-27.3,44.8,4.5,-4.7,-23.9,0.465895566,0.0933561205,0.482100894,-0.736014893
831,2081339,634670,-0.41,-0.509,0.399,-19,-26.9,43.3,4.5,-4.7,-23.9,0.466902676,0.0932035279,0.482039857,-0.735435041
832,2083592,634670,-0.406,-0.505,0.407,-19,-26.4,41.8,7.5,-5.4,-24.4,0.467909787,0.0930509354,0.482009339,-0.73485519
833,2086238,634680,-0.414,-0.501,0.407,-19.3,-25.8,40.3,7.5,-5.4,-24.4,0.468855861,0.0928373058,0.481948302,-0.734305857
834,2088771,634680,-0.418,-0.497,0.407,-19.9,-25.1,38.8,7.5,-5.4,-24.4,0.469801935,0.0926541948,0.481948302,-0.733756523
835,2091101,634680,-0.422,-0.497,0.415,-20.8,-24.5,37.2,7.5,-5.4,-24.4,0.470686972,0.0924405652,0.481948302,-0.73320719
836,2095158,634680,-0.422,-0.493,0.415,-21.7,-23.9,35.5,3.7,-4.1,-24.3,0.47154149,0.0921964171,0.48197882,-0.732657857
837,2096048,634690,-0.43,-0.501,0.423,-22.9,-23.4,33.9,3.7,-4.1,-24.3,0.472396008,0.0919522691,0.482039857,-0.732108524
838,2098676,634690,-0.434,-0.501,0.419,-24.1,-22.9,32.2,3.7,-4.1,-24.3,0.473189489,0.0916776025,0.482131413,-0.731559191
839,2101150,634690,-0.434,-0.497,0.427,-25.2,-22.6,30.6,3.7,-4.1,-24.3,0.473952452,0.0913724174,0.482222968,-0.731040376
840,2104122,634690,-0.437,-0.493,0.431,-26.5,-22.2,28.9,4,-3.8,-24.3,0.474715415,0.0910367138,0.482375561,-0.730491043
841,2106235,634700,-0.438,-0.5,0.427,-28.1,-21.8,27.2,4,-3.8,-24.3,0.475417341,0.0907010102,0.482528153,-0.729972228
842,2108907,634700,-0.434,-0.516,0.435,-29.8,-21.3,25.4,4,-3.8,-24.3,0.476119266,0.0903042695,0.482741783,-0.729422895
843,2111829,634700,-0.438,-0.52,0.443,-31.5,-20.9,23.7,4,-3.8,-24.3,0.476790674,0.0899075289,0.482985931,-0.728873562
844,2113812,634700,-0.442,-0.528,0.439,-34.4,-19.9,20.1,4.4,-3.6,-24.2,0.477370525,0.0894497513,0.483260598,-0.728354747
845,2116704,634710,-0.442,-0.54,0.447,-34.4,-19.9,20.1,4.4,-3.6,-24.2,0.477980895,0.0889614551,0.483565783,-0.727805414
846,2118847,634710,-0.458,-0.547,0.443,-35.7,-19.4,18.1,4.4,-3.6,-24.2,0.478530229,0.088473159,0.483901486,-0.727286599
847,2121539,634710,-0.462,-0.555,0.455,-37.1,-18.8,16.2,4.4,-3.6,-24.2,0.479079562,0.0879543443,0.484267708,-0.726767785
848,2123820,634710,-0.466,-0.555,0.455,-38.6,-18.3,14.3,4.8,-3.5,-24.6,0.479567858,0.0874355296,0.484664449,-0.72624897
849,2126884,634720,-0.466,-0.571,0.459,-40.1,-17.7,12.6,4.8,-3.5,-24.6,0.480025636,0.086855678,0.485091708,-0.725730155
850,2129131,634720,-0.474,-0.578,0.467,-41.3,-17.3,11,4.8,-3.5,-24.6,0.480452895,0.0862758263,0.485549486,-0.725211341
851,2131832,634720,-0.47,-0.586,0.475,-42.1,-17,9.8,4.8,-3.5,-24.6,0.480880154,0.0856654561,0.486007263,-0.724692526
852,2134189,634720,-0.471,-0.598,0.483,-42.8,-16.8,8.5,5.7,-5.4,-24.7,0.481276894,0.0850245674,0.48649556,-0.724173711
853,2136775,634730,-0.467,-0.61,0.502,-43.5,-16.5,7.4,5.7,-5.4,-24.7,0.481643117,0.0843836787,0.486983856,-0.723624378
854,2139008,634730,-0.471,-0.618,0.514,-44.3,-16.1,6.5,5.7,-5.4,-24.7,0.482009339,0.08374279,0.48750267,-0.723136082
855,2141285,634730,-0.475,-0.625,0.518,-45.3,-15.7,5.5,5.7,-5.4,-24.7,0.482345042,0.0830713828,0.488052004,-0.722617267
856,2143698,634730,-0.475,-0.637,0.526,-46.4,-15.2,4.6,5.8,-2.6,-24.7,0.482650227,0.0823999756,0.488601337,-0.722128971
857,2146283,634740,-0.483,-0.653,0.53,-47.4,-14.9,3.6,5.8,-2.6,-24.7,0.482955412,0.0816980499,0.489181188,-0.721610157
858,2149437,634740,-0.491,-0.66,0.531,-48.5,-14.6,2.6,5.8,-2.6,-24.7,0.483260598,0.0809961241,0.489791559,-0.721091342
859,2151133,634740,-0.495,-0.664,0.535,-49.5,-14.4,1.8,5.8,-2.6,-24.7,0.483535264,0.0802636799,0.490432447,-0.720542009
860,2154017,634740,-0.495,-0.664,0.535,-50.2,-14.4,1.2,5.4,-2.2,-24.8,0.483779412,0.0795007172,0.491042817,-0.720023194
861,2157013,634750,-0.499,-0.676,0.542,-50.6,-14.5,0.7,5.4,-2.2,-24.8,0.484054079,0.078768273,0.491683706,-0.719504379
862,2159223,634750,-0.499,-0.676,0.542,-50.9,-14.6,0.4,5.4,-2.2,-24.8,0.484298227,0.0780053102,0.492355113,-0.718985565
863,2161511,634750,-0.499,-0.688,0.55,-51.1,-14.7,0.1,5.4,-2.2,-24.8,0.484542375,0.077211829,0.492996002,-0.718436232
864,2163723,634750,-0.499,-0.688,0.55,-51.1,-14.7,0.1,5.4,-2.2,-24.8,0.484542375,0.077211829,0.492996002,-0.718436232
865,2166169,634760,-0.503,-0.699,0.562,-51.1,-14.6,-0.1,5.7,-1.9,-25,0.485030671,0.075533311,0.494125187,-0.717520676
866,2168709,634760,-0.507,-0.699,0.558,-50.9,-14.7,-0.3,5.7,-1.9,-25,0.485244301,0.0747703482,0.494766076,-0.717001862
867,2171773,634760,-0.507,-0.699,0.558,-50.5,-14.9,-0.6,5.7,-1.9,-25,0.485488449,0.073976867,0.495406964,-0.716483047
868,2174007,634760,-0.523,-0.695,0.559,-50.2,-14.9,-0.9,5.5,-1.9,-25.1,0.485732597,0.0732139042,0.496017335,-0.715964232
869,2176257,634770,-0.519,-0.699,0.559,-49.9,-14.9,-1.1,5.5,-1.9,-25.1,0.485946226,0.0724509415,0.496658223,-0.715475936
870,2179255,634770,-0.523,-0.695,0.563,-49.8,-15,-1.2,5.5,-1.9,-25.1,0.486159856,0.0716574602,0.497268593,-0.714957121
871,2181512,634770,-0.531,-0.691,0.559,-49.9,-15.1,-1.4,5.5,-1.9,-25.1,0.486373486,0.0708944975,0.497878964,-0.714468825
872,2184530,634770,-0.539,-0.683,0.559,-49.7,-15.2,-1.6,4.9,-2.4,-25.1,0.486587115,0.0701010163,0.498519852,-0.713950011
873,2186181,634780,-0.543,-0.683,0.555,-49.6,-15.3,-1.8,4.9,-2.4,-25.1,0.486800745,0.069307535,0.499130222,-0.713461715
874,2188989,634780,-0.543,-0.675,0.559,-49.1,-15.6,-1.8,4.9,-2.4,-25.1,0.487014374,0.0685140538,0.499710074,-0.712973418
875,2192059,634780,-0.543,-0.683,0.551,-48.7,-16,-1.6,4.9,-2.4,-25.1,0.487258522,0.067751091,0.500320444,-0.712485122
876,2194268,634780,-0.547,-0.683,0.555,-48.2,-16.4,-1.5,5,-3.6,-24.8,0.487472152,0.0669576098,0.500900296,-0.711996826
877,2196499,634790,-0.547,-0.686,0.556,-47.8,-16.8,-1.4,5,-3.6,-24.8,0.4877163,0.0661641285,0.501449629,-0.71150853
878,2199564,634790,-0.551,-0.686,0.556,-47.4,-17.1,-1.5,5,-3.6,-24.8,0.48792993,0.0653706473,0.501998962,-0.711020234
879,2201228,634790,-0.555,-0.686,0.556,-47,-17.4,-1.6,5,-3.6,-24.8,0.488174078,0.0645466475,0.502548296,-0.710562456
880,2204820,634790,-0.559,-0.678,0.556,-46.6,-17.8,-1.7,4.6,-4.6,-25.1,0.488418226,0.0637836848,0.503097629,-0.710104678
881,2206195,634800,-0.563,-0.678,0.552,-46.2,-18.2,-1.8,4.6,-4.6,-25.1,0.488631855,0.0629902036,0.503616443,-0.709616382
882,2209197,634800,-0.563,-0.678,0.552,-45.7,-18.6,-1.6,4.6,-4.6,-25.1,0.488876003,0.0621967223,0.504135258,-0.709158605
883,2212566,634800,-0.567,-0.682,0.552,-45.5,-19,-1.4,4.6,-4.6,-25.1,0.489120151,0.0614032411,0.504623554,-0.708700827
884,2214117,634800,-0.567,-0.682,0.552,-45.5,-19,-1.4,4.6,-4.6,-25.1,0.489120151,0.0614032411,0.504623554,-0.708700827
885,2217233,634810,-0.571,-0.674,0.552,-44.8,-19.8,-1,4.6,-4.9,-25.2,0.489730522,0.059541612,0.505142369,-0.708090457
886,2219363,634810,-0.571,-0.678,0.544,-44.4,-20.1,-0.9,4.6,-4.9,-25.2,0.48997467,0.0587481307,0.505600146,-0.707663198
887,2222183,634810,-0.571,-0.682,0.544,-43.9,-20.6,-1,4.6,-4.9,-25.2,0.490249336,0.0579546495,0.506057924,-0.70720542
888,2223708,634810,-0.571,-0.686,0.544,-43.1,-21.1,-1.1,5.1,-4.7,-25.1,0.490524003,0.0571611682,0.506515702,-0.706778161
889,2226772,634820,-0.575,-0.69,0.548,-42.2,-21.6,-1.2,5.1,-4.7,-25.1,0.490798669,0.0563371685,0.506942961,-0.706350902
890,2229706,634820,-0.571,-0.698,0.541,-41.2,-22.1,-1.3,5.1,-4.7,-25.1,0.491073336,0.0555436872,0.507339702,-0.705923643
891,2231320,634820,-0.575,-0.709,0.545,-40.2,-22.5,-1.3,5.1,-4.7,-25.1,0.491348003,0.0547196875,0.507705924,-0.705526902
892,2233686,634820,-0.571,-0.717,0.556,-39.1,-22.8,-1.3,4.5,0,-23.7,0.491622669,0.0539872433,0.508072146,-0.705130161
893,2236347,634830,-0.579,-0.717,0.556,-37.8,-23.2,-1.1,4.5,0,-23.7,0.491897336,0.053193762,0.508407849,-0.704733421
894,2239571,634830,-0.575,-0.729,0.556,-36.2,-23.4,-0.8,4.5,0,-23.7,0.492202521,0.0524307993,0.508713034,-0.704367199
895,2241626,634830,-0.575,-0.733,0.564,-34.5,-23.7,-0.5,4.5,0,-23.7,0.492477187,0.0516983551,0.508987701,-0.704031495
896,2244679,634830,-0.575,-0.733,0.564,-32.7,-23.9,-0.3,4.6,-2,-26.8,0.492782373,0.0509659108,0.509231849,-0.703695791
897,2246361,634840,-0.583,-0.737,0.568,-30.9,-24.2,-0.2,4.6,-2,-26.8,0.493087558,0.0502639851,0.509445479,-0.703390606
898,2250304,634840,-0.587,-0.737,0.568,-29,-24.5,-0.1,4.6,-2,-26.8,0.493392743,0.0495620594,0.50962859,-0.703085421
899,2252550,634840,-0.587,-0.729,0.568,-27.1,-24.8,-0.1,4.6,-2,-26.8,0.493697928,0.0488601337,0.509781182,-0.702810755
900,2254760,634840,-0.587,-0.733,0.572,-25.3,-25,-0.1,4.2,-0.9,-27.2,0.494003113,0.0482497635,0.509903256,-0.702566607
901,2257186,634850,-0.591,-0.729,0.569,-23.5,-25.2,-0.1,4.2,-0.9,-27.2,0.494308298,0.0476088748,0.509994812,-0.702322459
902,2259422,634850,-0.591,-0.721,0.576,-21.6,-25.4,-0.1,4.2,-0.9,-27.2,0.494613483,0.0469679861,0.510055849,-0.702108829
903,2261876,634850,-0.595,-0.705,0.569,-19.8,-25.6,0,4.2,-0.9,-27.2,0.494918668,0.0463576159,0.510086367,-0.701925718
904,2263945,634850,-0.595,-0.705,0.569,-19.8,-25.6,0,4.2,-0.9,-27.2,0.494918668,0.0463576159,0.510086367,-0.701925718
905,2266149,634860,-0.595,-0.697,0.569,-16.3,-26,0.5,4.1,-0.1,-26.9,0.495620594,0.0451368755,0.509689627,-0.701773125
906,2268761,634860,-0.599,-0.697,0.565,-14.9,-26.1,0.8,4.1,-0.1,-26.9,0.495925779,0.0445875423,0.50962859,-0.701620533
907,2271157,634860,-0.599,-0.689,0.561,-13.8,-26.1,1.2,4.1,-0.1,-26.9,0.496261483,0.0440382092,0.509567553,-0.70146794
908,2274131,634860,-0.602,-0.685,0.557,-12.9,-26,1.5,3.9,0,-27.2,0.496566668,0.043488876,0.509475997,-0.701345866
909,2276413,634870,-0.594,-0.678,0.557,-12.3,-25.8,1.9,3.9,0,-27.2,0.496902371,0.0430005799,0.509384442,-0.701223792
910,2278961,634870,-0.594,-0.674,0.557,-11.7,-25.8,2.3,3.9,0,-27.2,0.497238075,0.0425122837,0.509292886,-0.7010712
911,2281201,634870,-0.59,-0.674,0.561,-11.3,-25.6,2.6,3.9,0,-27.2,0.497573778,0.0420239875,0.509170812,-0.700949126
912,2285346,634870,-0.594,-0.67,0.557,-11,-25.5,2.9,3.9,-1.5,-25.3,0.497909482,0.0415356914,0.509079257,-0.700827052
913,2287071,634880,-0.598,-0.662,0.549,-10.7,-25.3,3.3,3.9,-1.5,-25.3,0.498275704,0.0410473952,0.508957183,-0.700674459
914,2289556,634880,-0.602,-0.662,0.545,-10.4,-24.9,3.6,3.9,-1.5,-25.3,0.498611408,0.0406506546,0.508835108,-0.700552385
915,2291841,634880,-0.598,-0.666,0.549,-10.4,-24.4,3.4,3.9,-1.5,-25.3,0.498947111,0.040192877,0.508743553,-0.700430311
916,2294193,634880,-0.602,-0.662,0.541,-10.5,-24.1,3.2,3.2,-1.4,-25.7,0.499252297,0.0397350993,0.508621479,-0.700277718
917,2296346,634890,-0.602,-0.669,0.545,-10.7,-23.8,2.9,3.2,-1.4,-25.7,0.499588,0.0392773217,0.508529923,-0.700155644
918,2299431,634890,-0.598,-0.666,0.545,-10.8,-23.5,2.6,3.2,-1.4,-25.7,0.499893185,0.0388500626,0.508438368,-0.70003357
919,2301790,634890,-0.598,-0.666,0.545,-10.7,-23.1,2.3,3.2,-1.4,-25.7,0.50019837,0.0383617664,0.508346812,-0.699911496
920,2304760,634890,-0.598,-0.666,0.541,-10.4,-22.9,2.1,3.4,-1.2,-25.2,0.500503555,0.0379650258,0.508255257,-0.699789422
921,2307112,634900,-0.598,-0.666,0.537,-9.9,-22.7,2.2,3.4,-1.2,-25.2,0.500778222,0.0375377667,0.508163701,-0.699667348
922,2309621,634900,-0.594,-0.666,0.533,-9.4,-22.4,2.3,3.4,-1.2,-25.2,0.501083407,0.0371105075,0.508041627,-0.699545274
923,2312261,634900,-0.598,-0.67,0.533,-9.1,-22,2.3,3.4,-1.2,-25.2,0.501358074,0.0366527299,0.507950072,-0.699453719
924,2314381,634900,-0.598,-0.67,0.533,-9.1,-22,2.3,3.4,-1.2,-25.2,0.501358074,0.0366527299,0.507950072,-0.699453719
925,2316801,634910,-0.594,-0.666,0.525,-8.2,-21,1.7,3.2,-1.4,-24.9,0.502121036,0.0361339152,0.507431257,-0.699301126
926,2318905,634910,-0.594,-0.67,0.522,-7.6,-20.5,1.4,3.2,-1.4,-24.9,0.502365184,0.0357371746,0.507309183,-0.699240089
927,2321233,634910,-0.591,-0.674,0.521,-7,-20.2,1.4,3.2,-1.4,-24.9,0.502609333,0.0353709525,0.507217627,-0.699148534
928,2323712,634910,-0.591,-0.674,0.521,-6.3,-19.9,1.5,3.2,-1.1,-23.7,0.502853481,0.0350047304,0.507095553,-0.699087497
929,2326878,634920,-0.595,-0.674,0.518,-5.6,-19.5,1.6,3.2,-1.1,-23.7,0.503128147,0.0346690268,0.506942961,-0.69902646
930,2329051,634920,-0.599,-0.674,0.51,-4.7,-19,1.8,3.2,-1.1,-23.7,0.503341777,0.0343638417,0.506820887,-0.698965423
931,2331200,634920,-0.595,-0.674,0.514,-3.8,-18.5,1.8,3.2,-1.1,-23.7,0.503585925,0.0340586566,0.506668294,-0.698904386
932,2334329,634920,-0.595,-0.685,0.514,-2.8,-18.1,1.8,3.2,-1.5,-27.9,0.503830073,0.033722953,0.506515702,-0.698873867
933,2336665,634930,-0.587,-0.69,0.506,-1.9,-17.8,1.7,3.2,-1.5,-27.9,0.504043703,0.0334788049,0.506332591,-0.698843348
934,2338819,634930,-0.591,-0.693,0.506,-0.8,-17.6,1.7,3.2,-1.5,-27.9,0.504257332,0.0332346568,0.506179998,-0.69881283
935,2341130,634930,-0.579,-0.709,0.513,0,-17.3,1.7,3.2,-1.5,-27.9,0.50450148,0.0329905087,0.505966369,-0.69881283
936,2343767,634930,-0.583,-0.713,0.51,1.1,-16.9,1.7,3.2,-1.2,-24.2,0.50471511,0.0327463607,0.505752739,-0.69881283
937,2347938,634940,-0.575,-0.717,0.513,2,-16.5,1.9,3.2,-1.2,-24.2,0.504928739,0.0325022126,0.505539109,-0.698843348
938,2350427,634940,-0.572,-0.729,0.513,3,-16.1,2,3.2,-1.2,-24.2,0.50511185,0.03234962,0.50532548,-0.698843348
939,2351146,634940,-0.572,-0.741,0.525,4,-15.6,2.2,3.2,-1.2,-24.2,0.50532548,0.0321970275,0.505081332,-0.698873867
940,2354118,634940,-0.568,-0.745,0.529,4.9,-15.2,2.4,3.1,-1.1,-24.7,0.505539109,0.0320139164,0.504837184,-0.698934904
941,2356327,634950,-0.572,-0.749,0.513,5.8,-14.5,2.6,3.1,-1.1,-24.7,0.505722221,0.0319223609,0.504593036,-0.698965423
942,2358584,634950,-0.572,-0.753,0.517,6.6,-13.9,2.9,3.1,-1.1,-24.7,0.505905332,0.0317697684,0.504318369,-0.69902646
943,2361067,634950,-0.576,-0.749,0.514,7.3,-13.4,3.1,3.1,-1.1,-24.7,0.506118961,0.0317087313,0.504074221,-0.699087497
944,2364611,634950,-0.576,-0.749,0.514,7.3,-13.4,3.1,3.1,-1.1,-24.7,0.506118961,0.0317087313,0.504074221,-0.699087497
945,2366082,634960,-0.568,-0.741,0.502,8,-12.8,3.4,3.5,-1,-25,0.506363109,0.0313425092,0.503585925,-0.699270608
946,2368622,634960,-0.572,-0.741,0.498,8.3,-12.5,3.6,3.5,-1,-25,0.50654622,0.0312814722,0.503311258,-0.699301126
947,2372079,634960,-0.564,-0.749,0.498,8.5,-12.1,3.9,3.5,-1,-25,0.506729331,0.0312204352,0.50306711,-0.699362163
948,2373636,634960,-0.56,-0.749,0.497,8.8,-11.8,4.2,2.9,-1.2,-26.3,0.506912442,0.0311899167,0.502792444,-0.6994232
949,2376090,634970,-0.556,-0.749,0.497,8.9,-11.3,4.5,2.9,-1.2,-26.3,0.507126072,0.0311288797,0.502517777,-0.699484237
950,2379607,634970,-0.548,-0.745,0.493,9.1,-10.8,4.9,2.9,-1.2,-26.3,0.507309183,0.0311288797,0.502273629,-0.699545274
951,2381090,634970,-0.552,-0.745,0.493,9.3,-10.2,5.4,2.9,-1.2,-26.3,0.507492294,0.0311288797,0.501998962,-0.699575793
952,2383616,634970,-0.552,-0.741,0.493,9.4,-9.6,5.9,2.7,-1.6,-26,0.507675405,0.0311899167,0.501754814,-0.69963683
953,2387090,634980,-0.556,-0.734,0.489,9.3,-8.9,6.4,2.7,-1.6,-26,0.507858516,0.0312204352,0.501510666,-0.699667348
954,2388574,634980,-0.556,-0.726,0.482,9.1,-8.3,6.8,2.7,-1.6,-26,0.508041627,0.0312814722,0.501266518,-0.699697867
955,2391067,634980,-0.56,-0.714,0.478,8.7,-7.8,7.2,2.7,-1.6,-26,0.508255257,0.0313425092,0.50102237,-0.699728385
956,2393845,634980,-0.556,-0.714,0.474,8.2,-7.3,7.5,2.7,-1.6,-26.1,0.508438368,0.0314035463,0.500839259,-0.699728385
957,2396901,634990,-0.556,-0.714,0.466,7.7,-7,7.8,2.7,-1.6,-26.1,0.508621479,0.0314645833,0.500625629,-0.699728385
958,2399175,634990,-0.556,-0.702,0.454,7.4,-6.9,8.1,2.7,-1.6,-26.1,0.508835108,0.0315256203,0.500412,-0.699728385
959,2401352,634990,-0.548,-0.702,0.454,7.1,-6.6,8.3,2.7,-1.6,-26.1,0.50901822,0.0315866573,0.500228889,-0.699728385
960,2403752,634990,-0.548,-0.702,0.458,6.8,-6.2,8.4,2.9,-1.3,-26.3,0.509201331,0.0316782128,0.500045778,-0.699697867
961,2406053,635000,-0.536,-0.691,0.454,6.5,-5.8,8.3,2.9,-1.3,-26.3,0.509384442,0.0317392499,0.499893185,-0.699697867
962,2408667,635000,-0.54,-0.687,0.45,6.2,-5.4,8.3,2.9,-1.3,-26.3,0.509567553,0.0318308054,0.499710074,-0.699667348
963,2411402,635000,-0.536,-0.683,0.446,6,-5,8.2,2.9,-1.3,-26.3,0.509750664,0.0318918424,0.499557482,-0.69963683
964,2414228,635000,-0.536,-0.683,0.446,6,-5,8.2,2.9,-1.3,-26.3,0.509750664,0.0318918424,0.499557482,-0.69963683
965,2417033,635010,-0.539,-0.679,0.442,5.3,-4.2,8.1,2.9,-1.6,-26,0.509994812,0.0319833979,0.499465926,-0.699545274
966,2418605,635010,-0.539,-0.671,0.438,5,-4.1,8.1,2.9,-1.6,-26,0.510147404,0.0320749535,0.499343852,-0.699514756
967,2421027,635010,-0.535,-0.667,0.438,4.8,-4,8.1,2.9,-1.6,-26,0.510330515,0.032166509,0.499221778,-0.699484237
968,2423683,635010,-0.539,-0.663,0.43,4.7,-3.8,8,2.5,-1.9,-26.4,0.510483108,0.032227546,0.499099704,-0.6994232
969,2426603,635020,-0.535,-0.667,0.43,4.5,-3.4,8,2.5,-1.9,-26.4,0.510635701,0.0323191015,0.49897763,-0.699392682
970,2429620,635020,-0.535,-0.655,0.418,4.3,-3,7.8,2.5,-1.9,-26.4,0.510788293,0.0324106571,0.498886074,-0.699362163
971,2431203,635020,-0.531,-0.667,0.426,4,-2.6,7.5,2.5,-1.9,-26.4,0.510940886,0.0325022126,0.498794519,-0.699331645
972,2433880,635020,-0.531,-0.667,0.422,3.7,-2.4,7.2,2.3,-1.7,-25.6,0.51106296,0.0325937681,0.498702963,-0.699270608
973,2436687,635030,-0.528,-0.671,0.426,3.4,-2.1,6.9,2.3,-1.7,-25.6,0.511185034,0.0326548051,0.498611408,-0.699240089
974,2438594,635030,-0.528,-0.671,0.426,3.2,-2,6.5,2.3,-1.7,-25.6,0.511307108,0.0327463607,0.498519852,-0.699209571
975,2442161,635030,-0.528,-0.671,0.422,3,-1.8,6.3,2.3,-1.7,-25.6,0.511429182,0.0328073977,0.498458815,-0.699179052
976,2444337,635030,-0.528,-0.675,0.418,2.8,-1.7,6.1,2.9,-1.5,-25.4,0.511551256,0.0328989532,0.498397778,-0.699148534
977,2446121,635040,-0.528,-0.683,0.414,2.6,-1.5,6,2.9,-1.5,-25.4,0.511642811,0.0329599902,0.498336741,-0.699087497
978,2448856,635040,-0.528,-0.683,0.414,2.4,-1.5,5.8,2.9,-1.5,-25.4,0.511764885,0.0329905087,0.498275704,-0.699056978
979,2451249,635040,-0.532,-0.687,0.407,2.3,-1.4,5.6,2.9,-1.5,-25.4,0.511856441,0.0330820643,0.498214667,-0.69902646
980,2455300,635040,-0.524,-0.691,0.406,2.3,-1.3,5.4,2.9,-1.6,-25.5,0.511947996,0.0331431013,0.49815363,-0.698995941
981,2457236,635050,-0.524,-0.699,0.41,2.4,-1.3,5.2,2.9,-1.6,-25.5,0.512039552,0.0332041383,0.498092593,-0.698965423
982,2458890,635050,-0.524,-0.699,0.407,2.4,-1.3,5.1,2.9,-1.6,-25.5,0.512131108,0.0332346568,0.498062075,-0.698934904
983,2461427,635050,-0.524,-0.711,0.41,2.5,-1.2,5,2.9,-1.6,-25.5,0.512222663,0.0333567309,0.498001038,-0.698904386
984,2463962,635050,-0.524,-0.711,0.41,2.5,-1.2,5,2.9,-1.6,-25.5,0.512222663,0.0333567309,0.498001038,-0.698904386
985,2466181,635060,-0.52,-0.723,0.418,2.3,-0.9,4.8,2.7,-1.5,-25.5,0.511917478,0.0330820643,0.498733482,-0.698629719
986,2469425,635060,-0.52,-0.723,0.418,1.9,-0.7,4.9,2.7,-1.5,-25.5,0.511978515,0.0331431013,0.498672445,-0.6985992
987,2471671,635060,-0.524,-0.723,0.422,1.4,-0.5,4.9,2.7,-1.5,-25.5,0.51207007,0.0332041383,0.498641926,-0.698538163
988,2473893,635060,-0.524,-0.715,0.426,0.9,-0.3,4.9,2.9,-1.5,-25.6,0.512131108,0.0332346568,0.498641926,-0.698507645
989,2476139,635070,-0.524,-0.719,0.434,0.2,-0.2,4.9,2.9,-1.5,-25.6,0.512222663,0.0333262123,0.498611408,-0.698446608
990,2479503,635070,-0.524,-0.711,0.438,-0.5,-0.1,4.9,2.9,-1.5,-25.6,0.512314219,0.0333567309,0.498641926,-0.698385571
991,2481675,635070,-0.532,-0.707,0.438,-1.3,0,5.1,2.9,-1.5,-25.6,0.512375256,0.0333872494,0.498641926,-0.698324534
992,2484124,635070,-0.532,-0.703,0.438,-2.3,0,5.3,0.7,-2.1,-25.6,0.512466811,0.0334177679,0.498672445,-0.698232978
993,2486229,635080,-0.532,-0.703,0.438,-3,0.1,5.4,0.7,-2.1,-25.6,0.512558367,0.0334482864,0.498733482,-0.698141423
994,2488873,635080,-0.532,-0.699,0.434,-3.8,0.2,5.6,0.7,-2.1,-25.6,0.512619404,0.0334788049,0.498764,-0.698049867
995,2491176,635080,-0.532,-0.703,0.442,-4.3,0.4,5.7,0.7,-2.1,-25.6,0.512680441,0.0334788049,0.498855556,-0.697927793
996,2495056,635080,-0.536,-0.707,0.438,-4.9,0.4,5.9,3.7,-1.9,-25.6,0.512802515,0.0334788049,0.498916593,-0.697805719
997,2497203,635090,-0.54,-0.702,0.446,-5.4,0.4,5.9,3.7,-1.9,-25.6,0.51289407,0.0335398419,0.499008148,-0.697683645
998,2498578,635090,-0.536,-0.707,0.446,-5.8,0.4,5.8,3.7,-1.9,-25.6,0.512985626,0.0335398419,0.499099704,-0.697561571
999,2501677,635090,-0.536,-0.707,0.45,-6.1,0.3,5.7,3.7,-1.9,-25.6,0.513077181,0.0335398419,0.499191259,-0.697408979
1000,2503893,635090,-0.532,-0.703,0.446,-6.4,0.3,5.6,3.7,-2.1,-25.6,0.513168737,0.0335398419,0.499282815,-0.697286905
1001,2506985,635100,-0.536,-0.707,0.45,-6.6,0.4,5.6,3.7,-2.1,-25.6,0.513260292,0.0334788049,0.499374371,-0.697134312
1002,2509168,635100,-0.532,-0.703,0.45,-6.8,0.4,5.6,3.7,-2.1,-25.6,0.513321329,0.0334788049,0.499496445,-0.697012238
1003,2511055,635100,-0.532,-0.695,0.454,-7,0.2,5.6,3.7,-2.1,-25.6,0.513412885,0.0334788049,0.499588,-0.696859645
1004,2513673,635100,-0.532,-0.695,0.454,-7,0.2,5.6,3.7,-2.1,-25.6,0.513412885,0.0334788049,0.499588,-0.696859645
1005,2516673,635110,-0.536,-0.687,0.446,-7.3,-0.1,5.4,4,-2.1,-25.6,0.513199255,0.0329905087,0.500381481,-0.696523942
1006,2518934,635110,-0.531,-0.679,0.454,-7.4,-0.1,5.3,4,-2.1,-25.6,0.513260292,0.0329599902,0.500473037,-0.696371349
1007,2521194,635110,-0.531,-0.675,0.454,-7.6,-0.1,5.1,4,-2.1,-25.6,0.513351848,0.0329294717,0.500595111,-0.696218757
1008,2524759,635110,-0.527,-0.671,0.461,-7.7,-0.1,4.9,3.7,-1.5,-25.4,0.513443403,0.0328989532,0.500717185,-0.696096683
1009,2526214,635120,-0.531,-0.671,0.457,-7.7,-0.3,4.6,3.7,-1.5,-25.4,0.513534959,0.0328379162,0.500808741,-0.69594409
1010,2529592,635120,-0.531,-0.667,0.457,-7.7,-0.4,4.2,3.7,-1.5,-25.4,0.513595996,0.0328073977,0.500930815,-0.695822016
1011,2531239,635120,-0.527,-0.667,0.461,-7.6,-0.6,3.9,3.7,-1.5,-25.4,0.513657033,0.0327463607,0.50102237,-0.695699942
1012,2534210,635120,-0.527,-0.667,0.461,-7.6,-0.8,3.6,2.6,-1.6,-25.6,0.513748589,0.0326853236,0.501144444,-0.695577868
1013,2536328,635130,-0.527,-0.671,0.461,-7.8,-0.9,3.5,2.6,-1.6,-25.6,0.513809626,0.0326242866,0.501236,-0.695455794
1014,2540715,635130,-0.523,-0.671,0.469,-8.1,-1.1,3.2,2.6,-1.6,-25.6,0.513870663,0.0325632496,0.501358074,-0.695303201
1015,2541653,635130,-0.527,-0.675,0.469,-8.4,-1.1,2.9,2.6,-1.6,-25.6,0.5139317,0.0324716941,0.501449629,-0.695181127
1016,2543619,635130,-0.523,-0.675,0.469,-8.6,-1.1,2.6,1.5,-1.5,-25.9,0.513992737,0.0323801386,0.501571703,-0.695059053
1017,2546519,635140,-0.531,-0.683,0.477,-8.9,-0.9,2.3,1.5,-1.5,-25.9,0.514053774,0.0322580645,0.501693777,-0.694936979
1018,2548587,635140,-0.531,-0.679,0.477,-9,-0.9,2,1.5,-1.5,-25.9,0.514084292,0.0321970275,0.501815851,-0.694814905
1019,2551796,635140,-0.531,-0.675,0.473,-9,-1,1.5,1.5,-1.5,-25.9,0.514145329,0.032105472,0.501968444,-0.69472335
1020,2554077,635140,-0.531,-0.675,0.481,-9.1,-1.2,1.2,0.6,-1.7,-25.7,0.514175848,0.0320139164,0.502090518,-0.694601276
