sample_index,elapsed_us,device_time_ms,acc_x_g,acc_y_g,acc_z_g,gyro_x_dps,gyro_y_dps,gyro_z_dps,mag_x_ut,mag_y_ut,mag_z_ut,quat_w,quat_x,quat_y,quat_z
0,3356,498150,0.964,0.276,0.148,-4.9,2.5,-2.3,-12.7,-34.1,8.9,0.636555071,-0.205023347,-0.608142338,-0.427625355
1,7333,498150,0.96,0.272,0.144,-5.5,2.8,-2.3,-12.6,-34,8.6,0.636249886,-0.205023347,-0.608447523,-0.427686392
2,9542,498150,0.96,0.268,0.144,-5.8,2.8,-2.3,-12.6,-34,8.6,0.636219367,-0.205053865,-0.608264412,-0.42793054
3,11780,498160,0.96,0.268,0.144,-5.8,2.8,-2.3,-12.6,-34,8.6,0.636219367,-0.205053865,-0.608264412,-0.42793054
4,14086,498160,0.96,0.272,0.148,-6.3,2.6,-2.3,-12.6,-34.2,8.5,0.636188849,-0.205114902,-0.60811182,-0.428174688
5,16004,498160,0.96,0.272,0.148,-6.3,2.6,-2.3,-12.6,-34.2,8.5,0.636188849,-0.205114902,-0.60811182,-0.428174688
6,18189,498160,0.956,0.268,0.156,-6.6,2.5,-2.5,-12.6,-34.2,8.5,0.63615833,-0.205175939,-0.607928709,-0.428449355
7,21448,498170,0.956,0.268,0.156,-6.6,2.5,-2.5,-12.6,-34.2,8.5,0.63615833,-0.205175939,-0.607928709,-0.428449355
8,23515,498170,0.956,0.272,0.152,-6.6,2.5,-2.6,-13.2,-34.2,8.6,0.636127812,-0.205267495,-0.607745598,-0.428724021
9,25918,498170,0.956,0.272,0.152,-6.6,2.5,-2.6,-13.2,-34.2,8.6,0.636127812,-0.205267495,-0.607745598,-0.428724021
10,28178,498170,0.948,0.276,0.148,-6.8,2.2,-2.5,-13.2,-34.2,8.6,0.636066774,-0.205298013,-0.607593005,-0.428968169
11,32804,498180,0.948,0.276,0.148,-6.8,2.2,-2.5,-13.2,-34.2,8.6,0.636066774,-0.205298013,-0.607593005,-0.428968169
12,34869,498180,0.948,0.276,0.152,-6.8,1.8,-2.3,-12.8,-34.2,8.7,0.636005737,-0.205420087,-0.607440413,-0.429242836
13,37000,498180,0.948,0.276,0.152,-6.8,1.8,-2.3,-12.8,-34.2,8.7,0.636005737,-0.205420087,-0.607440413,-0.429242836
14,38682,498180,0.944,0.276,0.156,-6.8,1.6,-2.4,-12.8,-34.2,8.7,0.6359447,-0.205511643,-0.60728782,-0.429517502
15,40860,498190,0.944,0.276,0.156,-6.8,1.6,-2.4,-12.8,-34.2,8.7,0.6359447,-0.205511643,-0.60728782,-0.429517502
16,43929,498190,0.952,0.276,0.16,-6.9,1.7,-2.5,-12.8,-34.2,8.7,0.635883663,-0.205603198,-0.607135228,-0.429792169
17,45638,498190,0.952,0.276,0.16,-6.9,1.7,-2.5,-12.8,-34.2,8.7,0.635883663,-0.205603198,-0.607135228,-0.429792169
18,49042,498190,0.948,0.272,0.156,-7.1,2,-2.5,-12.8,-34.2,8.7,0.635822626,-0.205694754,-0.606952116,-0.430066836
19,52156,498200,0.948,0.272,0.156,-7.1,2,-2.5,-12.8,-34.2,8.7,0.635822626,-0.205694754,-0.606952116,-0.430066836
20,54128,498200,0.948,0.272,0.152,-7.2,2.2,-2.5,-12.8,-34.2,8.7,0.635792108,-0.205755791,-0.606860561,-0.430158391
21,56034,498200,0.944,0.276,0.152,-7.3,2.6,-2.7,-13.4,-34.3,8.6,0.635578478,-0.205755791,-0.607013153,-0.430310984
22,58121,498200,0.948,0.276,0.156,-7.4,2.7,-2.7,-13.4,-34.3,8.6,0.63554796,-0.205847346,-0.606830042,-0.430616169
23,61638,498210,0.948,0.276,0.156,-7.4,2.7,-2.7,-13.4,-34.3,8.6,0.63554796,-0.205847346,-0.606830042,-0.430616169
24,63260,498210,0.948,0.272,0.148,-7.4,2.7,-3.1,-13.2,-34.5,8.4,0.635486923,-0.205908383,-0.606646931,-0.430921354
25,66907,498210,0.948,0.272,0.148,-7.4,2.7,-3.1,-13.2,-34.5,8.4,0.635486923,-0.205908383,-0.606646931,-0.430921354
26,68206,498210,0.952,0.268,0.148,-7.3,2.7,-3.2,-13.2,-34.5,8.4,0.635425886,-0.20596942,-0.606433302,-0.431226539
27,72226,498220,0.952,0.268,0.148,-7.3,2.7,-3.2,-13.2,-34.5,8.4,0.635425886,-0.20596942,-0.606433302,-0.431226539
28,74442,498220,0.948,0.265,0.148,-7.3,2.5,-3.5,-13,-34.2,8.8,0.635364849,-0.206030457,-0.606280709,-0.431562243
29,76733,498220,0.948,0.265,0.148,-7.3,2.5,-3.5,-13,-34.2,8.8,0.635364849,-0.206030457,-0.606280709,-0.431562243
30,79276,498220,0.956,0.268,0.144,-7.2,2.5,-3.6,-13,-34.2,8.8,0.635303812,-0.206091494,-0.606097598,-0.431867428
31,81320,498230,0.956,0.268,0.144,-7.2,2.5,-3.6,-13,-34.2,8.8,0.635303812,-0.206091494,-0.606097598,-0.431867428
32,83281,498230,0.952,0.265,0.148,-7,2.7,-3.3,-13.2,-34.9,8,0.635242775,-0.206152532,-0.605914487,-0.432172613
33,87224,498230,0.952,0.265,0.148,-7,2.7,-3.3,-13.2,-34.9,8,0.635242775,-0.206152532,-0.605914487,-0.432172613
34,88539,498230,0.956,0.264,0.148,-6.7,2.7,-3.5,-13.2,-34.9,8,0.635181738,-0.20618305,-0.605761895,-0.432477798
35,90846,498240,0.956,0.264,0.148,-6.7,2.7,-3.5,-13.2,-34.9,8,0.635181738,-0.20618305,-0.605761895,-0.432477798
36,93653,498240,0.956,0.261,0.148,-6.5,2.8,-3.6,-13.2,-34.9,8,0.635120701,-0.206213569,-0.605578784,-0.432782983
37,97258,498240,0.956,0.261,0.148,-6.5,2.8,-3.6,-13.2,-34.9,8,0.635120701,-0.206213569,-0.605578784,-0.432782983
38,99460,498240,0.956,0.261,0.148,-6.3,2.9,-3.6,-13.2,-34.9,8,0.635090182,-0.206244087,-0.605395672,-0.433088168
39,101665,498250,0.956,0.261,0.148,-6.3,2.9,-3.6,-13.2,-34.9,8,0.635090182,-0.206244087,-0.605395672,-0.433088168
40,103200,498250,0.956,0.257,0.148,-6.3,3,-3.6,-13.2,-34.9,8,0.635059664,-0.206274606,-0.605334635,-0.433210242
41,107081,498250,0.956,0.261,0.148,-6.4,3,-3.7,-12.7,-34.4,8.2,0.634754479,-0.206488235,-0.605639821,-0.433118686
42,109296,498250,0.956,0.257,0.148,-6.4,2.9,-3.7,-12.7,-34.4,8.2,0.63472396,-0.206518754,-0.605456709,-0.433423872
43,111903,498260,0.956,0.257,0.148,-6.4,2.9,-3.7,-12.7,-34.4,8.2,0.63472396,-0.206518754,-0.605456709,-0.433423872
44,114279,498260,0.956,0.253,0.148,-6.6,2.8,-3.7,-12.6,-34.4,8.4,0.634662923,-0.206549272,-0.605304117,-0.433729057
45,115809,498260,0.956,0.253,0.148,-6.6,2.8,-3.7,-12.6,-34.4,8.4,0.634662923,-0.206549272,-0.605304117,-0.433729057
46,118261,498260,0.952,0.253,0.144,-6.6,3,-3.7,-12.6,-34.4,8.4,0.634601886,-0.206579791,-0.605121006,-0.434034242
47,122267,498270,0.952,0.253,0.144,-6.6,3,-3.7,-12.6,-34.4,8.4,0.634601886,-0.206579791,-0.605121006,-0.434034242
48,124363,498270,0.952,0.249,0.144,-6.7,3.2,-3.7,-12.9,-34.3,8.8,0.634540849,-0.206610309,-0.604937895,-0.434339427
49,126607,498270,0.952,0.249,0.144,-6.7,3.2,-3.7,-12.9,-34.3,8.8,0.634540849,-0.206610309,-0.604937895,-0.434339427
50,129671,498270,0.956,0.245,0.144,-6.9,3.3,-3.7,-12.9,-34.3,8.8,0.634510331,-0.206640828,-0.604754784,-0.434644612
51,131647,498280,0.956,0.245,0.144,-6.9,3.3,-3.7,-12.9,-34.3,8.8,0.634510331,-0.206640828,-0.604754784,-0.434644612
52,133258,498280,0.948,0.241,0.144,-6.7,3.3,-3.7,-12.5,-34.4,8.1,0.634479812,-0.206640828,-0.604571673,-0.434980316
53,136458,498280,0.948,0.241,0.144,-6.7,3.3,-3.7,-12.5,-34.4,8.1,0.634479812,-0.206640828,-0.604571673,-0.434980316
54,138553,498280,0.952,0.249,0.148,-6.4,3,-3.3,-12.5,-34.4,8.1,0.634418775,-0.206671346,-0.604388562,-0.435254982
55,140757,498290,0.952,0.249,0.148,-6.4,3,-3.3,-12.5,-34.4,8.1,0.634418775,-0.206671346,-0.604388562,-0.435254982
56,144321,498290,0.948,0.245,0.148,-6.3,2.9,-3.1,-12.5,-34.4,8.1,0.634388256,-0.206732383,-0.604205451,-0.435560167
57,145873,498290,0.948,0.245,0.148,-6.3,2.9,-3.1,-12.5,-34.4,8.1,0.634388256,-0.206732383,-0.604205451,-0.435560167
58,148758,498290,0.944,0.249,0.144,-6.2,2.7,-3.1,-12.5,-34.4,8.1,0.634327219,-0.206762902,-0.604052858,-0.435834834
59,151880,498300,0.944,0.249,0.144,-6.2,2.7,-3.1,-12.5,-34.4,8.1,0.634327219,-0.206762902,-0.604052858,-0.435834834
60,153345,498300,0.944,0.249,0.148,-6.2,2.7,-3,-12.5,-34.4,8.1,0.634327219,-0.20679342,-0.603961303,-0.435956908
61,156519,498300,0.944,0.249,0.144,-6,2.7,-2.8,-13,-34.1,8.4,0.634144108,-0.207098605,-0.604144414,-0.435804315
62,159334,498300,0.948,0.249,0.148,-5.8,2.6,-2.8,-13,-34.1,8.4,0.63411359,-0.207129124,-0.603991821,-0.436078982
63,160618,498310,0.948,0.249,0.148,-5.8,2.6,-2.8,-13,-34.1,8.4,0.63411359,-0.207129124,-0.603991821,-0.436078982
64,163906,498310,0.948,0.249,0.148,-5.3,2.6,-2.7,-13.2,-34.3,7.9,0.634083071,-0.207159642,-0.603839228,-0.436292611
65,166785,498310,0.948,0.249,0.148,-5.3,2.6,-2.7,-13.2,-34.3,7.9,0.634083071,-0.207159642,-0.603839228,-0.436292611
66,168195,498310,0.948,0.253,0.148,-4.9,2.7,-2.6,-13.2,-34.3,7.9,0.634052553,-0.207159642,-0.603686636,-0.43653676
67,170646,498320,0.948,0.253,0.148,-4.9,2.7,-2.6,-13.2,-34.3,7.9,0.634052553,-0.207159642,-0.603686636,-0.43653676
68,175027,498320,0.948,0.253,0.152,-4.3,2.6,-2.3,-12.8,-34.1,8.1,0.634022034,-0.207190161,-0.603564562,-0.436750389
69,176945,498320,0.948,0.253,0.152,-4.3,2.6,-2.3,-12.8,-34.1,8.1,0.634022034,-0.207190161,-0.603564562,-0.436750389
70,179282,498320,0.956,0.253,0.152,-3.5,2.8,-2.5,-12.8,-34.1,8.1,0.634022034,-0.207159642,-0.603411969,-0.4369335
71,181697,498330,0.956,0.253,0.152,-3.5,2.8,-2.5,-12.8,-34.1,8.1,0.634022034,-0.207159642,-0.603411969,-0.4369335
72,184551,498330,0.956,0.26,0.152,-2.7,3.1,-2.5,-12.5,-34.4,8.3,0.634022034,-0.207129124,-0.603320414,-0.437116611
73,186835,498330,0.956,0.26,0.152,-2.7,3.1,-2.5,-12.5,-34.4,8.3,0.634022034,-0.207129124,-0.603320414,-0.437116611
74,188670,498330,0.96,0.26,0.152,-2.1,3,-2.4,-12.5,-34.4,8.3,0.634052553,-0.207068087,-0.60319834,-0.437269204
75,190956,498340,0.96,0.26,0.152,-2.1,3,-2.4,-12.5,-34.4,8.3,0.634052553,-0.207068087,-0.60319834,-0.437269204
76,193289,498340,0.96,0.26,0.156,-1.6,3.1,-2.4,-12.5,-34.4,8.3,0.634052553,-0.206976531,-0.603106784,-0.437421796
77,195835,498340,0.96,0.26,0.156,-1.6,3.1,-2.4,-12.5,-34.4,8.3,0.634052553,-0.206976531,-0.603106784,-0.437421796
78,198547,498340,0.96,0.26,0.152,-1.3,3,-2.5,-12.5,-34.4,8.3,0.634083071,-0.206884976,-0.603015229,-0.43754387
79,202703,498350,0.96,0.26,0.152,-1.3,3,-2.5,-12.5,-34.4,8.3,0.634083071,-0.206884976,-0.603015229,-0.43754387
80,204856,498350,0.956,0.264,0.152,-1.2,3,-2.3,-12.5,-34.4,8.3,0.634083071,-0.206854457,-0.602954192,-0.437604907
81,206545,498350,0.96,0.26,0.16,-0.9,2.8,-2.1,-12.6,-34.1,8.1,0.633960997,-0.206976531,-0.603167821,-0.437482833
82,208362,498350,0.956,0.264,0.156,-0.9,2.6,-2,-12.6,-34.1,8.1,0.633991516,-0.206884976,-0.603076266,-0.437604907
83,210625,498360,0.956,0.264,0.156,-0.9,2.6,-2,-12.6,-34.1,8.1,0.633991516,-0.206884976,-0.603076266,-0.437604907
84,215303,498360,0.96,0.26,0.16,-0.7,2.6,-1.8,-12.4,-34.1,8.3,0.634022034,-0.20679342,-0.603015229,-0.437696463
85,215637,498360,0.96,0.26,0.16,-0.7,2.6,-1.8,-12.4,-34.1,8.3,0.634022034,-0.20679342,-0.603015229,-0.437696463
86,218268,498360,0.964,0.264,0.164,-0.5,2.8,-1.5,-12.4,-34.1,8.3,0.634052553,-0.206732383,-0.602954192,-0.437788018
87,222707,498370,0.964,0.264,0.164,-0.5,2.8,-1.5,-12.4,-34.1,8.3,0.634052553,-0.206732383,-0.602954192,-0.437788018
88,224710,498370,0.964,0.268,0.164,-0.4,2.8,-1.4,-12.8,-33.7,8.5,0.634083071,-0.206640828,-0.602862636,-0.437849055
89,226181,498370,0.964,0.268,0.164,-0.4,2.8,-1.4,-12.8,-33.7,8.5,0.634083071,-0.206640828,-0.602862636,-0.437849055
90,229288,498370,0.964,0.272,0.164,-0.2,2.5,-1.4,-12.8,-33.7,8.5,0.63411359,-0.206549272,-0.602801599,-0.437940611
91,231132,498380,0.964,0.272,0.164,-0.2,2.5,-1.4,-12.8,-33.7,8.5,0.63411359,-0.206549272,-0.602801599,-0.437940611
92,233375,498380,0.96,0.264,0.164,-0.4,2.4,-1.3,-12.5,-34.1,8,0.634174627,-0.206488235,-0.602740562,-0.437971129
93,235825,498380,0.96,0.264,0.164,-0.4,2.4,-1.3,-12.5,-34.1,8,0.634174627,-0.206488235,-0.602740562,-0.437971129
94,239741,498380,0.956,0.268,0.164,-0.4,2.3,-1.3,-12.5,-34.1,8,0.634205145,-0.206427198,-0.602679525,-0.438062685
95,241822,498390,0.956,0.268,0.164,-0.4,2.3,-1.3,-12.5,-34.1,8,0.634205145,-0.206427198,-0.602679525,-0.438062685
96,244074,498390,0.96,0.272,0.164,-0.2,2.2,-1.2,-12.5,-34.1,8,0.634235664,-0.206335643,-0.602618488,-0.438154241
97,246023,498390,0.96,0.272,0.164,-0.2,2.2,-1.2,-12.5,-34.1,8,0.634235664,-0.206335643,-0.602618488,-0.438154241
98,248196,498390,0.956,0.264,0.168,-0.2,2.3,-1.3,-12.5,-34.1,8,0.634266182,-0.206274606,-0.602526933,-0.438215278
99,251291,498400,0.956,0.264,0.168,-0.2,2.3,-1.3,-12.5,-34.1,8,0.634266182,-0.206274606,-0.602526933,-0.438215278
100,254079,498400,0.96,0.264,0.168,-0.2,2.2,-1.3,-12.5,-34.1,8,0.634266182,-0.206244087,-0.602526933,-0.438245796
101,256751,498400,0.956,0.264,0.172,-0.2,2.3,-1.1,-12.1,-34.5,7.7,0.63411359,-0.206366161,-0.602771081,-0.438062685
102,258139,498400,0.956,0.264,0.172,-0.1,2.3,-1,-12.1,-34.5,7.7,0.634174627,-0.206274606,-0.602710044,-0.438123722
103,260904,498410,0.956,0.264,0.172,-0.1,2.3,-1,-12.1,-34.5,7.7,0.634174627,-0.206274606,-0.602710044,-0.438123722
104,264073,498410,0.956,0.26,0.172,0.1,2.1,-0.9,-11.7,-33.9,7.6,0.634205145,-0.206244087,-0.602649007,-0.438184759
105,267133,498410,0.956,0.26,0.172,0.1,2.1,-0.9,-11.7,-33.9,7.6,0.634205145,-0.206244087,-0.602649007,-0.438184759
106,268394,498410,0.952,0.268,0.176,0.6,2.1,-1.1,-11.7,-33.9,7.6,0.634235664,-0.206152532,-0.602618488,-0.438215278
107,271974,498420,0.952,0.268,0.176,0.6,2.1,-1.1,-11.7,-33.9,7.6,0.634235664,-0.206152532,-0.602618488,-0.438215278
108,273911,498420,0.952,0.268,0.179,0.9,2,-0.9,-11.8,-34,8.1,0.634296701,-0.206060976,-0.60258797,-0.438245796
109,276389,498420,0.952,0.268,0.179,0.9,2,-0.9,-11.8,-34,8.1,0.634296701,-0.206060976,-0.60258797,-0.438245796
110,279692,498420,0.944,0.272,0.184,1,1.8,-0.6,-11.8,-34,8.1,0.634327219,-0.20596942,-0.602526933,-0.438245796
111,280932,498430,0.944,0.272,0.184,1,1.8,-0.6,-11.8,-34,8.1,0.634327219,-0.20596942,-0.602526933,-0.438245796
112,284007,498430,0.944,0.272,0.191,1.2,1.4,-0.6,-12,-34,7.9,0.634357738,-0.205908383,-0.602526933,-0.438245796
113,287173,498430,0.944,0.272,0.191,1.2,1.4,-0.6,-12,-34,7.9,0.634357738,-0.205908383,-0.602526933,-0.438245796
114,288488,498430,0.94,0.276,0.184,1.3,1.2,-0.8,-12,-34,7.9,0.634388256,-0.205816828,-0.602526933,-0.438245796
115,291395,498440,0.94,0.276,0.184,1.3,1.2,-0.8,-12,-34,7.9,0.634388256,-0.205816828,-0.602526933,-0.438245796
116,294428,498440,0.932,0.276,0.184,1.2,1.3,-0.9,-12,-34,7.9,0.634418775,-0.205725272,-0.602526933,-0.438245796
117,295818,498440,0.932,0.276,0.184,1.2,1.3,-0.9,-12,-34,7.9,0.634418775,-0.205725272,-0.602526933,-0.438245796
118,298907,498440,0.932,0.272,0.188,0.8,1.4,-1.2,-12,-34,7.9,0.634449293,-0.205664235,-0.602526933,-0.438276315
119,301954,498450,0.932,0.272,0.188,0.8,1.4,-1.2,-12,-34,7.9,0.634449293,-0.205664235,-0.602526933,-0.438276315
120,303322,498450,0.925,0.28,0.188,0.8,1.3,-1.2,-12,-34,7.9,0.634449293,-0.205603198,-0.602526933,-0.438276315
121,306495,498450,0.928,0.28,0.192,1.2,0.9,-0.8,-12.1,-33.9,8.1,0.634449293,-0.205511643,-0.602526933,-0.438337352
122,308273,498450,0.928,0.284,0.192,1.7,0.6,-0.7,-12.1,-33.9,8.1,0.634449293,-0.205420087,-0.602526933,-0.438306833
123,312048,498460,0.928,0.284,0.192,1.7,0.6,-0.7,-12.1,-33.9,8.1,0.634449293,-0.205420087,-0.602526933,-0.438306833
124,314030,498460,0.928,0.296,0.188,2.9,0,-0.4,-11.8,-33.8,8,0.634479812,-0.205298013,-0.602618488,-0.438276315
125,315885,498460,0.928,0.296,0.188,2.9,0,-0.4,-11.8,-33.8,8,0.634479812,-0.205298013,-0.602618488,-0.438276315
126,319895,498460,0.932,0.299,0.192,3.7,-0.6,-0.2,-11.8,-33.8,8,0.634479812,-0.205236976,-0.602679525,-0.438184759
127,321689,498470,0.932,0.299,0.192,3.7,-0.6,-0.2,-11.8,-33.8,8,0.634479812,-0.205236976,-0.602679525,-0.438184759
128,323211,498470,0.936,0.307,0.196,3.8,-1.1,-0.2,-11.7,-34,7.7,0.634510331,-0.205145421,-0.602801599,-0.438062685
129,327213,498470,0.936,0.307,0.196,3.8,-1.1,-0.2,-11.7,-34,7.7,0.634510331,-0.205145421,-0.602801599,-0.438062685
130,329335,498470,0.932,0.303,0.196,3.2,-1.3,-0.9,-11.7,-34,7.7,0.634479812,-0.205053865,-0.602893155,-0.437971129
131,330742,498480,0.932,0.303,0.196,3.2,-1.3,-0.9,-11.7,-34,7.7,0.634479812,-0.205053865,-0.602893155,-0.437971129
132,334065,498480,0.928,0.299,0.196,2.3,-1.2,-2.2,-11.8,-33.6,8.1,0.634418775,-0.20496231,-0.603015229,-0.437971129
133,336101,498480,0.928,0.299,0.196,2.3,-1.2,-2.2,-11.8,-33.6,8.1,0.634418775,-0.20496231,-0.603015229,-0.437971129
134,338544,498480,0.924,0.299,0.2,1.9,-1.1,-2.7,-11.8,-33.6,8.1,0.634357738,-0.204870754,-0.603106784,-0.437971129
135,341546,498490,0.924,0.299,0.2,1.9,-1.1,-2.7,-11.8,-33.6,8.1,0.634357738,-0.204870754,-0.603106784,-0.437971129
136,343529,498490,0.924,0.296,0.196,2.2,-1.8,-2.3,-11.8,-33.6,8.1,0.634296701,-0.20474868,-0.60319834,-0.437971129
137,345804,498490,0.924,0.296,0.196,2.2,-1.8,-2.3,-11.8,-33.6,8.1,0.634296701,-0.20474868,-0.60319834,-0.437971129
138,349212,498490,0.924,0.299,0.196,2.9,-2.8,-1.9,-11.8,-33.6,8.1,0.634205145,-0.204687643,-0.603350932,-0.437940611
139,351052,498500,0.924,0.299,0.196,2.9,-2.8,-1.9,-11.8,-33.6,8.1,0.634205145,-0.204687643,-0.603350932,-0.437940611
140,353513,498500,0.928,0.303,0.196,3.1,-3.3,-1.7,-11.8,-33.6,8.1,0.634174627,-0.204657125,-0.603442488,-0.437910092
141,355898,498500,0.924,0.292,0.2,2.3,-4,-1.8,-11.9,-33.9,7.4,0.634052553,-0.204290902,-0.603503525,-0.438154241
142,360078,498500,0.921,0.292,0.204,1.7,-4.3,-1.9,-11.9,-33.9,7.4,0.633930479,-0.204260384,-0.603686636,-0.438093204
143,362139,498510,0.921,0.292,0.204,1.7,-4.3,-1.9,-11.9,-33.9,7.4,0.633930479,-0.204260384,-0.603686636,-0.438093204
144,364361,498510,0.909,0.284,0.204,0.5,-5,-2.4,-11.6,-33.8,8.1,0.633747368,-0.204290902,-0.603839228,-0.438093204
145,366466,498510,0.909,0.284,0.204,0.5,-5,-2.4,-11.6,-33.8,8.1,0.633747368,-0.204290902,-0.603839228,-0.438093204
146,368540,498510,0.909,0.284,0.208,-0.8,-5.3,-2.9,-11.6,-33.8,8.1,0.633564257,-0.204321421,-0.60402234,-0.438154241
147,370835,498520,0.909,0.284,0.208,-0.8,-5.3,-2.9,-11.6,-33.8,8.1,0.633564257,-0.204321421,-0.60402234,-0.438154241
148,373449,498520,0.909,0.28,0.212,-2.1,-5.3,-3.1,-11.6,-34.1,8,0.633320109,-0.204382458,-0.604144414,-0.438245796
149,377046,498520,0.909,0.28,0.212,-2.1,-5.3,-3.1,-11.6,-34.1,8,0.633320109,-0.204382458,-0.604144414,-0.438245796
150,379215,498520,0.905,0.28,0.216,-2.8,-5.6,-3,-11.6,-34.1,8,0.633106479,-0.204504532,-0.604297006,-0.438337352
151,381664,498530,0.905,0.28,0.216,-2.8,-5.6,-3,-11.6,-34.1,8,0.633106479,-0.204504532,-0.604297006,-0.438337352
152,383460,498530,0.905,0.284,0.224,-3,-5.8,-2.9,-11.7,-34.3,7.9,0.632862331,-0.204596088,-0.60441908,-0.438459426
153,386309,498530,0.905,0.284,0.224,-3,-5.8,-2.9,-11.7,-34.3,7.9,0.632862331,-0.204596088,-0.60441908,-0.438459426
154,389134,498530,0.905,0.291,0.224,-3,-5.9,-2.9,-11.7,-34.3,7.9,0.632618183,-0.204718162,-0.604541154,-0.438550981
155,390815,498540,0.905,0.291,0.224,-3,-5.9,-2.9,-11.7,-34.3,7.9,0.632618183,-0.204718162,-0.604541154,-0.438550981
156,395048,498540,0.901,0.299,0.22,-2.7,-6.2,-2.9,-11.7,-34.3,7.9,0.632374035,-0.204840236,-0.604693747,-0.438673055
157,397017,498540,0.901,0.299,0.22,-2.7,-6.2,-2.9,-11.7,-34.3,7.9,0.632374035,-0.204840236,-0.604693747,-0.438673055
158,399673,498540,0.913,0.303,0.228,-2.5,-6.9,-2.8,-11.7,-34.3,7.9,0.632129887,-0.20496231,-0.604846339,-0.438734092
159,401507,498550,0.913,0.303,0.228,-2.5,-6.9,-2.8,-11.7,-34.3,7.9,0.632129887,-0.20496231,-0.604846339,-0.438734092
160,403294,498550,0.917,0.307,0.224,-2.4,-7.2,-2.7,-11.7,-34.3,7.9,0.632007813,-0.205053865,-0.604937895,-0.438795129
161,406592,498550,0.92,0.319,0.224,-1.7,-7.8,-2.5,-11.3,-34,7.9,0.631977294,-0.20474868,-0.604815821,-0.439130833
162,408222,498550,0.917,0.323,0.22,-1.3,-8.3,-2.5,-11.3,-34,7.9,0.631702628,-0.204870754,-0.60502945,-0.43919187
163,411915,498560,0.917,0.323,0.22,-1.3,-8.3,-2.5,-11.3,-34,7.9,0.631702628,-0.204870754,-0.60502945,-0.43919187
164,414028,498560,0.917,0.327,0.22,-0.2,-8.7,-2.4,-11.3,-34.3,8.2,0.631397443,-0.204992828,-0.605273598,-0.43919187
165,415922,498560,0.917,0.327,0.22,-0.2,-8.7,-2.4,-11.3,-34.3,8.2,0.631397443,-0.204992828,-0.605273598,-0.43919187
166,419576,498560,0.913,0.331,0.216,0.6,-9.2,-2.6,-11.3,-34.3,8.2,0.631122776,-0.205084384,-0.605548265,-0.439161351
167,421524,498570,0.913,0.331,0.216,0.6,-9.2,-2.6,-11.3,-34.3,8.2,0.631122776,-0.205084384,-0.605548265,-0.439161351
168,423180,498570,0.913,0.335,0.212,1.2,-10,-3,-11.3,-34.4,8.1,0.630817591,-0.205175939,-0.605883969,-0.439130833
169,425827,498570,0.913,0.335,0.212,1.2,-10,-3,-11.3,-34.4,8.1,0.630817591,-0.205175939,-0.605883969,-0.439130833
170,429025,498570,0.909,0.339,0.216,1.9,-10.8,-3.3,-11.3,-34.4,8.1,0.630481887,-0.205236976,-0.606250191,-0.439069796
171,432588,498580,0.909,0.339,0.216,1.9,-10.8,-3.3,-11.3,-34.4,8.1,0.630481887,-0.205236976,-0.606250191,-0.439069796
172,434950,498580,0.905,0.343,0.213,2.4,-11.4,-3.4,-11.2,-34.9,8.3,0.630146184,-0.205298013,-0.606616413,-0.439008759
173,436629,498580,0.905,0.343,0.213,2.4,-11.4,-3.4,-11.2,-34.9,8.3,0.630146184,-0.205298013,-0.606616413,-0.439008759
174,438156,498580,0.901,0.343,0.205,2,-11.8,-3.6,-11.2,-34.9,8.3,0.629779962,-0.20535905,-0.607013153,-0.438947722
175,441129,498590,0.901,0.343,0.205,2,-11.8,-3.6,-11.2,-34.9,8.3,0.629779962,-0.20535905,-0.607013153,-0.438947722
176,443377,498590,0.897,0.343,0.209,1.2,-12,-3.7,-11.2,-34.9,8.3,0.629413739,-0.205450606,-0.607409894,-0.438886685
177,445861,498590,0.897,0.343,0.209,1.2,-12,-3.7,-11.2,-34.9,8.3,0.629413739,-0.205450606,-0.607409894,-0.438886685
178,448383,498590,0.893,0.343,0.201,0,-12.4,-3.7,-11.2,-34.9,8.3,0.629016999,-0.205603198,-0.607806635,-0.438886685
179,452027,498600,0.893,0.343,0.201,0,-12.4,-3.7,-11.2,-34.9,8.3,0.629016999,-0.205603198,-0.607806635,-0.438886685
180,454507,498600,0.893,0.343,0.205,-0.9,-12.6,-3.8,-11.2,-34.9,8.3,0.628803369,-0.205664235,-0.607959227,-0.438886685
181,456374,498600,0.893,0.343,0.201,-2.8,-13.5,-3.7,-11.4,-34.6,8.4,0.628467666,-0.205145421,-0.608081301,-0.439436018
182,459903,498600,0.893,0.343,0.201,-2.8,-13.5,-3.7,-11.4,-34.6,8.4,0.628254036,-0.205267495,-0.608264412,-0.439466536
183,462153,498610,0.893,0.347,0.209,-3.6,-14,-3.5,-11.4,-34.6,8.4,0.628009888,-0.205420087,-0.608417005,-0.439527573
184,465059,498610,0.893,0.339,0.201,-4.8,-14.7,-3.3,-11.7,-34.8,8.3,0.627521592,-0.205725272,-0.608783227,-0.43958861
185,467536,498610,0.893,0.339,0.201,-4.8,-14.7,-3.3,-11.7,-34.8,8.3,0.627521592,-0.205725272,-0.608783227,-0.43958861
186,469709,498610,0.897,0.339,0.201,-6,-15.3,-3.7,-11.7,-34.8,8.3,0.627002777,-0.206060976,-0.609118931,-0.439710685
187,471917,498620,0.897,0.339,0.201,-6,-15.3,-3.7,-11.7,-34.8,8.3,0.627002777,-0.206060976,-0.609118931,-0.439710685
188,474091,498620,0.897,0.343,0.201,-6.8,-16.1,-3.8,-11.3,-34.3,8.3,0.626422926,-0.206457717,-0.609454634,-0.439863277
189,476614,498620,0.897,0.343,0.201,-6.8,-16.1,-3.8,-11.3,-34.3,8.3,0.626422926,-0.206457717,-0.609454634,-0.439863277
190,478341,498620,0.905,0.343,0.201,-7.3,-17.2,-3.5,-11.3,-34.3,8.3,0.625843074,-0.206884976,-0.609820856,-0.439985351
191,481811,498630,0.905,0.343,0.201,-7.3,-17.2,-3.5,-11.3,-34.3,8.3,0.625843074,-0.206884976,-0.609820856,-0.439985351
192,483666,498630,0.909,0.351,0.197,-8,-18.1,-3.5,-11,-34.7,8.5,0.625232704,-0.207342753,-0.610187078,-0.440137944
193,485698,498630,0.909,0.351,0.197,-8,-18.1,-3.5,-11,-34.7,8.5,0.625232704,-0.207342753,-0.610187078,-0.440137944
194,489569,498630,0.913,0.359,0.189,-9.2,-18.8,-3.7,-11,-34.7,8.5,0.624591815,-0.207861568,-0.610553301,-0.440290536
195,491033,498640,0.913,0.359,0.189,-9.2,-18.8,-3.7,-11,-34.7,8.5,0.624591815,-0.207861568,-0.610553301,-0.440290536
196,493349,498640,0.917,0.355,0.181,-10.1,-19.5,-3.8,-11,-34.7,8.5,0.623889889,-0.208410901,-0.610919523,-0.440504166
197,496913,498640,0.917,0.355,0.181,-10.1,-19.5,-3.8,-11,-34.7,8.5,0.623889889,-0.208410901,-0.610919523,-0.440504166
198,498293,498640,0.921,0.363,0.181,-10.6,-19.9,-3.6,-11,-34.7,8.5,0.623187963,-0.208960234,-0.611285745,-0.440687277
199,501447,498650,0.921,0.363,0.181,-10.6,-19.9,-3.6,-11,-34.7,8.5,0.623187963,-0.208960234,-0.611285745,-0.440687277
200,504387,498650,0.921,0.363,0.181,-10.7,-20.1,-3.6,-11,-34.7,8.5,0.62285226,-0.209265419,-0.611468856,-0.440809351
201,505916,498650,0.921,0.367,0.17,-10.9,-20.5,-3.6,-11,-34.6,8.3,0.622333445,-0.20905179,-0.611713004,-0.441328166
202,508859,498650,0.928,0.374,0.169,-11,-20.7,-3.7,-11,-34.6,8.3,0.621601001,-0.209631642,-0.612109745,-0.441511277
203,511926,498660,0.928,0.374,0.169,-11,-20.7,-3.7,-11,-34.6,8.3,0.621601001,-0.209631642,-0.612109745,-0.441511277
204,513312,498660,0.928,0.374,0.173,-11.6,-20.8,-4.4,-11,-35,8,0.620868557,-0.210242012,-0.612475967,-0.441755425
205,516427,498660,0.928,0.374,0.173,-11.6,-20.8,-4.4,-11,-35,8,0.620868557,-0.210242012,-0.612475967,-0.441755425
206,518506,498660,0.928,0.375,0.162,-12,-20.8,-4.7,-11,-35,8,0.620471816,-0.210547197,-0.612659078,-0.441877499
207,521648,498670,0.928,0.378,0.166,-12.3,-20.8,-5,-11,-35,8,0.620105594,-0.210821863,-0.612842189,-0.442030091
208,523200,498670,0.932,0.386,0.158,-12.6,-20.7,-5.3,-10.7,-34.9,7.8,0.619312113,-0.211432234,-0.613208411,-0.442304758
209,525634,498670,0.932,0.386,0.158,-12.6,-20.7,-5.3,-10.7,-34.9,7.8,0.619312113,-0.211432234,-0.613208411,-0.442304758
210,529211,498670,0.928,0.386,0.158,-13.3,-20.4,-5.9,-10.7,-34.9,7.8,0.61854915,-0.212012085,-0.613574633,-0.442609943
211,530825,498680,0.928,0.386,0.158,-13.3,-20.4,-5.9,-10.7,-34.9,7.8,0.61854915,-0.212012085,-0.613574633,-0.442609943
212,533158,498680,0.932,0.386,0.154,-14.2,-20.2,-6.9,-10.6,-34.9,7.7,0.61772515,-0.212622456,-0.613910337,-0.442976165
213,535676,498680,0.932,0.386,0.154,-14.2,-20.2,-6.9,-10.6,-34.9,7.7,0.61772515,-0.212622456,-0.613910337,-0.442976165
214,538350,498680,0.936,0.39,0.15,-15.7,-20.4,-7.8,-10.6,-34.9,7.7,0.616901151,-0.213232826,-0.61424604,-0.443403424
215,540756,498690,0.936,0.39,0.15,-15.7,-20.4,-7.8,-10.6,-34.9,7.7,0.616901151,-0.213232826,-0.61424604,-0.443403424
216,544526,498690,0.936,0.386,0.142,-18.2,-20.1,-8.4,-10.6,-34.9,7.7,0.616046632,-0.213873714,-0.614520707,-0.443922239
217,545988,498690,0.936,0.386,0.142,-18.2,-20.1,-8.4,-10.6,-34.9,7.7,0.616046632,-0.213873714,-0.614520707,-0.443922239
218,549291,498690,0.932,0.371,0.142,-21.2,-18.9,-9.4,-10.6,-34.9,7.7,0.615161596,-0.214545122,-0.614734336,-0.444532609
219,551154,498700,0.932,0.371,0.142,-21.2,-18.9,-9.4,-10.6,-34.9,7.7,0.615161596,-0.214545122,-0.614734336,-0.444532609
220,554983,498700,0.932,0.367,0.15,-22.6,-18.2,-10.1,-10.6,-34.9,7.7,0.614703818,-0.214880825,-0.614795373,-0.444898831
221,556393,498700,0.936,0.355,0.142,-23.9,-17,-10.3,-10.5,-35.2,7.9,0.613879818,-0.214636677,-0.615100558,-0.445692312
222,559366,498700,0.932,0.355,0.142,-24.1,-16.7,-9.8,-10.5,-35.2,7.9,0.6130253,-0.215338603,-0.615192114,-0.446455275
223,560980,498710,0.932,0.355,0.142,-24.1,-16.7,-9.8,-10.5,-35.2,7.9,0.6130253,-0.215338603,-0.615192114,-0.446455275
224,563363,498710,0.94,0.347,0.142,-23.9,-16.8,-8.5,-10.1,-35.1,7.8,0.612170782,-0.216040529,-0.615253151,-0.447187719
225,565756,498710,0.94,0.347,0.142,-23.9,-16.8,-8.5,-10.1,-35.1,7.8,0.612170782,-0.216040529,-0.615253151,-0.447187719
226,569710,498710,0.948,0.343,0.145,-24.1,-17.3,-7.3,-10.1,-35.1,7.8,0.611316263,-0.216864528,-0.615314188,-0.447859127
227,571417,498720,0.948,0.343,0.145,-24.1,-17.3,-7.3,-10.1,-35.1,7.8,0.611316263,-0.216864528,-0.615314188,-0.447859127
228,573182,498720,0.96,0.339,0.137,-25,-17.4,-6.6,-10.4,-35.5,7.5,0.610492264,-0.217688528,-0.615344707,-0.448530534
229,575771,498720,0.96,0.339,0.137,-25,-17.4,-6.6,-10.4,-35.5,7.5,0.610492264,-0.217688528,-0.615344707,-0.448530534
230,579024,498720,0.96,0.339,0.137,-25,-17.4,-6.6,-10.4,-35.5,7.5,0.610492264,-0.217688528,-0.615344707,-0.448530534
231,581052,498730,0.964,0.343,0.137,-26.5,-17.5,-6.2,-10.4,-35.5,7.5,0.609637745,-0.218543046,-0.615375225,-0.449262978
232,584899,498730,0.975,0.347,0.137,-28,-17.9,-5.6,-10.2,-35.6,7.6,0.608783227,-0.21948912,-0.615344707,-0.449964904
233,586850,498730,0.975,0.347,0.137,-28,-17.9,-5.6,-10.2,-35.6,7.6,0.608783227,-0.21948912,-0.615344707,-0.449964904
234,589207,498730,0.979,0.355,0.137,-28.7,-18,-5.2,-10.2,-35.6,7.6,0.607928709,-0.220435194,-0.615314188,-0.450697348
235,591129,498740,0.979,0.355,0.137,-28.7,-18,-5.2,-10.2,-35.6,7.6,0.607928709,-0.220435194,-0.615314188,-0.450697348
236,593325,498740,1.011,0.389,0.141,-29.8,-17.5,-6.2,-10.2,-35.6,7.6,0.607043672,-0.221411786,-0.61528367,-0.451490829
237,596824,498740,1.011,0.389,0.141,-29.8,-17.5,-6.2,-10.2,-35.6,7.6,0.607043672,-0.221411786,-0.61528367,-0.451490829
238,598346,498740,1.018,0.401,0.137,-34.6,-14.8,-9.4,-10.2,-35.6,7.6,0.606158635,-0.222388379,-0.615131077,-0.452436903
239,602372,498750,1.018,0.401,0.137,-34.6,-14.8,-9.4,-10.2,-35.6,7.6,0.606158635,-0.222388379,-0.615131077,-0.452436903
240,604023,498750,1.026,0.389,0.133,-38.3,-12.3,-12.2,-10.2,-35.6,7.6,0.605670339,-0.222846156,-0.614947966,-0.453077792
241,606169,498750,1.022,0.389,0.133,-45.5,-5.9,-18.4,-10,-35.8,7.5,0.605182043,-0.223242897,-0.614673299,-0.453901791
242,608456,498750,1.147,0.392,0.111,-47.4,-2.6,-20.4,-10,-35.8,7.5,0.604235969,-0.224036378,-0.614062929,-0.455610828
243,610840,498760,1.147,0.392,0.111,-47.4,-2.6,-20.4,-10,-35.8,7.5,0.604235969,-0.224036378,-0.614062929,-0.455610828
244,613143,498760,1.182,0.427,0.126,-45.2,4.9,-17.3,-10.1,-35.9,7.2,0.603473006,-0.224707785,-0.613238929,-0.457380902
245,615666,498760,1.182,0.427,0.126,-45.2,4.9,-17.3,-10.1,-35.9,7.2,0.603473006,-0.224707785,-0.613238929,-0.457380902
246,619354,498760,1.03,0.362,0.121,-36.7,17.2,1.4,-10.1,-35.9,7.2,0.603381451,-0.225348674,-0.612140263,-0.458662679
247,621589,498770,1.03,0.362,0.121,-36.7,17.2,1.4,-10.1,-35.9,7.2,0.603381451,-0.225348674,-0.612140263,-0.458662679
248,623670,498770,1.03,0.397,0.137,-28.9,32.3,28.7,-10.3,-36.3,6.7,0.604266488,-0.226172674,-0.610553301,-0.459181494
249,625819,498770,1.03,0.397,0.137,-28.9,32.3,28.7,-10.3,-36.3,6.7,0.604266488,-0.226172674,-0.610553301,-0.459181494
250,628129,498770,0.827,0.372,0.171,-24.1,44.3,42.8,-10.3,-36.3,6.7,0.605945006,-0.227057711,-0.608569597,-0.459181494
251,632097,498780,0.827,0.372,0.171,-24.1,44.3,42.8,-10.3,-36.3,6.7,0.605945006,-0.227057711,-0.608569597,-0.459181494
252,634270,498780,0.827,0.372,0.171,-24.1,44.3,42.8,-10.3,-36.3,6.7,0.605945006,-0.227057711,-0.608569597,-0.459181494
253,636591,498780,0.772,0.357,0.16,-27.3,46.7,38.5,-10.4,-36.1,6.3,0.607745598,-0.22788171,-0.606402783,-0.459273049
254,638384,498780,0.784,0.368,0.18,-34.7,36.4,18.3,-10.4,-36.1,6.3,0.608966338,-0.228614154,-0.60441908,-0.459883419
255,641791,498790,0.784,0.368,0.18,-34.7,36.4,18.3,-10.4,-36.1,6.3,0.608966338,-0.228614154,-0.60441908,-0.459883419
256,644012,498790,0.979,0.347,0.137,-38.1,16.7,-6.4,-10.4,-36.1,6.3,0.609149449,-0.229163488,-0.603106784,-0.46110416
257,647201,498790,0.979,0.347,0.137,-38.1,16.7,-6.4,-10.4,-36.1,6.3,0.609149449,-0.229163488,-0.603106784,-0.46110416
258,649753,498790,0.972,0.319,0.148,-38.4,-4,-18.3,-10.4,-36.1,6.3,0.608478042,-0.229712821,-0.602465896,-0.462569048
259,651318,498800,0.972,0.319,0.148,-38.4,-4,-18.3,-10.4,-36.1,6.3,0.608478042,-0.229712821,-0.602465896,-0.462569048
260,654265,498800,0.995,0.315,0.152,-36.8,-11.2,-17.3,-10.4,-36.1,6.3,0.607959227,-0.230109561,-0.602343822,-0.463240455
261,656135,498800,1.011,0.311,0.163,-30.4,-17.3,-9.3,-10.5,-35.7,6.2,0.607470931,-0.230567339,-0.602282785,-0.463667714
262,658110,498800,0.999,0.318,0.175,-27.6,-17.6,-6,-10.5,-35.7,6.2,0.606585894,-0.231482894,-0.602252266,-0.464461196
263,660951,498810,0.999,0.318,0.175,-27.6,-17.6,-6,-10.5,-35.7,6.2,0.606585894,-0.231482894,-0.602252266,-0.464461196
264,663475,498810,0.987,0.315,0.16,-28.4,-13.8,-4.2,-10.2,-35.7,6.5,0.605822932,-0.23239845,-0.602130192,-0.465132603
265,667095,498810,0.987,0.315,0.16,-28.4,-13.8,-4.2,-10.2,-35.7,6.5,0.605822932,-0.23239845,-0.602130192,-0.465132603
266,669345,498810,0.975,0.319,0.148,-34.2,-11.5,-6.3,-10.2,-35.7,6.5,0.605059969,-0.233344523,-0.601825007,-0.466048158
267,671075,498820,0.975,0.319,0.148,-34.2,-11.5,-6.3,-10.2,-35.7,6.5,0.605059969,-0.233344523,-0.601825007,-0.466048158
268,674618,498820,0.964,0.311,0.148,-38.9,-10.2,-8.1,-10.3,-36.5,6.1,0.604235969,-0.234351634,-0.601428266,-0.467146825
269,676684,498820,0.964,0.311,0.148,-38.9,-10.2,-8.1,-10.3,-36.5,6.1,0.604235969,-0.234351634,-0.601428266,-0.467146825
270,678379,498820,0.944,0.312,0.145,-41.5,-9.5,-9.1,-10.3,-36.5,6.1,0.603381451,-0.235389264,-0.60093997,-0.468337046
271,682173,498830,0.944,0.312,0.145,-41.5,-9.5,-9.1,-10.3,-36.5,6.1,0.603381451,-0.235389264,-0.60093997,-0.468337046
272,684722,498830,0.94,0.308,0.149,-42,-9.6,-8.7,-10,-36.1,5.7,0.602526933,-0.236457411,-0.600421155,-0.469588305
273,686399,498830,0.94,0.308,0.149,-42,-9.6,-8.7,-10,-36.1,5.7,0.602526933,-0.236457411,-0.600421155,-0.469588305
274,689615,498830,0.936,0.304,0.157,-40.1,-10.1,-7.3,-10,-36.1,5.7,0.601672414,-0.237525559,-0.599932859,-0.470748009
275,691809,498840,0.936,0.304,0.157,-40.1,-10.1,-7.3,-10,-36.1,5.7,0.601672414,-0.237525559,-0.599932859,-0.470748009
276,694356,498840,0.932,0.3,0.157,-37.5,-10.4,-6,-10,-36.1,5.7,0.600878933,-0.238593707,-0.599475082,-0.471816156
277,695863,498840,0.932,0.3,0.157,-37.5,-10.4,-6,-10,-36.1,5.7,0.600878933,-0.238593707,-0.599475082,-0.471816156
278,699014,498840,0.932,0.308,0.161,-36.2,-10.6,-5.5,-10,-36.1,5.7,0.600482192,-0.239112522,-0.599261452,-0.472304453
279,702001,498850,0.929,0.304,0.153,-35.1,-10.6,-5.3,-10,-36.1,5.7,0.60011597,-0.239600818,-0.599078341,-0.47276223
280,704444,498850,0.925,0.308,0.157,-34.4,-10.4,-5.2,-10,-36.1,5.7,0.599749748,-0.240089114,-0.59889523,-0.473250526
281,706099,498850,0.921,0.312,0.153,-34.1,-10,-5.4,-9.8,-36.2,5.3,0.599353008,-0.240546892,-0.5986816,-0.473708304
282,709280,498850,0.921,0.312,0.153,-34,-9.6,-5.8,-9.8,-36.2,5.3,0.598986785,-0.241004669,-0.598498489,-0.4741966
283,710925,498860,0.921,0.304,0.145,-34,-9.4,-6.3,-9.8,-36.2,5.3,0.598620563,-0.241492965,-0.598315378,-0.474684896
284,714715,498860,0.913,0.312,0.149,-34.2,-9.5,-7,-9.8,-36.7,5.1,0.597888119,-0.242378002,-0.597918638,-0.47563097
285,716825,498860,0.913,0.312,0.149,-34.2,-9.5,-7,-9.8,-36.7,5.1,0.597888119,-0.242378002,-0.597918638,-0.47563097
286,719199,498860,0.913,0.312,0.149,-34.2,-9.5,-7,-9.8,-36.7,5.1,0.597888119,-0.242378002,-0.597918638,-0.47563097
287,720973,498870,0.913,0.312,0.149,-34.2,-9.5,-7,-9.8,-36.7,5.1,0.597888119,-0.242378002,-0.597918638,-0.47563097
288,724802,498870,0.929,0.312,0.157,-31.6,-11.2,-6.7,-9.6,-36.5,4.9,0.596331675,-0.244178594,-0.59724723,-0.477492599
289,726772,498870,0.929,0.312,0.157,-31.6,-11.2,-6.7,-9.6,-36.5,4.9,0.596331675,-0.244178594,-0.59724723,-0.477492599
290,729222,498870,0.932,0.312,0.157,-29.8,-12,-6.6,-9.6,-36.5,4.9,0.595568712,-0.245033113,-0.597003082,-0.478316599
291,731174,498880,0.932,0.312,0.157,-29.8,-12,-6.6,-9.6,-36.5,4.9,0.595568712,-0.245033113,-0.597003082,-0.478316599
292,734439,498880,0.932,0.312,0.157,-29.8,-12,-6.6,-9.6,-36.5,4.9,0.595568712,-0.245033113,-0.597003082,-0.478316599
293,736428,498880,0.944,0.319,0.161,-28.9,-12,-6.4,-9.5,-36.3,4.6,0.59480575,-0.245887631,-0.596758934,-0.479140599
294,739699,498880,0.944,0.319,0.161,-28.9,-12,-6.4,-9.5,-36.3,4.6,0.59480575,-0.245887631,-0.596758934,-0.479140599
295,741432,498890,0.948,0.315,0.161,-28.3,-11.6,-6.6,-9.5,-36.3,4.6,0.594042787,-0.246711631,-0.596545305,-0.479903562
296,744810,498890,0.948,0.315,0.161,-28.3,-11.6,-6.6,-9.5,-36.3,4.6,0.594042787,-0.246711631,-0.596545305,-0.479903562
297,746482,498890,0.948,0.315,0.161,-28.3,-11.6,-6.6,-9.5,-36.3,4.6,0.594042787,-0.246711631,-0.596545305,-0.479903562
298,749801,498890,0.948,0.315,0.161,-28.3,-11.6,-6.6,-9.5,-36.3,4.6,0.594042787,-0.246711631,-0.596545305,-0.479903562
299,752115,498900,0.96,0.319,0.164,-27,-10.7,-7.1,-9.6,-35.5,5.3,0.592577898,-0.248237556,-0.596118046,-0.481460005
300,754073,498900,0.956,0.323,0.164,-26.7,-10.3,-7.3,-9.6,-35.5,5.3,0.592242195,-0.248603778,-0.595995972,-0.481856746
301,755819,498900,0.956,0.323,0.164,-26.7,-10.3,-7.3,-9.6,-35.5,5.3,0.592242195,-0.248603778,-0.595995972,-0.481856746
302,759809,498900,0.956,0.323,0.164,-26.7,-10.3,-7.3,-9.6,-35.5,5.3,0.592242195,-0.248603778,-0.595995972,-0.481856746
303,761492,498910,0.956,0.323,0.164,-26.7,-10.3,-7.3,-9.6,-35.5,5.3,0.592242195,-0.248603778,-0.595995972,-0.481856746
304,763756,498910,0.909,0.308,0.146,-23.2,-6.7,-9.5,-9.7,-36.6,4.1,0.59050264,-0.25000763,-0.595507675,-0.483870968
305,766118,498910,0.909,0.308,0.146,-23.2,-6.7,-9.5,-9.7,-36.6,4.1,0.59050264,-0.25000763,-0.595507675,-0.483870968
306,768545,498910,0.893,0.305,0.134,-19.8,-5.2,-11,-9.7,-36.6,4.1,0.58989227,-0.250373852,-0.595324564,-0.484603412
307,770886,498920,0.893,0.305,0.134,-19.8,-5.2,-11,-9.7,-36.6,4.1,0.58989227,-0.250373852,-0.595324564,-0.484603412
308,773360,498920,0.89,0.301,0.134,-17.1,-4.4,-11,-9.4,-36.7,3.9,0.589342936,-0.250648518,-0.59520249,-0.485305338
309,777180,498920,0.89,0.301,0.134,-17.1,-4.4,-11,-9.4,-36.7,3.9,0.589342936,-0.250648518,-0.59520249,-0.485305338
310,779314,498920,0.886,0.289,0.13,-16.2,-4.2,-10.7,-9.4,-36.7,3.9,0.589098788,-0.250770592,-0.595141453,-0.485641041
311,781643,498930,0.886,0.289,0.13,-16.2,-4.2,-10.7,-9.4,-36.7,3.9,0.589098788,-0.250770592,-0.595141453,-0.485641041
312,783920,498930,0.886,0.289,0.13,-16.2,-4.2,-10.7,-9.4,-36.7,3.9,0.589098788,-0.250770592,-0.595141453,-0.485641041
313,785861,498930,0.882,0.27,0.126,-16.1,-4.4,-8.5,-9.3,-37,3.6,0.588366344,-0.251136814,-0.594927824,-0.486556597
314,789068,498930,0.89,0.242,0.122,-17.3,-5,-7.6,-9.3,-37,3.6,0.587878048,-0.251503037,-0.594775231,-0.487136448
315,790722,498940,0.89,0.242,0.122,-17.3,-5,-7.6,-9.3,-37,3.6,0.587878048,-0.251503037,-0.594775231,-0.487136448
316,793271,498940,0.909,0.218,0.125,-19,-5.6,-7.1,-9.3,-35.6,5.3,0.587389752,-0.251899777,-0.594622639,-0.487746818
317,795695,498940,0.909,0.218,0.125,-19,-5.6,-7.1,-9.3,-35.6,5.3,0.587389752,-0.251899777,-0.594622639,-0.487746818
318,798806,498940,0.921,0.21,0.132,-21.2,-6.6,-6.6,-9.3,-35.6,5.3,0.586840419,-0.252388073,-0.594409009,-0.488387707
319,801781,498950,0.921,0.21,0.132,-21.2,-6.6,-6.6,-9.3,-35.6,5.3,0.586840419,-0.252388073,-0.594409009,-0.488387707
320,803508,498950,0.929,0.202,0.132,-22.2,-7.2,-6.4,-9.3,-35.6,5.3,0.586565752,-0.25266274,-0.594317454,-0.488723411
321,805997,498950,0.94,0.198,0.14,-23.1,-7.9,-6,-9,-36.9,3.1,0.586321604,-0.253151036,-0.594195379,-0.488906522
322,809102,498950,0.944,0.186,0.147,-23.8,-8.5,-5.4,-9,-36.9,3.1,0.586016419,-0.25348674,-0.594073305,-0.489242225
323,811033,498960,0.956,0.19,0.155,-24,-9,-4.9,-9,-36.9,3.1,0.585711234,-0.253822443,-0.593951231,-0.489547411
324,813312,498960,0.983,0.193,0.186,-22.5,-9.3,-4.4,-8.9,-37,2.8,0.585131382,-0.254493851,-0.593737602,-0.490157781
325,817275,498960,0.983,0.193,0.186,-22.5,-9.3,-4.4,-8.9,-37,2.8,0.585131382,-0.254493851,-0.593737602,-0.490157781
326,819536,498960,1.007,0.204,0.197,-18.8,-7.7,-4,-8.9,-37,2.8,0.584612568,-0.255073702,-0.593585009,-0.490707114
327,821738,498970,1.007,0.204,0.197,-18.8,-7.7,-4,-8.9,-37,2.8,0.584612568,-0.255073702,-0.593585009,-0.490707114
328,823427,498970,1.034,0.208,0.189,-13.2,-4.7,-4.3,-9.2,-36.8,3.2,0.584215827,-0.255439924,-0.593462935,-0.491134373
329,827306,498970,1.034,0.208,0.189,-13.2,-4.7,-4.3,-9.2,-36.8,3.2,0.584215827,-0.255439924,-0.593462935,-0.491134373
330,829525,498970,1.046,0.224,0.162,-5.5,-1.8,-5.1,-9.2,-36.8,3.2,0.58394116,-0.255561998,-0.593401898,-0.49140904
331,831816,498980,1.046,0.224,0.162,-5.5,-1.8,-5.1,-9.2,-36.8,3.2,0.58394116,-0.255561998,-0.593401898,-0.49140904
332,834042,498980,1.034,0.236,0.131,3.3,0.1,-6.3,-8.8,-36.8,2.8,0.583819086,-0.255409406,-0.593493454,-0.491531114
333,836184,498980,1.034,0.236,0.131,3.3,0.1,-6.3,-8.8,-36.8,2.8,0.583819086,-0.255409406,-0.593493454,-0.491531114
334,838385,498980,1.011,0.26,0.112,11,1.5,-7.7,-8.8,-36.8,2.8,0.583788568,-0.254951628,-0.59376812,-0.491500595
335,840649,498990,1.011,0.26,0.112,11,1.5,-7.7,-8.8,-36.8,2.8,0.583788568,-0.254951628,-0.59376812,-0.491500595
336,843133,498990,0.999,0.253,0.096,17.2,2.7,-9.2,-9.1,-35.7,5.3,0.583849605,-0.254249702,-0.594134342,-0.491348003
337,847564,498990,0.999,0.253,0.096,17.2,2.7,-9.2,-9.1,-35.7,5.3,0.583849605,-0.254249702,-0.594134342,-0.491348003
338,849951,498990,0.976,0.242,0.081,22.6,3,-10.7,-9.1,-35.7,5.3,0.58394116,-0.253395184,-0.594622639,-0.491103854
339,852038,499000,0.976,0.242,0.081,22.6,3,-10.7,-9.1,-35.7,5.3,0.58394116,-0.253395184,-0.594622639,-0.491103854
340,854365,499000,0.98,0.238,0.081,24.7,3.1,-11.4,-9.1,-35.7,5.3,0.584002197,-0.25287637,-0.594927824,-0.490951262
341,856584,499000,0.976,0.218,0.081,26.1,3.1,-11.8,-8.6,-36.8,2.9,0.584032716,-0.252540666,-0.595294046,-0.490615558
342,858519,499000,0.976,0.179,0.072,25.9,3.1,-12.2,-8.6,-36.8,2.9,0.584124271,-0.251472518,-0.595934935,-0.490279855
343,860893,499010,0.976,0.179,0.072,25.9,3.1,-12.2,-8.6,-36.8,2.9,0.584124271,-0.251472518,-0.595934935,-0.490279855
344,863197,499010,0.988,0.132,0.083,21.8,3.3,-12.2,-8.9,-36.5,3.4,0.584215827,-0.250465407,-0.596453749,-0.490035707
345,867891,499010,0.988,0.132,0.083,21.8,3.3,-12.2,-8.9,-36.5,3.4,0.584215827,-0.250465407,-0.596453749,-0.490035707
346,868152,499010,0.992,0.072,0.102,15.4,2.9,-11.1,-8.9,-36.5,3.4,0.584215827,-0.249702445,-0.596881008,-0.489913633
347,872295,499020,0.992,0.072,0.102,15.4,2.9,-11.1,-8.9,-36.5,3.4,0.584215827,-0.249702445,-0.596881008,-0.489913633
348,874429,499020,0.995,0.025,0.121,9,1.3,-8.1,-8.4,-36.6,3.4,0.584185308,-0.249153111,-0.597155675,-0.489883114
349,876760,499020,0.995,0.025,0.121,9,1.3,-8.1,-8.4,-36.6,3.4,0.584185308,-0.249153111,-0.597155675,-0.489883114
350,879034,499020,0.991,0.009,0.125,4.7,-0.6,-3.6,-8.4,-36.6,3.4,0.58415479,-0.248878445,-0.597338786,-0.489852596
351,881157,499030,0.991,0.009,0.125,4.7,-0.6,-3.6,-8.4,-36.6,3.4,0.58415479,-0.248878445,-0.597338786,-0.489852596
352,883280,499030,0.991,0.001,0.125,2.8,-2.4,1.1,-9.1,-36.7,3.4,0.584124271,-0.248847926,-0.59746086,-0.48976104
353,885740,499030,0.991,0.001,0.125,2.8,-2.4,1.1,-9.1,-36.7,3.4,0.584124271,-0.248847926,-0.59746086,-0.48976104
354,890327,499030,0.991,0.005,0.125,4.2,-3.5,5,-9.1,-36.7,3.4,0.58415479,-0.248939482,-0.597582934,-0.489516892
355,890752,499040,0.991,0.005,0.125,4.2,-3.5,5,-9.1,-36.7,3.4,0.58415479,-0.248939482,-0.597582934,-0.489516892
356,894028,499040,0.992,0.013,0.109,8.3,-3.5,7.7,-9,-35.7,5.5,0.584307382,-0.249000519,-0.597735527,-0.489120151
357,896085,499040,0.992,0.013,0.109,8.3,-3.5,7.7,-9,-35.7,5.5,0.584307382,-0.249000519,-0.597735527,-0.489120151
358,898317,499040,0.996,0.029,0.094,14.4,-2.4,9.7,-9,-35.7,5.5,0.584582049,-0.249000519,-0.597979675,-0.488509781
359,900773,499050,0.996,0.029,0.094,14.4,-2.4,9.7,-9,-35.7,5.5,0.584582049,-0.249000519,-0.597979675,-0.488509781
360,903119,499050,0.996,0.03,0.07,17.9,-1.6,10.3,-9,-35.7,5.5,0.58476516,-0.248908963,-0.598132267,-0.488143559
361,907543,499050,1,0.026,0.039,21.2,-0.7,10.8,-9.2,-36.4,3.5,0.585772271,-0.250770592,-0.597949156,-0.486190374
362,909857,499050,1.023,0.022,0.007,27.9,0.6,11.5,-9.2,-36.4,3.5,0.586321604,-0.250373852,-0.598376415,-0.485213782
363,911971,499060,1.023,0.022,0.007,27.9,0.6,11.5,-9.2,-36.4,3.5,0.586321604,-0.250373852,-0.598376415,-0.485213782
364,914310,499060,1.043,0.03,-0.024,33.9,2.1,12.6,-9.3,-36.2,3.9,0.586962493,-0.249824519,-0.59889523,-0.484084597
365,916662,499060,1.043,0.03,-0.024,33.9,2.1,12.6,-9.3,-36.2,3.9,0.586962493,-0.249824519,-0.59889523,-0.484084597
366,918552,499060,1.082,0.019,-0.06,39.7,3.5,14.1,-9.3,-36.2,3.9,0.587755974,-0.249153111,-0.599444563,-0.482741783
367,920905,499070,1.082,0.019,-0.06,39.7,3.5,14.1,-9.3,-36.2,3.9,0.587755974,-0.249153111,-0.599444563,-0.482741783
368,923118,499070,1.106,0.011,-0.092,45.4,3.9,15.7,-9.1,-36.2,4,0.588671529,-0.248329112,-0.60011597,-0.481246376
369,927230,499070,1.106,0.011,-0.092,45.4,3.9,15.7,-9.1,-36.2,4,0.588671529,-0.248329112,-0.60011597,-0.481246376
370,929724,499070,1.149,-0.012,-0.116,50.4,3.9,17.3,-9.1,-36.2,4,0.589648122,-0.247413556,-0.600878933,-0.479567858
371,931794,499080,1.149,-0.012,-0.116,50.4,3.9,17.3,-9.1,-36.2,4,0.589648122,-0.247413556,-0.600878933,-0.479567858
372,934116,499080,1.168,-0.043,-0.125,53.3,4.5,18,-9.3,-35.7,4.4,0.590716269,-0.246436964,-0.601672414,-0.477767266
373,935747,499080,1.168,-0.043,-0.125,53.3,4.5,18,-9.3,-35.7,4.4,0.590716269,-0.246436964,-0.601672414,-0.477767266
374,939881,499080,1.219,-0.102,-0.142,53.1,6.4,17.4,-9.3,-35.7,4.4,0.591814936,-0.245399335,-0.602435377,-0.475966674
375,942043,499090,1.219,-0.102,-0.142,53.1,6.4,17.4,-9.3,-35.7,4.4,0.591814936,-0.245399335,-0.602435377,-0.475966674
376,944368,499090,1.247,-0.185,-0.147,51.2,9.5,16.6,-9.4,-35.6,6.6,0.592944121,-0.244331187,-0.603106784,-0.474257637
377,946387,499090,1.247,-0.185,-0.147,51.2,9.5,16.6,-9.4,-35.6,6.6,0.592944121,-0.244331187,-0.603106784,-0.474257637
378,948145,499090,1.255,-0.228,-0.144,49.9,13.2,16.7,-9.4,-35.6,6.6,0.594134342,-0.243202002,-0.603656117,-0.472640156
379,950652,499100,1.255,-0.228,-0.144,49.9,13.2,16.7,-9.4,-35.6,6.6,0.594134342,-0.243202002,-0.603656117,-0.472640156
380,955061,499100,1.247,-0.252,-0.14,49.9,15.2,17.2,-9.4,-35.6,6.6,0.594775231,-0.24262215,-0.603869747,-0.471846675
381,957318,499100,1.239,-0.291,-0.137,50.4,17.3,18.2,-8.9,-36.2,5.1,0.595477157,-0.242042299,-0.604083377,-0.471053194
382,959691,499100,1.219,-0.314,-0.133,53.6,20.3,22.4,-8.9,-36.2,5.1,0.596972564,-0.240821558,-0.60441908,-0.469313639
383,961834,499110,1.219,-0.314,-0.133,53.6,20.3,22.4,-8.9,-36.2,5.1,0.596972564,-0.240821558,-0.60441908,-0.469313639
384,964015,499110,1.165,-0.333,-0.144,61.4,20.8,29.4,-9.4,-36.3,5.3,0.598712119,-0.239570299,-0.604785302,-0.46723838
385,966960,499110,1.165,-0.333,-0.144,61.4,20.8,29.4,-9.4,-36.3,5.3,0.598712119,-0.239570299,-0.604785302,-0.46723838
386,969060,499110,1.141,-0.317,-0.139,74.3,18.5,38.5,-9.4,-36.3,5.3,0.600695822,-0.238288522,-0.605334635,-0.464644307
387,971336,499120,1.141,-0.317,-0.139,74.3,18.5,38.5,-9.4,-36.3,5.3,0.600695822,-0.238288522,-0.605334635,-0.464644307
388,973380,499120,1.095,-0.273,-0.157,91.1,15,48.2,-9.7,-36,6.2,0.602954192,-0.236915189,-0.606189154,-0.461287271
389,975658,499120,1.095,-0.273,-0.157,91.1,15,48.2,-9.7,-36,6.2,0.602954192,-0.236915189,-0.606189154,-0.461287271
390,978126,499120,1.075,-0.23,-0.164,111.5,11.4,57.2,-9.7,-36,6.2,0.605456709,-0.235328227,-0.607440413,-0.457167272
391,982489,499130,1.075,-0.23,-0.164,111.5,11.4,57.2,-9.7,-36,6.2,0.605456709,-0.235328227,-0.607440413,-0.457167272
392,984868,499130,1.059,-0.151,-0.183,133.6,9,65,-10.6,-35.2,6.9,0.608294931,-0.23340556,-0.609088412,-0.452192755
393,986677,499130,1.059,-0.151,-0.183,133.6,9,65,-10.6,-35.2,6.9,0.608294931,-0.23340556,-0.609088412,-0.452192755
394,988909,499130,1.044,-0.064,-0.209,154.6,8.4,71.4,-10.6,-35.2,6.9,0.611407819,-0.231116672,-0.611072115,-0.446424757
395,990865,499140,1.044,-0.064,-0.209,154.6,8.4,71.4,-10.6,-35.2,6.9,0.611407819,-0.231116672,-0.611072115,-0.446424757
396,993214,499140,1.036,-0.017,-0.22,171.9,9.1,76,-10.6,-34.5,9.1,0.614764855,-0.228461562,-0.613330485,-0.44001587
397,995629,499140,1.036,-0.017,-0.22,171.9,9.1,76,-10.6,-34.5,9.1,0.614764855,-0.228461562,-0.613330485,-0.44001587
398,999721,499140,1.024,0.054,-0.246,183,10.7,79.7,-10.6,-34.5,9.1,0.61833552,-0.225531785,-0.615710929,-0.433149205
399,1001953,499150,1.024,0.054,-0.246,183,10.7,79.7,-10.6,-34.5,9.1,0.61833552,-0.225531785,-0.615710929,-0.433149205
400,1004128,499150,1.013,0.066,-0.254,186.3,11.5,81.7,-10.6,-34.5,9.1,0.620166631,-0.22400586,-0.616901151,-0.429609058
401,1006350,499150,1.001,0.101,-0.265,188.3,12.3,83.7,-11.5,-34.6,8.3,0.621936705,-0.222815638,-0.618305002,-0.425641652
402,1008372,499150,0.989,0.121,-0.288,188.7,13.9,86.4,-11.5,-34.6,8.3,0.625721,-0.219763787,-0.62059389,-0.418317209
403,1010653,499160,0.989,0.121,-0.288,188.7,13.9,86.4,-11.5,-34.6,8.3,0.625721,-0.219763787,-0.62059389,-0.418317209
404,1013193,499160,0.985,0.125,-0.295,186.3,14.9,87.3,-11.8,-33.9,9.4,0.629474776,-0.216742454,-0.622760704,-0.410992767
405,1017078,499160,0.985,0.125,-0.295,186.3,14.9,87.3,-11.8,-33.9,9.4,0.629474776,-0.216742454,-0.622760704,-0.410992767
406,1019385,499160,0.993,0.129,-0.307,186.2,15.4,88.5,-11.8,-33.9,9.4,0.633198035,-0.21375164,-0.624805445,-0.403637806
407,1021627,499170,0.993,0.129,-0.307,186.2,15.4,88.5,-11.8,-33.9,9.4,0.633198035,-0.21375164,-0.624805445,-0.403637806
408,1023900,499170,1.009,0.149,-0.307,191.6,15.9,90.3,-12,-33.5,10.6,0.636951811,-0.210669271,-0.626850185,-0.396130253
409,1025984,499170,1.009,0.149,-0.307,191.6,15.9,90.3,-12,-33.5,10.6,0.636951811,-0.210669271,-0.626850185,-0.396130253
410,1029658,499170,1.013,0.168,-0.303,200.9,17,92,-12,-33.5,10.6,0.640797143,-0.207342753,-0.628955962,-0.388286996
411,1031958,499180,1.013,0.168,-0.303,200.9,17,92,-12,-33.5,10.6,0.640797143,-0.207342753,-0.628955962,-0.388286996
412,1034234,499180,1.028,0.18,-0.303,209.7,18,92.4,-12.8,-32.3,11.3,0.644703513,-0.203772088,-0.631092257,-0.380138554
413,1036309,499180,1.028,0.18,-0.303,209.7,18,92.4,-12.8,-32.3,11.3,0.644703513,-0.203772088,-0.631092257,-0.380138554
414,1038228,499180,1.04,0.184,-0.304,215.7,18.6,91.5,-12.8,-32.3,11.3,0.648609882,-0.199957274,-0.63328959,-0.371807001
415,1041404,499190,1.04,0.184,-0.304,215.7,18.6,91.5,-12.8,-32.3,11.3,0.648609882,-0.199957274,-0.63328959,-0.371807001
416,1043444,499190,1.06,0.191,-0.308,220.3,19.4,90,-13.2,-31.2,13.3,0.652485733,-0.195928831,-0.635486923,-0.363322855
417,1045758,499190,1.06,0.191,-0.308,220.3,19.4,90,-13.2,-31.2,13.3,0.652485733,-0.195928831,-0.635486923,-0.363322855
418,1049686,499190,1.087,0.191,-0.312,223.5,20.9,89.3,-13.2,-31.2,13.3,0.656331065,-0.191717277,-0.637623218,-0.354747154
419,1051914,499200,1.087,0.191,-0.312,223.5,20.9,89.3,-13.2,-31.2,13.3,0.656331065,-0.191717277,-0.637623218,-0.354747154
420,1054211,499200,1.11,0.187,-0.328,224.7,22.2,89.2,-13.2,-31.2,13.3,0.658253731,-0.189580981,-0.638660848,-0.350444044
421,1055982,499200,1.126,0.187,-0.325,225.7,23.9,89.2,-13.7,-30.3,13.8,0.660206915,-0.187383648,-0.639667959,-0.346110416
422,1058342,499200,1.157,0.179,-0.329,227.7,28,90.4,-13.7,-30.3,13.8,0.664143803,-0.182927946,-0.641560106,-0.337351604
423,1062014,499210,1.157,0.179,-0.329,227.7,28,90.4,-13.7,-30.3,13.8,0.664143803,-0.182927946,-0.641560106,-0.337351604
424,1064106,499210,1.181,0.175,-0.334,229.5,31.5,92.9,-14.2,-29.6,14.8,0.668141728,-0.178411206,-0.643269143,-0.328501236
425,1066667,499210,1.181,0.175,-0.334,229.5,31.5,92.9,-14.2,-29.6,14.8,0.668141728,-0.178411206,-0.643269143,-0.328501236
426,1068361,499210,1.232,0.182,-0.334,230.3,32.8,96.3,-14.2,-29.6,14.8,0.67220069,-0.173894467,-0.644825587,-0.319498276
427,1070835,499220,1.232,0.182,-0.334,230.3,32.8,96.3,-14.2,-29.6,14.8,0.67220069,-0.173894467,-0.644825587,-0.319498276
428,1074467,499220,1.259,0.193,-0.327,230.1,31.9,100.2,-14.2,-28.5,16,0.676198614,-0.169469283,-0.646290475,-0.310312204
429,1075890,499220,1.259,0.193,-0.327,230.1,31.9,100.2,-14.2,-28.5,16,0.676198614,-0.169469283,-0.646290475,-0.310312204
430,1078682,499220,1.294,0.22,-0.327,229.5,30.3,103.4,-14.2,-28.5,16,0.680104984,-0.165166173,-0.647694327,-0.301034577
431,1081996,499230,1.294,0.22,-0.327,229.5,30.3,103.4,-14.2,-28.5,16,0.680104984,-0.165166173,-0.647694327,-0.301034577
432,1084057,499230,1.313,0.251,-0.327,229.4,28.9,105.9,-15,-27.5,16.6,0.683919797,-0.160954619,-0.649037141,-0.291604358
433,1085715,499230,1.313,0.251,-0.327,229.4,28.9,105.9,-15,-27.5,16.6,0.683919797,-0.160954619,-0.649037141,-0.291604358
434,1088852,499230,1.337,0.302,-0.323,231.8,28.3,108.4,-15,-27.5,16.6,0.687673574,-0.156712546,-0.650349437,-0.282021546
435,1091075,499240,1.337,0.302,-0.323,231.8,28.3,108.4,-15,-27.5,16.6,0.687673574,-0.156712546,-0.650349437,-0.282021546
436,1093088,499240,1.352,0.337,-0.327,236.9,28.2,110.2,-15.7,-26.4,17.9,0.691396832,-0.152409436,-0.651600696,-0.272225105
437,1096023,499240,1.352,0.337,-0.327,236.9,28.2,110.2,-15.7,-26.4,17.9,0.691396832,-0.152409436,-0.651600696,-0.272225105
438,1098399,499240,1.376,0.396,-0.319,243.4,28.5,110.7,-15.7,-26.4,17.9,0.695089572,-0.147923215,-0.652821436,-0.262184515
439,1101690,499250,1.372,0.419,-0.318,246.3,29.2,110.2,-15.7,-26.4,17.9,0.696920682,-0.145603809,-0.653431806,-0.257087924
440,1103125,499250,1.372,0.419,-0.318,246.3,29.2,110.2,-15.7,-26.4,17.9,0.696920682,-0.145603809,-0.653431806,-0.257087924
441,1105798,499250,1.372,0.466,-0.31,250,31.9,107.3,-16.3,-25.2,19,0.700552385,-0.140720847,-0.654530473,-0.246864223
442,1110092,499250,1.36,0.478,-0.306,250.3,34,105.2,-16.3,-25.2,19,0.702352977,-0.138218329,-0.655049287,-0.241798151
443,1112185,499260,1.36,0.482,-0.302,249.8,36.6,102.7,-16.3,-25.2,19,0.704153569,-0.135654775,-0.655476547,-0.236762597
444,1114774,499260,1.333,0.482,-0.286,248.3,39.4,99.9,-16.3,-24.6,19,0.705954161,-0.13309122,-0.655842769,-0.231788079
445,1116954,499260,1.333,0.482,-0.286,248.3,39.4,99.9,-16.3,-24.6,19,0.705954161,-0.13309122,-0.655842769,-0.231788079
446,1119148,499260,1.293,0.467,-0.265,242.8,45.7,93.3,-16.3,-24.6,19,0.709555345,-0.127811518,-0.656361583,-0.222083193
447,1120679,499270,1.25,0.443,-0.241,239.2,49,89.6,-16.3,-24.6,19,0.711355937,-0.125156407,-0.656483657,-0.217413862
448,1124294,499270,1.227,0.428,-0.237,234.9,52.6,85.8,-16.8,-23.6,20,0.713156529,-0.122470779,-0.656544694,-0.212866604
449,1126107,499270,1.2,0.408,-0.237,230.1,56.4,81.8,-16.8,-23.6,20,0.714957121,-0.119815668,-0.656514176,-0.20844142
450,1129171,499270,1.172,0.393,-0.229,224.9,60.4,78.1,-16.8,-23.6,20,0.716727195,-0.117160558,-0.656361583,-0.20413831
451,1130713,499280,1.172,0.393,-0.229,224.9,60.4,78.1,-16.8,-23.6,20,0.716727195,-0.117160558,-0.656361583,-0.20413831
452,1133865,499280,1.172,0.393,-0.229,224.9,60.4,78.1,-16.8,-23.6,20,0.716727195,-0.117160558,-0.656361583,-0.20413831
453,1136850,499280,1.11,0.35,-0.205,214.1,68.9,72,-17.3,-22.2,20.5,0.720389416,-0.111880856,-0.65581225,-0.195989868
454,1139431,499280,1.11,0.35,-0.205,214.1,68.9,72,-17.3,-22.2,20.5,0.720389416,-0.111880856,-0.65581225,-0.195989868
455,1141544,499290,1.067,0.327,-0.193,205.3,76.3,70.1,-17.3,-22.2,20.5,0.724082156,-0.106723228,-0.654866176,-0.188177129
456,1143420,499290,1.051,0.323,-0.181,199.5,79.2,75.1,-17.7,-20.6,20.9,0.727866451,-0.101809748,-0.653645436,-0.180486465
457,1145763,499290,1.051,0.323,-0.181,199.5,79.2,75.1,-17.7,-20.6,20.9,0.727866451,-0.101809748,-0.653645436,-0.180486465
458,1148862,499290,1.074,0.354,-0.165,196,76.7,85.5,-17.7,-20.6,20.9,0.731559191,-0.0973235267,-0.65233314,-0.172582171
459,1150905,499300,1.074,0.354,-0.165,196,76.7,85.5,-17.7,-20.6,20.9,0.731559191,-0.0973235267,-0.65233314,-0.172582171
460,1153793,499300,1.086,0.358,-0.157,194.1,74.4,91,-17.7,-20.6,20.9,0.733359783,-0.0952177496,-0.651661733,-0.168523209
461,1155899,499300,1.047,0.366,-0.149,191.5,72.1,96.1,-18,-20,21.3,0.735129856,-0.093264565,-0.650990326,-0.164403211
462,1159061,499300,1,0.386,-0.12,184.3,68.4,104.9,-18,-20,21.3,0.738547929,-0.0897244179,-0.64967803,-0.156071657
463,1161868,499310,1,0.386,-0.12,184.3,68.4,104.9,-18,-20,21.3,0.738547929,-0.0897244179,-0.64967803,-0.156071657
464,1164055,499310,0.891,0.379,-0.099,177,63.7,112.1,-18.2,-18.6,21.7,0.74181341,-0.0866420484,-0.648335215,-0.147679067
465,1166981,499310,0.891,0.379,-0.099,177,63.7,112.1,-18.2,-18.6,21.7,0.74181341,-0.0866420484,-0.648335215,-0.147679067
466,1168423,499310,0.801,0.419,-0.073,170.8,53.4,113.9,-18.2,-18.6,21.7,0.744773705,-0.0839259011,-0.647144993,-0.139347514
467,1171626,499320,0.789,0.435,-0.081,168,45.6,111.1,-18.2,-18.6,21.7,0.746055483,-0.0826136052,-0.646717734,-0.135258034
468,1174649,499320,0.824,0.458,-0.081,165.3,36.7,106.2,-18.8,-17.7,22.1,0.747184668,-0.0813013092,-0.646412549,-0.131260109
469,1176680,499320,0.828,0.458,-0.085,162.4,27.9,100,-18.8,-17.7,22.1,0.748130741,-0.0799890133,-0.646229438,-0.127384259
470,1178223,499320,0.824,0.466,-0.073,159.2,20.7,93.4,-18.8,-17.7,22.1,0.748954741,-0.0786461989,-0.646168401,-0.123630482
471,1180941,499330,0.82,0.462,-0.065,156,16.1,87.3,-18.8,-17.7,22.1,0.749687185,-0.0772423475,-0.646168401,-0.120029298
472,1184090,499330,0.816,0.477,-0.061,153.2,14.5,82,-19,-16.9,22.9,0.750358592,-0.0758995331,-0.64619892,-0.116550188
473,1187101,499330,0.824,0.481,-0.069,150.7,15.5,77,-19,-16.9,22.9,0.75103,-0.0744651631,-0.646168401,-0.113193152
474,1188357,499330,0.867,0.5,-0.07,148,18.8,71.8,-19,-16.9,22.9,0.751701407,-0.0730307932,-0.646107364,-0.10995819
475,1191580,499340,0.918,0.512,-0.094,144.4,24,65.9,-19,-16.9,22.9,0.752433851,-0.0715048677,-0.645954772,-0.10687582
476,1194597,499340,0.976,0.527,-0.114,139.1,31.1,59.9,-19.4,-15.9,22,0.753227332,-0.0700094607,-0.645680105,-0.103976562
477,1196858,499340,0.976,0.519,-0.095,132,40.2,55.3,-19.4,-15.9,22,0.754112369,-0.0685140538,-0.645222327,-0.101290933
478,1198216,499340,0.968,0.507,-0.067,123,51.4,54.2,-19.4,-15.9,22,0.75511948,-0.0671407208,-0.644581439,-0.0987273782
479,1201006,499350,1.038,0.5,0.071,112.2,64,56.7,-19.4,-15.9,22,0.756309702,-0.065950499,-0.643665883,-0.0962858974
480,1204220,499350,1.038,0.5,0.071,112.2,64,56.7,-19.4,-15.9,22,0.756309702,-0.065950499,-0.643665883,-0.0962858974
481,1205590,499350,1.014,0.392,0.258,86.6,87.9,65.9,-19.7,-15.4,22.5,0.759147923,-0.064333018,-0.641132847,-0.091830195
482,1208374,499350,0.994,0.323,0.387,73.3,97.7,68.7,-19.7,-15.4,22.5,0.760765404,-0.0638752403,-0.639576403,-0.0898159734
483,1211204,499360,1.032,0.138,0.65,60.7,106.9,68.8,-19.7,-15.4,22.5,0.762474441,-0.0636310923,-0.63780633,-0.0879543443
484,1214282,499360,1.078,0.061,0.805,49.6,116.8,66.3,-20.1,-15.3,22.5,0.764275033,-0.0634784997,-0.635883663,-0.0863368633
485,1215754,499360,1.086,-0.027,0.964,40.8,129.6,61.8,-20.1,-15.3,22.5,0.766258736,-0.0634174627,-0.633716849,-0.0849024934
486,1219461,499360,1.034,-0.262,1.232,35.5,146.6,56.9,-20.1,-15.3,22.5,0.76842555,-0.0633564257,-0.63124485,-0.083681753
487,1220932,499370,0.99,-0.393,1.38,35.4,167.9,52.5,-20.1,-15.3,22.5,0.770867031,-0.0631733146,-0.628406629,-0.0825220496
488,1223155,499370,0.884,-0.535,1.545,43.1,192.8,49,-20.9,-14.7,21.9,0.773674734,-0.062776574,-0.625171667,-0.0813928648
489,1226030,499370,0.888,-0.6,1.669,60.9,220.1,45.9,-20.9,-14.7,21.9,0.77681814,-0.0619830927,-0.621478927,-0.0800805689
490,1228475,499370,0.692,-0.808,1.874,90.1,248.1,43.4,-20.9,-14.7,21.9,0.780358287,-0.0605792413,-0.617358928,-0.0784630879
491,1230753,499380,0.602,-0.874,1.886,130.3,274.1,43.1,-20.9,-14.7,21.9,0.784295175,-0.0585039827,-0.612842189,-0.0763267922
492,1233179,499380,0.387,-0.97,1.873,179.7,295.4,47.7,-21.6,-13.9,21.2,0.788537248,-0.0555436872,-0.608020264,-0.0734885708
493,1237689,499380,-0.052,-1.061,1.774,236.8,310.3,59.2,-21.6,-13.9,21.2,0.79299295,-0.0517593921,-0.602954192,-0.0696737571
494,1240226,499380,-0.263,-1.003,1.728,300.1,317.5,77.4,-21.6,-13.9,21.2,0.797601245,-0.0471205786,-0.597796564,-0.0647602771
495,1242144,499390,-0.501,-0.976,1.697,367.4,316.8,99.5,-21.6,-13.9,21.2,0.80220954,-0.0415356914,-0.592669454,-0.0585650197
496,1244323,499390,-0.658,-0.864,1.674,434.9,307.7,122.2,-23.1,-11.3,19.7,0.806665242,-0.0351268044,-0.587694937,-0.0510574664
497,1246664,499390,-0.99,-0.431,1.603,496.9,290.1,143,-23.1,-11.3,19.7,0.810876797,-0.0278939177,-0.582995087,-0.0423902097
498,1248221,499390,-0.927,-0.127,1.476,546.6,263.1,161.3,-23.1,-11.3,19.7,0.814630573,-0.0200201422,-0.578691977,-0.0327463607
499,1250721,499400,-0.908,0.289,1.371,578.3,227.2,176,-23.1,-11.3,19.7,0.81777398,-0.0118106632,-0.5749382,-0.022400586
500,1254494,499400,-0.908,0.289,1.371,578.3,227.2,176,-23.1,-11.3,19.7,0.81777398,-0.0118106632,-0.5749382,-0.022400586
501,1256630,499400,-0.279,1.912,0.957,579.7,134,190.2,-23.4,-8.7,20.4,0.821955016,0.00445570238,-0.569505905,-0.00112918485
502,1259625,499400,0.083,2.434,0.898,553.9,77.7,191.3,-23.4,-8.7,20.4,0.822809534,0.0120242927,-0.568102054,0.00915555284
503,1261497,499410,0.529,2.698,0.725,514.1,14.7,191.6,-23.4,-8.7,20.4,0.822748497,0.0188604389,-0.567735832,0.0189825129
504,1263559,499410,1.183,2.781,0.441,461.4,-52.3,192.6,-23.7,-6.2,21.6,0.821771905,0.0247810297,-0.568529313,0.0281380657
505,1265957,499410,1.183,2.781,0.441,461.4,-52.3,192.6,-23.7,-6.2,21.6,0.821771905,0.0247810297,-0.568529313,0.0281380657
506,1269802,499410,1.226,2.548,0.461,333.6,-162.1,184.8,-23.7,-6.2,21.6,0.81756035,0.0334177679,-0.573168126,0.0438245796
507,1272105,499420,1.175,2.067,0.444,263.3,-181.9,163,-23.7,-6.2,21.6,0.81490524,0.0362559893,-0.576250496,0.049897763
508,1274418,499420,1.109,1.789,0.426,181.3,-172.4,124.2,-22.7,-4.9,22.1,0.812433241,0.0381176183,-0.579210791,0.0542313913
509,1277108,499420,1.047,1.5,0.385,79.3,-139.8,72.3,-22.7,-4.9,22.1,0.810510575,0.038758507,-0.581652272,0.056428724
510,1279477,499420,0.981,1.246,0.355,-41.9,-95.9,16.1,-22.7,-4.9,22.1,0.809320353,0.0379345073,-0.583422346,0.0560930204
511,1281808,499430,0.912,0.918,0.282,-171,-53.5,-34.1,-22.7,-4.9,22.1,0.808801538,0.0354319895,-0.584551531,0.053254799
512,1284181,499430,0.873,0.755,0.202,-291.4,-23.2,-70.5,-22.8,-6.4,22.5,0.808801538,0.0311899167,-0.585222938,0.048280282
513,1286019,499430,0.862,0.623,0.146,-390,-10.3,-88.7,-22.8,-6.4,22.5,0.809015168,0.0254524369,-0.585741752,0.0417188025
514,1288502,499430,0.718,0.413,0.111,-460.6,-13.3,-89,-22.8,-6.4,22.5,0.809137242,0.0184942167,-0.586321604,0.0342722861
515,1291562,499440,0.64,0.336,0.115,-502.5,-26.3,-76.6,-22.8,-6.4,22.5,0.808984649,0.0106204413,-0.587084567,0.0264595477
516,1293607,499440,0.581,0.293,0.139,-518,-42.7,-58.3,-22.9,-9,19.6,0.80855739,0.00222785119,-0.588091678,0.0187994018
517,1295846,499440,0.565,0.304,0.175,-510.7,-57.1,-42,-22.9,-9,19.6,0.807824946,-0.00616473891,-0.589251381,0.0115054781
518,1299662,499440,0.596,0.26,0.241,-486.1,-66.3,-32.6,-22.9,-9,19.6,0.806848354,-0.0143131809,-0.590533158,0.00466933195
519,1301946,499450,0.6,0.283,0.272,-449.7,-68.9,-32.3,-22.9,-9,19.6,0.805780206,-0.0217902158,-0.591753899,-0.00164799951
520,1304273,499450,0.6,0.283,0.272,-449.7,-68.9,-32.3,-22.9,-9,19.6,0.805780206,-0.0217902158,-0.591753899,-0.00164799951
521,1306548,499450,0.592,0.348,0.347,-364.1,-54.7,-53.5,-22.9,-10,22.2,0.803765984,-0.0341502121,-0.593798639,-0.0131839961
522,1308456,499450,0.556,0.36,0.379,-325.9,-40.1,-69,-22.9,-10,22.2,0.802941984,-0.0389721366,-0.594439528,-0.0185552538
523,1311867,499460,0.525,0.349,0.392,-297,-23.9,-84.6,-22.9,-10,22.2,0.802331614,-0.0430921354,-0.59480575,-0.0238959929
524,1314026,499460,0.494,0.321,0.392,-280.1,-9.2,-99.3,-22.8,-11.2,21.4,0.801873836,-0.046723838,-0.594897305,-0.0292672506
525,1316393,499460,0.494,0.321,0.392,-280.1,-9.2,-99.3,-22.8,-11.2,21.4,0.801873836,-0.046723838,-0.594897305,-0.0292672506
526,1318391,499460,0.522,0.162,0.288,-282.9,4.3,-130,-22.8,-11.2,21.4,0.801141392,-0.0533158361,-0.594653157,-0.0408032472
527,1321491,499470,0.542,0.103,0.236,-297.9,1.4,-148,-22.8,-11.2,21.4,0.800683615,-0.0565813166,-0.594500565,-0.0472426527
528,1323625,499470,0.569,-0.001,0.187,-317,-5.9,-167.9,-22.6,-13.4,21.1,0.800012207,-0.0599688711,-0.594470046,-0.0542924284
529,1325820,499470,0.683,-0.088,0.156,-336.3,-15.6,-188.4,-22.6,-13.4,21.1,0.799096652,-0.0633869442,-0.59459212,-0.0619220557
530,1328913,499470,0.718,-0.116,0.163,-353.7,-25.6,-207.7,-22.6,-13.4,21.1,0.797967467,-0.0668965728,-0.59480575,-0.0701010163
531,1331037,499480,0.773,-0.187,0.142,-368,-36.1,-223.4,-22.6,-13.4,21.1,0.796594134,-0.0704672384,-0.595171972,-0.0787072359
532,1333400,499480,0.855,-0.286,0.124,-380.1,-47.8,-233.2,-22.2,-15.7,20.7,0.794946135,-0.0741294595,-0.595690786,-0.0876186407
533,1337185,499480,0.898,-0.33,0.111,-391,-61.9,-235.7,-22.2,-15.7,20.7,0.793023469,-0.0779442732,-0.596362194,-0.096682638
534,1338528,499480,0.937,-0.397,0.101,-401.7,-78.8,-231,-22.2,-15.7,20.7,0.790765099,-0.082064272,-0.59724723,-0.105777154
535,1341701,499490,0.996,-0.472,0.076,-412.3,-98.1,-220.1,-22.2,-15.7,20.7,0.788201544,-0.0865199744,-0.598345897,-0.114749596
536,1343106,499490,1.18,-0.591,-0.002,-422.3,-118.4,-205,-21.5,-18.7,17.7,0.785302286,-0.0914029359,-0.599688711,-0.123569445
537,1346313,499490,1.266,-0.666,-0.028,-430.5,-138.3,-188,-21.5,-18.7,17.7,0.782097842,-0.096682638,-0.601245155,-0.132145146
538,1348139,499490,1.344,-0.702,-0.042,-435.2,-155.5,-170.9,-21.5,-18.7,17.7,0.778588214,-0.102328562,-0.602954192,-0.140415662
539,1351203,499500,1.344,-0.702,-0.042,-435.2,-155.5,-170.9,-21.5,-18.7,17.7,0.778588214,-0.102328562,-0.602954192,-0.140415662
540,1354505,499500,1.517,-0.813,-0.093,-434.4,-167.8,-154.7,-21.5,-18.7,17.7,0.774895474,-0.108157598,-0.604785302,-0.148380993
541,1356434,499500,1.587,-0.864,-0.134,-426.8,-173.9,-140.3,-20.6,-19.9,19,0.77108066,-0.114078188,-0.606646931,-0.155980102
542,1359425,499500,1.716,-0.917,-0.125,-387.1,-166.9,-116.9,-20.6,-19.9,19,0.763603626,-0.125431074,-0.61015656,-0.169774468
543,1360811,499510,1.747,-0.938,-0.083,-353.2,-155.3,-106.6,-20.6,-19.9,19,0.760155034,-0.130466628,-0.611682485,-0.175817133
544,1363738,499510,1.735,-0.93,-0.067,-310.8,-139.2,-96.3,-20.3,-21.8,18.5,0.757011628,-0.134861293,-0.613055818,-0.181188391
545,1366860,499510,1.735,-0.93,-0.067,-310.8,-139.2,-96.3,-20.3,-21.8,18.5,0.757011628,-0.134861293,-0.613055818,-0.181188391
546,1368237,499510,1.195,-0.643,0.082,-212.9,-95.7,-75.4,-20.3,-21.8,18.5,0.752067629,-0.141392254,-0.615161596,-0.189550462
547,1371446,499520,1.133,-0.579,0.076,-166,-74.7,-64.3,-20.3,-21.8,18.5,0.750267037,-0.143559069,-0.61589404,-0.192602313
548,1374468,499520,1.074,-0.551,0.077,-127.7,-61.7,-51.4,-19.8,-22,18.7,0.748832667,-0.145237587,-0.616534928,-0.194982757
549,1375934,499520,1.004,-0.515,0.071,-100.3,-59.9,-35.9,-19.8,-22,18.7,0.74755089,-0.146641438,-0.617206336,-0.196722312
550,1378463,499520,0.887,-0.467,0.082,-81.5,-68.2,-18.1,-19.8,-22,18.7,0.746269112,-0.148014771,-0.617999817,-0.197912534
551,1380754,499530,0.852,-0.407,0.071,-66.1,-81.8,0.2,-19.8,-22,18.7,0.744956816,-0.149449141,-0.619067965,-0.198522904
552,1384597,499530,0.809,-0.348,0.065,-49.6,-95.9,16.9,-19.8,-22.6,18.8,0.743583483,-0.150883511,-0.620349742,-0.19861446
553,1386625,499530,0.715,-0.221,0.041,-30.3,-107,30.7,-19.8,-22.6,18.8,0.742149113,-0.152256844,-0.621845149,-0.198156682
554,1388716,499530,0.684,-0.161,0.03,-9.3,-113.3,41.6,-19.8,-22.6,18.8,0.740775781,-0.153477584,-0.623493149,-0.197241127
555,1391174,499540,0.676,-0.102,0.016,10.8,-114.8,49.8,-19.8,-22.6,18.8,0.739463485,-0.154484695,-0.625232704,-0.195898312
556,1393248,499540,0.66,-0.055,0.005,28.2,-112.4,55.1,-19.2,-22.3,17.2,0.738242744,-0.155247658,-0.626972259,-0.194250313
557,1396658,499540,0.66,0.031,-0.005,42.3,-106.8,57.3,-19.2,-22.3,17.2,0.737174596,-0.155796991,-0.628681295,-0.192388684
558,1398753,499540,0.66,0.051,-0.009,53.5,-98.5,56.9,-19.2,-22.3,17.2,0.736228523,-0.156132694,-0.630298776,-0.190374462
559,1400969,499550,0.668,0.078,-0.009,63.5,-87.6,54.2,-19.2,-22.3,17.2,0.73546556,-0.15622425,-0.631794183,-0.18836024
560,1404760,499550,0.668,0.078,-0.009,63.5,-87.6,54.2,-19.2,-22.3,17.2,0.73546556,-0.15622425,-0.631794183,-0.18836024
561,1406689,499550,0.683,0.167,0.054,84.6,-60.2,43.6,-19.6,-21.8,19.7,0.734519486,-0.155491806,-0.634266182,-0.184209723
562,1409534,499550,0.679,0.19,0.078,96.7,-45.8,36.2,-19.6,-21.8,19.7,0.734366894,-0.154667806,-0.635273293,-0.182134465
563,1411823,499560,0.687,0.233,0.098,108.8,-32.2,27.9,-19.6,-21.8,19.7,0.734397412,-0.153447066,-0.636127812,-0.180059206
564,1414114,499560,0.694,0.261,0.102,119.3,-19.9,19.1,-19.7,-21.5,20,0.734580523,-0.151860103,-0.636829737,-0.178044984
565,1416419,499560,0.694,0.261,0.102,119.3,-19.9,19.1,-19.7,-21.5,20,0.734580523,-0.151860103,-0.636829737,-0.178044984
566,1418469,499560,0.706,0.296,0.11,131.4,-1.1,0.3,-19.7,-21.5,20,0.735343486,-0.147892697,-0.637958922,-0.174230171
567,1420788,499570,0.733,0.358,0.11,134.2,4.6,-9.6,-19.7,-21.5,20,0.735801263,-0.145603809,-0.638447218,-0.172551653
568,1423233,499570,0.757,0.389,0.118,136.5,8,-20.6,-19.8,-21.2,20.4,0.736259041,-0.143101291,-0.638874477,-0.170995209
569,1427081,499570,0.784,0.424,0.126,138.5,8.9,-31.5,-19.8,-21.2,20.4,0.7366863,-0.140385144,-0.639362774,-0.169591357
570,1429594,499570,0.815,0.443,0.125,139.9,7.3,-41.5,-19.8,-21.2,20.4,0.737052522,-0.137516404,-0.639881588,-0.168340098
571,1431601,499580,0.858,0.509,0.145,140,3.2,-49.7,-19.8,-21.2,20.4,0.737327189,-0.134586627,-0.640491958,-0.167180395
572,1433150,499580,0.889,0.556,0.145,138.8,-3.3,-56.3,-19.4,-20.6,20.7,0.737479781,-0.131565294,-0.641193884,-0.166142766
573,1435697,499580,0.92,0.598,0.161,135.6,-12,-61.4,-19.4,-20.6,20.7,0.737479781,-0.12857448,-0.642048402,-0.165196692
574,1439303,499580,0.967,0.645,0.18,129.6,-22.5,-65,-19.4,-20.6,20.7,0.73729667,-0.125644704,-0.643055513,-0.164372692
575,1441760,499590,0.998,0.679,0.188,119.9,-34.2,-67.1,-19.4,-20.6,20.7,0.73689993,-0.122898038,-0.644245735,-0.163670766
576,1443906,499590,1.029,0.726,0.207,106,-46.7,-67.6,-18.6,-20.4,19.2,0.73628956,-0.12039552,-0.645496994,-0.163121433
577,1445961,499590,1.068,0.776,0.211,88.4,-59.3,-67.1,-18.6,-20.4,19.2,0.735435041,-0.118259224,-0.646992401,-0.162816248
578,1448273,499590,1.135,0.838,0.214,67.7,-71.1,-65.4,-18.6,-20.4,19.2,0.734366894,-0.116489151,-0.648518326,-0.162724693
579,1450679,499600,1.15,0.819,0.19,43.4,-81,-62.1,-18.6,-20.4,19.2,0.733115635,-0.115207373,-0.650135807,-0.162907804
580,1455159,499600,1.15,0.819,0.19,43.4,-81,-62.1,-18.6,-20.4,19.2,0.733115635,-0.115207373,-0.650135807,-0.162907804
581,1456816,499600,1.143,0.69,0.13,-16.4,-93.5,-50.1,-18.3,-20.7,21.7,0.730124821,-0.114352855,-0.653309732,-0.164159062
582,1459423,499600,1.19,0.584,0.101,-48.5,-95.2,-44,-18.3,-20.7,21.7,0.72850734,-0.114841151,-0.654774621,-0.165318766
583,1461485,499610,1.19,0.584,0.101,-48.5,-95.2,-44,-18.3,-20.7,21.7,0.72850734,-0.114841151,-0.654774621,-0.165318766
584,1463525,499610,1.261,0.501,0.071,-99.2,-90.5,-42.1,-17.7,-21.3,21.4,0.725119785,-0.117130039,-0.657216102,-0.16870632
585,1465727,499610,1.261,0.501,0.071,-99.2,-90.5,-42.1,-17.7,-21.3,21.4,0.725119785,-0.117130039,-0.657216102,-0.16870632
586,1468896,499610,1.327,0.352,0.033,-123.3,-77.6,-49.9,-17.7,-21.3,21.4,0.721793268,-0.120090335,-0.659199805,-0.173192541
587,1471294,499620,1.327,0.352,0.033,-123.3,-77.6,-49.9,-17.7,-21.3,21.4,0.721793268,-0.120090335,-0.659199805,-0.173192541
588,1473334,499620,1.359,0.301,0.028,-131.6,-60.8,-53.3,-17.8,-22,21.2,0.718832972,-0.123142186,-0.660512101,-0.178258614
589,1475683,499620,1.359,0.301,0.028,-131.6,-60.8,-53.3,-17.8,-22,21.2,0.718832972,-0.123142186,-0.660512101,-0.178258614
590,1478155,499620,1.324,0.246,0.04,-134.1,-44.9,-49.2,-17.8,-22,21.2,0.716299936,-0.126285592,-0.661275063,-0.18344676
591,1482032,499630,1.324,0.246,0.04,-134.1,-44.9,-49.2,-17.8,-22,21.2,0.716299936,-0.126285592,-0.661275063,-0.18344676
592,1484027,499630,1.324,0.246,0.04,-134.1,-44.9,-49.2,-17.8,-22,21.2,0.716299936,-0.126285592,-0.661275063,-0.18344676
593,1487174,499630,1.308,0.191,0.039,-140,-35.7,-37.3,-17.2,-22.8,20.6,0.713034455,-0.131382183,-0.661671804,-0.191045869
594,1489334,499630,1.3,0.183,0.039,-142.1,-36.4,-33.6,-17.2,-22.8,20.6,0.711905271,-0.133243812,-0.661732841,-0.193517869
595,1491592,499640,1.292,0.191,0.051,-143.4,-38,-30.3,-17.2,-22.8,20.6,0.710837123,-0.135196997,-0.661793878,-0.195928831
596,1494049,499640,1.242,0.184,0.064,-143.7,-39.6,-27.5,-16.9,-23.3,18.8,0.709738456,-0.137211219,-0.661885434,-0.198309275
597,1495840,499640,1.242,0.184,0.064,-143.7,-39.6,-27.5,-16.9,-23.3,18.8,0.709738456,-0.137211219,-0.661885434,-0.198309275
598,1499334,499640,1.175,0.204,0.093,-139.9,-41.4,-23.9,-16.9,-23.3,18.8,0.707449568,-0.141209143,-0.662068545,-0.20291757
599,1500752,499650,1.116,0.243,0.118,-135.6,-40.5,-23.8,-16.9,-23.3,18.8,0.706350902,-0.143162328,-0.6621601,-0.205114902
600,1504727,499650,1.116,0.243,0.118,-135.6,-40.5,-23.8,-16.9,-23.3,18.8,0.706350902,-0.143162328,-0.6621601,-0.205114902
601,1506034,499650,1.058,0.275,0.127,-123.8,-36,-27.6,-16.6,-24,19.9,0.704214606,-0.146641438,-0.662343211,-0.209356975
602,1509219,499650,1.015,0.288,0.124,-117.4,-33.5,-31.4,-16.6,-24,19.9,0.703207495,-0.148136845,-0.662404248,-0.211432234
603,1511063,499660,0.96,0.316,0.129,-111.3,-31.2,-36.4,-16.6,-24,19.9,0.702230903,-0.149449141,-0.662495804,-0.213507492
604,1513177,499660,0.933,0.328,0.126,-106,-29.6,-42.9,-16.3,-23.8,19.8,0.701254311,-0.150608844,-0.662587359,-0.215582751
605,1517205,499660,0.933,0.328,0.126,-106,-29.6,-42.9,-16.3,-23.8,19.8,0.701254311,-0.150608844,-0.662587359,-0.215582751
606,1519922,499660,0.96,0.371,0.079,-99.2,-29.1,-60.2,-16.3,-23.8,19.8,0.699240089,-0.152348399,-0.662892544,-0.220007935
607,1521861,499670,0.968,0.371,0.067,-98.8,-29.9,-70.4,-16.3,-23.8,19.8,0.698141423,-0.152989288,-0.663106174,-0.222418897
608,1524109,499670,0.991,0.371,0.07,-100.6,-30.8,-80.6,-16.4,-25.1,19.3,0.696951201,-0.153477584,-0.663350322,-0.224982452
609,1525831,499670,1.015,0.367,0.058,-104.1,-31.5,-89.7,-16.4,-25.1,19.3,0.695699942,-0.153935362,-0.66359447,-0.227759636
610,1528805,499670,1.046,0.359,0.05,-108.5,-32.1,-97.1,-16.4,-25.1,19.3,0.694387646,-0.154332102,-0.663869137,-0.230689413
611,1530671,499680,1.066,0.351,0.045,-113.2,-33.1,-102.2,-16.4,-25.1,19.3,0.693014313,-0.154728843,-0.664143803,-0.233771783
612,1534340,499680,1.085,0.335,0.033,-118.2,-34.8,-105,-15.5,-25.3,18.5,0.691549425,-0.155186621,-0.66441847,-0.236945708
613,1536410,499680,1.148,0.296,-0.007,-123.6,-37.5,-105.2,-15.5,-25.3,18.5,0.690054018,-0.155705435,-0.664693136,-0.240211188
614,1541223,499680,1.175,0.272,-0.019,-129.2,-41.1,-103,-15.5,-25.3,18.5,0.688467055,-0.156376843,-0.664998321,-0.243476669
615,1541223,499690,1.175,0.272,-0.019,-129.2,-41.1,-103,-15.5,-25.3,18.5,0.688467055,-0.156376843,-0.664998321,-0.243476669
616,1545049,499690,1.211,0.209,-0.044,-139.9,-46.6,-93.4,-15.2,-26.5,17.9,0.685171056,-0.158177435,-0.665547655,-0.250038148
617,1547206,499690,1.238,0.178,-0.061,-143.8,-46.7,-87.6,-15.2,-26.5,17.9,0.683523057,-0.159306619,-0.665761284,-0.25327311
618,1548915,499690,1.254,0.146,-0.057,-146.1,-44.8,-81.9,-15.2,-26.5,17.9,0.681905576,-0.160557878,-0.665883358,-0.256477554
619,1550679,499700,1.254,0.115,-0.065,-146.4,-41.1,-76.7,-15.2,-26.5,17.9,0.680349132,-0.161839656,-0.665944395,-0.259590442
620,1554552,499700,1.254,0.115,-0.065,-146.4,-41.1,-76.7,-15.2,-26.5,17.9,0.680349132,-0.161839656,-0.665944395,-0.259590442
621,1555784,499700,1.27,0.079,-0.066,-142.7,-31.7,-66.9,-14.9,-26.3,18.1,0.679006317,-0.16318247,-0.66585284,-0.262550737
622,1558670,499700,1.254,0.052,-0.062,-138.8,-26.9,-62.2,-14.9,-26.3,18.1,0.676381726,-0.165807062,-0.665547655,-0.268318735
623,1561784,499710,1.25,0.036,-0.066,-133.4,-22.2,-57.7,-14.9,-26.3,18.1,0.675252541,-0.167058321,-0.665303507,-0.271034883
624,1563966,499710,1.199,0.06,-0.046,-126.4,-17.7,-53.3,-15,-27.4,16.8,0.674214911,-0.168248543,-0.664998321,-0.273598437
625,1566802,499710,1.199,0.06,-0.046,-126.4,-17.7,-53.3,-15,-27.4,16.8,0.674214911,-0.168248543,-0.664998321,-0.273598437
626,1568491,499710,1.129,0.124,-0.028,-109.1,-9.9,-45.1,-15,-27.4,16.8,0.672444838,-0.17035432,-0.664326914,-0.278176214
627,1570807,499720,1.121,0.143,-0.031,-101,-7.1,-41.1,-15,-27.4,16.8,0.671712394,-0.171300394,-0.663960692,-0.280220954
628,1574605,499720,1.101,0.167,-0.039,-95.3,-5.9,-37.1,-14.9,-28,16.7,0.671040986,-0.17218543,-0.663624989,-0.28214362
629,1576696,499720,1.101,0.167,-0.039,-95.3,-5.9,-37.1,-14.9,-28,16.7,0.671040986,-0.17218543,-0.663624989,-0.28214362
630,1579187,499720,1.086,0.203,-0.054,-90.9,-7.5,-30.4,-14.9,-28,16.7,0.669759209,-0.17404706,-0.662923063,-0.28562273
631,1580814,499730,1.086,0.203,-0.054,-90.9,-7.5,-30.4,-14.9,-28,16.7,0.669759209,-0.17404706,-0.662923063,-0.28562273
632,1583172,499730,1.078,0.227,-0.057,-88.6,-9.2,-28.2,-14.6,-28.2,16.3,0.668477432,-0.175939207,-0.662282174,-0.289010285
633,1585896,499730,1.078,0.227,-0.057,-88.6,-9.2,-28.2,-14.6,-28.2,16.3,0.668477432,-0.175939207,-0.662282174,-0.289010285
634,1589855,499730,1.066,0.243,-0.053,-84,-8.1,-29.8,-14.6,-28.2,16.3,0.667195654,-0.177678762,-0.661671804,-0.292275765
635,1591349,499740,1.074,0.262,-0.053,-81.4,-6.6,-31.2,-14.6,-28.2,16.3,0.666585284,-0.178441725,-0.661366619,-0.293862728
636,1595230,499740,1.07,0.266,-0.053,-79.1,-5,-32.3,-14.1,-28.9,16,0.665974914,-0.179174169,-0.661061434,-0.29544969
637,1596724,499740,1.074,0.274,-0.049,-77.6,-3.4,-32.9,-14.1,-28.9,16,0.665425581,-0.179845576,-0.66072573,-0.297036653
638,1598282,499740,1.09,0.285,-0.045,-76.8,-1.7,-33.2,-14.1,-28.9,16,0.664876247,-0.180486465,-0.660390027,-0.298623615
639,1601157,499750,1.086,0.285,-0.049,-76.7,-0.1,-33.3,-14.1,-28.9,16,0.664357433,-0.181127354,-0.660023804,-0.300210578
640,1603350,499750,1.086,0.285,-0.049,-76.7,-0.1,-33.3,-14.1,-28.9,16,0.664357433,-0.181127354,-0.660023804,-0.300210578
641,1605757,499750,1.082,0.278,-0.049,-78.5,2.6,-33.9,-14.3,-29.3,15.7,0.663350322,-0.182378613,-0.659199805,-0.303476058
642,1609305,499750,1.074,0.274,-0.045,-80.1,3.8,-34.7,-14.3,-29.3,15.7,0.662862026,-0.183019501,-0.658742027,-0.305154576
643,1610960,499760,1.07,0.254,-0.049,-81.8,5.1,-35.7,-14.3,-29.3,15.7,0.66237373,-0.18366039,-0.658253731,-0.306863613
644,1614223,499760,1.066,0.239,-0.049,-83.7,6.1,-36.6,-14,-29.6,15.2,0.661885434,-0.184301279,-0.657765435,-0.308633686
645,1616619,499760,1.066,0.239,-0.049,-83.7,6.1,-36.6,-14,-29.6,15.2,0.661885434,-0.184301279,-0.657765435,-0.308633686
646,1618666,499760,1.062,0.203,-0.034,-87.3,6.9,-37.5,-14,-29.6,15.2,0.660878323,-0.185644093,-0.656697287,-0.31223487
647,1620919,499770,1.062,0.203,-0.034,-87.3,6.9,-37.5,-14,-29.6,15.2,0.660878323,-0.185644093,-0.656697287,-0.31223487
648,1624507,499770,1.047,0.183,-0.022,-88.9,6.6,-36.8,-13.9,-29.8,14.8,0.659840693,-0.187017426,-0.655568102,-0.315897092
649,1626898,499770,1.047,0.183,-0.022,-88.9,6.6,-36.8,-13.9,-29.8,14.8,0.659840693,-0.187017426,-0.655568102,-0.315897092
650,1629722,499770,1.027,0.156,-0.006,-88.6,6.6,-35,-13.9,-29.8,14.8,0.658803064,-0.188482315,-0.654438917,-0.319528794
651,1632307,499780,1.027,0.156,-0.006,-88.6,6.6,-35,-13.9,-29.8,14.8,0.658803064,-0.188482315,-0.654438917,-0.319528794
652,1634781,499780,1.011,0.152,0.009,-87.9,6.1,-33.8,-13.5,-30.3,14.9,0.657765435,-0.189947203,-0.653309732,-0.323068941
653,1636811,499780,1.011,0.152,0.009,-87.9,6.1,-33.8,-13.5,-30.3,14.9,0.657765435,-0.189947203,-0.653309732,-0.323068941
654,1638902,499780,0.996,0.148,0.013,-87.2,5,-33.5,-13.5,-30.3,14.9,0.656727805,-0.19144261,-0.652211066,-0.326548051
655,1641278,499790,0.996,0.148,0.013,-87.2,5,-33.5,-13.5,-30.3,14.9,0.656727805,-0.19144261,-0.652211066,-0.326548051
656,1643472,499790,0.968,0.16,0.017,-85.8,3.5,-33.4,-13.8,-30.6,14.1,0.655629139,-0.192907498,-0.651142918,-0.329996643
657,1645676,499790,0.968,0.16,0.017,-85.8,3.5,-33.4,-13.8,-30.6,14.1,0.655629139,-0.192907498,-0.651142918,-0.329996643
658,1649814,499790,0.961,0.164,0.01,-83.1,2.8,-32.7,-13.8,-30.6,14.1,0.654530473,-0.19431135,-0.650105289,-0.333353679
659,1651720,499800,0.961,0.164,0.01,-83.1,2.8,-32.7,-13.8,-30.6,14.1,0.654530473,-0.19431135,-0.650105289,-0.333353679
660,1654119,499800,0.957,0.18,0.006,-81.3,2.5,-32.1,-13.8,-30.6,14.1,0.65398114,-0.195013276,-0.649616993,-0.33497116
661,1655638,499800,0.957,0.188,-0.001,-77.3,2.1,-30.9,-14,-30.6,14,0.652974029,-0.196630757,-0.648731956,-0.337748344
662,1659341,499800,0.957,0.192,-0.001,-75,2.2,-30.6,-14,-30.6,14,0.652455214,-0.197271645,-0.648274178,-0.339243751
663,1660973,499810,0.957,0.192,-0.001,-75,2.2,-30.6,-14,-30.6,14,0.652455214,-0.197271645,-0.648274178,-0.339243751
664,1663093,499810,0.957,0.204,-0.008,-70.8,3.7,-30.5,-13.7,-31.2,13.3,0.651478622,-0.19840083,-0.647358623,-0.342173528
665,1667097,499810,0.957,0.204,-0.008,-70.8,3.7,-30.5,-13.7,-31.2,13.3,0.651478622,-0.19840083,-0.647358623,-0.342173528
666,1669865,499810,0.937,0.212,-0.016,-67.8,6.2,-30.6,-13.7,-31.2,13.3,0.650563066,-0.199407941,-0.646443068,-0.345042268
667,1672124,499820,0.937,0.212,-0.016,-67.8,6.2,-30.6,-13.7,-31.2,13.3,0.650563066,-0.199407941,-0.646443068,-0.345042268
668,1674110,499820,0.933,0.205,-0.023,-66.4,8.2,-30.2,-13.7,-31.6,13.3,0.649739067,-0.200323496,-0.645496994,-0.347849971
669,1675878,499820,0.933,0.205,-0.023,-66.4,8.2,-30.2,-13.7,-31.6,13.3,0.649739067,-0.200323496,-0.645496994,-0.347849971
670,1679834,499820,0.945,0.208,-0.024,-65.8,8.5,-28.4,-13.7,-31.6,13.3,0.648976104,-0.201239051,-0.644489883,-0.350596637
671,1681690,499830,0.945,0.208,-0.024,-65.8,8.5,-28.4,-13.7,-31.6,13.3,0.648976104,-0.201239051,-0.644489883,-0.350596637
672,1683515,499830,0.941,0.201,-0.028,-65.2,6.7,-26.6,-13.6,-31.2,13.1,0.648182623,-0.202215644,-0.643513291,-0.353282266
673,1685813,499830,0.941,0.201,-0.028,-65.2,6.7,-26.6,-13.6,-31.2,13.1,0.648182623,-0.202215644,-0.643513291,-0.353282266
674,1688642,499830,0.945,0.204,-0.02,-65.4,3.4,-24.5,-13.6,-31.2,13.1,0.647328104,-0.203283792,-0.642597736,-0.35584582
675,1692041,499840,0.945,0.204,-0.02,-65.4,3.4,-24.5,-13.6,-31.2,13.1,0.647328104,-0.203283792,-0.642597736,-0.35584582
676,1694436,499840,0.945,0.208,-0.028,-65.8,0,-22.1,-13.4,-31.9,12.8,0.646412549,-0.204504532,-0.641743217,-0.358348338
677,1695951,499840,0.945,0.208,-0.028,-65.8,0,-22.1,-13.4,-31.9,12.8,0.646412549,-0.204504532,-0.641743217,-0.358348338
678,1700037,499840,0.945,0.216,-0.027,-66,-3.4,-19.3,-13.4,-31.9,12.8,0.645435957,-0.205847346,-0.640980255,-0.360728782
679,1700688,499850,0.945,0.216,-0.027,-66,-3.4,-19.3,-13.4,-31.9,12.8,0.645435957,-0.205847346,-0.640980255,-0.360728782
680,1704040,499850,0.949,0.22,-0.02,-66,-5.1,-18,-13.4,-31.9,12.8,0.644917142,-0.206549272,-0.640614032,-0.361888485
681,1706023,499850,0.949,0.228,-0.012,-66.1,-8.5,-16.4,-12.8,-31.9,12.3,0.643238624,-0.207495346,-0.641590625,-0.36262093
682,1708236,499850,0.941,0.236,-0.004,-66.4,-10.4,-16.3,-12.8,-31.9,12.3,0.642109439,-0.20905179,-0.640949736,-0.364848781
683,1711829,499860,0.941,0.236,-0.004,-66.4,-10.4,-16.3,-12.8,-31.9,12.3,0.642109439,-0.20905179,-0.640949736,-0.364848781
684,1714183,499860,0.953,0.251,-0.008,-68.9,-14.6,-16.1,-12.8,-31.8,12.2,0.64085818,-0.210699789,-0.640369884,-0.367076632
685,1716487,499860,0.953,0.251,-0.008,-68.9,-14.6,-16.1,-12.8,-31.8,12.2,0.64085818,-0.210699789,-0.640369884,-0.367076632
686,1719903,499860,0.949,0.243,-0.015,-75,-20,-15.2,-12.8,-31.8,12.2,0.639423811,-0.212622456,-0.639881588,-0.369396039
687,1721987,499870,0.949,0.243,-0.015,-75,-20,-15.2,-12.8,-31.8,12.2,0.639423811,-0.212622456,-0.639881588,-0.369396039
688,1723325,499870,0.953,0.244,-0.023,-83.1,-25.2,-14.6,-12.7,-32.1,11.8,0.637745293,-0.214850307,-0.639362774,-0.371837519
689,1725973,499870,0.953,0.244,-0.023,-83.1,-25.2,-14.6,-12.7,-32.1,11.8,0.637745293,-0.214850307,-0.639362774,-0.371837519
690,1729524,499870,0.976,0.247,-0.032,-90,-29.9,-15.2,-12.7,-32.1,11.8,0.635853145,-0.217352824,-0.638874477,-0.374462111
691,1731841,499880,0.976,0.247,-0.032,-90,-29.9,-15.2,-12.7,-32.1,11.8,0.635853145,-0.217352824,-0.638874477,-0.374462111
692,1734216,499880,0.988,0.232,-0.048,-95.4,-34.9,-15.8,-12.5,-32.8,11.3,0.633777886,-0.22009949,-0.6384167,-0.377208777
693,1736523,499880,0.988,0.232,-0.048,-95.4,-34.9,-15.8,-12.5,-32.8,11.3,0.633777886,-0.22009949,-0.6384167,-0.377208777
694,1738367,499880,1.004,0.228,-0.056,-98.7,-37.8,-15.2,-12.5,-32.8,11.3,0.631519517,-0.22296823,-0.637958922,-0.38001648
695,1740633,499890,1.004,0.228,-0.056,-98.7,-37.8,-15.2,-12.5,-32.8,11.3,0.631519517,-0.22296823,-0.637958922,-0.38001648
696,1744823,499890,1.008,0.212,-0.068,-100,-37.8,-14.1,-12.6,-33,10.9,0.629261147,-0.225959044,-0.637501144,-0.382793664
697,1746505,499890,1.008,0.212,-0.068,-100,-37.8,-14.1,-12.6,-33,10.9,0.629261147,-0.225959044,-0.637501144,-0.382793664
698,1748229,499890,1.019,0.2,-0.076,-100.2,-36.9,-13.1,-12.6,-33,10.9,0.627002777,-0.228949858,-0.636951811,-0.385601367
699,1752033,499900,1.019,0.2,-0.076,-100.2,-36.9,-13.1,-12.6,-33,10.9,0.627002777,-0.228949858,-0.636951811,-0.385601367
700,1753550,499900,1.023,0.185,-0.076,-99.8,-36.4,-13.1,-12.6,-33,10.9,0.625873592,-0.230445265,-0.636677145,-0.3869747
701,1755987,499900,1.027,0.173,-0.076,-97.8,-34.4,-13.3,-12.2,-32.9,10.6,0.623310038,-0.233558153,-0.636585589,-0.389385662
702,1758137,499900,1.035,0.161,-0.069,-96.3,-33.1,-13.3,-12.2,-32.9,10.6,0.62224189,-0.234962004,-0.636310923,-0.390728477
703,1762121,499910,1.035,0.161,-0.069,-96.3,-33.1,-13.3,-12.2,-32.9,10.6,0.62224189,-0.234962004,-0.636310923,-0.390728477
704,1764498,499910,1.039,0.153,-0.077,-92.9,-31.2,-13.1,-11.9,-33.8,9.8,0.620166631,-0.237678152,-0.635700552,-0.393383587
705,1766596,499910,1.039,0.153,-0.077,-92.9,-31.2,-13.1,-11.9,-33.8,9.8,0.620166631,-0.237678152,-0.635700552,-0.393383587
706,1768539,499910,1.043,0.133,-0.085,-89.1,-29.6,-12,-11.9,-33.8,9.8,0.618152409,-0.240302744,-0.635090182,-0.395886105
707,1771027,499920,1.043,0.133,-0.085,-89.1,-29.6,-12,-11.9,-33.8,9.8,0.618152409,-0.240302744,-0.635090182,-0.395886105
708,1773147,499920,1.043,0.122,-0.077,-83.9,-26.2,-10.4,-11.8,-33.6,9.6,0.616321299,-0.242774743,-0.634449293,-0.398266549
709,1776971,499920,1.043,0.122,-0.077,-83.9,-26.2,-10.4,-11.8,-33.6,9.6,0.616321299,-0.242774743,-0.634449293,-0.398266549
710,1779625,499920,1.039,0.125,-0.065,-76.6,-20,-9.3,-11.8,-33.6,9.6,0.614734336,-0.245002594,-0.633777886,-0.400463881
711,1781977,499930,1.039,0.125,-0.065,-76.6,-20,-9.3,-11.8,-33.6,9.6,0.614734336,-0.245002594,-0.633777886,-0.400463881
712,1783810,499930,0.98,0.141,-0.033,-67.7,-12.2,-8.3,-11.6,-33.8,9.6,0.61342204,-0.246894742,-0.633014924,-0.402478103
713,1786959,499930,0.98,0.141,-0.033,-67.7,-12.2,-8.3,-11.6,-33.8,9.6,0.61342204,-0.246894742,-0.633014924,-0.402478103
714,1789240,499930,0.957,0.145,-0.032,-59.8,-5.6,-7.3,-11.6,-33.8,9.6,0.61241493,-0.248451186,-0.632190924,-0.404309214
715,1790727,499940,0.957,0.145,-0.032,-59.8,-5.6,-7.3,-11.6,-33.8,9.6,0.61241493,-0.248451186,-0.632190924,-0.404309214
716,1793736,499940,0.949,0.15,-0.036,-52.6,-3.7,-6.1,-12,-34.1,9.3,0.611621448,-0.249794,-0.631427961,-0.405926695
717,1796888,499940,0.949,0.15,-0.036,-52.6,-3.7,-6.1,-12,-34.1,9.3,0.611621448,-0.249794,-0.631427961,-0.405926695
718,1798206,499940,0.941,0.157,-0.028,-46.6,-3.8,-6.4,-12,-34.1,9.3,0.610889004,-0.250953703,-0.630726035,-0.407391583
719,1801366,499950,0.941,0.157,-0.028,-46.6,-3.8,-6.4,-12,-34.1,9.3,0.610889004,-0.250953703,-0.630726035,-0.407391583
720,1803583,499950,0.933,0.165,-0.02,-42.9,-3.3,-6.7,-12,-34.1,9.3,0.610553301,-0.251472518,-0.63042085,-0.408032472
721,1806034,499950,0.933,0.177,-0.008,-34.7,-1.7,-7.2,-11.7,-34.2,9.3,0.609820856,-0.252540666,-0.630115665,-0.408978545
722,1809834,499950,0.937,0.185,-0.012,-31.1,-1.1,-7.4,-11.7,-34.2,9.3,0.60954619,-0.252845851,-0.629871517,-0.40949736
723,1812031,499960,0.937,0.185,-0.012,-31.1,-1.1,-7.4,-11.7,-34.2,9.3,0.60954619,-0.252845851,-0.629871517,-0.40949736
724,1814326,499960,0.949,0.2,0,-26.3,0,-7.6,-11.8,-34.5,9,0.609118931,-0.253364666,-0.629505295,-0.410443434
725,1816648,499960,0.949,0.2,0,-26.3,0,-7.6,-11.8,-34.5,9,0.609118931,-0.253364666,-0.629505295,-0.410443434
726,1818447,499960,0.953,0.216,0.003,-25.2,1.2,-8,-11.8,-34.5,9,0.60872219,-0.253822443,-0.629108554,-0.411358989
727,1820773,499970,0.953,0.216,0.003,-25.2,1.2,-8,-11.8,-34.5,9,0.60872219,-0.253822443,-0.629108554,-0.411358989
728,1824836,499970,0.961,0.216,0.003,-26.9,1.8,-8.2,-11.8,-34.2,9,0.608325449,-0.254249702,-0.628681295,-0.412305063
729,1826989,499970,0.961,0.216,0.003,-26.9,1.8,-8.2,-11.8,-34.2,9,0.608325449,-0.254249702,-0.628681295,-0.412305063
730,1829336,499970,0.984,0.208,-0.013,-29.5,1.9,-7.6,-11.8,-34.2,9,0.60789819,-0.254768517,-0.628192999,-0.413342692
731,1831519,499980,0.984,0.208,-0.013,-29.5,1.9,-7.6,-11.8,-34.2,9,0.60789819,-0.254768517,-0.628192999,-0.413342692
732,1833413,499980,0.996,0.204,-0.017,-31.3,2.3,-7.1,-11.4,-34.9,8.6,0.60750145,-0.255348369,-0.627643666,-0.41441084
733,1837366,499980,0.996,0.204,-0.017,-31.3,2.3,-7.1,-11.4,-34.9,8.6,0.60750145,-0.255348369,-0.627643666,-0.41441084
734,1839530,499980,1,0.204,-0.013,-32.7,4.6,-7.8,-11.4,-34.9,8.6,0.607104709,-0.25592822,-0.627063814,-0.415540025
735,1841900,499990,1,0.204,-0.013,-32.7,4.6,-7.8,-11.4,-34.9,8.6,0.607104709,-0.25592822,-0.627063814,-0.415540025
736,1844076,499990,1.008,0.196,-0.013,-35,8.6,-9.9,-12.1,-34.6,8.2,0.606769005,-0.256447035,-0.62633137,-0.416821802
737,1846445,499990,1.008,0.196,-0.013,-35,8.6,-9.9,-12.1,-34.6,8.2,0.606769005,-0.256447035,-0.62633137,-0.416821802
738,1848465,499990,1.008,0.172,-0.006,-38.7,10.6,-12,-12.1,-34.6,8.2,0.606402783,-0.25696585,-0.62550737,-0.418256172
739,1850780,500000,1.008,0.172,-0.006,-38.7,10.6,-12,-12.1,-34.6,8.2,0.606402783,-0.25696585,-0.62550737,-0.418256172
740,1854574,500000,1.011,0.156,-0.006,-40.3,10.3,-12.8,-12.1,-34.6,8.2,0.606219672,-0.257209998,-0.625049593,-0.419049654
741,1856825,500000,1.027,0.132,0,-41.3,9.2,-13.5,-11.4,-34.4,8.4,0.605822932,-0.257759331,-0.624866482,-0.41953795
742,1859084,500000,1.047,0.128,0.012,-40.3,6,-14.9,-11.4,-34.4,8.4,0.605273598,-0.258278146,-0.624103519,-0.421124912
743,1861433,500010,1.047,0.128,0.012,-40.3,6,-14.9,-11.4,-34.4,8.4,0.605273598,-0.258278146,-0.624103519,-0.421124912
744,1863494,500010,1.05,0.124,0.008,-35.9,2.4,-15.1,-11,-34.6,8.3,0.604663228,-0.258827479,-0.623493149,-0.422559282
745,1865688,500010,1.05,0.124,0.008,-35.9,2.4,-15.1,-11,-34.6,8.3,0.604663228,-0.258827479,-0.623493149,-0.422559282
746,1868829,500010,1.047,0.12,0.008,-31.1,0.3,-12.6,-11,-34.6,8.3,0.604083377,-0.259285257,-0.623035371,-0.423810541
747,1871048,500020,1.047,0.12,0.008,-31.1,0.3,-12.6,-11,-34.6,8.3,0.604083377,-0.259285257,-0.623035371,-0.423810541
748,1873251,500020,1.043,0.128,0.012,-27,0.5,-9.9,-11.5,-34.8,8.4,0.603564562,-0.259743034,-0.62263863,-0.42484817
749,1877278,500020,1.043,0.128,0.012,-27,0.5,-9.9,-11.5,-34.8,8.4,0.603564562,-0.259743034,-0.62263863,-0.42484817
750,1879556,500020,1.031,0.132,0.024,-23.4,1.4,-8.4,-11.5,-34.8,8.4,0.603167821,-0.260109256,-0.62224189,-0.425763726
751,1881686,500030,1.031,0.132,0.024,-23.4,1.4,-8.4,-11.5,-34.8,8.4,0.603167821,-0.260109256,-0.62224189,-0.425763726
752,1883897,500030,1.027,0.14,0.024,-21.2,1.9,-7.6,-11,-34.8,7.5,0.602832118,-0.26044496,-0.621875668,-0.426587725
753,1885930,500030,1.027,0.14,0.024,-21.2,1.9,-7.6,-11,-34.8,7.5,0.602832118,-0.26044496,-0.621875668,-0.426587725
754,1889118,500030,1.023,0.14,0.032,-19.2,1.9,-7.2,-11,-34.8,7.5,0.602526933,-0.260719626,-0.621539964,-0.42732017
755,1890919,500040,1.023,0.14,0.032,-19.2,1.9,-7.2,-11,-34.8,7.5,0.602526933,-0.260719626,-0.621539964,-0.42732017
756,1894368,500040,1.011,0.155,0.056,-15.6,1.4,-6.4,-12.3,-34.9,7.5,0.602252266,-0.260963775,-0.621265297,-0.427961058
757,1896310,500040,1.011,0.155,0.056,-15.6,1.4,-6.4,-12.3,-34.9,7.5,0.602252266,-0.260963775,-0.621265297,-0.427961058
758,1899297,500040,1.003,0.179,0.068,-11.1,0.3,-5.3,-12.3,-34.9,7.5,0.602038636,-0.261116367,-0.621082186,-0.428449355
759,1900750,500050,1.003,0.179,0.068,-11.1,0.3,-5.3,-12.3,-34.9,7.5,0.602038636,-0.261116367,-0.621082186,-0.428449355
760,1903820,500050,1.007,0.183,0.056,-8.8,-0.2,-4.7,-12.3,-34.9,7.5,0.601916562,-0.261177404,-0.621021149,-0.428632466
761,1906783,500050,0.999,0.202,0.064,-6.6,-0.6,-4.1,-10.6,-35.1,7.5,0.601855525,-0.261635182,-0.621082186,-0.428388318
762,1908387,500050,0.992,0.218,0.053,-2.7,0,-3.3,-10.6,-35.1,7.5,0.60176397,-0.261635182,-0.621051668,-0.428571429
763,1911976,500060,0.992,0.218,0.053,-2.7,0,-3.3,-10.6,-35.1,7.5,0.60176397,-0.261635182,-0.621051668,-0.428571429
764,1913976,500060,0.992,0.23,0.053,-0.6,2.5,-2.9,-11,-34.5,7,0.601733451,-0.261574145,-0.621021149,-0.428693503
765,1916007,500060,0.992,0.23,0.053,-0.6,2.5,-2.9,-11,-34.5,7,0.601733451,-0.261574145,-0.621021149,-0.428693503
766,1918386,500060,0.98,0.238,0.053,-0.5,5.5,-3.5,-11,-34.5,7,0.601794488,-0.261391034,-0.620929594,-0.428846095
767,1922131,500070,0.98,0.238,0.053,-0.5,5.5,-3.5,-11,-34.5,7,0.601794488,-0.261391034,-0.620929594,-0.428846095
768,1923802,500070,0.964,0.246,0.058,-0.7,8.3,-4.7,-10.9,-34.9,7.5,0.601916562,-0.261146886,-0.620746483,-0.429059725
769,1926816,500070,0.964,0.246,0.058,-0.7,8.3,-4.7,-10.9,-34.9,7.5,0.601916562,-0.261146886,-0.620746483,-0.429059725
770,1928252,500070,0.956,0.25,0.062,-0.8,9.5,-5.6,-10.9,-34.9,7.5,0.602069155,-0.2608417,-0.620563372,-0.429334391
771,1931392,500080,0.956,0.25,0.062,-0.8,9.5,-5.6,-10.9,-34.9,7.5,0.602069155,-0.2608417,-0.620563372,-0.429334391
772,1933544,500080,0.952,0.262,0.054,-1.2,9.2,-5.8,-10.8,-34.7,7.3,0.602191229,-0.260536515,-0.620349742,-0.429639576
773,1935886,500080,0.952,0.262,0.054,-1.2,9.2,-5.8,-10.8,-34.7,7.3,0.602191229,-0.260536515,-0.620349742,-0.429639576
774,1939728,500080,0.952,0.258,0.058,-2.4,9,-6.2,-10.8,-34.7,7.3,0.602282785,-0.26023133,-0.620136113,-0.429944761
775,1941977,500090,0.952,0.258,0.058,-2.4,9,-6.2,-10.8,-34.7,7.3,0.602282785,-0.26023133,-0.620136113,-0.429944761
776,1943399,500090,0.952,0.262,0.054,-4.1,9.5,-7.5,-12.1,-34.9,7.3,0.60237434,-0.259987182,-0.619922483,-0.430341502
777,1945893,500090,0.952,0.262,0.054,-4.1,9.5,-7.5,-12.1,-34.9,7.3,0.60237434,-0.259987182,-0.619922483,-0.430341502
778,1949398,500090,0.952,0.254,0.054,-5.7,10.4,-8.5,-12.1,-34.9,7.3,0.602435377,-0.259712516,-0.619647816,-0.430829798
779,1951292,500100,0.952,0.254,0.054,-5.7,10.4,-8.5,-12.1,-34.9,7.3,0.602435377,-0.259712516,-0.619647816,-0.430829798
780,1954628,500100,0.952,0.25,0.058,-6.6,10.9,-8.9,-12.1,-34.9,7.3,0.602465896,-0.259590442,-0.619495224,-0.431104465
781,1956387,500100,0.952,0.246,0.058,-7.5,11.4,-9,-10.3,-34.7,7.3,0.602191229,-0.259346294,-0.619617298,-0.43140965
782,1958242,500100,0.952,0.242,0.054,-8.9,12.6,-9.3,-10.3,-34.7,7.3,0.602252266,-0.259102145,-0.619220557,-0.43202002
783,1961365,500110,0.952,0.242,0.054,-8.9,12.6,-9.3,-10.3,-34.7,7.3,0.602252266,-0.259102145,-0.619220557,-0.43202002
784,1964644,500110,0.952,0.238,0.054,-10,13.5,-9.5,-10.5,-34.8,7.4,0.602343822,-0.258857997,-0.618793298,-0.432691427
785,1966316,500110,0.952,0.238,0.054,-10,13.5,-9.5,-10.5,-34.8,7.4,0.602343822,-0.258857997,-0.618793298,-0.432691427
786,1968456,500110,0.949,0.231,0.054,-11.1,14.4,-9.6,-10.5,-34.8,7.4,0.602404859,-0.258613849,-0.61833552,-0.433393353
787,1970737,500120,0.949,0.231,0.054,-11.1,14.4,-9.6,-10.5,-34.8,7.4,0.602404859,-0.258613849,-0.61833552,-0.433393353
788,1974742,500120,0.949,0.215,0.054,-11.6,14.9,-9.5,-9.9,-34.8,7.2,0.602496414,-0.258369701,-0.617816706,-0.434125797
789,1976958,500120,0.949,0.215,0.054,-11.6,14.9,-9.5,-9.9,-34.8,7.2,0.602496414,-0.258369701,-0.617816706,-0.434125797
790,1979206,500120,0.945,0.207,0.069,-11.4,15.5,-9.6,-9.9,-34.8,7.2,0.60258797,-0.258125553,-0.61732841,-0.434858242
791,1981159,500130,0.945,0.207,0.069,-11.4,15.5,-9.6,-9.9,-34.8,7.2,0.60258797,-0.258125553,-0.61732841,-0.434858242
792,1984711,500130,0.945,0.203,0.058,-10.3,15.6,-9.6,-10.3,-34.9,7.1,0.602710044,-0.257850887,-0.616809595,-0.435590686
793,1986683,500130,0.945,0.203,0.058,-10.3,15.6,-9.6,-10.3,-34.9,7.1,0.602710044,-0.257850887,-0.616809595,-0.435590686
794,1989550,500130,0.945,0.199,0.069,-8.9,15.4,-9.3,-10.3,-34.9,7.1,0.602862636,-0.257545701,-0.616321299,-0.436262093
795,1991801,500140,0.945,0.199,0.069,-8.9,15.4,-9.3,-10.3,-34.9,7.1,0.602862636,-0.257545701,-0.616321299,-0.436262093
796,1993983,500140,0.941,0.199,0.073,-7.2,15.3,-9.1,-12.5,-35.2,6.8,0.603015229,-0.257209998,-0.61589404,-0.436872463
797,1995764,500140,0.941,0.199,0.073,-7.2,15.3,-9.1,-12.5,-35.2,6.8,0.603015229,-0.257209998,-0.61589404,-0.436872463
798,1999648,500140,0.937,0.195,0.073,-4.9,15.5,-9.1,-12.5,-35.2,6.8,0.603167821,-0.256813257,-0.615466781,-0.437452315
799,2001778,500150,0.937,0.195,0.073,-4.9,15.5,-9.1,-12.5,-35.2,6.8,0.603167821,-0.256813257,-0.615466781,-0.437452315
800,2003828,500150,0.929,0.195,0.073,-3.5,15.5,-9.2,-12.5,-35.2,6.8,0.603289895,-0.256599628,-0.61528367,-0.437696463
801,2005726,500150,0.933,0.203,0.073,-2,15.5,-9.2,-10.6,-35.6,7.2,0.603289895,-0.256630146,-0.61528367,-0.437635426
802,2008335,500150,0.925,0.203,0.077,0.6,15,-9.1,-10.6,-35.6,7.2,0.603534043,-0.256111332,-0.614978484,-0.438062685
803,2011475,500160,0.925,0.203,0.077,0.6,15,-9.1,-10.6,-35.6,7.2,0.603534043,-0.256111332,-0.614978484,-0.438062685
804,2013423,500160,0.913,0.211,0.07,2.8,14.4,-8.9,-10.4,-34.9,6.9,0.603778191,-0.25553148,-0.614734336,-0.438398389
805,2017194,500160,0.913,0.211,0.07,2.8,14.4,-8.9,-10.4,-34.9,6.9,0.603778191,-0.25553148,-0.614734336,-0.438398389
806,2019174,500160,0.913,0.215,0.07,4.7,13.9,-8.9,-10.4,-34.9,6.9,0.604052858,-0.254890591,-0.614551225,-0.438673055
807,2022114,500170,0.913,0.215,0.07,4.7,13.9,-8.9,-10.4,-34.9,6.9,0.604052858,-0.254890591,-0.614551225,-0.438673055
808,2023516,500170,0.913,0.219,0.07,6.5,13.4,-9,-10.6,-35.1,6.7,0.604297006,-0.254249702,-0.614429151,-0.438886685
809,2027033,500170,0.913,0.219,0.07,6.5,13.4,-9,-10.6,-35.1,6.7,0.604297006,-0.254249702,-0.614429151,-0.438886685
810,2028976,500170,0.913,0.223,0.074,8.5,13.1,-9.2,-10.6,-35.1,6.7,0.604571673,-0.253517258,-0.614337596,-0.439069796
811,2030676,500180,0.913,0.223,0.074,8.5,13.1,-9.2,-10.6,-35.1,6.7,0.604571673,-0.253517258,-0.614337596,-0.439069796
812,2034068,500180,0.909,0.227,0.078,10.2,12.9,-9.1,-11,-35.3,7.1,0.604846339,-0.252784814,-0.61424604,-0.43919187
813,2035692,500180,0.909,0.227,0.078,10.2,12.9,-9.1,-11,-35.3,7.1,0.604846339,-0.252784814,-0.61424604,-0.43919187
814,2039498,500180,0.913,0.227,0.074,11.5,12.6,-9,-11,-35.3,7.1,0.605151524,-0.251991333,-0.61424604,-0.439252907
815,2041912,500190,0.913,0.227,0.074,11.5,12.6,-9,-11,-35.3,7.1,0.605151524,-0.251991333,-0.61424604,-0.439252907
816,2044008,500190,0.913,0.231,0.074,12.4,12,-8.5,-12.1,-35.4,7.1,0.605426191,-0.251197851,-0.61424604,-0.439283425
817,2046166,500190,0.913,0.231,0.074,12.4,12,-8.5,-12.1,-35.4,7.1,0.605426191,-0.251197851,-0.61424604,-0.439283425
818,2048303,500190,0.921,0.235,0.078,13.6,11.3,-7.8,-12.1,-35.4,7.1,0.605731376,-0.25040437,-0.614307077,-0.439283425
819,2050802,500200,0.921,0.235,0.078,13.6,11.3,-7.8,-12.1,-35.4,7.1,0.605731376,-0.25040437,-0.614307077,-0.439283425
820,2055365,500200,0.921,0.235,0.078,14.2,10.9,-7.4,-12.1,-35.4,7.1,0.605883969,-0.25000763,-0.614337596,-0.439252907
821,2057512,500200,0.925,0.242,0.09,14.8,10.6,-7,-10.3,-35.3,7,0.605700858,-0.249732963,-0.614764855,-0.439039277
822,2059896,500200,0.925,0.242,0.094,15.8,9.9,-5.6,-10.3,-35.3,7,0.606036561,-0.24897,-0.614886929,-0.438886685
823,2062073,500210,0.925,0.242,0.094,15.8,9.9,-5.6,-10.3,-35.3,7,0.606036561,-0.24897,-0.614886929,-0.438886685
824,2063596,500210,0.929,0.25,0.09,16.7,9.4,-4.4,-10.1,-35.2,7.2,0.606372265,-0.248207038,-0.614978484,-0.438673055
825,2067548,500210,0.929,0.25,0.09,16.7,9.4,-4.4,-10.1,-35.2,7.2,0.606372265,-0.248207038,-0.614978484,-0.438673055
826,2068085,500210,0.933,0.258,0.09,17.9,9.1,-3.5,-10.1,-35.2,7.2,0.606738487,-0.247474593,-0.615131077,-0.438398389
827,2071624,500220,0.933,0.258,0.09,17.9,9.1,-3.5,-10.1,-35.2,7.2,0.606738487,-0.247474593,-0.615131077,-0.438398389
828,2073198,500220,0.941,0.258,0.097,19.2,9,-3.2,-10.2,-35.5,6.9,0.607135228,-0.246711631,-0.61528367,-0.438062685
829,2077140,500220,0.941,0.258,0.097,19.2,9,-3.2,-10.2,-35.5,6.9,0.607135228,-0.246711631,-0.61528367,-0.438062685
830,2079484,500220,0.948,0.261,0.101,20.2,8.7,-3,-10.2,-35.5,6.9,0.607531968,-0.245918149,-0.615466781,-0.437696463
831,2081609,500230,0.948,0.261,0.101,20.2,8.7,-3,-10.2,-35.5,6.9,0.607531968,-0.245918149,-0.615466781,-0.437696463
832,2083848,500230,0.956,0.265,0.097,20.9,8.2,-2.6,-10.5,-34.9,7.3,0.607928709,-0.245124668,-0.61568041,-0.437299722
833,2085996,500230,0.956,0.265,0.097,20.9,8.2,-2.6,-10.5,-34.9,7.3,0.607928709,-0.245124668,-0.61568041,-0.437299722
834,2088427,500230,0.968,0.265,0.101,21.7,7.9,-2.5,-10.5,-34.9,7.3,0.608325449,-0.244331187,-0.61589404,-0.436872463
835,2090733,500240,0.968,0.265,0.101,21.7,7.9,-2.5,-10.5,-34.9,7.3,0.608325449,-0.244331187,-0.61589404,-0.436872463
836,2095527,500240,0.98,0.265,0.105,22.5,7.9,-2.7,-11.9,-35.1,7.3,0.60872219,-0.243507187,-0.616138188,-0.436445204
837,2095807,500240,0.98,0.265,0.105,22.5,7.9,-2.7,-11.9,-35.1,7.3,0.60872219,-0.243507187,-0.616138188,-0.436445204
838,2098330,500240,0.983,0.261,0.104,23.3,7.8,-2.7,-11.9,-35.1,7.3,0.609118931,-0.242683187,-0.616382336,-0.435956908
839,2100867,500250,0.983,0.261,0.104,23.3,7.8,-2.7,-11.9,-35.1,7.3,0.609118931,-0.242683187,-0.616382336,-0.435956908
840,2104403,500250,0.987,0.257,0.104,23.6,7.8,-3,-11.9,-35.1,7.3,0.60933256,-0.242255928,-0.616534928,-0.435743278
841,2106464,500250,1.007,0.257,0.104,24,7.6,-3.2,-10.8,-35.6,7.6,0.609454634,-0.241828669,-0.616748558,-0.435468612
842,2108728,500250,1.003,0.257,0.108,24.8,7,-3.6,-10.8,-35.6,7.6,0.609851375,-0.240913114,-0.617053743,-0.434980316
843,2112084,500260,1.003,0.257,0.108,24.8,7,-3.6,-10.8,-35.6,7.6,0.609851375,-0.240913114,-0.617053743,-0.434980316
844,2113607,500260,1.011,0.249,0.112,25.8,6.4,-3.9,-10.4,-35,7.2,0.610217597,-0.240028077,-0.617419965,-0.434461501
845,2116946,500260,1.011,0.249,0.112,25.8,6.4,-3.9,-10.4,-35,7.2,0.610217597,-0.240028077,-0.617419965,-0.434461501
846,2119124,500260,1.019,0.249,0.108,26.4,6.3,-4.2,-10.4,-35,7.2,0.610583819,-0.239082003,-0.617786187,-0.433942686
847,2120925,500270,1.019,0.249,0.108,26.4,6.3,-4.2,-10.4,-35,7.2,0.610583819,-0.239082003,-0.617786187,-0.433942686
848,2124353,500270,1.026,0.237,0.111,26.7,6.3,-4.4,-10.6,-35,7.8,0.610950041,-0.238135929,-0.618152409,-0.433393353
849,2127312,500270,1.026,0.237,0.111,26.7,6.3,-4.4,-10.6,-35,7.8,0.610950041,-0.238135929,-0.618152409,-0.433393353
850,2129529,500270,1.026,0.237,0.107,26.6,6.4,-4.8,-10.6,-35,7.8,0.611316263,-0.237159337,-0.61854915,-0.432874538
851,2132190,500280,1.026,0.237,0.107,26.6,6.4,-4.8,-10.6,-35,7.8,0.611316263,-0.237159337,-0.61854915,-0.432874538
852,2134518,500280,1.03,0.233,0.115,26.4,6.4,-4.5,-10.8,-34.7,7.9,0.611682485,-0.236213263,-0.618945891,-0.432355724
853,2137038,500280,1.03,0.233,0.115,26.4,6.4,-4.5,-10.8,-34.7,7.9,0.611682485,-0.236213263,-0.618945891,-0.432355724
854,2139324,500280,1.026,0.229,0.115,26.5,5.8,-3.9,-10.8,-34.7,7.9,0.612018189,-0.23526719,-0.619312113,-0.431806391
855,2141630,500290,1.026,0.229,0.115,26.5,5.8,-3.9,-10.8,-34.7,7.9,0.612018189,-0.23526719,-0.619312113,-0.431806391
856,2143502,500290,1.015,0.229,0.111,26.6,5.1,-2.9,-11.7,-34.7,8.1,0.612384411,-0.234382153,-0.619708853,-0.431226539
857,2145885,500290,1.015,0.229,0.111,26.6,5.1,-2.9,-11.7,-34.7,8.1,0.612384411,-0.234382153,-0.619708853,-0.431226539
858,2149623,500290,1.011,0.233,0.119,27,4.5,-1.8,-11.7,-34.7,8.1,0.612750633,-0.233497116,-0.620105594,-0.430616169
859,2150949,500300,1.011,0.233,0.119,27,4.5,-1.8,-11.7,-34.7,8.1,0.612750633,-0.233497116,-0.620105594,-0.430616169
860,2154201,500300,1.007,0.233,0.119,27.2,4.2,-1.1,-11.7,-34.7,8.1,0.612933744,-0.233100375,-0.620319224,-0.430280465
861,2157200,500300,0.999,0.237,0.12,27.3,3.9,-0.4,-10.8,-34.8,8,0.613177892,-0.232886746,-0.620502335,-0.429731132
862,2159409,500300,0.987,0.233,0.124,27.9,3.1,1.1,-10.8,-34.8,8,0.613574633,-0.232123783,-0.620929594,-0.428998688
863,2161694,500310,0.987,0.233,0.124,27.9,3.1,1.1,-10.8,-34.8,8,0.613574633,-0.232123783,-0.620929594,-0.428998688
864,2163916,500310,0.995,0.225,0.112,29.7,2.4,2.8,-10.7,-34.7,8,0.613971374,-0.23136082,-0.621387371,-0.428174688
865,2165990,500310,0.995,0.225,0.112,29.7,2.4,2.8,-10.7,-34.7,8,0.613971374,-0.23136082,-0.621387371,-0.428174688
866,2168897,500310,1.015,0.233,0.123,35,2.6,3.8,-10.7,-34.7,8,0.61445967,-0.230506302,-0.621906186,-0.427198096
867,2171972,500320,1.015,0.233,0.123,35,2.6,3.8,-10.7,-34.7,8,0.61445967,-0.230506302,-0.621906186,-0.427198096
868,2174250,500320,1.019,0.213,0.115,44.5,5,5.5,-10.9,-34.8,8.2,0.615100558,-0.229438154,-0.622516556,-0.425977355
869,2176437,500320,1.019,0.213,0.115,44.5,5,5.5,-10.9,-34.8,8.2,0.615100558,-0.229438154,-0.622516556,-0.425977355
870,2179442,500320,0.991,0.245,0.128,55.5,10,7.4,-10.9,-34.8,8.2,0.615985595,-0.228034303,-0.623187963,-0.424420911
871,2181698,500330,0.991,0.245,0.128,55.5,10,7.4,-10.9,-34.8,8.2,0.615985595,-0.228034303,-0.623187963,-0.424420911
872,2183070,500330,0.956,0.269,0.132,65.5,15.1,7.7,-11,-34.1,8.9,0.617145299,-0.226294748,-0.623889889,-0.422650838
873,2186001,500330,0.956,0.269,0.132,65.5,15.1,7.7,-11,-34.1,8.9,0.617145299,-0.226294748,-0.623889889,-0.422650838
874,2189215,500330,0.932,0.308,0.145,69.4,16,7.1,-11,-34.1,8.9,0.618396558,-0.224341563,-0.624652852,-0.420728172
875,2192249,500340,0.932,0.308,0.145,69.4,16,7.1,-11,-34.1,8.9,0.618396558,-0.224341563,-0.624652852,-0.420728172
876,2194461,500340,0.94,0.316,0.133,65.9,13.7,6.1,-11.9,-34.1,9.2,0.619556261,-0.222449416,-0.625446333,-0.418866543
877,2196679,500340,0.94,0.316,0.133,65.9,13.7,6.1,-11.9,-34.1,9.2,0.619556261,-0.222449416,-0.625446333,-0.418866543
878,2198139,500340,0.94,0.335,0.137,57.9,10.6,5.2,-11.9,-34.1,9.2,0.620532853,-0.220740379,-0.626178777,-0.417188025
879,2201044,500350,0.94,0.335,0.137,57.9,10.6,5.2,-11.9,-34.1,9.2,0.620532853,-0.220740379,-0.626178777,-0.417188025
880,2203420,500350,0.933,0.336,0.134,53.7,9.4,5.1,-11.9,-34.1,9.2,0.620990631,-0.220007935,-0.626514481,-0.416425062
881,2206313,500350,0.921,0.343,0.142,49.5,8.3,5.4,-11.1,-34.1,9.5,0.621234779,-0.218939787,-0.626880703,-0.41605884
882,2209314,500350,0.917,0.32,0.138,41.3,6,6.9,-11.1,-34.1,9.5,0.621967223,-0.217810602,-0.627399518,-0.414746544
883,2210614,500360,0.917,0.32,0.138,41.3,6,6.9,-11.1,-34.1,9.5,0.621967223,-0.217810602,-0.627399518,-0.414746544
884,2214235,500360,0.936,0.296,0.133,33,2.8,8.4,-10.9,-34.1,9.3,0.622547075,-0.217017121,-0.627857295,-0.413617359
885,2217357,500360,0.936,0.296,0.133,33,2.8,8.4,-10.9,-34.1,9.3,0.622547075,-0.217017121,-0.627857295,-0.413617359
886,2219482,500360,0.936,0.288,0.141,28.5,0.9,8.5,-10.9,-34.1,9.3,0.623004852,-0.216437269,-0.628284555,-0.41257973
887,2220996,500370,0.936,0.288,0.141,28.5,0.9,8.5,-10.9,-34.1,9.3,0.623004852,-0.216437269,-0.628284555,-0.41257973
888,2223833,500370,0.936,0.28,0.145,29.1,1.3,7.7,-10.9,-33.9,9.3,0.62346263,-0.215857418,-0.628681295,-0.411572619
889,2226911,500370,0.936,0.28,0.145,29.1,1.3,7.7,-10.9,-33.9,9.3,0.62346263,-0.215857418,-0.628681295,-0.411572619
890,2228308,500370,0.933,0.273,0.149,30.2,1.8,7.9,-10.9,-33.9,9.3,0.623920408,-0.215216529,-0.629108554,-0.410565508
891,2231480,500380,0.933,0.273,0.149,30.2,1.8,7.9,-10.9,-33.9,9.3,0.623920408,-0.215216529,-0.629108554,-0.410565508
892,2233544,500380,0.933,0.265,0.152,29.9,1.5,8.5,-11.1,-33.9,9.6,0.624408704,-0.21457564,-0.629535813,-0.409527879
893,2236514,500380,0.933,0.265,0.152,29.9,1.5,8.5,-11.1,-33.9,9.6,0.624408704,-0.21457564,-0.629535813,-0.409527879
894,2239767,500380,0.932,0.261,0.156,29.5,1.2,9,-11.1,-33.9,9.6,0.624866482,-0.213995788,-0.629932554,-0.408490249
895,2241834,500390,0.932,0.261,0.156,29.5,1.2,9,-11.1,-33.9,9.6,0.624866482,-0.213995788,-0.629932554,-0.408490249
896,2243261,500390,0.932,0.269,0.16,29.3,0.9,9.2,-11.7,-33.7,9.9,0.625354778,-0.213446455,-0.630329295,-0.407422102
897,2246584,500390,0.932,0.269,0.16,29.3,0.9,9.2,-11.7,-33.7,9.9,0.625354778,-0.213446455,-0.630329295,-0.407422102
898,2248239,500390,0.925,0.272,0.164,28.8,0.6,9,-11.7,-33.7,9.9,0.625782037,-0.212897122,-0.630756554,-0.406384472
899,2250635,500400,0.925,0.272,0.164,28.8,0.6,9,-11.7,-33.7,9.9,0.625782037,-0.212897122,-0.630756554,-0.406384472
900,2255043,500400,0.925,0.273,0.16,28.5,0.3,9,-11.7,-33.7,9.9,0.626026185,-0.212622456,-0.630970183,-0.405896176
901,2257489,500400,0.925,0.273,0.16,28.1,0,9.6,-11.8,-33.8,10,0.626453444,-0.211951048,-0.630787072,-0.405804621
902,2259706,500400,0.921,0.284,0.165,27.9,0,9.9,-11.8,-33.8,10,0.626880703,-0.211432234,-0.631183813,-0.404766991
903,2262184,500410,0.921,0.284,0.165,27.9,0,9.9,-11.8,-33.8,10,0.626880703,-0.211432234,-0.631183813,-0.404766991
904,2264271,500410,0.929,0.288,0.161,27.7,0.2,10.1,-11.4,-34,9.9,0.627338481,-0.210943937,-0.631580554,-0.403729362
905,2266474,500410,0.929,0.288,0.161,27.7,0.2,10.1,-11.4,-34,9.9,0.627338481,-0.210943937,-0.631580554,-0.403729362
906,2268473,500410,0.929,0.284,0.161,28.2,1.5,9.9,-11.4,-34,9.9,0.627796258,-0.210455641,-0.631946776,-0.402691733
907,2270851,500420,0.929,0.284,0.161,28.2,1.5,9.9,-11.4,-34,9.9,0.627796258,-0.210455641,-0.631946776,-0.402691733
908,2274506,500420,0.925,0.288,0.161,29.1,3.4,9.4,-11.7,-34,10.2,0.628315073,-0.20987579,-0.632282479,-0.401654103
909,2276798,500420,0.925,0.288,0.161,29.1,3.4,9.4,-11.7,-34,10.2,0.628315073,-0.20987579,-0.632282479,-0.401654103
910,2278638,500420,0.929,0.281,0.149,29.6,5.6,9.3,-11.7,-34,10.2,0.628894925,-0.209204382,-0.632587664,-0.400616474
911,2280913,500430,0.929,0.281,0.149,29.6,5.6,9.3,-11.7,-34,10.2,0.628894925,-0.209204382,-0.632587664,-0.400616474
912,2283107,500430,0.929,0.288,0.149,29.9,7.3,9.9,-12,-33.8,10.3,0.629535813,-0.208532975,-0.632831812,-0.399609363
913,2287373,500430,0.929,0.288,0.149,29.9,7.3,9.9,-12,-33.8,10.3,0.629535813,-0.208532975,-0.632831812,-0.399609363
914,2289839,500430,0.917,0.296,0.161,31.6,8.8,11.4,-12,-33.8,10.3,0.630237739,-0.207861568,-0.633045442,-0.398510697
915,2292135,500440,0.917,0.296,0.161,31.6,8.8,11.4,-12,-33.8,10.3,0.630237739,-0.207861568,-0.633045442,-0.398510697
916,2294587,500440,0.905,0.304,0.157,33.3,10.1,12.3,-11.8,-33.4,10.7,0.631000702,-0.207098605,-0.633228553,-0.397350993
917,2296644,500440,0.905,0.304,0.157,33.3,10.1,12.3,-11.8,-33.4,10.7,0.631000702,-0.207098605,-0.633228553,-0.397350993
918,2299783,500440,0.893,0.316,0.154,33,9.7,12.8,-11.8,-33.4,10.7,0.631824702,-0.206366161,-0.633411664,-0.39619129
919,2302246,500450,0.893,0.316,0.154,33,9.7,12.8,-11.8,-33.4,10.7,0.631824702,-0.206366161,-0.633411664,-0.39619129
920,2305123,500450,0.897,0.32,0.158,31.4,8.8,12.8,-11.8,-33.4,10.7,0.632190924,-0.206030457,-0.63350322,-0.395611438
921,2307536,500450,0.893,0.328,0.162,26.8,6.3,11.5,-12.4,-33.1,10.7,0.63246559,-0.204779199,-0.633381146,-0.396008179
922,2310070,500450,0.897,0.328,0.142,24.1,4.8,9.9,-12.4,-33.1,10.7,0.633045442,-0.204290902,-0.633564257,-0.395062105
923,2312664,500460,0.897,0.328,0.142,24.1,4.8,9.9,-12.4,-33.1,10.7,0.633045442,-0.204290902,-0.633564257,-0.395062105
924,2314735,500460,0.936,0.308,0.133,18.7,1.7,7,-12,-33.5,10.8,0.633442183,-0.203894162,-0.633777886,-0.394299142
925,2317192,500460,0.936,0.308,0.133,18.7,1.7,7,-12,-33.5,10.8,0.633442183,-0.203894162,-0.633777886,-0.394299142
926,2319293,500460,0.956,0.304,0.137,16.1,0,6.2,-12,-33.5,10.8,0.633686331,-0.203619495,-0.633991516,-0.393688772
927,2321589,500470,0.956,0.304,0.137,16.1,0,6.2,-12,-33.5,10.8,0.633686331,-0.203619495,-0.633991516,-0.393688772
928,2323343,500470,0.96,0.296,0.137,16.7,0.2,5.7,-12.1,-33,10.6,0.633930479,-0.20331431,-0.634205145,-0.393047884
929,2327174,500470,0.96,0.296,0.137,16.7,0.2,5.7,-12.1,-33,10.6,0.633930479,-0.20331431,-0.634205145,-0.393047884
930,2329370,500470,0.968,0.292,0.136,16.3,1,4.5,-12.1,-33,10.6,0.634205145,-0.202978607,-0.634418775,-0.392468032
931,2331449,500480,0.968,0.292,0.136,16.3,1,4.5,-12.1,-33,10.6,0.634205145,-0.202978607,-0.634418775,-0.392468032
932,2334597,500480,0.983,0.284,0.136,14.6,1.6,3,-12.5,-33.1,10.7,0.634418775,-0.202642903,-0.634632405,-0.391979736
933,2336925,500480,0.983,0.284,0.136,14.6,1.6,3,-12.5,-33.1,10.7,0.634418775,-0.202642903,-0.634632405,-0.391979736
934,2339064,500480,0.983,0.276,0.132,12.6,1.9,1.9,-12.5,-33.1,10.7,0.634632405,-0.202307199,-0.634784997,-0.391552477
935,2341410,500490,0.983,0.276,0.132,12.6,1.9,1.9,-12.5,-33.1,10.7,0.634632405,-0.202307199,-0.634784997,-0.391552477
936,2343473,500490,0.991,0.272,0.132,11.3,1.9,1.1,-12.1,-32.9,10.9,0.634815516,-0.201971496,-0.634907071,-0.391216773
937,2345709,500490,0.991,0.272,0.132,11.3,1.9,1.1,-12.1,-32.9,10.9,0.634815516,-0.201971496,-0.634907071,-0.391216773
938,2348220,500490,0.995,0.264,0.132,10.4,1.5,0.6,-12.1,-32.9,10.9,0.634968108,-0.201696829,-0.635029145,-0.390911588
939,2350842,500500,0.995,0.264,0.132,10.4,1.5,0.6,-12.1,-32.9,10.9,0.634968108,-0.201696829,-0.635029145,-0.390911588
940,2354403,500500,0.995,0.256,0.132,9.9,1.2,0.4,-12.1,-32.9,10.9,0.635029145,-0.201544237,-0.635090182,-0.390789514
941,2356528,500500,0.995,0.256,0.132,9,0.7,0.2,-12.3,-33.1,11.2,0.635120701,-0.201361126,-0.635120701,-0.390697958
942,2358805,500500,0.999,0.256,0.132,8.5,0.4,0.4,-12.3,-33.1,11.2,0.635212256,-0.201116977,-0.635242775,-0.39045381
943,2360871,500510,0.999,0.256,0.132,8.5,0.4,0.4,-12.3,-33.1,11.2,0.635212256,-0.201116977,-0.635242775,-0.39045381
944,2363228,500510,0.995,0.26,0.132,7.6,0.2,0.7,-12.3,-33.1,11.1,0.635303812,-0.200903348,-0.635364849,-0.390209662
945,2366301,500510,0.995,0.26,0.132,7.6,0.2,0.7,-12.3,-33.1,11.1,0.635303812,-0.200903348,-0.635364849,-0.390209662
946,2368431,500510,0.991,0.26,0.132,6.7,-0.1,1,-12.3,-33.1,11.1,0.635395367,-0.200750755,-0.635486923,-0.389996033
947,2370662,500520,0.991,0.26,0.132,6.7,-0.1,1,-12.3,-33.1,11.1,0.635395367,-0.200750755,-0.635486923,-0.389996033
948,2373826,500520,0.987,0.26,0.136,6,-0.8,1.5,-12.5,-33.5,11.2,0.635456404,-0.200628681,-0.635578478,-0.389782403
949,2375901,500520,0.987,0.26,0.136,6,-0.8,1.5,-12.5,-33.5,11.2,0.635456404,-0.200628681,-0.635578478,-0.389782403
950,2378121,500520,0.983,0.268,0.136,5.8,-1.4,1.9,-12.5,-33.5,11.2,0.635486923,-0.200537126,-0.635700552,-0.389538255
951,2381278,500530,0.983,0.268,0.136,5.8,-1.4,1.9,-12.5,-33.5,11.2,0.635486923,-0.200537126,-0.635700552,-0.389538255
952,2383393,500530,0.979,0.268,0.136,6,-1.8,1.8,-13,-33.2,10.9,0.635517441,-0.200415052,-0.635853145,-0.389324625
953,2385687,500530,0.979,0.268,0.136,6,-1.8,1.8,-13,-33.2,10.9,0.635517441,-0.200415052,-0.635853145,-0.389324625
954,2388771,500530,0.972,0.272,0.136,6.2,-2.2,1.8,-13,-33.2,10.9,0.63554796,-0.200354015,-0.636005737,-0.389080477
955,2390871,500540,0.972,0.272,0.136,6.2,-2.2,1.8,-13,-33.2,10.9,0.63554796,-0.200354015,-0.636005737,-0.389080477
956,2394044,500540,0.968,0.276,0.132,5.9,-2.3,1.3,-11.9,-33.3,11.1,0.635578478,-0.200292978,-0.63615833,-0.388836329
957,2397147,500540,0.968,0.276,0.132,5.9,-2.3,1.3,-11.9,-33.3,11.1,0.635578478,-0.200292978,-0.63615833,-0.388836329
958,2399437,500540,0.96,0.273,0.132,5.5,-2.2,0.8,-11.9,-33.3,11.1,0.635578478,-0.200201422,-0.636310923,-0.388653218
959,2401692,500550,0.96,0.273,0.132,5.5,-2.2,0.8,-11.9,-33.3,11.1,0.635578478,-0.200201422,-0.636310923,-0.388653218
960,2404029,500550,0.96,0.276,0.132,5.3,-2.1,0.7,-11.9,-33.3,11.1,0.635578478,-0.200140385,-0.63637196,-0.388561663
961,2405874,500550,0.952,0.277,0.133,4.6,-1.7,0.1,-12.5,-33.1,11.1,0.635578478,-0.1998352,-0.636341441,-0.388714255
962,2408870,500550,0.952,0.277,0.133,4.5,-1.6,-0.3,-12.5,-33.1,11.1,0.635578478,-0.199713126,-0.636463515,-0.388592181
963,2411657,500560,0.952,0.277,0.133,4.5,-1.6,-0.3,-12.5,-33.1,11.1,0.635578478,-0.199713126,-0.636463515,-0.388592181
964,2414425,500560,0.952,0.277,0.133,4.2,-1.1,-1,-13,-33,11.3,0.63554796,-0.199591052,-0.636585589,-0.388470107
965,2415794,500560,0.952,0.277,0.133,4.2,-1.1,-1,-13,-33,11.3,0.63554796,-0.199591052,-0.636585589,-0.388470107
966,2418787,500560,0.952,0.284,0.133,3.6,-0.4,-1.3,-13,-33,11.3,0.63554796,-0.199438459,-0.636677145,-0.38840907
967,2420843,500570,0.952,0.284,0.133,3.6,-0.4,-1.3,-13,-33,11.3,0.63554796,-0.199438459,-0.636677145,-0.38840907
968,2423803,500570,0.956,0.277,0.129,2.8,0.2,-2.1,-12.8,-33.1,11.4,0.63554796,-0.199316385,-0.636738182,-0.388378552
969,2426723,500570,0.956,0.277,0.129,2.8,0.2,-2.1,-12.8,-33.1,11.4,0.63554796,-0.199316385,-0.636738182,-0.388378552
970,2428221,500570,0.956,0.277,0.129,1.9,0.7,-2.9,-12.8,-33.1,11.4,0.63554796,-0.199194311,-0.636799219,-0.38840907
971,2431068,500580,0.956,0.277,0.129,1.9,0.7,-2.9,-12.8,-33.1,11.4,0.63554796,-0.199194311,-0.636799219,-0.38840907
972,2434044,500580,0.96,0.273,0.129,1.1,1.1,-3.3,-12.9,-32.9,11.2,0.635517441,-0.199041719,-0.636799219,-0.388470107
973,2436862,500580,0.96,0.273,0.129,1.1,1.1,-3.3,-12.9,-32.9,11.2,0.635517441,-0.199041719,-0.636799219,-0.388470107
974,2438282,500580,0.964,0.273,0.128,0.5,1.4,-3.6,-12.9,-32.9,11.2,0.635517441,-0.198889126,-0.636829737,-0.388561663
975,2440652,500590,0.964,0.273,0.128,0.5,1.4,-3.6,-12.9,-32.9,11.2,0.635517441,-0.198889126,-0.636829737,-0.388561663
976,2444553,500590,0.968,0.272,0.128,0,1.5,-4.3,-11.7,-33.3,11.1,0.635486923,-0.198736534,-0.636799219,-0.388683737
977,2445914,500590,0.968,0.272,0.128,0,1.5,-4.3,-11.7,-33.3,11.1,0.635486923,-0.198736534,-0.636799219,-0.388683737
978,2449230,500590,0.968,0.265,0.132,-0.5,1.5,-4.9,-11.7,-33.3,11.1,0.635425886,-0.19861446,-0.636799219,-0.388836329
979,2451463,500600,0.968,0.265,0.132,-0.5,1.5,-4.9,-11.7,-33.3,11.1,0.635425886,-0.19861446,-0.636799219,-0.388836329
980,2453260,500600,0.972,0.261,0.128,-1,1.6,-5.3,-11.7,-33.3,11.1,0.635425886,-0.198522904,-0.636799219,-0.388927885
981,2457450,500600,0.968,0.265,0.132,-1.9,1.9,-6.2,-13.2,-33.6,10.9,0.635425886,-0.198156682,-0.636646626,-0.389324625
982,2459284,500600,0.968,0.257,0.128,-2.4,2,-6.7,-13.2,-33.6,10.9,0.635364849,-0.198004089,-0.636616108,-0.389599292
983,2461199,500610,0.968,0.257,0.128,-2.4,2,-6.7,-13.2,-33.6,10.9,0.635364849,-0.198004089,-0.636616108,-0.389599292
984,2463542,500610,0.964,0.249,0.128,-3.6,2.5,-7.2,-12.9,-33.2,11,0.635273293,-0.197851497,-0.636555071,-0.389904477
985,2465915,500610,0.964,0.249,0.128,-3.6,2.5,-7.2,-12.9,-33.2,11,0.635273293,-0.197851497,-0.636555071,-0.389904477
986,2469741,500610,0.964,0.245,0.128,-4.9,2.7,-7.4,-12.9,-33.2,11,0.635181738,-0.197729423,-0.636463515,-0.390270699
987,2472047,500620,0.964,0.245,0.128,-4.9,2.7,-7.4,-12.9,-33.2,11,0.635181738,-0.197729423,-0.636463515,-0.390270699
988,2474263,500620,0.968,0.237,0.128,-5.8,2.9,-7.5,-12.8,-33,11.1,0.635090182,-0.197637867,-0.636341441,-0.390636921
989,2476437,500620,0.968,0.237,0.128,-5.8,2.9,-7.5,-12.8,-33,11.1,0.635090182,-0.197637867,-0.636341441,-0.390636921
990,2479770,500620,0.972,0.233,0.128,-6.6,3.2,-7.6,-12.8,-33,11.1,0.634998627,-0.197546312,-0.636219367,-0.39106418
991,2482068,500630,0.972,0.233,0.128,-6.6,3.2,-7.6,-12.8,-33,11.1,0.634998627,-0.197546312,-0.636219367,-0.39106418
992,2484482,500630,0.972,0.233,0.128,-7.1,3.3,-7.6,-13.2,-33.6,11,0.634907071,-0.197485275,-0.636066774,-0.39149144
993,2486415,500630,0.972,0.233,0.128,-7.1,3.3,-7.6,-13.2,-33.6,11,0.634907071,-0.197485275,-0.636066774,-0.39149144
994,2488533,500630,0.98,0.241,0.128,-7.2,3.2,-7.2,-13.2,-33.6,11,0.634784997,-0.197424238,-0.635914182,-0.391949217
995,2490808,500640,0.98,0.241,0.128,-7.2,3.2,-7.2,-13.2,-33.6,11,0.634784997,-0.197424238,-0.635914182,-0.391949217
996,2493164,500640,0.98,0.245,0.128,-7,3.3,-7,-11.3,-33.3,11,0.634693442,-0.197363201,-0.635761589,-0.392376476
997,2497327,500640,0.98,0.245,0.128,-7,3.3,-7,-11.3,-33.3,11,0.634693442,-0.197363201,-0.635761589,-0.392376476
998,2498697,500640,0.976,0.249,0.132,-6.7,3.3,-6.8,-11.3,-33.3,11,0.634632405,-0.197302164,-0.635608997,-0.392773217
999,2501929,500650,0.976,0.249,0.132,-6.7,3.3,-6.8,-11.3,-33.3,11,0.634632405,-0.197302164,-0.635608997,-0.392773217
1000,2504011,500650,0.983,0.245,0.128,-6.7,3.2,-6.8,-11.3,-33.3,11,0.634571368,-0.197271645,-0.63554796,-0.392986847
1001,2507108,500650,0.98,0.249,0.128,-6.7,3.2,-6.8,-13,-32.8,11.4,0.634693442,-0.197302164,-0.635273293,-0.393169958
1002,2509313,500650,0.979,0.249,0.132,-6.7,3.2,-6.9,-13,-32.8,11.4,0.634601886,-0.197241127,-0.635151219,-0.393566698
1003,2510900,500660,0.979,0.249,0.132,-6.7,3.2,-6.9,-13,-32.8,11.4,0.634601886,-0.197241127,-0.635151219,-0.393566698
1004,2513158,500660,0.98,0.245,0.128,-6.9,3.3,-7,-12.8,-33.2,10.9,0.634510331,-0.19718009,-0.634998627,-0.393993957
1005,2516833,500660,0.98,0.245,0.128,-6.9,3.3,-7,-12.8,-33.2,10.9,0.634510331,-0.19718009,-0.634998627,-0.393993957
1006,2519286,500660,0.979,0.253,0.132,-7,3.4,-7,-12.8,-33.2,10.9,0.634449293,-0.197119053,-0.634846034,-0.394421216
1007,2521505,500670,0.979,0.253,0.132,-7,3.4,-7,-12.8,-33.2,10.9,0.634449293,-0.197119053,-0.634846034,-0.394421216
1008,2523336,500670,0.976,0.249,0.128,-6.7,3.4,-7,-13,-33,10.9,0.634357738,-0.197058016,-0.634662923,-0.394817957
1009,2526589,500670,0.976,0.249,0.128,-6.7,3.4,-7,-13,-33,10.9,0.634357738,-0.197058016,-0.634662923,-0.394817957
1010,2529712,500670,0.972,0.245,0.128,-6.7,3.2,-6.7,-13,-33,10.9,0.634266182,-0.196996979,-0.634540849,-0.395245216
1011,2531070,500680,0.972,0.245,0.128,-6.7,3.2,-6.7,-13,-33,10.9,0.634266182,-0.196996979,-0.634540849,-0.395245216
1012,2534329,500680,0.976,0.245,0.128,-6.9,3.2,-6.7,-12.8,-32.8,11.2,0.634174627,-0.196935942,-0.634388256,-0.395641957
1013,2536626,500680,0.976,0.245,0.128,-6.9,3.2,-6.7,-12.8,-32.8,11.2,0.634174627,-0.196935942,-0.634388256,-0.395641957
1014,2538426,500680,0.976,0.245,0.132,-7,3.3,-7.1,-12.8,-32.8,11.2,0.634083071,-0.196874905,-0.634235664,-0.396069216
1015,2541191,500690,0.976,0.245,0.132,-7,3.3,-7.1,-12.8,-32.8,11.2,0.634083071,-0.196874905,-0.634235664,-0.396069216
1016,2543463,500690,0.968,0.237,0.128,-7.1,3.4,-6.9,-11.2,-33.6,10.6,0.634022034,-0.196844386,-0.634052553,-0.396465957
1017,2546680,500690,0.968,0.237,0.128,-7.1,3.4,-6.9,-11.2,-33.6,10.6,0.634022034,-0.196844386,-0.634052553,-0.396465957
