sample_index,elapsed_us,device_time_ms,acc_x_g,acc_y_g,acc_z_g,gyro_x_dps,gyro_y_dps,gyro_z_dps,mag_x_ut,mag_y_ut,mag_z_ut,quat_w,quat_x,quat_y,quat_z
0,4211,328320,0.957,-0.178,0.217,3.4,-3,0.9,-3.2,31.6,-14.8,0.380443739,0.475447859,-0.392742698,0.689138462
1,6258,328330,0.961,-0.182,0.217,3.4,-3,0.9,-3.2,31.6,-14.8,0.380352184,0.475539415,-0.39271218,0.689138462
2,8314,328330,0.961,-0.182,0.217,3.4,-3,0.9,-3.2,31.6,-14.8,0.380352184,0.475539415,-0.39271218,0.689138462
3,12169,328330,0.961,-0.174,0.225,3.3,-3.3,1,-3.1,32,-15.1,0.380291147,0.475600452,-0.39271218,0.689138462
4,13694,328330,0.961,-0.17,0.221,3.3,-3.4,1.1,-3.1,32,-15.1,0.380199591,0.475661489,-0.39271218,0.689138462
5,15753,328340,0.961,-0.174,0.217,3.5,-3.2,1.2,-3.1,32,-15.1,0.380046999,0.475814081,-0.392681661,0.689168981
6,18017,328340,0.961,-0.174,0.217,3.5,-3.2,1.2,-3.1,32,-15.1,0.380046999,0.475814081,-0.392681661,0.689168981
7,21174,328340,0.961,-0.174,0.217,3.5,-3.2,1.2,-3.1,32,-15.1,0.380046999,0.475814081,-0.392681661,0.689168981
8,23280,328340,0.961,-0.166,0.217,3.4,-2.9,1.2,-3.1,30.5,-14.7,0.379894406,0.476027711,-0.392742698,0.689016388
9,27202,328350,0.961,-0.162,0.221,3.4,-2.9,1.2,-3.1,30.5,-14.7,0.379833369,0.476088748,-0.392742698,0.689046907
10,29413,328350,0.961,-0.166,0.217,3.3,-2.8,1.2,-3.1,30.5,-14.7,0.379741813,0.476149785,-0.39271218,0.689046907
11,31653,328350,0.961,-0.162,0.217,3.2,-2.7,1.3,-3.1,30.5,-14.7,0.379680776,0.476210822,-0.39271218,0.689046907
12,34684,328350,0.961,-0.162,0.213,3,-2.4,1.1,-3.1,31.4,-15,0.379589221,0.476271859,-0.392681661,0.689046907
13,36153,328360,0.957,-0.166,0.213,3,-2.4,1.1,-3.1,31.4,-15,0.379528184,0.476302377,-0.392681661,0.689077425
14,39166,328360,0.957,-0.158,0.213,2.9,-2.3,1,-3.1,31.4,-15,0.379467147,0.476363414,-0.392681661,0.689077425
15,41432,328360,0.953,-0.162,0.213,2.8,-2.1,0.9,-3.1,31.4,-15,0.379375591,0.476424451,-0.392651143,0.689077425
16,43736,328360,0.953,-0.162,0.213,2.8,-2.1,0.9,-3.1,31.4,-15,0.379375591,0.476424451,-0.392651143,0.689077425
17,45766,328370,0.957,-0.162,0.221,2.3,-2,0.6,-4,31.1,-15.3,0.379345073,0.47645497,-0.392651143,0.689107944
18,49080,328370,0.957,-0.166,0.217,2.2,-1.8,0.6,-4,31.1,-15.3,0.379314554,0.476485488,-0.392620624,0.689107944
19,51321,328370,0.95,-0.162,0.213,2.1,-1.7,0.6,-4,31.1,-15.3,0.379222999,0.476577044,-0.392620624,0.689107944
20,53294,328370,0.95,-0.162,0.213,2.1,-1.7,0.6,-4,31.1,-15.3,0.379222999,0.476577044,-0.392620624,0.689107944
21,56944,328380,0.953,-0.17,0.213,1.8,-1.4,0.5,-4.1,31.3,-14.6,0.379161962,0.476607562,-0.392590106,0.689107944
22,59088,328380,0.949,-0.174,0.213,1.5,-1.4,0.5,-4.1,31.3,-14.6,0.379131443,0.476638081,-0.392590106,0.689107944
23,61329,328380,0.953,-0.178,0.213,1.2,-1.3,0.5,-4.1,31.3,-14.6,0.379100925,0.4766686,-0.392590106,0.689107944
24,63437,328380,0.953,-0.178,0.209,0.9,-1.1,0.3,-4.1,31.3,-14.6,0.379070406,0.476699118,-0.392590106,0.689107944
25,65637,328390,0.949,-0.186,0.209,0.7,-1,0.2,-4.1,31.3,-14.6,0.379039888,0.476699118,-0.392590106,0.689107944
26,69583,328390,0.953,-0.186,0.205,0.6,-0.9,0,-4.1,31.3,-14.6,0.379039888,0.476729637,-0.392590106,0.689107944
27,71938,328390,0.953,-0.186,0.205,0.5,-0.8,0,-4.1,31.3,-14.6,0.379009369,0.476760155,-0.392590106,0.689107944
28,73808,328390,0.953,-0.19,0.205,0.3,-0.7,0,-4.1,31.3,-14.6,0.379009369,0.476760155,-0.392590106,0.689107944
29,77046,328400,0.953,-0.19,0.205,0.3,-0.7,0,-4.1,31.3,-14.6,0.379009369,0.476760155,-0.392590106,0.689107944
30,79435,328400,0.953,-0.19,0.205,0.3,-0.7,0,-4.1,31.3,-14.6,0.379009369,0.476760155,-0.392590106,0.689107944
31,81499,328400,0.953,-0.186,0.213,0,-0.7,0,-4.4,31.7,-15.3,0.37879574,0.476973785,-0.392895291,0.688924833
32,83749,328400,0.953,-0.19,0.209,0,-0.9,-0.1,-4.4,31.7,-15.3,0.37879574,0.476973785,-0.392895291,0.688894314
33,85769,328410,0.957,-0.19,0.217,0,-1.1,-0.1,-4.4,31.7,-15.3,0.378765221,0.477004303,-0.39292581,0.688894314
34,89688,328410,0.957,-0.19,0.217,0,-1.1,-0.1,-4.4,31.7,-15.3,0.378765221,0.477004303,-0.39292581,0.688894314
35,92031,328410,0.961,-0.19,0.213,-0.1,-1.2,-0.1,-4.8,31.6,-15.3,0.378765221,0.477004303,-0.39292581,0.688863796
36,94171,328410,0.953,-0.186,0.213,-0.4,-1.7,-0.2,-4.8,31.6,-15.3,0.378765221,0.477034822,-0.392956328,0.688833277
37,96350,328420,0.965,-0.186,0.217,-0.4,-1.7,-0.2,-4.8,31.6,-15.3,0.378765221,0.477095859,-0.392986847,0.688802759
38,98372,328420,0.965,-0.186,0.217,-0.4,-1.7,-0.2,-4.8,31.6,-15.3,0.378765221,0.477095859,-0.392986847,0.688802759
39,101972,328420,0.961,-0.186,0.217,-0.7,-1.9,0,-4.4,31.2,-14.8,0.378734703,0.477095859,-0.393017365,0.68877224
40,103727,328420,0.965,-0.174,0.217,-0.7,-2,0,-4.4,31.2,-14.8,0.378734703,0.477126377,-0.393047884,0.688741722
41,105925,328430,0.973,-0.17,0.225,-0.8,-2.2,0,-4.4,31.2,-14.8,0.378734703,0.477156896,-0.393047884,0.688711203
42,108326,328430,0.973,-0.17,0.221,-0.7,-2.2,0,-4.4,31.2,-14.8,0.378704184,0.477187414,-0.393108921,0.688680685
43,110639,328430,0.969,-0.166,0.221,-0.7,-2.3,0,-4.2,31.8,-15,0.378704184,0.477217933,-0.393139439,0.688650166
44,114404,328430,0.973,-0.166,0.221,-0.7,-2.2,-0.1,-4.2,31.8,-15,0.378704184,0.477248451,-0.393169958,0.688619648
45,116942,328440,0.969,-0.166,0.221,-0.7,-2,-0.2,-4.2,31.8,-15,0.378673666,0.47727897,-0.393169958,0.688589129
46,118936,328440,0.969,-0.166,0.217,-0.7,-1.8,-0.2,-4.2,31.8,-15,0.378673666,0.47727897,-0.393200476,0.688558611
47,121038,328440,0.969,-0.162,0.221,-0.7,-1.6,-0.4,-2.7,30.9,-14.9,0.378673666,0.477309488,-0.393230995,0.688528092
48,123323,328440,0.969,-0.166,0.217,-0.8,-1.4,-0.5,-2.7,30.9,-14.9,0.378673666,0.477340007,-0.393230995,0.688467055
49,127287,328450,0.969,-0.166,0.217,-0.9,-1.4,-0.7,-2.7,30.9,-14.9,0.378704184,0.477340007,-0.393261513,0.688467055
50,129523,328450,0.965,-0.166,0.221,-0.9,-1.2,-0.8,-2.7,30.9,-14.9,0.378704184,0.477370525,-0.393292032,0.688467055
51,131715,328450,0.965,-0.166,0.221,-0.9,-1.2,-0.8,-2.7,30.9,-14.9,0.378704184,0.477370525,-0.393292032,0.688467055
52,133292,328450,0.965,-0.166,0.221,-0.9,-1.2,-0.8,-2.7,30.9,-14.9,0.378704184,0.477370525,-0.393292032,0.688467055
53,135686,328460,0.965,-0.166,0.221,-1.4,-0.7,-1,-3.7,30.9,-15.3,0.378734703,0.477584155,-0.39332255,0.688283944
54,139681,328460,0.965,-0.166,0.217,-1.6,-0.6,-1.1,-3.7,30.9,-15.3,0.378765221,0.477584155,-0.39332255,0.688253426
55,141710,328460,0.961,-0.178,0.213,-1.8,-0.5,-1.1,-3.7,30.9,-15.3,0.378826258,0.477584155,-0.393383587,0.688192389
56,143301,328460,0.961,-0.178,0.213,-1.8,-0.5,-1.1,-3.7,30.9,-15.3,0.378826258,0.477584155,-0.393383587,0.688192389
57,145753,328470,0.961,-0.178,0.217,-2,-0.2,-1.2,-3.2,31,-15.1,0.378887295,0.477584155,-0.393383587,0.688131352
58,148196,328470,0.953,-0.178,0.213,-2.2,0,-1.2,-3.2,31,-15.1,0.378917814,0.477584155,-0.393414106,0.688131352
59,152202,328470,0.957,-0.182,0.213,-2.3,0.3,-1.2,-3.2,31,-15.1,0.378978851,0.477553636,-0.393444624,0.688100833
60,153836,328470,0.949,-0.182,0.213,-2.5,0.5,-1.3,-3.2,31,-15.1,0.379009369,0.477553636,-0.393444624,0.688070315
61,156352,328480,0.957,-0.182,0.209,-2.7,0.6,-1.4,-2.6,30.7,-15.1,0.379070406,0.477523118,-0.393475143,0.688039796
62,158294,328480,0.953,-0.182,0.209,-2.9,0.6,-1.5,-2.6,30.7,-15.1,0.379131443,0.477492599,-0.393505661,0.688009278
63,162267,328480,0.953,-0.19,0.213,-3,0.5,-1.5,-2.6,30.7,-15.1,0.37919248,0.477492599,-0.393505661,0.687978759
64,164683,328480,0.953,-0.19,0.213,-3.1,0.4,-1.5,-2.6,30.7,-15.1,0.379253517,0.477462081,-0.39353618,0.687948241
65,166787,328490,0.957,-0.186,0.213,-3.1,0.4,-1.4,-2.6,30.7,-15.1,0.379314554,0.477462081,-0.393566698,0.687887204
66,168857,328490,0.953,-0.19,0.213,-3,0.5,-1.4,-2.6,30.7,-15.1,0.379375591,0.477431562,-0.393597217,0.687856685
67,170870,328490,0.957,-0.186,0.213,-3,0.5,-1.4,-2.6,30.7,-15.1,0.379436628,0.477401044,-0.393627735,0.687826167
68,173129,328490,0.957,-0.186,0.213,-2.9,0.7,-1.3,-2.6,30.7,-15.1,0.379497665,0.477370525,-0.393658254,0.687795648
69,176754,328500,0.957,-0.186,0.213,-2.9,0.7,-1.3,-2.6,30.7,-15.1,0.379497665,0.477370525,-0.393658254,0.687795648
70,179035,328500,0.949,-0.197,0.213,-2.8,0.8,-1.5,-2.9,30.5,-14.9,0.379528184,0.477370525,-0.393658254,0.68776513
71,181385,328500,0.953,-0.194,0.209,-2.7,0.8,-1.5,-2.9,30.5,-14.9,0.379589221,0.477340007,-0.393688772,0.68776513
72,183375,328500,0.953,-0.19,0.209,-2.7,0.8,-1.6,-2.9,30.5,-14.9,0.379711295,0.47727897,-0.393719291,0.687704093
73,185621,328510,0.953,-0.19,0.209,-2.7,0.8,-1.6,-2.9,30.5,-14.9,0.379711295,0.47727897,-0.393719291,0.687704093
74,188775,328510,0.953,-0.19,0.209,-2.7,0.8,-1.6,-2.9,30.5,-14.9,0.379711295,0.47727897,-0.393719291,0.687704093
75,191527,328510,0.949,-0.189,0.217,-2.5,0.6,-1.5,-2.8,30.7,-15,0.379558702,0.477340007,-0.394024476,0.687582018
76,194790,328510,0.949,-0.19,0.213,-2.4,0.5,-1.4,-2.8,30.7,-15,0.379619739,0.477340007,-0.394054994,0.6875515
77,196831,328520,0.953,-0.186,0.217,-2.3,0.3,-1.2,-2.8,30.7,-15,0.379650258,0.477309488,-0.394085513,0.687520981
78,199066,328520,0.957,-0.186,0.217,-2.1,0.1,-1.2,-2.8,30.7,-15,0.379711295,0.477309488,-0.394085513,0.687490463
79,201328,328520,0.957,-0.182,0.213,-1.9,0,-1.2,-2.5,30.7,-15.3,0.379741813,0.477309488,-0.394116031,0.687459944
80,203664,328520,0.957,-0.182,0.213,-1.9,0.1,-1.2,-2.5,30.7,-15.3,0.379772332,0.47727897,-0.394116031,0.687429426
81,205738,328530,0.957,-0.182,0.217,-1.9,0.2,-1,-2.5,30.7,-15.3,0.37980285,0.47727897,-0.39414655,0.687429426
82,209325,328530,0.957,-0.178,0.217,-1.8,0.4,-1,-2.5,30.7,-15.3,0.379863887,0.47727897,-0.39414655,0.687398907
83,211573,328530,0.957,-0.178,0.217,-1.8,0.4,-1,-2.5,30.7,-15.3,0.379863887,0.47727897,-0.39414655,0.687398907
84,214427,328530,0.961,-0.174,0.213,-1.9,0.6,-1.1,-2.8,30.8,-14.5,0.379894406,0.477248451,-0.394177068,0.687368389
85,216574,328540,0.957,-0.174,0.209,-2,0.7,-1.1,-2.8,30.8,-14.5,0.379985961,0.477217933,-0.394177068,0.68733787
86,219319,328540,0.961,-0.17,0.209,-2,0.7,-1.1,-2.8,30.8,-14.5,0.380046999,0.477187414,-0.394207587,0.687307352
87,220652,328540,0.961,-0.17,0.209,-2,0.7,-1.1,-2.8,30.8,-14.5,0.380046999,0.477187414,-0.394207587,0.687307352
88,223885,328540,0.961,-0.17,0.213,-2.3,0.7,-1.1,-3.8,31,-14.6,0.380077517,0.477187414,-0.394207587,0.687307352
89,225815,328550,0.957,-0.17,0.217,-2.4,0.7,-1,-3.8,31,-14.6,0.380138554,0.477156896,-0.394238105,0.687276833
90,228045,328550,0.957,-0.174,0.213,-2.4,0.7,-1,-3.8,31,-14.6,0.380169073,0.477126377,-0.394268624,0.687246315
91,230954,328550,0.961,-0.17,0.209,-2.4,0.7,-1,-3.8,31,-14.6,0.38023011,0.477095859,-0.394268624,0.687215796
92,234142,328550,0.961,-0.17,0.213,-2.7,1,-1.1,-2.9,31,-14.9,0.380291147,0.477095859,-0.394299142,0.687215796
93,237005,328560,0.961,-0.17,0.213,-2.8,1.3,-1.3,-2.9,31,-14.9,0.380352184,0.477034822,-0.394299142,0.687185278
94,238329,328560,0.961,-0.17,0.209,-3,1.4,-1.4,-2.9,31,-14.9,0.380413221,0.477004303,-0.394329661,0.687154759
95,241541,328560,0.961,-0.174,0.209,-3.2,1.4,-1.4,-2.9,31,-14.9,0.380474258,0.476973785,-0.394360179,0.687124241
96,244506,328560,0.961,-0.174,0.209,-3.2,1.4,-1.4,-2.9,31,-14.9,0.380474258,0.476973785,-0.394360179,0.687124241
97,246080,328570,0.953,-0.174,0.213,-3.6,1.3,-1.4,-2.5,31,-14.5,0.380474258,0.477248451,-0.394543291,0.686849574
98,249190,328570,0.957,-0.174,0.209,-3.8,1.3,-1.4,-2.5,31,-14.5,0.380565813,0.477217933,-0.394573809,0.686819056
99,252636,328570,0.957,-0.178,0.213,-4,1.3,-1.4,-2.5,31,-14.5,0.38062685,0.477156896,-0.394604328,0.686788537
100,254250,328570,0.961,-0.182,0.209,-4.2,1.3,-1.3,-2.5,31,-14.5,0.380687887,0.477126377,-0.394634846,0.686758019
101,255736,328580,0.961,-0.182,0.209,-4.2,1.3,-1.3,-2.5,31,-14.5,0.380687887,0.477126377,-0.394634846,0.686758019
102,258950,328580,0.953,-0.174,0.213,-4.9,1.3,-1.4,-2.6,31.2,-14.5,0.380779443,0.477034822,-0.394695883,0.686696982
103,262099,328580,0.957,-0.178,0.209,-5.1,1.3,-1.3,-2.6,31.2,-14.5,0.380870998,0.477034822,-0.394726402,0.686666463
104,264324,328580,0.957,-0.178,0.209,-5.3,1.2,-1.2,-2.6,31.2,-14.5,0.381054109,0.476912748,-0.394848476,0.686574908
105,266544,328590,0.957,-0.178,0.209,-5.3,1.2,-1.2,-2.6,31.2,-14.5,0.381054109,0.476912748,-0.394848476,0.686574908
106,268741,328590,0.949,-0.182,0.209,-5.6,0.9,-1.1,-3.2,31.1,-15,0.381115146,0.476851711,-0.394909513,0.686544389
107,270909,328590,0.953,-0.178,0.209,-5.6,0.8,-1,-3.2,31.1,-15,0.381206702,0.476821192,-0.39497055,0.686483352
108,273158,328590,0.953,-0.178,0.205,-5.8,0.9,-0.8,-3.2,31.1,-15,0.381298257,0.476760155,-0.395001068,0.686452834
109,276920,328600,0.957,-0.186,0.213,-5.8,1,-0.7,-3.2,31.1,-15,0.381328776,0.476699118,-0.395123142,0.686391797
110,278937,328600,0.953,-0.182,0.209,-5.8,1.2,-0.7,-3.5,31,-14.9,0.38145085,0.476638081,-0.395184179,0.686361278
111,281455,328600,0.953,-0.182,0.209,-5.8,1.3,-0.7,-3.5,31,-14.9,0.381542405,0.476577044,-0.395245216,0.686300241
112,283787,328600,0.953,-0.182,0.209,-5.8,1.3,-0.7,-3.5,31,-14.9,0.381633961,0.476516007,-0.395336772,0.686269723
113,285781,328610,0.957,-0.182,0.205,-5.8,1.3,-0.7,-3.5,31,-14.9,0.381694998,0.47645497,-0.395397809,0.686208686
114,289656,328610,0.957,-0.182,0.205,-5.8,1.3,-0.7,-3.5,31,-14.9,0.381694998,0.47645497,-0.395397809,0.686208686
115,291406,328610,0.953,-0.186,0.198,-5.8,1.1,-0.8,-3.2,30.9,-14.7,0.381878109,0.476332896,-0.395519883,0.68611713
116,293436,328610,0.957,-0.186,0.198,-5.6,1.1,-1,-3.2,30.9,-14.7,0.381969665,0.476271859,-0.39558092,0.686086612
117,295772,328620,0.953,-0.19,0.198,-5.5,1.1,-1,-3.2,30.9,-14.7,0.382030702,0.476210822,-0.395641957,0.686056093
118,298084,328620,0.953,-0.19,0.198,-5.5,1.1,-1,-3.2,30.9,-14.7,0.382030702,0.476210822,-0.395641957,0.686056093
119,301823,328620,0.953,-0.19,0.198,-5.5,1.1,-1,-3.2,30.9,-14.7,0.382030702,0.476210822,-0.395641957,0.686056093
120,304162,328620,0.957,-0.194,0.201,-5,0.6,-1.1,-3.1,30.6,-14.1,0.381817072,0.47645497,-0.396130253,0.685720389
121,306471,328630,0.961,-0.194,0.198,-4.9,0.6,-1.1,-3.1,30.6,-14.1,0.381908628,0.476424451,-0.39619129,0.685689871
122,308397,328630,0.953,-0.197,0.205,-4.9,0.6,-1.1,-3.1,30.6,-14.1,0.381969665,0.476363414,-0.396252327,0.685628834
123,310801,328630,0.957,-0.194,0.201,-4.9,0.6,-1.1,-3.1,30.6,-14.1,0.38206122,0.476332896,-0.396313364,0.685598315
124,313212,328630,0.957,-0.194,0.198,-4.8,0.4,-1,-3.3,31,-13.8,0.382122257,0.476302377,-0.396374401,0.685537278
125,317124,328640,0.961,-0.19,0.198,-4.8,0.3,-0.9,-3.3,31,-13.8,0.382183294,0.47624134,-0.396435438,0.68550676
126,319622,328640,0.961,-0.19,0.201,-5,0.2,-0.8,-3.3,31,-13.8,0.38227485,0.476210822,-0.396496475,0.685445723
127,322443,328640,0.969,-0.186,0.201,-5.2,0.2,-0.8,-3.3,31,-13.8,0.382335887,0.476180303,-0.396557512,0.685384686
128,324580,328640,0.969,-0.186,0.201,-5.2,0.2,-0.8,-3.3,31,-13.8,0.382335887,0.476180303,-0.396557512,0.685384686
129,327043,328650,0.961,-0.186,0.201,-5.6,0,-0.8,-3.3,31.1,-15.9,0.382457961,0.476088748,-0.396710105,0.68529313
130,329877,328650,0.969,-0.178,0.201,-5.9,0,-0.7,-3.3,31.1,-15.9,0.382549516,0.476058229,-0.396771142,0.685232093
131,332124,328650,0.961,-0.186,0.205,-6.1,0,-0.6,-3.3,31.1,-15.9,0.382610553,0.475997192,-0.396862697,0.685171056
132,334267,328650,0.961,-0.186,0.205,-6.1,0,-0.6,-3.3,31.1,-15.9,0.382610553,0.475997192,-0.396862697,0.685171056
133,336636,328660,0.965,-0.178,0.197,-6.2,-0.2,-0.5,-3.1,30.8,-13.4,0.382702109,0.475966674,-0.396954253,0.685110019
134,338790,328660,0.969,-0.178,0.197,-6.4,-0.5,-0.6,-3.1,30.8,-13.4,0.382824183,0.475875118,-0.397137364,0.684987945
135,340904,328660,0.969,-0.178,0.193,-6.5,-0.7,-0.7,-3.1,30.8,-13.4,0.382915738,0.4758446,-0.397228919,0.68489639
136,343109,328660,0.969,-0.178,0.193,-6.5,-0.7,-0.7,-3.1,30.8,-13.4,0.382915738,0.4758446,-0.397228919,0.68489639
137,347064,328670,0.973,-0.178,0.193,-6.8,-0.6,-0.7,-3.1,30.8,-13.4,0.382976775,0.475814081,-0.397350993,0.684835353
138,349320,328670,0.973,-0.174,0.197,-6.8,-0.6,-0.7,-3.1,30.8,-13.4,0.383068331,0.475753044,-0.397442549,0.684774316
139,351526,328670,0.977,-0.174,0.185,-6.9,-0.4,-0.5,-3.1,30.8,-13.4,0.383129368,0.475722526,-0.397534104,0.68468276
140,353631,328670,0.977,-0.171,0.189,-7,-0.1,-0.5,-3.1,30.8,-13.4,0.383220923,0.475661489,-0.397656178,0.684621723
141,356025,328680,0.977,-0.171,0.189,-7,-0.1,-0.5,-3.1,30.8,-13.4,0.383220923,0.475661489,-0.397656178,0.684621723
142,359291,328680,0.977,-0.171,0.182,-6.4,0,-0.8,-3.5,31.1,-12.9,0.383159886,0.475936155,-0.397961364,0.684255501
143,360796,328680,0.977,-0.178,0.185,-6.2,0,-0.9,-3.5,31.1,-12.9,0.383251442,0.475905637,-0.398052919,0.684194464
144,363198,328680,0.981,-0.175,0.185,-6.1,0,-1,-3.5,31.1,-12.9,0.383342998,0.475875118,-0.398113956,0.684133427
145,366396,328690,0.977,-0.178,0.182,-5.9,0.2,-1.1,-3.5,31.1,-12.9,0.383404035,0.475814081,-0.398205512,0.68407239
146,368155,328690,0.981,-0.178,0.178,-5.9,0.3,-1.4,-3.3,31.2,-15.5,0.38349559,0.475783563,-0.398266549,0.684011353
147,371853,328690,0.981,-0.182,0.178,-5.8,0.4,-1.5,-3.3,31.2,-15.5,0.383587146,0.475722526,-0.398327586,0.683980834
148,373527,328690,0.981,-0.182,0.178,-5.9,0.5,-1.7,-3.3,31.2,-15.5,0.383678701,0.475692007,-0.398388623,0.683919797
149,375746,328700,0.977,-0.182,0.174,-6,0.3,-1.8,-3.3,31.2,-15.5,0.383770257,0.475661489,-0.398480178,0.683828242
150,379277,328700,0.977,-0.182,0.174,-6,0.3,-1.8,-3.3,31.2,-15.5,0.383770257,0.475661489,-0.398480178,0.683828242
151,380733,328700,0.981,-0.182,0.181,-6.5,-0.2,-2,-3,31.4,-14.5,0.383953368,0.475569933,-0.398632771,0.683706168
152,384080,328700,0.981,-0.182,0.185,-6.7,-0.6,-2.1,-3,31.4,-14.5,0.384044923,0.475539415,-0.398693808,0.683614612
153,387303,328710,0.988,-0.182,0.189,-7.1,-1.1,-2.2,-3,31.4,-14.5,0.384166997,0.475539415,-0.398785363,0.683523057
154,389175,328710,0.988,-0.182,0.189,-7.1,-1.1,-2.2,-3,31.4,-14.5,0.384166997,0.475539415,-0.398785363,0.683523057
155,391521,328710,0.988,-0.182,0.193,-7.4,-1.8,-2.2,-3.4,31.5,-14,0.384258553,0.475508896,-0.398907437,0.683400983
156,393585,328710,0.992,-0.183,0.185,-7.8,-2.5,-2.2,-3.4,31.5,-14,0.384350108,0.475508896,-0.399029511,0.683309427
157,395654,328720,1,-0.179,0.193,-8.4,-3.6,-2,-3.4,31.5,-14,0.384533219,0.475508896,-0.399273659,0.683034761
158,399491,328720,1,-0.179,0.193,-8.4,-3.6,-2,-3.4,31.5,-14,0.384533219,0.475508896,-0.399273659,0.683034761
159,401758,328720,1,-0.175,0.193,-8.9,-3.8,-1.6,-3.6,31.6,-15.3,0.384594256,0.475508896,-0.399426252,0.682912687
160,404149,328720,1.004,-0.159,0.197,-9.3,-3.7,-1.3,-3.6,31.6,-15.3,0.384685812,0.475478378,-0.399578845,0.682790613
161,406738,328730,1.008,-0.155,0.193,-9.3,-3.7,-1.3,-3.6,31.6,-15.3,0.384777367,0.475478378,-0.399731437,0.682668538
162,408935,328730,1.008,-0.155,0.197,-9.6,-3.5,-1,-3.6,31.6,-15.3,0.384868923,0.475447859,-0.399914548,0.682515946
163,410836,328730,1.008,-0.155,0.197,-9.6,-3.5,-1,-3.6,31.6,-15.3,0.384868923,0.475447859,-0.399914548,0.682515946
164,415320,328730,1.008,-0.128,0.193,-10.4,-3.5,-0.5,-3.4,31.3,-15,0.38492996,0.475722526,-0.400158696,0.682180242
165,415626,328740,1.012,-0.128,0.189,-10.7,-3.4,-0.5,-3.4,31.3,-15,0.385021516,0.475661489,-0.400341807,0.68202765
166,419471,328740,1.012,-0.128,0.189,-11,-3,-0.4,-3.4,31.3,-15,0.385113071,0.47563097,-0.400524918,0.681905576
167,420810,328740,1.008,-0.116,0.181,-11.4,-2.6,-0.4,-3.4,31.3,-15,0.385204627,0.475569933,-0.400708029,0.681783502
168,424550,328740,1.008,-0.116,0.181,-11.4,-2.6,-0.4,-3.4,31.3,-15,0.385204627,0.475569933,-0.400708029,0.681783502
169,426491,328750,1.012,-0.101,0.177,-12.1,-1.8,-0.4,-3.3,31.3,-14,0.385448775,0.475447859,-0.40110477,0.681508835
170,428336,328750,1.012,-0.109,0.181,-12.5,-1.4,-0.4,-3.3,31.3,-14,0.385570849,0.475356304,-0.401287881,0.681386761
171,431695,328750,1.012,-0.109,0.177,-12.8,-0.9,-0.4,-3.3,31.3,-14,0.385692923,0.475264748,-0.401470992,0.681264687
172,434500,328750,1.012,-0.109,0.177,-12.8,-0.9,-0.4,-3.3,31.3,-14,0.385692923,0.475264748,-0.401470992,0.681264687
173,436213,328760,1,-0.097,0.177,-13.3,-0.4,-0.5,-3.3,31.3,-14.7,0.385845515,0.475173193,-0.401684622,0.681142613
174,438384,328760,1.004,-0.097,0.177,-13.8,0.1,-0.7,-3.3,31.3,-14.7,0.385998108,0.475051119,-0.401867733,0.68099002
175,442212,328760,1.008,-0.085,0.173,-15,1.4,-0.8,-3.3,31.3,-14.7,0.386333811,0.47480697,-0.402264473,0.680745872
176,444306,328760,1.008,-0.085,0.173,-15,1.4,-0.8,-3.3,31.3,-14.7,0.386333811,0.47480697,-0.402264473,0.680745872
177,446563,328770,1.004,-0.089,0.169,-16.5,2.7,-1.1,-3.3,31.3,-14.7,0.386547441,0.474623859,-0.402478103,0.680623798
178,448752,328770,0.996,-0.089,0.169,-17.2,3.2,-1.2,-3.3,31.3,-14.7,0.386791589,0.474440748,-0.402691733,0.680501724
179,450781,328770,0.992,-0.085,0.169,-17.8,3.6,-1.2,-3.3,31.3,-14.7,0.387005219,0.474257637,-0.402935881,0.68037965
180,453049,328770,0.996,-0.089,0.169,-17.8,3.6,-1.2,-3.3,31.3,-14.7,0.387249367,0.474044008,-0.40314951,0.680227058
181,457113,328780,0.996,-0.085,0.169,-18.7,4.2,-1.3,-3,30.4,-15,0.387493515,0.473830378,-0.40336314,0.680104984
182,459328,328780,0.992,-0.085,0.169,-19.1,4.4,-1.4,-3,30.4,-15,0.387768181,0.473616749,-0.403607288,0.67998291
183,461559,328780,0.993,-0.081,0.177,-19.4,4.5,-1.6,-3,30.4,-15,0.388012329,0.473403119,-0.403851436,0.679830317
184,463636,328780,0.985,-0.085,0.173,-19.9,4.6,-1.8,-3,30.4,-15,0.388286996,0.473189489,-0.404065065,0.679677725
185,465754,328790,0.985,-0.085,0.173,-19.9,4.6,-1.8,-3,30.4,-15,0.388286996,0.473189489,-0.404065065,0.679677725
186,468054,328790,0.985,-0.085,0.173,-19.9,4.6,-1.8,-3,30.4,-15,0.388286996,0.473189489,-0.404065065,0.679677725
187,470983,328790,0.985,-0.077,0.173,-21,4.8,-2.2,-3,30.4,-15,0.388866848,0.473616749,-0.404095584,0.679067354
188,474054,328790,0.985,-0.081,0.173,-22.4,5,-2.3,-3,30.4,-15,0.389477218,0.473128452,-0.404614399,0.678731651
189,477307,328800,0.981,-0.077,0.177,-23.2,5,-2.5,-3,30.4,-15,0.389812922,0.472884304,-0.404889065,0.67854854
190,479008,328800,0.981,-0.077,0.177,-23.2,5,-2.5,-3,30.4,-15,0.389812922,0.472884304,-0.404889065,0.67854854
191,480820,328800,0.981,-0.073,0.189,-24,4.9,-2.6,-3.7,31.1,-14.9,0.390118107,0.472609638,-0.40519425,0.678365429
192,483917,328800,0.985,-0.073,0.181,-24.9,4.8,-2.8,-3.7,31.1,-14.9,0.390484329,0.47236549,-0.405499435,0.678182318
193,486925,328810,0.977,-0.073,0.177,-25.5,4.6,-2.9,-3.7,31.1,-14.9,0.390820032,0.472090823,-0.405804621,0.677968688
194,489159,328810,0.977,-0.069,0.189,-26.3,4.5,-2.9,-3.7,31.1,-14.9,0.391186254,0.471816156,-0.406109806,0.677755058
195,491418,328810,0.973,-0.069,0.177,-27.8,4.5,-2.7,-3.6,31.1,-14.9,0.391552477,0.47154149,-0.406445509,0.677541429
196,493351,328810,0.977,-0.061,0.177,-27.8,4.5,-2.7,-3.6,31.1,-14.9,0.391918699,0.471266823,-0.406811731,0.677327799
197,495671,328820,0.969,-0.049,0.178,-28.6,4.6,-2.6,-3.6,31.1,-14.9,0.392284921,0.470992157,-0.407147435,0.677083651
198,499622,328820,0.969,-0.045,0.178,-29.3,4.5,-2.4,-3.6,31.1,-14.9,0.392651143,0.470686972,-0.407513657,0.676870022
199,501858,328820,0.969,-0.038,0.177,-30.5,4.3,-1.9,-3.6,31.4,-14.7,0.393047884,0.470381787,-0.407910398,0.676625874
200,504167,328820,0.965,-0.041,0.178,-31.2,4.1,-1.7,-3.6,31.4,-14.7,0.393444624,0.470046083,-0.408337657,0.676351207
201,506390,328830,0.965,-0.03,0.178,-31.9,4,-1.7,-3.6,31.4,-14.7,0.393810846,0.469740898,-0.408734397,0.676107059
202,508695,328830,0.965,-0.03,0.181,-32.7,3.7,-1.7,-3.6,31.4,-14.7,0.394207587,0.469405194,-0.409192175,0.675832392
203,510866,328830,0.965,-0.03,0.181,-32.7,3.7,-1.7,-3.6,31.4,-14.7,0.394207587,0.469405194,-0.409192175,0.675832392
204,513109,328830,0.961,-0.026,0.178,-33.3,3.6,-1.7,-3.6,32,-14.8,0.394604328,0.469100009,-0.409619434,0.675557726
205,516913,328840,0.958,-0.018,0.186,-34.6,4.4,-1.5,-3.6,32,-14.8,0.395428327,0.468398083,-0.410534989,0.675008393
206,519199,328840,0.962,-0.022,0.189,-35.3,4.9,-1.4,-3.6,32,-14.8,0.395855586,0.468031861,-0.410992767,0.674733726
207,521392,328840,0.962,-0.022,0.189,-35.3,4.9,-1.4,-3.6,32,-14.8,0.395855586,0.468031861,-0.410992767,0.674733726
208,523579,328840,0.962,-0.022,0.189,-35.3,4.9,-1.4,-3.6,32,-14.8,0.395855586,0.468031861,-0.410992767,0.674733726
209,525720,328850,0.954,-0.018,0.182,-36.9,5.8,-1.4,-3.6,32.8,-13.1,0.396862697,0.468398083,-0.41093173,0.673940245
210,528015,328850,0.954,-0.018,0.182,-37.9,6.3,-1.4,-3.6,32.8,-13.1,0.397320475,0.468001343,-0.411420026,0.67363506
211,531138,328850,0.954,-0.018,0.182,-38.9,6.7,-1.4,-3.6,32.8,-13.1,0.397808771,0.467574084,-0.411908322,0.673360393
212,533264,328850,0.954,-0.018,0.186,-39.9,7.1,-1.6,-3.6,32.8,-13.1,0.398297067,0.467146825,-0.412427137,0.673055208
213,537169,328860,0.95,-0.022,0.186,-41.9,8,-1.9,-3.2,32.9,-13,0.398815882,0.466658528,-0.412945952,0.672750023
214,539419,328860,0.946,-0.029,0.186,-42.9,8.5,-2.1,-3.2,32.9,-13,0.399365215,0.466200751,-0.413495285,0.672414319
215,541626,328860,0.946,-0.029,0.182,-42.9,8.5,-2.1,-3.2,32.9,-13,0.399914548,0.465712455,-0.4140141,0.672109134
216,543851,328860,0.95,-0.033,0.194,-43.8,9,-2.3,-3.2,32.9,-13,0.400463881,0.465224158,-0.414532914,0.671773431
217,546151,328870,0.95,-0.033,0.194,-43.8,9,-2.3,-3.2,32.9,-13,0.400463881,0.465224158,-0.414532914,0.671773431
218,548173,328870,0.946,-0.049,0.186,-47.4,9.6,-3.2,-3.4,33,-12.8,0.401684622,0.464156011,-0.415692618,0.671071505
219,552000,328870,0.946,-0.061,0.19,-48.6,9.7,-3.4,-3.4,33,-12.8,0.40232551,0.463637196,-0.416302988,0.670705283
220,554283,328870,0.946,-0.061,0.19,-50,9.8,-3.8,-3.4,33,-12.8,0.402966399,0.463087863,-0.416913358,0.670308542
221,557235,328880,0.946,-0.061,0.19,-50,9.8,-3.8,-3.4,33,-12.8,0.402966399,0.463087863,-0.416913358,0.670308542
222,558712,328880,0.942,-0.072,0.194,-51.2,9.8,-4.2,-3.3,33.3,-12.2,0.403637806,0.46253853,-0.417523728,0.669911802
223,561732,328880,0.95,-0.084,0.19,-52.4,9.8,-4.7,-3.3,33.3,-12.2,0.404339732,0.461958678,-0.418134098,0.669484542
224,563142,328880,0.946,-0.084,0.198,-53.6,9.9,-5.1,-3.3,33.3,-12.2,0.405041658,0.461378826,-0.418805506,0.669057283
225,567135,328890,0.946,-0.092,0.194,-54.6,10.1,-5.4,-3.3,33.3,-12.2,0.405743583,0.460798975,-0.419446394,0.668599506
226,569225,328890,0.946,-0.1,0.198,-55.6,10.1,-5.7,-3.3,33.3,-12.2,0.406476028,0.460219123,-0.420117801,0.668141728
227,570835,328890,0.946,-0.107,0.205,-56.7,10.2,-6.1,-3.3,33.3,-12.2,0.40723899,0.459608753,-0.420789209,0.66768395
228,574838,328890,0.942,-0.103,0.202,-57.8,10,-6.5,-3.3,33.3,-12.2,0.408001953,0.459028901,-0.421460616,0.667195654
229,576995,328900,0.946,-0.115,0.198,-58.7,9.7,-6.8,-3.3,33.3,-12.2,0.408795434,0.458418531,-0.422162542,0.66667684
230,578969,328900,0.946,-0.115,0.198,-58.7,9.7,-6.8,-3.3,33.3,-12.2,0.408795434,0.458418531,-0.422162542,0.66667684
231,582101,328900,0.946,-0.127,0.198,-61.5,9.4,-7.8,-3.6,33.3,-11.8,0.41010773,0.458510086,-0.42240669,0.665669729
232,584384,328900,0.946,-0.131,0.194,-62.3,9.4,-8.2,-3.6,33.3,-11.8,0.41093173,0.457869198,-0.423139134,0.665120396
233,586793,328910,0.95,-0.131,0.194,-62.9,9.3,-8.6,-3.6,33.3,-11.8,0.41175573,0.457258827,-0.423902097,0.664540544
234,588806,328910,0.946,-0.139,0.194,-62.9,9.3,-8.6,-3.6,33.3,-11.8,0.41257973,0.456648457,-0.424634541,0.663960692
235,591105,328910,0.946,-0.139,0.194,-62.9,9.3,-8.6,-3.6,33.3,-11.8,0.41257973,0.456648457,-0.424634541,0.663960692
236,593150,328910,0.942,-0.139,0.198,-63.7,9,-9.5,-4.3,33.3,-11.7,0.413464766,0.456007569,-0.425366985,0.66338084
237,597023,328920,0.938,-0.142,0.202,-64.1,8.8,-10.3,-4.3,33.3,-11.7,0.415204321,0.454786828,-0.426862392,0.662190619
238,598816,328920,0.938,-0.142,0.202,-64.2,8.5,-10.8,-4.3,33.3,-11.7,0.41605884,0.454176458,-0.427625355,0.661580248
239,600826,328920,0.938,-0.142,0.202,-64.2,8.5,-10.8,-4.3,33.3,-11.7,0.41605884,0.454176458,-0.427625355,0.661580248
240,604654,328920,0.938,-0.146,0.198,-64.2,8.2,-11.2,-4.6,33.5,-11.4,0.416943876,0.453596606,-0.428357799,0.660969878
241,606732,328930,0.93,-0.138,0.194,-64.2,8,-11.6,-4.6,33.5,-11.4,0.417828913,0.452986236,-0.429090243,0.66032899
242,608069,328930,0.934,-0.15,0.202,-64,7.8,-12,-4.6,33.5,-11.4,0.41871395,0.452406384,-0.429822687,0.659688101
243,611357,328930,0.938,-0.142,0.202,-64,7.6,-12.3,-4.6,33.5,-11.4,0.419598987,0.451826533,-0.430555132,0.659047212
244,613602,328930,0.934,-0.146,0.19,-63.9,7.4,-12.7,-4.9,33.7,-11.3,0.420453505,0.451246681,-0.431287576,0.658406323
245,615601,328940,0.926,-0.138,0.198,-63.8,7.2,-13,-4.9,33.7,-11.3,0.421338542,0.450697348,-0.431989502,0.657765435
246,619819,328940,0.922,-0.138,0.198,-63.7,7.1,-13.2,-4.9,33.7,-11.3,0.422223579,0.450117496,-0.432721946,0.657124546
247,621798,328940,0.934,-0.131,0.194,-63.5,7.2,-13.3,-4.9,33.7,-11.3,0.423108615,0.449568163,-0.433423872,0.656453139
248,624105,328940,0.934,-0.131,0.186,-63.2,7.5,-13.6,-2.8,32.6,-10.8,0.423993652,0.448988311,-0.434125797,0.65581225
249,626287,328950,0.934,-0.135,0.182,-63.2,7.7,-13.9,-2.8,32.6,-10.8,0.424909207,0.448438978,-0.434827723,0.655171361
250,628348,328950,0.93,-0.127,0.182,-63.2,7.7,-13.9,-2.8,32.6,-10.8,0.425794244,0.447859127,-0.435529649,0.654499954
251,631675,328950,0.934,-0.127,0.186,-63.2,7.9,-14.2,-2.8,32.6,-10.8,0.426679281,0.447309793,-0.436201056,0.653859066
252,633697,328950,0.934,-0.127,0.186,-63.2,7.9,-14.2,-2.8,32.6,-10.8,0.426679281,0.447309793,-0.436201056,0.653859066
253,636548,328960,0.934,-0.127,0.186,-63.2,7.9,-14.2,-2.8,32.6,-10.8,0.426679281,0.447309793,-0.436201056,0.653859066
254,638218,328960,0.93,-0.123,0.178,-62.9,7.9,-14.8,-4.6,33.9,-10.6,0.427777947,0.447218238,-0.436750389,0.652821436
255,642073,328960,0.934,-0.123,0.178,-63.4,7.9,-15.2,-4.6,33.9,-10.6,0.429578539,0.446089053,-0.438093204,0.65150914
256,644048,328960,0.93,-0.111,0.182,-63.6,8,-15.3,-4.6,33.9,-10.6,0.430494095,0.44553972,-0.438795129,0.650807215
257,645612,328970,0.93,-0.111,0.182,-63.6,8,-15.3,-4.6,33.9,-10.6,0.430494095,0.44553972,-0.438795129,0.650807215
258,649413,328970,0.934,-0.115,0.17,-64,8.4,-15.4,-4,33.8,-9.8,0.431440168,0.444959868,-0.439466536,0.650135807
259,650811,328970,0.934,-0.119,0.167,-64.5,9,-15.4,-4,33.8,-9.8,0.432355724,0.444380016,-0.440137944,0.6494644
260,653886,328970,0.934,-0.119,0.167,-65.4,9.3,-15.5,-4,33.8,-9.8,0.433301798,0.443769646,-0.440839869,0.648792993
261,656690,328980,0.938,-0.119,0.166,-66.2,9.4,-15.6,-4,33.8,-9.8,0.434247871,0.443159276,-0.441541795,0.648091067
262,658667,328980,0.938,-0.111,0.163,-67,9.4,-16,-3.8,34.4,-9.5,0.435224464,0.442548906,-0.442243721,0.647389142
263,660579,328980,0.942,-0.115,0.166,-67.7,9.4,-16.2,-3.8,34.4,-9.5,0.436201056,0.441938536,-0.442945647,0.646656697
264,663549,328980,0.945,-0.119,0.166,-68.4,9.3,-16.4,-3.8,34.4,-9.5,0.437177648,0.441297647,-0.443647572,0.645924253
265,666615,328990,0.942,-0.119,0.17,-69.1,9.4,-16.6,-3.8,34.4,-9.5,0.438154241,0.440687277,-0.444380016,0.645191809
266,669611,328990,0.949,-0.127,0.158,-70.7,9.7,-16.9,-3.8,34.4,-9.5,0.43919187,0.44001587,-0.445112461,0.644428846
267,671236,328990,0.953,-0.123,0.162,-71.5,9.9,-17,-3.8,34.4,-9.5,0.440198981,0.439374981,-0.445875423,0.643665883
268,673607,328990,0.953,-0.127,0.158,-71.5,9.9,-17,-3.8,34.4,-9.5,0.44123661,0.438703574,-0.446607868,0.642902921
269,675667,329000,0.953,-0.131,0.158,-72.2,10.1,-17,-3.8,34.4,-9.5,0.442243721,0.438032167,-0.44737083,0.642139958
270,679293,329000,0.953,-0.131,0.158,-72.2,10.1,-17,-3.8,34.4,-9.5,0.442243721,0.438032167,-0.44737083,0.642139958
271,680687,329000,0.957,-0.131,0.154,-74,10.7,-17.1,-5,34.1,-9.4,0.443311869,0.437330241,-0.448133793,0.641346477
272,683007,329000,0.961,-0.139,0.15,-75.7,11.1,-17.3,-5,34.1,-9.4,0.445448164,0.435895871,-0.449690237,0.639759514
273,686274,329010,0.961,-0.143,0.147,-76.6,11.4,-17.4,-5,34.1,-9.4,0.446516312,0.435163427,-0.450483718,0.638935514
274,688213,329010,0.961,-0.143,0.147,-76.6,11.4,-17.4,-5,34.1,-9.4,0.446516312,0.435163427,-0.450483718,0.638935514
275,691070,329010,0.961,-0.143,0.147,-76.6,11.4,-17.4,-5,34.1,-9.4,0.446516312,0.435163427,-0.450483718,0.638935514
276,694312,329010,0.969,-0.155,0.146,-78.1,12.1,-17.6,-4,34.3,-9,0.447645497,0.434919279,-0.451399274,0.637684256
277,695582,329020,0.969,-0.159,0.142,-78.8,12.4,-17.8,-4,34.3,-9,0.448744163,0.434125797,-0.452192755,0.636860256
278,698600,329020,0.965,-0.159,0.143,-79.4,12.6,-17.9,-4,34.3,-9,0.449873348,0.433362835,-0.453016755,0.636036256
279,701364,329020,0.965,-0.167,0.139,-79.9,12.8,-17.9,-4,34.3,-9,0.451002533,0.432569353,-0.453810236,0.635181738
280,702991,329020,0.969,-0.175,0.135,-80.3,13,-18.4,-4,34.4,-8.8,0.452162236,0.431775872,-0.454634236,0.634327219
281,705935,329030,0.965,-0.175,0.135,-80.3,13,-18.4,-4,34.4,-8.8,0.453291421,0.430982391,-0.455427717,0.633472701
282,708995,329030,0.965,-0.178,0.135,-80.3,13.1,-18.6,-4,34.4,-8.8,0.454420606,0.430158391,-0.456251717,0.632618183
283,711861,329030,0.969,-0.182,0.131,-80.5,13.3,-18.7,-4,34.4,-8.8,0.455549791,0.429395428,-0.457045198,0.631763665
284,713309,329030,0.969,-0.182,0.131,-80.5,13.3,-18.7,-4,34.4,-8.8,0.455549791,0.429395428,-0.457045198,0.631763665
285,716133,329040,0.972,-0.19,0.131,-80.4,13.6,-19.3,-4.4,34.5,-8.2,0.457899716,0.427808466,-0.45863216,0.63002411
286,718171,329040,0.972,-0.194,0.135,-80.2,13.6,-19.4,-4.4,34.5,-8.2,0.459028901,0.427014985,-0.459425642,0.629139073
287,721539,329040,0.976,-0.198,0.131,-80.2,13.6,-19.4,-4.4,34.5,-8.2,0.460188604,0.426221503,-0.460188604,0.628284555
288,723730,329040,0.976,-0.198,0.131,-80.2,13.6,-19.4,-4.4,34.5,-8.2,0.460188604,0.426221503,-0.460188604,0.628284555
289,726842,329050,0.98,-0.194,0.131,-79.4,13.6,-19.5,-5.2,34.5,-7.3,0.461348308,0.425428022,-0.460951567,0.627399518
290,729244,329050,0.98,-0.198,0.135,-79.2,13.6,-19.4,-5.2,34.5,-7.3,0.462477493,0.424634541,-0.461745048,0.626545
291,731437,329050,0.976,-0.21,0.135,-79,13.9,-19.4,-5.2,34.5,-7.3,0.464735862,0.423047578,-0.463240455,0.624805445
292,733727,329050,0.976,-0.21,0.135,-79,13.9,-19.4,-5.2,34.5,-7.3,0.464735862,0.423047578,-0.463240455,0.624805445
293,736282,329060,0.976,-0.206,0.135,-79,13.9,-19.4,-3.6,34.5,-7,0.465895566,0.422254097,-0.464003418,0.623950926
294,738644,329060,0.984,-0.21,0.134,-78.8,13.9,-19.5,-3.6,34.5,-7,0.467024751,0.421460616,-0.464766381,0.623065889
295,740644,329060,0.984,-0.21,0.138,-78.7,13.9,-19.6,-3.6,34.5,-7,0.468153935,0.420667135,-0.465498825,0.622180853
296,744623,329060,0.984,-0.214,0.138,-78.7,13.9,-19.7,-3.6,34.5,-7,0.46928312,0.419873653,-0.466261788,0.621326334
297,746896,329070,0.984,-0.214,0.138,-78.7,13.9,-19.7,-3.6,34.5,-7,0.46928312,0.419873653,-0.466261788,0.621326334
298,748868,329070,0.98,-0.214,0.146,-79,13.8,-19.7,-3.6,34.7,-6.3,0.470076601,0.419263283,-0.46745201,0.620227668
299,752522,329070,0.984,-0.218,0.138,-79.2,13.7,-19.6,-3.6,34.7,-6.3,0.471175268,0.418439283,-0.468184454,0.619342631
300,754841,329070,0.984,-0.218,0.142,-79.2,13.7,-19.6,-3.6,34.7,-6.3,0.472334971,0.417676321,-0.468947417,0.618457595
301,757002,329080,0.988,-0.218,0.138,-79.4,13.5,-19.5,-3.6,34.7,-6.3,0.473464156,0.416882839,-0.469710379,0.617542039
302,759463,329080,0.988,-0.218,0.138,-79.4,13.5,-19.5,-3.6,34.7,-6.3,0.473464156,0.416882839,-0.469710379,0.617542039
303,762171,329080,0.988,-0.218,0.142,-79.7,12.7,-19.6,-4.1,34.9,-5.8,0.474593341,0.41605884,-0.470473342,0.616657002
304,764476,329080,0.992,-0.21,0.142,-79.4,12.1,-19.3,-4.1,34.9,-5.8,0.476821192,0.414502396,-0.471999268,0.614825892
305,766990,329090,0.988,-0.21,0.138,-79.1,11.9,-19.1,-4.1,34.9,-5.8,0.47788934,0.413708914,-0.47276223,0.613910337
306,768849,329090,0.988,-0.21,0.138,-79.1,11.9,-19.1,-4.1,34.9,-5.8,0.47788934,0.413708914,-0.47276223,0.613910337
307,771394,329090,0.988,-0.21,0.138,-78.9,11.9,-19,-5.5,35.3,-5.7,0.478988006,0.412915433,-0.473525193,0.6130253
308,773253,329090,0.984,-0.206,0.134,-78.8,12.1,-18.9,-5.5,35.3,-5.7,0.480086673,0.412121952,-0.474257637,0.612109745
309,777234,329100,0.984,-0.202,0.138,-78.8,12.3,-18.9,-5.5,35.3,-5.7,0.481185339,0.411328471,-0.4750206,0.611194189
310,779379,329100,0.984,-0.206,0.138,-78.7,12.5,-19,-5.5,35.3,-5.7,0.482253487,0.410534989,-0.475753044,0.610309153
311,781540,329100,0.98,-0.198,0.135,-78.5,12.7,-19.1,-4.3,35,-5.4,0.483352153,0.409741508,-0.476516007,0.609393597
312,783362,329100,0.976,-0.206,0.131,-78,12.8,-19.3,-4.3,35,-5.4,0.484450819,0.408948027,-0.477248451,0.60850856
313,785667,329110,0.972,-0.202,0.131,-77.4,12.8,-19.6,-4.3,35,-5.4,0.485518967,0.408154546,-0.477950377,0.607593005
314,788059,329110,0.969,-0.198,0.139,-76.6,13,-19.8,-4.3,35,-5.4,0.486617634,0.407391583,-0.478652303,0.606707968
315,791924,329110,0.965,-0.202,0.135,-75.6,13,-20.3,-4.1,35.4,-4.8,0.487685781,0.40662862,-0.47932371,0.605822932
316,794189,329110,0.965,-0.206,0.127,-75.4,12.8,-20.7,-4.1,35.4,-4.8,0.488753929,0.405865658,-0.479995117,0.604907376
317,796429,329120,0.957,-0.206,0.131,-75.4,12.8,-20.7,-4.1,35.4,-4.8,0.489822077,0.405102695,-0.480697043,0.60402234
318,798299,329120,0.953,-0.21,0.127,-75.3,12.4,-21,-4.1,35.4,-4.8,0.490920743,0.404339732,-0.48136845,0.603106784
319,802422,329120,0.953,-0.21,0.127,-75.3,12.4,-21,-4.1,35.4,-4.8,0.490920743,0.404339732,-0.48136845,0.603106784
320,804630,329120,0.953,-0.21,0.127,-75.3,12.4,-21,-4.1,35.4,-4.8,0.490920743,0.404339732,-0.48136845,0.603106784
321,806826,329130,0.953,-0.21,0.127,-75.3,12.4,-21,-4.1,35.4,-4.8,0.490920743,0.404339732,-0.48136845,0.603106784
322,809167,329130,0.953,-0.21,0.127,-75.3,12.4,-21,-4.1,35.4,-4.8,0.490920743,0.404339732,-0.48136845,0.603106784
323,811315,329130,0.949,-0.206,0.131,-75.7,10.5,-21,-4.4,35.3,-4.3,0.493728446,0.40232551,-0.483901486,0.60011597
324,813245,329130,0.949,-0.206,0.131,-75.9,10.2,-20.9,-4.4,35.3,-4.3,0.494766076,0.401593066,-0.484603412,0.599169897
325,815652,329140,0.945,-0.202,0.127,-76.2,9.7,-20.8,-4.4,35.7,-4.3,0.495803705,0.400860622,-0.485305338,0.598223823
326,818802,329140,0.941,-0.209,0.131,-76.4,9.4,-20.7,-4.4,35.7,-4.3,0.496841334,0.400158696,-0.486007263,0.597277749
327,821796,329140,0.945,-0.202,0.135,-76.5,8.9,-20.6,-4.4,35.7,-4.3,0.497878964,0.399426252,-0.486739708,0.596331675
328,823269,329140,0.949,-0.19,0.131,-76.3,8.6,-20.3,-4.4,35.7,-4.3,0.498916593,0.398693808,-0.487441633,0.595355083
329,825713,329150,0.949,-0.19,0.135,-75.8,8.1,-19.5,-5.2,35.5,-3.6,0.499923704,0.397961364,-0.488174078,0.594409009
330,828153,329150,0.949,-0.182,0.131,-75.8,8,-19.3,-5.2,35.5,-3.6,0.500900296,0.397228919,-0.488906522,0.593462935
331,831882,329150,0.957,-0.186,0.135,-75.8,8,-19.3,-5.2,35.5,-3.6,0.501907407,0.396526994,-0.489638966,0.592516861
332,833990,329150,0.961,-0.19,0.131,-76,7.9,-19.4,-5.2,35.5,-3.6,0.502883999,0.395794549,-0.49037141,0.591570788
333,836192,329160,0.961,-0.19,0.131,-76,7.9,-19.4,-5.2,35.5,-3.6,0.502883999,0.395794549,-0.49037141,0.591570788
334,839337,329160,0.965,-0.178,0.139,-76.1,7.4,-19.6,-5.3,35.7,-3.4,0.50389111,0.395062105,-0.491103854,0.590594195
335,841467,329160,0.976,-0.163,0.135,-75.8,7.7,-19.2,-5.3,35.7,-3.4,0.505844295,0.393597217,-0.492538224,0.588671529
336,844470,329160,0.976,-0.171,0.135,-76.1,8,-19.1,-5.3,35.7,-3.4,0.506820887,0.392864772,-0.493270669,0.587725455
337,846714,329170,0.976,-0.171,0.135,-76.1,8,-19.1,-5.3,35.7,-3.4,0.506820887,0.392864772,-0.493270669,0.587725455
338,848793,329170,0.988,-0.179,0.13,-76.7,8.3,-19.4,-5.3,35.7,-3.4,0.507827998,0.392132328,-0.494003113,0.586748863
339,851819,329170,0.984,-0.179,0.134,-77.3,8.4,-19.7,-5.3,35.7,-3.4,0.508835108,0.391369366,-0.494705039,0.585772271
340,853248,329170,0.984,-0.175,0.138,-77.7,8.5,-20,-5.3,35.7,-3.4,0.509842219,0.390606403,-0.495437483,0.58476516
341,856184,329180,0.992,-0.179,0.13,-78.1,8.6,-20.1,-5.3,35.7,-3.4,0.51084933,0.38984344,-0.496169927,0.583758049
342,859105,329180,0.992,-0.179,0.13,-78.1,8.6,-20.1,-5.3,35.7,-3.4,0.51084933,0.38984344,-0.496169927,0.583758049
343,861837,329180,1,-0.187,0.13,-79.3,8.5,-20.7,-5.7,35.9,-1,0.51167333,0.389324625,-0.497207556,0.58250679
344,864023,329180,1,-0.187,0.13,-80.1,8.4,-20.9,-5.7,35.9,-1,0.512680441,0.388561663,-0.497970519,0.581469161
345,866274,329190,1,-0.199,0.118,-80.8,8.4,-21.2,-5.7,35.9,-1,0.513748589,0.387768181,-0.498702963,0.580431532
346,869308,329190,1.004,-0.21,0.122,-81.4,8.5,-21.4,-5.7,35.9,-1,0.514816736,0.3869747,-0.499465926,0.579363384
347,871638,329190,1,-0.21,0.13,-82.7,8.9,-21.6,-6,36,-3.1,0.515884884,0.386181219,-0.500228889,0.578295236
348,873782,329190,0.996,-0.21,0.126,-83.4,9.3,-21.5,-6,36,-3.1,0.516953032,0.385357219,-0.500961333,0.577227088
349,876823,329200,1,-0.218,0.126,-83.4,9.3,-21.5,-6,36,-3.1,0.51802118,0.384533219,-0.501754814,0.57615894
350,879126,329200,1,-0.218,0.122,-84,10,-21.3,-6,36,-3.1,0.519119846,0.383678701,-0.502517777,0.575060274
351,880723,329200,1,-0.218,0.122,-84,10,-21.3,-6,36,-3.1,0.519119846,0.383678701,-0.502517777,0.575060274
352,883055,329200,1,-0.23,0.115,-85.7,11.1,-21.4,-5.9,36.2,-0.6,0.520218513,0.382824183,-0.50328074,0.573992126
353,887766,329210,0.996,-0.249,0.111,-87.1,12.1,-21.7,-5.9,36.2,-0.6,0.522476882,0.381023591,-0.504837184,0.571764275
354,888096,329210,0.992,-0.257,0.111,-87.6,12.6,-22,-5.9,36.2,-0.6,0.523606067,0.380108036,-0.505600146,0.570665609
355,891314,329210,0.992,-0.257,0.111,-87.6,12.6,-22,-5.9,36.2,-0.6,0.523606067,0.380108036,-0.505600146,0.570665609
356,893487,329210,0.988,-0.269,0.107,-87.9,13.2,-22.2,-5.8,36,-0.2,0.52476577,0.379161962,-0.506363109,0.569536424
357,895734,329220,0.988,-0.277,0.107,-88.1,13.6,-22.4,-5.8,36,-0.2,0.525925474,0.378246406,-0.507095553,0.568437757
358,899562,329220,0.984,-0.281,0.103,-88.3,14.1,-22.6,-5.8,36,-0.2,0.527085177,0.377300333,-0.507858516,0.567308573
359,901807,329220,0.98,-0.296,0.103,-88.3,14.6,-22.9,-5.8,36,-0.2,0.528275399,0.376354259,-0.50859096,0.566179388
360,904138,329220,0.976,-0.312,0.096,-88.3,14.9,-23.2,-6,36,0.3,0.529435102,0.375408185,-0.509323405,0.565050203
361,906289,329230,0.976,-0.316,0.096,-88.3,15.2,-23.5,-6,36,0.3,0.530625324,0.374462111,-0.51002533,0.563921018
362,908285,329230,0.972,-0.323,0.096,-88.2,15.3,-23.8,-6,36,0.3,0.531815546,0.373516037,-0.510757775,0.562791833
363,911392,329230,0.972,-0.335,0.088,-88,15.3,-24.1,-6,36,0.3,0.533005768,0.372569964,-0.5114597,0.561662648
364,914324,329230,0.972,-0.335,0.088,-88,15.3,-24.1,-6,36,0.3,0.533005768,0.372569964,-0.5114597,0.561662648
365,915758,329240,0.972,-0.335,0.088,-88,15.3,-24.1,-6,36,0.3,0.533005768,0.372569964,-0.5114597,0.561662648
366,918958,329240,0.968,-0.366,0.076,-86.5,15.3,-24.9,-6.2,36.2,1.1,0.53419599,0.370342112,-0.514175848,0.559495834
367,922003,329240,0.971,-0.374,0.072,-85.8,15.2,-24.9,-6.2,36.2,1.1,0.535355693,0.369426557,-0.514847255,0.558366649
368,924372,329240,0.971,-0.382,0.076,-85.8,15.2,-24.9,-6.2,36.2,1.1,0.536515397,0.36854152,-0.515518662,0.557237465
369,926585,329250,0.971,-0.382,0.076,-85.8,15.2,-24.9,-6.2,36.2,1.1,0.536515397,0.36854152,-0.515518662,0.557237465
370,928813,329250,0.971,-0.382,0.072,-83.9,15,-24.8,-6.4,36.2,-1.3,0.5376751,0.367625965,-0.516159551,0.55610828
371,930873,329250,0.975,-0.386,0.076,-82.6,15.1,-24.6,-6.4,36.2,-1.3,0.538804285,0.366771447,-0.516800439,0.555009613
372,933118,329250,0.987,-0.394,0.072,-81.1,15.1,-24.4,-6.4,36.2,-1.3,0.53993347,0.36588641,-0.51741081,0.553941465
373,936330,329260,0.983,-0.394,0.064,-79.7,15.1,-24.2,-6.4,36.2,-1.3,0.541032136,0.36506241,-0.517990661,0.552873318
374,938366,329260,0.991,-0.398,0.072,-78.2,15,-23.9,-6.4,36,-0.1,0.542100284,0.364207892,-0.518570513,0.55180517
375,941943,329260,0.987,-0.39,0.072,-76.6,14.8,-23.6,-6.4,36,-0.1,0.543168432,0.363383892,-0.519119846,0.550798059
376,944255,329260,0.987,-0.386,0.084,-75,14.7,-23.2,-6.4,36,-0.1,0.544206061,0.362590411,-0.519669179,0.549790948
377,946440,329270,0.991,-0.39,0.076,-73.3,14.5,-22.8,-6.4,36,-0.1,0.545213172,0.36179693,-0.520187994,0.548783837
378,948672,329270,0.995,-0.394,0.08,-70.7,14.2,-22.2,-6.7,35.9,0.7,0.546220283,0.361033967,-0.520706809,0.547837764
379,951782,329270,0.995,-0.39,0.088,-69.7,14.1,-22.3,-6.7,35.9,0.7,0.547196875,0.360301523,-0.521195105,0.54689169
380,953971,329270,0.995,-0.39,0.084,-69.7,14.1,-22.3,-6.7,35.9,0.7,0.548173467,0.35953856,-0.521683401,0.545945616
381,956254,329280,0.995,-0.398,0.092,-68.9,14,-22.4,-6.7,35.9,0.7,0.549119541,0.358806116,-0.522141179,0.544999542
382,958328,329280,0.995,-0.398,0.092,-68.9,14,-22.4,-6.7,35.9,0.7,0.549119541,0.358806116,-0.522141179,0.544999542
383,961340,329280,0.999,-0.402,0.099,-67.3,13.9,-22.8,-7.4,36.3,0.8,0.550096133,0.35810419,-0.522598956,0.544053468
384,963311,329280,0.995,-0.406,0.103,-65.2,14,-23.2,-7.4,36.3,0.8,0.551988281,0.356730857,-0.523453475,0.542222358
385,966679,329290,0.999,-0.41,0.099,-64.2,14.3,-23.2,-7.4,36.3,0.8,0.552903836,0.356028932,-0.523880734,0.541306803
386,968130,329290,0.999,-0.41,0.099,-64.2,14.3,-23.2,-7.4,36.3,0.8,0.552903836,0.356028932,-0.523880734,0.541306803
387,971092,329290,0.999,-0.41,0.099,-64.2,14.3,-23.2,-7.4,36.3,0.8,0.552903836,0.356028932,-0.523880734,0.541306803
388,974656,329290,0.995,-0.417,0.103,-62.6,15.2,-22.8,-6.9,36.1,2,0.553117466,0.354899747,-0.525070956,0.540696432
389,976397,329300,0.999,-0.437,0.103,-62.1,15.7,-22.6,-6.9,36.1,2,0.554033021,0.354228339,-0.525437178,0.539841914
390,978150,329300,0.999,-0.441,0.103,-61.4,16.1,-22.5,-6.9,36.1,2,0.554979095,0.353556932,-0.5258034,0.538987396
391,981563,329300,0.999,-0.445,0.103,-60.7,16.5,-22.4,-6.9,36.1,2,0.55589465,0.352855007,-0.526139103,0.538132878
392,983204,329300,1.003,-0.461,0.103,-59.9,17,-22.3,-7.3,36.2,1.8,0.556810205,0.352214118,-0.526474807,0.537308878
393,986968,329310,1.003,-0.468,0.103,-59,17.5,-22.2,-7.3,36.2,1.8,0.557725761,0.351542711,-0.526779992,0.536484878
394,989338,329310,1.003,-0.48,0.103,-58,18.1,-22.1,-7.3,36.2,1.8,0.558641316,0.350871303,-0.527054659,0.535691397
395,990797,329310,1.003,-0.48,0.099,-56.9,18.5,-21.9,-7.3,36.2,1.8,0.559526353,0.350199896,-0.527329325,0.534928434
396,994010,329310,1.003,-0.48,0.099,-56.9,18.5,-21.9,-7.3,36.2,1.8,0.559526353,0.350199896,-0.527329325,0.534928434
397,996995,329320,1.014,-0.519,0.099,-53.4,19.1,-21.2,-7.2,36.1,2.1,0.561296426,0.348918119,-0.527787103,0.533433027
398,998348,329320,1.014,-0.519,0.099,-53.4,19.1,-21.2,-7.2,36.1,2.1,0.562181463,0.348307749,-0.528031251,0.532700583
399,1000724,329320,1.002,-0.531,0.092,-51.9,19.4,-20.9,-7.2,36.1,2.1,0.563035981,0.34766686,-0.528214362,0.531998657
400,1004345,329320,1.002,-0.531,0.092,-51.9,19.4,-20.9,-7.2,36.1,2.1,0.563035981,0.34766686,-0.528214362,0.531998657
401,1005736,329330,1.002,-0.554,0.1,-49.1,19.6,-20.2,-6.9,35.8,2.9,0.563859981,0.347087008,-0.528397473,0.53132725
402,1008074,329330,1.006,-0.566,0.099,-47.6,19.4,-20,-6.9,35.8,2.9,0.564683981,0.346507157,-0.528550066,0.530686361
403,1011177,329330,1.01,-0.574,0.095,-44.9,18.5,-19.9,-6.9,35.8,2.9,0.566270943,0.34540849,-0.528855251,0.529435102
404,1014265,329330,1.01,-0.574,0.095,-44.9,18.5,-19.9,-6.9,35.8,2.9,0.566270943,0.34540849,-0.528855251,0.529435102
405,1016490,329340,1.022,-0.594,0.099,-43.6,18.1,-19.8,-7.4,35.9,2.4,0.567033906,0.344889676,-0.528977325,0.528824732
406,1018702,329340,1.022,-0.606,0.099,-42.3,17.8,-19.6,-7.4,35.9,2.4,0.567796869,0.344370861,-0.529099399,0.528214362
407,1021814,329340,1.01,-0.621,0.103,-40.9,17.5,-19.2,-7.4,35.9,2.4,0.568529313,0.343882565,-0.529221473,0.52763451
408,1023229,329340,1.002,-0.621,0.111,-39.2,17.3,-18.5,-7.4,35.9,2.4,0.569231239,0.343424787,-0.529313028,0.527085177
409,1026465,329350,1.002,-0.621,0.111,-39.2,17.3,-18.5,-7.4,35.9,2.4,0.569231239,0.343424787,-0.529313028,0.527085177
410,1029422,329350,1.006,-0.625,0.107,-35.8,16.6,-17.3,-7.4,36.7,4.4,0.569902646,0.342967009,-0.529374065,0.526566362
411,1030804,329350,1.01,-0.64,0.107,-34.4,16.3,-17.1,-7.4,36.7,4.4,0.570543535,0.342570269,-0.529435102,0.526078066
412,1033144,329350,1.014,-0.648,0.107,-33.1,15.9,-17.2,-7.4,36.7,4.4,0.571153905,0.342173528,-0.529496139,0.525620289
413,1035633,329360,1.018,-0.652,0.103,-31.8,15.6,-17.3,-7.4,36.7,4.4,0.571794794,0.341776788,-0.529557176,0.525131993
414,1040111,329360,1.006,-0.656,0.111,-30.1,15.5,-17.1,-7.8,36,2,0.572374645,0.341441084,-0.529557176,0.524704733
415,1042182,329360,1.01,-0.664,0.111,-28.1,15.6,-16.7,-7.8,36,2,0.572954497,0.34110538,-0.529557176,0.524277474
416,1044483,329360,1.006,-0.664,0.111,-25.9,15.7,-16.3,-7.8,36,2,0.573534349,0.340769677,-0.529557176,0.523880734
417,1046845,329370,1.01,-0.668,0.107,-23.6,15.9,-16,-7.8,36,2,0.574083682,0.34049501,-0.529496139,0.52354503
418,1049324,329370,1.01,-0.668,0.107,-23.6,15.9,-16,-7.8,36,2,0.574083682,0.34049501,-0.529496139,0.52354503
419,1051482,329370,1.025,-0.707,0.099,-17.6,16.5,-16,-7.9,35,2.4,0.575090793,0.340006714,-0.52928251,0.52293466
420,1053112,329370,1.017,-0.707,0.1,-15.5,16.8,-15.8,-7.9,35,2.4,0.575579089,0.339793085,-0.529129917,0.522690512
421,1056197,329380,1.013,-0.719,0.1,-15.5,16.8,-15.8,-7.9,35,2.4,0.576067385,0.339609973,-0.528977325,0.522446364
422,1058273,329380,1.013,-0.719,0.1,-15.5,16.8,-15.8,-7.9,35,2.4,0.576067385,0.339609973,-0.528977325,0.522446364
423,1061460,329380,1.021,-0.754,0.096,-10.7,18,-14.7,-7.8,35.4,2.7,0.576525163,0.339426862,-0.528763695,0.522263253
424,1064529,329380,1.025,-0.766,0.088,-8.2,18.7,-14,-7.8,35.4,2.7,0.576952422,0.33927427,-0.528519547,0.522141179
425,1066044,329390,1.009,-0.785,0.096,-3.4,20,-12.2,-7.8,35.4,2.7,0.577776421,0.338999603,-0.527939695,0.521988586
426,1069144,329390,1.009,-0.785,0.096,-3.4,20,-12.2,-7.8,35.4,2.7,0.577776421,0.338999603,-0.527939695,0.521988586
427,1071315,329390,1.009,-0.809,0.092,-1.5,20.6,-11.3,-8,37.1,4,0.578142644,0.338877529,-0.527603992,0.521988586
428,1073381,329390,1.017,-0.844,0.08,-0.1,21,-10.7,-8,37.1,4,0.578508866,0.338755455,-0.527268288,0.522019105
429,1075640,329400,0.997,-0.875,0.081,0.6,21.2,-10.5,-8,37.1,4,0.578875088,0.338633381,-0.526902066,0.522049623
430,1079317,329400,0.989,-0.894,0.085,1.3,21.3,-10.1,-8,37.1,4,0.57924131,0.338541826,-0.526535844,0.522080142
431,1080781,329400,0.989,-0.894,0.085,1.3,21.3,-10.1,-8,37.1,4,0.57924131,0.338541826,-0.526535844,0.522080142
432,1083081,329400,0.978,-0.941,0.081,3.6,21.5,-8.8,-8.2,35.7,3,0.579546495,0.33845027,-0.526169622,0.522171697
433,1085949,329410,0.958,-0.984,0.089,5.3,21.6,-8,-8.2,35.7,3,0.57985168,0.338358715,-0.525772881,0.522293771
434,1089509,329410,0.934,-0.995,0.098,7.4,21.7,-7.1,-8.2,35.7,3,0.580126347,0.338267159,-0.525376141,0.522446364
435,1090901,329410,0.919,-1.014,0.098,9.6,22.1,-5.9,-8.2,35.7,3,0.580370495,0.338206122,-0.524918363,0.522629475
436,1094227,329410,0.907,-1.041,0.098,11.9,22.5,-5.1,-8.4,36,2.8,0.580614643,0.338175604,-0.524460585,0.522873623
437,1096395,329420,0.891,-1.061,0.095,13.9,22.6,-4.5,-8.4,36,2.8,0.580828272,0.338145085,-0.524002808,0.523148289
438,1098696,329420,0.883,-1.08,0.091,16,22.4,-4.4,-8.4,36,2.8,0.581011383,0.338145085,-0.523483993,0.523453475
439,1100847,329420,0.876,-1.095,0.095,18.4,21.8,-4.2,-8.4,36,2.8,0.581163976,0.338175604,-0.522965178,0.52375866
440,1104740,329420,0.844,-1.122,0.096,25.8,20.7,-3.1,-8.2,36.5,2.5,0.581255531,0.338297678,-0.522385327,0.5241554
441,1106551,329430,0.84,-1.134,0.088,25.8,20.7,-3.1,-8.2,36.5,2.5,0.581316568,0.338419752,-0.521805475,0.524582659
442,1108705,329430,0.84,-1.134,0.088,30.8,20.2,-2.1,-8.2,36.5,2.5,0.581347087,0.338602863,-0.521164586,0.525040437
443,1112168,329430,0.832,-1.153,0.084,36.3,19.5,-1,-8.2,36.5,2.5,0.581316568,0.338847011,-0.520493179,0.52558977
444,1113795,329430,0.832,-1.153,0.084,36.3,19.5,-1,-8.2,36.5,2.5,0.581316568,0.338847011,-0.520493179,0.52558977
445,1115858,329440,0.832,-1.165,0.069,48.2,17.5,1.1,-8.3,36.7,2.3,0.581163976,0.339243751,-0.519730216,0.526291696
446,1118222,329440,0.836,-1.181,0.045,62.2,15.2,3.5,-8.3,36.7,2.3,0.580584124,0.340311899,-0.518051698,0.527909177
447,1122126,329440,0.844,-1.181,0.037,62.2,15.2,3.5,-8.3,36.7,2.3,0.580248421,0.340891751,-0.517166662,0.528794214
448,1124455,329440,0.844,-1.181,0.037,62.2,15.2,3.5,-8.3,36.7,2.3,0.580248421,0.340891751,-0.517166662,0.528794214
449,1126674,329450,0.867,-1.193,0.013,79,12.2,6.8,-7.9,35.8,2.8,0.579699087,0.341654714,-0.516129032,0.529862362
450,1128837,329450,0.883,-1.194,-0.002,87.9,10.3,8.6,-7.9,35.8,2.8,0.579088717,0.342570269,-0.515060884,0.531022065
451,1130897,329450,0.898,-1.19,-0.006,97,8.3,10.6,-7.9,35.8,2.8,0.578325755,0.34357738,-0.513901181,0.532303842
452,1133251,329450,0.941,-1.187,-0.019,106.1,6.3,12.8,-7.9,35.8,2.8,0.577440718,0.344676046,-0.512680441,0.533707694
453,1137091,329460,0.941,-1.187,-0.019,106.1,6.3,12.8,-7.9,35.8,2.8,0.577440718,0.344676046,-0.512680441,0.533707694
454,1139344,329460,0.968,-1.187,-0.023,123.2,3.2,17.6,-7.8,35.6,1.9,0.576342051,0.345988342,-0.511337626,0.535325175
455,1140805,329460,0.992,-1.192,-0.031,138.4,1,23.4,-7.8,35.6,1.9,0.573809015,0.348857082,-0.508468886,0.53889584
456,1144053,329460,0.999,-1.196,-0.047,145.2,0.1,26.1,-7.8,35.6,1.9,0.572405164,0.350383007,-0.506973479,0.540849025
457,1146120,329470,0.999,-1.196,-0.047,145.2,0.1,26.1,-7.8,35.6,1.9,0.572405164,0.350383007,-0.506973479,0.540849025
458,1149322,329470,1.034,-1.216,-0.079,151.3,-0.3,28.6,-7.7,35.7,1.3,0.570909757,0.35196997,-0.505386517,0.542863247
459,1151471,329470,1.03,-1.224,-0.091,157.1,-0.9,30.8,-7.7,35.7,1.3,0.569322794,0.353587451,-0.503769036,0.544969024
460,1153712,329470,1.034,-1.228,-0.095,163.2,-1.4,33.3,-7.7,35.7,1.3,0.567644276,0.355265969,-0.502121036,0.547166356
461,1155839,329480,1.026,-1.224,-0.102,169.5,-1.9,36,-7.7,35.7,1.3,0.565874203,0.356975005,-0.500381481,0.549455245
462,1158153,329480,1.011,-1.236,-0.106,175.8,-2.5,38.9,-7.5,35.6,0.4,0.564012574,0.358745079,-0.498611408,0.551835688
463,1161135,329480,1.007,-1.239,-0.114,181.7,-3.2,41.6,-7.5,35.6,0.4,0.562028871,0.360576189,-0.496780297,0.554277169
464,1164346,329480,0.987,-1.255,-0.117,186.6,-4.1,44.3,-7.5,35.6,0.4,0.55998413,0.362437819,-0.494918668,0.556810205
465,1166544,329490,0.991,-1.263,-0.117,190.9,-4.9,46.6,-7.5,35.6,0.4,0.557847835,0.364329966,-0.493026521,0.559404279
466,1168720,329490,0.991,-1.263,-0.117,190.9,-4.9,46.6,-7.5,35.6,0.4,0.557847835,0.364329966,-0.493026521,0.559404279
467,1172644,329490,0.928,-1.273,-0.112,200.7,-5.8,54,-7.5,35.6,0.4,0.55323954,0.368175298,-0.489120151,0.564867092
468,1175042,329490,0.905,-1.277,-0.116,200.7,-5.8,54,-7.5,35.6,0.4,0.550889615,0.370067446,-0.487166967,0.567613758
469,1176834,329500,0.893,-1.277,-0.111,203.6,-5.7,56.8,-7.5,35.6,0.4,0.548478652,0.371990112,-0.485152745,0.570390942
470,1179026,329500,0.893,-1.277,-0.111,203.6,-5.7,56.8,-7.5,35.6,0.4,0.548478652,0.371990112,-0.485152745,0.570390942
471,1181296,329500,0.874,-1.276,-0.123,209.4,-5.8,61.6,-7.6,36.3,-1.9,0.545945616,0.373912778,-0.483108005,0.573290201
472,1183279,329500,0.866,-1.276,-0.123,212.4,-5.8,63.1,-7.6,36.3,-1.9,0.543351543,0.375835444,-0.481032746,0.576250496
473,1185653,329510,0.862,-1.276,-0.142,215.8,-5.9,64.2,-7.6,36.3,-1.9,0.540726951,0.377788629,-0.478896451,0.579210791
474,1189619,329510,0.866,-1.264,-0.134,219.8,-6,65.1,-7.6,36.3,-1.9,0.538010804,0.379772332,-0.476729637,0.582232124
475,1191939,329510,0.866,-1.264,-0.134,219.8,-6,65.1,-7.6,36.3,-1.9,0.538010804,0.379772332,-0.476729637,0.582232124
476,1194029,329510,0.854,-1.249,-0.15,228.6,-5.5,67.7,-7.7,35.9,-3.3,0.535172582,0.381817072,-0.474440748,0.585345012
477,1196307,329520,0.85,-1.241,-0.177,232.8,-4.9,69.3,-7.7,35.9,-3.3,0.532303842,0.383892331,-0.472121342,0.588518937
478,1198257,329520,0.846,-1.237,-0.197,236.9,-4.2,71.1,-7.7,35.9,-3.3,0.529343547,0.385937071,-0.469710379,0.59172338
479,1201865,329520,0.838,-1.241,-0.212,241.2,-3.8,73,-7.7,35.9,-3.3,0.526322214,0.388042848,-0.46723838,0.595019379
480,1203199,329520,0.838,-1.237,-0.248,246,-3.7,74.9,-7.3,35.6,-4.8,0.523239845,0.390148625,-0.464705344,0.598345897
481,1206416,329530,0.838,-1.237,-0.267,251.5,-4.1,77.1,-7.3,35.6,-4.8,0.520035401,0.392284921,-0.462141789,0.601733451
482,1208654,329530,0.818,-1.237,-0.298,257.7,-4.5,79.5,-7.3,35.6,-4.8,0.516739402,0.394451735,-0.45945616,0.605182043
483,1211367,329530,0.822,-1.229,-0.314,264.4,-4.7,82.1,-7.3,35.6,-4.8,0.513321329,0.396649068,-0.456740013,0.608691671
484,1214141,329530,0.822,-1.229,-0.314,264.4,-4.7,82.1,-7.3,35.6,-4.8,0.513321329,0.396649068,-0.456740013,0.608691671
485,1216902,329540,0.833,-1.179,-0.396,279.2,-4.2,88,-7,35.4,-5.9,0.505996887,0.401226844,-0.450910978,0.616107669
486,1218277,329540,0.857,-1.168,-0.409,287.1,-3.6,90.7,-7,35.4,-5.9,0.50224311,0.403546251,-0.447859127,0.619891964
487,1220602,329540,0.865,-1.16,-0.432,295.3,-2.9,93,-7,35.4,-5.9,0.498336741,0.405926695,-0.44471572,0.623767815
488,1223798,329540,0.865,-1.16,-0.432,295.3,-2.9,93,-7,35.4,-5.9,0.498336741,0.405926695,-0.44471572,0.623767815
489,1226080,329550,0.872,-1.098,-0.464,313.6,-2.4,96.4,-4.5,34.3,-7.4,0.494216742,0.408398694,-0.441297647,0.627796258
490,1228133,329550,0.868,-1.059,-0.487,323.9,-3.3,98.2,-4.5,34.3,-7.4,0.489913633,0.410992767,-0.437788018,0.631946776
491,1231775,329550,0.876,-1.013,-0.534,334.2,-4.6,100.9,-4.5,34.3,-7.4,0.481002228,0.416302988,-0.430402539,0.640339366
492,1234083,329550,0.876,-1.013,-0.534,334.2,-4.6,100.9,-4.5,34.3,-7.4,0.481002228,0.416302988,-0.430402539,0.640339366
493,1236277,329560,0.931,-0.967,-0.579,350.3,-6.2,110.2,-5.9,33.8,-8.7,0.476210822,0.419019135,-0.426587725,0.644703513
494,1238345,329560,0.958,-0.944,-0.583,356.4,-6.1,115.7,-5.9,33.8,-8.7,0.471236305,0.421704764,-0.422681356,0.649128697
495,1240686,329560,0.997,-0.89,-0.627,362.4,-5.7,121,-5.9,33.8,-8.7,0.466139714,0.424390393,-0.418683432,0.653645436
496,1244523,329560,0.989,-0.871,-0.646,369.1,-5.3,125.8,-5.9,33.8,-8.7,0.460860012,0.427045503,-0.41462447,0.658223212
497,1246456,329570,0.989,-0.871,-0.646,369.1,-5.3,125.8,-5.9,33.8,-8.7,0.460860012,0.427045503,-0.41462447,0.658223212
498,1248373,329570,1.021,-0.766,-0.675,385.5,-7,133.8,-5.2,33.2,-10.1,0.455244606,0.429792169,-0.410412915,0.662953581
499,1250580,329570,1.032,-0.739,-0.698,394.1,-9.6,136.8,-5.2,33.2,-10.1,0.449476608,0.432599872,-0.406048769,0.667744987
500,1253684,329570,1.028,-0.707,-0.71,402,-12.7,139.4,-5.2,33.2,-10.1,0.443525498,0.43549913,-0.401623585,0.672505875
501,1255872,329580,1.029,-0.668,-0.706,409.1,-16.4,142.2,-5.2,33.2,-10.1,0.437391278,0.438428907,-0.397106845,0.677297281
502,1258093,329580,1.048,-0.598,-0.711,415.7,-20.8,145.5,-4.5,32.3,-12,0.431043428,0.441419721,-0.392559587,0.682058168
503,1261104,329580,1.052,-0.563,-0.715,422.3,-26.5,149.4,-4.5,32.3,-12,0.424512467,0.444471572,-0.387920774,0.686788537
504,1264239,329580,1.072,-0.528,-0.711,429,-32.6,153.9,-4.5,32.3,-12,0.417737358,0.447614978,-0.383281961,0.691488388
505,1265644,329590,1.151,-0.424,-0.686,435.6,-38,158.8,-4.5,32.3,-12,0.410748619,0.450819422,-0.37858211,0.696188238
506,1268574,329590,1.151,-0.424,-0.686,435.6,-38,158.8,-4.5,32.3,-12,0.410748619,0.450819422,-0.37858211,0.696188238
507,1271753,329590,1.311,-0.298,-0.665,447,-43.2,169,-3.4,31.6,-14.1,0.396038697,0.457258827,-0.369029817,0.705587939
508,1273170,329590,1.331,-0.275,-0.662,449.8,-42.2,174.7,-3.4,31.6,-14.1,0.388500626,0.460341197,-0.364177374,0.710257271
509,1276169,329600,1.327,-0.267,-0.681,450.4,-39.4,181.1,-3.4,31.6,-14.1,0.380809961,0.463301492,-0.359324931,0.714926603
510,1279327,329600,1.327,-0.267,-0.681,450.4,-39.4,181.1,-3.4,31.6,-14.1,0.380809961,0.463301492,-0.359324931,0.714926603
511,1280955,329600,1.315,-0.212,-0.662,448.4,-32.3,194.7,-1.7,29.5,-15.9,0.372966704,0.465987121,-0.354564043,0.71968749
512,1283097,329600,1.319,-0.185,-0.654,448.1,-30.4,200.5,-1.7,29.5,-15.9,0.365001373,0.468550676,-0.349803156,0.724448378
513,1286055,329610,1.284,-0.184,-0.685,448.4,-30,204.8,-1.7,29.5,-15.9,0.356944487,0.470992157,-0.34501175,0.729148228
514,1289317,329610,1.261,-0.164,-0.735,448.4,-30,204.8,-1.7,29.5,-15.9,0.348826563,0.473403119,-0.340189825,0.733787042
515,1291771,329610,1.253,-0.164,-0.751,452.4,-33.7,208.6,-0.5,26.8,-18.8,0.340525529,0.475814081,-0.335337382,0.7383343
516,1293258,329610,1.214,-0.105,-0.754,457.7,-38.6,209.1,-0.5,26.8,-18.8,0.33210242,0.478255562,-0.330423902,0.742790002
517,1296708,329620,1.237,-0.035,-0.751,465.5,-45.7,209.4,-0.5,26.8,-18.8,0.323526719,0.480849635,-0.32535783,0.74712363
518,1299076,329620,1.257,0.01,-0.731,474.3,-54.2,209.5,-0.5,26.8,-18.8,0.31470687,0.483565783,-0.320200201,0.751365703
519,1301261,329620,1.257,0.01,-0.731,474.3,-54.2,209.5,-0.5,26.8,-18.8,0.31470687,0.483565783,-0.320200201,0.751365703
520,1303401,329620,1.282,0.143,-0.638,485.9,-71.1,211.1,0,24.9,-20.3,0.305612354,0.486556597,-0.314920499,0.755394147
521,1307363,329630,1.22,0.223,-0.563,484.4,-77.2,213.2,0,24.9,-20.3,0.296395764,0.489547411,-0.309701834,0.759300516
522,1309628,329630,1.158,0.33,-0.507,475.9,-80.9,215.5,0,24.9,-20.3,0.287179174,0.492477187,-0.304605243,0.762993255
523,1311829,329630,1.185,0.341,-0.488,458.7,-82.8,218.2,0,24.9,-20.3,0.27805414,0.495254372,-0.299813837,0.766472365
524,1314065,329630,1.555,0.135,-0.6,432.4,-83.1,220.9,0,23.1,-21.7,0.269112217,0.497787408,-0.295480209,0.769676809
525,1317718,329640,1.555,0.135,-0.6,400.7,-81.2,223.1,0,23.1,-21.7,0.260475478,0.500045778,-0.291634877,0.772667623
526,1319475,329640,1.641,0.098,-0.656,371.7,-76.3,223.8,0,23.1,-21.7,0.252143925,0.501998962,-0.288216803,0.775414289
527,1321717,329640,1.734,0.033,-0.776,353.3,-68.7,223.8,0,23.1,-21.7,0.24405652,0.50367748,-0.285042879,0.778099918
528,1323975,329640,1.734,0.033,-0.776,353.3,-68.7,223.8,0,23.1,-21.7,0.24405652,0.50367748,-0.285042879,0.778099918
529,1325922,329650,1.82,0.215,-0.813,357,-52.5,221.6,0,21.4,-23.2,0.228003784,0.506515702,-0.278511917,0.783501694
530,1328287,329650,1.855,0.222,-0.884,369.2,-47.1,215,0,21.4,-23.2,0.219946898,0.507827998,-0.274788659,0.78624836
531,1332149,329650,1.912,0.158,-0.983,377.5,-44.6,201.4,0,21.4,-23.2,0.212012085,0.509170812,-0.270760216,0.788933988
532,1334588,329650,1.912,0.158,-0.983,377.5,-44.6,201.4,0,21.4,-23.2,0.212012085,0.509170812,-0.270760216,0.788933988
533,1336882,329660,1.969,-0.124,-1.101,373,-45.9,158.4,1,19.8,-24,0.204870754,0.510727256,-0.266304514,0.791344951
534,1339304,329660,2.267,-0.136,-0.997,372.4,-45.8,135.6,1,19.8,-24,0.190923795,0.513840144,-0.257057405,0.795831172
535,1341366,329660,2.471,0.173,-0.934,382.2,-42.2,115.8,1,19.8,-24,0.184392834,0.515518662,-0.251899777,0.797967467
536,1343228,329660,2.471,0.173,-0.934,382.2,-42.2,115.8,1,19.8,-24,0.184392834,0.515518662,-0.251899777,0.797967467
537,1347398,329670,2.327,0.21,-0.979,413.9,-17.7,102,1,18.2,-24.8,0.177831355,0.516891995,-0.245887631,0.800408948
538,1349515,329670,2.081,0.3,-0.943,420.1,5.4,115.9,1,18.2,-24.8,0.171117283,0.517777032,-0.239844966,0.803155614
539,1351703,329670,1.457,0.546,-0.873,418.4,32.4,140.8,1,18.2,-24.8,0.157292398,0.518814661,-0.22788171,0.80877102
540,1354007,329670,1.457,0.546,-0.873,418.4,32.4,140.8,1,18.2,-24.8,0.157292398,0.518814661,-0.22788171,0.80877102
541,1355880,329680,1.54,0.993,-0.95,413.9,72.8,191.6,1.5,16.4,-25.3,0.149571215,0.517960143,-0.222479934,0.812280648
542,1358130,329680,1.443,1.096,-1.007,410.3,87.2,212.8,1.5,16.4,-25.3,0.141575365,0.516708884,-0.217322306,0.815912351
543,1360720,329680,1.435,1.26,-1.07,395.4,109.5,236.8,1.5,16.4,-25.3,0.133426923,0.514816736,-0.212591937,0.819696646
544,1364744,329680,1.423,1.116,-1.085,360.8,148.2,266.8,1.5,16.4,-25.3,0.125278481,0.511947996,-0.208685568,0.823755608
545,1367031,329690,1.483,0.497,-1.058,306.8,203.8,298.1,2.5,14.5,-25.4,0.117404706,0.507766961,-0.205938902,0.82821131
546,1369260,329690,1.686,0.143,-0.869,240.8,270.4,319,2.5,14.5,-25.4,0.110202338,0.502029481,-0.204412976,0.833063753
547,1371462,329690,1.686,0.143,-0.869,179.4,336.6,320.4,2.5,14.5,-25.4,0.103885006,0.49488815,-0.203833125,0.838282418
548,1373345,329690,1.7,0.199,-0.579,139.7,390.3,307.5,2.5,14.5,-25.4,0.0984832301,0.486648152,-0.203711051,0.843745231
549,1375738,329700,0.673,-0.11,0.305,126.5,422.7,299.6,3.9,13.1,-25.4,0.093508713,0.477767266,-0.203650014,0.849391156
550,1379553,329700,0.591,-0.338,0.53,128.4,428.8,315.3,3.9,13.1,-25.4,0.0882290109,0.46867275,-0.203650014,0.855006561
551,1381790,329700,0.591,-0.338,0.53,127.5,407.3,355.8,3.9,13.1,-25.4,0.0820947905,0.459700308,-0.204107791,0.860347301
552,1383968,329700,0.356,-0.666,0.605,112.9,361.1,406.9,3.9,13.1,-25.4,0.0749229408,0.4512772,-0.205420087,0.865169225
553,1386213,329710,1.487,0.294,0.383,85,298.9,452.4,6.5,12.2,-25.1,0.0668660543,0.443708609,-0.207770013,0.86916715
554,1388248,329710,2.093,0.767,0.899,47,235.8,493,6.5,12.2,-25.1,0.0581377606,0.437025056,-0.211279641,0.872310556
555,1390665,329710,2.093,0.767,0.899,0,189.7,546.5,6.5,12.2,-25.1,0.0486159856,0.430860317,-0.21622364,0.874752037
556,1394606,329710,5.407,2.187,3.869,-51.7,174.5,626.1,6.5,12.2,-25.1,0.0379650258,0.424481948,-0.222876675,0.876705222
557,1396239,329720,8.02,2.904,2.198,-85.7,188.3,714.1,7.3,11.8,-24.7,0.0260017701,0.41727958,-0.23096408,0.878536332
558,1398252,329720,7.985,1.98,-1.412,-66.2,197.7,755.6,7.3,11.8,-24.7,0.0131229591,0.409588916,-0.238959929,0.880275887
559,1401589,329720,5.413,1.704,-5.095,20.8,147.3,693.6,7.3,11.8,-24.7,0.000366222114,0.403088473,-0.244697409,0.881801813
560,1403828,329720,1.41,2.369,-7.414,166.1,6.9,515.3,7.3,11.8,-24.7,0.0109256264,-0.400189215,0.246009705,-0.88268685
561,1406015,329730,1.41,2.369,-7.414,166.1,6.9,515.3,7.3,11.8,-24.7,0.0109256264,-0.400189215,0.246009705,-0.88268685
562,1408241,329730,1.325,5.916,-8.026,568.9,-379.2,15.1,8.9,10.5,-24.4,0.0181890316,-0.40723899,0.235084078,-0.882351146
563,1412087,329730,1.297,7.907,-7.751,778.9,-479.7,-177.7,8.9,10.5,-24.4,0.0241706595,-0.416974395,0.21826838,-0.881954405
564,1414442,329730,2.134,7.907,-4.161,778.9,-479.7,-177.7,8.9,10.5,-24.4,0.0301217689,-0.426557207,0.201361126,-0.881221961
565,1416191,329740,-0.035,7.956,-2.535,918.9,-447.5,-287.7,8.9,10.5,-24.4,0.0350962859,-0.43571276,0.180669576,-0.88103885
566,1419648,329740,-1.14,7.693,-0.983,725.5,64.9,-233.1,6.1,7,-25.6,0.0372631001,-0.434766686,0.164525285,-0.884578997
567,1421864,329740,-1.253,4.414,1.612,378.3,426.7,-108.4,6.1,7,-25.6,0.0372020631,-0.426587725,0.156529435,-0.890011292
568,1424264,329740,-1.555,3.525,2.598,378.3,426.7,-108.4,6.1,7,-25.6,0.037141026,-0.418317209,0.148503067,-0.895290994
569,1426390,329750,-2.238,3.221,3.481,-47.7,706.5,13.1,6.1,7,-25.6,0.0346995453,-0.404461806,0.150120548,-0.901455733
570,1428638,329750,-2.268,2.67,2.672,-797.7,781.4,106.6,9.2,6.6,-24.4,0.0271919919,-0.38923307,0.167302469,-0.905392621
571,1431797,329750,-1.863,1.911,1.472,-1009.4,601.5,71.8,9.2,6.6,-24.4,0.0178228095,-0.377544481,0.188146611,-0.906460768
572,1433953,329750,-1.851,1.32,1.214,-1009.4,601.5,71.8,9.2,6.6,-24.4,0.00845362712,-0.365642262,0.208868679,-0.906949065
573,1436181,329760,-1.724,0.957,1.091,-1086.8,357.8,2.7,9.2,6.6,-24.4,0.00177007355,0.358623005,-0.230384228,0.904568621
574,1439303,329760,-1.018,0.54,0.546,-952.7,-74.1,-157.5,10.3,10.4,-23.9,0.0119632557,0.360759301,-0.247901852,0.898983734
575,1440819,329760,-0.565,0.018,0.057,-845.4,-214.9,-229.8,10.3,10.4,-23.9,0.0219428083,0.365947447,-0.26270333,0.892483291
576,1444223,329760,-0.075,-0.232,-0.064,-845.4,-214.9,-229.8,10.3,10.4,-23.9,0.0319223609,0.370952483,-0.277382733,0.885647145
577,1446324,329770,0.552,-0.575,-0.067,-766.4,-308.2,-293.1,10.3,10.4,-23.9,0.041932432,0.378093814,-0.289986877,0.878139592
578,1448542,329770,2.123,-1.583,-0.138,-743.4,-385.9,-365.2,9.4,14.5,-23.1,0.0526139103,0.387035737,-0.301492355,0.869747002
579,1451695,329770,2.95,-1.956,-0.07,-794.7,-381.2,-350.4,9.4,14.5,-23.1,0.0634479812,0.39558092,-0.314004944,0.860713523
580,1453726,329770,4.141,-2.731,-0.299,-794.7,-381.2,-350.4,9.4,14.5,-23.1,0.0742820521,0.40397351,-0.32636494,0.851313822
581,1456109,329780,5.765,-4.352,-0.929,-870.2,-350.4,-283.3,9.4,14.5,-23.1,0.0846888638,0.410992767,-0.340525529,0.841395306
582,1459115,329780,5.765,-4.352,-0.929,-870.2,-350.4,-283.3,9.4,14.5,-23.1,0.0846888638,0.410992767,-0.340525529,0.841395306
583,1461228,329780,2.561,-8.085,-2.405,-1046.1,-312.5,296.5,7.5,18.9,-22.7,0.0923795282,0.415051729,-0.382183294,0.82042909
584,1464323,329780,1.22,-8.021,-1.389,-999.9,-361.7,543.1,7.5,18.9,-22.7,0.0886867885,0.414838099,-0.405590991,0.809625538
585,1466618,329790,0.298,-6.776,-0.059,-843.9,-367.6,695.7,7.5,18.9,-22.7,0.0807519761,0.413403729,-0.427381207,0.799920652
586,1468739,329790,0.298,-6.776,-0.059,-843.9,-367.6,695.7,7.5,18.9,-22.7,0.0807519761,0.413403729,-0.427381207,0.799920652
587,1471798,329790,-0.993,-2.882,0.666,-283.3,-95.5,553.4,7.5,22.2,-20,0.0633869442,0.406476028,-0.454206977,0.790185247
588,1474146,329790,-0.952,-1.662,0.909,-3.6,118.7,358.4,7.5,22.2,-20,0.0583819086,0.400860622,-0.457289346,0.791680654
589,1476291,329800,-0.62,-1.636,1.024,205,298.1,191.1,7.5,22.2,-20,0.0562761315,0.394024476,-0.455000458,0.796533097
590,1479550,329800,-0.62,-1.636,1.024,205,298.1,191.1,7.5,22.2,-20,0.0562761315,0.394024476,-0.455000458,0.796533097
591,1480875,329800,0.219,-1.42,0.241,362,400.4,56.2,8.6,22.1,-20.9,0.0556962798,0.379467147,-0.443250832,0.810174871
592,1483907,329800,0.491,-1.582,0.037,346.2,333.7,62.7,8.6,22.1,-20.9,0.0549638356,0.373363445,-0.437238685,0.816309091
593,1486776,329810,0.784,-1.321,-0.004,313.8,231.7,87.5,8.6,22.1,-20.9,0.053071688,0.36875515,-0.432050539,0.82125309
594,1488170,329810,0.784,-1.321,-0.004,313.8,231.7,87.5,8.6,22.1,-20.9,0.053071688,0.36875515,-0.432050539,0.82125309
595,1492014,329810,1.414,-0.957,-0.079,286.2,47.5,135.6,8.6,22.1,-20.9,0.0455946532,0.363872188,-0.423444319,0.828333384
596,1494436,329810,1.769,-0.52,0.25,288.7,-2.1,149.9,8.6,22.1,-20.9,0.0405590991,0.362804041,-0.419415876,0.831110569
597,1496518,329820,2.134,-0.287,0.383,287.4,-23.3,161,8.6,22.1,-20.9,0.0351573229,0.362010559,-0.415478988,0.833674123
598,1498794,329820,2.134,-0.287,0.383,287.4,-23.3,161,8.6,22.1,-20.9,0.0351573229,0.362010559,-0.415478988,0.833674123
599,1500873,329820,2.835,0.014,0.569,277.6,-27,171.1,8.6,22.1,-20.9,0.0296029542,0.361156041,-0.411816767,0.836085086
600,1503117,329820,2.956,0.736,0.131,259.3,-24,178.5,8.6,22.1,-20.9,0.0185247353,0.35914182,-0.405072176,0.840571306
601,1506250,329830,2.653,1.238,0.175,279.8,-28.1,168,8.6,22.1,-20.9,0.013000885,0.358287301,-0.401257363,0.842860195
602,1508409,329830,2.653,1.238,0.175,279.8,-28.1,168,8.6,22.1,-20.9,0.013000885,0.358287301,-0.401257363,0.842860195
603,1510626,329830,1.879,1.411,0.013,377.7,-40.9,116.2,8.6,22.1,-20.9,0.00753807184,0.35810419,-0.395214698,0.845851009
604,1513018,329830,1.51,1.613,0.243,410.5,-36.7,83.3,8.6,22.1,-20.9,0.00247199927,0.358134709,-0.388286996,0.849085971
605,1516132,329840,1.191,1.6,0.448,408.3,-18.9,52.4,8.6,22.1,-20.9,0.00180059206,-0.358043153,0.381115146,-0.852351451
606,1518281,329840,0.896,1.728,0.692,408.3,-18.9,52.4,8.6,22.1,-20.9,0.0061342204,-0.357890561,0.373912778,-0.855555895
607,1522158,329840,0.607,1.502,0.8,309.8,36.8,6.1,8.6,22.1,-20.9,0.0083620716,-0.357127598,0.368175298,-0.858363598
608,1524318,329840,0.509,1.379,0.861,235.3,54,-4.4,8.6,22.1,-20.9,0.0096743675,-0.356120487,0.363719596,-0.860652486
609,1526570,329850,0.342,1.598,0.95,161.5,56.8,-2.8,8.6,22.1,-20.9,0.0104373302,-0.355021821,0.360698263,-0.862392041
610,1528815,329850,0.189,1.4,0.851,161.5,56.8,-2.8,8.6,22.1,-20.9,0.0111697745,-0.353953673,0.357646413,-0.864101077
611,1530889,329850,0.287,0.811,0.557,32,31.1,30,11.2,15.2,-22.2,0.0117496261,-0.353099155,0.35728019,-0.864558855
612,1533096,329850,0.287,0.811,0.557,-23.2,13.9,40,11.2,15.2,-22.2,0.0122074038,-0.352549821,0.358012635,-0.864497818
613,1536270,329860,0.356,0.599,0.489,-66.2,-1.3,34,11.2,15.2,-22.2,0.0123599963,-0.352305673,0.35953856,-0.863948485
614,1538311,329860,0.379,0.403,0.446,-66.2,-1.3,34,11.2,15.2,-22.2,0.0125125889,-0.352092044,0.361033967,-0.863399152
615,1541461,329860,0.424,0.007,0.458,-99.8,-22.4,-2.3,11.1,15.8,-22.6,0.0118717002,-0.352549821,0.362895596,-0.862453078
616,1544440,329860,0.424,0.007,0.458,-95.6,-29.1,-15.3,11.1,15.8,-22.6,0.0110782189,-0.353251747,0.364574114,-0.861476485
617,1545743,329870,0.467,-0.09,0.477,-87.2,-32.7,-21.2,11.1,15.8,-22.6,0.0102542192,-0.354045228,0.366039003,-0.860530412
618,1548951,329870,0.599,-0.311,0.529,-87.2,-32.7,-21.2,11.1,15.8,-22.6,0.00946073794,-0.354869228,0.367503891,-0.859584338
619,1552170,329870,0.736,-0.47,0.531,-83.3,-28.6,-19,11.3,16.1,-21.8,0.00866725669,-0.355571154,0.368907743,-0.858699301
620,1554206,329870,0.786,-0.553,0.499,-90.7,-21.9,-14.6,11.3,16.1,-21.8,0.00787377544,-0.356120487,0.370494705,-0.857783746
621,1555654,329880,0.813,-0.6,0.483,-101.5,-13.5,-9.5,11.3,16.1,-21.8,0.00701925718,-0.356456191,0.372325816,-0.856868191
622,1559701,329880,0.789,-0.647,0.433,-101.5,-13.5,-9.5,11.3,16.1,-21.8,0.00616473891,-0.356791894,0.374126408,-0.855922117
623,1561650,329880,0.789,-0.647,0.433,-101.5,-13.5,-9.5,11.3,16.1,-21.8,0.00616473891,-0.356791894,0.374126408,-0.855922117
624,1563039,329880,0.652,-0.696,0.322,-130,12.4,8.1,11,16.5,-23.2,0.00518814661,-0.356517228,0.376628925,-0.854976043
625,1567036,329890,0.565,-0.738,0.245,-130,12.4,8.1,11,16.5,-23.2,0.00424207282,-0.356242561,0.379131443,-0.853999451
626,1569118,329890,0.553,-0.773,0.245,-134,17,15.8,11,16.5,-23.2,0.00335703604,-0.355784783,0.381725517,-0.853022858
627,1570590,329890,0.565,-0.824,0.261,-134.8,17.1,23.4,11,16.5,-23.2,0.00259407331,-0.355296487,0.384441664,-0.852015748
628,1573266,329890,0.585,-0.882,0.331,-129.1,7.6,35.7,11,17.3,-21.7,0.00219733268,-0.35483871,0.387096774,-0.850978118
629,1576354,329900,0.573,-0.913,0.359,-129.1,7.6,35.7,11,17.3,-21.7,0.00180059206,-0.354411451,0.389782403,-0.849940489
630,1579659,329900,0.569,-0.991,0.351,-123.9,3.5,40,11,17.3,-21.7,0.00155644398,-0.353984191,0.392376476,-0.84890286
631,1581527,329900,0.58,-1.046,0.343,-118.5,2.6,43.9,11,17.3,-21.7,0.00143436995,-0.353587451,0.394909513,-0.847926267
632,1583113,329900,0.565,-1.046,0.324,-108.1,7.7,50.1,11,17.4,-21.6,0.00143436995,-0.353007599,0.397320475,-0.847041231
633,1586827,329910,0.557,-1.022,0.324,-108.1,7.7,50.1,11,17.4,-21.6,0.00146488845,-0.352427747,0.399700919,-0.846156194
634,1588320,329910,0.553,-0.995,0.316,-101.7,11.2,50.7,11,17.4,-21.6,0.00152592547,-0.351786859,0.401959288,-0.845362712
635,1592145,329910,0.557,-0.952,0.293,-94.5,14.7,49.1,11,17.4,-21.6,0.00158696249,-0.351084933,0.404065065,-0.844630268
636,1593551,329910,0.584,-0.922,0.269,-83.5,20.4,41.1,11.3,18.1,-21.8,0.00152592547,-0.350352489,0.405926695,-0.844050417
637,1596629,329920,0.615,-0.934,0.264,-79.9,22.3,35.7,11.3,18.1,-21.8,0.00137333293,-0.349620045,0.40766625,-0.843501083
638,1599628,329920,0.651,-0.919,0.263,-79.9,22.3,35.7,11.3,18.1,-21.8,0.00122074038,-0.3488876,0.409436323,-0.84295175
639,1601103,329920,0.666,-0.892,0.275,-75.7,23.9,29.6,11.3,18.1,-21.8,0.000976592303,-0.348185675,0.411053804,-0.842463454
640,1604296,329920,0.698,-0.795,0.27,-57.6,26.7,15.5,11.4,18.4,-21.2,0.00057985168,-0.347575304,0.412213507,-0.842158269
641,1606478,329930,0.714,-0.744,0.266,-43.7,29,8.2,11.4,18.4,-21.2,0.000152592547,-0.346964934,0.413098544,-0.841975158
642,1608842,329930,0.729,-0.682,0.265,-43.7,29,8.2,11.4,18.4,-21.2,0.000274666585,0.346354564,-0.413953063,0.841792047
643,1610894,329930,0.749,-0.624,0.261,-29.1,32.7,1.2,11.4,18.4,-21.2,0.000762962737,0.345744194,-0.414502396,0.841792047
644,1613130,329930,0.749,-0.624,0.261,-29.1,32.7,1.2,11.4,18.4,-21.2,0.000762962737,0.345744194,-0.414502396,0.841792047
645,1616963,329940,0.707,-0.525,0.293,-0.4,50.1,-18.4,11.6,17.8,-21,0.00134281442,0.344981231,-0.414868618,0.841914121
646,1619322,329940,0.707,-0.525,0.293,3.1,56.6,-25.6,11.6,17.8,-21,0.00231940672,0.34418775,-0.41462447,0.842371899
647,1621510,329940,0.636,-0.501,0.259,3.1,56.6,-25.6,11.6,17.8,-21,0.00326548051,0.34336375,-0.414349803,0.842829676
648,1623598,329940,0.644,-0.43,0.263,5.9,62,-33.4,11.6,17.8,-21,0.00439466536,0.34253975,-0.413983581,0.843348491
649,1626702,329950,0.715,-0.346,0.261,14.5,66.8,-51.1,12,18.3,-19.6,0.00582903531,0.341746269,-0.413342692,0.843958861
650,1629591,329950,0.652,-0.376,0.239,19.7,67.4,-59.6,12,18.3,-19.6,0.0074159978,0.341044343,-0.412518693,0.844630268
651,1631103,329950,0.597,-0.356,0.208,19.7,67.4,-59.6,12,18.3,-19.6,0.00897244179,0.340311899,-0.411694693,0.845301675
652,1634237,329950,0.566,-0.336,0.186,24,68.3,-66.2,12,18.3,-19.6,0.0106204413,0.339701529,-0.410748619,0.846003601
653,1636591,329960,0.621,-0.239,0.212,33,70.7,-79.8,11.9,17.7,-22.1,0.0124820704,0.339121677,-0.409527879,0.846797082
654,1638501,329960,0.605,-0.266,0.193,39.4,69.5,-90,11.9,17.7,-22.1,0.0144657735,0.338633381,-0.408124027,0.847651601
655,1641608,329960,0.648,-0.314,0.137,39.4,69.5,-90,11.9,17.7,-22.1,0.0164494766,0.338175604,-0.406689657,0.8484756
656,1644504,329960,0.687,-0.271,0.175,47.1,64.7,-101.9,11.9,17.7,-22.1,0.0185552538,0.337900937,-0.405041658,0.849330119
657,1645795,329970,0.754,-0.19,0.229,70.2,42.6,-126.2,11.8,17.6,-22,0.0207525864,0.338236641,-0.402783288,0.850215155
658,1648200,329970,0.841,-0.09,0.278,86.6,26.8,-137.2,11.8,17.6,-22,0.0229194006,0.338969085,-0.400158696,0.851100192
659,1651177,329970,0.895,-0.102,0.273,102.5,9.9,-147,11.8,17.6,-22,0.0249641408,0.340128788,-0.397167882,0.851985229
660,1654311,329970,0.943,-0.04,0.323,102.5,9.9,-147,11.8,17.6,-22,0.0270393994,0.341288491,-0.39414655,0.852870266
661,1655719,329980,1.072,0.136,0.301,119.9,-19.4,-163.6,11.5,17.4,-22.6,0.0290231025,0.343119602,-0.390697958,0.853663747
662,1659472,329980,1.123,0.249,0.335,118.4,-29.5,-172,11.5,17.4,-22.6,0.0310983612,0.345194861,-0.38718833,0.854335154
663,1661079,329980,1.167,0.318,0.353,108.3,-35.5,-180.8,11.5,17.4,-22.6,0.0333262123,0.34745323,-0.383861812,0.854853969
664,1664103,329980,1.186,0.365,0.365,108.3,-35.5,-180.8,11.5,17.4,-22.6,0.035584582,0.3497116,-0.380504776,0.855342265
665,1666832,329990,1.186,0.365,0.365,108.3,-35.5,-180.8,11.5,17.4,-22.6,0.035584582,0.3497116,-0.380504776,0.855342265
666,1668523,329990,1.222,0.415,0.379,57.1,-31.8,-197.6,11,17.7,-22.7,0.038575396,0.352000488,-0.377941221,0.855403302
667,1671521,329990,1.163,0.307,0.353,19.2,-21.7,-204.7,11,17.7,-22.7,0.0420850246,0.354106265,-0.376018555,0.855220191
668,1674400,329990,1.021,0.121,0.286,-20.8,-7.5,-209.7,11,17.7,-22.7,0.0460829493,0.355937376,-0.374797815,0.854792932
669,1677505,330000,0.903,0.01,0.261,-57.3,7.6,-211.3,11,17.7,-22.7,0.0505386517,0.357463301,-0.374217963,0.854152043
670,1679153,330000,0.763,-0.096,0.287,-83.6,20.1,-209.8,10.8,19.7,-19.9,0.0552690207,0.35871456,-0.374095889,0.85338908
671,1681282,330000,0.716,-0.107,0.319,-96.2,26.7,-207.1,10.8,19.7,-19.9,0.0600909452,0.359782708,-0.374248482,0.852534562
672,1684473,330000,0.673,-0.137,0.328,-97.1,27,-206.4,10.8,19.7,-19.9,0.0649128697,0.360820338,-0.374401074,0.851680044
673,1686759,330010,0.634,-0.152,0.344,-93.6,23.5,-209.6,10.8,19.7,-19.9,0.0697347942,0.361949522,-0.374431593,0.850795007
674,1688879,330010,0.603,-0.175,0.337,-92.8,19.2,-217.4,10.3,19.2,-22.6,0.0746482742,0.3632313,-0.374401074,0.849848933
675,1691236,330010,0.618,-0.191,0.325,-98.3,16.5,-228.6,10.3,19.2,-22.6,0.0798059023,0.364635151,-0.374401074,0.848780786
676,1693301,330010,0.618,-0.207,0.306,-110.3,16,-241.1,10.3,19.2,-22.6,0.085299234,0.36610004,-0.37449263,0.847590564
677,1697092,330020,0.637,-0.215,0.254,-126.5,17.2,-252.4,10.3,19.2,-22.6,0.0910977508,0.367595447,-0.374767296,0.846217231
678,1699467,330020,0.645,-0.204,0.246,-144.1,19,-260.8,10,20.1,-21.9,0.0972319712,0.369090854,-0.375286111,0.844630268
679,1701805,330020,0.684,-0.22,0.214,-160.6,20.6,-265.2,10,20.1,-21.9,0.103579821,0.370525224,-0.376049074,0.842921232
680,1703700,330020,0.664,-0.24,0.168,-175,21.9,-265.3,10,20.1,-21.9,0.110049745,0.371898556,-0.377086703,0.841029084
681,1706908,330030,0.652,-0.251,0.149,-186.7,23,-261.8,10,20.1,-21.9,0.116550188,0.373180334,-0.378307443,0.839045381
682,1708951,330030,0.648,-0.271,0.133,-202,24.7,-246.6,9.2,21.3,-21.8,0.122928556,0.374248482,-0.379924924,0.836909085
683,1712310,330030,0.644,-0.298,0.106,-202,24.7,-246.6,9.2,21.3,-21.8,0.129276406,0.375286111,-0.381542405,0.83477279
684,1714643,330030,0.651,-0.322,0.09,-206.4,24.8,-237.4,9.2,21.3,-21.8,0.135502182,0.376201666,-0.383251442,0.832575457
685,1717207,330040,0.679,-0.362,0.066,-209.7,23.6,-228.6,9.2,21.3,-21.8,0.141575365,0.377056185,-0.385113071,0.830317087
686,1719560,330040,0.679,-0.362,0.066,-209.7,23.6,-228.6,9.2,21.3,-21.8,0.141575365,0.377056185,-0.385113071,0.830317087
687,1722143,330040,0.74,-0.492,0.034,-215.4,19.3,-212.9,9,23.1,-21.3,0.147343364,0.377819147,-0.38718833,0.827967162
688,1724416,330040,0.795,-0.543,0.029,-220.8,16.3,-201.7,9,23.1,-21.3,0.158604694,0.379222999,-0.391613514,0.823175756
689,1726243,330050,0.838,-0.579,0.024,-223.3,15.9,-199.8,9,23.1,-21.3,0.164189581,0.379863887,-0.39393292,0.820673238
690,1728431,330050,0.838,-0.579,0.024,-223.3,15.9,-199.8,9,23.1,-21.3,0.164189581,0.379863887,-0.39393292,0.820673238
691,1730665,330050,0.935,-0.659,-0.004,-225.9,15.5,-200.8,8.3,24.4,-18.5,0.169774468,0.380504776,-0.396252327,0.818140202
692,1733160,330050,0.997,-0.699,-0.009,-227.9,14.5,-203.4,8.3,24.4,-18.5,0.175420392,0.381145665,-0.398541215,0.81551561
693,1737122,330060,1.036,-0.7,0.001,-227.1,11,-211.5,8.3,24.4,-18.5,0.186864834,0.382580035,-0.403057955,0.810083316
694,1738959,330060,1.036,-0.7,0.001,-227.1,11,-211.5,8.3,24.4,-18.5,0.186864834,0.382580035,-0.403057955,0.810083316
695,1743174,330060,1.119,-0.705,0.023,-223.4,9.7,-217.6,7.4,24.4,-18.4,0.19266335,0.383404035,-0.405133213,0.807275613
696,1743174,330060,1.162,-0.686,0.038,-217.8,9.2,-225.3,7.4,24.4,-18.4,0.198522904,0.384289071,-0.407055879,0.80446791
697,1746717,330070,1.174,-0.667,0.089,-204.6,9.2,-240.5,7.4,24.4,-18.4,0.21048616,0.386333811,-0.410260323,0.798791467
698,1748988,330070,1.174,-0.667,0.089,-204.6,9.2,-240.5,7.4,24.4,-18.4,0.21048616,0.386333811,-0.410260323,0.798791467
699,1750688,330070,1.154,-0.666,0.12,-197.5,10,-243.8,7.2,26.2,-18,0.216467788,0.387432478,-0.411572619,0.795983764
700,1754364,330070,1.131,-0.662,0.133,-189.9,11.5,-242.5,7.2,26.2,-18,0.222388379,0.388500626,-0.412762841,0.79320658
701,1755984,330080,1.065,-0.645,0.149,-170.6,18.1,-226.4,7.2,26.2,-18,0.23361919,0.390392773,-0.414746544,0.787987915
702,1758394,330080,1.065,-0.645,0.149,-170.6,18.1,-226.4,7.2,26.2,-18,0.23361919,0.390392773,-0.414746544,0.787987915
703,1762281,330080,0.995,-0.644,0.186,-157.9,23.9,-213.7,6.3,26.9,-17.6,0.238898892,0.391094699,-0.415509507,0.785668508
704,1764369,330080,0.956,-0.623,0.202,-143.4,30.9,-200,6.3,26.9,-17.6,0.243812372,0.391613514,-0.416089358,0.783562731
705,1766625,330090,0.843,-0.532,0.196,-113,45,-177.1,6.3,26.9,-17.6,0.252845851,0.392193365,-0.416638691,0.780144658
706,1768745,330090,0.843,-0.532,0.196,-113,45,-177.1,6.3,26.9,-17.6,0.252845851,0.392193365,-0.416638691,0.780144658
707,1772291,330090,0.843,-0.532,0.196,-113,45,-177.1,6.3,26.9,-17.6,0.252845851,0.392193365,-0.416638691,0.780144658
708,1774665,330090,1.02,-0.397,0.334,-93.2,39.5,-173.6,5.7,27.8,-16.8,0.261085849,0.392803735,-0.416425062,0.777214881
709,1776719,330100,1.059,-0.374,0.364,-93.3,29.5,-181.8,5.7,27.8,-16.8,0.265236366,0.393414106,-0.416272469,0.7755974
710,1778995,330100,1.094,-0.375,0.383,-93.3,29.5,-181.8,5.7,27.8,-16.8,0.269386883,0.394024476,-0.416119877,0.7739494
711,1781244,330100,1.094,-0.375,0.383,-93.3,29.5,-181.8,5.7,27.8,-16.8,0.269386883,0.394024476,-0.416119877,0.7739494
712,1783400,330100,1.204,-0.396,0.401,-98.1,8.2,-205.5,4.4,29,-16.2,0.278084658,0.39619129,-0.415753655,0.769920957
713,1786726,330110,1.141,-0.466,0.367,-99.2,7.3,-206.9,4.4,29,-16.2,0.282479324,0.397350993,-0.415601062,0.76781518
714,1789142,330110,1.141,-0.466,0.367,-99.2,7.3,-206.9,4.4,29,-16.2,0.286873989,0.398480178,-0.415417951,0.765709403
715,1790800,330110,1.141,-0.466,0.367,-99.2,7.3,-206.9,4.4,29,-16.2,0.286873989,0.398480178,-0.415417951,0.765709403
716,1794056,330110,1.183,-0.545,0.296,-95.9,10.6,-200.7,3.9,29.3,-16,0.29114658,0.399517808,-0.415204321,0.763664663
717,1796278,330120,1.265,-0.499,0.263,-80.6,12.3,-192.4,3.9,29.3,-16,0.299295022,0.401532029,-0.414471877,0.75981933
718,1798787,330120,1.265,-0.499,0.263,-80.6,12.3,-192.4,3.9,29.3,-16,0.303323466,0.40253914,-0.414044618,0.757927183
719,1800789,330120,1.265,-0.499,0.263,-80.6,12.3,-192.4,3.9,29.3,-16,0.303323466,0.40253914,-0.414044618,0.757927183
720,1803127,330120,1.363,-0.505,0.253,-67,11.9,-186.1,2.8,29.8,-15.3,0.307077242,0.403576769,-0.413434248,0.756187628
721,1807167,330130,1.292,-0.52,0.239,-72.6,12.9,-176.3,2.8,29.8,-15.3,0.314462722,0.405438398,-0.412396619,0.752739036
722,1809107,330130,1.273,-0.55,0.228,-80.9,13.5,-169.9,2.8,29.8,-15.3,0.318063906,0.406201361,-0.412121952,0.750968963
723,1811951,330130,1.273,-0.55,0.228,-80.9,13.5,-169.9,2.8,29.8,-15.3,0.318063906,0.406201361,-0.412121952,0.750968963
724,1813627,330130,1.261,-0.582,0.204,-90.2,12.9,-163.3,1.6,30.2,-15.2,0.32166509,0.406811731,-0.412060915,0.749107334
725,1817512,330140,1.253,-0.589,0.177,-106.2,7.4,-152.2,1.6,30.2,-15.2,0.328684347,0.407849361,-0.412549211,0.745231483
726,1818097,330140,1.221,-0.593,0.158,-111.3,3.8,-148.1,1.6,30.2,-15.2,0.332132939,0.408307138,-0.413006989,0.743156224
727,1821730,330140,1.221,-0.593,0.158,-111.3,3.8,-148.1,1.6,30.2,-15.2,0.332132939,0.408307138,-0.413006989,0.743156224
728,1824295,330140,1.19,-0.597,0.096,-117.6,-1.7,-140.1,1.6,30.2,-15.2,0.335428938,0.408734397,-0.413678396,0.741111484
729,1825657,330150,1.166,-0.573,0.096,-119.9,-3,-135.1,1.6,30.2,-15.2,0.3386639,0.409131138,-0.41441084,0.739005707
730,1829536,330150,1.108,-0.548,0.101,-119.9,-3,-135.1,1.6,30.2,-15.2,0.341868343,0.409527879,-0.415173803,0.736869411
731,1832024,330150,1.041,-0.528,0.107,-121.3,-2.4,-129.3,1.6,30.2,-15.2,0.34501175,0.409802545,-0.415967284,0.734794153
732,1833744,330150,0.94,-0.502,0.116,-120.7,5.4,-116.1,0.2,32,-14.8,0.348002564,0.409863582,-0.416821802,0.732871487
733,1835888,330160,0.909,-0.502,0.113,-118.5,11.2,-110.1,0.2,32,-14.8,0.35093234,0.409802545,-0.417645802,0.731040376
734,1839319,330160,0.87,-0.501,0.114,-118.5,11.2,-110.1,0.2,32,-14.8,0.353831599,0.40971099,-0.418439283,0.729209265
735,1840847,330160,0.831,-0.508,0.11,-115.2,16.9,-105.5,0.2,32,-14.8,0.356700339,0.40949736,-0.419232765,0.727500229
736,1844842,330160,0.831,-0.508,0.11,-115.2,16.9,-105.5,0.2,32,-14.8,0.356700339,0.40949736,-0.419232765,0.727500229
737,1847733,330170,0.768,-0.527,0.092,-100.4,29.2,-101,-0.4,32.3,-13.9,0.362254707,0.408856471,-0.420239875,0.724509415
738,1849510,330170,0.76,-0.523,0.084,-95.1,31,-101.4,-0.4,32.3,-13.9,0.365001373,0.408551286,-0.420606098,0.723105564
739,1851919,330170,0.764,-0.543,0.073,-95.1,31,-101.4,-0.4,32.3,-13.9,0.367717521,0.408215583,-0.420941801,0.721701712
740,1853624,330170,0.764,-0.543,0.073,-95.1,31,-101.4,-0.4,32.3,-13.9,0.367717521,0.408215583,-0.420941801,0.721701712
741,1856712,330180,0.779,-0.574,0.053,-86.1,31.6,-104.2,-0.7,32.2,-13.4,0.370433668,0.408001953,-0.421124912,0.720358898
742,1858209,330180,0.783,-0.59,0.053,-82.4,30.5,-107,-0.7,32.2,-13.4,0.373119297,0.407818842,-0.421216468,0.719016083
743,1861381,330180,0.807,-0.629,0.068,-74,25,-114.9,-0.7,32.2,-13.4,0.378521073,0.407818842,-0.421155431,0.716238899
744,1863166,330180,0.807,-0.629,0.068,-74,25,-114.9,-0.7,32.2,-13.4,0.378521073,0.407818842,-0.421155431,0.716238899
745,1867484,330190,0.834,-0.63,0.083,-68.3,20.7,-119.4,-0.7,32.5,-13.3,0.381176183,0.408032472,-0.421002838,0.714804529
746,1869683,330190,0.85,-0.626,0.099,-61.2,15.3,-123.8,-0.7,32.5,-13.3,0.383800775,0.408398694,-0.420728172,0.71333964
747,1871258,330190,0.881,-0.583,0.133,-45.3,2.5,-130.3,-0.7,32.5,-13.3,0.388775292,0.409772027,-0.419843135,0.710348827
748,1873642,330190,0.881,-0.583,0.133,-45.3,2.5,-130.3,-0.7,32.5,-13.3,0.388775292,0.409772027,-0.419843135,0.710348827
749,1875829,330200,0.881,-0.583,0.133,-45.3,2.5,-130.3,-0.7,32.5,-13.3,0.388775292,0.409772027,-0.419843135,0.710348827
750,1878202,330200,0.937,-0.471,0.171,-31.2,-13.5,-127.6,-0.1,31.5,-12.8,0.393139439,0.411938841,-0.418744469,0.707358013
751,1882139,330200,0.945,-0.444,0.175,-32.2,-15.4,-123.2,-0.1,31.5,-12.8,0.395184179,0.413006989,-0.418256172,0.705862606
752,1884325,330200,0.956,-0.409,0.171,-32.2,-15.4,-123.2,-0.1,31.5,-12.8,0.397228919,0.414105655,-0.417767876,0.704367199
753,1886629,330210,0.956,-0.409,0.171,-32.2,-15.4,-123.2,-0.1,31.5,-12.8,0.397228919,0.414105655,-0.417767876,0.704367199
754,1888882,330210,0.984,-0.362,0.158,-41.8,-12.6,-112.7,-0.9,32.4,-12.9,0.399243141,0.414960173,-0.41749321,0.70290231
755,1890596,330210,0.999,-0.32,0.15,-57.2,-5,-102.1,-0.9,32.4,-12.9,0.403271584,0.416150395,-0.417340617,0.699972533
756,1894283,330210,1.003,-0.304,0.146,-65.5,-0.8,-96.7,-0.9,32.4,-12.9,0.405346843,0.41645558,-0.41749321,0.698507645
757,1895714,330220,1.003,-0.304,0.146,-65.5,-0.8,-96.7,-0.9,32.4,-12.9,0.405346843,0.41645558,-0.41749321,0.698507645
758,1898033,330220,1.007,-0.277,0.142,-74.1,3.1,-90.7,-1.3,32.4,-12.7,0.407422102,0.416577654,-0.417767876,0.697042756
759,1902285,330220,1,-0.273,0.142,-83,6.9,-84.4,-1.3,32.4,-12.7,0.409527879,0.416486099,-0.418195135,0.695608386
760,1904088,330220,0.996,-0.284,0.138,-92.3,10.2,-77.9,-1.3,32.4,-12.7,0.411633656,0.416241951,-0.418805506,0.694143498
761,1906857,330230,0.992,-0.331,0.135,-101.5,13.1,-72.5,-1.3,32.4,-12.7,0.413769951,0.415784173,-0.41953795,0.69267861
762,1908217,330230,0.988,-0.351,0.142,-110,15.1,-68.3,-2.4,32.5,-12.3,0.415936766,0.415204321,-0.420453505,0.691213721
763,1911575,330230,0.972,-0.386,0.155,-116.8,15.9,-65.2,-2.4,32.5,-12.3,0.418134098,0.414502396,-0.421491134,0.689687796
764,1914098,330230,0.96,-0.405,0.159,-121.3,15.7,-62.9,-2.4,32.5,-12.3,0.420331431,0.413739433,-0.422589801,0.688131352
765,1916373,330240,0.972,-0.421,0.17,-123.6,14.7,-61,-2.4,32.5,-12.3,0.422498245,0.412945952,-0.423749504,0.686544389
766,1918487,330240,0.968,-0.436,0.182,-124.3,13.8,-59.6,-1.7,33,-11.7,0.424634541,0.412121952,-0.424970244,0.684987945
767,1920583,330240,0.98,-0.444,0.186,-124.4,13.2,-58.8,-1.7,33,-11.7,0.426740318,0.411328471,-0.426160466,0.683400983
768,1924422,330240,0.988,-0.452,0.19,-124.4,13.2,-58.4,-1.7,33,-11.7,0.428846095,0.410504471,-0.427381207,0.68181402
769,1926875,330250,0.988,-0.456,0.197,-125,14.1,-58.2,-1.7,33,-11.7,0.430982391,0.409680471,-0.428571429,0.680227058
770,1928805,330250,0.988,-0.456,0.197,-125,14.1,-58.2,-1.7,33,-11.7,0.430982391,0.409680471,-0.428571429,0.680227058
771,1932042,330250,0.964,-0.506,0.19,-131.6,22,-55.2,-2.4,32.8,-11.2,0.431928465,0.408307138,-0.431501205,0.678579058
772,1934672,330250,0.964,-0.506,0.19,-131.6,22,-55.2,-2.4,32.8,-11.2,0.434125797,0.407269509,-0.432752464,0.677022614
773,1936264,330260,0.948,-0.526,0.187,-135.2,25.8,-53.8,-2.4,32.8,-11.2,0.436353648,0.406109806,-0.434003723,0.67546617
774,1938088,330260,0.94,-0.561,0.183,-138.7,29.4,-52.8,-2.4,32.8,-11.2,0.438642537,0.404858547,-0.435316019,0.673909726
775,1942157,330260,0.917,-0.599,0.176,-143,33.5,-51,-2.6,33.3,-10.4,0.440961943,0.403454695,-0.436628315,0.672353282
776,1944498,330260,0.905,-0.615,0.168,-143,34.2,-50.1,-2.6,33.3,-10.4,0.44328135,0.402050844,-0.437971129,0.670796838
777,1946783,330270,0.893,-0.638,0.18,-143,34.2,-50.1,-2.6,33.3,-10.4,0.445600757,0.400646992,-0.439283425,0.669240394
778,1949020,330270,0.87,-0.649,0.18,-141.3,34.4,-48.8,-2.6,33.3,-10.4,0.447889645,0.399243141,-0.440595721,0.667714469
779,1951175,330270,0.87,-0.649,0.18,-141.3,34.4,-48.8,-2.6,33.3,-10.4,0.447889645,0.399243141,-0.440595721,0.667714469
780,1953265,330270,0.831,-0.629,0.189,-132.9,34.1,-45.1,-2.5,33.8,-10,0.450025941,0.397869808,-0.441785943,0.666280099
781,1955628,330280,0.803,-0.637,0.19,-121.6,33.1,-41.4,-2.5,33.8,-10,0.454054384,0.395275735,-0.444013794,0.663624989
782,1959065,330280,0.796,-0.629,0.182,-116.8,31.9,-40.9,-2.5,33.8,-10,0.455946532,0.394054994,-0.445020905,0.66237373
783,1961375,330280,0.796,-0.629,0.182,-116.8,31.9,-40.9,-2.5,33.8,-10,0.455946532,0.394054994,-0.445020905,0.66237373
784,1963315,330280,0.784,-0.644,0.182,-112.9,29.9,-41.3,-3.1,34.3,-8.7,0.457808161,0.392895291,-0.445997497,0.661122471
785,1965795,330290,0.784,-0.656,0.178,-109.2,27.3,-41.8,-3.1,34.3,-8.7,0.459608753,0.391796625,-0.446943571,0.659871212
786,1968120,330290,0.764,-0.655,0.194,-99.7,20.9,-41.1,-3.1,34.3,-8.7,0.462996307,0.389904477,-0.448744163,0.657399213
787,1971599,330290,0.764,-0.655,0.194,-99.7,20.9,-41.1,-3.1,34.3,-8.7,0.462996307,0.389904477,-0.448744163,0.657399213
788,1973232,330290,0.757,-0.636,0.202,-93.6,17.9,-39.4,-3.1,34.3,-8.7,0.464522233,0.389080477,-0.449568163,0.656239509
789,1976868,330300,0.749,-0.585,0.222,-86.9,15.2,-37,-3.1,34.3,-8.7,0.465956603,0.388348033,-0.450331126,0.655140843
790,1979147,330300,0.749,-0.569,0.214,-80.9,13,-34.1,-3.1,34.3,-8.7,0.46723838,0.387676626,-0.45106357,0.654103214
791,1980975,330300,0.761,-0.565,0.222,-76.1,11.5,-31.6,-3.1,34.3,-8.7,0.46845912,0.387035737,-0.451765496,0.653126621
792,1983130,330300,0.761,-0.565,0.222,-76.1,11.5,-31.6,-3.1,34.3,-8.7,0.46845912,0.387035737,-0.451765496,0.653126621
793,1986536,330310,0.784,-0.527,0.209,-71.3,9.7,-28.4,-2.4,34.3,-7.6,0.46888638,0.385784478,-0.453199866,0.652577288
794,1988727,330310,0.8,-0.507,0.213,-70.1,8.8,-27.7,-2.4,34.3,-7.6,0.469954527,0.385204627,-0.453901791,0.651661733
795,1991022,330310,0.804,-0.488,0.213,-68.8,7.8,-27.2,-2.4,34.3,-7.6,0.470992157,0.384655293,-0.45454268,0.650776696
796,1992990,330310,0.812,-0.48,0.213,-66.7,6.6,-26.3,-2.4,34.3,-7.6,0.471999268,0.384136479,-0.455214087,0.649891659
797,1995989,330320,0.828,-0.449,0.216,-60.5,4.5,-22.9,-2.7,34.6,-7.7,0.472884304,0.383678701,-0.455824458,0.649098178
798,1999239,330320,0.828,-0.449,0.216,-60.5,4.5,-22.9,-2.7,34.6,-7.7,0.473769341,0.383220923,-0.456434828,0.648304697
799,2001520,330320,0.828,-0.43,0.22,-57.2,3.8,-21.1,-2.7,34.6,-7.7,0.474562822,0.382793664,-0.457045198,0.647541734
800,2003419,330320,0.816,-0.39,0.228,-54.1,3.3,-19.1,-2.7,34.6,-7.7,0.475325785,0.382366405,-0.45762505,0.646839808
801,2006912,330330,0.816,-0.39,0.228,-54.1,3.3,-19.1,-2.7,34.6,-7.7,0.475325785,0.382366405,-0.45762505,0.646839808
802,2009124,330330,0.816,-0.383,0.201,-45.1,1.5,-13.8,-2.5,34.2,-7.9,0.476546525,0.381633961,-0.45863216,0.645619068
803,2010563,330330,0.804,-0.343,0.201,-42.8,0.5,-12.9,-2.5,34.2,-7.9,0.477095859,0.381298257,-0.459120457,0.645069735
804,2013948,330330,0.8,-0.343,0.197,-42.8,0.5,-12.9,-2.5,34.2,-7.9,0.477645192,0.380993072,-0.459608753,0.644520402
805,2016079,330340,0.8,-0.343,0.197,-42.8,0.5,-12.9,-2.5,34.2,-7.9,0.477645192,0.380993072,-0.459608753,0.644520402
806,2019069,330340,0.816,-0.371,0.169,-40.2,-2.9,-14.1,-2.9,34.8,-7.3,0.478133488,0.380748924,-0.460097049,0.64394055
807,2022013,330340,0.812,-0.391,0.185,-38.4,-7.9,-17.6,-2.9,34.8,-7.3,0.479140599,0.380474258,-0.461043123,0.642689291
808,2023368,330340,0.812,-0.387,0.193,-38.4,-7.9,-17.6,-2.9,34.8,-7.3,0.479628895,0.380352184,-0.461531419,0.642048402
809,2026528,330350,0.812,-0.387,0.193,-38.4,-7.9,-17.6,-2.9,34.8,-7.3,0.479628895,0.380352184,-0.461531419,0.642048402
810,2029541,330350,0.808,-0.39,0.209,-33.3,-12.8,-17.7,-4.6,34.6,-7.2,0.480025636,0.380352184,-0.461989196,0.641438032
811,2031080,330350,0.808,-0.39,0.224,-30.9,-15,-16.7,-4.6,34.6,-7.2,0.480361339,0.380413221,-0.462446974,0.640827662
812,2033301,330350,0.82,-0.387,0.232,-29.2,-18.2,-14.2,-4.6,34.6,-7.2,0.480910672,0.380596332,-0.463362529,0.639606922
813,2036696,330360,0.82,-0.387,0.232,-29.2,-18.2,-14.2,-4.6,34.6,-7.2,0.480910672,0.380596332,-0.463362529,0.639606922
814,2039131,330360,0.82,-0.387,0.232,-29.2,-18.2,-14.2,-4.6,34.6,-7.2,0.480910672,0.380596332,-0.463362529,0.639606922
815,2040678,330360,0.836,-0.379,0.235,-30.8,-20.2,-12.6,-3.2,34.9,-7.1,0.48054445,0.380108036,-0.46458327,0.639301737
816,2044273,330360,0.844,-0.375,0.239,-32,-21.1,-11.8,-3.2,34.9,-7.1,0.48075808,0.380199591,-0.465163121,0.638660848
817,2045768,330370,0.847,-0.371,0.235,-33.5,-21.9,-10.9,-3.2,34.9,-7.1,0.480941191,0.380260628,-0.465773492,0.638019959
818,2049273,330370,0.847,-0.375,0.235,-35.2,-22.5,-9.8,-3.2,34.9,-7.1,0.48115482,0.380291147,-0.46641438,0.63737907
819,2051258,330370,0.851,-0.364,0.231,-39.5,-23.1,-7.4,-3.2,34.5,-6.8,0.48136845,0.380291147,-0.467146825,0.636707663
820,2053257,330370,0.851,-0.364,0.231,-39.5,-23.1,-7.4,-3.2,34.5,-6.8,0.481551561,0.380260628,-0.467879269,0.636036256
821,2055614,330380,0.851,-0.36,0.227,-41.8,-23.2,-6,-3.2,34.5,-6.8,0.481734672,0.380199591,-0.468642232,0.63533433
822,2059669,330380,0.855,-0.352,0.231,-43.9,-23.2,-4.7,-3.2,34.5,-6.8,0.481948302,0.380108036,-0.469466231,0.634662923
823,2061861,330380,0.859,-0.348,0.235,-47.4,-23.5,-1.9,-3.5,35.1,-6.8,0.482131413,0.379955443,-0.470351268,0.633960997
824,2064027,330380,0.867,-0.344,0.235,-48.5,-23.5,-0.6,-3.5,35.1,-6.8,0.482284005,0.37980285,-0.471266823,0.633259072
825,2066433,330390,0.871,-0.344,0.243,-48.5,-23.5,-0.6,-3.5,35.1,-6.8,0.482467116,0.379619739,-0.472182379,0.632557146
826,2068589,330390,0.879,-0.348,0.254,-49.1,-23.3,0.5,-3.5,35.1,-6.8,0.482619709,0.379375591,-0.473097934,0.63185522
827,2070660,330390,0.879,-0.348,0.254,-49.1,-23.3,0.5,-3.5,35.1,-6.8,0.482619709,0.379375591,-0.473097934,0.63185522
828,2074408,330390,0.887,-0.341,0.266,-48.3,-22.7,2.8,-3.2,34.7,-6.3,0.482741783,0.37919248,-0.474044008,0.631183813
829,2076004,330400,0.899,-0.333,0.269,-45.7,-22,5,-3.2,34.7,-6.3,0.482894375,0.378734703,-0.4758446,0.629963073
830,2079215,330400,0.906,-0.317,0.277,-45.7,-22,5,-3.2,34.7,-6.3,0.483016449,0.378490555,-0.476760155,0.629352702
831,2082403,330400,0.906,-0.317,0.277,-45.7,-22,5,-3.2,34.7,-6.3,0.483016449,0.378490555,-0.476760155,0.629352702
832,2083899,330400,0.918,-0.318,0.277,-43.2,-20.8,7.3,-4.6,35,-6.2,0.483046968,0.378246406,-0.477645192,0.628803369
833,2087279,330410,0.93,-0.318,0.284,-42.4,-20,8.3,-4.6,35,-6.2,0.483077486,0.37797174,-0.47849971,0.628284555
834,2088779,330410,0.938,-0.314,0.284,-40.9,-17.9,10.4,-4.6,35,-6.2,0.483077486,0.377422407,-0.480178228,0.627338481
835,2092113,330410,0.938,-0.314,0.284,-40.9,-17.9,10.4,-4.6,35,-6.2,0.483077486,0.377422407,-0.480178228,0.627338481
836,2094471,330410,0.938,-0.314,0.284,-40.9,-17.9,10.4,-4.6,35,-6.2,0.483077486,0.377422407,-0.480178228,0.627338481
837,2096897,330420,0.946,-0.322,0.284,-39.2,-16.1,12,-4,35,-5.3,0.482894375,0.376812037,-0.481124302,0.627094333
838,2099071,330420,0.953,-0.33,0.284,-38.2,-15.3,12.7,-4,35,-5.3,0.482894375,0.376476333,-0.481917783,0.626697592
839,2100854,330420,0.953,-0.334,0.28,-37.1,-14.6,13.4,-4,35,-5.3,0.482863857,0.376140629,-0.482680746,0.62633137
840,2103015,330420,0.953,-0.334,0.288,-35.9,-13.9,14.1,-4,35,-5.3,0.482833338,0.375804926,-0.483443709,0.625965148
841,2106566,330430,0.953,-0.349,0.288,-34.7,-13.3,14.8,-4.2,35.2,-5.2,0.482772301,0.375469222,-0.484176153,0.625659963
842,2109590,330430,0.953,-0.349,0.288,-33.6,-12.7,15.5,-4.2,35.2,-5.2,0.482680746,0.375133518,-0.484908597,0.625385296
843,2111800,330430,0.953,-0.361,0.284,-32.7,-12.2,16.2,-4.2,35.2,-5.2,0.482619709,0.374767296,-0.485610523,0.62511063
844,2113349,330430,0.949,-0.369,0.288,-31.9,-11.6,16.9,-4.2,35.2,-5.2,0.482528153,0.374431593,-0.486312449,0.624835963
845,2115890,330440,0.945,-0.377,0.284,-30.5,-10.5,18,-3.8,35.2,-4.5,0.482406079,0.374034852,-0.486983856,0.624622333
846,2119332,330440,0.945,-0.381,0.28,-29.8,-10.1,18.6,-3.8,35.2,-4.5,0.482284005,0.37366863,-0.487655263,0.624408704
847,2121811,330440,0.941,-0.392,0.277,-29.8,-10.1,18.6,-3.8,35.2,-4.5,0.482161931,0.373302408,-0.48832667,0.624225593
848,2124059,330440,0.941,-0.392,0.277,-28.9,-9.8,19.2,-3.8,35.2,-4.5,0.482039857,0.372936186,-0.488967559,0.624042482
849,2127013,330450,0.941,-0.392,0.277,-28.9,-9.8,19.2,-3.8,35.2,-4.5,0.482039857,0.372936186,-0.488967559,0.624042482
850,2128250,330450,0.937,-0.408,0.277,-25.1,-10.1,20.1,-4,35.3,-6.3,0.481704154,0.37223426,-0.490218818,0.623737297
851,2131615,330450,0.933,-0.404,0.277,-23.7,-10.2,20.4,-4,35.3,-6.3,0.481521043,0.371898556,-0.490798669,0.623615223
852,2133229,330450,0.933,-0.412,0.277,-23.7,-10.2,20.4,-4,35.3,-6.3,0.481307413,0.371562853,-0.49140904,0.623493149
853,2135866,330460,0.933,-0.412,0.277,-23.7,-10.2,20.4,-4,35.3,-6.3,0.481307413,0.371562853,-0.49140904,0.623493149
854,2139066,330460,0.926,-0.412,0.273,-21,-10.7,21.1,-4.2,35.4,-4.3,0.481063265,0.371257668,-0.491988891,0.623401593
855,2141222,330460,0.933,-0.416,0.269,-19.3,-11.3,21.4,-4.2,35.4,-4.3,0.480574969,0.370677816,-0.493087558,0.623249001
856,2143121,330460,0.926,-0.416,0.261,-18.5,-11.5,21.4,-4.2,35.4,-4.3,0.480300302,0.370433668,-0.493636891,0.623187963
857,2146653,330470,0.926,-0.416,0.261,-18.5,-11.5,21.4,-4.2,35.4,-4.3,0.480300302,0.370433668,-0.493636891,0.623187963
858,2148209,330470,0.926,-0.416,0.261,-18.5,-11.5,21.4,-4.2,35.4,-4.3,0.480300302,0.370433668,-0.493636891,0.623187963
859,2150713,330470,0.933,-0.412,0.257,-16.9,-12,21.5,-4.1,35.7,-4.1,0.479445784,0.369273965,-0.494705039,0.62367626
860,2154045,330470,0.945,-0.408,0.253,-15.9,-12.2,21.4,-4.1,35.7,-4.1,0.479140599,0.369060335,-0.495223853,0.623645741
861,2156265,330480,0.945,-0.404,0.253,-15,-12.3,21.2,-4.1,35.7,-4.1,0.478835414,0.368816187,-0.495712149,0.623615223
862,2158231,330480,0.945,-0.404,0.249,-14,-12.2,20.9,-4.1,35.7,-4.1,0.478530229,0.368633076,-0.496200446,0.623584704
863,2160523,330480,0.953,-0.396,0.253,-12.9,-12.1,20.7,-3.6,35.6,-3.5,0.478225043,0.368419446,-0.496688742,0.623554186
864,2163019,330480,0.957,-0.385,0.245,-11.7,-12.1,20.4,-3.6,35.6,-3.5,0.477919858,0.368236335,-0.497116001,0.623554186
865,2165939,330490,0.969,-0.373,0.253,-10.6,-12.1,20,-3.6,35.6,-3.5,0.477584155,0.368083743,-0.49754326,0.623523667
866,2169350,330490,0.973,-0.358,0.248,-9.4,-12.2,19.6,-3.6,35.6,-3.5,0.477248451,0.36793115,-0.497970519,0.623554186
867,2171200,330490,0.988,-0.346,0.256,-7.3,-12,18.9,-3.8,35.4,-3.5,0.476943266,0.367809076,-0.498336741,0.623554186
868,2174462,330490,0.992,-0.327,0.26,-7.3,-12,18.9,-3.8,35.4,-3.5,0.476607562,0.367717521,-0.498733482,0.623584704
869,2176710,330500,0.996,-0.327,0.256,-6.6,-11.7,18.5,-3.8,35.4,-3.5,0.476271859,0.367595447,-0.499099704,0.623615223
870,2178858,330500,1,-0.311,0.256,-5.9,-11.2,18.2,-3.8,35.4,-3.5,0.475966674,0.367473373,-0.499435408,0.623645741
871,2181036,330500,1,-0.311,0.256,-5.9,-11.2,18.2,-3.8,35.4,-3.5,0.475966674,0.367473373,-0.499435408,0.623645741
872,2184270,330500,1.012,-0.292,0.259,-4.8,-8.5,17,-3.8,35.7,-6.9,0.475356304,0.367259743,-0.500015259,0.623737297
873,2186404,330510,1.012,-0.284,0.263,-4.8,-8.5,17,-3.8,35.7,-6.9,0.475081637,0.367137669,-0.500320444,0.623798334
874,2189520,330510,1.012,-0.276,0.267,-4.9,-7.5,16.4,-3.8,35.7,-6.9,0.47480697,0.367015595,-0.500595111,0.623859371
875,2191099,330510,1.012,-0.276,0.267,-4.9,-7.5,16.4,-3.8,35.7,-6.9,0.47480697,0.367015595,-0.500595111,0.623859371
876,2194281,330510,1.012,-0.265,0.267,-5.7,-5.3,15.5,-3.2,35.4,-4.2,0.474593341,0.366832484,-0.500839259,0.623920408
877,2196699,330520,1,-0.26,0.26,-7.7,-2.5,14.6,-3.2,35.4,-4.2,0.474227119,0.366466262,-0.501358074,0.624011963
878,2198218,330520,0.993,-0.256,0.268,-7.7,-2.5,14.6,-3.2,35.4,-4.2,0.474074526,0.366252632,-0.501602222,0.624073
879,2200715,330520,0.993,-0.256,0.268,-7.7,-2.5,14.6,-3.2,35.4,-4.2,0.474074526,0.366252632,-0.501602222,0.624073
880,2203012,330520,0.993,-0.256,0.268,-7.7,-2.5,14.6,-3.2,35.4,-4.2,0.474074526,0.366252632,-0.501602222,0.624073
881,2205678,330530,0.969,-0.268,0.256,-11.2,1.8,13.4,-3.2,35.4,-4.2,0.4741966,0.366069521,-0.501602222,0.624073
882,2208937,330530,0.965,-0.276,0.248,-11.7,2.9,12.7,-3.2,35.4,-4.2,0.474166082,0.365764336,-0.501815851,0.624103519
883,2211886,330530,0.953,-0.275,0.249,-11.9,3.7,11.9,-3.2,35.4,-4.2,0.474135563,0.365459151,-0.502029481,0.624134037
884,2214179,330530,0.945,-0.283,0.245,-11.8,4.4,11.1,-3.2,35.4,-4.2,0.474135563,0.365153966,-0.50224311,0.624164556
885,2215764,330540,0.941,-0.287,0.241,-11.4,4.9,10.3,-3.4,35.8,-5.3,0.474135563,0.364848781,-0.502426222,0.624164556
886,2218209,330540,0.938,-0.291,0.241,-10.8,5.4,9.5,-3.4,35.8,-5.3,0.474135563,0.364543596,-0.502609333,0.624195074
887,2222102,330540,0.93,-0.295,0.241,-10.2,5.7,8.8,-3.4,35.8,-5.3,0.474166082,0.364268929,-0.502761925,0.624225593
888,2224505,330540,0.93,-0.298,0.237,-9.6,6,8.2,-3.4,35.8,-5.3,0.4741966,0.363994263,-0.502883999,0.624256111
889,2226679,330550,0.922,-0.298,0.234,-8.3,6.2,7,-3.3,35.7,-5.5,0.474227119,0.363750114,-0.503006073,0.62428663
890,2228781,330550,0.918,-0.298,0.242,-8.3,6.2,7,-3.3,35.7,-5.5,0.474257637,0.363505966,-0.503097629,0.624317148
891,2231058,330550,0.922,-0.302,0.234,-7.8,6.2,6.2,-3.3,35.7,-5.5,0.474318674,0.363261818,-0.503189184,0.624347667
892,2234430,330550,0.918,-0.302,0.238,-7.4,6.1,5.6,-3.3,35.7,-5.5,0.474379711,0.363048189,-0.50328074,0.624347667
893,2235798,330560,0.918,-0.302,0.238,-7.4,6.1,5.6,-3.3,35.7,-5.5,0.474379711,0.363048189,-0.50328074,0.624347667
894,2238895,330560,0.918,-0.298,0.23,-6.7,5.9,4.4,-3.5,35.8,-5,0.47441023,0.362834559,-0.503341777,0.624378185
895,2241881,330560,0.91,-0.298,0.222,-6.5,6,4.1,-3.5,35.8,-5,0.474562822,0.362468337,-0.503463851,0.624408704
896,2243220,330560,0.91,-0.298,0.222,-6.3,6.1,3.8,-3.5,35.8,-5,0.474623859,0.362254707,-0.503524888,0.624439222
897,2246428,330570,0.91,-0.298,0.222,-6.3,6.1,3.8,-3.5,35.8,-5,0.474623859,0.362254707,-0.503524888,0.624439222
898,2249236,330570,0.906,-0.294,0.218,-6.4,6.6,3,-3.5,35.9,-5.6,0.474684896,0.362071596,-0.503555406,0.624439222
899,2250570,330570,0.906,-0.294,0.214,-6.7,6.8,2.6,-3.5,35.9,-5.6,0.474776452,0.361888485,-0.503585925,0.624469741
900,2253717,330570,0.902,-0.294,0.218,-6.8,6.9,2.2,-3.5,35.9,-5.6,0.474898526,0.361674856,-0.503646962,0.624469741
901,2256797,330580,0.906,-0.29,0.214,-7,7.1,1.9,-3.5,35.9,-5.6,0.474990081,0.361491745,-0.50367748,0.624469741
902,2258111,330580,0.906,-0.29,0.214,-7,7.1,1.9,-3.5,35.9,-5.6,0.474990081,0.361491745,-0.50367748,0.624469741
903,2261215,330580,0.902,-0.29,0.211,-7.2,7.2,1.3,-3.5,35.7,-5.7,0.4750206,0.361247597,-0.503799554,0.624469741
904,2264191,330580,0.902,-0.294,0.214,-7.2,7.3,1,-3.5,35.7,-5.7,0.475142674,0.361064486,-0.503830073,0.624469741
905,2267213,330590,0.894,-0.286,0.211,-7,7.2,0.5,-3.5,35.7,-5.7,0.475295267,0.360881375,-0.503860591,0.624439222
906,2268741,330590,0.894,-0.286,0.211,-6.9,6.9,0.1,-3.5,35.7,-5.7,0.475417341,0.360728782,-0.50389111,0.624408704
907,2271787,330590,0.898,-0.286,0.207,-6.8,6.5,-0.3,-3.5,35.5,-5.8,0.475539415,0.360576189,-0.50389111,0.624408704
908,2274036,330590,0.898,-0.282,0.211,-6.6,6.2,-0.8,-3.5,35.5,-5.8,0.475661489,0.360423597,-0.503921628,0.624347667
909,2276958,330600,0.898,-0.282,0.211,-6.7,6.1,-1.4,-3.5,35.5,-5.8,0.475814081,0.360271004,-0.503952147,0.624317148
910,2278167,330600,0.898,-0.279,0.207,-6.8,5.9,-1.8,-3.5,35.5,-5.8,0.475966674,0.36014893,-0.503952147,0.62428663
911,2281517,330600,0.898,-0.279,0.207,-6.8,5.9,-1.8,-3.5,35.5,-5.8,0.475966674,0.36014893,-0.503952147,0.62428663
912,2283065,330600,0.902,-0.275,0.21,-7,5.2,-2.7,-3.5,36,-3.5,0.476271859,0.359935301,-0.503982665,0.624134037
913,2286837,330610,0.902,-0.279,0.214,-7,4.8,-3.1,-3.5,36,-3.5,0.476424451,0.359813227,-0.504013184,0.624073
914,2288217,330610,0.906,-0.271,0.218,-7,4.6,-3.4,-3.5,36,-3.5,0.476577044,0.359721671,-0.504043703,0.624011963
915,2291079,330610,0.906,-0.271,0.218,-7,4.6,-3.4,-3.5,36,-3.5,0.476577044,0.359721671,-0.504043703,0.624011963
916,2294312,330610,0.902,-0.275,0.218,-7,4.6,-4,-2.8,35.5,-5,0.476729637,0.359630116,-0.504043703,0.623920408
917,2295808,330620,0.906,-0.275,0.222,-7.3,4.3,-4.8,-2.8,35.5,-5,0.477034822,0.359447005,-0.504074221,0.623737297
918,2299004,330620,0.906,-0.275,0.222,-7.3,4.3,-4.8,-2.8,35.5,-5,0.477248451,0.359385968,-0.50410474,0.623615223
919,2301971,330620,0.906,-0.275,0.222,-7.3,4.3,-4.8,-2.8,35.5,-5,0.477248451,0.359385968,-0.50410474,0.623615223
920,2304286,330620,0.91,-0.271,0.226,-7.8,3.8,-5.3,-3.2,35.3,-5.2,0.477431562,0.359294412,-0.504135258,0.623523667
921,2306451,330630,0.91,-0.271,0.222,-8.1,3.7,-5.3,-3.2,35.3,-5.2,0.477584155,0.359233375,-0.504165777,0.623401593
922,2309486,330630,0.914,-0.275,0.226,-8.3,3.7,-5.5,-3.2,35.3,-5.2,0.477767266,0.35914182,-0.504196295,0.623279519
923,2310859,330630,0.906,-0.282,0.226,-8.4,3.8,-5.6,-3.2,35.3,-5.2,0.477950377,0.359050264,-0.504226814,0.623157445
924,2313908,330630,0.906,-0.282,0.226,-8.4,3.8,-5.6,-3.2,35.3,-5.2,0.477950377,0.359050264,-0.504226814,0.623157445
925,2316970,330640,0.91,-0.279,0.23,-8.9,3.6,-6,-3.2,35.3,-5.2,0.478133488,0.359019745,-0.504287851,0.622974334
926,2318586,330640,0.906,-0.275,0.23,-9,3.5,-6,-3.2,35.3,-5.2,0.478316599,0.358958708,-0.504318369,0.62285226
927,2320657,330640,0.91,-0.283,0.23,-9.1,3.4,-6.1,-3.2,35.3,-5.2,0.478530229,0.358867153,-0.504379406,0.622730186
928,2323873,330640,0.906,-0.279,0.234,-9.1,3.3,-6.1,-3.2,35.3,-5.2,0.47871334,0.358806116,-0.504409925,0.622577593
929,2326129,330650,0.914,-0.275,0.238,-9.2,3.2,-6.1,-3.1,36.9,-3.2,0.478896451,0.358745079,-0.504440443,0.622425001
930,2328123,330650,0.91,-0.279,0.234,-9.4,2.9,-6.2,-3.1,36.9,-3.2,0.479079562,0.358653523,-0.50450148,0.622302927
931,2332048,330650,0.914,-0.279,0.23,-9.5,2.5,-6.2,-3.1,36.9,-3.2,0.479293191,0.358592486,-0.504562517,0.622150334
932,2334359,330650,0.914,-0.271,0.234,-9.5,2.1,-6.1,-3.1,36.9,-3.2,0.479476302,0.358531449,-0.504623554,0.621997742
933,2336622,330660,0.914,-0.271,0.234,-9.5,2.1,-6.1,-3.1,36.9,-3.2,0.479476302,0.358531449,-0.504623554,0.621997742
934,2339043,330660,0.918,-0.271,0.23,-9.7,1.6,-5.9,-3.3,35.3,-5.2,0.479628895,0.358470412,-0.504684591,0.621845149
935,2342659,330660,0.918,-0.271,0.23,-9.5,1.3,-5.7,-3.3,35.3,-5.2,0.479964599,0.358378857,-0.504837184,0.621509445
936,2344942,330660,0.918,-0.271,0.234,-9.3,1.1,-5.5,-3.3,35.3,-5.2,0.48014771,0.35831782,-0.504867702,0.621356853
937,2347287,330670,0.918,-0.271,0.234,-9.3,1.1,-5.5,-3.3,35.3,-5.2,0.48014771,0.35831782,-0.504867702,0.621356853
938,2349530,330670,0.914,-0.271,0.226,-8.8,0.3,-5.3,-3.4,35.7,-5.3,0.480269784,0.358287301,-0.504959258,0.62120426
939,2351731,330670,0.918,-0.271,0.222,-8.4,0,-5.1,-3.4,35.7,-5.3,0.480422376,0.358226264,-0.505050813,0.621082186
940,2353957,330670,0.914,-0.275,0.222,-8,-0.1,-4.8,-3.4,35.7,-5.3,0.48054445,0.358226264,-0.50511185,0.620929594
941,2356321,330680,0.922,-0.275,0.226,-7.6,-0.1,-4.5,-3.4,35.7,-5.3,0.480666524,0.358195746,-0.505172887,0.62080752
942,2358182,330680,0.922,-0.275,0.218,-7.1,-0.2,-4.3,-2.9,35.6,-5.2,0.480788598,0.358165227,-0.505264443,0.620685446
943,2361798,330680,0.922,-0.283,0.222,-6.6,-0.4,-4.2,-2.9,35.6,-5.2,0.480880154,0.358134709,-0.50532548,0.620563372
944,2363303,330680,0.918,-0.283,0.218,-6.3,-0.7,-4,-2.9,35.6,-5.2,0.480941191,0.358134709,-0.505386517,0.620441298
945,2366854,330690,0.922,-0.287,0.214,-6,-0.9,-3.8,-2.9,35.6,-5.2,0.481063265,0.358134709,-0.505447554,0.620319224
946,2368411,330690,0.922,-0.287,0.214,-6,-0.9,-3.8,-2.9,35.6,-5.2,0.481063265,0.358134709,-0.505447554,0.620319224
947,2371826,330690,0.922,-0.287,0.214,-6,-0.9,-3.8,-2.9,35.6,-5.2,0.481063265,0.358134709,-0.505447554,0.620319224
948,2373958,330690,0.926,-0.299,0.214,-5.6,-1.4,-3.2,-3.5,35.6,-5.3,0.481093783,0.358165227,-0.505752739,0.620014039
949,2376332,330700,0.922,-0.298,0.214,-5.7,-1.5,-3.1,-3.5,35.6,-5.3,0.48115482,0.358165227,-0.505844295,0.619922483
950,2378337,330700,0.922,-0.302,0.214,-5.7,-1.7,-2.9,-3.5,35.6,-5.3,0.481215857,0.358134709,-0.505905332,0.619800409
951,2380637,330700,0.922,-0.302,0.214,-5.7,-1.7,-2.9,-3.5,35.6,-5.3,0.481215857,0.358134709,-0.505905332,0.619800409
952,2383276,330700,0.93,-0.299,0.214,-5.7,-1.9,-2.5,-3.2,36.7,-4,0.481276894,0.358134709,-0.505996887,0.619708853
953,2387419,330710,0.93,-0.306,0.218,-5.6,-1.9,-2.3,-3.2,36.7,-4,0.481398968,0.358134709,-0.50614948,0.619495224
954,2389560,330710,0.93,-0.306,0.218,-5.6,-2.1,-2.1,-3.2,36.7,-4,0.481429487,0.358134709,-0.506210517,0.619403668
955,2391984,330710,0.93,-0.306,0.218,-5.6,-2.1,-2.1,-3.2,36.7,-4,0.481429487,0.358134709,-0.506210517,0.619403668
956,2394184,330710,0.937,-0.314,0.214,-5.5,-2.7,-1.8,-3.6,36,-3.8,0.481460005,0.358134709,-0.506302072,0.619281594
957,2396426,330720,0.941,-0.314,0.218,-5.3,-3.2,-1.7,-3.6,36,-3.8,0.481521043,0.358134709,-0.506485183,0.619098483
958,2398351,330720,0.941,-0.314,0.218,-5.1,-3.5,-1.7,-3.6,36,-3.8,0.481551561,0.358134709,-0.506576739,0.618976409
959,2400613,330720,0.941,-0.314,0.218,-5.1,-3.5,-1.7,-3.6,36,-3.8,0.481551561,0.358134709,-0.506576739,0.618976409
960,2404516,330720,0.945,-0.314,0.222,-4.8,-4.1,-1.5,-3.5,36.3,-3.5,0.48158208,0.358165227,-0.506698813,0.618884854
961,2406868,330730,0.945,-0.314,0.225,-4.7,-4.6,-1.4,-3.5,36.3,-3.5,0.48158208,0.358195746,-0.506790368,0.61876278
962,2409104,330730,0.945,-0.311,0.225,-4.6,-5.1,-1.4,-3.5,36.3,-3.5,0.48158208,0.358226264,-0.506881924,0.618671224
963,2411392,330730,0.957,-0.311,0.229,-4.6,-5.1,-1.4,-3.5,36.3,-3.5,0.48158208,0.358256783,-0.507003998,0.61854915
964,2414142,330730,0.961,-0.307,0.229,-4.6,-5.9,-1.2,-3.6,36.9,-3.9,0.481551561,0.35831782,-0.507126072,0.618457595
965,2416303,330740,0.961,-0.307,0.241,-4.8,-6.1,-1,-3.6,36.9,-3.9,0.481551561,0.358348338,-0.507248146,0.61833552
966,2418344,330740,0.961,-0.303,0.237,-4.9,-6.3,-0.9,-3.6,36.9,-3.9,0.481521043,0.358409375,-0.50737022,0.618213446
967,2420570,330740,0.957,-0.299,0.237,-5,-6.5,-0.9,-3.6,36.9,-3.9,0.481490524,0.358439894,-0.507492294,0.618121891
968,2423859,330740,0.957,-0.299,0.237,-5,-6.5,-0.9,-3.6,36.9,-3.9,0.481490524,0.358439894,-0.507492294,0.618121891
969,2427274,330750,0.973,-0.291,0.241,-4.9,-6.9,-0.7,-3.5,36.5,-3.9,0.481398968,0.358409375,-0.507705924,0.618030335
970,2428986,330750,0.973,-0.287,0.241,-4.8,-6.9,-0.5,-3.5,36.5,-3.9,0.48136845,0.358470412,-0.507827998,0.617908261
971,2431271,330750,0.969,-0.283,0.245,-4.8,-6.7,-0.3,-3.5,36.5,-3.9,0.481337931,0.358500931,-0.50798059,0.617816706
972,2434718,330750,0.965,-0.287,0.241,-4.7,-6.5,-0.1,-3.5,36.5,-3.9,0.481307413,0.358561968,-0.508102664,0.617694632
973,2436978,330760,0.965,-0.276,0.233,-4.6,-6.3,0.1,-3.4,36.3,-3.6,0.481276894,0.358592486,-0.508224738,0.617603076
974,2439347,330760,0.969,-0.28,0.237,-4.4,-6.1,0.3,-3.4,36.3,-3.6,0.481215857,0.358623005,-0.508377331,0.617511521
975,2441538,330760,0.969,-0.276,0.233,-4.3,-5.8,0.5,-3.4,36.3,-3.6,0.481185339,0.358653523,-0.508499405,0.617419965
976,2443730,330760,0.965,-0.272,0.233,-4.1,-5.5,0.6,-3.4,36.3,-3.6,0.48115482,0.358653523,-0.508621479,0.61732841
977,2445787,330770,0.965,-0.272,0.233,-4.1,-5.5,0.6,-3.4,36.3,-3.6,0.48115482,0.358653523,-0.508621479,0.61732841
978,2448064,330770,0.961,-0.272,0.225,-4,-5.3,0.7,-3.5,36.2,-3.7,0.481124302,0.358684042,-0.508713034,0.617267373
979,2450542,330770,0.957,-0.26,0.225,-3.6,-5,0.8,-3.5,36.2,-3.7,0.481032746,0.35871456,-0.508957183,0.61711478
980,2453075,330770,0.957,-0.26,0.225,-3.4,-4.7,0.9,-3.5,36.2,-3.7,0.481002228,0.358745079,-0.509048738,0.617053743
981,2456718,330780,0.957,-0.26,0.225,-3.4,-4.7,0.9,-3.5,36.2,-3.7,0.481002228,0.358745079,-0.509048738,0.617053743
982,2458365,330780,0.953,-0.26,0.217,-3,-4.4,1.3,-3.9,36.2,-3.8,0.480941191,0.358745079,-0.509140294,0.616992706
983,2461917,330780,0.953,-0.26,0.225,-2.7,-4.5,1.4,-3.9,36.2,-3.8,0.480910672,0.358775597,-0.509231849,0.616962188
984,2464174,330780,0.949,-0.26,0.221,-2.6,-4.6,1.5,-3.9,36.2,-3.8,0.480819117,0.358806116,-0.509445479,0.616840114
985,2466351,330790,0.949,-0.26,0.221,-2.6,-4.6,1.5,-3.9,36.2,-3.8,0.480819117,0.358806116,-0.509445479,0.616840114
986,2468744,330790,0.941,-0.248,0.218,-2.3,-4.6,1.6,-4.1,36.2,-3.8,0.48075808,0.358836634,-0.509537034,0.616809595
987,2472178,330790,0.949,-0.248,0.213,-2.3,-4.4,1.6,-4.1,36.2,-3.8,0.480697043,0.358836634,-0.50962859,0.616748558
988,2474495,330790,0.945,-0.256,0.217,-2.3,-4.3,1.6,-4.1,36.2,-3.8,0.480636006,0.358867153,-0.509720145,0.616718039
989,2477087,330800,0.945,-0.252,0.214,-2.3,-4.3,1.6,-4.1,36.2,-3.8,0.480605487,0.358867153,-0.509811701,0.616687521
990,2479436,330800,0.945,-0.252,0.214,-2.3,-4.3,1.6,-4.1,36.2,-3.8,0.480605487,0.358867153,-0.509811701,0.616687521
991,2481772,330800,0.941,-0.252,0.21,-2.3,-4,2.1,-2.9,35.3,-3.7,0.480605487,0.359050264,-0.509842219,0.61650441
992,2483844,330800,0.941,-0.256,0.21,-2.3,-4,2.2,-2.9,35.3,-3.7,0.480574969,0.359080782,-0.509933775,0.616473891
993,2485892,330810,0.941,-0.252,0.214,-2.4,-3.9,2.3,-2.9,35.3,-3.7,0.480513932,0.359080782,-0.51002533,0.616443373
994,2488794,330810,0.941,-0.256,0.206,-2.5,-3.7,2.5,-2.9,35.3,-3.7,0.480452895,0.359050264,-0.510116886,0.616412854
995,2490879,330810,0.941,-0.26,0.21,-2.7,-3.4,2.6,-4.7,36.9,-3.7,0.480391858,0.359050264,-0.510208441,0.616382336
996,2493100,330810,0.945,-0.256,0.21,-3,-3.2,2.8,-4.7,36.9,-3.7,0.480330821,0.359019745,-0.510299997,0.616351817
997,2496218,330820,0.941,-0.268,0.206,-3.1,-3.1,3,-4.7,36.9,-3.7,0.480300302,0.359019745,-0.510391552,0.616321299
998,2498301,330820,0.945,-0.264,0.206,-3.3,-2.9,3.2,-4.7,36.9,-3.7,0.480239265,0.358989227,-0.510513627,0.61629078
999,2500570,330820,0.945,-0.264,0.206,-3.3,-2.9,3.2,-4.7,36.9,-3.7,0.480239265,0.358989227,-0.510513627,0.61629078
1000,2503769,330820,0.945,-0.264,0.21,-3.4,-2.8,3.5,-4.6,36.9,-4.4,0.48014771,0.358897671,-0.510727256,0.616260262
1001,2505791,330830,0.937,-0.26,0.21,-3.6,-2.6,3.6,-4.6,36.9,-4.4,0.480086673,0.358867153,-0.510818812,0.616229743
1002,2508098,330830,0.937,-0.26,0.21,-3.6,-2.5,3.7,-4.6,36.9,-4.4,0.480025636,0.358806116,-0.510910367,0.616199225
1003,2511192,330830,0.937,-0.26,0.21,-3.6,-2.5,3.7,-4.6,36.9,-4.4,0.480025636,0.358806116,-0.510910367,0.616199225
1004,2513119,330830,0.941,-0.264,0.21,-3.7,-2.3,3.8,-5,36.7,-3.5,0.479995117,0.358775597,-0.511032441,0.616199225
1005,2516770,330840,0.945,-0.264,0.21,-3.6,-2.5,4,-5,36.7,-3.5,0.479873043,0.358653523,-0.511246071,0.616138188
1006,2518997,330840,0.941,-0.26,0.21,-3.6,-2.5,4,-5,36.7,-3.5,0.479842524,0.358623005,-0.511337626,0.616138188
1007,2521290,330840,0.941,-0.26,0.21,-3.6,-2.5,4,-5,36.7,-3.5,0.479842524,0.358623005,-0.511337626,0.616138188
1008,2523439,330840,0.937,-0.26,0.21,-3.4,-2.5,4,-5,37,-3.6,0.479781487,0.358561968,-0.5114597,0.616107669
1009,2525680,330850,0.941,-0.264,0.214,-3.4,-2.5,4,-5,37,-3.6,0.47972045,0.358500931,-0.511551256,0.616107669
1010,2529523,330850,0.941,-0.264,0.214,-3.3,-2.4,4,-5,37,-3.6,0.479659413,0.358470412,-0.51167333,0.616077151
1011,2531815,330850,0.941,-0.264,0.214,-3.1,-2.3,3.9,-5,37,-3.6,0.479598376,0.358409375,-0.511764885,0.616077151
1012,2534134,330850,0.941,-0.264,0.214,-3.1,-2.3,3.9,-5,37,-3.6,0.479598376,0.358409375,-0.511764885,0.616077151
1013,2536219,330860,0.941,-0.26,0.214,-2.8,-2.1,4,-2.9,35.9,-3.5,0.479750969,0.358775597,-0.511703848,0.615771966
1014,2539311,330860,0.945,-0.26,0.214,-2.7,-1.9,4,-2.9,35.9,-3.5,0.479689932,0.358745079,-0.511795404,0.615771966
1015,2541541,330860,0.941,-0.264,0.214,-2.6,-1.8,4,-2.9,35.9,-3.5,0.479659413,0.358684042,-0.511886959,0.615771966
1016,2544459,330860,0.945,-0.26,0.221,-2.6,-1.8,4,-2.9,35.9,-3.5,0.479598376,0.358653523,-0.511978515,0.615771966
1017,2546071,330870,0.953,-0.26,0.217,-2.5,-1.8,3.9,-4.2,35.6,-3.3,0.479537339,0.358592486,-0.51207007,0.615771966
1018,2548983,330870,0.949,-0.256,0.214,-2.5,-1.8,3.9,-4.2,35.6,-3.3,0.479476302,0.358561968,-0.512161626,0.615771966
1019,2551860,330870,0.949,-0.256,0.221,-2.4,-1.6,3.8,-4.2,35.6,-3.3,0.479445784,0.358500931,-0.512222663,0.615771966
1020,2554048,330870,0.949,-0.256,0.221,-2.4,-1.6,3.8,-4.2,35.6,-3.3,0.479445784,0.358500931,-0.512222663,0.615771966
1021,2556833,330880,0.953,-0.248,0.217,-2.3,-1.4,3.7,-4.2,35.6,-3.3,0.479384747,0.358439894,-0.512314219,0.615771966
1022,2558202,330880,0.953,-0.248,0.221,-2.3,-0.8,3.8,-3.7,36.2,-3.7,0.479293191,0.358348338,-0.512436293,0.615802484
1023,2561244,330880,0.953,-0.248,0.225,-2.3,-0.6,3.9,-3.7,36.2,-3.7,0.479262673,0.358287301,-0.512527848,0.615802484
1024,2564178,330880,0.953,-0.248,0.225,-2.3,-0.5,3.8,-3.7,36.2,-3.7,0.479201636,0.358226264,-0.512588885,0.615802484
1025,2566552,330890,0.953,-0.248,0.225,-2.3,-0.5,3.8,-3.7,36.2,-3.7,0.479201636,0.358226264,-0.512588885,0.615802484
1026,2568862,330890,0.953,-0.248,0.217,-2.2,-0.4,3.7,-3.4,35.8,-3.6,0.479171117,0.358165227,-0.512649922,0.615833003
1027,2570819,330890,0.953,-0.244,0.221,-1.9,-0.3,3.6,-3.4,35.8,-3.6,0.47911008,0.358043153,-0.512771996,0.615833003
1028,2573090,330890,0.953,-0.244,0.221,-1.7,-0.3,3.6,-3.4,35.8,-3.6,0.479049043,0.358012635,-0.512833033,0.615863521
1029,2576328,330900,0.953,-0.244,0.221,-1.7,-0.3,3.6,-3.4,35.8,-3.6,0.479049043,0.358012635,-0.512833033,0.615863521
1030,2578667,330900,0.953,-0.24,0.221,-1.3,-0.1,3.4,-3.2,35.9,-3.8,0.478988006,0.357951598,-0.512863552,0.61589404
1031,2580598,330900,0.949,-0.24,0.213,-1.3,-0.1,3.4,-3.2,35.9,-3.8,0.478988006,0.357890561,-0.512924589,0.61589404
1032,2584493,330900,0.949,-0.236,0.217,-0.8,0,3.2,-3.2,35.9,-3.8,0.478926969,0.357799005,-0.512985626,0.615955077
