sample_index,elapsed_us,device_time_ms,acc_x_g,acc_y_g,acc_z_g,gyro_x_dps,gyro_y_dps,gyro_z_dps,mag_x_ut,mag_y_ut,mag_z_ut,quat_w,quat_x,quat_y,quat_z
0,3941,1814480,-0.53,-0.62,0.602,1.4,-0.9,-0.7,3.9,-7.7,-23.1,0.456617939,0.075594348,0.446028016,-0.766014588
1,6141,1814480,-0.526,-0.624,0.598,1.6,-1,-0.6,3.9,-7.7,-23.1,0.456617939,0.075594348,0.445997497,-0.766045106
2,8437,1814480,-0.526,-0.62,0.598,1.7,-1,-0.6,3.9,-7.7,-23.1,0.456617939,0.075594348,0.445966979,-0.766075625
3,11000,1814490,-0.526,-0.62,0.602,1.7,-1,-0.6,3.9,-7.7,-23.1,0.456617939,0.075594348,0.445905942,-0.766106143
4,15122,1814490,-0.526,-0.624,0.598,1.7,-1,-0.6,8.4,-8.9,-23,0.456617939,0.075594348,0.445875423,-0.766106143
5,15826,1814490,-0.522,-0.624,0.602,1.6,-1.1,-0.4,8.4,-8.9,-23,0.456617939,0.0755638295,0.445844905,-0.766136662
6,18159,1814490,-0.522,-0.624,0.602,1.6,-1.1,-0.4,8.4,-8.9,-23,0.456617939,0.0755638295,0.445844905,-0.766136662
7,22316,1814500,-0.522,-0.616,0.598,1.3,-1.1,-0.4,8.4,-8.9,-23,0.456617939,0.0755638295,0.445783868,-0.76616718
8,24482,1814500,-0.522,-0.616,0.598,1.3,-1.1,-0.4,8.4,-8.9,-23,0.456617939,0.0755638295,0.445783868,-0.76616718
9,26791,1814500,-0.526,-0.616,0.598,1,-1,-0.2,5.4,-5.9,-23,0.456617939,0.0755027924,0.445661794,-0.766228217
10,28992,1814500,-0.526,-0.616,0.594,1,-0.9,0,5.4,-5.9,-23,0.456617939,0.0754722739,0.445631275,-0.766258736
11,30862,1814510,-0.522,-0.616,0.602,0.8,-0.8,0.1,5.4,-5.9,-23,0.456648457,0.0754722739,0.445631275,-0.766258736
12,34233,1814510,-0.522,-0.62,0.598,0.8,-0.7,0.2,6.3,-6.2,-23,0.456648457,0.0754722739,0.445600757,-0.766258736
13,36490,1814510,-0.518,-0.62,0.601,0.7,-0.6,0.3,6.3,-6.2,-23,0.456648457,0.0754722739,0.445570238,-0.766289254
14,38718,1814510,-0.522,-0.624,0.602,0.7,-0.4,0.4,6.3,-6.2,-23,0.456678976,0.0754722739,0.445570238,-0.766289254
15,40956,1814520,-0.522,-0.62,0.602,0.7,-0.4,0.4,6.3,-6.2,-23,0.456678976,0.0754722739,0.44553972,-0.766289254
16,43306,1814520,-0.526,-0.62,0.602,0.6,-0.3,0.4,7.5,-6,-22.5,0.456678976,0.0755027924,0.44553972,-0.766289254
17,45813,1814520,-0.522,-0.624,0.605,0.5,-0.3,0.4,7.5,-6,-22.5,0.456709494,0.0755027924,0.445509201,-0.766289254
18,49215,1814520,-0.518,-0.624,0.598,0.4,-0.3,0.5,7.5,-6,-22.5,0.456709494,0.0755027924,0.445509201,-0.766289254
19,50744,1814530,-0.522,-0.624,0.598,0.4,-0.3,0.7,7.5,-6,-22.5,0.456709494,0.0755027924,0.445478683,-0.766289254
20,53354,1814530,-0.526,-0.62,0.598,0.4,-0.4,0.8,8.1,-6.1,-22.7,0.456740013,0.0755027924,0.445478683,-0.766289254
21,56682,1814530,-0.522,-0.62,0.602,0.4,-0.3,0.9,8.1,-6.1,-22.7,0.456770531,0.0755027924,0.445478683,-0.766258736
22,58131,1814530,-0.526,-0.616,0.594,0.4,-0.1,0.8,8.1,-6.1,-22.7,0.456770531,0.075533311,0.445448164,-0.766258736
23,60873,1814540,-0.522,-0.616,0.598,0.2,0,0.8,8.1,-6.1,-22.7,0.45680105,0.075533311,0.445448164,-0.766258736
24,64785,1814540,-0.526,-0.616,0.59,0.3,0,0.7,6.9,-8.4,-23.1,0.45680105,0.0755638295,0.445448164,-0.766258736
25,66174,1814540,-0.522,-0.612,0.598,0.4,0,0.8,6.9,-8.4,-23.1,0.45680105,0.0755638295,0.445448164,-0.766258736
26,69887,1814540,-0.526,-0.612,0.594,0.4,-0.1,0.8,6.9,-8.4,-23.1,0.456831568,0.0755638295,0.445417646,-0.766258736
27,71699,1814550,-0.522,-0.608,0.59,0.4,0,0.8,6.9,-8.4,-23.1,0.456831568,0.075594348,0.445417646,-0.766258736
28,73175,1814550,-0.522,-0.608,0.59,0.4,0,0.8,6.9,-8.4,-23.1,0.456831568,0.075594348,0.445417646,-0.766258736
29,75977,1814550,-0.526,-0.604,0.594,0.2,0,0.6,6.9,-7.1,-23.1,0.456892605,0.0756248665,0.445387127,-0.766258736
30,78177,1814550,-0.522,-0.612,0.594,0.2,0.1,0.6,6.9,-7.1,-23.1,0.456892605,0.0756248665,0.445356609,-0.766228217
31,81751,1814560,-0.522,-0.612,0.594,0.1,0.3,0.5,6.9,-7.1,-23.1,0.456892605,0.075655385,0.445356609,-0.766228217
32,83102,1814560,-0.526,-0.604,0.598,0.1,0.3,0.5,7.3,-7,-22.8,0.456892605,0.075655385,0.445356609,-0.766228217
33,86052,1814560,-0.522,-0.604,0.594,0.1,0.4,0.5,7.3,-7,-22.8,0.456892605,0.0756859035,0.445387127,-0.766228217
34,88163,1814560,-0.522,-0.608,0.598,0.1,0.4,0.4,7.3,-7,-22.8,0.456892605,0.0756859035,0.445387127,-0.766228217
35,92000,1814570,-0.522,-0.608,0.594,0.2,0.4,0.3,7.3,-7,-22.8,0.456923124,0.0756859035,0.445387127,-0.766228217
36,94278,1814570,-0.522,-0.608,0.594,0.2,0.4,0.2,6.4,-7.1,-23.1,0.456892605,0.075716422,0.445387127,-0.766228217
37,96442,1814570,-0.522,-0.608,0.598,0.2,0.6,0.2,6.4,-7.1,-23.1,0.456892605,0.075716422,0.445387127,-0.766228217
38,99501,1814570,-0.526,-0.604,0.594,0.1,0.7,0.2,6.4,-7.1,-23.1,0.456892605,0.0757469405,0.445387127,-0.766228217
39,101042,1814580,-0.522,-0.604,0.594,0.1,0.7,0.1,6.4,-7.1,-23.1,0.456892605,0.0757469405,0.445387127,-0.766228217
40,103202,1814580,-0.526,-0.604,0.586,0.1,0.7,0.1,6.8,-8.1,-23,0.456892605,0.075777459,0.445387127,-0.766228217
41,105897,1814580,-0.522,-0.604,0.594,0.2,0.6,0,6.8,-8.1,-23,0.456892605,0.075777459,0.445387127,-0.766228217
42,108182,1814580,-0.526,-0.608,0.594,0.4,0.5,0,6.8,-8.1,-23,0.456892605,0.075777459,0.445387127,-0.766228217
43,111794,1814590,-0.526,-0.604,0.594,0.5,0.4,0,6.8,-8.1,-23,0.456862087,0.075777459,0.445387127,-0.766228217
44,114130,1814590,-0.526,-0.604,0.59,0.6,0.5,0,7.1,-6.3,-22.7,0.456862087,0.075838496,0.445387127,-0.766228217
45,115623,1814590,-0.526,-0.604,0.59,0.6,0.6,-0.1,7.1,-6.3,-22.7,0.456862087,0.075838496,0.445387127,-0.766228217
46,118422,1814590,-0.53,-0.604,0.586,0.5,0.6,-0.1,7.1,-6.3,-22.7,0.456862087,0.0758690146,0.445387127,-0.766228217
47,121645,1814600,-0.53,-0.604,0.594,0.6,0.6,-0.3,7.1,-6.3,-22.7,0.456831568,0.0758690146,0.445356609,-0.766258736
48,123346,1814600,-0.53,-0.604,0.594,0.6,0.6,-0.3,7.1,-6.3,-22.7,0.456831568,0.0758690146,0.445356609,-0.766258736
49,126839,1814600,-0.53,-0.608,0.594,0.7,0.4,-0.5,6.8,-8.9,-22.7,0.456862087,0.0760216071,0.445295572,-0.766258736
50,129079,1814600,-0.522,-0.608,0.586,0.7,0.4,-0.6,6.8,-8.9,-22.7,0.456862087,0.0760216071,0.445295572,-0.766258736
51,130844,1814610,-0.53,-0.616,0.594,0.8,0.5,-0.6,6.8,-8.9,-22.7,0.456831568,0.0760521256,0.445295572,-0.766289254
52,134313,1814610,-0.522,-0.612,0.594,0.8,0.6,-0.6,7.3,-9.7,-23.1,0.456831568,0.0760521256,0.445295572,-0.766289254
53,136132,1814610,-0.526,-0.612,0.586,0.8,0.6,-0.6,7.3,-9.7,-23.1,0.45680105,0.0760826441,0.445265053,-0.766289254
54,138171,1814610,-0.526,-0.616,0.59,0.8,0.6,-0.7,7.3,-9.7,-23.1,0.456770531,0.0760826441,0.445265053,-0.766319773
55,140693,1814620,-0.526,-0.616,0.59,0.8,0.6,-0.8,7.3,-9.7,-23.1,0.456770531,0.0760826441,0.445265053,-0.766319773
56,143757,1814620,-0.53,-0.616,0.59,0.8,0.5,-0.8,7,-9.5,-22.7,0.456740013,0.0761131626,0.445265053,-0.766350291
57,146944,1814620,-0.526,-0.62,0.594,0.8,0.5,-0.9,7,-9.5,-22.7,0.456709494,0.0761131626,0.445234535,-0.76638081
58,148345,1814620,-0.526,-0.62,0.598,0.8,0.5,-0.9,7,-9.5,-22.7,0.456709494,0.0761131626,0.445234535,-0.76638081
59,151491,1814630,-0.526,-0.62,0.59,0.8,0.6,-0.9,7,-9.5,-22.7,0.456678976,0.0761436811,0.445234535,-0.766411328
60,153238,1814630,-0.526,-0.616,0.586,0.7,0.7,-0.8,7.4,-9.1,-22.9,0.456648457,0.0761436811,0.445234535,-0.766411328
61,156706,1814630,-0.526,-0.612,0.598,0.7,0.7,-0.8,7.4,-9.1,-22.9,0.456617939,0.0761436811,0.445234535,-0.766441847
62,158233,1814630,-0.522,-0.616,0.594,0.8,0.8,-0.8,7.4,-9.1,-22.9,0.456617939,0.0761741997,0.445234535,-0.766441847
63,161352,1814640,-0.526,-0.612,0.59,0.8,0.7,-0.8,7.4,-9.1,-22.9,0.45658742,0.0761741997,0.445204016,-0.766472365
64,163414,1814640,-0.526,-0.616,0.594,0.7,0.7,-0.8,7,-6.3,-21.4,0.456556902,0.0762047182,0.445204016,-0.766472365
65,166324,1814640,-0.526,-0.616,0.594,0.7,0.7,-0.9,7,-6.3,-21.4,0.456526383,0.0762047182,0.445204016,-0.766502884
66,168141,1814640,-0.522,-0.616,0.598,0.5,0.7,-0.9,7,-6.3,-21.4,0.456495865,0.0762047182,0.445204016,-0.766502884
67,171104,1814650,-0.522,-0.62,0.59,0.3,0.7,-0.8,7,-6.3,-21.4,0.456495865,0.0762352367,0.445204016,-0.766502884
68,174321,1814650,-0.522,-0.62,0.59,0.3,0.7,-0.8,7,-6.3,-21.4,0.456495865,0.0762352367,0.445204016,-0.766502884
69,176485,1814650,-0.526,-0.62,0.594,0,0.9,-0.6,7.4,-7.8,-24.5,0.456434828,0.0762352367,0.445234535,-0.766533403
70,178686,1814650,-0.522,-0.616,0.594,-0.1,1,-0.5,7.4,-7.8,-24.5,0.456434828,0.0762352367,0.445234535,-0.766533403
71,180729,1814660,-0.522,-0.62,0.594,-0.3,1.1,-0.4,7.4,-7.8,-24.5,0.456404309,0.0762352367,0.445265053,-0.766533403
72,183297,1814660,-0.526,-0.62,0.59,-0.5,1.1,-0.4,7.3,-6.7,-24.6,0.456404309,0.0762657552,0.445265053,-0.766533403
73,185991,1814660,-0.518,-0.62,0.594,-0.6,1.2,-0.5,7.3,-6.7,-24.6,0.456373791,0.0762657552,0.445295572,-0.766533403
74,189044,1814660,-0.526,-0.624,0.59,-0.7,1.2,-0.5,7.3,-6.7,-24.6,0.456343272,0.0762657552,0.44532609,-0.766533403
75,190724,1814670,-0.526,-0.62,0.59,-0.7,1.2,-0.4,7.3,-6.7,-24.6,0.456343272,0.0762657552,0.445356609,-0.766533403
76,193931,1814670,-0.522,-0.62,0.59,-0.6,1.2,-0.4,7.5,-6.5,-24.4,0.456312754,0.0762657552,0.445387127,-0.766502884
77,196175,1814670,-0.522,-0.62,0.598,-0.6,1.2,-0.4,7.5,-6.5,-24.4,0.456282235,0.0762657552,0.445387127,-0.766502884
78,198188,1814670,-0.53,-0.62,0.598,-0.5,1.1,-0.3,7.5,-6.5,-24.4,0.456282235,0.0762657552,0.445417646,-0.766502884
79,201005,1814680,-0.526,-0.624,0.598,-0.5,1.1,-0.2,7.5,-6.5,-24.4,0.456251717,0.0763267922,0.445448164,-0.766502884
80,204199,1814680,-0.526,-0.62,0.598,-0.3,0.9,-0.2,7.2,-6.4,-24.5,0.456251717,0.0763267922,0.445448164,-0.766502884
81,206345,1814680,-0.526,-0.624,0.59,-0.4,0.9,-0.2,7.2,-6.4,-24.5,0.456251717,0.0763573107,0.445478683,-0.766502884
82,208646,1814680,-0.53,-0.616,0.594,-0.3,1.1,-0.2,7.2,-6.4,-24.5,0.456221198,0.0763573107,0.445509201,-0.766502884
83,210889,1814690,-0.53,-0.624,0.594,-0.2,1.4,-0.1,7.2,-6.4,-24.5,0.456221198,0.0763878292,0.445509201,-0.766502884
84,213159,1814690,-0.53,-0.624,0.594,-0.1,1.4,-0.2,7,-7.6,-23,0.45619068,0.0763878292,0.44553972,-0.766502884
85,216214,1814690,-0.526,-0.62,0.598,0,1.3,-0.1,7,-7.6,-23,0.456160161,0.0764183477,0.44553972,-0.766472365
86,219209,1814690,-0.526,-0.624,0.598,0.1,1.3,0,7,-7.6,-23,0.456160161,0.0764488662,0.445570238,-0.766472365
87,221363,1814700,-0.53,-0.62,0.598,0.1,1.4,0.1,7,-7.6,-23,0.456160161,0.0764793847,0.445570238,-0.766472365
88,224554,1814700,-0.53,-0.62,0.598,0.1,1.4,0.1,7,-7.6,-23,0.456160161,0.0764793847,0.445570238,-0.766472365
89,226866,1814700,-0.526,-0.616,0.598,0.2,1.7,0.1,6.8,-7.7,-22.6,0.456099124,0.0765099033,0.445600757,-0.766472365
90,229733,1814700,-0.526,-0.616,0.598,0.2,1.7,0.1,6.8,-7.7,-22.6,0.456099124,0.0765099033,0.445600757,-0.766472365
91,231809,1814710,-0.53,-0.616,0.598,0.3,1.5,0.1,6.8,-7.7,-22.6,0.456099124,0.0765709403,0.445600757,-0.766472365
92,233301,1814710,-0.526,-0.608,0.594,0.3,1.4,0.1,6.9,-7.6,-21.8,0.456068606,0.0766014588,0.445631275,-0.766472365
93,237173,1814710,-0.522,-0.608,0.594,0.2,1.4,0,6.9,-7.6,-21.8,0.456068606,0.0766319773,0.445631275,-0.766472365
94,239319,1814710,-0.526,-0.608,0.594,0.2,1.5,0,6.9,-7.6,-21.8,0.456038087,0.0766624958,0.445631275,-0.766472365
95,240824,1814720,-0.534,-0.608,0.594,0.1,1.6,0,6.9,-7.6,-21.8,0.456038087,0.0766930143,0.445661794,-0.766472365
96,243650,1814720,-0.53,-0.608,0.594,0.1,1.7,0.1,6.9,-7.3,-21.1,0.456007569,0.0767235328,0.445661794,-0.766472365
97,245638,1814720,-0.53,-0.608,0.606,0.1,1.7,0.1,6.9,-7.3,-21.1,0.456007569,0.0767540513,0.445692312,-0.766472365
98,248932,1814720,-0.526,-0.604,0.598,0.1,1.7,0.1,6.9,-7.3,-21.1,0.45597705,0.0767540513,0.445692312,-0.766472365
99,250687,1814730,-0.526,-0.612,0.594,0,1.8,0.1,6.9,-7.3,-21.1,0.45597705,0.0768150884,0.445722831,-0.766472365
100,253160,1814730,-0.526,-0.616,0.598,0,1.9,0.1,6.7,-7.6,-20.6,0.455946532,0.0768456069,0.445722831,-0.766472365
101,255649,1814730,-0.526,-0.616,0.602,0,2.1,0.2,6.7,-7.6,-20.6,0.455946532,0.0769066439,0.445753349,-0.766441847
102,258261,1814730,-0.526,-0.612,0.598,0,2.1,0.2,6.7,-7.6,-20.6,0.455916013,0.0769371624,0.445783868,-0.766441847
103,261280,1814740,-0.526,-0.612,0.594,0,2,0.2,6.7,-7.6,-20.6,0.455916013,0.0769676809,0.445783868,-0.766441847
104,263264,1814740,-0.526,-0.612,0.594,0.1,2,0,7.1,-7.8,-25.2,0.455885495,0.0769981994,0.445783868,-0.766441847
105,266483,1814740,-0.522,-0.612,0.601,0.2,2,-0.1,7.1,-7.8,-25.2,0.455854976,0.0770287179,0.445844905,-0.766441847
106,268230,1814740,-0.526,-0.612,0.598,0.2,2.1,-0.2,7.1,-7.8,-25.2,0.455824458,0.0770592364,0.445844905,-0.766441847
107,271813,1814750,-0.526,-0.612,0.594,0.3,2.1,-0.2,7.1,-7.8,-25.2,0.455824458,0.0771202734,0.445875423,-0.766441847
108,274000,1814750,-0.526,-0.612,0.594,0.3,2.1,-0.2,7.1,-7.8,-25.2,0.455824458,0.0771202734,0.445875423,-0.766441847
109,276228,1814750,-0.526,-0.612,0.598,0.5,2.1,-0.3,7.2,-7.5,-21.9,0.455793939,0.0771813105,0.445783868,-0.766472365
110,278401,1814750,-0.526,-0.612,0.598,0.6,2.3,-0.3,7.2,-7.5,-21.9,0.455763421,0.0772423475,0.445783868,-0.766502884
111,280648,1814760,-0.522,-0.608,0.59,0.7,2.3,-0.3,7.2,-7.5,-21.9,0.455732902,0.0772423475,0.445844905,-0.766502884
112,283141,1814760,-0.522,-0.612,0.598,0.7,2.4,-0.2,6.8,-7.6,-22.2,0.455702383,0.077333903,0.445844905,-0.766502884
113,286571,1814760,-0.526,-0.612,0.598,0.8,2.4,-0.3,6.8,-7.6,-22.2,0.455671865,0.0773644215,0.445844905,-0.766502884
114,288167,1814760,-0.518,-0.605,0.601,0.8,2.5,-0.5,6.8,-7.6,-22.2,0.455641346,0.0774254585,0.445875423,-0.766533403
115,291200,1814770,-0.522,-0.608,0.594,0.8,2.5,-0.6,6.8,-7.6,-22.2,0.455549791,0.0774559771,0.445875423,-0.766533403
116,294223,1814770,-0.522,-0.608,0.598,0.8,2.4,-0.6,6.9,-7.3,-23,0.455549791,0.0775170141,0.445905942,-0.766533403
117,295821,1814770,-0.518,-0.605,0.597,0.8,2.4,-0.7,6.9,-7.3,-23,0.455519272,0.0775475326,0.445905942,-0.766563921
118,299028,1814770,-0.522,-0.608,0.605,0.8,2.3,-0.7,6.9,-7.3,-23,0.455488754,0.0775780511,0.445905942,-0.766563921
119,300714,1814780,-0.514,-0.616,0.601,0.8,2.4,-0.7,6.9,-7.3,-23,0.455458235,0.0776390881,0.44593646,-0.766563921
120,303362,1814780,-0.518,-0.616,0.597,0.8,2.6,-0.7,7,-7.4,-23.7,0.455397198,0.0776696066,0.44593646,-0.76659444
121,306720,1814780,-0.518,-0.612,0.605,0.8,2.8,-0.6,7,-7.4,-23.7,0.45536668,0.0777306436,0.445966979,-0.76659444
122,308962,1814780,-0.522,-0.616,0.598,0.8,3,-0.6,7,-7.4,-23.7,0.455336161,0.0777916807,0.445966979,-0.76659444
123,311232,1814790,-0.518,-0.616,0.597,0.5,3.1,-0.6,7,-7.4,-23.7,0.455275124,0.0778221992,0.445997497,-0.76659444
124,313398,1814790,-0.518,-0.616,0.597,0.4,3.1,-0.6,7.1,-7.6,-23.2,0.455244606,0.0778832362,0.446028016,-0.76659444
125,315620,1814790,-0.526,-0.608,0.594,0.2,3.1,-0.6,7.1,-7.6,-23.2,0.455183569,0.0779442732,0.446058535,-0.76659444
126,319337,1814790,-0.526,-0.612,0.594,0.1,3.2,-0.6,7.1,-7.6,-23.2,0.45515305,0.0779747917,0.446089053,-0.76659444
127,321601,1814800,-0.526,-0.612,0.598,0.1,3.2,-0.6,7.1,-7.6,-23.2,0.455122532,0.0780358287,0.446119572,-0.76659444
128,323324,1814800,-0.526,-0.612,0.598,0.1,3.2,-0.6,7.1,-7.6,-23.2,0.455122532,0.0780358287,0.446119572,-0.76659444
129,325632,1814800,-0.522,-0.616,0.594,0.2,3.1,-0.7,7.3,-7.5,-23.6,0.455061495,0.0780968657,0.446058535,-0.766685995
130,329614,1814800,-0.526,-0.612,0.605,0.1,3.2,-0.7,7.3,-7.5,-23.6,0.455000458,0.0781579028,0.446089053,-0.766685995
131,332061,1814810,-0.522,-0.612,0.594,0.1,3.2,-0.7,7.3,-7.5,-23.6,0.454969939,0.0781884213,0.446119572,-0.766685995
132,334410,1814810,-0.522,-0.616,0.598,0,3.2,-0.7,7.5,-7.6,-23.5,0.454908902,0.0782189398,0.446180609,-0.766685995
133,336533,1814810,-0.526,-0.612,0.598,-0.1,3.3,-0.8,7.5,-7.6,-23.5,0.454878384,0.0783104953,0.446211127,-0.766685995
134,338241,1814810,-0.53,-0.616,0.598,-0.3,3.4,-0.9,7.5,-7.6,-23.5,0.454817347,0.0783410138,0.446241646,-0.766685995
135,340723,1814820,-0.526,-0.62,0.59,-0.3,3.4,-1,7.5,-7.6,-23.5,0.45475631,0.0783715323,0.446272164,-0.766685995
136,343724,1814820,-0.53,-0.62,0.598,-0.3,3.4,-0.9,7.4,-7.4,-23.2,0.454725791,0.0784325694,0.446333201,-0.766685995
137,346948,1814820,-0.53,-0.616,0.598,-0.3,3.2,-0.9,7.4,-7.4,-23.2,0.454664754,0.0784630879,0.44636372,-0.766685995
138,348666,1814820,-0.526,-0.616,0.594,-0.3,3.3,-0.9,7.4,-7.4,-23.2,0.454634236,0.0785241249,0.446394238,-0.766685995
139,350666,1814830,-0.53,-0.616,0.594,-0.3,3.4,-1,7.4,-7.4,-23.2,0.454573199,0.0785546434,0.446455275,-0.766685995
140,353821,1814830,-0.53,-0.612,0.594,-0.4,3.4,-1,7.6,-7.4,-23.5,0.454512162,0.0786156804,0.446485794,-0.766685995
141,355637,1814830,-0.53,-0.612,0.59,-0.3,3.3,-1.2,7.6,-7.4,-23.5,0.454481643,0.0786461989,0.446546831,-0.766685995
142,358391,1814830,-0.53,-0.612,0.586,-0.3,3.2,-1.3,7.6,-7.4,-23.5,0.454420606,0.0786767174,0.446577349,-0.766716514
143,360869,1814840,-0.526,-0.62,0.578,-0.2,3.1,-1.4,7.6,-7.4,-23.5,0.454359569,0.0787072359,0.446607868,-0.766716514
144,363100,1814840,-0.53,-0.616,0.59,-0.1,2.9,-1.4,6.9,-7.6,-22.7,0.454298532,0.0787072359,0.446638386,-0.766716514
145,366389,1814840,-0.526,-0.628,0.59,0,2.8,-1.5,6.9,-7.6,-22.7,0.454268014,0.078768273,0.446668905,-0.766716514
146,368100,1814840,-0.526,-0.62,0.598,0.2,2.7,-1.5,6.9,-7.6,-22.7,0.454206977,0.0787987915,0.446699423,-0.766747032
147,371636,1814850,-0.522,-0.624,0.602,0.7,2.8,-1.4,6.9,-7.6,-22.7,0.45414594,0.0788598285,0.446729942,-0.766747032
148,373125,1814850,-0.522,-0.624,0.602,0.7,2.8,-1.4,6.9,-7.6,-22.7,0.45414594,0.0788598285,0.446729942,-0.766747032
149,375955,1814850,-0.522,-0.616,0.602,1.3,3.1,-1.7,8.5,-7.5,-23,0.454023865,0.078890347,0.446729942,-0.766838588
150,379027,1814850,-0.526,-0.612,0.598,1.2,3.2,-1.8,8.5,-7.5,-23,0.453962828,0.0789208655,0.446729942,-0.766869106
151,381991,1814860,-0.522,-0.612,0.601,1,3.2,-1.7,8.5,-7.5,-23,0.453871273,0.0789819025,0.44676046,-0.766869106
152,384087,1814860,-0.518,-0.612,0.601,0.8,3.2,-1.4,8.3,-7.5,-23.3,0.453840754,0.0790429395,0.44676046,-0.766899625
153,385630,1814860,-0.522,-0.612,0.601,0.6,3.2,-1.2,8.3,-7.5,-23.3,0.453779717,0.0790734581,0.446790979,-0.766899625
154,388257,1814860,-0.53,-0.608,0.602,0.5,3.1,-1.2,8.3,-7.5,-23.3,0.45371868,0.0791344951,0.446821497,-0.766930143
155,391308,1814870,-0.526,-0.612,0.598,0.5,3.1,-1.3,8.3,-7.5,-23.3,0.453657643,0.0791650136,0.446852016,-0.766930143
156,394300,1814870,-0.522,-0.612,0.59,0.4,2.9,-1.2,8.1,-7.8,-23.1,0.453596606,0.0791955321,0.446882534,-0.766960662
157,395658,1814870,-0.526,-0.616,0.594,0.2,2.8,-1.2,8.1,-7.8,-23.1,0.453566088,0.0792565691,0.446882534,-0.766960662
158,398491,1814870,-0.526,-0.612,0.59,0,2.7,-1.1,8.1,-7.8,-23.1,0.453505051,0.0792870876,0.446913053,-0.766960662
159,401257,1814880,-0.526,-0.616,0.582,-0.2,2.8,-1.1,8.1,-7.8,-23.1,0.453474532,0.0793176061,0.446943571,-0.766960662
160,404313,1814880,-0.522,-0.616,0.586,-0.4,2.8,-1.1,8.4,-7.7,-23.1,0.453413495,0.0793481246,0.447004608,-0.766960662
161,405717,1814880,-0.53,-0.612,0.59,-0.5,2.9,-1,8.4,-7.7,-23.1,0.453382977,0.0793786431,0.447035127,-0.766960662
162,408731,1814880,-0.534,-0.608,0.59,-0.3,2.9,-1,8.4,-7.7,-23.1,0.45332194,0.0794091617,0.447065645,-0.76699118
163,411370,1814890,-0.526,-0.616,0.582,0,2.9,-1,8.4,-7.7,-23.1,0.453291421,0.0794701987,0.447096164,-0.76699118
164,413117,1814890,-0.53,-0.612,0.594,0.2,2.9,-1,5.7,-7.7,-23,0.453230384,0.0795007172,0.447126682,-0.76699118
165,416419,1814890,-0.53,-0.62,0.59,0.4,2.8,-1,5.7,-7.7,-23,0.453199866,0.0795312357,0.447157201,-0.76699118
166,418339,1814890,-0.53,-0.616,0.59,0.5,2.8,-1.1,5.7,-7.7,-23,0.453138829,0.0795922727,0.447157201,-0.767021699
167,421652,1814900,-0.526,-0.616,0.59,0.6,2.8,-1.1,5.7,-7.7,-23,0.45310831,0.0796227912,0.447187719,-0.767021699
168,424752,1814900,-0.526,-0.616,0.59,0.6,2.8,-1.1,5.7,-7.7,-23,0.45310831,0.0796227912,0.447187719,-0.767021699
169,426237,1814900,-0.534,-0.608,0.59,0.5,2.8,-1.2,9.2,-7.5,-22.6,0.453016755,0.0796838282,0.447187719,-0.767052217
170,429144,1814900,-0.534,-0.608,0.59,0.5,2.8,-1.2,9.2,-7.5,-22.6,0.453016755,0.0796838282,0.447187719,-0.767052217
171,430656,1814910,-0.534,-0.612,0.586,0.4,2.8,-1.3,9.2,-7.5,-22.6,0.452894681,0.0797753838,0.447248756,-0.767082736
172,433418,1814910,-0.534,-0.604,0.586,0.5,2.8,-1.4,9.1,-7.7,-22.6,0.452864162,0.0798364208,0.447248756,-0.767113254
173,436523,1814910,-0.534,-0.604,0.594,0.7,2.7,-1.5,9.1,-7.7,-22.6,0.452803125,0.0798669393,0.447279275,-0.767113254
174,438133,1814910,-0.534,-0.608,0.59,0.8,2.6,-1.6,9.1,-7.7,-22.6,0.452742088,0.0798974578,0.447309793,-0.767143773
175,442008,1814920,-0.533,-0.6,0.598,0.9,2.6,-1.7,9.1,-7.7,-22.6,0.452681051,0.0799279763,0.447309793,-0.767174291
176,443491,1814920,-0.534,-0.604,0.59,0.8,2.6,-1.7,9.5,-7.6,-22.6,0.452620014,0.0799584948,0.447309793,-0.767174291
177,446507,1814920,-0.53,-0.608,0.582,0.7,2.7,-1.8,9.5,-7.6,-22.6,0.452558977,0.0800195318,0.447340312,-0.76720481
178,448656,1814920,-0.534,-0.608,0.594,0.5,2.7,-1.8,9.5,-7.6,-22.6,0.452528459,0.0800500504,0.44737083,-0.767235328
179,451484,1814930,-0.534,-0.612,0.598,0.2,2.6,-1.8,9.5,-7.6,-22.6,0.452467421,0.0800805689,0.447401349,-0.767235328
180,453075,1814930,-0.534,-0.612,0.598,0,2.6,-1.9,9.1,-7.6,-22.6,0.452406384,0.0800805689,0.447401349,-0.767265847
181,456072,1814930,-0.53,-0.616,0.594,0,2.6,-2,9.1,-7.6,-22.6,0.452345347,0.0801110874,0.447431867,-0.767265847
182,459035,1814930,-0.534,-0.616,0.598,0,2.6,-2.1,9.1,-7.6,-22.6,0.45228431,0.0801416059,0.447462386,-0.767296365
183,460690,1814940,-0.538,-0.616,0.594,0,2.6,-2.2,9.1,-7.6,-22.6,0.452223273,0.0801721244,0.447492904,-0.767326884
184,463757,1814940,-0.534,-0.62,0.598,0,2.7,-2.3,7.7,-7.6,-22.8,0.452131718,0.0801721244,0.447523423,-0.767326884
185,467013,1814940,-0.53,-0.62,0.598,0,2.9,-2.4,7.7,-7.6,-22.8,0.452070681,0.0801721244,0.447553941,-0.767357402
186,468393,1814940,-0.53,-0.616,0.594,0,3.1,-2.5,7.7,-7.6,-22.8,0.452009644,0.0802331614,0.44758446,-0.767357402
187,470855,1814950,-0.538,-0.624,0.586,0.1,3.1,-2.5,7.7,-7.6,-22.8,0.451918088,0.0802636799,0.447614978,-0.767387921
188,473610,1814950,-0.538,-0.624,0.586,0.1,3.1,-2.5,7.7,-7.6,-22.8,0.451918088,0.0802636799,0.447614978,-0.767387921
189,476605,1814950,-0.53,-0.628,0.59,0.5,2.9,-2.6,7.7,-7.6,-22.8,0.451796014,0.0803552355,0.447645497,-0.767448958
190,478626,1814950,-0.526,-0.624,0.59,0.8,2.7,-2.6,7.7,-7.6,-22.8,0.451734977,0.0803552355,0.447645497,-0.767479476
191,481774,1814960,-0.534,-0.62,0.602,1,2.6,-2.5,7.7,-7.6,-22.8,0.451643422,0.080385754,0.447676016,-0.767509995
192,483190,1814960,-0.53,-0.62,0.598,1.2,2.7,-2.5,7.7,-7.6,-22.8,0.451582385,0.080446791,0.447676016,-0.767540513
193,486165,1814960,-0.53,-0.62,0.598,1.3,3,-2.3,7.7,-7.6,-22.8,0.451521348,0.0804773095,0.447706534,-0.767571032
194,489211,1814960,-0.53,-0.616,0.598,1.3,3.2,-2.3,7.7,-7.6,-22.8,0.451429792,0.080507828,0.447706534,-0.76760155
195,490749,1814970,-0.534,-0.616,0.598,1.2,3.2,-2.4,7.7,-7.6,-22.8,0.451368755,0.080568865,0.447737053,-0.767632069
196,494470,1814970,-0.534,-0.616,0.598,1.1,3.2,-2.3,7.7,-7.6,-22.8,0.4512772,0.0805993835,0.447737053,-0.767662587
197,496679,1814970,-0.534,-0.616,0.598,1,3.1,-2.4,7.7,-7.6,-22.8,0.451216163,0.080629902,0.447737053,-0.767693106
198,498386,1814970,-0.534,-0.62,0.602,1.1,2.9,-2.5,7.7,-7.6,-22.8,0.451124607,0.0806604205,0.447737053,-0.767723624
199,500912,1814980,-0.53,-0.62,0.598,1.2,2.8,-2.6,7.7,-7.6,-22.8,0.45106357,0.0807214576,0.44779809,-0.767754143
200,504321,1814980,-0.53,-0.62,0.594,1.4,2.7,-2.6,7.7,-7.6,-22.8,0.451002533,0.0807519761,0.44779809,-0.767784661
201,506547,1814980,-0.53,-0.612,0.594,1.4,2.6,-2.6,7.7,-7.6,-22.8,0.450910978,0.0807824946,0.44779809,-0.767845698
202,509690,1814980,-0.53,-0.62,0.594,1.3,2.4,-2.5,7.7,-7.6,-22.8,0.45084994,0.0808130131,0.44779809,-0.767876217
203,511332,1814990,-0.53,-0.612,0.594,1.1,2.4,-2.5,7.7,-7.6,-22.8,0.450788903,0.0808435316,0.44779809,-0.767906735
204,513376,1814990,-0.53,-0.612,0.594,1.1,2.4,-2.5,7.7,-7.6,-22.8,0.450788903,0.0808435316,0.44779809,-0.767906735
205,516591,1814990,-0.534,-0.612,0.59,0.6,2.4,-2.6,8.9,-8.8,-22.9,0.450636311,0.0808740501,0.447828608,-0.767967772
206,518936,1814990,-0.546,-0.612,0.587,0.3,2.3,-2.4,8.9,-8.8,-22.9,0.450575274,0.0809045686,0.447859127,-0.767998291
207,521339,1815000,-0.55,-0.62,0.583,0,2.3,-2.1,8.9,-8.8,-22.9,0.450514237,0.0809045686,0.447889645,-0.767998291
208,524264,1815000,-0.55,-0.62,0.583,0,2.3,-2.1,8.9,-8.8,-22.9,0.450514237,0.0809045686,0.447889645,-0.767998291
209,527193,1815000,-0.546,-0.616,0.594,-0.2,2.3,-2,8.9,-8.8,-22.9,0.4504532,0.0810876797,0.447950682,-0.767998291
210,529493,1815000,-0.542,-0.62,0.602,0.3,2.1,-2.4,8.9,-8.8,-22.9,0.450392163,0.0811181982,0.447950682,-0.767998291
211,531401,1815010,-0.538,-0.624,0.602,1.1,1.9,-2.8,8.9,-8.8,-22.9,0.450331126,0.0811181982,0.447981201,-0.768059328
212,533760,1815010,-0.53,-0.62,0.602,1.9,1.6,-3.2,7.7,-6.2,-23,0.45023957,0.0811487167,0.447950682,-0.768089846
213,535970,1815010,-0.522,-0.62,0.594,2.4,1.2,-3.4,7.7,-6.2,-23,0.450178533,0.0811487167,0.447950682,-0.768150884
214,538303,1815010,-0.522,-0.616,0.598,2.7,0.9,-3.5,7.7,-6.2,-23,0.450117496,0.0811487167,0.447920164,-0.768211921
215,541190,1815020,-0.526,-0.616,0.598,2.8,0.8,-3.6,7.7,-6.2,-23,0.450025941,0.0811487167,0.447859127,-0.768272958
216,543468,1815020,-0.522,-0.608,0.598,2.7,0.8,-3.6,8.3,-6.2,-22.9,0.449964904,0.0811487167,0.447828608,-0.768333995
217,545829,1815020,-0.534,-0.608,0.582,2.4,1,-3.6,8.3,-6.2,-22.9,0.449873348,0.0811487167,0.447828608,-0.768395032
218,548445,1815020,-0.53,-0.612,0.59,2,1.2,-3.3,8.3,-6.2,-22.9,0.449812311,0.0811487167,0.44779809,-0.768456069
219,552452,1815030,-0.53,-0.612,0.578,1.7,1.3,-3,8.3,-6.2,-22.9,0.449751274,0.0811487167,0.44779809,-0.768486587
220,554819,1815030,-0.534,-0.62,0.598,1.7,1.6,-2.8,8.3,-6.2,-22.9,0.449659719,0.0812097537,0.447737053,-0.768517106
221,557198,1815030,-0.534,-0.624,0.59,2.2,1.8,-2.7,8.3,-6.2,-22.9,0.449598682,0.0812402722,0.447737053,-0.768578143
222,559333,1815030,-0.534,-0.628,0.582,3,1.7,-2.8,8.3,-6.2,-22.9,0.449537645,0.0812707907,0.447737053,-0.76863918
223,560787,1815040,-0.538,-0.632,0.575,3.6,1.5,-3,8.3,-6.2,-22.9,0.449476608,0.0813013092,0.447706534,-0.768700217
224,563940,1815040,-0.526,-0.612,0.59,3.8,1.3,-3.3,7.6,-7,-22.8,0.449385052,0.0813318278,0.447645497,-0.768761254
225,565787,1815040,-0.522,-0.601,0.594,3.3,1.4,-3.4,7.6,-7,-22.8,0.449324015,0.0813623463,0.447614978,-0.768822291
226,568199,1815040,-0.522,-0.601,0.601,2.4,1.9,-3.3,7.6,-7,-22.8,0.449232459,0.0813623463,0.447614978,-0.768883328
227,571408,1815050,-0.518,-0.597,0.594,1.5,2.7,-3.1,7.6,-7,-22.8,0.449140904,0.0813928648,0.447614978,-0.768913846
228,573522,1815050,-0.518,-0.597,0.594,1.5,2.7,-3.1,7.6,-7,-22.8,0.449140904,0.0813928648,0.447614978,-0.768913846
229,575799,1815050,-0.514,-0.601,0.59,1.8,3.2,-2.8,7.7,-6.8,-22.9,0.44901883,0.0815149388,0.447492904,-0.76903592
230,578333,1815050,-0.514,-0.609,0.597,2.5,2.7,-3.1,7.7,-6.8,-22.9,0.448957793,0.0815454573,0.447492904,-0.769096957
231,580714,1815060,-0.518,-0.612,0.605,3.3,1.9,-3.6,7.7,-6.8,-22.9,0.448866237,0.0815759758,0.447462386,-0.769157994
232,584158,1815060,-0.522,-0.624,0.602,3.7,1.6,-4.1,7.7,-7.1,-22.8,0.448774682,0.0816064943,0.447401349,-0.769219031
233,585930,1815060,-0.53,-0.616,0.61,3.5,1.7,-4.3,7.7,-7.1,-22.8,0.448683126,0.0816370128,0.44737083,-0.769310587
234,588168,1815060,-0.526,-0.612,0.602,2.8,2.1,-4.4,7.7,-7.1,-22.8,0.448561052,0.0816370128,0.44737083,-0.769371624
235,591673,1815070,-0.53,-0.608,0.598,1.7,2.7,-4.1,7.7,-7.1,-22.8,0.448469497,0.0816370128,0.44737083,-0.769432661
236,593162,1815070,-0.533,-0.6,0.594,0.5,3.2,-3.7,8,-7.5,-22.7,0.448377941,0.0816980499,0.447401349,-0.769463179
237,595732,1815070,-0.53,-0.6,0.582,-0.5,3.7,-3.4,8,-7.5,-22.7,0.448286386,0.0817285684,0.447462386,-0.769493698
238,599131,1815070,-0.522,-0.601,0.578,-1.2,4,-3.4,8,-7.5,-22.7,0.44819483,0.0817285684,0.447523423,-0.769493698
239,600862,1815080,-0.514,-0.605,0.597,-1.4,4.2,-3.9,8,-7.5,-22.7,0.448072756,0.0817590869,0.44758446,-0.769524216
240,603159,1815080,-0.514,-0.612,0.601,-1.1,4.1,-4.5,8,-7.5,-22.7,0.447950682,0.0817590869,0.447645497,-0.769554735
241,606664,1815080,-0.518,-0.624,0.605,-0.3,3.8,-5,8,-7.5,-22.7,0.447828608,0.0817896054,0.447706534,-0.769585253
242,608918,1815080,-0.522,-0.632,0.598,0.5,3.4,-5.2,8,-7.5,-22.7,0.447706534,0.0817896054,0.447737053,-0.769615772
243,611008,1815090,-0.53,-0.636,0.606,1.2,3.4,-5.1,8,-7.5,-22.7,0.44758446,0.0818201239,0.447737053,-0.769676809
244,614076,1815090,-0.53,-0.636,0.602,1.4,3.5,-5,7.7,-8.8,-23.2,0.447462386,0.0818506424,0.44779809,-0.769737846
245,615908,1815090,-0.53,-0.64,0.606,1.3,3.7,-4.8,7.7,-8.8,-23.2,0.447340312,0.0818811609,0.44779809,-0.769798883
246,618183,1815090,-0.534,-0.632,0.606,0.8,3.9,-4.7,7.7,-8.8,-23.2,0.447248756,0.0818811609,0.447828608,-0.76985992
247,621354,1815100,-0.534,-0.632,0.606,0.4,4.1,-4.8,7.7,-8.8,-23.2,0.447096164,0.0819116794,0.447889645,-0.769890439
248,623181,1815100,-0.534,-0.632,0.606,0.4,4.1,-4.8,7.7,-8.8,-23.2,0.447096164,0.0819116794,0.447889645,-0.769890439
249,625675,1815100,-0.538,-0.628,0.606,0.2,4.2,-5.2,7.9,-9.4,-23.3,0.446852016,0.0819421979,0.447920164,-0.770012513
250,629058,1815100,-0.534,-0.624,0.606,0.5,4,-5.3,7.9,-9.4,-23.3,0.446729942,0.0819421979,0.447981201,-0.77007355
251,630759,1815110,-0.53,-0.628,0.602,0.8,3.7,-5.6,7.9,-9.4,-23.3,0.446577349,0.0819727165,0.448011719,-0.770104068
252,634312,1815110,-0.526,-0.628,0.606,1.1,3.3,-5.7,8.1,-9.2,-23.2,0.446455275,0.0819727165,0.448042238,-0.770165105
253,635783,1815110,-0.526,-0.628,0.602,1.4,3.1,-5.8,8.1,-9.2,-23.2,0.446333201,0.0819727165,0.448042238,-0.770256661
254,638280,1815110,-0.518,-0.632,0.605,1.6,2.9,-5.8,8.1,-9.2,-23.2,0.446180609,0.082003235,0.448072756,-0.770317698
255,641783,1815120,-0.518,-0.624,0.609,1.9,2.7,-5.8,8.1,-9.2,-23.2,0.446058535,0.082003235,0.448072756,-0.770378735
256,643307,1815120,-0.522,-0.624,0.605,2,2.9,-5.9,8.1,-9.2,-23.1,0.44593646,0.082003235,0.448072756,-0.77047029
257,645900,1815120,-0.522,-0.624,0.602,2,2.9,-5.8,8.1,-9.2,-23.1,0.445783868,0.0820337535,0.448072756,-0.770500809
258,649278,1815120,-0.526,-0.628,0.598,1.9,2.9,-5.6,8.1,-9.2,-23.1,0.445661794,0.0820337535,0.448072756,-0.770592364
259,650800,1815130,-0.53,-0.62,0.598,1.7,2.9,-5.2,8.1,-9.2,-23.1,0.44553972,0.082064272,0.448072756,-0.770653401
260,653296,1815130,-0.53,-0.62,0.594,1.3,3,-4.8,8.1,-9.2,-23.1,0.445448164,0.082064272,0.448103275,-0.770714438
261,656793,1815130,-0.534,-0.616,0.594,1,3.2,-4.4,8.1,-9.2,-23.1,0.44532609,0.0820947905,0.448133793,-0.770775475
262,658280,1815130,-0.534,-0.616,0.59,0.7,3.4,-4.1,8.1,-9.2,-23.1,0.445234535,0.082125309,0.448164312,-0.770805994
263,660765,1815140,-0.53,-0.616,0.59,0.7,3.4,-3.9,8.1,-9.2,-23.1,0.445112461,0.082125309,0.44819483,-0.770836512
264,664222,1815140,-0.53,-0.62,0.59,0.7,3.4,-3.7,7.8,-7.8,-24.3,0.445020905,0.082125309,0.44819483,-0.770867031
265,665723,1815140,-0.526,-0.616,0.582,0.8,3.4,-3.6,7.8,-7.8,-24.3,0.44492935,0.082186346,0.448225349,-0.770928068
266,668747,1815140,-0.526,-0.62,0.582,1,3.3,-3.5,7.8,-7.8,-24.3,0.444837794,0.0822168645,0.448255867,-0.770958586
267,671754,1815150,-0.522,-0.624,0.586,1.1,3.2,-3.3,7.8,-7.8,-24.3,0.444746239,0.0822779015,0.448286386,-0.770989105
268,673471,1815150,-0.522,-0.624,0.586,1.1,3.2,-3.3,7.8,-7.8,-24.3,0.444746239,0.0822779015,0.448286386,-0.770989105
269,675831,1815150,-0.526,-0.624,0.574,1.1,2.9,-2.8,7.9,-6.7,-24.3,0.444593646,0.0823389386,0.448286386,-0.77108066
270,679236,1815150,-0.526,-0.624,0.566,1,2.7,-2.6,7.9,-6.7,-24.3,0.444532609,0.0823694571,0.448286386,-0.771111179
271,680727,1815160,-0.526,-0.624,0.566,1.1,2.6,-2.5,7.9,-6.7,-24.3,0.444441053,0.0823999756,0.448316904,-0.771141697
272,683779,1815160,-0.534,-0.62,0.567,1,2.6,-2.5,7.9,-6.4,-24.1,0.444380016,0.0824304941,0.448316904,-0.771172216
273,686708,1815160,-0.534,-0.62,0.574,1,2.7,-2.5,7.9,-6.4,-24.1,0.444318979,0.0824610126,0.448347423,-0.771202734
274,688246,1815160,-0.534,-0.624,0.571,1,2.8,-2.5,7.9,-6.4,-24.1,0.444227424,0.0824915311,0.448347423,-0.771233253
275,690854,1815170,-0.534,-0.62,0.574,1.1,3,-2.4,7.9,-6.4,-24.1,0.444166387,0.0825220496,0.448377941,-0.771263771
276,694225,1815170,-0.534,-0.624,0.578,1.3,3.1,-2.4,7.9,-6,-24.3,0.444074831,0.0825525681,0.448377941,-0.77129429
277,695785,1815170,-0.538,-0.62,0.59,1.3,3.2,-2.5,7.9,-6,-24.3,0.444013794,0.0826136052,0.448377941,-0.771324808
278,698838,1815170,-0.53,-0.612,0.582,1.3,3.2,-2.5,7.9,-6,-24.3,0.443922239,0.0826136052,0.44840846,-0.771355327
279,700643,1815180,-0.53,-0.616,0.586,1.2,3.4,-2.6,7.9,-6,-24.3,0.443830683,0.0827051607,0.44840846,-0.771385846
280,704134,1815180,-0.534,-0.612,0.582,1.1,3.4,-2.5,7.9,-6,-24.3,0.443769646,0.0827356792,0.448438978,-0.771416364
281,705713,1815180,-0.53,-0.616,0.586,0.9,3.4,-2.5,7.9,-6,-24.3,0.443708609,0.0827661977,0.448469497,-0.771446883
282,708643,1815180,-0.534,-0.616,0.59,0.7,3.4,-2.5,7.9,-6,-24.3,0.443617054,0.0828272347,0.448500015,-0.771446883
283,710938,1815190,-0.534,-0.612,0.59,0.5,3.3,-2.7,7.9,-6,-24.3,0.443525498,0.0828577532,0.448530534,-0.771477401
284,713947,1815190,-0.534,-0.612,0.594,0.3,3.3,-2.8,8.5,-7.9,-22.7,0.443464461,0.0828882717,0.448561052,-0.77150792
285,716079,1815190,-0.538,-0.62,0.594,0.1,3.2,-2.9,8.5,-7.9,-22.7,0.443372906,0.0829187902,0.448591571,-0.771538438
286,719086,1815190,-0.534,-0.616,0.598,0,3.1,-2.9,8.5,-7.9,-22.7,0.44328135,0.0829493088,0.448622089,-0.771568957
287,721356,1815200,-0.538,-0.62,0.594,-0.1,3.1,-3,8.5,-7.9,-22.7,0.443220313,0.0829493088,0.448652608,-0.771568957
288,723626,1815200,-0.538,-0.62,0.594,-0.1,3.1,-3,8.5,-7.9,-22.7,0.443220313,0.0829493088,0.448652608,-0.771568957
289,725861,1815200,-0.546,-0.62,0.602,-0.6,3.4,-3.2,8.5,-7.7,-21.7,0.443098239,0.0830713828,0.448652608,-0.771629994
290,728860,1815200,-0.542,-0.62,0.606,-0.8,3.6,-3.2,8.5,-7.7,-21.7,0.443006684,0.0831019013,0.448713645,-0.771660512
291,730695,1815210,-0.542,-0.62,0.606,-1.1,3.7,-3.4,8.5,-7.7,-21.7,0.442915128,0.0831019013,0.448774682,-0.771660512
292,734066,1815210,-0.542,-0.616,0.606,-1.4,3.7,-3.6,7.9,-7.8,-20.7,0.442823572,0.0831019013,0.448866237,-0.771660512
293,735787,1815210,-0.546,-0.62,0.606,-1.7,3.7,-3.7,7.9,-7.8,-20.7,0.442732017,0.0831019013,0.448927274,-0.771691031
294,738590,1815210,-0.546,-0.616,0.602,-2,3.7,-3.7,7.9,-7.8,-20.7,0.442609943,0.0831019013,0.44901883,-0.771691031
295,740938,1815220,-0.546,-0.616,0.598,-2.4,3.7,-3.8,7.9,-7.8,-20.7,0.442518387,0.0831019013,0.449079867,-0.771691031
296,743570,1815220,-0.55,-0.623,0.598,-2.5,3.9,-3.8,8.4,-7.6,-19.9,0.442426832,0.0831629383,0.449171422,-0.771721549
297,746837,1815220,-0.554,-0.623,0.595,-2.6,4,-3.9,8.4,-7.6,-19.9,0.442335276,0.0831629383,0.449262978,-0.771721549
298,748339,1815220,-0.554,-0.623,0.595,-2.6,4.1,-4,8.4,-7.6,-19.9,0.442213202,0.0831629383,0.449354534,-0.771721549
299,752114,1815230,-0.558,-0.631,0.599,-2.5,4,-4.3,8.4,-7.6,-19.9,0.442121647,0.0831629383,0.449446089,-0.771721549
300,754450,1815230,-0.558,-0.631,0.591,-2.1,3.9,-4.3,8.4,-7.6,-19.9,0.441999573,0.0831629383,0.449537645,-0.771752068
301,755910,1815230,-0.554,-0.635,0.595,-1.7,3.8,-4.4,8.4,-7.6,-19.9,0.441877499,0.0831629383,0.449598682,-0.771752068
302,758640,1815230,-0.554,-0.639,0.591,-1.4,3.9,-4.4,8.4,-7.6,-19.9,0.441785943,0.0831629383,0.449690237,-0.771782586
303,761779,1815240,-0.558,-0.639,0.583,-1.1,4,-4.4,8.4,-7.6,-19.9,0.441663869,0.0831934568,0.449751274,-0.771813105
304,763241,1815240,-0.558,-0.643,0.583,-0.7,4.2,-4.4,8.3,-7.6,-21.9,0.441572314,0.0831934568,0.449812311,-0.771843623
305,765733,1815240,-0.558,-0.639,0.579,-0.2,4.4,-4.3,8.3,-7.6,-21.9,0.44145024,0.0832239753,0.44984283,-0.771874142
306,769243,1815240,-0.566,-0.643,0.583,0.4,4.5,-4.2,8.3,-7.6,-21.9,0.441328166,0.0832850124,0.449903867,-0.77190466
307,770985,1815250,-0.566,-0.639,0.587,1.1,4.5,-4.2,8.3,-7.6,-21.9,0.441206091,0.0833155309,0.449934385,-0.771935179
308,774483,1815250,-0.566,-0.639,0.587,1.1,4.5,-4.2,8.3,-7.6,-21.9,0.441206091,0.0833155309,0.449934385,-0.771935179
309,775981,1815250,-0.566,-0.635,0.583,2.6,4.1,-4,8.1,-7.5,-22.6,0.440992462,0.0835596789,0.450056459,-0.771965697
310,778533,1815250,-0.558,-0.647,0.575,3.2,4.1,-4,8.1,-7.5,-22.6,0.440870388,0.0835901975,0.450025941,-0.772026734
311,780859,1815260,-0.558,-0.647,0.571,3.7,4.3,-4,8.1,-7.5,-22.6,0.440778832,0.0837122715,0.450025941,-0.77211829
312,784165,1815260,-0.558,-0.647,0.571,4.2,4.4,-3.9,8.4,-7.6,-22.8,0.440656758,0.0837733085,0.449995422,-0.772179327
313,787124,1815260,-0.55,-0.647,0.571,4.7,4.6,-3.7,8.4,-7.6,-22.8,0.440534684,0.083864864,0.449964904,-0.772240364
314,788575,1815260,-0.55,-0.655,0.571,5.4,4.6,-3.5,8.4,-7.6,-22.8,0.44041261,0.0839564196,0.449934385,-0.772331919
315,791666,1815270,-0.55,-0.647,0.579,6.1,4.4,-3.4,8.4,-7.6,-22.8,0.440290536,0.0840479751,0.449873348,-0.772423475
316,793156,1815270,-0.55,-0.655,0.575,6.7,4.4,-3.4,8.1,-7.9,-23.8,0.440198981,0.0841700491,0.449812311,-0.77251503
317,796018,1815270,-0.55,-0.651,0.575,7.1,4.4,-3.3,8.1,-7.9,-23.8,0.440076907,0.0842921232,0.449751274,-0.772606586
318,799368,1815270,-0.546,-0.651,0.579,7.2,4.7,-3.2,8.1,-7.9,-23.8,0.439924314,0.0843836787,0.449659719,-0.772698141
319,800749,1815280,-0.546,-0.647,0.571,7.2,4.9,-3,8.1,-7.9,-23.8,0.439832759,0.0845362712,0.449598682,-0.772789697
320,803330,1815280,-0.546,-0.647,0.583,7.2,5.2,-2.9,8.1,-7.9,-23.8,0.439741203,0.0846583453,0.449537645,-0.772881252
321,806622,1815280,-0.55,-0.639,0.595,7.1,5.4,-2.7,8.1,-7.9,-23.8,0.439619129,0.0847804193,0.449476608,-0.772972808
322,808235,1815280,-0.546,-0.639,0.598,7,5.7,-2.5,8.1,-7.9,-23.8,0.439497055,0.0849330119,0.449415571,-0.773033845
323,811310,1815290,-0.542,-0.631,0.602,6.9,6,-2.4,8.1,-7.9,-23.8,0.439405499,0.0850550859,0.449354534,-0.773125401
324,813097,1815290,-0.55,-0.631,0.602,6.6,6.2,-2.2,8.2,-7.3,-22.5,0.439283425,0.0852076785,0.449324015,-0.773186438
325,816649,1815290,-0.55,-0.631,0.61,6.3,6.4,-2,8.2,-7.3,-22.5,0.439161351,0.085360271,0.449262978,-0.773277993
326,818200,1815290,-0.55,-0.635,0.61,5.8,6.6,-1.8,8.2,-7.3,-22.5,0.439069796,0.0855128636,0.449232459,-0.77333903
327,821633,1815300,-0.55,-0.631,0.606,5.4,6.7,-1.8,8.2,-7.3,-22.5,0.438947722,0.0856654561,0.449201941,-0.773400067
328,823278,1815300,-0.55,-0.631,0.606,5.4,6.7,-1.8,8.2,-7.3,-22.5,0.438947722,0.0856654561,0.449201941,-0.773400067
329,825679,1815300,-0.554,-0.639,0.606,4.4,7.1,-1.6,8.7,-7.1,-22.6,0.438825648,0.0860316782,0.449079867,-0.773491623
330,828273,1815300,-0.554,-0.635,0.606,3.7,7.3,-1.4,8.7,-7.1,-22.6,0.438703574,0.0861842708,0.449110385,-0.773522141
331,831443,1815310,-0.55,-0.635,0.606,3.1,7.5,-1.3,8.7,-7.1,-22.6,0.438612018,0.0863368633,0.449110385,-0.77355266
332,833333,1815310,-0.554,-0.631,0.602,2.5,7.6,-1.3,8.3,-7.6,-22.6,0.438520463,0.0864894559,0.449171422,-0.773583178
333,836768,1815310,-0.558,-0.631,0.603,1.9,7.8,-1.3,8.3,-7.6,-22.6,0.438398389,0.0866115299,0.449201941,-0.773613697
334,838227,1815310,-0.554,-0.639,0.602,1.4,8.1,-1.4,8.3,-7.6,-22.6,0.438306833,0.0867641224,0.449262978,-0.773613697
335,841281,1815320,-0.554,-0.635,0.595,1.1,8.4,-1.7,8.3,-7.6,-22.6,0.438184759,0.0868861965,0.449324015,-0.773613697
336,844269,1815320,-0.55,-0.639,0.598,0.9,8.7,-2,9.1,-8,-22.4,0.438062685,0.0870082705,0.449385052,-0.773644215
337,845770,1815320,-0.55,-0.647,0.598,0.9,8.8,-2.2,9.1,-8,-22.4,0.437940611,0.0871608631,0.449476608,-0.773644215
338,849360,1815320,-0.55,-0.647,0.595,1.1,8.9,-2.4,9.1,-8,-22.4,0.437818537,0.0873134556,0.449537645,-0.773674734
339,850858,1815330,-0.55,-0.651,0.598,1.5,8.9,-2.2,9.1,-8,-22.4,0.437665944,0.0874355296,0.449598682,-0.773674734
340,853631,1815330,-0.546,-0.659,0.594,2.1,8.8,-1.9,9.1,-8,-22.4,0.43754387,0.0875881222,0.449659719,-0.773705252
341,855739,1815330,-0.546,-0.659,0.598,2.8,8.9,-1.6,9.1,-8,-22.4,0.437421796,0.0877407147,0.449690237,-0.773735771
342,859338,1815330,-0.546,-0.663,0.602,3.4,9,-1.3,9.1,-8,-22.4,0.437330241,0.0879238258,0.449690237,-0.773766289
343,860987,1815340,-0.55,-0.659,0.598,3.9,9.3,-1.3,9.1,-8,-22.4,0.437208167,0.0881069369,0.449751274,-0.773796808
344,863291,1815340,-0.55,-0.655,0.591,4.3,9.6,-1.1,9.4,-7.1,-22.2,0.437086093,0.0882900479,0.449781793,-0.773827326
345,867078,1815340,-0.554,-0.651,0.587,4.5,9.9,-1.1,9.4,-7.1,-22.2,0.4369335,0.088473159,0.449781793,-0.773857845
346,868799,1815340,-0.554,-0.639,0.591,4.5,10.1,-1.1,9.4,-7.1,-22.2,0.436811426,0.088717307,0.449812311,-0.773918882
347,870768,1815350,-0.542,-0.647,0.579,4.1,10.2,-1.2,9.4,-7.1,-22.2,0.436689352,0.0889004181,0.44984283,-0.7739494
348,873514,1815350,-0.542,-0.647,0.579,4.1,10.2,-1.2,9.4,-7.1,-22.2,0.436689352,0.0889004181,0.44984283,-0.7739494
349,876634,1815350,-0.534,-0.647,0.575,3.6,10.6,-1.6,9.2,-7.8,-22.3,0.436353648,0.0892971587,0.450056459,-0.7739494
350,878955,1815350,-0.526,-0.652,0.57,3.6,10.6,-1.6,9.2,-7.8,-22.3,0.436231574,0.0894497513,0.450117496,-0.773979919
351,881885,1815360,-0.53,-0.655,0.567,4.2,10.5,-1.3,9.2,-7.8,-22.3,0.436078982,0.0896938993,0.450148015,-0.774010437
352,884893,1815360,-0.527,-0.663,0.571,4.7,10.3,-0.5,9.2,-7.5,-22.3,0.435956908,0.0899075289,0.450148015,-0.774040956
353,887133,1815360,-0.527,-0.659,0.571,5.1,10.1,0,9.2,-7.5,-22.3,0.435865352,0.0901211585,0.450178533,-0.774071474
354,889380,1815360,-0.527,-0.655,0.57,5.1,10.2,0.5,9.2,-7.5,-22.3,0.435743278,0.0903653066,0.450178533,-0.774101993
355,891688,1815370,-0.526,-0.652,0.574,4.9,10.5,0.7,9.2,-7.5,-22.3,0.435651723,0.0905789361,0.450178533,-0.774132511
356,893851,1815370,-0.526,-0.652,0.574,4.7,11,0.6,9.4,-7.4,-22.3,0.435560167,0.0908230842,0.450209052,-0.774132511
357,896150,1815370,-0.526,-0.648,0.57,4.6,11.3,0.5,9.4,-7.4,-22.3,0.435438093,0.0910672323,0.45023957,-0.77416303
358,898459,1815370,-0.53,-0.64,0.574,4.4,11.7,0.4,9.4,-7.4,-22.3,0.435316019,0.0913113804,0.450270089,-0.774193548
359,900875,1815380,-0.534,-0.632,0.578,4.2,11.9,0.5,9.4,-7.4,-22.3,0.435193945,0.0915555284,0.450300607,-0.774193548
360,903353,1815380,-0.538,-0.628,0.579,4.1,12.1,0.5,9.4,-7.4,-22.3,0.435071871,0.091830195,0.450361644,-0.774193548
361,905733,1815380,-0.534,-0.636,0.559,3.9,12.3,0.5,9.4,-7.4,-22.3,0.434980316,0.0920743431,0.450392163,-0.774224067
362,908400,1815380,-0.51,-0.632,0.558,3.6,12.6,0.2,9.4,-7.4,-22.3,0.434827723,0.0923184912,0.4504532,-0.774224067
363,911758,1815390,-0.51,-0.628,0.566,3.2,12.9,-0.2,9.4,-7.4,-22.3,0.434705649,0.0925626392,0.450544755,-0.774224067
364,913545,1815390,-0.514,-0.636,0.566,3.2,13.2,-0.5,10.3,-7.4,-22.3,0.434553056,0.0928067873,0.450605792,-0.774254585
365,915769,1815390,-0.514,-0.64,0.57,3.7,13.2,-0.4,10.3,-7.4,-22.3,0.434400464,0.0930814539,0.450666829,-0.774254585
366,918448,1815390,-0.518,-0.64,0.562,4.4,13.3,0.1,10.3,-7.4,-22.3,0.43427839,0.0933561205,0.450727866,-0.774254585
367,920771,1815400,-0.518,-0.64,0.551,5,13.4,0.6,10.3,-7.4,-22.3,0.434156316,0.0936307871,0.450758385,-0.774285104
368,925013,1815400,-0.518,-0.64,0.551,5,13.4,0.6,10.3,-7.4,-22.3,0.434156316,0.0936307871,0.450758385,-0.774285104
369,925613,1815400,-0.522,-0.636,0.574,5.4,14.1,0.8,10.5,-7.4,-22.2,0.433790094,0.0940885647,0.450910978,-0.774346141
370,929377,1815400,-0.514,-0.636,0.574,5.4,14.6,0.5,10.5,-7.4,-22.2,0.433637501,0.0943937498,0.450972015,-0.774346141
371,931477,1815410,-0.514,-0.644,0.57,5.4,15.1,0.3,10.5,-7.4,-22.2,0.433484909,0.0946989349,0.451002533,-0.774376659
372,933428,1815410,-0.515,-0.648,0.562,5.5,15.5,0.2,11.1,-8,-22.1,0.433332316,0.0950346385,0.45106357,-0.774376659
373,936100,1815410,-0.514,-0.648,0.578,5.9,15.7,0.1,11.1,-8,-22.1,0.433179724,0.0953093051,0.451124607,-0.774407178
374,939587,1815410,-0.511,-0.652,0.578,6.6,16,0.1,11.1,-8,-22.1,0.432996612,0.0956755272,0.451155126,-0.774407178
375,941840,1815420,-0.51,-0.652,0.586,7.4,16.3,0,11.1,-8,-22.1,0.432813501,0.0960417493,0.451185644,-0.774468215
376,944254,1815420,-0.526,-0.64,0.598,8.2,16.7,0,10.8,-7.4,-22.2,0.43263039,0.0964079714,0.451216163,-0.774529252
377,947097,1815420,-0.518,-0.652,0.586,8.8,17.1,-0.4,10.8,-7.4,-22.2,0.432447279,0.0967741935,0.451216163,-0.774590289
378,949336,1815420,-0.507,-0.656,0.582,9.1,17.6,-1,10.8,-7.4,-22.2,0.43223365,0.0971404157,0.451216163,-0.774651326
379,951665,1815430,-0.503,-0.652,0.589,9.4,18.2,-2,10.8,-7.4,-22.2,0.431989502,0.0975066378,0.451246681,-0.774712363
380,954105,1815430,-0.487,-0.656,0.597,10.1,18.7,-3.1,9.6,-8.1,-22.3,0.431745354,0.0979033784,0.451246681,-0.774803919
381,956917,1815430,-0.483,-0.656,0.608,11.3,19,-3.5,9.6,-8.1,-22.3,0.431470687,0.098300119,0.451246681,-0.774925993
382,959160,1815430,-0.483,-0.656,0.597,12.9,19.1,-3.2,9.6,-8.1,-22.3,0.43119602,0.0986968596,0.451216163,-0.775017548
383,961511,1815440,-0.482,-0.645,0.604,14.2,18.9,-2.3,9.6,-8.1,-22.3,0.430951872,0.0991241188,0.451155126,-0.775139622
384,964418,1815440,-0.494,-0.629,0.613,15,18.7,-1.3,8.4,-8.1,-22.1,0.430707724,0.0995818964,0.451094089,-0.775261696
385,966662,1815440,-0.49,-0.625,0.589,15.2,18.9,-0.9,8.4,-8.1,-22.1,0.430463576,0.100039674,0.451002533,-0.77538377
386,968440,1815440,-0.478,-0.621,0.589,14.8,19.2,-1.3,8.4,-8.1,-22.1,0.430219428,0.100497452,0.450941496,-0.775505844
387,970942,1815450,-0.474,-0.617,0.589,14.3,19.9,-2.2,8.4,-8.1,-22.1,0.429944761,0.100924711,0.450880459,-0.775627918
388,974906,1815450,-0.474,-0.617,0.589,14.3,19.9,-2.2,8.4,-8.1,-22.1,0.429944761,0.100924711,0.450880459,-0.775627918
389,977183,1815450,-0.47,-0.61,0.581,15,20.5,-3,7.3,-8.3,-22.3,0.429303873,0.101504563,0.450605792,-0.776085696
390,979276,1815450,-0.462,-0.606,0.576,15.7,20.5,-2.6,7.3,-8.3,-22.3,0.429029206,0.10196234,0.450544755,-0.77620777
391,980778,1815460,-0.462,-0.606,0.576,16,20.4,-2.1,7.3,-8.3,-22.3,0.42875454,0.102420118,0.4504532,-0.776360363
392,983949,1815460,-0.466,-0.594,0.565,15.8,20.6,-1.6,6.5,-8.4,-21.9,0.428479873,0.102908414,0.450392163,-0.776482437
393,985767,1815460,-0.466,-0.594,0.561,15.4,20.9,-1.4,6.5,-8.4,-21.9,0.428205206,0.10339671,0.450331126,-0.776573992
394,989227,1815460,-0.47,-0.59,0.561,14.8,21.4,-1.5,6.5,-8.4,-21.9,0.42793054,0.103885006,0.450270089,-0.776696066
395,991011,1815470,-0.478,-0.582,0.557,14,21.9,-1.7,6.5,-8.4,-21.9,0.427655873,0.104373302,0.45023957,-0.77681814
396,994074,1815470,-0.474,-0.578,0.545,13.2,22.4,-2.1,6.4,-8.6,-21.9,0.427381207,0.104861599,0.45023957,-0.776909696
397,995776,1815470,-0.474,-0.57,0.541,12.4,22.8,-2.5,6.4,-8.6,-21.9,0.427076022,0.105319376,0.45023957,-0.777001251
398,998203,1815470,-0.47,-0.57,0.541,11.6,23.1,-2.9,6.4,-8.6,-21.9,0.426770837,0.105807672,0.450270089,-0.777092807
399,1001586,1815480,-0.485,-0.546,0.546,10.9,23.3,-3.2,6.4,-8.6,-21.9,0.426465651,0.10626545,0.450331126,-0.777153844
400,1003336,1815480,-0.497,-0.546,0.558,10.3,23.4,-3.5,10.9,-9.6,-22.1,0.426160466,0.106723228,0.450361644,-0.777245399
401,1005631,1815480,-0.498,-0.558,0.523,9.6,23.5,-4.1,10.9,-9.6,-22.1,0.425824763,0.107181005,0.450422681,-0.777336955
402,1009216,1815480,-0.493,-0.554,0.526,8.8,23.8,-5.1,10.9,-9.6,-22.1,0.425489059,0.107608264,0.450514237,-0.777397992
403,1010701,1815490,-0.477,-0.554,0.545,7.7,24.3,-6.6,10.9,-9.6,-22.1,0.425122837,0.108005005,0.450636311,-0.777489547
404,1013289,1815490,-0.485,-0.55,0.546,6.8,24.8,-8,8.3,-7,-21.6,0.424726096,0.108432264,0.450758385,-0.777581103
405,1016690,1815490,-0.493,-0.554,0.538,6.3,25,-8.9,8.3,-7,-21.6,0.424298837,0.108829005,0.450910978,-0.77764214
406,1018215,1815490,-0.489,-0.554,0.53,6,24.7,-8.9,8.3,-7,-21.6,0.423902097,0.109225745,0.45106357,-0.777733695
407,1020800,1815500,-0.493,-0.554,0.538,5.5,24.3,-8.5,8.3,-7,-21.6,0.423505356,0.109591968,0.451216163,-0.777825251
408,1024452,1815500,-0.493,-0.554,0.538,5.5,24.3,-8.5,8.3,-7,-21.6,0.423505356,0.109591968,0.451216163,-0.777825251
409,1026710,1815500,-0.505,-0.55,0.542,3.6,24.2,-8.7,8.9,-6.8,-21.2,0.422711875,0.110293893,0.451490829,-0.777977844
410,1028955,1815500,-0.525,-0.534,0.547,2.4,24.5,-9.5,8.9,-6.8,-21.2,0.422315134,0.110629597,0.451704459,-0.778038881
411,1030678,1815510,-0.525,-0.53,0.531,1.1,24.9,-10.3,8.9,-6.8,-21.2,0.421887875,0.110934782,0.451948607,-0.778069399
412,1033229,1815510,-0.521,-0.526,0.531,-0.2,25.1,-11.2,10.5,-6.6,-21.3,0.421460616,0.111270486,0.452192755,-0.778099918
413,1036678,1815510,-0.525,-0.53,0.531,-1.6,25.2,-12.3,10.5,-6.6,-21.3,0.421002838,0.111575671,0.45249794,-0.778160955
414,1038797,1815510,-0.525,-0.53,0.527,-2.9,25.2,-13.4,10.5,-6.6,-21.3,0.420514542,0.111850337,0.452803125,-0.778191473
415,1041052,1815520,-0.525,-0.534,0.519,-3.8,24.9,-14.1,10.5,-6.6,-21.3,0.420056764,0.112094485,0.453138829,-0.778221992
416,1043346,1815520,-0.533,-0.537,0.527,-4.5,24.5,-14.2,11.1,-6.6,-21.4,0.419568468,0.112308115,0.453474532,-0.778221992
417,1045941,1815520,-0.529,-0.545,0.519,-5,24.1,-14.4,11.1,-6.6,-21.4,0.419110691,0.112552263,0.453810236,-0.77825251
418,1048306,1815520,-0.533,-0.549,0.52,-5.6,23.9,-14.6,11.1,-6.6,-21.4,0.418622394,0.112765893,0.454176458,-0.778283029
419,1051689,1815530,-0.533,-0.557,0.52,-6,23.9,-15.2,11.1,-6.6,-21.4,0.418134098,0.112949004,0.454512162,-0.778313547
420,1053285,1815530,-0.541,-0.561,0.524,-6.5,24,-16,10.5,-8.6,-21.6,0.417645802,0.113132115,0.454878384,-0.778313547
421,1055956,1815530,-0.549,-0.572,0.524,-6.8,24.2,-16.8,10.5,-8.6,-21.6,0.417157506,0.113315226,0.455275124,-0.778313547
422,1058204,1815530,-0.549,-0.584,0.528,-6.8,24.3,-17.3,10.5,-8.6,-21.6,0.416638691,0.113498337,0.455641346,-0.778374584
423,1060771,1815540,-0.558,-0.592,0.524,-6.6,24.3,-17.5,10.5,-8.6,-21.6,0.416089358,0.113681448,0.456038087,-0.778405103
424,1064237,1815540,-0.558,-0.592,0.532,-6.2,24.2,-17.8,10.4,-7.5,-22,0.415570544,0.113864559,0.456404309,-0.778435621
425,1065851,1815540,-0.558,-0.596,0.524,-5.8,24,-18.3,10.4,-7.5,-22,0.415051729,0.114017151,0.456770531,-0.778496658
426,1068314,1815540,-0.566,-0.6,0.532,-5.4,23.7,-18.8,10.4,-7.5,-22,0.414502396,0.114200262,0.457106235,-0.778557695
427,1071790,1815550,-0.57,-0.607,0.532,-4.9,23.4,-19.3,10.4,-7.5,-22,0.413953063,0.114352855,0.457472457,-0.778618732
428,1073357,1815550,-0.57,-0.607,0.532,-4.9,23.4,-19.3,10.4,-7.5,-22,0.413953063,0.114352855,0.457472457,-0.778618732
429,1075757,1815550,-0.574,-0.615,0.536,-3.1,23,-20.3,10.9,-7.6,-21.6,0.412823878,0.114749596,0.458113346,-0.778771325
430,1079240,1815550,-0.578,-0.615,0.54,-1.8,22.7,-20.8,10.9,-7.6,-21.6,0.412244026,0.114902188,0.458388012,-0.778893399
431,1080736,1815560,-0.574,-0.619,0.536,-0.4,22.4,-21.1,10.9,-7.6,-21.6,0.411664174,0.115085299,0.458662679,-0.779015473
432,1083805,1815560,-0.578,-0.619,0.541,0.9,21.9,-21.5,11.4,-7.9,-21.9,0.411084323,0.115237892,0.458876308,-0.779168065
433,1086899,1815560,-0.578,-0.619,0.544,2.3,21.4,-21.9,11.4,-7.9,-21.9,0.410504471,0.115390484,0.459089938,-0.779320658
434,1089389,1815560,-0.582,-0.623,0.541,3.8,20.7,-22.2,11.4,-7.9,-21.9,0.409894101,0.115573595,0.459273049,-0.779503769
435,1091815,1815570,-0.578,-0.623,0.548,5.1,20.3,-22.5,11.4,-7.9,-21.9,0.409283731,0.115726188,0.459425642,-0.779717399
436,1093305,1815570,-0.578,-0.623,0.541,6.2,19.9,-22.9,11.3,-8,-21.4,0.40867336,0.115909299,0.459547716,-0.779931028
437,1095791,1815570,-0.578,-0.619,0.544,7.1,19.5,-23.2,11.3,-8,-21.4,0.408093509,0.116061892,0.45966979,-0.780175176
438,1098447,1815570,-0.582,-0.615,0.541,8,19.1,-23.5,11.3,-8,-21.4,0.40745262,0.116214484,0.459761345,-0.780419324
439,1102367,1815580,-0.578,-0.615,0.544,8.8,18.7,-23.8,11.3,-8,-21.4,0.40684225,0.116397595,0.459822382,-0.780663472
440,1103307,1815580,-0.582,-0.607,0.541,9.5,18.5,-24.2,11.3,-6.7,-21.2,0.40623188,0.116550188,0.459883419,-0.780938139
441,1106523,1815580,-0.581,-0.603,0.537,9.9,18.3,-24.3,11.3,-6.7,-21.2,0.405590991,0.11670278,0.459944456,-0.781182287
442,1108826,1815580,-0.585,-0.595,0.541,10.2,18,-24.3,11.3,-6.7,-21.2,0.404980621,0.116855373,0.460005493,-0.781456954
443,1110990,1815590,-0.581,-0.595,0.541,10.3,17.7,-24.4,11.3,-6.7,-21.2,0.404370251,0.117007965,0.460036012,-0.78173162
444,1113608,1815590,-0.585,-0.587,0.541,10.4,17.4,-24.5,11.2,-9.3,-21.7,0.403729362,0.117130039,0.46006653,-0.782006287
445,1116055,1815590,-0.585,-0.587,0.541,10.5,17.2,-24.7,11.2,-9.3,-21.7,0.403118992,0.117282632,0.460127567,-0.782280953
446,1119309,1815590,-0.585,-0.587,0.548,10.5,17,-24.8,11.2,-9.3,-21.7,0.402478103,0.117404706,0.460158086,-0.782586138
447,1121349,1815600,-0.585,-0.583,0.556,10.5,16.9,-25,11.2,-9.3,-21.7,0.401867733,0.117557299,0.460188604,-0.782860805
448,1123606,1815600,-0.585,-0.583,0.556,10.5,16.9,-25,11.2,-9.3,-21.7,0.401867733,0.117557299,0.460188604,-0.782860805
449,1125978,1815600,-0.577,-0.591,0.552,10.2,16.4,-25.2,11.6,-9.7,-21.4,0.400799585,0.118076113,0.460127567,-0.783349101
450,1128337,1815600,-0.577,-0.595,0.548,9.8,16.2,-25.1,11.6,-9.7,-21.4,0.400158696,0.118198187,0.460158086,-0.783623768
451,1131674,1815610,-0.581,-0.603,0.556,9.5,16.1,-25.1,11.6,-9.7,-21.4,0.399548326,0.118320261,0.460219123,-0.783898434
452,1133864,1815610,-0.589,-0.603,0.56,9,16.1,-25.2,11.9,-9.6,-21.2,0.398907437,0.118411817,0.460249641,-0.784173101
453,1136821,1815610,-0.589,-0.615,0.56,8.6,16.2,-25.3,11.9,-9.6,-21.2,0.398327586,0.118503372,0.460310678,-0.784447768
454,1138345,1815610,-0.597,-0.611,0.553,8,16.2,-25.4,11.9,-9.6,-21.2,0.397686697,0.118594928,0.460402234,-0.784691916
455,1140977,1815620,-0.597,-0.615,0.553,7.6,16.3,-25.4,11.9,-9.6,-21.2,0.397076327,0.118686483,0.460463271,-0.784966582
456,1143223,1815620,-0.597,-0.615,0.557,7.2,16.4,-25.3,11.6,-9.5,-21.5,0.396465957,0.11874752,0.460554827,-0.78521073
457,1146721,1815620,-0.605,-0.61,0.561,6.9,16.3,-25.3,11.6,-9.5,-21.5,0.395825068,0.118869594,0.460646382,-0.785454878
458,1148273,1815620,-0.605,-0.618,0.557,6.9,16.1,-25.5,11.6,-9.5,-21.5,0.395214698,0.11896115,0.460737938,-0.785699026
459,1150809,1815630,-0.613,-0.618,0.565,6.9,16,-25.7,11.6,-9.5,-21.5,0.394604328,0.119022187,0.460829493,-0.785943175
460,1155035,1815630,-0.609,-0.618,0.561,7,15.9,-26,11.6,-6.7,-19.5,0.393963439,0.119083224,0.46089053,-0.786217841
461,1157334,1815630,-0.613,-0.626,0.557,7,15.9,-26.2,11.6,-6.7,-19.5,0.393353069,0.11917478,0.460982086,-0.786461989
462,1158511,1815630,-0.617,-0.626,0.557,7.1,15.9,-26.3,11.6,-6.7,-19.5,0.39271218,0.119235817,0.461073641,-0.786706137
463,1161898,1815640,-0.621,-0.626,0.561,7.1,15.8,-26.3,11.6,-6.7,-19.5,0.392071291,0.119296854,0.461134678,-0.786980804
464,1164265,1815640,-0.621,-0.63,0.557,7.3,15.7,-26.4,11.9,-7.7,-22.7,0.391460921,0.119357891,0.461226234,-0.787224952
465,1166413,1815640,-0.625,-0.63,0.557,7.6,15.5,-26.6,11.9,-7.7,-22.7,0.390820032,0.119418928,0.461287271,-0.787499619
466,1168642,1815640,-0.625,-0.63,0.561,8,15.3,-27,11.9,-7.7,-22.7,0.390179144,0.119479965,0.461348308,-0.787774285
467,1171746,1815650,-0.625,-0.63,0.565,8.4,15.3,-27.2,11.9,-7.7,-22.7,0.389538255,0.11957152,0.461409345,-0.788048952
468,1173365,1815650,-0.625,-0.63,0.565,8.4,15.3,-27.2,11.9,-7.7,-22.7,0.389538255,0.11957152,0.461409345,-0.788048952
469,1176221,1815650,-0.629,-0.626,0.561,9.3,15.3,-27.6,11.9,-6.9,-23,0.388317515,0.119907224,0.461470382,-0.788567766
470,1179199,1815650,-0.629,-0.63,0.569,9.6,15.2,-27.6,11.9,-6.9,-23,0.387676626,0.119968261,0.4615009,-0.788842433
471,1181489,1815660,-0.629,-0.63,0.569,9.7,15.2,-27.8,11.9,-6.9,-23,0.387005219,0.120029298,0.461531419,-0.789147618
472,1184388,1815660,-0.629,-0.626,0.569,9.8,15,-27.9,12.3,-6.7,-22.9,0.38636433,0.120090335,0.461561937,-0.789422285
473,1186624,1815660,-0.637,-0.625,0.577,9.9,15,-28.1,12.3,-6.7,-22.9,0.385692923,0.120151372,0.461592456,-0.78972747
474,1188881,1815660,-0.637,-0.614,0.577,10.1,14.9,-28.4,12.3,-6.7,-22.9,0.385021516,0.120212409,0.461622974,-0.790032655
475,1191127,1815670,-0.637,-0.61,0.577,10.2,14.8,-28.6,12.3,-6.7,-22.9,0.384350108,0.120273446,0.461653493,-0.79033784
476,1193393,1815670,-0.633,-0.61,0.581,9.9,14.8,-28.8,12.5,-6.6,-22.8,0.383678701,0.120303964,0.461684011,-0.790643025
477,1196014,1815670,-0.637,-0.61,0.566,9.6,14.9,-29,12.5,-6.6,-22.8,0.383007294,0.120365001,0.46171453,-0.79094821
478,1198222,1815670,-0.641,-0.602,0.569,9.1,15.1,-29.2,12.5,-6.6,-22.8,0.382305368,0.12039552,0.461745048,-0.791253395
479,1201602,1815680,-0.641,-0.606,0.577,9,15.4,-29.2,12.5,-6.6,-22.8,0.381633961,0.120456557,0.461806085,-0.791528062
480,1203204,1815680,-0.641,-0.602,0.581,9.1,15.5,-29.2,12.5,-8,-21.1,0.380962554,0.120517594,0.461836604,-0.791833247
481,1206585,1815680,-0.641,-0.598,0.589,9.6,15.6,-29.3,12.5,-8,-21.1,0.380260628,0.120548112,0.461897641,-0.792138432
482,1208173,1815680,-0.637,-0.594,0.585,10.1,15.7,-29.4,12.5,-8,-21.1,0.379558702,0.120609149,0.461928159,-0.792443617
483,1210792,1815690,-0.637,-0.59,0.577,10.2,15.9,-29.4,12.5,-8,-21.1,0.378856777,0.120670186,0.461958678,-0.792748802
484,1214852,1815690,-0.641,-0.586,0.581,10.3,16,-29.5,12.4,-7.4,-20.7,0.378154851,0.120700705,0.461989196,-0.793053987
485,1217119,1815690,-0.64,-0.582,0.573,10.2,16.1,-29.5,12.4,-7.4,-20.7,0.377422407,0.120822779,0.462019715,-0.793359172
486,1219352,1815690,-0.652,-0.574,0.574,10.1,16.3,-29.4,12.4,-7.4,-20.7,0.376750999,0.120883816,0.462050233,-0.793664357
487,1222086,1815700,-0.652,-0.566,0.57,10,16.5,-29.3,12.4,-7.4,-20.7,0.376049074,0.120944853,0.462080752,-0.793939024
488,1224313,1815700,-0.652,-0.566,0.57,10,16.5,-29.3,12.4,-7.4,-20.7,0.376049074,0.120944853,0.462080752,-0.793939024
489,1225878,1815700,-0.66,-0.554,0.574,9.5,16.8,-28.7,13,-7.1,-19.5,0.375255593,0.122165593,0.461745048,-0.794335765
490,1229146,1815700,-0.668,-0.55,0.574,9.3,16.8,-28.4,13,-7.1,-19.5,0.374584185,0.122257149,0.461806085,-0.79464095
491,1231031,1815710,-0.664,-0.546,0.582,8.9,16.9,-28.1,13,-7.1,-19.5,0.37388226,0.122318186,0.461867122,-0.794915616
492,1233173,1815710,-0.664,-0.534,0.582,8.3,17,-27.8,13,-7.3,-18.4,0.373210852,0.122409742,0.461928159,-0.795159764
493,1235730,1815710,-0.679,-0.526,0.586,7.2,17.2,-27.5,13,-7.3,-18.4,0.372539445,0.122501297,0.462019715,-0.795403912
494,1239208,1815710,-0.679,-0.518,0.59,5.8,17.4,-27.4,13,-7.3,-18.4,0.371868038,0.122562334,0.462141789,-0.795648061
495,1241347,1815720,-0.691,-0.514,0.59,4.1,17.6,-27.4,13,-7.3,-18.4,0.371196631,0.122623371,0.462263863,-0.79586169
496,1243588,1815720,-0.699,-0.51,0.59,2.1,17.7,-27.2,13.1,-7.3,-18.2,0.370555742,0.12265389,0.462446974,-0.79607532
497,1245887,1815720,-0.707,-0.506,0.598,0,17.8,-26.9,13.1,-7.3,-18.2,0.369914853,0.122714927,0.462660604,-0.796227912
498,1248174,1815720,-0.719,-0.502,0.591,-2.1,17.8,-26.5,13.1,-7.3,-18.2,0.369273965,0.122745445,0.46293527,-0.796380505
499,1250738,1815730,-0.731,-0.505,0.595,-4.1,17.7,-26.1,13.1,-7.3,-18.2,0.368633076,0.122745445,0.463209937,-0.796502579
500,1254075,1815730,-0.758,-0.505,0.596,-5.9,17.6,-25.6,13.4,-7.6,-23.1,0.368053224,0.122745445,0.463515122,-0.796594134
501,1255711,1815730,-0.766,-0.512,0.596,-7.6,17.3,-25.1,13.4,-7.6,-23.1,0.367442854,0.122745445,0.463850826,-0.79668569
502,1258284,1815730,-0.782,-0.516,0.6,-9,17,-24.7,13.4,-7.6,-23.1,0.366863002,0.122714927,0.464217048,-0.796746727
503,1261677,1815740,-0.794,-0.504,0.612,-10.3,16.7,-24.4,13.4,-7.6,-23.1,0.366313669,0.12265389,0.464613788,-0.796777245
504,1263262,1815740,-0.806,-0.523,0.613,-11.4,16.4,-24.1,13.4,-7.4,-19.8,0.365703299,0.122623371,0.465010529,-0.796807764
505,1266577,1815740,-0.806,-0.531,0.605,-12.6,15.9,-24,13.4,-7.4,-19.8,0.365184484,0.122562334,0.46540727,-0.796838282
506,1268340,1815740,-0.818,-0.535,0.621,-13.8,15.3,-24.1,13.4,-7.4,-19.8,0.36466567,0.122470779,0.465834529,-0.796838282
507,1271696,1815750,-0.818,-0.547,0.633,-14.4,14.6,-24.3,13.4,-7.4,-19.8,0.364116337,0.122348704,0.466261788,-0.796868801
508,1273815,1815750,-0.834,-0.558,0.668,-14.2,13.8,-24.4,13.5,-7.1,-19.9,0.363597522,0.12222663,0.466689047,-0.796868801
509,1275983,1815750,-0.818,-0.566,0.644,-13.6,12.9,-24.7,13.5,-7.1,-19.9,0.363078707,0.122104556,0.467085788,-0.796899319
510,1278320,1815750,-0.826,-0.566,0.664,-12.9,12.1,-24.8,13.5,-7.1,-19.9,0.362559893,0.121951964,0.467482528,-0.796929838
511,1280817,1815760,-0.846,-0.55,0.708,-12,11.3,-24.9,13.5,-7.1,-19.9,0.362041078,0.121799371,0.46784875,-0.796960356
512,1284164,1815760,-0.826,-0.566,0.684,-10.8,10.7,-24.9,13.6,-7.2,-20.9,0.361522263,0.121646779,0.468184454,-0.797021393
513,1285717,1815760,-0.826,-0.562,0.684,-9.7,9.9,-25.1,13.6,-7.2,-20.9,0.361003449,0.121494186,0.468520157,-0.79708243
514,1288453,1815760,-0.892,-0.49,0.74,-8.4,9.3,-25.5,13.6,-7.2,-20.9,0.360484634,0.121311075,0.468794824,-0.797173986
515,1290752,1815770,-0.869,-0.533,0.72,-7,8.5,-25.9,13.6,-7.2,-20.9,0.359965819,0.121158483,0.469038972,-0.79729606
516,1294197,1815770,-0.794,-0.551,0.679,-5,7.7,-25.8,13.3,-7.6,-21.7,0.359447005,0.120975372,0.46928312,-0.797418134
517,1295787,1815770,-0.85,-0.542,0.712,-2.6,7,-25.4,13.3,-7.6,-21.7,0.358958708,0.120822779,0.469435713,-0.797570727
518,1298628,1815770,-0.818,-0.531,0.703,0,6.4,-24.8,13.3,-7.6,-21.7,0.358439894,0.120670186,0.469557787,-0.797753838
519,1300695,1815780,-0.853,-0.506,0.704,2.7,5.9,-24.5,13.3,-7.6,-21.7,0.357951598,0.120548112,0.469618824,-0.797967467
520,1304046,1815780,-0.845,-0.495,0.684,4.9,5.4,-24.4,13.9,-7.1,-21,0.357463301,0.120426038,0.469649342,-0.798181097
521,1306312,1815780,-0.865,-0.475,0.684,6.6,5,-24.4,13.9,-7.1,-21,0.356975005,0.120334483,0.469618824,-0.798425245
522,1308489,1815780,-0.852,-0.451,0.672,7.7,4.7,-24.2,13.9,-7.1,-21,0.356456191,0.120212409,0.469588305,-0.798699911
523,1310815,1815790,-0.867,-0.396,0.645,8,4.2,-23.9,13.9,-7.1,-21,0.355998413,0.120120853,0.469557787,-0.79894406
524,1314227,1815790,-0.883,-0.368,0.649,7.9,3.9,-23.3,14.1,-6.9,-20.6,0.355510117,0.119998779,0.46949675,-0.799218726
525,1316475,1815790,-0.89,-0.337,0.638,7.2,3.5,-22.6,14.1,-6.9,-20.6,0.355052339,0.119876705,0.469466231,-0.799432356
526,1318753,1815790,-0.91,-0.285,0.63,6.1,3.2,-21.8,14.1,-6.9,-20.6,0.35462508,0.119724113,0.469435713,-0.799676504
527,1320949,1815800,-0.917,-0.253,0.623,4.1,3,-21,14.1,-6.9,-20.6,0.354228339,0.119632557,0.469435713,-0.799859615
528,1323202,1815800,-0.932,-0.222,0.615,1.3,2.9,-20,14,-7.1,-20.8,0.353831599,0.119510483,0.46949675,-0.800012207
529,1325715,1815800,-0.952,-0.198,0.604,-2.5,2.7,-18.9,14,-7.1,-20.8,0.353495895,0.119327372,0.469618824,-0.800134281
530,1329134,1815800,-0.991,-0.15,0.585,-7.1,2.3,-17.2,14,-7.1,-20.8,0.35319071,0.119144261,0.469801935,-0.800195318
531,1330766,1815810,-1.015,-0.129,0.582,-12.4,1.7,-15.4,14,-7.1,-20.8,0.352916044,0.118900113,0.470076601,-0.8001648
532,1333663,1815810,-1.034,-0.109,0.582,-18.3,1,-13.2,14.3,-7,-20.7,0.352732933,0.118655965,0.470442824,-0.800103763
533,1336718,1815810,-1.054,-0.097,0.579,-24.8,0,-10.8,14.3,-7,-20.7,0.352610858,0.11835078,0.470900601,-0.799920652
534,1338320,1815810,-1.093,-0.08,0.584,-31.7,-1,-8.3,14.3,-7,-20.7,0.352549821,0.118015076,0.471449934,-0.799645985
535,1340830,1815820,-1.117,-0.068,0.588,-38.9,-2.2,-5.7,14.3,-7,-20.7,0.35258034,0.117618336,0.472121342,-0.799310282
536,1343165,1815820,-1.141,-0.064,0.593,-46.1,-3.6,-2.7,14.1,-6.9,-21,0.352671896,0.117160558,0.472914823,-0.798852504
537,1346439,1815820,-1.176,-0.055,0.602,-53,-5,0.3,14.1,-6.9,-21,0.352885525,0.116672262,0.47379986,-0.798333689
538,1348593,1815820,-1.196,-0.066,0.614,-59.4,-6.6,3.5,14.1,-6.9,-21,0.353160192,0.116122929,0.474776452,-0.797692801
539,1350822,1815830,-1.216,-0.074,0.622,-65.3,-8.4,6.7,14.1,-6.9,-21,0.353526414,0.115543077,0.4758446,-0.796990875
540,1354229,1815830,-1.228,-0.085,0.638,-70.5,-10.3,10,13.1,-6.5,-20.9,0.353984191,0.114932707,0.476943266,-0.796197394
541,1355737,1815830,-1.256,-0.116,0.667,-74.9,-12.5,13.2,13.1,-6.5,-20.9,0.354533525,0.114261299,0.478133488,-0.795342875
542,1358321,1815830,-1.268,-0.147,0.675,-78.2,-14.9,16.3,13.1,-6.5,-20.9,0.355174413,0.113589892,0.47932371,-0.794457839
543,1361575,1815840,-1.269,-0.182,0.691,-80.5,-17.5,19.2,13.1,-6.5,-20.9,0.355876339,0.112857448,0.48054445,-0.793511765
544,1363255,1815840,-1.289,-0.213,0.699,-81.8,-20.3,22,14.1,-5.9,-21.2,0.356700339,0.112094485,0.481734672,-0.792504654
545,1366470,1815840,-1.314,-0.287,0.704,-82.5,-23.2,24.8,14.1,-5.9,-21.2,0.357554857,0.111301004,0.482894375,-0.791497543
546,1368403,1815840,-1.334,-0.314,0.728,-82.1,-26.1,27.6,14.1,-5.9,-21.2,0.358500931,0.110507523,0.484084597,-0.790490432
547,1371721,1815850,-1.347,-0.338,0.72,-81.2,-28.8,30.2,14.1,-5.9,-21.2,0.35953856,0.109683523,0.485183264,-0.789452803
548,1373276,1815850,-1.371,-0.392,0.737,-79.2,-31.4,32.6,14.1,-6.1,-20.9,0.360606708,0.108859523,0.486220893,-0.788445692
549,1375975,1815850,-1.379,-0.408,0.741,-76.3,-33.6,34.8,14.1,-6.1,-20.9,0.361766411,0.108066042,0.487166967,-0.787438581
550,1379014,1815850,-1.395,-0.415,0.745,-72.3,-35.7,37,14.1,-6.1,-20.9,0.362956633,0.107272561,0.488052004,-0.786461989
551,1381224,1815860,-1.399,-0.427,0.749,-67.3,-37.5,39.4,14.1,-6.1,-20.9,0.364177374,0.106509598,0.488814966,-0.785515915
552,1383485,1815860,-1.427,-0.414,0.754,-61.4,-39.3,41.9,13.7,-5.7,-21.4,0.365459151,0.105807672,0.489455855,-0.784630879
553,1385782,1815860,-1.435,-0.41,0.75,-55,-41,44.3,13.7,-5.7,-21.4,0.366771447,0.105136265,0.48997467,-0.78377636
554,1388375,1815860,-1.451,-0.398,0.735,-48.3,-42.9,46.6,13.7,-5.7,-21.4,0.36814478,0.104495376,0.490340892,-0.782982879
555,1391718,1815870,-1.462,-0.39,0.735,-41.6,-45,49.1,13.7,-5.7,-21.4,0.36957915,0.103915525,0.49058504,-0.782219916
556,1393272,1815870,-1.486,-0.354,0.716,-35,-47.1,51.7,13.9,-5.7,-21.4,0.371044038,0.10339671,0.490676595,-0.781548509
557,1395804,1815870,-1.497,-0.33,0.713,-28.6,-49.3,54.3,13.9,-5.7,-21.4,0.372539445,0.102908414,0.490646077,-0.78090762
558,1400037,1815870,-1.505,-0.307,0.713,-22.4,-51.4,56.8,13.9,-5.7,-21.4,0.374126408,0.102450636,0.490493484,-0.780327769
559,1400998,1815880,-1.517,-0.287,0.705,-16.6,-53.5,59.3,13.9,-5.7,-21.4,0.375743889,0.102053896,0.490188299,-0.779778436
560,1403308,1815880,-1.539,-0.216,0.678,-11.1,-55.4,61.9,10.8,-6,-21.5,0.377422407,0.101657155,0.489791559,-0.779290139
561,1406635,1815880,-1.547,-0.176,0.655,-6.3,-57,64.3,10.8,-6,-21.5,0.379131443,0.101321451,0.489272744,-0.778801843
562,1408200,1815880,-1.566,-0.128,0.632,-2.6,-58.6,66.4,10.8,-6,-21.5,0.380901517,0.101016266,0.488692892,-0.778313547
563,1410665,1815890,-1.566,-0.089,0.604,-0.4,-60.2,68.2,10.8,-6,-21.5,0.382702109,0.100680563,0.488052004,-0.777916807
564,1414113,1815890,-1.577,-0.018,0.569,0.6,-62.1,69.5,13.4,-6.4,-22.1,0.384533219,0.100405896,0.487380596,-0.777489547
565,1415674,1815890,-1.58,0.024,0.565,1.5,-64.1,70.9,13.4,-6.4,-22.1,0.386425367,0.100100711,0.486648152,-0.77703177
566,1419473,1815890,-1.588,0.052,0.55,2.5,-66.4,72.4,13.4,-6.4,-22.1,0.388348033,0.0997650075,0.485885189,-0.776604511
567,1420868,1815900,-1.587,0.122,0.546,3.9,-68.7,74.2,13.4,-6.4,-22.1,0.390331736,0.0994293039,0.48506119,-0.776146733
568,1423868,1815900,-1.594,0.15,0.554,5.3,-71,76.2,13.1,-6.5,-21.9,0.392345958,0.0990630818,0.484206671,-0.775719474
569,1426861,1815900,-1.586,0.173,0.553,6.3,-73.2,78.3,13.1,-6.5,-21.9,0.394421216,0.0986968596,0.483291116,-0.775261696
570,1428488,1815900,-1.585,0.193,0.553,6.5,-75.4,80.3,13.1,-6.5,-21.9,0.396588031,0.0983306375,0.482375561,-0.774803919
571,1430844,1815910,-1.585,0.225,0.561,6,-77.4,81.9,13.1,-6.5,-21.9,0.398754845,0.0979338969,0.481429487,-0.774315622
572,1433619,1815910,-1.585,0.236,0.561,4.3,-79.1,83.2,11.8,-7,-22.1,0.400982696,0.0975066378,0.480483413,-0.773827326
573,1436742,1815910,-1.585,0.24,0.561,1.2,-80.5,84.3,11.8,-7,-22.1,0.403241066,0.0970488601,0.479567858,-0.773247475
574,1438457,1815910,-1.593,0.244,0.549,-3.5,-81.8,85.3,11.8,-7,-22.1,0.405560472,0.0965300455,0.478743858,-0.772637104
575,1441867,1815920,-1.597,0.252,0.542,-9.7,-83.1,85.9,11.8,-7,-22.1,0.407879879,0.0959501938,0.477980895,-0.771965697
576,1443433,1815920,-1.596,0.26,0.542,-16.6,-84.6,85.9,11.2,-7.1,-22.1,0.410260323,0.0952482681,0.477309488,-0.771202734
577,1446463,1815920,-1.6,0.268,0.553,-23.3,-85.7,85.4,11.2,-7.1,-22.1,0.412640767,0.0944853053,0.476760155,-0.770348216
578,1448222,1815920,-1.616,0.276,0.57,-29.2,-86.3,84.8,11.2,-7.1,-22.1,0.41502121,0.0936613056,0.476302377,-0.769463179
579,1451692,1815930,-1.636,0.273,0.582,-34.5,-86.2,84.4,11.2,-7.1,-22.1,0.417401654,0.0927762688,0.475936155,-0.768517106
580,1453297,1815930,-1.664,0.27,0.583,-39.6,-85.7,84.7,9.5,-6.7,-21.9,0.419782098,0.0918607135,0.47563097,-0.767509995
581,1455653,1815930,-1.691,0.27,0.579,-45.2,-85.1,85.5,9.5,-6.7,-21.9,0.42219306,0.0909146397,0.475447859,-0.766411328
582,1459258,1815930,-1.759,0.256,0.562,-51.4,-84.5,86.6,9.5,-6.7,-21.9,0.424604022,0.0899075289,0.475356304,-0.765251625
583,1461049,1815940,-1.795,0.249,0.551,-58.1,-84.2,87.4,9.5,-6.7,-21.9,0.427076022,0.0888698996,0.475356304,-0.764000366
584,1464126,1815940,-1.831,0.23,0.536,-64.9,-84.1,87.5,7.6,-6.8,-21.9,0.429517502,0.0877712333,0.475508896,-0.762657552
585,1465800,1815940,-1.875,0.223,0.518,-71.1,-84.2,86.8,7.6,-6.8,-21.9,0.431958983,0.0866115299,0.475722526,-0.761284219
586,1468568,1815940,-1.943,0.182,0.512,-76.1,-84.4,85.3,7.6,-6.8,-21.9,0.434400464,0.0853907895,0.476027711,-0.75981933
587,1471621,1815950,-1.971,0.155,0.517,-79.6,-84.7,83.6,7.6,-6.8,-21.9,0.436811426,0.0840784936,0.476393933,-0.758354442
588,1473282,1815950,-2.003,0.128,0.522,-81.5,-84.9,81.7,6.2,-6.8,-22.3,0.43919187,0.0827661977,0.476760155,-0.756889554
589,1476810,1815950,-2.035,0.113,0.527,-81.9,-84.7,80,6.2,-6.8,-22.3,0.441541795,0.0813928648,0.477156896,-0.755424665
590,1478375,1815950,-2.045,0.011,0.543,-81.3,-84.4,78.2,6.2,-6.8,-22.3,0.443830683,0.0800500504,0.477553636,-0.753959777
591,1481320,1815960,-2.081,0.004,0.548,-80,-84.3,75.9,6.2,-6.8,-22.3,0.446119572,0.0786767174,0.477919858,-0.752555925
592,1484819,1815960,-2.081,-0.022,0.552,-78.3,-84.4,73,4.7,-6.8,-22.3,0.448347423,0.0772423475,0.478255562,-0.751152074
593,1486449,1815960,-2.078,-0.07,0.556,-76.4,-84.5,69.5,4.7,-6.8,-22.3,0.450483718,0.0758690146,0.478560747,-0.749809259
594,1489328,1815960,-2.062,-0.07,0.559,-74.7,-84.6,65.8,4.7,-6.8,-22.3,0.452589496,0.0744346446,0.478835414,-0.748527482
595,1490794,1815970,-2.05,-0.07,0.563,-72.8,-84.5,61.6,4.7,-6.8,-22.3,0.454573199,0.0730002747,0.47911008,-0.747276223
596,1494123,1815970,-2.03,-0.067,0.566,-69.9,-84.1,56.7,3.6,-6.4,-22.6,0.456495865,0.0715048677,0.47932371,-0.74611652
597,1495807,1815970,-1.966,-0.029,0.564,-65.6,-83.2,51,3.6,-6.4,-22.6,0.458296457,0.0700399792,0.479476302,-0.745048372
598,1498629,1815970,-1.942,-0.006,0.54,-60.1,-81.8,44.3,3.6,-6.4,-22.6,0.459974975,0.0685750908,0.479567858,-0.744102298
599,1500693,1815980,-1.914,0.039,0.508,-53.8,-79.9,37.1,3.6,-6.4,-22.6,0.4615009,0.0671102023,0.479567858,-0.743278298
600,1503658,1815980,-1.889,0.082,0.464,-47.4,-77.7,29.3,8.1,-7.6,-22.8,0.462843715,0.0656758324,0.479506821,-0.742606891
601,1505784,1815980,-1.813,0.186,0.384,-41.3,-75.4,20.8,8.1,-7.6,-22.8,0.464033937,0.064271981,0.479384747,-0.742088076
602,1508184,1815980,-1.773,0.236,0.336,-35.4,-73,11.4,8.1,-7.6,-22.8,0.465041047,0.062837611,0.479201636,-0.741691336
603,1511658,1815990,-1.736,0.275,0.292,-29.4,-70.7,1.5,8.1,-7.6,-22.8,0.465834529,0.0614337596,0.478957488,-0.741447188
604,1513378,1815990,-1.716,0.298,0.256,-22.4,-68.3,-8.6,5.1,-5.2,-22.7,0.466444899,0.0599993896,0.478652303,-0.741416669
605,1515825,1815990,-1.656,0.34,0.238,-13.6,-65.9,-18.4,5.1,-5.2,-22.7,0.466841639,0.0585955382,0.478225043,-0.741538743
606,1520029,1815990,-1.616,0.358,0.237,-3,-63.4,-28,5.1,-5.2,-22.7,0.467055269,0.0572527238,0.477645192,-0.741874447
607,1522334,1816000,-1.576,0.377,0.236,9.1,-61,-37.2,5.1,-5.2,-22.7,0.467085788,0.0559404279,0.476943266,-0.74242378
608,1524511,1816000,-1.552,0.392,0.232,21.8,-58.6,-45.7,5.9,-4.9,-22.9,0.466933195,0.0547196875,0.476027711,-0.743156224
609,1526758,1816000,-1.536,0.408,0.239,32.9,-55.9,-53.4,5.9,-4.9,-22.9,0.466597491,0.0536210211,0.474990081,-0.744132817
610,1529186,1816000,-1.508,0.407,0.246,41.3,-52.5,-60.4,5.9,-4.9,-22.9,0.466109195,0.0525833918,0.473860897,-0.745231483
611,1531352,1816010,-1.492,0.411,0.285,46.7,-48,-67,5.9,-4.9,-22.9,0.465468307,0.0515457625,0.472670675,-0.746452223
612,1533565,1816010,-1.44,0.437,0.392,50.2,-42.5,-73.9,6.1,-5.2,-22.7,0.464644307,0.0506302072,0.471510971,-0.747764519
613,1535965,1816010,-1.407,0.46,0.427,53.1,-36.6,-82,6.1,-5.2,-22.7,0.463606677,0.0497146519,0.470351268,-0.749198889
614,1538435,1816010,-1.359,0.471,0.468,56.2,-31,-91.7,6.1,-5.2,-22.7,0.462385937,0.0488601337,0.469222083,-0.750724815
615,1540875,1816020,-1.327,0.482,0.51,59.7,-26.4,-102.8,6.1,-5.2,-22.7,0.46089053,0.0479750969,0.468092898,-0.752403333
616,1544027,1816020,-1.235,0.48,0.641,63.8,-22.8,-115.1,6.8,-5.2,-22.6,0.459181494,0.0470595416,0.466933195,-0.754234443
617,1546265,1816020,-1.191,0.467,0.71,68.6,-19.6,-128.4,6.8,-5.2,-22.6,0.457167272,0.0461134678,0.465742973,-0.756248665
618,1548255,1816020,-1.148,0.459,0.771,73.7,-16.5,-142.4,6.8,-5.2,-22.6,0.454908902,0.0451368755,0.464491714,-0.758415479
619,1551670,1816030,-1.072,0.429,0.851,78.5,-13.4,-157.1,6.8,-5.2,-22.6,0.452375866,0.0440992462,0.463209937,-0.760795923
620,1553269,1816030,-1.04,0.421,0.894,82,-10.2,-172.7,5.9,-7.5,-22.6,0.449537645,0.0430005799,0.461928159,-0.763328959
621,1555823,1816030,-1.024,0.417,0.936,84.3,-6.8,-189.3,5.9,-7.5,-22.6,0.44636372,0.0417798395,0.460615864,-0.766014588
622,1559160,1816030,-1,0.424,0.967,86.3,-3.1,-207,5.9,-7.5,-22.6,0.442854091,0.0404980621,0.459334086,-0.768913846
623,1561504,1816040,-0.967,0.482,0.981,88.6,1.1,-226.1,5.9,-7.5,-22.6,0.438947722,0.0390942106,0.458052309,-0.771965697
624,1563412,1816040,-0.939,0.517,0.961,91.6,5.6,-246.4,6.4,-6.6,-22.6,0.43467513,0.0376293222,0.456740013,-0.775231178
625,1567254,1816040,-0.891,0.535,0.92,95.1,10,-267.8,6.4,-6.6,-22.6,0.429944761,0.0360118412,0.455458235,-0.778679769
626,1570043,1816040,-0.836,0.577,0.86,98.6,13.7,-289.5,6.4,-6.6,-22.6,0.424817652,0.0343028047,0.454115421,-0.78234199
627,1570856,1816050,-0.653,0.624,0.73,102.2,16.5,-310.7,6.4,-6.6,-22.6,0.419263283,0.0324411756,0.452742088,-0.786217841
628,1573469,1816050,-0.534,0.641,0.618,106.1,18.2,-331.1,7.5,-7.2,-22,0.413312174,0.0304574725,0.451307718,-0.790246284
629,1575696,1816050,-0.396,0.61,0.509,110.9,18.7,-349.9,7.5,-7.2,-22,0.406994842,0.0283211768,0.449781793,-0.794457839
630,1579038,1816050,-0.203,0.566,0.41,117.1,18.2,-366.6,7.5,-7.2,-22,0.400372326,0.0260933256,0.448133793,-0.798821986
631,1581323,1816060,0.229,0.422,0.184,125.3,16.7,-381.2,7.5,-7.2,-22,0.393475143,0.0237434004,0.446302683,-0.803338725
632,1583493,1816060,0.449,0.327,0.092,135.4,14.7,-394.5,8,-7.6,-21.8,0.386333811,0.0213324381,0.444227424,-0.808008057
633,1585673,1816060,0.666,0.219,0.032,146.9,12.9,-407.4,8,-7.6,-21.8,0.378948332,0.0188604389,0.441877499,-0.812829981
634,1589182,1816060,1.038,-0.059,-0.07,159.4,12.1,-420.3,8,-7.6,-21.8,0.371288186,0.0163274026,0.439344462,-0.817804498
635,1591225,1816070,1.222,-0.221,-0.121,173.4,12.5,-432.8,8,-7.6,-21.8,0.363353374,0.0138248848,0.436475723,-0.822931608
636,1593526,1816070,1.375,-0.362,-0.129,190,13.5,-444.3,9.5,-8.4,-21.5,0.355174413,0.011322367,0.433301798,-0.82821131
637,1595897,1816070,1.503,-0.51,-0.089,210.7,14.4,-455.3,9.5,-8.4,-21.5,0.346751305,0.00891140477,0.429670095,-0.833674123
638,1598212,1816070,1.759,-0.705,-0.009,237.1,13.7,-468.1,9.5,-8.4,-21.5,0.338023011,0.00656147954,0.425550096,-0.839381085
639,1600699,1816080,1.848,-0.825,-0.054,270.5,9.9,-484.7,9.5,-8.4,-21.5,0.328989532,0.00424207282,0.420697653,-0.845393231
640,1604915,1816080,1.798,-2.005,-1.608,311.3,1.1,-506,11.3,-6.7,-20.9,0.319589831,0.00186162908,0.414960173,-0.851832636
641,1607163,1816080,2.677,-5.164,-3.317,370.6,-20.4,-526.7,11.3,-6.7,-20.9,0.309945982,-0.000671407208,0.407910398,-0.858760338
642,1609375,1816080,2.926,-8.158,-1.807,498.2,-68,-515.6,11.3,-6.7,-20.9,0.300851466,-0.00317392499,0.398083438,-0.866573077
643,1611346,1816090,7.764,-8.274,-8.155,758,-171.5,-414.3,11.3,-6.7,-20.9,0.294503616,-0.00503555406,0.382518998,-0.875728629
644,1613260,1816090,7.944,-8.279,-5.679,1056,-376.6,-239.1,12,-11.9,-20.2,0.293099765,-0.00744651631,0.359782708,-0.885738701
645,1617419,1816090,7.95,-8.272,-0.886,1181.7,-636.4,-57.9,12,-11.9,-20.2,0.297036653,-0.0126346629,0.33271279,-0.894894253
646,1619762,1816090,8.212,7.607,-1.015,1002.3,-826.5,30.4,12,-11.9,-20.2,0.303811762,-0.0220343638,0.307657094,-0.901394696
647,1621896,1816100,8.217,7.816,-0.504,594.1,-772.3,-48.2,12,-11.9,-20.2,0.308267464,-0.0336008789,0.29074984,-0.905117954
648,1623384,1816100,8.24,7.794,3.58,170.4,-439.3,-313,8.1,-15,-20.7,0.304971465,-0.0431226539,0.28418836,-0.907925657
649,1625727,1816100,4.92,7.903,7.422,-143,52.3,-630.7,8.1,-15,-20.7,0.29197058,-0.0469069491,0.286751915,-0.911191137
650,1628220,1816100,1.811,7.97,4.927,-314,476.5,-769.2,8.1,-15,-20.7,0.273323771,-0.0442823572,0.295175024,-0.914426099
651,1632440,1816110,0.161,8.004,2.194,-401.1,678.9,-598.8,8.1,-15,-20.7,0.256538591,-0.036957915,0.306588946,-0.915860469
652,1634649,1816110,-0.93,7.857,0.255,-472,655.6,-230.1,12.3,-12.6,-20,0.24713889,-0.0280465102,0.319437239,-0.914365062
653,1636880,1816110,-3.84,3.922,-0.342,-541.3,522.3,134.7,12.3,-12.6,-20,0.245826594,-0.0195928831,0.333079012,-0.910061953
654,1638402,1816110,-4.322,2.105,-0.62,-576,382.1,370.8,12.3,-12.6,-20,0.250129704,-0.0124210334,0.346690268,-0.903897214
655,1640708,1816120,-4.405,0.72,-0.438,-548.6,276.1,461.2,12.3,-12.6,-20,0.256935331,-0.00646992401,0.359080782,-0.897183142
656,1643230,1816120,-4.487,-0.642,-1.487,-464.4,202.8,443.5,12.5,-10.9,-20.3,0.263954588,-0.001617481,0.369335002,-0.890987884
657,1646631,1816120,-3.111,-2.246,-1.612,-343.4,155.3,367.9,12.5,-10.9,-20.3,0.269814142,0.00234992523,0.376903592,-0.886043886
658,1648401,1816120,-2.73,-3.013,-1.636,-212.5,128.8,286.1,12.5,-10.9,-20.3,0.274300363,0.00595110935,0.381756035,-0.882595294
659,1650717,1816130,-2.697,-4.658,-1.968,-98.5,116,235.5,12.5,-10.9,-20.3,0.277871029,0.00955229347,0.384289071,-0.880306406
660,1654193,1816130,-1.349,-3.886,-1.514,-31.6,108.3,211.3,13.6,-7.6,-19,0.281014435,0.0132145146,0.385509812,-0.878749962
661,1655662,1816130,-1.085,-4.193,-0.173,-15.2,102.6,186.9,13.6,-7.6,-19,0.283761101,0.0166631062,0.38636433,-0.877437666
662,1658165,1816130,-1.192,-3.93,0.454,-31.1,100,143.5,13.6,-7.6,-19,0.28562273,0.0195928831,0.387524033,-0.876216926
663,1661954,1816140,-1.141,-3.376,0.978,-52.1,99.4,93.2,13.6,-7.6,-19,0.286629841,0.0219428083,0.389110996,-0.875148778
664,1663553,1816140,-1.274,-1.757,1.285,-58.9,96,51.5,14.2,-8.8,-21.2,0.286812952,0.0238654744,0.390820032,-0.874294259
665,1665933,1816140,-1.639,-0.936,1.238,-44.7,85.8,21.8,14.2,-8.8,-21.2,0.286538285,0.0253913999,0.392193365,-0.873714408
666,1668545,1816140,-2.011,-0.279,1.074,-14,67.6,0.6,14.2,-8.8,-21.2,0.285958434,0.0266121403,0.392895291,-0.873561815
667,1670679,1816150,-2.23,-0.081,0.978,22.1,42.5,-18.6,14.2,-8.8,-21.2,0.28522599,0.0274056215,0.392742698,-0.873836482
668,1674236,1816150,-1.95,0.013,0.415,51,13.2,-42,13.7,-8.3,-21.2,0.284279916,0.0275887326,0.391857662,-0.874538408
669,1676345,1816150,-1.597,-0.218,0.949,66,-13.5,-69.1,13.7,-8.3,-21.2,0.283028657,0.0271614734,0.390575884,-0.875545518
670,1678508,1816150,-1.322,-0.739,1.194,75.6,-30.3,-91.6,13.7,-8.3,-21.2,0.281502731,0.0262459181,0.388988922,-0.876766259
671,1681563,1816160,-1.019,-1.335,1.011,93.7,-37.5,-94.4,13.7,-8.3,-21.2,0.279976806,0.0253303629,0.387005219,-0.878139592
672,1683283,1816160,-0.82,-3.108,1.695,120.6,-36.8,-68.2,13.6,-8.3,-20.9,0.278908658,0.0247810297,0.384502701,-0.87960448
673,1686077,1816160,-0.363,-2.643,1.158,142.1,-32.1,-25.2,13.6,-8.3,-20.9,0.278603473,0.0247810297,0.381603442,-0.880977813
674,1688266,1816160,-0.341,-2.746,1.177,148.1,-26.7,7.8,13.6,-8.3,-20.9,0.278908658,0.0252693258,0.37858211,-0.882168035
675,1690873,1816170,-0.447,-2.402,1.015,142.7,-24,15.6,13.6,-8.3,-20.9,0.279305399,0.025818659,0.375682852,-0.883236183
676,1694264,1816170,-0.479,-2.11,0.878,135.6,-26.3,4.3,13.4,-8.7,-20.8,0.279549547,0.0261238441,0.372905667,-0.884334849
677,1697339,1816170,-0.472,-1.812,0.752,132.9,-30.6,-10.3,13.4,-8.7,-20.8,0.279519028,0.0263069552,0.370159001,-0.885494552
678,1699574,1816170,-0.412,-1.534,0.648,135.9,-37.3,-22,13.4,-8.7,-20.8,0.279305399,0.0262153996,0.36732078,-0.886745811
679,1701804,1816180,-0.412,-1.534,0.648,135.9,-37.3,-22,13.4,-8.7,-20.8,0.279305399,0.0262153996,0.36732078,-0.886745811
680,1703237,1816180,-0.025,-0.879,0.671,147.6,-54.3,-34.7,13.1,-10.5,-19.3,0.278695029,0.0255134739,0.361125523,-0.889522996
681,1706321,1816180,0.096,-0.709,0.827,148.8,-60.7,-37.3,13.1,-10.5,-19.3,0.278359325,0.0249641408,0.357890561,-0.890926847
682,1709265,1816180,0.175,-0.549,1.001,144.7,-63.5,-38.4,13.1,-10.5,-19.3,0.278023621,0.0242927335,0.354686117,-0.892330699
683,1710736,1816190,0.197,-0.278,1.335,136.4,-62.2,-38.6,13.1,-10.5,-19.3,0.277687918,0.0236213263,0.351695303,-0.893642994
684,1713814,1816190,0.123,-0.194,1.352,126.6,-57.8,-38.3,12.9,-10.3,-18.6,0.277291177,0.0229499191,0.3488876,-0.894863735
685,1716783,1816190,0.097,-0.146,1.595,116.8,-50.7,-37.9,12.9,-10.3,-18.6,0.276894436,0.022400586,0.346324046,-0.896023438
686,1718362,1816190,0.109,-0.012,1.864,107.5,-41.8,-37.8,12.9,-10.3,-18.6,0.27640614,0.0219428083,0.34397412,-0.897091586
687,1720956,1816200,-0.041,-0.162,1.638,100.4,-35,-36.9,12.9,-10.3,-18.6,0.275856807,0.0215765862,0.341807306,-0.898068178
688,1723202,1816200,-0.046,-0.244,1.572,95.6,-32.9,-34.5,12.8,-11.1,-17.8,0.275429548,0.0212408826,0.339762566,-0.899014252
689,1726628,1816200,-0.048,-0.331,1.471,92.3,-35.3,-30.3,12.8,-11.1,-17.8,0.275063326,0.0208746605,0.337748344,-0.89986877
690,1728883,1816200,-0.057,-0.543,1.222,87.2,-37.8,-26.2,12.8,-11.1,-17.8,0.274758141,0.0204779199,0.335825678,-0.90069277
691,1731084,1816210,-0.051,-0.654,1.109,80,-38.2,-23.6,12.8,-11.1,-17.8,0.274544511,0.0200201422,0.334025086,-0.901455733
692,1733237,1816210,-0.037,-0.733,1.003,71.5,-36.6,-22.6,12.5,-11.2,-16.7,0.274330882,0.0195928831,0.332407605,-0.90212714
693,1736328,1816210,-0.019,-0.788,0.909,63.5,-33.8,-22.4,12.5,-11.2,-16.7,0.274117252,0.0191351054,0.330973235,-0.90273751
694,1739322,1816210,-0.011,-0.75,0.764,56.5,-30.8,-22.4,12.5,-11.2,-16.7,0.273873104,0.0186773278,0.329691458,-0.903286843
695,1740866,1816220,-0.018,-0.659,0.725,50.5,-28,-21.9,12.5,-11.2,-16.7,0.273628956,0.0182805872,0.328531755,-0.90377514
696,1743548,1816220,-0.036,-0.537,0.709,44.6,-25.3,-21.4,12.5,-11.4,-16.1,0.273354289,0.0179143651,0.327494125,-0.904232917
697,1745740,1816220,-0.07,-0.406,0.694,38.9,-22.9,-20.9,12.5,-11.4,-16.1,0.273110141,0.0175481429,0.326609088,-0.904660176
698,1749261,1816220,-0.15,-0.22,0.711,34,-21,-20.5,12.5,-11.4,-16.1,0.272835475,0.0171819208,0.325815607,-0.905026399
699,1751395,1816230,-0.173,-0.2,0.724,31.1,-20.2,-20,12.5,-11.4,-16.1,0.272560808,0.0168156987,0.325083163,-0.905362102
700,1753609,1816230,-0.182,-0.219,0.744,30.6,-20.5,-19.3,12.7,-11.7,-21.1,0.27231666,0.0164494766,0.324350719,-0.905697806
701,1755791,1816230,-0.182,-0.286,0.767,32.3,-21.9,-18.6,12.7,-11.7,-21.1,0.27210303,0.0160832545,0.323587756,-0.906064028
702,1758292,1816230,-0.141,-0.479,0.821,35,-23.8,-17.8,12.7,-11.7,-21.1,0.271889401,0.0156865139,0.322733238,-0.90643025
703,1761844,1816240,-0.115,-0.59,0.848,37.1,-25.5,-16.9,12.7,-11.7,-21.1,0.271736808,0.0152897732,0.321878719,-0.906796472
704,1763307,1816240,-0.089,-0.673,0.852,37.4,-26.5,-16.4,12.8,-12,-18,0.271584216,0.0148625141,0.320993683,-0.907162694
705,1766323,1816240,-0.07,-0.752,0.762,35.5,-26.6,-16.5,12.8,-12,-18,0.271431623,0.014435255,0.320139164,-0.907528916
706,1769320,1816240,-0.074,-0.725,0.738,31.4,-25.8,-17.2,12.8,-12,-18,0.271248512,0.0140079958,0.319376202,-0.907834101
707,1770767,1816250,-0.097,-0.669,0.711,25.7,-24.6,-18.4,12.8,-12,-18,0.271034883,0.0135196997,0.318735313,-0.908139286
708,1773154,1816250,-0.127,-0.562,0.7,18.7,-23.1,-19.7,12.6,-11.8,-18.3,0.270821253,0.0130314035,0.318216498,-0.908383435
709,1775793,1816250,-0.139,-0.523,0.681,10.8,-21.7,-20.5,12.6,-11.8,-18.3,0.270546587,0.0125431074,0.317880795,-0.908597064
710,1778086,1816250,-0.147,-0.519,0.65,3.2,-20.3,-20.6,12.6,-11.8,-18.3,0.27027192,0.0119937742,0.317697684,-0.908749657
711,1782404,1816260,-0.135,-0.531,0.638,-2.9,-19.5,-20.3,12.6,-11.8,-18.3,0.269997253,0.0114444411,0.317636647,-0.908841212
712,1784073,1816260,-0.116,-0.559,0.645,-6.9,-19.1,-20,12.7,-11.9,-19.1,0.269753105,0.0108951079,0.317667165,-0.908932768
713,1785680,1816260,-0.037,-0.623,0.678,-8.9,-19.4,-20,12.7,-11.9,-19.1,0.269478439,0.0103152562,0.317758721,-0.908993805
714,1788132,1816260,0.009,-0.644,0.697,-9.8,-19.9,-20.3,12.7,-11.9,-19.1,0.269234291,0.00973540452,0.317819758,-0.909054842
715,1791512,1816270,0.057,-0.653,0.711,-10.8,-20.5,-21,12.7,-11.9,-19.1,0.268959624,0.00909451582,0.317941832,-0.90908536
716,1793326,1816270,0.089,-0.634,0.773,-13.1,-20.5,-21.9,12.4,-12,-19.9,0.268654439,0.00848414563,0.318063906,-0.909146397
717,1795722,1816270,0.09,-0.602,0.816,-17.1,-19.7,-22.8,12.4,-12,-19.9,0.268349254,0.00781273843,0.318308054,-0.909146397
718,1799588,1816270,0.083,-0.579,0.855,-22.1,-18,-23.7,12.4,-12,-19.9,0.26801355,0.00717184973,0.318643757,-0.909146397
719,1801151,1816280,0.048,-0.542,0.887,-27,-15.8,-24.7,12.4,-12,-19.9,0.267647328,0.00653096103,0.319101535,-0.909115879
720,1804116,1816280,-0.038,-0.505,0.951,-31.5,-13.6,-25.9,12.6,-11.8,-19.2,0.267220069,0.00589007233,0.319650868,-0.909024323
721,1805616,1816280,-0.073,-0.484,0.984,-35.5,-11.7,-27.2,12.6,-11.8,-19.2,0.266762291,0.00524918363,0.320291757,-0.908932768
722,1808664,1816280,-0.109,-0.476,0.985,-39.4,-10,-28.5,12.6,-11.8,-19.2,0.266273995,0.00463881344,0.320993683,-0.908841212
723,1811715,1816290,-0.125,-0.479,0.989,-43.2,-8.4,-29.5,12.6,-11.8,-19.2,0.265755181,0.00399792474,0.321817682,-0.908719138
724,1813259,1816290,-0.141,-0.526,0.947,-46.7,-7,-30.3,12.3,-11.9,-19.4,0.265205847,0.00338755455,0.322702719,-0.908566546
725,1815855,1816290,-0.13,-0.558,0.938,-49.3,-6.1,-31,12.3,-11.9,-19.4,0.264625996,0.00274666585,0.323648793,-0.908383435
726,1819173,1816290,-0.111,-0.606,0.93,-50.8,-5.6,-31.9,12.3,-11.9,-19.4,0.264046144,0.00213629566,0.324625385,-0.908200323
727,1820718,1816300,-0.092,-0.653,0.914,-51,-5.4,-32.9,12.3,-11.9,-19.4,0.263435774,0.00149540696,0.325601978,-0.908047731
728,1823236,1816300,-0.058,-0.752,0.867,-49.6,-5.2,-33.5,12.9,-10.7,-19.6,0.262794885,0.000854518265,0.326548051,-0.90786462
729,1825872,1816300,-0.023,-0.792,0.87,-46.9,-5.1,-33.9,12.9,-10.7,-19.6,0.262184515,0.000244148076,0.327463607,-0.907742546
730,1829787,1816300,0.012,-0.809,0.869,-43.1,-5.2,-34,12.9,-10.7,-19.6,0.261543626,-0.000305185095,0.328287606,-0.907620472
731,1832020,1816310,0.059,-0.802,0.833,-39,-5.4,-34.2,12.9,-10.7,-19.6,0.260902738,-0.000885036775,0.329020051,-0.907528916
732,1834259,1816310,0.075,-0.771,0.816,-35.3,-5.4,-34.6,12.4,-11.1,-19.7,0.26023133,-0.00146488845,0.329691458,-0.907467879
733,1835803,1816310,0.076,-0.728,0.793,-32.3,-5.3,-34.9,12.4,-11.1,-19.7,0.259590442,-0.00198370312,0.330301828,-0.907437361
734,1838112,1816310,0.084,-0.685,0.777,-29.8,-5.1,-35.1,12.4,-11.1,-19.7,0.258919034,-0.00250251778,0.33088168,-0.907437361
735,1840884,1816320,0.086,-0.579,0.765,-27.1,-5.1,-35.1,12.4,-11.1,-19.7,0.258278146,-0.00302133244,0.331369976,-0.907437361
736,1843128,1816320,0.087,-0.536,0.745,-23.7,-5.4,-35,12.6,-10.5,-19.9,0.257606738,-0.00350962859,0.331797235,-0.907467879
737,1846587,1816320,0.091,-0.5,0.733,-19.3,-6.1,-35,12.6,-10.5,-19.9,0.25696585,-0.00399792474,0.332163457,-0.907498398
738,1848202,1816320,0.092,-0.469,0.737,-14.1,-7.2,-35.3,12.6,-10.5,-19.9,0.256324961,-0.00448622089,0.332377087,-0.907620472
739,1850695,1816330,0.104,-0.454,0.733,-8.3,-8.6,-35.5,12.6,-10.5,-19.9,0.255684072,-0.00497451704,0.332499161,-0.907742546
740,1853076,1816330,0.119,-0.454,0.728,-2,-10.3,-35.6,12.1,-10.4,-19.4,0.255043184,-0.00543229469,0.332499161,-0.907925657
741,1856997,1816330,0.147,-0.466,0.755,4.5,-12.2,-35.5,12.1,-10.4,-19.4,0.254432814,-0.00592059084,0.33231605,-0.908169805
742,1859147,1816330,0.187,-0.483,0.762,11.6,-14.4,-35.1,12.1,-10.4,-19.4,0.253852962,-0.00637836848,0.332010865,-0.908444472
743,1861438,1816340,0.25,-0.524,0.788,18.7,-16.8,-34.4,12.1,-10.4,-19.4,0.25327311,-0.00686666463,0.331522568,-0.908749657
744,1863784,1816340,0.289,-0.544,0.814,25.6,-19.1,-33.4,13.8,-10.3,-19.6,0.252754295,-0.00735496078,0.330912198,-0.909115879
745,1865980,1816340,0.333,-0.553,0.825,31.7,-21,-32.4,13.8,-10.3,-19.6,0.252265999,-0.00781273843,0.330149236,-0.909543138
746,1868224,1816340,0.397,-0.547,0.85,37,-22.3,-31.1,13.8,-10.3,-19.6,0.251808222,-0.00830103458,0.329294717,-0.909970397
747,1871328,1816350,0.425,-0.531,0.857,41.3,-23.3,-29.6,13.8,-10.3,-19.6,0.251411481,-0.00872829371,0.328348643,-0.910428175
748,1874313,1816350,0.461,-0.517,0.876,44.9,-23.9,-27.7,13.8,-10.9,-19.5,0.251045259,-0.00915555284,0.327311014,-0.910885952
749,1875772,1816350,0.481,-0.489,0.879,48,-24.3,-25.7,13.8,-10.9,-19.5,0.250709555,-0.00958281198,0.326212348,-0.911374248
750,1878927,1816350,0.525,-0.459,0.854,51.1,-24.5,-23.7,13.8,-10.9,-19.5,0.250434889,-0.00994903409,0.325052644,-0.911862545
751,1880998,1816360,0.541,-0.463,0.846,55.2,-24.7,-21.7,13.8,-10.9,-19.5,0.250190741,-0.0102847377,0.323831904,-0.912350841
752,1884085,1816360,0.552,-0.483,0.815,60.7,-25.2,-20,13.8,-10.8,-19.3,0.249977111,-0.0106204413,0.32248909,-0.912900174
753,1885715,1816360,0.576,-0.507,0.791,68.3,-26.2,-18.6,13.8,-10.8,-19.3,0.249794,-0.0108951079,0.320963164,-0.913480026
754,1888505,1816360,0.658,-0.553,0.765,77.6,-28,-17.5,13.8,-10.8,-19.3,0.249671926,-0.011139256,0.319254128,-0.914090396
755,1892470,1816370,0.725,-0.578,0.732,87.3,-30.6,-16.3,13.8,-10.8,-19.3,0.24958037,-0.011383404,0.317331462,-0.914792322
756,1894758,1816370,0.788,-0.595,0.695,95.6,-33.3,-14.6,13.1,-11.1,-19.7,0.249519333,-0.0116275521,0.315256203,-0.915524766
757,1896218,1816370,0.898,-0.637,0.681,101.3,-35.5,-12,13.1,-11.1,-19.7,0.249549852,-0.0118717002,0.313028352,-0.91625721
758,1899292,1816370,0.941,-0.673,0.66,104.8,-36.9,-8.3,13.1,-11.1,-19.7,0.249671926,-0.0121158483,0.310739463,-0.917020173
759,1901525,1816380,0.989,-0.718,0.679,106.9,-37,-3.2,13.1,-11.1,-19.7,0.249885556,-0.0122989593,0.308389538,-0.917752617
760,1903120,1816380,1.04,-0.766,0.728,108.5,-36.3,3,11,-11.6,-19,0.250221259,-0.0123905148,0.306009095,-0.918454543
761,1906086,1816380,1.126,-0.87,0.793,110.1,-34.8,10.5,11,-11.6,-19,0.250709555,-0.0124210334,0.303628651,-0.91912595
762,1909210,1816380,1.165,-0.906,0.811,111.6,-33.1,18.3,11,-11.6,-19,0.251319926,-0.0123599963,0.301217689,-0.91973632
763,1910950,1816390,1.196,-0.942,0.822,111.9,-31.4,25.8,11,-11.6,-19,0.252082888,-0.0122074038,0.298776208,-0.920316172
764,1913112,1816390,1.216,-0.966,0.806,109.7,-29.4,32.6,13.9,-11.8,-18.6,0.252937407,-0.0119937742,0.296426283,-0.920834986
765,1917387,1816390,1.208,-0.939,0.783,103.6,-26.6,39,13.9,-11.8,-18.6,0.253913999,-0.0116885891,0.29422895,-0.921292764
766,1918872,1816390,1.18,-0.914,0.76,93.5,-22.6,45.7,13.9,-11.8,-18.6,0.255012665,-0.0113528855,0.292214728,-0.921628468
767,1921826,1816400,1.133,-0.902,0.706,81,-17.7,52.9,13.9,-11.8,-18.6,0.256202887,-0.0108951079,0.290505692,-0.921842097
768,1923394,1816400,1.15,-0.816,0.682,67.4,-12.4,60,13.7,-12.1,-18.4,0.257515183,-0.0104068117,0.28910184,-0.921933653
769,1925824,1816400,1.114,-0.795,0.66,54.3,-7.6,66,13.7,-12.1,-18.4,0.258919034,-0.00982696005,0.287972655,-0.921903134
770,1928111,1816400,1.087,-0.779,0.629,42.7,-3.8,71.4,13.7,-12.1,-18.4,0.260383923,-0.00921658986,0.287118137,-0.921750542
771,1930951,1816410,1.047,-0.766,0.622,32.6,-1,76.8,13.7,-12.1,-18.4,0.261940367,-0.00857570116,0.28644673,-0.921536912
772,1933085,1816410,0.995,-0.765,0.62,24.1,1.2,82.6,13,-12.7,-18,0.263588366,-0.00790429395,0.285988952,-0.921201209
773,1936817,1816410,0.979,-0.772,0.613,16.7,3.4,88.6,13,-12.7,-18,0.26535844,-0.00717184973,0.285683767,-0.920804468
774,1938367,1816410,0.955,-0.795,0.605,10.4,5.6,94.3,13,-12.7,-18,0.267220069,-0.00640888699,0.285531175,-0.920316172
775,1940652,1816420,0.923,-0.818,0.599,5.2,7.8,99.9,13,-12.7,-18,0.269173254,-0.00558488723,0.285470138,-0.919766839
776,1943826,1816420,0.874,-0.884,0.592,0.9,9.9,105.3,12.9,-12.1,-18.1,0.271217994,-0.00473036897,0.285531175,-0.919156468
777,1945717,1816420,0.85,-0.911,0.585,-2.5,11.8,110.5,12.9,-12.1,-18.1,0.273354289,-0.00381481368,0.28562273,-0.918485061
778,1948882,1816420,0.838,-0.93,0.589,-5.5,13.4,115.3,12.9,-12.1,-18.1,0.275582141,-0.00286873989,0.285866878,-0.917752617
779,1951066,1816430,0.822,-0.954,0.59,-7.8,14.7,119.8,12.9,-12.1,-18.1,0.277901547,-0.00186162908,0.286111026,-0.916989654
780,1954177,1816430,0.785,-0.988,0.579,-9.3,15.7,124,10.9,-13,-18.3,0.280281991,-0.000854518265,0.286416211,-0.916165654
781,1955762,1816430,0.765,-0.996,0.572,-10.1,16.6,127.9,10.9,-13,-18.3,0.282723472,0.000213629566,0.286721397,-0.915311136
782,1959524,1816430,0.749,-0.995,0.561,-10.2,17.3,131.6,10.9,-13,-18.3,0.285256508,0.00131229591,0.287026582,-0.914426099
783,1961616,1816440,0.745,-1.003,0.561,-9.6,17.7,135,10.9,-13,-18.3,0.287850581,0.00244148076,0.287331767,-0.913541063
784,1964008,1816440,0.722,-0.999,0.562,-8.1,17.6,138.1,9.1,-13,-17.8,0.290475173,0.00360118412,0.287575915,-0.912625507
785,1966141,1816440,0.714,-0.99,0.57,-5.9,17.2,140.9,9.1,-13,-17.8,0.293191321,0.00479140599,0.287789544,-0.911679434
786,1969892,1816440,0.702,-0.978,0.585,-2.9,16.5,143.6,9.1,-13,-17.8,0.295937986,0.00601214637,0.287942137,-0.91073336
787,1970662,1816450,0.703,-0.947,0.617,0.4,15.9,146,9.1,-13,-17.8,0.298715171,0.00726340526,0.288033692,-0.909787286
788,1973672,1816450,0.703,-0.927,0.628,3.7,15.4,148.4,7.9,-13.5,-17.6,0.301583911,0.00851466414,0.288033692,-0.908841212
789,1976722,1816450,0.696,-0.911,0.632,6.6,15.3,150.5,7.9,-13.5,-17.6,0.304452651,0.00979644154,0.287972655,-0.90786462
790,1978188,1816450,0.688,-0.888,0.64,9,15.4,152.5,7.9,-13.5,-17.6,0.307382427,0.011139256,0.287850581,-0.906918546
791,1981182,1816460,0.665,-0.836,0.641,10.7,15.8,154.1,7.9,-13.5,-17.6,0.310342723,0.0124820704,0.287697989,-0.905941954
792,1984246,1816460,0.661,-0.812,0.637,11.6,16.4,155.4,6.6,-13.6,-17.8,0.313303018,0.0138554033,0.287545396,-0.904934843
793,1985640,1816460,0.654,-0.792,0.629,12,17.1,156.3,6.6,-13.6,-17.8,0.316263314,0.0152592547,0.287362285,-0.903927732
794,1989192,1816460,0.638,-0.761,0.61,12,17.8,156.8,6.6,-13.6,-17.8,0.319254128,0.0166936247,0.287209693,-0.902920621
795,1990679,1816470,0.603,-0.728,0.591,12.1,18.5,156.9,6.6,-13.6,-17.8,0.322214423,0.0181279946,0.287026582,-0.901882992
796,1993455,1816470,0.591,-0.72,0.58,12.4,19.3,156.7,5.6,-13.9,-17.8,0.325174718,0.0195318461,0.286873989,-0.900845363
797,1996734,1816470,0.571,-0.708,0.584,13,19.9,156.2,5.6,-13.9,-17.8,0.328104495,0.0209967345,0.286690878,-0.899807733
798,1998224,1816470,0.548,-0.692,0.608,13.6,20.5,155.4,5.6,-13.9,-17.8,0.331034272,0.02252266,0.286477248,-0.898770104
799,2000815,1816480,0.532,-0.68,0.613,13.7,21.2,154.4,5.6,-13.9,-17.8,0.333903012,0.0239875484,0.286294137,-0.897732475
800,2004094,1816480,0.524,-0.672,0.621,12.9,22.1,153.1,9.7,-15.6,-17.9,0.336771752,0.0254829554,0.286111026,-0.896664327
801,2006195,1816480,0.505,-0.671,0.621,10.7,23.3,151.9,9.7,-15.6,-17.9,0.339579455,0.0269478439,0.285988952,-0.895596179
802,2009480,1816480,0.469,-0.67,0.602,7,24.9,150.8,9.7,-15.6,-17.9,0.342356639,0.0284432508,0.285958434,-0.894528031
803,2010738,1816490,0.445,-0.666,0.595,2.1,26.9,149.8,9.7,-15.6,-17.9,0.345133824,0.0299081393,0.286019471,-0.893398846
804,2013702,1816490,0.421,-0.658,0.588,-3.5,28.9,148.6,6.3,-13,-17.6,0.347849971,0.0313730277,0.286202582,-0.892208625
805,2015749,1816490,0.401,-0.657,0.569,-9.6,31.1,147.1,6.3,-13,-17.6,0.350505081,0.0328379162,0.286507767,-0.891018403
806,2018916,1816490,0.338,-0.656,0.547,-15.9,33.1,145.3,6.3,-13,-17.6,0.353129673,0.0342722861,0.286965545,-0.889767144
807,2020712,1816500,0.306,-0.651,0.525,-22.3,34.8,143.2,6.3,-13,-17.6,0.355723746,0.0356761376,0.287575915,-0.888515885
808,2023745,1816500,0.278,-0.639,0.522,-28.7,36.3,141,7,-13.3,-17.7,0.358256783,0.037018952,0.288308359,-0.887203589
809,2026819,1816500,0.251,-0.618,0.538,-35,37.8,138.6,7,-13.3,-17.7,0.360728782,0.0383617664,0.289162877,-0.885860775
810,2028358,1816500,0.16,-0.604,0.525,-40.9,39.3,136.4,7,-13.3,-17.7,0.363139744,0.0396740623,0.29013947,-0.884487442
811,2031374,1816510,0.104,-0.595,0.514,-46.4,40.9,134.7,7,-13.3,-17.7,0.365520188,0.0409253212,0.291238136,-0.88308359
812,2034419,1816510,0.065,-0.575,0.515,-51.4,42.1,133.2,7.6,-13.3,-17.8,0.367870113,0.0421765801,0.292458876,-0.88164922
813,2035852,1816510,-0.033,-0.553,0.522,-55.5,43.2,131.8,7.6,-13.3,-17.8,0.37018952,0.043427839,0.293740654,-0.880184332
814,2039740,1816510,-0.08,-0.548,0.531,-58.7,44.1,129.9,7.6,-13.3,-17.8,0.37244789,0.0446180609,0.295113987,-0.878719443
815,2041841,1816520,-0.12,-0.543,0.528,-60.8,44.6,127.3,7.6,-13.3,-17.8,0.374645222,0.0458082827,0.296517838,-0.877254555
816,2043381,1816520,-0.16,-0.554,0.537,-61.8,44.6,124.2,8.2,-13,-18,0.376812037,0.0469069491,0.297952208,-0.875789666
817,2047418,1816520,-0.212,-0.568,0.546,-61.8,43.8,120.7,8.2,-13,-18,0.378887295,0.0480666524,0.299356059,-0.874355296
818,2049158,1816520,-0.236,-0.584,0.551,-60.9,42.3,116.9,8.2,-13,-18,0.380901517,0.0491042817,0.300759911,-0.872920927
819,2051308,1816530,-0.236,-0.584,0.551,-60.9,42.3,116.9,8.2,-13,-18,0.380901517,0.0491042817,0.300759911,-0.872920927
820,2053416,1816530,-0.284,-0.622,0.572,-57.4,38,108.5,6.4,-15,-18.4,0.38471633,0.0511185034,0.303384503,-0.870235298
821,2055871,1816530,-0.312,-0.656,0.588,-55.3,35.7,104.1,6.4,-15,-18.4,0.386516923,0.0520035401,0.304605243,-0.86895352
822,2059357,1816530,-0.324,-0.68,0.6,-53.7,33.7,99.9,6.4,-15,-18.4,0.388256478,0.0528580584,0.305795465,-0.867702261
823,2060962,1816540,-0.332,-0.683,0.612,-52.6,32,96.1,6.4,-15,-18.4,0.389904477,0.0536515397,0.306955168,-0.866481521
824,2063384,1816540,-0.332,-0.687,0.636,-51.8,30.8,92.5,6.6,-13.6,-19.1,0.391521958,0.0544145024,0.308084353,-0.865321818
825,2066152,1816540,-0.336,-0.671,0.69,-51,30.3,89,6.6,-13.6,-19.1,0.393047884,0.0551469466,0.309213538,-0.864192633
826,2068214,1816540,-0.347,-0.655,0.706,-49.8,30.2,85.6,6.6,-13.6,-19.1,0.394512772,0.0558793909,0.310312204,-0.863063448
827,2072138,1816550,-0.367,-0.631,0.711,-48.5,30.4,82.2,6.6,-13.6,-19.1,0.395916623,0.0565813166,0.311380352,-0.8619953
828,2074375,1816550,-0.398,-0.587,0.723,-47.1,31,79,6.7,-13.5,-18.9,0.397259438,0.0572832423,0.312356944,-0.860988189
829,2075909,1816550,-0.413,-0.56,0.743,-45.9,31.7,75.8,6.7,-13.5,-18.9,0.398541215,0.0580156865,0.313394574,-0.85995056
830,2078233,1816550,-0.424,-0.524,0.763,-44.7,32.6,72.5,6.7,-13.5,-18.9,0.399731437,0.0587176122,0.314432203,-0.858973968
831,2080771,1816560,-0.436,-0.492,0.782,-43.4,33.3,68.5,6.7,-13.5,-18.9,0.400830103,0.0594500565,0.315439314,-0.858058412
832,2083144,1816560,-0.462,-0.444,0.81,-41.5,34.1,64.2,6.2,-13.5,-19.3,0.401867733,0.0601519822,0.316446425,-0.857142857
833,2087294,1816560,-0.478,-0.432,0.819,-38.9,34.7,59.5,6.2,-13.5,-19.3,0.402783288,0.0608844264,0.317392499,-0.856318857
834,2089334,1816560,-0.502,-0.432,0.815,-36,35.2,54.9,6.2,-13.5,-19.3,0.403607288,0.0615558336,0.318308054,-0.855525376
835,2091475,1816570,-0.514,-0.435,0.823,-33.2,35.6,50.4,6.2,-13.5,-19.3,0.404339732,0.0622882778,0.319162572,-0.854792932
836,2093923,1816570,-0.549,-0.431,0.832,-31,36,46,6.1,-14,-19.6,0.405011139,0.0630512406,0.32001709,-0.854121525
837,2096513,1816570,-0.561,-0.43,0.832,-30,36.6,41.8,6.1,-14,-19.6,0.405560472,0.0637531663,0.32084109,-0.853511155
838,2098579,1816570,-0.585,-0.422,0.841,-29.9,37.5,37.6,6.1,-14,-19.6,0.406048769,0.064455092,0.32166509,-0.852900784
839,2100881,1816580,-0.605,-0.425,0.838,-30.8,38.6,33.5,6.1,-14,-19.6,0.406445509,0.0651264992,0.322550127,-0.852351451
840,2103192,1816580,-0.656,-0.397,0.831,-32.6,39.9,29.3,6,-12.6,-18.8,0.406720176,0.0657979064,0.323465682,-0.851802118
841,2106587,1816580,-0.684,-0.388,0.832,-34.9,41.2,25,6,-12.6,-18.8,0.406964324,0.0664387951,0.324442274,-0.851252785
842,2108572,1816580,-0.711,-0.36,0.821,-37.4,42.6,20.8,6,-12.6,-18.8,0.407116916,0.0670491653,0.325479904,-0.850764489
843,2110729,1816590,-0.766,-0.327,0.81,-39.5,43.9,16.4,6,-12.6,-18.8,0.407177953,0.067629017,0.32657857,-0.850245674
844,2114254,1816590,-0.786,-0.311,0.807,-40.8,44.8,12,6.1,-14.6,-19.4,0.407116916,0.0681783502,0.327707755,-0.849787896
845,2115908,1816590,-0.81,-0.295,0.8,-41.4,45.4,7.7,6.1,-14.6,-19.4,0.406994842,0.0686971648,0.328867458,-0.849360637
846,2118767,1816590,-0.829,-0.275,0.792,-41.5,45.4,3.5,6.1,-14.6,-19.4,0.406811731,0.0692159795,0.33005768,-0.848963897
847,2121073,1816600,-0.872,-0.242,0.77,-41.6,44.9,-0.5,6.1,-14.6,-19.4,0.406537065,0.0696737571,0.331217383,-0.848597674
848,2123311,1816600,-0.888,-0.222,0.762,-42,44.1,-4.8,6,-15.2,-19.4,0.406201361,0.0700704978,0.332407605,-0.848261971
849,2125789,1816600,-0.912,-0.202,0.747,-43.2,43.1,-9.4,6,-15.2,-19.4,0.405774102,0.0704062014,0.333597827,-0.847987304
850,2128333,1816600,-0.931,-0.186,0.744,-45.2,42.2,-14.3,6,-15.2,-19.4,0.405255287,0.0706808679,0.334818567,-0.847712638
851,2132238,1816610,-0.975,-0.169,0.718,-47.8,41.6,-19.4,6,-15.2,-19.4,0.404675436,0.0708944975,0.336100345,-0.84746849
852,2134586,1816610,-0.995,-0.165,0.718,-50.6,41.2,-24.9,6.6,-14.7,-19.7,0.40397351,0.0710165716,0.337443159,-0.84725486
853,2136640,1816610,-1.018,-0.164,0.715,-53.2,41.1,-30.5,6.6,-14.7,-19.7,0.403210547,0.0711081271,0.338847011,-0.847071749
854,2138241,1816610,-1.05,-0.179,0.708,-55.3,41,-35.7,6.6,-14.7,-19.7,0.40232551,0.0711081271,0.340281381,-0.846888638
855,2141634,1816620,-1.074,-0.183,0.705,-57.1,40.7,-40.5,6.6,-14.7,-19.7,0.401348918,0.0710470901,0.341746269,-0.846766564
856,2143174,1816620,-1.098,-0.198,0.706,-59.2,40.1,-45,6.8,-13.9,-20,0.400311289,0.0708944975,0.343272195,-0.84664449
857,2146997,1816620,-1.106,-0.21,0.714,-61.9,39.5,-49.1,6.8,-13.9,-20,0.399212622,0.0707724235,0.344828639,-0.846552934
858,2149337,1816620,-1.127,-0.233,0.714,-65.4,39.3,-52.6,6.8,-13.9,-20,0.398052919,0.0705282754,0.346476638,-0.846461379
859,2151566,1816630,-1.147,-0.244,0.715,-69.5,39.5,-55.8,6.8,-13.9,-20,0.39680166,0.0702230903,0.348185675,-0.846369823
860,2153198,1816630,-1.151,-0.264,0.711,-74.3,39.8,-58.6,7.1,-11.3,-18.5,0.395550401,0.0698568682,0.349986267,-0.846247749
861,2155929,1816630,-1.155,-0.283,0.723,-79.4,40.2,-61.2,7.1,-11.3,-18.5,0.394238105,0.0694296091,0.351908933,-0.846095157
862,2159353,1816630,-1.168,-0.33,0.731,-84.6,40.6,-63.6,7.1,-11.3,-18.5,0.392864772,0.0690023499,0.353892636,-0.845942564
863,2162427,1816640,-1.172,-0.354,0.724,-89.5,41,-65.9,7.1,-11.3,-18.5,0.391460921,0.0684530168,0.355998413,-0.845728935
864,2164607,1816640,-1.176,-0.381,0.732,-93.6,41.7,-68.2,8.2,-12.1,-21.7,0.390026551,0.0679036836,0.358195746,-0.845515305
865,2166552,1816640,-1.181,-0.408,0.744,-97.2,42.2,-70.6,8.2,-12.1,-21.7,0.388531144,0.0673238319,0.360454115,-0.845301675
866,2168156,1816640,-1.173,-0.456,0.759,-100.4,42.7,-73,8.2,-12.1,-21.7,0.387005219,0.0666829432,0.362773522,-0.845057527
867,2171388,1816650,-1.173,-0.463,0.779,-103.8,43.1,-75.2,8.2,-12.1,-21.7,0.385418256,0.066011536,0.365153966,-0.844813379
868,2173109,1816650,-1.178,-0.475,0.787,-107.8,43.7,-77.2,8.6,-11.2,-22.1,0.383800775,0.0652790918,0.367625965,-0.844538713
869,2175560,1816650,-1.185,-0.475,0.799,-112,44.4,-78.8,8.6,-11.2,-22.1,0.382152776,0.0645466475,0.370159001,-0.844233528
870,2179091,1816650,-1.201,-0.471,0.811,-116.1,45.4,-80,8.6,-11.2,-22.1,0.380474258,0.0637531663,0.372814112,-0.843897824
871,2181299,1816660,-1.209,-0.467,0.811,-119.3,46.7,-81.1,8.6,-11.2,-22.1,0.378765221,0.062959685,0.375469222,-0.843531602
872,2184267,1816660,-1.225,-0.462,0.819,-120.9,47.9,-82,9.4,-10.1,-22.5,0.377025666,0.0621662038,0.378246406,-0.843134861
873,2185812,1816660,-1.233,-0.45,0.831,-120.6,48.7,-82.7,9.4,-10.1,-22.5,0.375255593,0.0614032411,0.380962554,-0.842768639
874,2188388,1816660,-1.228,-0.45,0.839,-118.7,48.8,-83.3,9.4,-10.1,-22.5,0.373455,0.0606402783,0.383648183,-0.842371899
875,2191540,1816670,-1.224,-0.45,0.858,-115.6,48.3,-83.9,9.4,-10.1,-22.5,0.371684927,0.0598467971,0.386272774,-0.842036195
876,2193744,1816670,-1.22,-0.447,0.866,-112,47.4,-84.3,9.6,-9.3,-22.6,0.369853816,0.0591143529,0.388836329,-0.841700491
877,2196043,1816670,-1.212,-0.451,0.889,-108,46.3,-84.5,9.6,-9.3,-22.6,0.368053224,0.0583819086,0.391308329,-0.841395306
878,2198286,1816670,-1.208,-0.451,0.901,-103.6,45.4,-84.6,9.6,-9.3,-22.6,0.366252632,0.0576494644,0.393688772,-0.84112064
879,2200904,1816680,-1.204,-0.455,0.912,-98.9,44.7,-84.3,9.6,-9.3,-22.6,0.36445204,0.0569780572,0.395947142,-0.84090701
880,2204026,1816680,-1.192,-0.459,0.928,-93.7,44.2,-83.6,9.7,-9.7,-21.2,0.362651448,0.05630665,0.398113956,-0.840693381
881,2206199,1816680,-1.185,-0.467,0.939,-88.2,43.9,-82.5,9.7,-9.7,-21.2,0.360850856,0.0556962798,0.400189215,-0.840510269
882,2208566,1816680,-1.177,-0.479,0.943,-82.6,43.6,-81.4,9.7,-9.7,-21.2,0.359080782,0.0551469466,0.402142399,-0.840388195
883,2210791,1816690,-1.177,-0.483,0.955,-76.7,43.3,-80.1,9.7,-9.7,-21.2,0.357310709,0.054628132,0.404004028,-0.84029664
884,2213111,1816690,-1.161,-0.511,0.95,-70.3,43,-78.7,10.2,-9.4,-20.9,0.355571154,0.0541703543,0.405713065,-0.840235603
885,2215658,1816690,-1.158,-0.523,0.954,-63.2,42.8,-77.1,10.2,-9.4,-20.9,0.353862117,0.0538041322,0.407300027,-0.840205084
886,2219711,1816690,-1.15,-0.542,0.954,-55.4,42.6,-75.4,10.2,-9.4,-20.9,0.352153081,0.0534684286,0.408734397,-0.840235603
887,2221296,1816700,-1.138,-0.562,0.958,-47,42.3,-73.6,10.2,-9.4,-20.9,0.350474563,0.0532242805,0.409985656,-0.840357677
888,2223513,1816700,-1.115,-0.602,0.965,-38.2,42,-71.7,10.7,-9.1,-20.1,0.348826563,0.053071688,0.411114841,-0.840510269
889,2225736,1816700,-1.103,-0.618,0.976,-29.3,41.6,-69.7,10.7,-9.1,-20.1,0.347209082,0.0529801325,0.412030396,-0.840723899
890,2228327,1816700,-1.092,-0.638,0.976,-20.3,41.3,-67.5,10.7,-9.1,-20.1,0.34562212,0.0529801325,0.412793359,-0.840998566
891,2231319,1816710,-1.076,-0.65,0.988,-11.7,41.1,-65.1,10.7,-9.1,-20.1,0.344065676,0.053071688,0.413403729,-0.841334269
892,2233184,1816710,-1.056,-0.662,0.991,-3.7,41.2,-62.3,10.9,-8.3,-19.4,0.342570269,0.0532242805,0.413861507,-0.84173101
893,2236139,1816710,-1.044,-0.659,0.979,3.3,41.3,-59.4,10.9,-8.3,-19.4,0.34110538,0.0534684286,0.414166692,-0.842158269
894,2238617,1816710,-1.04,-0.647,0.99,9.5,41.3,-56.3,10.9,-8.3,-19.4,0.33967101,0.0538041322,0.414380322,-0.842616047
895,2240772,1816720,-1.032,-0.624,0.978,14.6,41.7,-53.2,10.9,-8.3,-19.4,0.338297678,0.0542008728,0.414471877,-0.843073824
896,2243223,1816720,-1.024,-0.6,0.974,19.1,42.4,-50.1,11.5,-8.5,-18.6,0.336954863,0.0546586505,0.414502396,-0.84356212
897,2246256,1816720,-1.023,-0.573,0.974,23.1,43.4,-46.8,11.5,-8.5,-18.6,0.335673086,0.0552079836,0.414441359,-0.844080935
898,2248356,1816720,-1.019,-0.545,0.97,26.9,44.3,-43.4,11.5,-8.5,-18.6,0.334452345,0.0558183538,0.414319285,-0.844569231
899,2250757,1816730,-1.006,-0.502,0.977,30.8,44.6,-39.9,11.5,-8.5,-18.6,0.333262123,0.0565202795,0.414136174,-0.845088046
900,2253495,1816730,-1.002,-0.483,0.973,34.5,44.5,-36.6,11.9,-8.4,-23.7,0.332163457,0.0572527238,0.413861507,-0.845606861
901,2255684,1816730,-0.994,-0.471,0.969,38.1,44.2,-33.5,11.9,-8.4,-23.7,0.331095309,0.058046205,0.413525803,-0.846156194
902,2259349,1816730,-0.99,-0.463,0.973,41.2,43.7,-30.7,11.9,-8.4,-23.7,0.33005768,0.0588702048,0.413098544,-0.846675008
903,2261742,1816740,-0.97,-0.44,0.961,43.7,43.1,-28.2,11.9,-8.4,-23.7,0.329111606,0.059724723,0.412640767,-0.847224342
904,2263872,1816740,-0.962,-0.429,0.953,45.2,42.6,-25.9,11.7,-8.3,-20.7,0.328165532,0.0605792413,0.41215247,-0.847773675
905,2266373,1816740,-0.953,-0.417,0.948,45.6,42.3,-23.9,11.7,-8.3,-20.7,0.327280496,0.0614947966,0.411633656,-0.848292489
906,2268642,1816740,-0.949,-0.406,0.937,44.9,42.3,-22.1,11.7,-8.3,-20.7,0.326456496,0.0624103519,0.41114536,-0.848780786
907,2270992,1816750,-0.945,-0.386,0.925,43.4,42.5,-20.5,11.7,-8.3,-20.7,0.325632496,0.0633259072,0.410626545,-0.849269082
908,2274177,1816750,-0.941,-0.37,0.917,41.5,43,-18.8,11.8,-8,-20.4,0.324839015,0.0642414624,0.410229804,-0.849726859
909,2276004,1816750,-0.937,-0.355,0.909,39.3,43.7,-17.2,11.8,-8,-20.4,0.324076052,0.0651875362,0.409833064,-0.8501236
910,2278303,1816750,-0.925,-0.335,0.897,37.1,44.1,-15.5,11.8,-8,-20.4,0.323313089,0.06613361,0.409466842,-0.850520341
911,2282383,1816760,-0.913,-0.328,0.892,34.8,44.3,-13.7,11.8,-8,-20.4,0.322611164,0.0670796838,0.409161657,-0.850856044
912,2284617,1816760,-0.901,-0.32,0.892,32.5,44.3,-11.8,12.2,-8.8,-21.4,0.321970275,0.0680257576,0.40888699,-0.851161229
913,2286872,1816760,-0.893,-0.309,0.888,30,44.2,-10,12.2,-8.8,-21.4,0.321329386,0.0689413129,0.408642842,-0.851435896
914,2289154,1816760,-0.873,-0.309,0.876,27.4,44,-8.1,12.2,-8.8,-21.4,0.320749535,0.0698873867,0.408459731,-0.851680044
915,2290649,1816770,-0.869,-0.305,0.872,24.4,44,-6.3,12.2,-8.8,-21.4,0.320200201,0.0708334605,0.408337657,-0.851863155
916,2293211,1816770,-0.865,-0.305,0.868,21.2,44.2,-4.5,12.6,-8.5,-21.7,0.319681387,0.0717490158,0.408246101,-0.852015748
917,2296743,1816770,-0.857,-0.309,0.867,17.9,44.6,-2.7,12.6,-8.5,-21.7,0.319223609,0.0726950896,0.408246101,-0.852137822
918,2298181,1816770,-0.837,-0.314,0.863,14.5,45,-1.1,12.6,-8.5,-21.7,0.318765831,0.0736106449,0.40827662,-0.852198859
919,2302028,1816780,-0.829,-0.31,0.851,11,45.6,0.6,12.6,-8.5,-21.7,0.318338572,0.0745567186,0.408398694,-0.852198859
920,2304341,1816780,-0.818,-0.322,0.847,7.6,46,2.4,13,-8.5,-20.8,0.31797235,0.0754722739,0.408551286,-0.852198859
921,2306282,1816780,-0.81,-0.326,0.839,4.4,46.4,4.3,13,-8.5,-20.8,0.317636647,0.0764183477,0.408795434,-0.852107303
922,2308583,1816780,-0.79,-0.342,0.827,1.2,46.6,6.2,13,-8.5,-20.8,0.317331462,0.077333903,0.40910062,-0.852015748
923,2310868,1816790,-0.782,-0.347,0.823,-1.6,46.9,8.2,13,-8.5,-20.8,0.317056795,0.0782799768,0.409436323,-0.851863155
924,2314629,1816790,-0.775,-0.355,0.815,-4.2,47.1,10.3,13.5,-8.7,-20.7,0.316843165,0.0791955321,0.409802545,-0.851680044
925,2317234,1816790,-0.763,-0.367,0.799,-6.3,47.3,12.4,13.5,-8.7,-20.7,0.316660054,0.0801721244,0.410229804,-0.851435896
926,2319284,1816790,-0.755,-0.367,0.791,-8,47.4,14.4,13.5,-8.7,-20.7,0.31653798,0.0811181982,0.410687582,-0.851191748
927,2320931,1816800,-0.751,-0.379,0.779,-9.2,47.3,16.2,13.5,-8.7,-20.7,0.316415906,0.0820947905,0.41114536,-0.850917081
928,2323362,1816800,-0.736,-0.387,0.763,-10.1,47.1,18,13.6,-8.5,-20.9,0.316354869,0.0830408643,0.411633656,-0.850611896
929,2326047,1816800,-0.732,-0.391,0.759,-10.6,46.8,19.6,13.6,-8.5,-20.9,0.316324351,0.0840174566,0.412121952,-0.850276193
930,2328327,1816800,-0.716,-0.391,0.754,-10.5,46.6,21,13.6,-8.5,-20.9,0.316293832,0.0849940489,0.41257973,-0.849971007
931,2331110,1816810,-0.716,-0.407,0.747,-9.6,46.3,22.2,13.6,-8.5,-20.9,0.316324351,0.0860011597,0.413068026,-0.849635304
932,2333575,1816810,-0.704,-0.415,0.746,-7.9,45.9,23.2,13.7,-8.4,-20.6,0.316354869,0.0870082705,0.413495285,-0.849330119
933,2335756,1816810,-0.689,-0.451,0.758,-5.4,45.5,24.2,13.7,-8.4,-20.6,0.316385388,0.0879848628,0.413861507,-0.849024934
934,2338651,1816810,-0.685,-0.467,0.758,-1.9,45,25.1,13.7,-8.4,-20.6,0.316446425,0.0890835292,0.414136174,-0.848719749
935,2341600,1816820,-0.67,-0.495,0.757,1.9,44.4,26.1,13.7,-8.4,-20.6,0.31653798,0.090151677,0.414380322,-0.8484756
936,2343440,1816820,-0.65,-0.523,0.769,5.9,43.7,27,14.5,-8.5,-20.6,0.316629536,0.0912503433,0.414502396,-0.848261971
937,2346256,1816820,-0.639,-0.539,0.765,9.9,42.9,27.9,14.5,-8.5,-20.6,0.31675161,0.0923490097,0.414532914,-0.84807886
938,2348344,1816820,-0.631,-0.547,0.764,13.5,42.2,28.7,14.5,-8.5,-20.6,0.316843165,0.093508713,0.414532914,-0.847926267
939,2352220,1816830,-0.631,-0.558,0.757,16.6,41.6,29.4,14.5,-8.5,-20.6,0.316995758,0.0946378979,0.414471877,-0.847773675
940,2354435,1816830,-0.623,-0.563,0.752,19.5,41.1,29.9,12.9,-8.6,-20,0.317117832,0.0957976012,0.414319285,-0.847651601
941,2356538,1816830,-0.619,-0.563,0.741,22.3,40.8,30.3,12.9,-8.6,-20,0.317270425,0.0969878231,0.414136174,-0.847560045
942,2358266,1816830,-0.619,-0.563,0.737,25.4,40.5,30.6,12.9,-8.6,-20,0.317423017,0.0982085635,0.413892026,-0.847499008
943,2361065,1816840,-0.615,-0.555,0.733,28.6,40.1,31,12.9,-8.6,-20,0.31757561,0.0994293039,0.413556322,-0.84746849
944,2364305,1816840,-0.611,-0.535,0.729,32.1,39.6,31.6,14.9,-8.1,-20.3,0.317728202,0.100650044,0.413159581,-0.847437971
945,2366809,1816840,-0.615,-0.543,0.729,35.8,38.9,32.1,14.9,-8.1,-20.3,0.317880795,0.101931822,0.412701804,-0.847437971
946,2369247,1816840,-0.595,-0.532,0.736,39.6,38.2,32.6,14.9,-8.1,-20.3,0.318063906,0.103183081,0.412182989,-0.847499008
947,2370822,1816850,-0.599,-0.516,0.736,43.1,37.5,32.8,14.9,-8.1,-20.3,0.318247017,0.104495376,0.4115421,-0.847560045
948,2373092,1816850,-0.599,-0.532,0.697,46.1,36.7,33.2,14.6,-8.6,-19.9,0.318948943,0.106662191,0.410199286,-0.847682119
949,2375748,1816850,-0.576,-0.536,0.696,48.3,36.1,33.6,14.6,-8.6,-19.9,0.319132054,0.107974487,0.40949736,-0.847804193
950,2379860,1816850,-0.576,-0.536,0.712,49.9,35.6,34.1,14.6,-8.6,-19.9,0.319315165,0.109286782,0.408734397,-0.847926267
951,2382045,1816860,-0.576,-0.54,0.712,51.4,35.2,34.4,14.6,-8.6,-19.9,0.319528794,0.110599078,0.407940916,-0.848048341
952,2384377,1816860,-0.568,-0.548,0.712,53.1,34.5,34.2,15.1,-8.8,-19.5,0.319711905,0.111911374,0.407116916,-0.848200934
953,2386529,1816860,-0.564,-0.544,0.696,54.5,33.6,33.8,15.1,-8.8,-19.5,0.319895016,0.11322367,0.406262398,-0.848384045
954,2388756,1816860,-0.568,-0.544,0.692,55.3,32.6,33.5,15.1,-8.8,-19.5,0.320108646,0.114505448,0.405377361,-0.848536637
955,2390960,1816870,-0.564,-0.533,0.677,55.1,32,33.5,15.1,-8.8,-19.5,0.320291757,0.115787225,0.404492325,-0.848719749
956,2393364,1816870,-0.56,-0.529,0.673,54.1,31.7,33.8,14.9,-9,-19.4,0.320505387,0.117069002,0.403637806,-0.848872341
957,2395556,1816870,-0.564,-0.517,0.661,52.8,31.6,34.3,14.9,-9,-19.4,0.320749535,0.118320261,0.402783288,-0.849024934
958,2398870,1816870,-0.564,-0.509,0.653,51.4,31.5,34.8,14.9,-9,-19.4,0.320963164,0.11957152,0.401959288,-0.849147008
959,2400658,1816880,-0.555,-0.494,0.645,50.2,31.1,35.3,14.9,-9,-19.4,0.321207312,0.120792261,0.401165807,-0.849269082
960,2404155,1816880,-0.551,-0.486,0.645,49,30.4,35.8,13,-9.8,-19.4,0.321481979,0.122013001,0.400372326,-0.849360637
961,2405880,1816880,-0.547,-0.486,0.641,47.8,29.8,36.2,13,-9.8,-19.4,0.321756645,0.123233741,0.399578845,-0.849452193
962,2409494,1816880,-0.543,-0.482,0.637,46.4,29.3,36.6,13,-9.8,-19.4,0.322061831,0.124423963,0.3988464,-0.84951323
963,2411631,1816890,-0.535,-0.482,0.633,44.8,28.7,36.9,13,-9.8,-19.4,0.322397534,0.125583666,0.398113956,-0.849574267
964,2413789,1816890,-0.528,-0.49,0.636,42.9,28.2,37.2,15.3,-10.1,-18.7,0.322702719,0.12674337,0.39741203,-0.849604785
965,2416075,1816890,-0.528,-0.486,0.629,41.1,27.7,37.4,15.3,-10.1,-18.7,0.323038423,0.127872555,0.396740623,-0.849604785
966,2419021,1816890,-0.528,-0.49,0.633,38.9,27.3,37.6,15.3,-10.1,-18.7,0.323404645,0.128971221,0.396099734,-0.849604785
967,2420818,1816900,-0.532,-0.494,0.633,36.7,26.9,37.8,15.3,-10.1,-18.7,0.323770867,0.130069887,0.395519883,-0.849574267
968,2424278,1816900,-0.528,-0.49,0.629,34.4,26.6,38.1,15.1,-9.8,-18.7,0.324289682,0.131382183,0.394787439,-0.84951323
969,2425759,1816900,-0.528,-0.49,0.629,32.2,26.2,38.3,15.1,-9.8,-18.7,0.324686422,0.132450331,0.394268624,-0.849421674
970,2428163,1816900,-0.524,-0.498,0.632,30.2,25.8,38.5,15.1,-9.8,-18.7,0.325083163,0.133457442,0.393780328,-0.849360637
971,2430635,1816910,-0.516,-0.498,0.624,28.3,25.3,38.6,15.1,-9.8,-18.7,0.325510422,0.134464553,0.39332255,-0.849238563
972,2433764,1816910,-0.516,-0.51,0.628,26.6,24.9,38.7,15.1,-10,-18.6,0.325907163,0.135441145,0.392895291,-0.849116489
973,2436795,1816910,-0.508,-0.514,0.632,25,24.5,38.7,15.1,-10,-18.6,0.32636494,0.136417737,0.39249855,-0.848994415
974,2438312,1816910,-0.5,-0.526,0.624,23.6,23.9,38.7,15.1,-10,-18.6,0.326792199,0.137363811,0.39210181,-0.848841823
975,2440755,1816920,-0.488,-0.527,0.632,22.2,23.4,38.6,15.1,-10,-18.6,0.327249977,0.138279366,0.391735588,-0.84868923
976,2444331,1816920,-0.493,-0.538,0.628,20.6,22.9,38.5,15,-10,-18.5,0.327707755,0.139194922,0.391399884,-0.848506119
977,2445802,1816920,-0.485,-0.542,0.62,19,22.7,38.3,15,-10,-18.5,0.328165532,0.140079958,0.391094699,-0.848323008
978,2448790,1816920,-0.493,-0.55,0.62,17.2,22.6,38,15,-10,-18.5,0.328592792,0.140934477,0.390820032,-0.848139897
979,2451057,1816930,-0.493,-0.546,0.612,15.5,22.6,37.6,15,-10,-18.5,0.329081088,0.141788995,0.390575884,-0.847926267
980,2453170,1816930,-0.489,-0.55,0.616,14,22.6,37.3,14.1,-10.5,-18.5,0.329538865,0.142643513,0.390362255,-0.847712638
981,2456241,1816930,-0.497,-0.546,0.616,12.7,22.6,37,14.1,-10.5,-18.5,0.329966124,0.143467513,0.390179144,-0.847499008
982,2458153,1816930,-0.497,-0.542,0.616,11.7,22.6,36.5,14.1,-10.5,-18.5,0.330423902,0.144260994,0.390026551,-0.84725486
983,2461189,1816940,-0.497,-0.546,0.608,10.7,22.3,36.1,14.1,-10.5,-18.5,0.33088168,0.145084994,0.389873959,-0.847010712
984,2464349,1816940,-0.489,-0.542,0.612,9.9,21.8,35.6,14.1,-10.5,-18.5,0.331308939,0.145847957,0.389721366,-0.846766564
985,2465858,1816940,-0.493,-0.542,0.608,9.2,21.4,35.1,14.1,-10.5,-18.5,0.331736198,0.14661092,0.389599292,-0.846522416
986,2468101,1816940,-0.493,-0.542,0.604,8.7,21.1,34.5,14.1,-10.5,-18.5,0.332163457,0.147343364,0.389477218,-0.846278268
987,2471794,1816950,-0.477,-0.55,0.604,8.2,20.9,33.8,14.1,-10.5,-18.5,0.332590716,0.148106326,0.389385662,-0.84603412
988,2473286,1816950,-0.477,-0.55,0.604,8.2,20.9,33.8,14.1,-10.5,-18.5,0.332590716,0.148106326,0.389385662,-0.84603412
989,2475737,1816950,-0.477,-0.566,0.608,8.1,20.3,32.6,14.1,-10.5,-18.5,0.33332316,0.149540696,0.389477218,-0.845454268
990,2479286,1816950,-0.481,-0.574,0.604,8.4,20,32.2,14.1,-10.5,-18.5,0.333719901,0.150273141,0.389355144,-0.84521012
991,2480553,1816960,-0.474,-0.582,0.604,8.7,19.6,31.6,14.1,-10.5,-18.5,0.334116642,0.150944548,0.38923307,-0.84499649
992,2484459,1816960,-0.478,-0.598,0.608,9.1,19.5,31,14.1,-10.5,-18.5,0.334452345,0.151646474,0.389110996,-0.844782861
993,2485842,1816960,-0.478,-0.605,0.608,9.7,19.3,30.4,14.1,-10.5,-18.5,0.334849086,0.152317881,0.388958403,-0.84459975
994,2488868,1816960,-0.474,-0.609,0.612,10.5,19.2,30,14.1,-10.5,-18.5,0.335215308,0.153019807,0.388805811,-0.84438612
995,2491089,1816970,-0.478,-0.613,0.608,11.4,18.9,29.6,14.1,-10.5,-18.5,0.335551012,0.153691214,0.3886227,-0.844203009
996,2493485,1816970,-0.478,-0.621,0.604,12.2,18.7,29.2,14.1,-10.5,-18.5,0.335886715,0.154393139,0.388439589,-0.844050417
997,2495838,1816970,-0.474,-0.621,0.612,13,18.4,28.8,14.1,-10.5,-18.5,0.336222419,0.155064547,0.388256478,-0.843867306
998,2498169,1816970,-0.478,-0.625,0.6,13.6,18.2,28.6,14.1,-10.5,-18.5,0.336558123,0.155735954,0.388042848,-0.843714713
999,2502646,1816980,-0.478,-0.625,0.604,14.1,18,28.2,14.1,-10.5,-18.5,0.336863308,0.156407361,0.3877987,-0.84356212
1000,2503286,1816980,-0.49,-0.613,0.601,14.5,17.8,27.9,15.3,-12.6,-18.2,0.337168493,0.157078768,0.38758507,-0.843409528
1001,2505609,1816980,-0.486,-0.601,0.597,14.8,17.6,27.5,15.3,-12.6,-18.2,0.337473678,0.157750175,0.387340922,-0.843287454
1002,2509115,1816980,-0.49,-0.589,0.585,15,17.3,27.1,15.3,-12.6,-18.2,0.337778863,0.158421583,0.387096774,-0.84316538
1003,2510570,1816990,-0.494,-0.585,0.585,15.3,17.1,26.9,15.3,-12.6,-18.2,0.338084048,0.159062471,0.386852626,-0.843012787
1004,2513316,1816990,-0.489,-0.574,0.581,15.5,16.6,26.7,14.3,-9.8,-17.9,0.338358715,0.15970336,0.38657796,-0.842890713
1005,2516338,1816990,-0.497,-0.562,0.577,15.7,16.3,26.4,14.3,-9.8,-17.9,0.3386639,0.160344249,0.386333811,-0.842768639
1006,2518274,1816990,-0.489,-0.558,0.577,15.9,15.8,26,14.3,-9.8,-17.9,0.338969085,0.160985137,0.386059145,-0.842677084
1007,2521601,1817000,-0.489,-0.546,0.569,15.9,15.2,25.8,14.3,-9.8,-17.9,0.339243751,0.161595508,0.385784478,-0.84255501
1008,2523070,1817000,-0.489,-0.546,0.569,15.9,15.2,25.8,14.3,-9.8,-17.9,0.339243751,0.161595508,0.385784478,-0.84255501
1009,2526849,1817000,-0.493,-0.534,0.573,14.9,14,25,14.8,-10.2,-17.7,0.33967101,0.162633137,0.385631886,-0.842280343
1010,2528257,1817000,-0.489,-0.523,0.565,13.7,13.7,24.6,14.8,-10.2,-17.7,0.339945677,0.16318247,0.385387738,-0.842158269
1011,2531319,1817010,-0.493,-0.515,0.55,12.2,13.5,24.2,14.8,-10.2,-17.7,0.340250862,0.163731803,0.385204627,-0.842036195
1012,2534184,1817010,-0.493,-0.499,0.542,10.3,13.2,23.9,15.5,-10,-17.9,0.340525529,0.164250618,0.385021516,-0.841883602
1013,2536980,1817010,-0.489,-0.495,0.542,8.2,13,23.7,15.5,-10,-17.9,0.340830714,0.164769433,0.384868923,-0.84173101
1014,2538445,1817010,-0.496,-0.483,0.538,6,12.9,23.3,15.5,-10,-17.9,0.341135899,0.16522721,0.384777367,-0.841547899
1015,2540590,1817020,-0.496,-0.46,0.53,3.8,12.6,23,15.5,-10,-17.9,0.341441084,0.165684988,0.38471633,-0.841364788
