sample_index,elapsed_us,device_time_ms,acc_x_g,acc_y_g,acc_z_g,gyro_x_dps,gyro_y_dps,gyro_z_dps,mag_x_ut,mag_y_ut,mag_z_ut,quat_w,quat_x,quat_y,quat_z
0,2918,1639790,-0.502,-0.644,0.597,-0.6,-1.3,0.5,7.8,-6.4,-21.2,0.434156316,0.0679647206,0.447553941,-0.778801843
1,5127,1639800,-0.506,-0.644,0.593,-0.6,-1.1,0.5,7.8,-6.4,-21.2,0.434186834,0.0679647206,0.447553941,-0.778801843
2,7354,1639800,-0.502,-0.644,0.597,-0.5,-0.9,0.6,7.2,-6.7,-20.9,0.434217353,0.0680257576,0.447553941,-0.778771325
3,9959,1639800,-0.502,-0.64,0.597,-0.5,-0.9,0.6,7.2,-6.7,-20.9,0.434247871,0.0679647206,0.447553941,-0.778740806
4,12199,1639800,-0.506,-0.644,0.597,-0.5,-1,0.6,7.2,-6.7,-20.9,0.43427839,0.0679647206,0.447553941,-0.778740806
5,15542,1639810,-0.498,-0.648,0.597,-0.5,-1.2,0.7,7.2,-6.7,-20.9,0.43427839,0.0679647206,0.447553941,-0.778740806
6,17107,1639810,-0.506,-0.64,0.601,-0.4,-1.2,0.6,7.4,-6.6,-25.6,0.434308908,0.0679647206,0.447553941,-0.778710288
7,19971,1639810,-0.506,-0.644,0.597,-0.3,-1,0.7,7.4,-6.6,-25.6,0.434339427,0.0679342021,0.447523423,-0.778710288
8,23016,1639810,-0.502,-0.648,0.597,-0.3,-0.8,0.7,7.4,-6.6,-25.6,0.434369945,0.0679342021,0.447523423,-0.778710288
9,24752,1639820,-0.506,-0.648,0.593,-0.2,-0.7,0.8,7.4,-6.6,-25.6,0.434369945,0.0679342021,0.447523423,-0.778679769
10,27462,1639820,-0.502,-0.648,0.597,-0.1,-0.7,0.8,7.4,-6.6,-22.7,0.434400464,0.0679036836,0.447523423,-0.778679769
11,30657,1639820,-0.502,-0.644,0.593,0,-0.7,0.8,7.4,-6.6,-22.7,0.434430982,0.0679036836,0.447523423,-0.778679769
12,32724,1639820,-0.498,-0.648,0.601,0,-0.9,0.7,7.4,-6.6,-22.7,0.434461501,0.0679036836,0.447492904,-0.778679769
13,35800,1639830,-0.502,-0.644,0.597,0,-0.9,0.7,7.4,-6.6,-22.7,0.434461501,0.0679036836,0.447492904,-0.778679769
14,37324,1639830,-0.502,-0.644,0.597,0.1,-0.9,0.7,7.4,-6.6,-23.7,0.434492019,0.0678731651,0.447492904,-0.778649251
15,40362,1639830,-0.498,-0.64,0.601,0.2,-0.9,0.8,7.4,-6.6,-23.7,0.434522538,0.0678731651,0.447462386,-0.778649251
16,43317,1639830,-0.502,-0.644,0.597,0.4,-0.7,0.8,7.4,-6.6,-23.7,0.434522538,0.0678731651,0.447462386,-0.778649251
17,44798,1639840,-0.498,-0.648,0.597,0.4,-0.7,0.8,7.4,-6.6,-23.7,0.434553056,0.0678731651,0.447431867,-0.778649251
18,47659,1639840,-0.498,-0.644,0.597,0.4,-0.7,0.8,7.8,-6.8,-24.8,0.434583575,0.0678731651,0.447431867,-0.778649251
19,50782,1639840,-0.495,-0.652,0.601,0.5,-0.7,0.8,7.8,-6.8,-24.8,0.434614093,0.0678731651,0.447401349,-0.778649251
20,52496,1639840,-0.498,-0.644,0.601,0.5,-0.6,0.8,7.8,-6.8,-24.8,0.434614093,0.0678731651,0.44737083,-0.778649251
21,54896,1639850,-0.494,-0.648,0.597,0.5,-0.4,0.8,7.8,-6.8,-24.8,0.434644612,0.0678731651,0.44737083,-0.778649251
22,58272,1639850,-0.494,-0.644,0.593,0.2,-0.3,0.9,7.5,-6.4,-25.1,0.434644612,0.0678121281,0.447340312,-0.778679769
23,59925,1639850,-0.494,-0.644,0.593,0.2,-0.3,0.9,7.5,-6.4,-25.1,0.434644612,0.0678426466,0.447340312,-0.778649251
24,62569,1639850,-0.498,-0.644,0.597,0.1,-0.3,0.9,7.5,-6.4,-25.1,0.43467513,0.0678426466,0.447309793,-0.778649251
25,64782,1639860,-0.49,-0.644,0.593,0.1,-0.3,0.9,7.5,-6.4,-25.1,0.434705649,0.0678426466,0.447309793,-0.778649251
26,68461,1639860,-0.49,-0.637,0.601,0,-0.2,0.9,7.5,-6.8,-23.4,0.434705649,0.0678426466,0.447309793,-0.778649251
27,70680,1639860,-0.494,-0.644,0.601,0,0,0.9,7.5,-6.8,-23.4,0.434736167,0.0678426466,0.447309793,-0.778618732
28,72934,1639860,-0.494,-0.64,0.601,0,0,0.9,7.5,-6.8,-23.4,0.434736167,0.0678731651,0.447309793,-0.778618732
29,75123,1639870,-0.494,-0.644,0.601,0,0,1,7.5,-6.8,-23.4,0.434766686,0.0678731651,0.447309793,-0.778618732
30,77408,1639870,-0.49,-0.641,0.597,-0.1,0,1.1,7.6,-6.2,-23.4,0.434766686,0.0678731651,0.447309793,-0.778588214
31,80005,1639870,-0.49,-0.641,0.597,-0.1,0.1,1.1,7.6,-6.2,-23.4,0.434797205,0.0679036836,0.447309793,-0.778588214
32,82362,1639870,-0.49,-0.641,0.597,-0.1,0.1,0.9,7.6,-6.2,-23.4,0.434827723,0.0679036836,0.447309793,-0.778588214
33,84903,1639880,-0.49,-0.637,0.597,-0.1,0.2,0.8,7.6,-6.2,-23.4,0.434827723,0.0679036836,0.447309793,-0.778557695
34,88956,1639880,-0.486,-0.637,0.597,-0.3,0.3,0.9,7.7,-6.3,-23.4,0.434827723,0.0679342021,0.447309793,-0.778557695
35,91331,1639880,-0.49,-0.644,0.593,-0.3,0.3,0.9,7.7,-6.3,-23.4,0.434858242,0.0679342021,0.447340312,-0.778557695
36,93536,1639880,-0.49,-0.637,0.593,-0.3,0.3,0.9,7.7,-6.3,-23.4,0.434858242,0.0679647206,0.447340312,-0.778527177
37,95769,1639890,-0.49,-0.637,0.593,-0.3,0.4,0.9,7.7,-6.3,-23.4,0.43488876,0.0679647206,0.447340312,-0.778527177
38,97835,1639890,-0.49,-0.637,0.593,-0.3,0.5,0.8,7.3,-6.5,-23.4,0.43488876,0.0679647206,0.447340312,-0.778496658
39,100089,1639890,-0.49,-0.637,0.593,-0.2,0.6,0.8,7.3,-6.5,-23.4,0.43488876,0.0679647206,0.44737083,-0.778496658
40,102511,1639890,-0.49,-0.637,0.597,-0.1,0.6,0.8,7.3,-6.5,-23.4,0.43488876,0.0680257576,0.44737083,-0.778496658
41,104768,1639900,-0.494,-0.637,0.589,-0.1,0.5,0.8,7.3,-6.5,-23.4,0.434919279,0.0680257576,0.44737083,-0.77846614
42,108271,1639900,-0.49,-0.633,0.593,-0.3,0.6,0.6,7.7,-6.4,-23.1,0.434919279,0.0680257576,0.447340312,-0.778496658
43,109882,1639900,-0.49,-0.633,0.593,-0.3,0.6,0.6,7.7,-6.4,-23.1,0.434919279,0.0680257576,0.44737083,-0.77846614
44,112838,1639900,-0.494,-0.633,0.593,-0.3,0.5,0.5,7.7,-6.4,-23.1,0.434919279,0.0680257576,0.44737083,-0.77846614
45,115831,1639910,-0.498,-0.636,0.593,-0.3,0.4,0.6,7.7,-6.4,-23.1,0.434949797,0.0680562761,0.44737083,-0.77846614
46,117412,1639910,-0.494,-0.629,0.589,-0.4,0.5,0.6,6.3,-6.8,-23.4,0.434949797,0.0680562761,0.447401349,-0.778435621
47,120365,1639910,-0.494,-0.633,0.589,-0.3,0.6,0.8,6.3,-6.8,-23.4,0.434949797,0.0680867946,0.447401349,-0.778435621
48,123361,1639910,-0.498,-0.632,0.593,-0.3,0.8,0.8,6.3,-6.8,-23.4,0.434949797,0.0680867946,0.447401349,-0.778435621
49,124848,1639920,-0.498,-0.629,0.593,-0.3,0.8,0.6,6.3,-6.8,-23.4,0.434949797,0.0681173132,0.447431867,-0.778405103
50,128875,1639920,-0.502,-0.632,0.589,-0.4,0.8,0.5,8.8,-6.5,-23.3,0.434980316,0.0681173132,0.447431867,-0.778405103
51,130963,1639920,-0.498,-0.629,0.589,-0.5,0.7,0.4,8.8,-6.5,-23.3,0.434980316,0.0681478317,0.447462386,-0.778374584
52,133324,1639920,-0.502,-0.632,0.585,-0.5,0.7,0.2,8.8,-6.5,-23.3,0.434949797,0.0681478317,0.447462386,-0.778374584
53,135701,1639930,-0.502,-0.632,0.593,-0.5,0.6,0,8.8,-6.5,-23.3,0.434949797,0.0681478317,0.447492904,-0.778374584
54,137780,1639930,-0.502,-0.632,0.593,-0.3,0.5,0,8.6,-6.8,-23.4,0.434949797,0.0681478317,0.447492904,-0.778374584
55,139988,1639930,-0.502,-0.628,0.597,-0.3,0.4,-0.2,8.6,-6.8,-23.4,0.434949797,0.0681783502,0.447523423,-0.778374584
56,142182,1639930,-0.506,-0.636,0.593,-0.2,0.4,-0.3,8.6,-6.8,-23.4,0.434949797,0.0681783502,0.447523423,-0.778374584
57,144806,1639940,-0.498,-0.636,0.597,-0.1,0.3,-0.4,8.6,-6.8,-23.4,0.434919279,0.0681783502,0.447523423,-0.778374584
58,148484,1639940,-0.502,-0.64,0.589,0,0.3,-0.4,8.6,-6.4,-23.3,0.434919279,0.0681783502,0.447523423,-0.778374584
59,150279,1639940,-0.498,-0.636,0.597,0.1,0.1,-0.5,8.6,-6.4,-23.3,0.43488876,0.0681783502,0.447523423,-0.778374584
60,152221,1639940,-0.498,-0.644,0.589,0.4,0.1,-0.6,8.6,-6.4,-23.3,0.43488876,0.0681783502,0.447523423,-0.778405103
61,155073,1639950,-0.498,-0.636,0.589,0.6,0,-0.6,8.6,-6.4,-23.3,0.43488876,0.0681783502,0.447523423,-0.778405103
62,157358,1639950,-0.498,-0.648,0.593,0.8,0,-0.8,8.6,-6.8,-23.4,0.43488876,0.0682088687,0.447492904,-0.778405103
63,159633,1639950,-0.498,-0.64,0.593,0.8,0,-0.8,8.6,-6.8,-23.4,0.434858242,0.0682088687,0.447492904,-0.778435621
64,162956,1639950,-0.49,-0.644,0.593,0.8,-0.1,-0.9,8.6,-6.8,-23.4,0.434858242,0.0681783502,0.447462386,-0.778435621
65,164876,1639960,-0.498,-0.64,0.589,0.8,0,-0.9,8.6,-6.8,-23.4,0.434827723,0.0681783502,0.447462386,-0.77846614
66,167344,1639960,-0.494,-0.64,0.589,0.7,0,-0.9,6.4,-6.7,-23.6,0.434797205,0.0681783502,0.447462386,-0.77846614
67,170817,1639960,-0.49,-0.637,0.593,0.8,-0.1,-0.9,6.4,-6.7,-23.6,0.434797205,0.0681783502,0.447431867,-0.778496658
68,172609,1639960,-0.494,-0.637,0.589,1,-0.2,-0.9,6.4,-6.7,-23.6,0.434766686,0.0681783502,0.447431867,-0.778527177
69,174690,1639970,-0.49,-0.641,0.597,1.1,-0.3,-0.9,6.4,-6.7,-23.6,0.434766686,0.0681783502,0.447401349,-0.778527177
70,177565,1639970,-0.49,-0.644,0.593,1.1,-0.4,-0.8,8.8,-6.6,-23.6,0.434766686,0.0681783502,0.44737083,-0.778557695
71,179705,1639970,-0.49,-0.644,0.597,1,-0.3,-0.7,8.8,-6.6,-23.6,0.434736167,0.0681783502,0.447340312,-0.778588214
72,183490,1639970,-0.487,-0.645,0.597,1,-0.3,-0.8,8.8,-6.6,-23.6,0.434736167,0.0681783502,0.447340312,-0.778588214
73,185676,1639980,-0.494,-0.648,0.597,0.9,-0.3,-0.7,8.8,-6.6,-23.6,0.434705649,0.0681478317,0.447309793,-0.778618732
74,187172,1639980,-0.49,-0.644,0.597,0.7,-0.3,-0.7,9.1,-6.8,-23.6,0.434705649,0.0681478317,0.447309793,-0.778618732
75,189814,1639980,-0.491,-0.648,0.593,0.5,-0.3,-0.6,9.1,-6.8,-23.6,0.434705649,0.0681478317,0.447279275,-0.778649251
76,193840,1639980,-0.491,-0.652,0.597,0.3,-0.3,-0.5,9.1,-6.8,-23.6,0.434705649,0.0681478317,0.447279275,-0.778649251
77,196158,1639990,-0.494,-0.644,0.597,0,-0.3,-0.4,9.1,-6.8,-23.6,0.43467513,0.0681173132,0.447279275,-0.778649251
78,198220,1639990,-0.494,-0.648,0.597,0,-0.4,-0.2,8.8,-6.5,-23.4,0.43467513,0.0681173132,0.447279275,-0.778649251
79,200022,1639990,-0.498,-0.644,0.593,0,-0.4,-0.1,8.8,-6.5,-23.4,0.43467513,0.0681173132,0.447279275,-0.778649251
80,203156,1639990,-0.494,-0.648,0.597,0,-0.3,-0.1,8.8,-6.5,-23.4,0.43467513,0.0680867946,0.447279275,-0.778649251
81,205002,1640000,-0.494,-0.64,0.593,-0.1,-0.2,-0.1,8.8,-6.5,-23.4,0.434705649,0.0680867946,0.447279275,-0.778649251
82,207584,1640000,-0.498,-0.64,0.597,0,-0.1,-0.1,7.9,-6.6,-23.4,0.43467513,0.0680562761,0.447279275,-0.778679769
83,209943,1640000,-0.498,-0.64,0.597,0,-0.1,-0.1,7.9,-6.6,-23.4,0.43467513,0.0680257576,0.447279275,-0.778679769
84,212183,1640000,-0.498,-0.64,0.597,0,0,-0.1,7.9,-6.6,-23.4,0.43467513,0.0680257576,0.447279275,-0.778679769
85,214644,1640010,-0.498,-0.644,0.597,-0.1,0,0,7.9,-6.6,-23.4,0.43467513,0.0680257576,0.447279275,-0.778679769
86,218870,1640010,-0.498,-0.644,0.601,-0.2,-0.1,0.1,7.9,-6.6,-23.5,0.43467513,0.0680257576,0.447279275,-0.778679769
87,221199,1640010,-0.498,-0.648,0.601,-0.1,-0.1,0.1,7.9,-6.6,-23.5,0.43467513,0.0680257576,0.447279275,-0.778649251
88,223422,1640010,-0.498,-0.644,0.589,0,-0.1,0,7.9,-6.6,-23.5,0.43467513,0.0680257576,0.447279275,-0.778649251
89,224900,1640020,-0.498,-0.64,0.597,0,-0.2,-0.1,7.9,-6.6,-23.5,0.43467513,0.0680257576,0.447279275,-0.778679769
90,227106,1640020,-0.498,-0.64,0.593,0,-0.3,-0.2,5.8,-6.5,-23.4,0.43467513,0.0680257576,0.447279275,-0.778679769
91,229708,1640020,-0.498,-0.64,0.601,0.1,-0.3,-0.1,5.8,-6.5,-23.4,0.43467513,0.0679647206,0.447279275,-0.778679769
92,233086,1640020,-0.498,-0.64,0.597,0.2,-0.3,-0.1,5.8,-6.5,-23.4,0.43467513,0.0679647206,0.447248756,-0.778679769
93,234616,1640030,-0.494,-0.644,0.601,0.4,-0.3,-0.1,5.8,-6.5,-23.4,0.43467513,0.0679647206,0.447248756,-0.778679769
94,237141,1640030,-0.498,-0.644,0.593,0.5,-0.1,-0.1,4.7,-6.5,-23.4,0.43467513,0.0679647206,0.447248756,-0.778679769
95,240658,1640030,-0.498,-0.636,0.593,0.7,-0.1,-0.1,4.7,-6.5,-23.4,0.43467513,0.0679647206,0.447218238,-0.778710288
96,242177,1640030,-0.498,-0.64,0.597,0.7,-0.1,-0.1,4.7,-6.5,-23.4,0.43467513,0.0679647206,0.447218238,-0.778710288
97,244556,1640040,-0.498,-0.636,0.593,0.8,-0.2,0,4.7,-6.5,-23.4,0.43467513,0.0679647206,0.447187719,-0.778710288
98,247334,1640040,-0.494,-0.637,0.593,0.8,-0.3,-0.1,4.2,-6.5,-23.4,0.43467513,0.0679647206,0.447187719,-0.778740806
99,250338,1640040,-0.494,-0.637,0.589,0.8,-0.3,-0.1,4.2,-6.5,-23.4,0.43467513,0.0679647206,0.447157201,-0.778740806
100,253315,1640040,-0.498,-0.633,0.589,0.7,-0.3,-0.1,4.2,-6.5,-23.4,0.43467513,0.0679647206,0.447157201,-0.778740806
101,254833,1640050,-0.498,-0.633,0.589,0.7,-0.3,-0.1,4.2,-6.5,-23.4,0.43467513,0.0679647206,0.447126682,-0.778740806
102,257704,1640050,-0.498,-0.633,0.589,0.8,-0.4,-0.1,4.2,-6.6,-23.8,0.43467513,0.0680562761,0.447096164,-0.778771325
103,259599,1640050,-0.498,-0.636,0.593,0.8,-0.4,-0.1,4.2,-6.6,-23.8,0.43467513,0.0680562761,0.447065645,-0.778771325
104,263122,1640050,-0.498,-0.632,0.593,0.9,-0.4,-0.1,4.2,-6.6,-23.8,0.43467513,0.0680562761,0.447065645,-0.778771325
105,264808,1640060,-0.494,-0.637,0.597,1,-0.4,-0.2,4.2,-6.6,-23.8,0.43467513,0.0680562761,0.447035127,-0.778801843
106,267407,1640060,-0.494,-0.64,0.605,1.1,-0.3,-0.3,8.7,-8.2,-23.7,0.43467513,0.0680562761,0.447004608,-0.778801843
107,270486,1640060,-0.49,-0.644,0.593,1,-0.2,-0.4,8.7,-8.2,-23.7,0.43467513,0.0680562761,0.447004608,-0.778832362
108,272102,1640060,-0.49,-0.644,0.597,1,-0.2,-0.3,8.7,-8.2,-23.7,0.43467513,0.0680562761,0.44697409,-0.778832362
109,274725,1640070,-0.494,-0.644,0.597,0.9,-0.3,-0.3,8.7,-8.2,-23.7,0.43467513,0.0680562761,0.446943571,-0.77886288
110,277868,1640070,-0.494,-0.644,0.597,0.9,-0.4,-0.3,6.4,-5.1,-23.6,0.43467513,0.0680562761,0.446943571,-0.77886288
111,279842,1640070,-0.494,-0.648,0.597,0.8,-0.5,-0.4,6.4,-5.1,-23.6,0.43467513,0.0680562761,0.446913053,-0.778893399
112,282873,1640070,-0.494,-0.644,0.597,0.8,-0.4,-0.4,6.4,-5.1,-23.6,0.434644612,0.0680257576,0.446882534,-0.778893399
113,284588,1640080,-0.494,-0.644,0.601,0.7,-0.3,-0.4,6.4,-5.1,-23.6,0.434644612,0.0680257576,0.446882534,-0.778893399
114,287378,1640080,-0.49,-0.637,0.597,0.7,-0.1,-0.4,7.6,-4.9,-23.8,0.434644612,0.0680257576,0.446882534,-0.778923917
115,289626,1640080,-0.494,-0.64,0.597,0.7,-0.1,-0.5,7.6,-4.9,-23.8,0.434644612,0.0680257576,0.446852016,-0.778923917
116,292472,1640080,-0.498,-0.64,0.597,0.8,-0.1,-0.6,7.6,-4.9,-23.8,0.434614093,0.0680257576,0.446852016,-0.778954436
117,295534,1640090,-0.494,-0.637,0.597,1,-0.1,-0.6,7.6,-4.9,-23.8,0.434614093,0.0680257576,0.446821497,-0.778954436
118,297087,1640090,-0.49,-0.641,0.589,1,-0.1,-0.5,8.3,-5.2,-23,0.434614093,0.0680257576,0.446790979,-0.778984954
119,299850,1640090,-0.49,-0.637,0.597,0.8,0,-0.6,8.3,-5.2,-23,0.434583575,0.0680257576,0.446790979,-0.778984954
120,302858,1640090,-0.49,-0.641,0.601,0.7,0,-0.6,8.3,-5.2,-23,0.434583575,0.0680257576,0.446790979,-0.779015473
121,304601,1640100,-0.49,-0.637,0.597,0.5,0.1,-0.7,8.3,-5.2,-23,0.434583575,0.0680257576,0.44676046,-0.779015473
122,308101,1640100,-0.49,-0.637,0.589,0.2,0.3,-0.9,8.8,-4.9,-23.5,0.434553056,0.0679647206,0.446729942,-0.779045991
123,309620,1640100,-0.494,-0.633,0.593,0.2,0.3,-0.9,8.8,-4.9,-23.5,0.434522538,0.0679647206,0.446729942,-0.77907651
124,312466,1640100,-0.49,-0.637,0.597,0.1,0.2,-0.9,8.8,-4.9,-23.5,0.434522538,0.0679647206,0.446729942,-0.77907651
125,315798,1640110,-0.494,-0.633,0.593,0,0,-0.7,8.8,-4.9,-23.5,0.434492019,0.0679647206,0.446729942,-0.77907651
126,317844,1640110,-0.494,-0.637,0.589,0,0,-0.7,7.5,-6.9,-23.5,0.434492019,0.0679647206,0.446729942,-0.779107028
127,320109,1640110,-0.494,-0.633,0.593,0,0,-0.7,7.5,-6.9,-23.5,0.434461501,0.0679647206,0.446729942,-0.779107028
128,322330,1640110,-0.494,-0.637,0.593,-0.2,0.3,-0.8,7.5,-6.9,-23.5,0.434461501,0.0679647206,0.446729942,-0.779107028
129,325322,1640120,-0.498,-0.636,0.589,-0.3,0.5,-0.9,7.5,-6.9,-23.5,0.434430982,0.0679647206,0.44676046,-0.779107028
130,328192,1640120,-0.498,-0.636,0.589,-0.5,0.6,-0.9,7.6,-6.2,-23.4,0.434400464,0.0679647206,0.44676046,-0.779107028
131,329796,1640120,-0.494,-0.637,0.589,-0.6,0.6,-0.9,7.6,-6.2,-23.4,0.434400464,0.0679647206,0.446790979,-0.779107028
132,332796,1640120,-0.49,-0.637,0.589,-0.6,0.4,-0.9,7.6,-6.2,-23.4,0.434369945,0.0679342021,0.446790979,-0.779107028
133,335830,1640130,-0.498,-0.636,0.585,-0.5,0.4,-0.9,7.6,-6.2,-23.4,0.434339427,0.0679342021,0.446821497,-0.779107028
134,337293,1640130,-0.502,-0.632,0.585,-0.5,0.6,-0.9,7.5,-6.3,-23.7,0.434339427,0.0679342021,0.446821497,-0.779107028
135,340299,1640130,-0.502,-0.628,0.585,-0.5,0.6,-0.9,7.5,-6.3,-23.7,0.434308908,0.0679342021,0.446852016,-0.779137547
136,343375,1640130,-0.498,-0.629,0.589,-0.3,0.6,-0.9,7.5,-6.3,-23.7,0.43427839,0.0679342021,0.446852016,-0.779137547
137,344738,1640140,-0.502,-0.636,0.585,-0.3,0.6,-0.9,7.5,-6.3,-23.7,0.43427839,0.0679342021,0.446882534,-0.779137547
138,347823,1640140,-0.498,-0.629,0.589,-0.2,0.7,-0.9,7.8,-6.7,-23.7,0.434247871,0.0679342021,0.446882534,-0.779137547
139,350860,1640140,-0.502,-0.628,0.589,-0.2,0.6,-0.8,7.8,-6.7,-23.7,0.434217353,0.0679342021,0.446913053,-0.779137547
140,352307,1640140,-0.494,-0.637,0.593,-0.1,0.5,-0.9,7.8,-6.7,-23.7,0.434186834,0.0679342021,0.446913053,-0.779137547
141,354892,1640150,-0.494,-0.633,0.585,0,0.4,-1,7.8,-6.7,-23.7,0.434186834,0.0679342021,0.446913053,-0.779168065
142,358261,1640150,-0.494,-0.633,0.585,0,0.3,-1.2,7.5,-7.8,-23.6,0.434186834,0.0679647206,0.446913053,-0.779137547
143,359726,1640150,-0.494,-0.633,0.585,0,0.3,-1.2,7.5,-7.8,-23.6,0.434186834,0.0679647206,0.446913053,-0.779168065
144,362273,1640150,-0.494,-0.633,0.589,0,0.3,-1.3,7.5,-7.8,-23.6,0.434156316,0.0679647206,0.446913053,-0.779168065
145,364678,1640160,-0.494,-0.633,0.589,0,0.3,-1.3,7.5,-7.8,-23.6,0.434125797,0.0679647206,0.446913053,-0.779198584
146,368074,1640160,-0.498,-0.632,0.593,0,0.3,-1.4,7.5,-5,-23,0.43406476,0.0679647206,0.446913053,-0.779198584
147,369766,1640160,-0.502,-0.636,0.593,0,0.3,-1.3,7.5,-5,-23,0.43406476,0.0679647206,0.446943571,-0.779198584
148,372350,1640160,-0.498,-0.636,0.593,0,0.2,-1.3,7.5,-5,-23,0.434034242,0.0679647206,0.446943571,-0.779229102
149,375550,1640170,-0.498,-0.633,0.589,0,0.3,-1.3,7.5,-5,-23,0.434003723,0.0679342021,0.446943571,-0.779229102
150,377740,1640170,-0.494,-0.633,0.593,0.2,0.3,-1.3,7.3,-7.9,-23.7,0.433973205,0.0679342021,0.446943571,-0.779259621
151,380068,1640170,-0.494,-0.637,0.589,0.2,0.4,-1.4,7.3,-7.9,-23.7,0.433942686,0.0679342021,0.446943571,-0.779259621
152,382396,1640170,-0.494,-0.637,0.593,0.2,0.4,-1.3,7.3,-7.9,-23.7,0.433942686,0.0679342021,0.446943571,-0.779290139
153,385427,1640180,-0.49,-0.637,0.589,0.2,0.4,-1.3,7.3,-7.9,-23.7,0.433912168,0.0679342021,0.446943571,-0.779290139
154,387104,1640180,-0.494,-0.637,0.589,0.1,0.4,-1.3,7.8,-8.3,-23.9,0.433881649,0.0679342021,0.446943571,-0.779320658
155,389902,1640180,-0.494,-0.637,0.589,0,0.4,-1.3,7.8,-8.3,-23.9,0.433851131,0.0679342021,0.446943571,-0.779320658
156,392926,1640180,-0.494,-0.637,0.589,0,0.4,-1.4,7.8,-8.3,-23.9,0.433820612,0.0679036836,0.44697409,-0.779320658
157,394667,1640190,-0.494,-0.633,0.589,0,0.4,-1.3,7.8,-8.3,-23.9,0.433790094,0.0679036836,0.44697409,-0.779351176
158,397202,1640190,-0.498,-0.632,0.593,0,0.3,-1.4,7.1,-8.1,-23.6,0.433759575,0.0679036836,0.44697409,-0.779351176
159,400609,1640190,-0.498,-0.633,0.585,0,0.3,-1.5,7.1,-8.1,-23.6,0.433729057,0.0679036836,0.44697409,-0.779381695
160,402517,1640190,-0.494,-0.633,0.593,0,0.3,-1.6,7.1,-8.1,-23.6,0.433698538,0.0678731651,0.44697409,-0.779381695
161,405804,1640200,-0.502,-0.632,0.589,0,0.4,-1.5,7.1,-8.1,-23.6,0.43366802,0.0678731651,0.447004608,-0.779412214
162,407351,1640200,-0.498,-0.633,0.589,-0.2,0.5,-1.5,7.8,-7.5,-24,0.43366802,0.0679647206,0.44697409,-0.779412214
163,410356,1640200,-0.502,-0.636,0.589,-0.2,0.5,-1.5,7.8,-7.5,-24,0.433637501,0.0679647206,0.447004608,-0.779412214
164,413414,1640200,-0.498,-0.64,0.593,-0.2,0.5,-1.5,7.8,-7.5,-24,0.433606983,0.0679342021,0.447004608,-0.779412214
165,414874,1640210,-0.498,-0.636,0.593,-0.3,0.5,-1.3,7.8,-7.5,-24,0.433576464,0.0679342021,0.447004608,-0.779442732
166,417846,1640210,-0.498,-0.64,0.597,-0.3,0.5,-1.3,7.7,-5.7,-22.1,0.433545946,0.0679342021,0.447035127,-0.779442732
167,420995,1640210,-0.498,-0.64,0.593,-0.3,0.4,-1.3,7.7,-5.7,-22.1,0.433545946,0.0679342021,0.447035127,-0.779442732
168,423097,1640210,-0.498,-0.64,0.597,-0.4,0.4,-1.2,7.7,-5.7,-22.1,0.433515427,0.0679036836,0.447065645,-0.779442732
169,424606,1640220,-0.502,-0.64,0.593,-0.5,0.4,-1.1,7.7,-5.7,-22.1,0.433484909,0.0679036836,0.447065645,-0.779442732
170,427413,1640220,-0.502,-0.64,0.597,-0.5,0.4,-1.1,7.4,-6.5,-24.6,0.43345439,0.0679036836,0.447096164,-0.779473251
171,430514,1640220,-0.498,-0.636,0.597,-0.5,0.4,-1.2,7.4,-6.5,-24.6,0.433423872,0.0678731651,0.447096164,-0.779473251
172,432862,1640220,-0.502,-0.64,0.585,-0.5,0.5,-1.2,7.4,-6.5,-24.6,0.433423872,0.0678731651,0.447126682,-0.779473251
173,435052,1640230,-0.498,-0.64,0.593,-0.5,0.6,-1.2,7.4,-6.5,-24.6,0.433393353,0.0678731651,0.447126682,-0.779473251
174,437341,1640230,-0.498,-0.636,0.589,-0.5,0.6,-1.1,7.8,-6.1,-25,0.433362835,0.0678731651,0.447157201,-0.779473251
175,439911,1640230,-0.502,-0.636,0.589,-0.4,0.4,-1,7.8,-6.1,-25,0.433332316,0.0678731651,0.447157201,-0.779503769
176,442090,1640230,-0.498,-0.636,0.593,-0.5,0.3,-1.1,7.8,-6.1,-25,0.433301798,0.0678426466,0.447187719,-0.779503769
177,445116,1640240,-0.502,-0.636,0.597,-0.5,0.3,-1.1,7.8,-6.1,-25,0.433301798,0.0678426466,0.447187719,-0.779503769
178,447462,1640240,-0.498,-0.64,0.589,-0.5,0.3,-1,7.4,-5.9,-25.1,0.433271279,0.0678426466,0.447218238,-0.779503769
179,449643,1640240,-0.502,-0.636,0.593,-0.5,0.3,-0.9,7.4,-5.9,-25.1,0.433240761,0.0678121281,0.447218238,-0.779503769
180,452723,1640240,-0.506,-0.632,0.597,-0.6,0.4,-0.9,7.4,-5.9,-25.1,0.433240761,0.0678121281,0.447248756,-0.779503769
181,454969,1640250,-0.498,-0.64,0.589,-0.7,0.5,-1,7.4,-5.9,-25.1,0.433210242,0.0678121281,0.447248756,-0.779503769
182,457995,1640250,-0.502,-0.64,0.597,-0.7,0.5,-1.1,7.4,-5.7,-25,0.433240761,0.0678731651,0.447279275,-0.779503769
183,459964,1640250,-0.502,-0.64,0.597,-0.7,0.5,-1.1,7.4,-5.7,-25,0.433210242,0.0678731651,0.447279275,-0.779503769
184,463334,1640250,-0.498,-0.636,0.589,-0.8,0.4,-1.1,7.4,-5.7,-25,0.433179724,0.0678731651,0.447309793,-0.779503769
185,465513,1640260,-0.502,-0.636,0.597,-0.8,0.4,-1.2,7.4,-5.7,-25,0.433149205,0.0678426466,0.447340312,-0.779503769
186,467795,1640260,-0.498,-0.636,0.597,-0.9,0.4,-1.1,7.5,-6.5,-23.6,0.433118686,0.0678426466,0.447340312,-0.779503769
187,469907,1640260,-0.498,-0.636,0.593,-1,0.4,-1,7.5,-6.5,-23.6,0.433118686,0.0678426466,0.44737083,-0.779503769
188,472288,1640260,-0.498,-0.64,0.593,-1,0.4,-0.9,7.5,-6.5,-23.6,0.433088168,0.0678121281,0.447401349,-0.779503769
189,474789,1640270,-0.502,-0.644,0.593,-1,0.4,-1,7.5,-6.5,-23.6,0.433088168,0.0678121281,0.447431867,-0.779503769
190,477969,1640270,-0.494,-0.64,0.593,-1.1,0.4,-1,7.5,-6.4,-22.9,0.433057649,0.0677816095,0.447431867,-0.779503769
191,480328,1640270,-0.502,-0.644,0.593,-1,0.3,-1,7.5,-6.4,-22.9,0.433027131,0.0677816095,0.447462386,-0.779503769
192,482239,1640270,-0.498,-0.644,0.597,-1,0.3,-1,7.5,-6.4,-22.9,0.433027131,0.0677816095,0.447492904,-0.779503769
193,484870,1640280,-0.498,-0.64,0.601,-0.8,0.3,-1,7.5,-6.4,-22.9,0.432996612,0.067751091,0.447523423,-0.779503769
194,488563,1640280,-0.499,-0.652,0.597,-0.6,0.3,-1,7.6,-6.8,-22,0.432966094,0.067751091,0.447523423,-0.779503769
195,490731,1640280,-0.494,-0.648,0.601,-0.5,0.3,-0.9,7.6,-6.8,-22,0.432966094,0.067751091,0.447553941,-0.779503769
196,493128,1640280,-0.494,-0.644,0.601,-0.4,0.3,-0.9,7.6,-6.8,-22,0.432935575,0.0677205725,0.447553941,-0.779503769
197,495861,1640290,-0.494,-0.648,0.601,-0.3,0.4,-0.9,7.6,-6.8,-22,0.432905057,0.0677205725,0.447553941,-0.779503769
198,497298,1640290,-0.498,-0.644,0.601,-0.2,0.4,-0.7,7.9,-6.4,-21.3,0.432905057,0.0677205725,0.44758446,-0.779503769
199,500628,1640290,-0.498,-0.644,0.601,-0.2,0.4,-0.7,7.9,-6.4,-21.3,0.432874538,0.0677205725,0.44758446,-0.779503769
200,502928,1640290,-0.494,-0.644,0.593,-0.2,0.4,-0.7,7.9,-6.4,-21.3,0.432874538,0.0677205725,0.44758446,-0.779503769
201,505299,1640300,-0.494,-0.644,0.601,-0.4,0.4,-0.8,7.9,-6.4,-21.3,0.43284402,0.0677205725,0.447614978,-0.779534288
202,508232,1640300,-0.494,-0.64,0.601,-0.5,0.3,-0.9,7.8,-6.3,-20.3,0.43284402,0.067690054,0.44758446,-0.779534288
203,510580,1640300,-0.494,-0.64,0.601,-0.5,0.3,-0.9,7.8,-6.3,-20.3,0.432813501,0.067690054,0.44758446,-0.779534288
204,513567,1640300,-0.498,-0.636,0.601,-0.5,0.4,-0.7,7.8,-6.3,-20.3,0.432813501,0.067690054,0.447614978,-0.779534288
205,515867,1640310,-0.498,-0.636,0.593,-0.5,0.5,-0.7,7.8,-6.3,-20.3,0.432782983,0.067690054,0.447614978,-0.779534288
206,518259,1640310,-0.498,-0.636,0.601,-0.6,0.5,-0.6,7.6,-6.7,-25.7,0.432782983,0.067690054,0.447645497,-0.779534288
207,520215,1640310,-0.502,-0.632,0.593,-0.7,0.6,-0.6,7.6,-6.7,-25.7,0.432752464,0.067690054,0.447645497,-0.779534288
208,522503,1640310,-0.498,-0.632,0.601,-0.8,0.8,-0.6,7.6,-6.7,-25.7,0.432752464,0.067690054,0.447676016,-0.779534288
209,524901,1640320,-0.498,-0.632,0.597,-0.8,1,-0.7,7.6,-6.7,-25.7,0.432721946,0.067690054,0.447706534,-0.779534288
210,527219,1640320,-0.498,-0.64,0.601,-0.9,1.1,-0.7,7.5,-6.2,-22.7,0.432691427,0.067690054,0.447737053,-0.779534288
211,529958,1640320,-0.494,-0.633,0.597,-1,1.1,-0.8,7.5,-6.2,-22.7,0.432660909,0.067690054,0.447737053,-0.779534288
212,532342,1640320,-0.498,-0.636,0.597,-1.1,1,-0.7,7.5,-6.2,-22.7,0.432660909,0.067690054,0.44779809,-0.779534288
213,534892,1640330,-0.494,-0.637,0.593,-1.1,0.8,-0.7,7.5,-6.2,-22.7,0.43263039,0.067690054,0.447828608,-0.779534288
214,538894,1640330,-0.498,-0.636,0.601,-1,0.7,-0.7,7.5,-6.4,-23.2,0.432599872,0.067690054,0.447859127,-0.779503769
215,540545,1640330,-0.494,-0.637,0.593,-0.8,0.6,-0.8,7.5,-6.4,-23.2,0.432599872,0.0676595355,0.447859127,-0.779503769
216,542191,1640330,-0.494,-0.64,0.601,-0.8,0.8,-0.9,7.5,-6.4,-23.2,0.432569353,0.0676595355,0.447889645,-0.779503769
217,544664,1640340,-0.494,-0.64,0.597,-0.8,1,-0.9,7.5,-6.4,-23.2,0.432538835,0.0676595355,0.447920164,-0.779503769
218,548050,1640340,-0.494,-0.637,0.601,-0.7,1,-0.8,7.6,-6.5,-23.8,0.432508316,0.067690054,0.447950682,-0.779503769
219,549698,1640340,-0.494,-0.633,0.597,-0.7,1.1,-0.8,7.6,-6.5,-23.8,0.432508316,0.067690054,0.447981201,-0.779503769
220,553275,1640340,-0.498,-0.636,0.597,-0.6,1.1,-0.9,7.6,-6.5,-23.8,0.432477798,0.067690054,0.447981201,-0.779503769
221,555448,1640350,-0.494,-0.637,0.593,-0.6,1.1,-1,7.6,-6.5,-23.8,0.432447279,0.067690054,0.448011719,-0.779503769
222,557699,1640350,-0.498,-0.629,0.593,-0.5,1.1,-1,7.6,-6.1,-24.6,0.432477798,0.0677205725,0.447920164,-0.779534288
223,560016,1640350,-0.498,-0.625,0.597,-0.5,1.2,-0.9,7.6,-6.1,-24.6,0.432447279,0.067751091,0.447950682,-0.779534288
224,562338,1640350,-0.498,-0.632,0.597,-0.4,1.2,-1,7.6,-6.1,-24.6,0.432416761,0.067751091,0.447981201,-0.779564806
225,564760,1640360,-0.498,-0.629,0.589,-0.3,1.3,-1.2,7.6,-6.1,-24.6,0.432386242,0.067751091,0.447981201,-0.779564806
226,568225,1640360,-0.498,-0.629,0.597,-0.3,1.4,-1.3,7.4,-6.7,-23.3,0.432325205,0.067751091,0.448011719,-0.779564806
227,569733,1640360,-0.498,-0.629,0.593,-0.4,1.4,-1.2,7.4,-6.7,-23.3,0.432294687,0.0677816095,0.448042238,-0.779564806
228,572290,1640360,-0.494,-0.629,0.585,-0.5,1.4,-1.2,7.4,-6.7,-23.3,0.432264168,0.0677816095,0.448072756,-0.779564806
229,575761,1640370,-0.494,-0.629,0.593,-0.5,1.3,-1.2,7.4,-6.7,-23.3,0.43223365,0.0677816095,0.448072756,-0.779564806
230,577245,1640370,-0.498,-0.629,0.589,-0.5,1.4,-1.3,7.8,-6.2,-23.6,0.432203131,0.0677816095,0.448103275,-0.779595325
231,579764,1640370,-0.502,-0.628,0.593,-0.6,1.5,-1.4,7.8,-6.2,-23.6,0.432172613,0.0677816095,0.448133793,-0.779595325
232,583239,1640370,-0.498,-0.625,0.593,-0.8,1.6,-1.5,7.8,-6.2,-23.6,0.432111576,0.0678121281,0.448164312,-0.779595325
233,584695,1640380,-0.498,-0.625,0.593,-0.9,1.6,-1.5,7.8,-6.2,-23.6,0.432081057,0.0678121281,0.44819483,-0.779595325
234,587219,1640380,-0.502,-0.628,0.589,-1,1.6,-1.7,7.5,-6.6,-23.4,0.432050539,0.0678121281,0.448255867,-0.779595325
235,590718,1640380,-0.502,-0.625,0.593,-1,1.5,-1.8,7.5,-6.6,-23.4,0.431989502,0.0678121281,0.448286386,-0.779595325
236,592202,1640380,-0.498,-0.629,0.589,-1,1.4,-1.9,7.5,-6.6,-23.4,0.431958983,0.0678121281,0.448316904,-0.779595325
237,595203,1640390,-0.498,-0.632,0.593,-0.9,1.2,-2,7.5,-6.6,-23.4,0.431897946,0.0677816095,0.448347423,-0.779625843
238,598186,1640390,-0.502,-0.628,0.589,-0.8,1.2,-2.1,7.8,-6.6,-23.5,0.431867428,0.0677816095,0.448377941,-0.779625843
239,600360,1640390,-0.498,-0.636,0.597,-0.8,1.1,-2.1,7.8,-6.6,-23.5,0.431806391,0.0677816095,0.44840846,-0.779625843
240,602433,1640390,-0.498,-0.64,0.589,-0.8,1.2,-2.1,7.8,-6.6,-23.5,0.431745354,0.067751091,0.448438978,-0.779656362
241,605404,1640400,-0.498,-0.644,0.593,-1,1.3,-2.1,7.8,-6.6,-23.5,0.431714835,0.067751091,0.448469497,-0.779656362
242,607176,1640400,-0.498,-0.644,0.589,-1,1.2,-2.2,7.9,-6.6,-23.4,0.431714835,0.0678121281,0.448438978,-0.779656362
243,610703,1640400,-0.498,-0.644,0.589,-1.1,1.2,-2.3,7.9,-6.6,-23.4,0.431653798,0.0678121281,0.448500015,-0.779656362
244,612219,1640400,-0.502,-0.648,0.589,-1,1.1,-2.3,7.9,-6.6,-23.4,0.431592761,0.0678121281,0.448530534,-0.77968688
245,614722,1640410,-0.502,-0.648,0.593,-0.7,1,-2.4,7.9,-6.6,-23.4,0.431562243,0.0677816095,0.448530534,-0.77968688
246,618116,1640410,-0.502,-0.644,0.589,-0.5,1,-2.4,6.5,-6.7,-23.2,0.431501205,0.0677816095,0.448561052,-0.779717399
247,619721,1640410,-0.502,-0.648,0.593,-0.3,0.9,-2.4,6.5,-6.7,-23.2,0.431440168,0.067751091,0.448591571,-0.779717399
248,622696,1640410,-0.502,-0.648,0.589,-0.2,0.8,-2.3,6.5,-6.7,-23.2,0.43140965,0.067751091,0.448591571,-0.779747917
249,625697,1640420,-0.498,-0.64,0.593,-0.2,0.7,-2.3,6.5,-6.7,-23.2,0.431348613,0.067751091,0.448622089,-0.779778436
250,627256,1640420,-0.498,-0.644,0.597,-0.2,0.7,-2.2,8.8,-6.6,-23.5,0.431318094,0.0677205725,0.448622089,-0.779778436
251,630020,1640420,-0.502,-0.64,0.589,-0.2,0.6,-2.2,8.8,-6.6,-23.5,0.431257057,0.0677205725,0.448652608,-0.779808954
252,633201,1640420,-0.502,-0.64,0.593,-0.2,0.3,-2.3,8.8,-6.6,-23.5,0.431226539,0.067690054,0.448652608,-0.779808954
253,634814,1640430,-0.498,-0.648,0.593,-0.1,0.1,-2.3,8.8,-6.6,-23.5,0.43119602,0.067690054,0.448652608,-0.779839473
254,637559,1640430,-0.506,-0.644,0.593,0,0,-2.4,8.5,-6.5,-23.5,0.431134983,0.0676595355,0.448683126,-0.779869991
255,639787,1640430,-0.499,-0.648,0.589,0,-0.2,-2.5,8.5,-6.5,-23.5,0.431104465,0.067629017,0.448683126,-0.77990051
256,642242,1640430,-0.502,-0.64,0.597,0.1,-0.4,-2.7,8.5,-6.5,-23.5,0.431073946,0.0675984985,0.448652608,-0.77990051
257,645431,1640440,-0.502,-0.644,0.597,0.2,-0.6,-2.8,8.5,-6.5,-23.5,0.431012909,0.0675374615,0.448652608,-0.779931028
258,647209,1640440,-0.502,-0.644,0.589,0.2,-0.8,-2.9,8.1,-6.5,-23.4,0.430982391,0.0674764245,0.448652608,-0.779961547
259,650435,1640440,-0.502,-0.64,0.589,0.1,-1,-2.9,8.1,-6.5,-23.4,0.430921354,0.0674764245,0.448652608,-0.779992065
260,652537,1640440,-0.502,-0.636,0.585,0.1,-1.2,-3,8.1,-6.5,-23.4,0.430890835,0.0674153874,0.448622089,-0.780053102
261,654744,1640450,-0.502,-0.636,0.589,0.1,-1.4,-2.9,8.1,-6.5,-23.4,0.430860317,0.0673543504,0.448622089,-0.780083621
262,657331,1640450,-0.498,-0.636,0.585,0,-1.7,-2.9,8.4,-6.2,-23.4,0.430860317,0.0674459059,0.448622089,-0.780053102
263,660904,1640450,-0.498,-0.636,0.585,-0.1,-1.8,-2.8,8.4,-6.2,-23.4,0.430829798,0.0673848689,0.448591571,-0.780083621
264,663035,1640450,-0.502,-0.644,0.593,-0.2,-1.7,-2.8,8.4,-6.2,-23.4,0.43079928,0.0673238319,0.448591571,-0.780114139
265,665321,1640460,-0.498,-0.64,0.593,-0.3,-1.6,-2.8,8.4,-6.2,-23.4,0.430768761,0.0672627949,0.448591571,-0.780144658
266,667449,1640460,-0.498,-0.644,0.597,-0.2,-1.5,-3,6.3,-6.7,-23.6,0.430738243,0.0672017579,0.448591571,-0.780175176
267,671376,1640460,-0.494,-0.637,0.593,-0.1,-1.5,-3.2,6.3,-6.7,-23.6,0.430707724,0.0671407208,0.448561052,-0.780205695
268,672276,1640460,-0.494,-0.64,0.589,0,-1.6,-3.3,6.3,-6.7,-23.6,0.430677206,0.0670796838,0.448561052,-0.780236213
269,675284,1640470,-0.494,-0.637,0.593,0.1,-1.7,-3.3,6.3,-6.7,-23.6,0.430616169,0.0669881283,0.448561052,-0.780266732
270,677768,1640470,-0.49,-0.633,0.597,0,-1.8,-3.2,9.1,-6.2,-23.3,0.43058565,0.0669576098,0.448530534,-0.78029725
271,679853,1640470,-0.494,-0.637,0.585,-0.2,-1.9,-3,9.1,-6.2,-23.3,0.430555132,0.0668660543,0.448530534,-0.780327769
272,682322,1640470,-0.498,-0.632,0.593,-0.4,-1.8,-2.8,9.1,-6.2,-23.3,0.430524613,0.0668050172,0.448530534,-0.780358287
273,685795,1640480,-0.49,-0.633,0.585,-0.4,-1.8,-2.6,9.1,-6.2,-23.3,0.430494095,0.0667439802,0.448500015,-0.780388806
274,687973,1640480,-0.494,-0.629,0.593,-0.5,-1.7,-2.3,9.1,-6.5,-23.2,0.430463576,0.0666829432,0.448500015,-0.780388806
275,690212,1640480,-0.49,-0.629,0.593,-0.7,-1.7,-2.2,9.1,-6.5,-23.2,0.430463576,0.0666219062,0.448500015,-0.780419324
276,693193,1640480,-0.494,-0.629,0.585,-0.7,-1.6,-2.1,9.1,-6.5,-23.2,0.430433058,0.0665913877,0.448500015,-0.780419324
277,695440,1640490,-0.498,-0.636,0.589,-0.6,-1.6,-2,9.1,-6.5,-23.2,0.430433058,0.0664998321,0.448500015,-0.780449843
278,697865,1640490,-0.49,-0.644,0.597,-0.5,-1.5,-2,9,-6.5,-23.5,0.430402539,0.0664693136,0.448500015,-0.780480361
279,699732,1640490,-0.49,-0.641,0.597,-0.6,-1.4,-2,9,-6.5,-23.5,0.430372021,0.0664082766,0.448500015,-0.780480361
280,703199,1640490,-0.494,-0.64,0.597,-0.6,-1.2,-1.9,9,-6.5,-23.5,0.430372021,0.0663777581,0.448500015,-0.780480361
281,705006,1640500,-0.498,-0.644,0.597,-0.7,-1,-1.8,9,-6.5,-23.5,0.430341502,0.0663472396,0.448500015,-0.78051088
282,707217,1640500,-0.502,-0.64,0.605,-0.7,-1,-1.9,8.5,-6.5,-23.6,0.430341502,0.0663167211,0.448438978,-0.780541398
283,710686,1640500,-0.498,-0.64,0.601,-0.7,-1,-2.1,8.5,-6.5,-23.6,0.430341502,0.0662862026,0.448469497,-0.780541398
284,712953,1640500,-0.502,-0.64,0.601,-0.7,-1.1,-2.2,8.5,-6.5,-23.6,0.430310984,0.0662251656,0.448469497,-0.780571917
285,715214,1640510,-0.506,-0.64,0.597,-0.6,-1.2,-2.3,8.5,-6.5,-23.6,0.430280465,0.0661641285,0.448469497,-0.780571917
286,718152,1640510,-0.51,-0.636,0.601,-0.4,-1.1,-2.4,7.9,-6.4,-23.6,0.430249947,0.06613361,0.448469497,-0.780602435
287,719774,1640510,-0.506,-0.636,0.601,-0.3,-1.2,-2.6,7.9,-6.4,-23.6,0.430219428,0.066072573,0.448469497,-0.780632954
288,722179,1640510,-0.506,-0.624,0.597,-0.2,-1.3,-2.8,7.9,-6.4,-23.6,0.430158391,0.066011536,0.448469497,-0.780663472
289,725315,1640520,-0.502,-0.621,0.601,-0.2,-1.5,-2.8,7.9,-6.4,-23.6,0.430158391,0.0659810175,0.448469497,-0.780663472
290,727606,1640520,-0.51,-0.616,0.601,-0.2,-1.6,-2.8,6.1,-6.7,-23.6,0.430127873,0.0659199805,0.448438978,-0.780693991
291,729918,1640520,-0.51,-0.624,0.601,-0.2,-1.5,-2.8,6.1,-6.7,-23.6,0.430097354,0.0658589434,0.448438978,-0.780724509
292,732226,1640520,-0.51,-0.624,0.605,-0.2,-1.6,-2.9,6.1,-6.7,-23.6,0.430066836,0.0657979064,0.448438978,-0.780755028
293,734674,1640530,-0.502,-0.636,0.605,-0.1,-1.7,-3.1,6.1,-6.7,-23.6,0.430005799,0.0657368694,0.448438978,-0.780785546
294,738278,1640530,-0.502,-0.648,0.605,0,-1.8,-3.2,5.2,-6.6,-23.6,0.42997528,0.0656758324,0.44840846,-0.780816065
295,740435,1640530,-0.498,-0.652,0.609,0.4,-1.9,-3.4,5.2,-6.6,-23.6,0.429944761,0.0656147954,0.448377941,-0.780846583
296,742629,1640530,-0.498,-0.656,0.613,0.7,-2,-3.6,5.2,-6.6,-23.6,0.429883724,0.0655232398,0.448377941,-0.78090762
297,744985,1640540,-0.506,-0.656,0.613,1,-2,-3.9,5.2,-6.6,-23.6,0.429853206,0.0654927213,0.448347423,-0.780968657
298,747449,1640540,-0.506,-0.656,0.613,1.2,-2,-4.1,4.8,-7,-23.5,0.429792169,0.0654011658,0.448286386,-0.780999176
299,749841,1640540,-0.51,-0.652,0.613,1.3,-2,-4.2,4.8,-7,-23.5,0.429731132,0.0653401288,0.448255867,-0.781060213
300,754033,1640540,-0.514,-0.652,0.594,1.5,-2.1,-4.3,4.8,-7,-23.5,0.429670095,0.0652790918,0.448225349,-0.78112125
301,754856,1640550,-0.514,-0.64,0.594,1.7,-2.4,-4.2,4.8,-7,-23.5,0.429639576,0.0652180548,0.448164312,-0.781182287
302,757293,1640550,-0.51,-0.632,0.609,1.9,-2.9,-4.1,4.4,-6.6,-23.8,0.429639576,0.0652485733,0.448103275,-0.781212806
303,759919,1640550,-0.51,-0.632,0.609,1.9,-3.3,-4.1,4.4,-6.6,-23.8,0.429609058,0.0651875362,0.448042238,-0.781273843
304,762303,1640550,-0.506,-0.628,0.613,1.8,-3.4,-4.2,4.4,-6.6,-23.8,0.429548021,0.0650959807,0.447981201,-0.78133488
305,766343,1640560,-0.51,-0.636,0.609,1.8,-3.2,-4.2,4.4,-6.6,-23.8,0.429517502,0.0650044252,0.447920164,-0.781395917
306,768551,1640560,-0.494,-0.64,0.609,2,-2.8,-4.2,9,-8.2,-23.3,0.429456465,0.0649433882,0.447859127,-0.781487472
307,770810,1640560,-0.486,-0.645,0.612,2.5,-2.7,-4.3,9,-8.2,-23.3,0.429425947,0.0648823511,0.44779809,-0.781548509
308,772280,1640560,-0.487,-0.656,0.608,3.1,-2.7,-4.5,9,-8.2,-23.3,0.42936491,0.0648213141,0.447737053,-0.781609546
309,775232,1640570,-0.491,-0.656,0.601,3.5,-2.8,-4.9,9,-8.2,-23.3,0.429303873,0.0647602771,0.447645497,-0.781701102
310,778238,1640570,-0.494,-0.652,0.609,3.5,-2.7,-5.2,6.5,-4.9,-23.1,0.429242836,0.0646992401,0.44758446,-0.781792657
311,779722,1640570,-0.498,-0.648,0.605,3.3,-2.5,-5.5,6.5,-4.9,-23.1,0.42915128,0.0646076846,0.447492904,-0.781884213
312,782748,1640570,-0.506,-0.632,0.605,2.9,-2,-5.6,6.5,-4.9,-23.1,0.429090243,0.0645466475,0.447431867,-0.781975768
313,785729,1640580,-0.514,-0.632,0.601,2.8,-1.6,-5.5,6.5,-4.9,-23.1,0.428998688,0.064516129,0.44737083,-0.782036805
314,787322,1640580,-0.51,-0.624,0.601,2.8,-1.3,-5,7.5,-4.8,-23.3,0.428907132,0.064455092,0.447340312,-0.782128361
315,790832,1640580,-0.514,-0.624,0.594,3,-1.3,-4.5,7.5,-4.8,-23.3,0.428846095,0.0644245735,0.447279275,-0.782189398
316,792302,1640580,-0.506,-0.628,0.601,3.4,-1.4,-4.2,7.5,-4.8,-23.3,0.428785058,0.064394055,0.447218238,-0.782280953
317,795506,1640590,-0.506,-0.632,0.613,3.8,-1.6,-4.1,7.5,-4.8,-23.3,0.428724021,0.0643635365,0.447126682,-0.78234199
318,797162,1640590,-0.51,-0.636,0.609,4.3,-1.6,-4.2,8.3,-4.9,-23.5,0.428662984,0.064333018,0.447035127,-0.782433546
319,800513,1640590,-0.514,-0.648,0.621,4.7,-1.5,-4.6,8.3,-4.9,-23.5,0.428601947,0.0643024995,0.44697409,-0.782525101
320,802242,1640590,-0.522,-0.644,0.625,5.1,-1.1,-4.9,8.3,-4.9,-23.5,0.428510392,0.064271981,0.446882534,-0.782616657
321,805846,1640600,-0.518,-0.648,0.625,5.4,-0.8,-5.2,8.3,-4.9,-23.5,0.428418836,0.064271981,0.44676046,-0.782738731
322,807644,1640600,-0.53,-0.651,0.637,5.7,-0.4,-5.3,9.1,-4.8,-23.2,0.428418836,0.0644245735,0.446577349,-0.782830287
323,809841,1640600,-0.534,-0.651,0.637,6,-0.3,-5.4,9.1,-4.8,-23.2,0.42832728,0.0644245735,0.446485794,-0.782952361
324,812235,1640600,-0.53,-0.651,0.645,6.4,-0.2,-5.4,9.1,-4.8,-23.2,0.428205206,0.0644245735,0.44636372,-0.783043916
325,814886,1640610,-0.534,-0.647,0.645,6.8,-0.3,-5.5,9.1,-4.8,-23.2,0.428113651,0.0644245735,0.446241646,-0.78316599
326,818102,1640610,-0.526,-0.655,0.649,7.3,-0.4,-5.9,7.2,-7.1,-23.5,0.428022095,0.0644245735,0.446119572,-0.783288064
327,820378,1640610,-0.522,-0.655,0.645,7.9,-0.6,-6.3,7.2,-7.1,-23.5,0.427900021,0.0644245735,0.445997497,-0.783440657
328,822515,1640610,-0.526,-0.655,0.656,8.4,-0.8,-6.7,7.2,-7.1,-23.5,0.427777947,0.0644245735,0.445844905,-0.783593249
329,824969,1640620,-0.526,-0.655,0.656,9,-0.8,-6.9,7.2,-7.1,-23.5,0.427655873,0.0644245735,0.445692312,-0.783745842
330,828028,1640620,-0.53,-0.663,0.66,9.4,-0.7,-7.2,7.8,-6,-23.5,0.427533799,0.064455092,0.44553972,-0.783898434
331,830256,1640620,-0.53,-0.671,0.664,10,-0.4,-7.3,7.8,-6,-23.5,0.427411725,0.064455092,0.445387127,-0.784051027
332,832413,1640620,-0.534,-0.671,0.672,10.7,-0.1,-7.3,7.8,-6,-23.5,0.427259133,0.0644856105,0.445204016,-0.784234138
333,836416,1640630,-0.53,-0.679,0.672,11.5,0.2,-7.4,7.8,-6,-23.5,0.42710654,0.064516129,0.445020905,-0.784417249
334,837234,1640630,-0.53,-0.691,0.68,12.2,0.6,-7.4,7.7,-6.6,-23.2,0.426953948,0.0645466475,0.444837794,-0.78460036
335,840903,1640630,-0.53,-0.695,0.68,13,0.7,-7.4,7.7,-6.6,-23.2,0.426801355,0.0646382031,0.444624165,-0.78481399
336,843160,1640630,-0.53,-0.698,0.688,13.8,0.8,-7.2,7.7,-6.6,-23.2,0.426648762,0.0646992401,0.444410535,-0.784997101
337,845470,1640640,-0.527,-0.702,0.692,14.6,0.8,-7.1,7.7,-6.6,-23.2,0.42649617,0.0647907956,0.444166387,-0.78521073
338,847905,1640640,-0.519,-0.71,0.688,15.5,0.9,-7.1,8,-7.2,-23.5,0.426343577,0.0648823511,0.443922239,-0.78542436
339,850053,1640640,-0.515,-0.718,0.691,16.5,0.9,-7.2,8,-7.2,-23.5,0.426190985,0.0649739067,0.443647572,-0.785637989
340,852236,1640640,-0.507,-0.719,0.687,17.3,1,-7.5,8,-7.2,-23.5,0.426038392,0.0650959807,0.443372906,-0.785882138
341,854656,1640650,-0.507,-0.723,0.687,18.1,1.1,-8,8,-7.2,-23.5,0.425855281,0.0651875362,0.443098239,-0.786126286
342,857237,1640650,-0.487,-0.739,0.683,18.9,1.4,-8.5,7.1,-8.4,-23.4,0.42567217,0.0653096103,0.442793054,-0.786400952
343,861485,1640650,-0.483,-0.739,0.683,20.1,1.6,-8.7,7.1,-8.4,-23.4,0.425489059,0.0654622028,0.442487869,-0.786675619
344,862313,1640650,-0.48,-0.739,0.679,21.4,2,-9.1,7.1,-8.4,-23.4,0.42527543,0.0655842769,0.442152165,-0.786950285
345,864633,1640660,-0.468,-0.743,0.679,22.9,2.3,-9.2,7.1,-8.4,-23.4,0.4250618,0.0657673879,0.441785943,-0.78725547
346,868119,1640660,-0.468,-0.747,0.671,24.2,2.6,-9.4,7.7,-5.4,-23.1,0.424817652,0.065950499,0.441389203,-0.787591174
347,870307,1640660,-0.468,-0.751,0.659,25.5,2.9,-9.4,7.7,-5.4,-23.1,0.424604022,0.06613361,0.440992462,-0.787896359
348,872385,1640660,-0.464,-0.747,0.663,26.6,3.3,-9.5,7.7,-5.4,-23.1,0.424359874,0.0663472396,0.440595721,-0.788262581
349,876249,1640670,-0.472,-0.739,0.667,27.7,3.8,-9.3,7.7,-5.4,-23.1,0.424115726,0.0665913877,0.440168462,-0.788598285
350,878369,1640670,-0.464,-0.735,0.663,28.8,4.4,-9.1,7.3,-8.4,-23.7,0.423871578,0.0668355358,0.439710685,-0.788964507
351,880557,1640670,-0.464,-0.731,0.663,29.9,5,-8.7,7.3,-8.4,-23.7,0.423657949,0.0671102023,0.439252907,-0.789300211
352,882983,1640670,-0.46,-0.732,0.667,31.1,5.5,-8.3,7.3,-8.4,-23.7,0.4234138,0.0674153874,0.438795129,-0.789666433
353,885137,1640680,-0.456,-0.728,0.666,32.4,5.9,-7.9,7.3,-8.4,-23.7,0.423169652,0.067751091,0.438306833,-0.790032655
354,887478,1640680,-0.444,-0.728,0.666,33.7,6.3,-7.7,7.3,-8.4,-23.7,0.422925504,0.0680867946,0.437788018,-0.790429395
355,889872,1640680,-0.44,-0.72,0.666,34.8,6.6,-7.5,7.3,-8.4,-23.7,0.422681356,0.0684530168,0.437269204,-0.790826136
356,893024,1640680,-0.436,-0.72,0.662,35.8,7,-7.4,7.3,-8.4,-23.7,0.42240669,0.0688497574,0.436719871,-0.791222877
357,895112,1640690,-0.428,-0.705,0.662,36.5,7.6,-7.3,7.3,-8.4,-23.7,0.422162542,0.069246498,0.436170537,-0.791650136
358,897227,1640690,-0.423,-0.697,0.658,37.1,8.3,-7.3,7.3,-8.4,-23.7,0.421887875,0.0696432386,0.435621204,-0.792046876
359,900760,1640690,-0.427,-0.693,0.658,37.6,8.9,-7.3,7.3,-8.4,-23.7,0.421643727,0.0700704978,0.435041353,-0.792443617
360,902362,1640690,-0.423,-0.681,0.65,37.9,9.4,-7.3,7.3,-8.4,-23.7,0.42136906,0.0705282754,0.434492019,-0.792870876
361,905318,1640700,-0.411,-0.678,0.653,38.3,10,-7.1,7.3,-8.4,-23.7,0.421094394,0.070986053,0.433942686,-0.793298135
362,907483,1640700,-0.419,-0.658,0.657,38.5,10.6,-7,7.3,-8.4,-23.7,0.420728172,0.0712302011,0.433332316,-0.793786431
363,909794,1640700,-0.419,-0.658,0.657,38.5,11.2,-6.7,7.3,-8.4,-23.7,0.420453505,0.0717184973,0.432782983,-0.794183172
364,912388,1640700,-0.419,-0.638,0.653,38.1,11.9,-6.6,7.3,-8.4,-23.7,0.42014832,0.0722067934,0.43223365,-0.794579913
365,914730,1640710,-0.415,-0.63,0.646,37.3,12.5,-6.3,7.3,-8.4,-23.7,0.419873653,0.0727256081,0.431714835,-0.794976653
366,918837,1640710,-0.414,-0.623,0.649,36.3,13.3,-6.2,7.8,-6.9,-21.5,0.419568468,0.0732139042,0.43119602,-0.795373394
367,920669,1640710,-0.414,-0.615,0.649,35,13.9,-6.1,7.8,-6.9,-21.5,0.419293802,0.0737327189,0.430738243,-0.795739616
368,922239,1640710,-0.41,-0.599,0.641,33.6,14.6,-6.2,7.8,-6.9,-21.5,0.418988617,0.074221015,0.430280465,-0.79607532
369,925800,1640720,-0.406,-0.595,0.637,32.1,15.1,-6.3,7.8,-6.9,-21.5,0.418683432,0.0747398297,0.429883724,-0.796411023
370,928758,1640720,-0.414,-0.595,0.63,30.4,15.5,-6.2,7.8,-6.9,-21.5,0.418378246,0.0752281259,0.429517502,-0.796716208
371,929733,1640720,-0.406,-0.591,0.633,28.6,16,-6.2,7.8,-6.9,-21.5,0.418073061,0.075716422,0.42915128,-0.797021393
372,933856,1640720,-0.406,-0.591,0.614,26.9,16.5,-6.3,7.8,-6.9,-21.5,0.417767876,0.0761741997,0.428846095,-0.79729606
373,936074,1640730,-0.402,-0.595,0.614,25.3,17.2,-6.3,7.8,-6.9,-21.5,0.417432173,0.0766624958,0.428571429,-0.797570727
374,938409,1640730,-0.402,-0.595,0.618,24,17.7,-6.3,7.8,-6.9,-21.5,0.417126988,0.0771202734,0.42832728,-0.797814875
375,940749,1640730,-0.398,-0.599,0.614,22.9,18.1,-6.6,7.8,-6.9,-21.5,0.416791284,0.0775780511,0.428113651,-0.798059023
376,942832,1640730,-0.399,-0.607,0.606,22.2,18.5,-6.9,7.8,-6.9,-21.5,0.416486099,0.0780358287,0.427900021,-0.798303171
377,944757,1640740,-0.395,-0.607,0.606,21.6,18.9,-7.3,7.8,-6.9,-21.5,0.416119877,0.0784936064,0.42771691,-0.798547319
378,948059,1640740,-0.399,-0.607,0.602,21.1,19.6,-7.6,7.8,-6.9,-21.5,0.415784173,0.078951384,0.427533799,-0.798791467
379,949703,1640740,-0.399,-0.619,0.598,20.6,20.2,-7.9,7.8,-6.9,-21.5,0.415417951,0.0794396802,0.427381207,-0.799005097
380,952333,1640740,-0.399,-0.615,0.59,20.4,20.7,-8.1,7.8,-6.9,-21.5,0.415051729,0.0798974578,0.427228614,-0.799249245
381,955716,1640750,-0.403,-0.623,0.587,20.3,21.1,-8.5,7.8,-6.9,-21.5,0.414654988,0.0803552355,0.427076022,-0.799462874
382,957891,1640750,-0.407,-0.627,0.575,20.4,21.6,-8.8,7.8,-6.9,-21.5,0.414227729,0.0806604205,0.426923429,-0.799737541
383,960157,1640750,-0.403,-0.627,0.571,20.9,22,-9.3,7.8,-6.9,-21.5,0.41380047,0.0811487167,0.426770837,-0.799981689
384,962393,1640750,-0.407,-0.627,0.559,21.5,22.4,-9.7,7.8,-6.9,-21.5,0.413403729,0.0816370128,0.426618244,-0.800225837
385,964701,1640760,-0.407,-0.635,0.559,22.3,22.5,-10,7.8,-6.9,-21.5,0.41297647,0.082186346,0.426435133,-0.800500504
386,967399,1640760,-0.407,-0.635,0.556,23.1,22.5,-10.3,8.8,-8.2,-21.3,0.412549211,0.0826746422,0.426252022,-0.80077517
387,970770,1640760,-0.407,-0.627,0.555,23.9,22.6,-10.6,8.8,-8.2,-21.3,0.412091433,0.0831934568,0.426068911,-0.801049837
388,972953,1640760,-0.403,-0.627,0.548,24.8,22.8,-11.1,8.8,-8.2,-21.3,0.411633656,0.0837122715,0.425855281,-0.801324503
389,975219,1640770,-0.403,-0.615,0.548,25.5,22.9,-11.9,8.8,-8.2,-21.3,0.411175878,0.0842310862,0.425641652,-0.801629688
390,977400,1640770,-0.403,-0.619,0.54,26.2,23.1,-12.7,8.9,-7.8,-20,0.410687582,0.0847499008,0.425397504,-0.801934874
391,979716,1640770,-0.403,-0.603,0.532,26.9,23.2,-13.5,8.9,-7.8,-20,0.410199286,0.0852687155,0.425183874,-0.802270577
392,982312,1640770,-0.403,-0.603,0.528,27.7,23.4,-14.1,8.9,-7.8,-20,0.409680471,0.0858180486,0.424909207,-0.802606281
393,985696,1640780,-0.403,-0.599,0.528,28.4,23.6,-14.8,8.9,-7.8,-20,0.409131138,0.0863368633,0.424665059,-0.802972503
394,987350,1640780,-0.403,-0.592,0.528,29.2,23.7,-15.5,8.9,-8,-19.6,0.408581805,0.086855678,0.424390393,-0.803338725
395,989728,1640780,-0.399,-0.588,0.52,29.8,23.8,-16.2,8.9,-8,-19.6,0.408032472,0.0874050111,0.424115726,-0.803704947
396,993197,1640780,-0.403,-0.588,0.52,30.1,23.9,-17,8.9,-8,-19.6,0.40745262,0.0879238258,0.42384106,-0.804101688
397,994733,1640790,-0.41,-0.576,0.512,30.1,24.2,-17.9,8.9,-8,-19.6,0.40684225,0.088473159,0.423535875,-0.804498428
398,997736,1640790,-0.411,-0.58,0.516,30.1,24.5,-18.7,9.4,-8,-19.3,0.40623188,0.0889614551,0.423261208,-0.804895169
399,1000699,1640790,-0.41,-0.576,0.524,30,24.9,-19.4,9.4,-8,-19.3,0.405590991,0.0895107883,0.42301706,-0.80529191
400,1002238,1640790,-0.41,-0.576,0.528,29.8,25.2,-20.1,9.4,-8,-19.3,0.404950102,0.090029603,0.422742393,-0.805658132
401,1005173,1640800,-0.407,-0.584,0.536,29.5,25.5,-20.8,9.4,-8,-19.3,0.404309214,0.0905484176,0.422498245,-0.806085391
402,1007149,1640800,-0.41,-0.58,0.544,29.2,25.6,-21.4,9.4,-8,-19.3,0.403637806,0.0910672323,0.422254097,-0.80651265
403,1010532,1640800,-0.406,-0.58,0.548,28.7,25.9,-22.1,9.4,-8,-19.3,0.402935881,0.0915860469,0.422009949,-0.806909391
404,1012218,1640800,-0.402,-0.576,0.559,28,26.2,-22.9,9.4,-8,-19.3,0.402233955,0.0920743431,0.421796319,-0.807306131
405,1015729,1640810,-0.406,-0.58,0.559,27,26.6,-23.5,9.4,-8,-19.3,0.401532029,0.0925626392,0.421613208,-0.80773339
406,1017259,1640810,-0.402,-0.58,0.563,25.8,26.9,-24,9,-8.9,-21.4,0.400799585,0.0930509354,0.421430097,-0.808099612
407,1020067,1640810,-0.402,-0.576,0.567,24.4,27.2,-24.6,9,-8.9,-21.4,0.400067141,0.093508713,0.421277505,-0.808496353
408,1023144,1640810,-0.402,-0.58,0.571,23,27.7,-25.3,9,-8.9,-21.4,0.399304178,0.0939664907,0.421185949,-0.808862575
409,1024686,1640820,-0.406,-0.572,0.563,21.7,28,-26,9,-8.9,-21.4,0.398571734,0.0943937498,0.421094394,-0.809228797
410,1027858,1640820,-0.41,-0.572,0.559,20.4,28.4,-26.6,9.4,-8.8,-22,0.397778253,0.0948210089,0.421033357,-0.809564501
411,1029658,1640820,-0.418,-0.571,0.56,19,28.8,-27.2,9.4,-8.8,-22,0.396954253,0.0952787866,0.421002838,-0.809961241
412,1032503,1640820,-0.422,-0.579,0.56,17.4,29.4,-27.8,9.4,-8.8,-22,0.39619129,0.0956755272,0.421002838,-0.810296945
413,1035645,1640830,-0.438,-0.583,0.556,15.8,30,-28.4,9.4,-8.8,-22,0.395397809,0.0961027863,0.421033357,-0.810632649
414,1037279,1640830,-0.442,-0.587,0.56,14.4,30.6,-28.7,9.7,-8.7,-23.1,0.394573809,0.096499527,0.421094394,-0.810937834
415,1039706,1640830,-0.446,-0.594,0.556,13.1,31.1,-29.1,9.7,-8.7,-23.1,0.393749809,0.0968962676,0.421216468,-0.811243019
416,1042626,1640830,-0.458,-0.598,0.557,12,31.6,-29.4,9.7,-8.7,-23.1,0.392895291,0.0972624897,0.421338542,-0.811548204
417,1044841,1640840,-0.458,-0.606,0.561,10.8,32.1,-29.7,9.7,-8.7,-23.1,0.392040773,0.0976592303,0.421460616,-0.811822871
418,1047912,1640840,-0.466,-0.606,0.565,9.7,32.4,-30,9.9,-8.7,-23.8,0.391216773,0.0980559709,0.421643727,-0.812097537
419,1049657,1640840,-0.47,-0.598,0.561,8.4,32.8,-30.3,9.9,-8.7,-23.8,0.390331736,0.0984221931,0.421826838,-0.812372204
420,1053167,1640840,-0.474,-0.598,0.557,7.1,33.1,-30.7,9.9,-8.7,-23.8,0.389477218,0.0987884152,0.422070986,-0.812616352
421,1054706,1640850,-0.482,-0.586,0.553,5.7,33.5,-31.1,9.9,-8.7,-23.8,0.388592181,0.0991546373,0.422315134,-0.8128605
422,1057746,1640850,-0.486,-0.59,0.542,4.3,33.8,-31.4,9.9,-8.7,-23.8,0.387707144,0.0995208594,0.422711875,-0.813043611
423,1060837,1640850,-0.486,-0.59,0.542,2.9,34,-31.6,9.9,-8.7,-23.8,0.386822108,0.099856563,0.42301706,-0.813257241
424,1062430,1640850,-0.494,-0.586,0.526,1.7,34,-31.9,9.9,-8.7,-23.8,0.385937071,0.100192267,0.423352763,-0.81347087
425,1064662,1640860,-0.494,-0.589,0.53,0.6,34,-32.2,9.9,-8.7,-23.8,0.385052034,0.100497452,0.423688467,-0.8136845
426,1067828,1640860,-0.498,-0.593,0.53,-0.1,34,-32.6,10.8,-8.5,-21.4,0.384136479,0.100802637,0.424054689,-0.813867611
427,1070017,1640860,-0.498,-0.597,0.527,-0.9,34.1,-33.1,10.8,-8.5,-21.4,0.383251442,0.101077303,0.424420911,-0.81408124
428,1072945,1640860,-0.506,-0.601,0.531,-1.5,34.2,-33.5,10.8,-8.5,-21.4,0.382335887,0.101382488,0.424817652,-0.814264351
429,1074787,1640870,-0.506,-0.609,0.535,-1.9,34.2,-33.9,10.8,-8.5,-21.4,0.381420331,0.101657155,0.425214393,-0.814447462
430,1078180,1640870,-0.506,-0.613,0.531,-2.1,34.2,-34.3,10.6,-8.1,-21.7,0.380504776,0.101931822,0.425611133,-0.814630573
431,1079799,1640870,-0.51,-0.624,0.539,-2.3,34.3,-34.9,10.6,-8.1,-21.7,0.379558702,0.102145451,0.426007874,-0.814844203
432,1082945,1640870,-0.518,-0.62,0.547,-2.2,34.6,-35.5,10.6,-8.1,-21.7,0.378612629,0.102450636,0.426404614,-0.815027314
433,1086000,1640880,-0.522,-0.62,0.547,-1.9,34.7,-36,10.6,-8.1,-21.7,0.377636036,0.102725303,0.426831874,-0.815240944
434,1087348,1640880,-0.518,-0.62,0.551,-1.3,34.8,-36.5,11.2,-8.3,-21.6,0.376689962,0.102999969,0.427198096,-0.815454573
435,1090356,1640880,-0.522,-0.628,0.555,-0.6,34.8,-36.9,11.2,-8.3,-21.6,0.375682852,0.103274636,0.427594836,-0.815668203
436,1092154,1640880,-0.526,-0.628,0.555,-0.1,34.9,-37.2,11.2,-8.3,-21.6,0.374706259,0.103518784,0.427961058,-0.815881832
437,1095650,1640890,-0.522,-0.624,0.555,0.3,34.9,-37.4,11.2,-8.3,-21.6,0.373699149,0.103823969,0.42832728,-0.81612598
438,1097128,1640890,-0.526,-0.628,0.559,0.8,35.1,-37.7,11.5,-8.3,-21.6,0.372722556,0.104098636,0.428693503,-0.81633961
439,1100244,1640890,-0.53,-0.616,0.57,1.5,35.2,-38.1,11.5,-8.3,-21.6,0.371684927,0.104373302,0.429029206,-0.816583758
440,1103182,1640890,-0.534,-0.624,0.578,2.3,35.2,-38.5,11.5,-8.3,-21.6,0.370677816,0.104647969,0.42936491,-0.816858425
441,1104729,1640900,-0.538,-0.62,0.582,3,35.3,-38.7,11.5,-8.3,-21.6,0.369609668,0.104953154,0.429670095,-0.817102573
442,1107906,1640900,-0.542,-0.616,0.594,3.5,35.7,-38.8,11.5,-8.3,-21.6,0.368633076,0.105410932,0.430097354,-0.817285684
443,1110706,1640900,-0.546,-0.612,0.598,4,36,-38.7,11.5,-8.3,-21.6,0.367595447,0.105716117,0.430402539,-0.81756035
444,1112281,1640900,-0.549,-0.608,0.598,4.3,36.3,-38.7,11.5,-8.3,-21.6,0.366557817,0.10605182,0.430707724,-0.817804498
445,1115265,1640910,-0.553,-0.604,0.602,4.4,36.4,-38.6,11.5,-8.3,-21.6,0.365520188,0.106357006,0.431012909,-0.818079165
446,1117153,1640910,-0.565,-0.6,0.607,4.4,36.6,-38.5,12.3,-8.1,-21.2,0.364482559,0.106692709,0.431318094,-0.818353832
447,1120645,1640910,-0.569,-0.599,0.607,4.4,36.7,-38.3,12.3,-8.1,-21.2,0.363444929,0.107028413,0.43162328,-0.81859798
448,1122306,1640910,-0.573,-0.595,0.615,4.2,36.9,-38.1,12.3,-8.1,-21.2,0.3624073,0.107364116,0.431928465,-0.818872646
449,1125743,1640920,-0.573,-0.591,0.618,4,37.1,-37.8,12.3,-8.1,-21.2,0.361369671,0.10769982,0.43223365,-0.819116794
450,1127349,1640920,-0.577,-0.599,0.611,3.7,37.3,-37.7,12.9,-7.8,-21.1,0.360332041,0.108005005,0.432538835,-0.819360942
451,1129657,1640920,-0.577,-0.595,0.615,3.2,37.5,-37.6,12.9,-7.8,-21.1,0.359294412,0.108371227,0.432874538,-0.81960509
452,1132301,1640920,-0.577,-0.595,0.622,2.6,37.6,-37.6,12.9,-7.8,-21.1,0.358256783,0.108706931,0.433210242,-0.81981872
453,1135472,1640930,-0.577,-0.591,0.619,2,37.7,-37.5,12.9,-7.8,-21.1,0.357219153,0.109042634,0.433545946,-0.820062868
454,1137203,1640930,-0.585,-0.595,0.619,1.3,37.8,-37.4,13.4,-7.6,-21.1,0.356181524,0.109378338,0.433912168,-0.820276498
455,1139590,1640930,-0.585,-0.595,0.619,0.7,37.9,-37.1,13.4,-7.6,-21.1,0.355174413,0.109714042,0.43427839,-0.820459609
456,1142367,1640930,-0.585,-0.591,0.623,0.3,38,-36.7,13.4,-7.6,-21.1,0.354136784,0.110049745,0.43467513,-0.820673238
457,1145522,1640940,-0.593,-0.591,0.623,-0.1,38.2,-36.3,13.4,-7.6,-21.1,0.353129673,0.110385449,0.435041353,-0.820856349
458,1147717,1640940,-0.593,-0.591,0.627,-0.5,38.4,-35.9,13.4,-7.5,-20.9,0.352122562,0.110721152,0.435438093,-0.82103946
459,1149983,1640940,-0.589,-0.587,0.627,-0.9,38.5,-35.3,13.4,-7.5,-20.9,0.351115452,0.111087374,0.435834834,-0.821192053
460,1152253,1640940,-0.593,-0.587,0.619,-1.5,38.8,-35,13.4,-7.5,-20.9,0.350138859,0.111423078,0.436231574,-0.821344646
461,1154718,1640950,-0.605,-0.579,0.611,-2.1,38.9,-34.7,13.4,-7.5,-20.9,0.349131748,0.1117893,0.436658834,-0.821497238
462,1158170,1640950,-0.616,-0.575,0.616,-2.7,39,-34.4,13.4,-7.5,-20.9,0.348429823,0.112674337,0.436902982,-0.821558275
463,1159679,1640950,-0.616,-0.575,0.616,-3.3,39,-33.9,13.4,-7.5,-20.9,0.34745323,0.113010041,0.437360759,-0.821680349
464,1162834,1640950,-0.616,-0.563,0.616,-4,39.1,-33.4,13.4,-7.5,-20.9,0.346476638,0.113376263,0.437788018,-0.821802423
465,1164891,1640960,-0.624,-0.559,0.612,-5,39.1,-32.8,13.4,-7.5,-20.9,0.345530564,0.113711966,0.438276315,-0.821924497
466,1167177,1640960,-0.624,-0.551,0.6,-6.3,39,-32.1,13.9,-7.6,-20.6,0.344615009,0.11404767,0.438764611,-0.821985534
467,1171121,1640960,-0.624,-0.543,0.596,-7.6,38.6,-31.5,13.9,-7.6,-20.6,0.343699454,0.114352855,0.439252907,-0.82207709
468,1173293,1640960,-0.628,-0.547,0.589,-8.8,38.2,-31,13.9,-7.6,-20.6,0.342783898,0.114719077,0.439771722,-0.822107608
469,1174886,1640970,-0.632,-0.543,0.596,-9.8,37.8,-30.6,13.9,-7.6,-20.6,0.341898862,0.115024262,0.440321055,-0.822168645
470,1177152,1640970,-0.636,-0.547,0.593,-10.6,37.5,-30.3,14.5,-7.8,-20.7,0.341013825,0.115329447,0.440870388,-0.822199164
471,1179714,1640970,-0.636,-0.551,0.593,-11.2,37.3,-30,14.5,-7.8,-20.7,0.340159307,0.115634632,0.441419721,-0.822199164
472,1183101,1640970,-0.644,-0.566,0.601,-11.6,37,-29.7,14.5,-7.8,-20.7,0.33927427,0.115909299,0.441969054,-0.822229682
473,1184651,1640980,-0.652,-0.574,0.601,-11.7,36.5,-29.2,14.5,-7.8,-20.7,0.33845027,0.116214484,0.442548906,-0.822229682
474,1187874,1640980,-0.652,-0.578,0.609,-11.5,36,-28.9,14.1,-7.3,-20.5,0.337595752,0.116489151,0.443098239,-0.822229682
475,1190171,1640980,-0.66,-0.578,0.605,-11,35.4,-28.5,14.1,-7.3,-20.5,0.336771752,0.116763817,0.443617054,-0.822260201
476,1192433,1640980,-0.668,-0.589,0.613,-10.3,35,-28,14.1,-7.3,-20.5,0.335947752,0.117038484,0.444135868,-0.822260201
477,1194756,1640990,-0.676,-0.589,0.613,-9.5,34.5,-27.5,14.1,-7.3,-20.5,0.335154271,0.117343669,0.444624165,-0.822290719
478,1197212,1640990,-0.672,-0.589,0.609,-8.6,33.9,-27.1,13.6,-7.4,-20.6,0.33436079,0.117618336,0.445112461,-0.822321238
479,1200694,1640990,-0.68,-0.593,0.61,-7.5,33.2,-26.8,13.6,-7.4,-20.6,0.333567309,0.117893002,0.44553972,-0.822351756
480,1202490,1640990,-0.688,-0.593,0.614,-6.2,32.4,-26.5,13.6,-7.4,-20.6,0.332804346,0.118167669,0.445966979,-0.822412793
481,1204855,1641000,-0.688,-0.589,0.618,-4.8,31.7,-26.1,13.6,-7.4,-20.6,0.332041383,0.118442335,0.446333201,-0.82247383
482,1207463,1641000,-0.696,-0.593,0.618,-3.4,31,-25.6,13.6,-7.4,-20.6,0.331583605,0.119327372,0.446546831,-0.822412793
483,1210733,1641000,-0.704,-0.585,0.622,-2,30.3,-25.3,13.6,-7.4,-20.6,0.330820643,0.119602039,0.446882534,-0.822504349
484,1212253,1641000,-0.7,-0.585,0.626,-0.5,29.7,-24.8,13.6,-7.4,-20.6,0.330088198,0.119907224,0.447157201,-0.822595904
485,1214818,1641010,-0.704,-0.585,0.626,0.9,28.9,-24.3,13.6,-7.4,-20.6,0.329386273,0.12018189,0.447401349,-0.82268746
486,1218249,1641010,-0.708,-0.584,0.634,2.4,28.2,-23.7,12,-7.7,-20.9,0.328653829,0.120487075,0.447645497,-0.822809534
487,1219757,1641010,-0.715,-0.572,0.646,3.8,27.5,-23.2,12,-7.7,-20.9,0.327982421,0.120761742,0.447828608,-0.822962127
488,1222837,1641010,-0.715,-0.561,0.649,5.1,26.7,-22.6,12,-7.7,-20.9,0.327280496,0.121066927,0.447981201,-0.823084201
489,1225859,1641020,-0.719,-0.557,0.653,6.1,25.7,-21.9,12,-7.7,-20.9,0.326609088,0.121372112,0.448103275,-0.823236793
490,1227374,1641020,-0.719,-0.553,0.65,7,24.9,-21.3,11.7,-7.6,-20.2,0.3259682,0.121646779,0.448225349,-0.823389386
491,1229704,1641020,-0.723,-0.541,0.642,7.7,24,-20.7,11.7,-7.6,-20.2,0.32535783,0.121921445,0.448316904,-0.823572497
492,1232135,1641020,-0.719,-0.537,0.638,8,23.1,-20,11.7,-7.6,-20.2,0.324747459,0.122165593,0.448377941,-0.823725089
493,1235634,1641030,-0.719,-0.533,0.642,8.1,22,-19.4,11.7,-7.6,-20.2,0.324167608,0.122470779,0.448438978,-0.823877682
494,1237179,1641030,-0.719,-0.533,0.642,8.1,20.9,-18.7,11.2,-7.1,-20.7,0.323587756,0.122714927,0.448500015,-0.824030274
495,1239691,1641030,-0.711,-0.533,0.626,8,19.9,-18,11.2,-7.1,-20.7,0.323038423,0.122959075,0.448530534,-0.824182867
496,1243161,1641030,-0.715,-0.525,0.622,7.7,18.9,-17.2,11.2,-7.1,-20.7,0.322519608,0.123142186,0.448591571,-0.824335459
497,1244680,1641040,-0.711,-0.529,0.618,7.4,17.9,-16.5,11.2,-7.1,-20.7,0.322031312,0.123386334,0.448622089,-0.824457533
498,1247185,1641040,-0.711,-0.537,0.614,7,17.1,-15.8,11.9,-7,-20.9,0.321573534,0.123599963,0.448652608,-0.824610126
499,1250652,1641040,-0.711,-0.533,0.61,6.6,16.3,-15.1,11.9,-7,-20.9,0.321115757,0.123783074,0.448683126,-0.8247322
500,1252172,1641040,-0.711,-0.529,0.61,6.1,15.6,-14.4,11.9,-7,-20.9,0.320688498,0.123966185,0.448713645,-0.824854274
501,1254639,1641050,-0.711,-0.525,0.61,5.6,14.9,-13.6,11.9,-7,-20.9,0.320291757,0.124118778,0.448774682,-0.824976348
502,1258139,1641050,-0.715,-0.51,0.618,5.1,14.2,-12.8,11.9,-7,-20.9,0.320535905,0.125492111,0.448377941,-0.824884793
503,1259588,1641050,-0.719,-0.513,0.614,4.6,13.4,-11.9,11.9,-7,-20.9,0.320169683,0.125675222,0.44840846,-0.824976348
504,1262687,1641050,-0.722,-0.505,0.614,4.2,12.5,-11.1,11.9,-7,-20.9,0.319833979,0.125797296,0.448438978,-0.825067904
505,1265653,1641060,-0.718,-0.502,0.61,4,11.6,-10.6,11.9,-7,-20.9,0.319528794,0.125949889,0.448500015,-0.825128941
506,1267175,1641060,-0.722,-0.49,0.614,3.8,10.6,-10.1,14.8,-5.6,-20.2,0.319223609,0.126071963,0.448530534,-0.825189978
507,1269627,1641060,-0.726,-0.486,0.618,3.6,9.6,-9.7,14.8,-5.6,-20.2,0.318948943,0.126163518,0.448561052,-0.825281533
508,1273136,1641060,-0.722,-0.478,0.63,3.4,8.5,-9.1,14.8,-5.6,-20.2,0.318674276,0.126255074,0.448561052,-0.825373089
509,1274682,1641070,-0.73,-0.474,0.638,3.1,7.3,-8.4,14.8,-5.6,-20.2,0.318460646,0.126316111,0.448591571,-0.825434126
510,1277219,1641070,-0.738,-0.47,0.642,2.8,6.1,-7.7,15.8,-5.4,-20.2,0.318247017,0.126377148,0.448591571,-0.825495163
511,1280578,1641070,-0.746,-0.477,0.642,2.4,4.9,-7,15.8,-5.4,-20.2,0.318063906,0.126407666,0.448622089,-0.8255562
512,1282192,1641070,-0.758,-0.481,0.65,2,3.7,-6.4,15.8,-5.4,-20.2,0.317911313,0.126438185,0.448622089,-0.825617237
513,1284612,1641080,-0.777,-0.485,0.663,1.6,2.6,-6,15.8,-5.4,-20.2,0.317758721,0.126438185,0.448622089,-0.825678274
514,1288047,1641080,-0.789,-0.484,0.667,1.2,1.4,-5.5,15.9,-5.3,-20.3,0.317636647,0.126407666,0.448622089,-0.825708792
515,1289830,1641080,-0.797,-0.476,0.675,0.8,0.3,-5.1,15.9,-5.3,-20.3,0.317545091,0.126377148,0.448622089,-0.825769829
516,1292156,1641080,-0.813,-0.476,0.679,0.2,-0.5,-4.7,15.9,-5.3,-20.3,0.317484054,0.126316111,0.448622089,-0.825800348
517,1295649,1641090,-0.844,-0.463,0.696,-0.4,-1.4,-4.3,15.9,-5.3,-20.3,0.317392499,0.126255074,0.448622089,-0.825830866
518,1297909,1641090,-0.856,-0.455,0.696,-1,-2.1,-4,16.4,-5.7,-20.2,0.31736198,0.126163518,0.448652608,-0.825861385
519,1300150,1641090,-0.864,-0.451,0.708,-1.6,-2.9,-3.5,16.4,-5.7,-20.2,0.317331462,0.126071963,0.448683126,-0.825861385
520,1302304,1641090,-0.876,-0.447,0.716,-2.3,-3.9,-3,16.4,-5.7,-20.2,0.317300943,0.125949889,0.448683126,-0.825861385
521,1304858,1641100,-0.895,-0.427,0.72,-3.1,-4.9,-2.4,16.4,-5.7,-20.2,0.317331462,0.125827815,0.448713645,-0.825861385
522,1307114,1641100,-0.903,-0.415,0.72,-4.2,-6,-1.7,16.4,-5.7,-20.2,0.31736198,0.125644704,0.448774682,-0.825861385
523,1310635,1641100,-0.915,-0.411,0.721,-5.4,-7.1,-1,16.4,-5.7,-20.2,0.317423017,0.125492111,0.4488052,-0.825830866
524,1312187,1641100,-0.923,-0.395,0.725,-6.8,-8,-0.2,16.4,-5.7,-20.2,0.317514573,0.125278481,0.448866237,-0.825800348
525,1314845,1641110,-0.922,-0.387,0.733,-8.3,-9.1,0.6,16.4,-5.7,-20.2,0.317667165,0.125064852,0.448957793,-0.825739311
526,1318174,1641110,-0.926,-0.383,0.729,-9.8,-10.3,1.6,14.6,-7.1,-20.3,0.317819758,0.124820704,0.449079867,-0.825647755
527,1319705,1641110,-0.934,-0.379,0.737,-11.2,-11.6,2.7,14.6,-7.1,-20.3,0.318002869,0.124576556,0.449171422,-0.8255562
528,1322303,1641110,-0.942,-0.378,0.737,-12.4,-12.9,3.9,14.6,-7.1,-20.3,0.318247017,0.124301889,0.449293497,-0.825434126
529,1325454,1641120,-0.95,-0.374,0.745,-13.4,-14.2,5.3,14.6,-7.1,-20.3,0.318521683,0.123996704,0.449446089,-0.825312052
530,1327121,1641120,-0.954,-0.362,0.745,-14.4,-15.4,6.8,14.9,-7.8,-20.5,0.318826868,0.123691519,0.449568163,-0.825159459
531,1330746,1641120,-0.958,-0.366,0.745,-15.3,-16.5,8.5,14.9,-7.8,-20.5,0.319193091,0.123355815,0.449690237,-0.825006867
532,1332408,1641120,-0.974,-0.362,0.746,-16.1,-17.7,10.2,14.9,-7.8,-20.5,0.319589831,0.123020112,0.44984283,-0.824823756
533,1335589,1641130,-0.982,-0.362,0.75,-16.7,-18.9,12.1,14.9,-7.8,-20.5,0.320047609,0.12265389,0.449995422,-0.824610126
534,1337223,1641130,-0.985,-0.354,0.754,-17,-20.4,14.2,14.2,-8.6,-20.7,0.320535905,0.122348704,0.450117496,-0.824396496
535,1340872,1641130,-0.993,-0.346,0.758,-17.1,-21.9,16.3,14.2,-8.6,-20.7,0.321085238,0.121982482,0.450209052,-0.824182867
536,1342609,1641130,-1.005,-0.342,0.754,-17,-23.6,18.5,14.2,-8.6,-20.7,0.321695608,0.12161626,0.450300607,-0.823938719
537,1344855,1641140,-1.013,-0.334,0.758,-16.8,-25.4,20.7,14.2,-8.6,-20.7,0.322367016,0.121250038,0.450392163,-0.823694571
538,1347584,1641140,-1.017,-0.322,0.758,-16.5,-27.3,22.8,14,-9.2,-20.7,0.32309946,0.120883816,0.450422681,-0.823450423
539,1350614,1641140,-1.036,-0.313,0.763,-16.3,-29.4,24.9,14,-9.2,-20.7,0.323862423,0.120487075,0.4504532,-0.823175756
540,1352108,1641140,-1.044,-0.305,0.751,-16,-31.5,27,14,-9.2,-20.7,0.324686422,0.120059816,0.450422681,-0.822931608
541,1355169,1641150,-1.06,-0.297,0.759,-15.5,-33.7,29.3,14,-9.2,-20.7,0.325601978,0.119632557,0.450392163,-0.822656941
542,1357231,1641150,-1.087,-0.277,0.756,-14.8,-35.9,31.5,14,-5.2,-19.4,0.32657857,0.11917478,0.450331126,-0.822382275
543,1361269,1641150,-1.095,-0.269,0.749,-13.7,-38.2,33.7,14,-5.2,-19.4,0.327585681,0.11874752,0.450209052,-0.822107608
544,1363354,1641150,-1.115,-0.257,0.761,-12.5,-40.4,35.9,14,-5.2,-19.4,0.328653829,0.118259224,0.450056459,-0.821832942
545,1365510,1641160,-1.123,-0.249,0.765,-11.1,-42.8,37.9,14,-5.2,-19.4,0.329783013,0.117770928,0.44984283,-0.821558275
546,1367495,1641160,-1.138,-0.236,0.769,-9.6,-45,40,14,-8.3,-21.9,0.330973235,0.117282632,0.449598682,-0.821283609
547,1369822,1641160,-1.162,-0.22,0.778,-8,-47.1,42,14,-8.3,-21.9,0.332193976,0.116794336,0.449293497,-0.821008942
548,1372051,1641160,-1.177,-0.208,0.79,-6.3,-49.3,44.2,14,-8.3,-21.9,0.333506272,0.11630604,0.448927274,-0.820764794
549,1375846,1641170,-1.189,-0.2,0.786,-4.6,-51.3,46.2,14,-8.3,-21.9,0.334849086,0.115817743,0.448530534,-0.820520646
550,1377507,1641170,-1.205,-0.184,0.79,-2.9,-53.3,48.1,13.1,-8.2,-21.8,0.336222419,0.115329447,0.448072756,-0.820276498
551,1379875,1641170,-1.236,-0.163,0.807,-1.2,-55.2,50.2,13.1,-8.2,-21.8,0.337687307,0.114810633,0.447553941,-0.82003235
552,1382083,1641170,-1.244,-0.155,0.819,0.3,-57,51.9,13.1,-8.2,-21.8,0.339152196,0.114291818,0.447004608,-0.819788202
553,1384872,1641180,-1.268,-0.143,0.823,1.9,-58.7,53.8,13.1,-8.2,-21.8,0.340678121,0.113803522,0.446394238,-0.819544053
554,1388502,1641180,-1.283,-0.127,0.835,3.2,-60.3,55.5,13.1,-7.8,-21.8,0.342265084,0.113284707,0.445753349,-0.819299905
555,1390932,1641180,-1.295,-0.115,0.839,4.4,-62,57.4,13.1,-7.8,-21.8,0.343882565,0.112765893,0.445051424,-0.819086276
556,1392448,1641180,-1.307,-0.111,0.848,5.2,-63.5,59.1,13.1,-7.8,-21.8,0.345530564,0.112247078,0.444349498,-0.818842128
557,1394649,1641190,-1.31,-0.103,0.848,5.5,-64.9,60.7,13.1,-7.8,-21.8,0.347239601,0.111697745,0.443617054,-0.81859798
558,1398663,1641190,-1.322,-0.087,0.867,5.3,-66.1,62,12.5,-7,-22.1,0.348979156,0.11117893,0.442854091,-0.818323313
559,1400958,1641190,-1.334,-0.082,0.864,4.8,-67,63.3,12.5,-7,-22.1,0.350749229,0.110629597,0.442121647,-0.818048647
560,1403241,1641190,-1.338,-0.067,0.879,3.9,-67.8,64.4,12.5,-7,-22.1,0.352549821,0.110049745,0.441358684,-0.81777398
561,1405456,1641200,-1.341,-0.047,0.887,3,-68.3,65.5,12.5,-7,-22.1,0.354350414,0.109469893,0.44062624,-0.817468795
562,1407683,1641200,-1.344,-0.007,0.911,2.1,-68.8,66.5,11.9,-7.6,-20,0.356212043,0.10892056,0.439893796,-0.817133091
563,1410086,1641200,-1.344,0.011,0.911,1.2,-69.2,67.4,11.9,-7.6,-20,0.358073672,0.108340709,0.439161351,-0.816766869
564,1412242,1641200,-1.348,0.027,0.915,0.4,-69.6,68.2,11.9,-7.6,-20,0.359935301,0.107760857,0.438459426,-0.816400647
565,1416008,1641210,-1.351,0.047,0.915,-0.4,-69.9,68.9,11.9,-7.6,-20,0.361857967,0.107181005,0.4377575,-0.816034425
566,1417615,1641210,-1.359,0.055,0.907,-1.2,-70.2,69.5,11.3,-7.6,-22.3,0.363750114,0.106540117,0.437055574,-0.815637684
567,1419856,1641210,-1.367,0.063,0.896,-2.1,-70.2,69.9,11.3,-7.6,-22.3,0.365672781,0.105960265,0.436384167,-0.815210425
568,1422111,1641210,-1.379,0.067,0.888,-3.3,-70.1,70.2,11.3,-7.6,-22.3,0.367595447,0.105380413,0.43571276,-0.814783166
569,1425553,1641220,-1.399,0.075,0.857,-4.8,-70,70.6,11.3,-7.6,-22.3,0.369518113,0.104770043,0.435071871,-0.814325388
570,1427177,1641220,-1.419,0.091,0.862,-6.4,-70,71,10.9,-8,-22.1,0.371471297,0.104098636,0.434461501,-0.813867611
571,1429948,1641220,-1.434,0.104,0.854,-7.8,-70,71.3,10.9,-8,-22.1,0.373424482,0.103488266,0.433881649,-0.813348796
572,1433113,1641220,-1.454,0.116,0.855,-8.8,-69.9,71.3,10.9,-8,-22.1,0.375377667,0.102877895,0.433301798,-0.8128605
573,1435351,1641230,-1.485,0.148,0.84,-9.4,-69.9,71.1,10.9,-8,-22.1,0.377300333,0.102206488,0.432721946,-0.812341685
574,1437666,1641230,-1.505,0.172,0.829,-9.6,-70.1,70.6,10.3,-8,-22.1,0.379253517,0.1015656,0.432172613,-0.811822871
575,1439675,1641230,-1.524,0.196,0.813,-9.8,-70.4,70,10.3,-8,-22.1,0.381176183,0.100894192,0.431592761,-0.811304056
576,1442793,1641230,-1.54,0.212,0.802,-9.8,-70.9,69.4,10.3,-8,-22.1,0.383098849,0.100192267,0.431012909,-0.810785241
577,1445789,1641240,-1.596,0.237,0.76,-10,-71.5,69,10.3,-8,-22.1,0.384990997,0.0995208594,0.430463576,-0.810266427
578,1447335,1641240,-1.619,0.233,0.749,-10.2,-72.3,68.8,9.7,-8.5,-22,0.386913663,0.0987884152,0.429883724,-0.809747612
579,1450803,1641240,-1.659,0.25,0.727,-10.6,-73,68.7,9.7,-8.5,-22,0.388836329,0.0980559709,0.429303873,-0.809228797
580,1452352,1641240,-1.706,0.271,0.716,-11.5,-73.5,68.5,9.7,-8.5,-22,0.390758995,0.0972624897,0.428724021,-0.808679464
581,1455310,1641250,-1.723,0.2,0.705,-13.1,-74.1,67.6,9.7,-8.5,-22,0.392681661,0.096499527,0.428174688,-0.808130131
582,1457039,1641250,-1.747,0.236,0.686,-14.1,-74.9,65.3,9.4,-8.4,-22.4,0.394573809,0.0956755272,0.427655873,-0.807611316
583,1460374,1641250,-1.782,0.269,0.683,-13.8,-75.6,61.1,9.4,-8.4,-22.4,0.396374401,0.0947904904,0.42710654,-0.807092502
584,1462331,1641250,-1.794,0.281,0.707,-11.8,-76.1,55.3,9.4,-8.4,-22.4,0.398083438,0.0938444166,0.426557207,-0.806665242
585,1465631,1641260,-1.852,0.345,0.712,-9.1,-76.6,49.3,9.4,-8.4,-22.4,0.3996704,0.0928678243,0.425946837,-0.80629902
586,1467202,1641260,-1.88,0.353,0.682,-7.1,-77,44.4,9,-8.8,-20.2,0.401196326,0.091891232,0.425305948,-0.806024354
587,1469551,1641260,-1.888,0.357,0.674,-6.3,-77.2,41.2,9,-8.8,-20.2,0.402661214,0.0908536027,0.424665059,-0.805749687
588,1472439,1641260,-1.931,0.382,0.679,-7,-77,39.7,9,-8.8,-20.2,0.404065065,0.0898159734,0.424024171,-0.805475021
589,1475503,1641270,-1.967,0.387,0.684,-8.2,-76.1,40.1,9,-8.8,-20.2,0.405499435,0.0887783441,0.4234138,-0.805200354
590,1477104,1641270,-2.006,0.384,0.701,-9,-74,42.3,8,-9,-19.2,0.406933805,0.0877712333,0.422833949,-0.804895169
591,1479969,1641270,-2.05,0.369,0.718,-9,-70.7,45.3,8,-9,-19.2,0.408398694,0.0868861965,0.422284616,-0.804528947
592,1483822,1641270,-2.11,0.367,0.743,-8.9,-66.6,47.3,8,-9,-19.2,0.409863582,0.0860316782,0.421765801,-0.804162725
593,1485359,1641280,-2.13,0.351,0.751,-9.1,-62.3,46.8,8,-9,-19.2,0.411297952,0.0853297525,0.421277505,-0.803765984
594,1487572,1641280,-2.17,0.34,0.74,-9.4,-58.2,43.7,7.8,-8.9,-19.2,0.41257973,0.0846278268,0.420850246,-0.803399762
595,1490653,1641280,-2.23,0.287,0.746,-9.4,-54.5,38.4,7.8,-8.9,-19.2,0.41380047,0.0839259011,0.420453505,-0.803064058
596,1492084,1641280,-2.25,0.248,0.77,-8.4,-50.8,32.1,7.8,-8.9,-19.2,0.414838099,0.0832544939,0.420056764,-0.802789392
597,1494990,1641290,-2.263,0.209,0.775,-5.8,-47.2,25.2,7.8,-8.9,-19.2,0.415723136,0.0826136052,0.419690542,-0.802575762
598,1498079,1641290,-2.256,0.162,0.767,-1.8,-43.7,18,7.7,-9,-19,0.41645558,0.082003235,0.419293802,-0.802484207
599,1499755,1641290,-2.21,0.074,0.727,3.2,-40.4,10.1,7.7,-9,-19,0.416974395,0.0813928648,0.418866543,-0.802484207
600,1503367,1641290,-2.159,0.022,0.702,9.2,-37.6,1.4,7.7,-9,-19,0.417340617,0.0808435316,0.418347728,-0.802636799
601,1504763,1641300,-2.124,-0.033,0.689,16.2,-35.1,-7.9,7.7,-9,-19,0.41749321,0.0802941984,0.417767876,-0.802911466
602,1507862,1641300,-2.026,-0.114,0.687,24.7,-32.7,-17.6,6.7,-9.3,-23.3,0.417432173,0.0798059023,0.41706595,-0.803369243
603,1510009,1641300,-1.975,-0.166,0.682,34.8,-30.4,-27.2,6.7,-9.3,-23.3,0.417188025,0.0793176061,0.416211432,-0.803979614
604,1513459,1641300,-1.928,-0.187,0.673,46.4,-28.1,-36.3,6.7,-9.3,-23.3,0.416699728,0.0789208655,0.415204321,-0.804773095
605,1515814,1641310,-1.901,-0.196,0.618,58.4,-25.9,-45.1,6.7,-9.3,-23.3,0.41605884,0.0785851619,0.4140141,-0.805749687
606,1517280,1641310,-1.861,-0.189,0.57,69.9,-23.8,-53.7,7.1,-9.2,-21.3,0.415204321,0.0783410138,0.412671285,-0.806909391
607,1521225,1641310,-1.837,-0.17,0.553,81.1,-21.8,-62.1,7.1,-9.2,-21.3,0.414166692,0.0781273843,0.41114536,-0.808252205
608,1523533,1641310,-1.797,-0.147,0.537,92.9,-20.4,-70.1,7.1,-9.2,-21.3,0.412945952,0.0779747917,0.409436323,-0.809747612
609,1525700,1641320,-1.753,-0.117,0.516,105.6,-19.7,-77.9,7.1,-9.2,-21.3,0.411572619,0.0778832362,0.407544176,-0.81142613
610,1527833,1641320,-1.654,-0.08,0.435,119,-19.9,-85.5,7,-9.8,-21.9,0.410016175,0.0778221992,0.405377361,-0.813287759
611,1529726,1641320,-1.606,-0.073,0.391,131.6,-21,-93.2,7,-9.8,-21.9,0.408337657,0.0777916807,0.403027436,-0.815301981
612,1533077,1641320,-1.547,-0.063,0.346,142.9,-22.6,-101.3,7,-9.8,-21.9,0.406476028,0.0777916807,0.400433363,-0.817499313
613,1534742,1641330,-1.487,-0.032,0.317,151.9,-24.6,-109.9,7,-9.8,-21.9,0.404492325,0.0777306436,0.397686697,-0.819849239
614,1537713,1641330,-1.355,0.019,0.313,158.7,-26.3,-119.1,7.4,-10.4,-22,0.402294992,0.0776390881,0.394817957,-0.822321238
615,1539720,1641330,-1.283,0.056,0.335,163,-27.4,-128.9,7.4,-10.4,-22,0.399945067,0.0774559771,0.391857662,-0.824884793
616,1544032,1641330,-1.219,0.094,0.376,164.9,-27.7,-138.8,7.4,-10.4,-22,0.39741203,0.077211829,0.388897366,-0.827539903
617,1546112,1641340,-1.155,0.124,0.413,164.4,-26.8,-148.7,7.4,-10.4,-22,0.394665365,0.0768761254,0.385937071,-0.83025605
618,1547752,1641340,-1.026,0.196,0.488,161.6,-25.2,-158.8,7.1,-11.1,-21.3,0.391705069,0.0764793847,0.383068331,-0.833002716
619,1549912,1641340,-0.958,0.222,0.536,156.4,-23.1,-168.9,7.1,-11.1,-21.3,0.388561663,0.0759910886,0.380291147,-0.835810419
620,1552108,1641340,-0.882,0.244,0.581,148.8,-21.1,-179.2,7.1,-11.1,-21.3,0.385235145,0.0753807184,0.377697073,-0.838587603
621,1555646,1641350,-0.746,0.257,0.66,138.9,-19.2,-189.8,7.1,-11.1,-21.3,0.381694998,0.0746177557,0.375286111,-0.841334269
622,1558047,1641350,-0.667,0.271,0.693,126.9,-17.4,-200.7,8.1,-11.1,-19.2,0.377941221,0.0737022004,0.373149815,-0.844080935
623,1560270,1641350,-0.575,0.265,0.706,112.9,-15.6,-211.9,8.1,-11.1,-19.2,0.373973815,0.0726340526,0.371257668,-0.846736045
624,1562399,1641350,-0.488,0.266,0.7,97,-14.1,-223.7,8.1,-11.1,-19.2,0.369792779,0.0713522752,0.369701224,-0.849360637
625,1565863,1641360,-0.302,0.243,0.687,79.7,-12.8,-235.8,8.1,-11.1,-19.2,0.365398114,0.0698568682,0.368480483,-0.851924192
626,1567506,1641360,-0.203,0.221,0.68,61.3,-11.5,-247.6,8.3,-11.4,-19.5,0.360789819,0.0681173132,0.367625965,-0.854396191
627,1570508,1641360,-0.096,0.195,0.685,42.2,-9.9,-258.6,8.3,-11.4,-19.5,0.355937376,0.0661946471,0.367137669,-0.856776635
628,1572234,1641360,0.022,0.168,0.678,22.6,-8.1,-268.3,8.3,-11.4,-19.5,0.350993377,0.0640583514,0.367015595,-0.859035005
629,1575402,1641370,0.247,0.116,0.63,2.9,-5.5,-276.6,8.3,-11.4,-19.5,0.345835749,0.0617694632,0.36732078,-0.8611713
630,1577158,1641370,0.365,0.05,0.603,-17.1,-2.1,-282.9,9.4,-10.7,-19.1,0.340556047,0.0593279824,0.367992187,-0.863155004
631,1580010,1641370,0.4,-0.225,0.638,-37,1.9,-288.4,9.4,-10.7,-19.1,0.335154271,0.0567949461,0.369060335,-0.864986114
632,1582424,1641370,0.593,-0.123,0.652,-55,4.7,-298,9.4,-10.7,-19.1,0.329538865,0.0540787988,0.370494705,-0.866695151
633,1584641,1641380,0.9,-0.166,0.363,-69.3,4.4,-315.3,9.4,-10.7,-19.1,0.323618274,0.0511185034,0.372203742,-0.868373669
634,1587545,1641380,1.021,-0.196,0.157,-80.1,0.2,-340,10.9,-9.6,-19.7,0.317239906,0.0477919858,0.374095889,-0.870082705
635,1590543,1641380,1.123,-0.215,-0.052,-88.9,-6.1,-366.4,10.9,-9.6,-19.7,0.310434278,0.0440687277,0.376110111,-0.871883297
636,1592262,1641380,1.354,-0.232,-0.531,-96,-13.3,-390.2,10.9,-9.6,-19.7,0.303201392,0.0399487289,0.378215888,-0.873714408
637,1595963,1641390,1.5,-0.291,-0.671,-99,-20.4,-409.8,10.9,-9.6,-19.7,0.295632801,0.035523545,0.380321665,-0.875606555
638,1597881,1641390,1.665,-0.389,-0.726,-94.1,-27.3,-425.4,12.1,-8.7,-19.5,0.287789544,0.0308542131,0.382244331,-0.877529221
639,1599641,1641390,1.829,-0.519,-0.718,-78.6,-34.1,-436.8,12.1,-8.7,-19.5,0.279732658,0.0260628071,0.383800775,-0.87960448
640,1603240,1641390,2.167,-0.856,-0.504,-52.4,-40.6,-443.5,12.1,-8.7,-19.5,0.271584216,0.0212408826,0.384807886,-0.88186285
641,1604927,1641400,2.315,-1.087,-0.351,-18.8,-46.6,-445.8,12.1,-8.7,-19.5,0.263405255,0.0164799951,0.385082553,-0.884304331
642,1607206,1641400,2.468,-1.287,-0.21,17.9,-51.6,-445.5,11.5,-7.9,-19.8,0.255226295,0.0118717002,0.384563738,-0.886989959
643,1610363,1641400,2.645,-1.405,-0.117,54.1,-55.7,-446.6,11.5,-7.9,-19.8,0.247016816,0.00732444227,0.383281961,-0.889919736
644,1613455,1641400,2.774,-1.641,-0.608,87.5,-59.1,-453,11.5,-7.9,-19.8,0.238685263,0.00286873989,0.381328776,-0.893063143
645,1615646,1641410,2.215,-2.382,-3.336,120.2,-66.8,-466,11.5,-7.9,-19.8,0.23014008,-0.00164799951,0.378673666,-0.896450697
646,1617224,1641410,2.391,-4.186,-5.441,178.3,-99.1,-480.1,16,-7.1,-19.8,0.221564379,-0.00665303507,0.374645222,-0.900265511
647,1619913,1641410,3.049,-7.676,-5.983,329.9,-171.6,-478.7,16,-7.1,-19.8,0.213599048,-0.0123599963,0.367229225,-0.905178991
648,1622325,1641410,7.797,-8.258,-2.046,606.7,-267.9,-431.3,16,-7.1,-19.8,0.207342753,-0.0182805872,0.353831599,-0.911832026
649,1625446,1641420,7.955,-8.276,-3.683,893.1,-360.8,-316.6,16,-7.1,-19.8,0.20413831,-0.0238654744,0.334208197,-0.919797357
650,1627680,1641420,7.951,-8.275,-2.965,952.3,-421,-151.2,15.5,-10.7,-19.1,0.204626606,-0.0291451765,0.31305887,-0.926938688
651,1629941,1641420,8.134,0.71,3.936,652.4,-377.5,-17.3,15.5,-10.7,-19.1,0.207220679,-0.033967101,0.298135319,-0.931119724
652,1632089,1641420,8.16,2.38,4.067,149.9,-189.6,-21,15.5,-10.7,-19.1,0.208136235,-0.0372936186,0.294198431,-0.932035279
653,1634769,1641430,8.124,2.094,4.131,-278.9,78.5,-176.5,15.5,-10.7,-19.1,0.203833125,-0.0381176183,0.300088504,-0.931089206
654,1637952,1641430,6.726,3.031,2.166,-481.7,291.5,-388.7,16.7,-8.3,-19.8,0.193578906,-0.0368663594,0.310800501,-0.929807428
655,1640954,1641430,2.057,5.808,2.861,-498.8,388.1,-506.8,16.7,-8.3,-19.8,0.180242317,-0.0345164342,0.322122868,-0.928708762
656,1643230,1641430,0.899,6.655,2.178,-431.4,406.8,-448.8,16.7,-8.3,-19.8,0.167943358,-0.0311288797,0.332071902,-0.927640614
657,1645441,1641440,0.024,7.463,1.071,-350.1,386.1,-249.8,16.7,-8.3,-19.8,0.159855953,-0.0263679922,0.340372936,-0.926206244
658,1647310,1641440,-0.875,7.659,0.082,-294.6,334.9,-7.4,17.8,-6.8,-19.2,0.157017731,-0.0207220679,0.347483749,-0.924192022
659,1651358,1641440,-2.61,7.026,-0.427,-271.4,267.1,176.1,17.8,-6.8,-19.2,0.158421583,-0.0149235511,0.353923154,-0.921597949
660,1653029,1641440,-2.951,5.792,-0.551,-259.3,201.7,266.6,17.8,-6.8,-19.2,0.162144841,-0.00970488601,0.359904782,-0.918729209
661,1655074,1641450,-3.099,4.404,-0.527,-237.4,149.1,278.6,17.8,-6.8,-19.2,0.166478469,-0.00537125767,0.365245521,-0.915860469
662,1658187,1641450,-3.612,1.905,-0.209,-198.5,112.4,246.4,15.8,-6.7,-19.3,0.170506912,-0.00189214759,0.369609668,-0.913357952
663,1659585,1641450,-3.49,0.574,-0.306,-144.1,87.3,196.7,15.8,-6.7,-19.3,0.173711356,0.000885036775,0.37284463,-0.911465804
664,1662641,1641450,-2.864,-0.477,0.199,-76.8,65.6,146.1,15.8,-6.7,-19.3,0.176061281,0.00308236946,0.374614704,-0.910275582
665,1665803,1641460,-2.196,-1.3,1.164,-1.1,40.8,106,15.8,-6.7,-19.3,0.177831355,0.00476088748,0.374797815,-0.909848323
666,1668041,1641460,-1.992,-3.056,2.761,68.9,15.5,87.3,16.4,-7.1,-18.9,0.179448836,0.00604266488,0.373455,-0.910092471
667,1669626,1641460,-3.381,-6.541,3.113,109.8,-1.4,97.5,16.4,-7.1,-18.9,0.181371502,0.00723288675,0.371257668,-0.910580767
668,1673208,1641460,-2.652,-5.285,2.247,105.9,-4.4,108.9,16.4,-7.1,-18.9,0.183568834,0.00845362712,0.369121372,-0.911008026
669,1674746,1641470,-2.348,-5.599,2.126,66,3.5,99.6,16.4,-7.1,-18.9,0.185491501,0.00958281198,0.367809076,-0.9111301
670,1678470,1641470,-1.241,-4.41,2.23,20.2,12.4,62.2,16.7,-7.5,-19,0.186620685,0.0104068117,0.367442854,-0.911038545
671,1680023,1641470,-0.779,-3.465,2.125,-5.9,15.6,25.4,16.7,-7.5,-19,0.187017426,0.0108951079,0.367625965,-0.910885952
672,1682110,1641470,-0.48,-2.529,2.004,-6.5,12.1,8.4,16.7,-7.5,-19,0.187078463,0.011200293,0.367778558,-0.910794397
673,1685392,1641480,-0.337,-1.723,1.928,7.5,6.2,12.2,16.7,-7.5,-19,0.187261574,0.0114444411,0.367656484,-0.910824915
674,1687080,1641480,-0.35,-0.496,1.944,24.9,1,27.6,15.8,-7.6,-19,0.187810907,0.0117801447,0.367168188,-0.910885952
675,1690431,1641480,-0.429,-0.18,1.906,41,-2.2,45.4,15.8,-7.6,-19,0.188695944,0.0122684408,0.366313669,-0.911038545
676,1692243,1641480,-0.459,-0.046,1.852,55.5,-4.2,58.8,15.8,-7.6,-19,0.189916684,0.012878811,0.365184484,-0.911252174
677,1694657,1641490,-0.375,-0.237,1.616,67.2,-6.4,64.4,15.8,-7.6,-19,0.19122898,0.0135502182,0.363811151,-0.911496323
678,1698098,1641490,-0.266,-0.523,1.419,73.6,-9.4,61.3,14.9,-8.3,-19.1,0.192480239,0.0141605884,0.362285226,-0.911832026
679,1699821,1641490,-0.137,-0.852,1.17,72.4,-13,51.9,14.9,-8.3,-19.1,0.193578906,0.014618366,0.360759301,-0.912198248
680,1702256,1641490,-0.001,-1.198,0.953,64.1,-15.9,39.5,14.9,-8.3,-19.1,0.194494461,0.0148930326,0.359416486,-0.912533952
681,1706313,1641500,0.19,-1.776,0.633,52.4,-17.2,28.3,14.9,-8.3,-19.1,0.195196387,0.0149845882,0.358287301,-0.912839137
682,1708828,1641500,0.262,-1.959,0.557,42,-16.9,20.1,16.9,-8.8,-18.8,0.195715201,0.0149845882,0.357371746,-0.913083285
683,1710867,1641500,0.32,-2.047,0.521,35.4,-14.9,16,16.9,-8.8,-18.8,0.196111942,0.0149540696,0.356608783,-0.913296915
684,1712345,1641500,0.352,-2.039,0.528,32.7,-12,15.5,16.9,-8.8,-18.8,0.196508683,0.0149845882,0.355876339,-0.913480026
685,1715576,1641510,0.381,-1.761,0.635,32.3,-8.5,17.9,16.9,-8.8,-18.8,0.196935942,0.0150761437,0.355204932,-0.913663137
686,1717359,1641510,0.369,-1.517,0.701,32.6,-4.9,22.3,13.3,-8.1,-18.9,0.197393719,0.0152897732,0.354533525,-0.913815729
687,1719976,1641510,0.322,-1.221,0.753,32.2,-1.6,27.5,13.3,-8.1,-18.9,0.197973571,0.0156254769,0.353862117,-0.913937803
688,1723341,1641510,0.252,-0.917,0.785,30.4,1.4,31.9,13.3,-8.1,-18.9,0.198583941,0.015991699,0.353251747,-0.914059877
689,1725391,1641520,0.018,-0.361,0.77,26.9,4,33.7,13.3,-8.1,-18.9,0.199194311,0.0164799951,0.352702414,-0.914120914
690,1727735,1641520,-0.121,-0.146,0.75,22.3,5.8,31.9,13.2,-8,-18.8,0.199804682,0.0169377728,0.352275155,-0.914151433
691,1729951,1641520,-0.262,-0.009,0.729,17.9,6.7,26.5,13.2,-8,-18.8,0.200262459,0.0173345134,0.351939451,-0.914151433
692,1732209,1641520,-0.459,0.073,0.699,14.7,6.2,19.2,13.2,-8,-18.8,0.200598163,0.0177007355,0.351664785,-0.914181951
693,1736033,1641530,-0.52,0.02,0.678,13.4,4.7,12.3,13.2,-8,-18.8,0.200811792,0.0179448836,0.351420637,-0.914242988
694,1738237,1641530,-0.557,-0.093,0.659,13.4,2.3,7.2,13.5,-8.3,-18.7,0.200933866,0.0180669576,0.35114597,-0.914304025
695,1740479,1641530,-0.571,-0.249,0.653,14.1,-0.4,4.7,13.5,-8.3,-18.7,0.201025422,0.0181890316,0.350871303,-0.914395581
696,1742688,1641530,-0.525,-0.593,0.586,15.2,-3.2,3.7,13.5,-8.3,-18.7,0.201116977,0.0181890316,0.350566118,-0.914487136
697,1744873,1641540,-0.476,-0.739,0.558,16.1,-5.9,3,13.5,-8.3,-18.7,0.201208533,0.0181890316,0.350199896,-0.91460921
698,1749028,1641540,-0.403,-0.855,0.54,16.8,-8.6,1.7,14.5,-8.2,-19,0.201300089,0.0181279946,0.349833674,-0.914731285
699,1749903,1641540,-0.316,-0.924,0.542,16.7,-10.9,0,14.5,-8.2,-19,0.201391644,0.0179448836,0.349436934,-0.914853359
700,1752310,1641540,-0.173,-0.907,0.527,15.5,-12.5,-1.4,14.5,-8.2,-19,0.201391644,0.017792291,0.349070711,-0.914975433
701,1755090,1641550,-0.117,-0.834,0.517,13.3,-13,-2.6,14.5,-8.2,-19,0.2014832,0.0175481429,0.348765526,-0.915097507
702,1757963,1641550,-0.075,-0.721,0.508,10,-12.6,-3.7,16.2,-10.3,-18.8,0.2014832,0.0173345134,0.34849086,-0.915219581
703,1760150,1641550,-0.04,-0.482,0.51,6.6,-11.6,-4.9,16.2,-10.3,-18.8,0.2014832,0.0170903653,0.348307749,-0.915280618
704,1762450,1641550,-0.046,-0.38,0.522,3.9,-10.8,-6.2,16.2,-10.3,-18.8,0.201452681,0.0168462172,0.348185675,-0.915341655
705,1764964,1641560,-0.053,-0.305,0.553,2.6,-10.5,-7.5,16.2,-10.3,-18.8,0.201361126,0.0165715506,0.348094119,-0.915402692
706,1767289,1641560,-0.056,-0.261,0.584,2.5,-10.7,-8.7,15.9,-7.4,-18.9,0.20126957,0.0162968841,0.348002564,-0.915463729
707,1771370,1641560,-0.06,-0.289,0.647,3.2,-11.3,-9.2,15.9,-7.4,-18.9,0.201178014,0.015991699,0.34788049,-0.915524766
708,1773639,1641560,-0.069,-0.34,0.674,4.1,-11.9,-9.3,15.9,-7.4,-18.9,0.201086459,0.0157475509,0.347758415,-0.915616321
709,1775908,1641570,-0.062,-0.414,0.706,4.4,-12.6,-9.1,15.9,-7.4,-18.9,0.200994903,0.0154423658,0.347605823,-0.915677358
710,1777540,1641570,-0.059,-0.485,0.729,4.3,-13.1,-9.1,16.8,-7.6,-18.8,0.200903348,0.0151066622,0.347483749,-0.915768914
711,1779867,1641570,-0.068,-0.626,0.769,3.6,-13.2,-9.4,16.8,-7.6,-18.8,0.200811792,0.0148014771,0.347361675,-0.915829951
712,1782414,1641570,-0.065,-0.681,0.797,2.5,-12.9,-10.2,16.8,-7.6,-18.8,0.200720237,0.0144657735,0.347239601,-0.915890988
713,1785717,1641580,-0.07,-0.728,0.808,1.3,-12.2,-11.3,16.8,-7.6,-18.8,0.200567644,0.0141605884,0.347178564,-0.915982543
714,1787201,1641580,-0.082,-0.76,0.825,0.2,-11.1,-12.4,16.5,-7.3,-18.9,0.200415052,0.0138248848,0.347117527,-0.91604358
715,1790197,1641580,-0.099,-0.806,0.841,-0.6,-9.9,-13.3,16.5,-7.3,-18.9,0.200231941,0.0135196997,0.347087008,-0.916074099
716,1793283,1641580,-0.095,-0.818,0.837,-0.9,-8.9,-13.7,16.5,-7.3,-18.9,0.200018311,0.0132450331,0.347087008,-0.916135136
717,1794974,1641590,-0.087,-0.826,0.837,-0.8,-8.2,-13.6,16.5,-7.3,-18.9,0.199804682,0.0129703665,0.34705649,-0.916196173
718,1797964,1641590,-0.071,-0.807,0.84,-0.7,-7.7,-13.3,16.3,-7.8,-19,0.199591052,0.0127262185,0.34705649,-0.91625721
719,1799655,1641590,-0.062,-0.772,0.84,-0.9,-7.3,-12.8,16.3,-7.8,-19,0.199377422,0.0124515519,0.347025971,-0.916287729
720,1802490,1641590,-0.058,-0.725,0.839,-1.7,-6.9,-12.3,16.3,-7.8,-19,0.199194311,0.0122379223,0.34705649,-0.916348766
721,1804861,1641600,-0.065,-0.674,0.847,-3.1,-6.3,-12,16.3,-7.8,-19,0.1990112,0.0119937742,0.347087008,-0.916379284
722,1807092,1641600,-0.107,-0.555,0.852,-4.7,-5.6,-12.2,15.5,-8.5,-18.7,0.198797571,0.0117801447,0.347148045,-0.916379284
723,1810333,1641600,-0.138,-0.503,0.86,-6.3,-5,-12.6,15.5,-8.5,-18.7,0.198583941,0.0115359966,0.347270119,-0.916409803
724,1812476,1641600,-0.172,-0.447,0.865,-7.7,-4.8,-13.3,15.5,-8.5,-18.7,0.198370312,0.011322367,0.347392193,-0.916409803
725,1815493,1641610,-0.2,-0.431,0.877,-9,-4.9,-14,15.5,-8.5,-18.7,0.198126164,0.0110782189,0.347575304,-0.916409803
726,1817208,1641610,-0.243,-0.426,0.89,-9.9,-5.4,-14.5,15.2,-9.7,-18.6,0.197882015,0.0108035524,0.347727897,-0.916379284
727,1820041,1641610,-0.244,-0.457,0.906,-10.7,-6.4,-14.7,15.2,-9.7,-18.6,0.197637867,0.0105288858,0.347941527,-0.916379284
728,1823612,1641610,-0.237,-0.512,0.91,-11,-7.6,-14.7,15.2,-9.7,-18.6,0.197393719,0.0101931822,0.348124638,-0.916348766
729,1825872,1641620,-0.222,-0.572,0.914,-10.8,-9,-14.7,15.2,-9.7,-18.6,0.19718009,0.00985747856,0.348307749,-0.916318247
730,1827349,1641620,-0.165,-0.73,0.913,-10.2,-10.4,-14.9,15.2,-10.1,-19.1,0.19696646,0.00949125645,0.348460341,-0.916318247
731,1829676,1641620,-0.13,-0.806,0.912,-9.5,-11.8,-15.4,15.2,-10.1,-19.1,0.196722312,0.00909451582,0.348612934,-0.916318247
732,1833349,1641620,-0.087,-0.869,0.899,-8.9,-13,-16.3,15.2,-10.1,-19.1,0.196508683,0.00866725669,0.348735008,-0.916318247
733,1835678,1641630,-0.013,-0.95,0.897,-8.5,-13.8,-17.3,15.2,-10.1,-19.1,0.196264534,0.00823999756,0.348857082,-0.916348766
734,1837867,1641630,0.025,-0.958,0.904,-8.4,-14.5,-18,15.5,-10.9,-19.2,0.196020386,0.00778221992,0.348948637,-0.916348766
735,1840027,1641630,0.053,-0.951,0.907,-8.5,-14.8,-18.3,15.5,-10.9,-19.2,0.195776238,0.00729392376,0.349070711,-0.916379284
736,1842368,1641630,0.062,-0.92,0.891,-9,-14.8,-18.2,15.5,-10.9,-19.2,0.19553209,0.00683614612,0.349192785,-0.916379284
737,1844798,1641640,0.051,-0.806,0.876,-9.8,-14.5,-17.9,15.5,-10.9,-19.2,0.195257424,0.00634784997,0.349314859,-0.916379284
738,1847135,1641640,0.021,-0.742,0.865,-10.9,-14.2,-17.6,15.4,-11.3,-19,0.195043794,0.00589007233,0.349497971,-0.916379284
739,1851001,1641640,-0.005,-0.679,0.861,-12,-14,-17.1,15.4,-11.3,-19,0.194799646,0.00543229469,0.349681082,-0.916348766
740,1853096,1641640,-0.044,-0.611,0.858,-13,-14.1,-16.4,15.4,-11.3,-19,0.194555498,0.00497451704,0.349864193,-0.916318247
741,1854873,1641650,-0.094,-0.527,0.844,-13.5,-14.5,-15.8,15.4,-11.3,-19,0.194372387,0.00448622089,0.350077822,-0.916287729
742,1857468,1641650,-0.11,-0.515,0.836,-13.3,-15.3,-15.3,15.4,-6.4,-17.8,0.194189276,0.00399792474,0.350291452,-0.91625721
743,1861270,1641650,-0.126,-0.515,0.813,-12.2,-16.5,-15,15.4,-6.4,-17.8,0.194006165,0.00350962859,0.350474563,-0.916226691
744,1863113,1641650,-0.123,-0.566,0.782,-10.1,-18.1,-14.9,15.4,-6.4,-17.8,0.193853572,0.00299081393,0.350596637,-0.916226691
745,1864697,1641660,-0.108,-0.61,0.778,-7.3,-20,-15.1,15.4,-6.4,-17.8,0.19370098,0.00244148076,0.350657674,-0.916226691
746,1867371,1641660,-0.089,-0.657,0.754,-4,-22,-15.6,15.6,-8.8,-20.3,0.193548387,0.00186162908,0.350627155,-0.91625721
747,1871459,1641660,-0.07,-0.693,0.73,-0.7,-23.9,-16.4,15.6,-8.8,-20.3,0.193426313,0.00125125889,0.350566118,-0.916318247
748,1873704,1641660,-0.035,-0.769,0.691,2,-25.6,-17.1,15.6,-8.8,-20.3,0.193273721,0.00061037019,0.350413526,-0.916409803
749,1875943,1641670,-0.02,-0.793,0.667,4.4,-27,-17.7,15.6,-8.8,-20.3,0.193121128,0,0.350199896,-0.916531877
750,1878222,1641670,-0.016,-0.805,0.643,6.3,-28.1,-17.9,15.4,-8.1,-20.6,0.192968535,-0.000671407208,0.349955748,-0.916653951
751,1880423,1641670,-0.013,-0.813,0.624,8.3,-28.8,-17.7,15.4,-8.1,-20.6,0.192846461,-0.00134281442,0.349650563,-0.916776025
752,1882351,1641670,0.018,-0.817,0.584,10.8,-29.6,-17.3,15.4,-8.1,-20.6,0.192724387,-0.00204474013,0.349314859,-0.916928617
753,1885118,1641680,0.034,-0.814,0.568,13.7,-30.6,-16.7,15.4,-8.1,-20.6,0.192602313,-0.00271614734,0.348918119,-0.917111728
754,1888282,1641680,0.05,-0.81,0.548,16.9,-31.8,-16.3,15.3,-7.2,-20.5,0.192541276,-0.00341807306,0.348429823,-0.917325358
755,1890523,1641680,0.066,-0.791,0.536,20,-33.1,-15.8,15.3,-7.2,-20.5,0.192480239,-0.00411999878,0.347911008,-0.917538987
756,1893473,1641680,0.09,-0.748,0.527,22.6,-34.4,-15.5,15.3,-7.2,-20.5,0.192419202,-0.0048219245,0.347300638,-0.917752617
757,1895766,1641690,0.106,-0.717,0.526,24.8,-35.9,-15.3,15.3,-7.2,-20.5,0.192388684,-0.00555436872,0.346659749,-0.917996765
758,1897991,1641690,0.119,-0.69,0.522,26.5,-37.3,-15.1,14.9,-6.8,-20.5,0.192388684,-0.00631733146,0.345957823,-0.918271432
759,1900181,1641690,0.132,-0.623,0.525,28.2,-38.9,-14.8,14.9,-6.8,-20.5,0.192388684,-0.0070802942,0.345225379,-0.918546098
760,1902490,1641690,0.136,-0.596,0.525,30.1,-40.6,-14.5,14.9,-6.8,-20.5,0.192388684,-0.00787377544,0.344462416,-0.918820765
761,1904758,1641700,0.144,-0.573,0.533,30.1,-40.6,-14.5,14.9,-6.8,-20.5,0.192419202,-0.00866725669,0.343668935,-0.919095431
762,1907363,1641700,0.173,-0.554,0.571,35.5,-44.5,-13.9,15.2,-8.2,-18.7,0.192480239,-0.00952177496,0.342783898,-0.919400616
763,1910574,1641700,0.193,-0.554,0.586,35.5,-44.5,-13.9,15.2,-8.2,-18.7,0.192541276,-0.0103762932,0.341868343,-0.91973632
764,1912937,1641700,0.224,-0.555,0.597,39.2,-46.6,-13.4,15.2,-8.2,-18.7,0.192602313,-0.0112308115,0.340891751,-0.920072024
765,1915126,1641710,0.256,-0.575,0.62,43.4,-48.7,-12.8,15.2,-8.2,-18.7,0.192754906,-0.0121463668,0.339793085,-0.920438246
766,1917439,1641710,0.3,-0.576,0.642,47.7,-50.7,-12.5,14.9,-8.6,-19.4,0.19287698,-0.0130314035,0.338633381,-0.920834986
767,1919707,1641710,0.375,-0.621,0.671,52.3,-52.6,-12.2,14.9,-8.6,-19.4,0.193029572,-0.0139774773,0.337351604,-0.921231727
768,1922311,1641710,0.41,-0.63,0.694,57.4,-54.1,-11.8,14.9,-8.6,-19.4,0.193212683,-0.0148930326,0.335947752,-0.921689505
769,1924666,1641720,0.426,-0.63,0.721,63.7,-55.4,-11.1,14.9,-8.6,-19.4,0.193426313,-0.0158391064,0.334452345,-0.922208319
770,1927245,1641720,0.442,-0.622,0.732,71.8,-56.5,-10.4,14.6,-9,-19.3,0.193639943,-0.0167241432,0.332743309,-0.922727134
771,1929999,1641720,0.471,-0.572,0.696,81.6,-57.5,-10,14.6,-9,-19.3,0.193884091,-0.0176396985,0.330851161,-0.923368023
772,1932182,1641720,0.495,-0.541,0.672,92.4,-58.5,-10.2,14.6,-9,-19.3,0.194158757,-0.0184942167,0.328745384,-0.92403943
773,1935518,1641730,0.507,-0.494,0.636,103.3,-59.6,-10.7,14.6,-9,-19.3,0.194402905,-0.019348735,0.326395459,-0.924802393
774,1937747,1641730,0.572,-0.39,0.458,114,-60.9,-11.6,14.5,-9.1,-18.9,0.194647053,-0.0201422163,0.323831904,-0.925626392
775,1939945,1641730,0.627,-0.344,0.363,124.4,-62.9,-12.5,14.5,-9.1,-18.9,0.194891202,-0.0209967345,0.32105472,-0.926541948
776,1942230,1641730,0.691,-0.291,0.31,133.9,-65.7,-13.5,14.5,-9.1,-18.9,0.19513535,-0.0218512528,0.318063906,-0.927488021
777,1944753,1641740,0.751,-0.245,0.281,142,-69.3,-14.6,14.5,-9.1,-18.9,0.195379498,-0.0227057711,0.314889981,-0.928495132
778,1947716,1641740,0.858,-0.244,0.247,149.3,-72.7,-15.7,14,-9.6,-18.2,0.195654164,-0.0236823634,0.311532945,-0.92956328
779,1950001,1641740,0.901,-0.284,0.234,157,-75.2,-16,14,-9.6,-18.2,0.195898312,-0.0246589557,0.308023316,-0.930631428
780,1953248,1641740,0.948,-0.34,0.253,166.4,-76.7,-14.7,14,-9.6,-18.2,0.196203497,-0.0256050295,0.304300058,-0.931760613
781,1954740,1641750,1.007,-0.432,0.306,177.6,-77.9,-11.6,14,-9.6,-18.2,0.196600238,-0.0264900662,0.300332652,-0.932950835
782,1957249,1641750,1.104,-0.618,0.437,201.5,-80,0.1,13.5,-10.5,-19.8,0.196844386,-0.0285042879,0.29566332,-0.934324168
783,1959654,1641750,1.151,-0.698,0.494,201.5,-80,0.1,13.5,-10.5,-19.8,0.197485275,-0.0292672506,0.291207617,-0.935575426
784,1962225,1641750,1.185,-0.769,0.548,209.9,-79.9,8.8,13.5,-10.5,-19.8,0.198309275,-0.0299081393,0.286568804,-0.936796167
785,1965642,1641760,1.256,-0.842,0.574,213.1,-78.3,19.3,13.5,-10.5,-19.8,0.199346904,-0.030487991,0.281868954,-0.937986389
786,1967894,1641760,1.28,-0.846,0.581,209.9,-75.2,30.4,13.4,-10.9,-16.2,0.200567644,-0.0309457686,0.277260659,-0.939085055
787,1970157,1641760,1.308,-0.831,0.577,200.6,-70.9,41.4,13.4,-10.9,-16.2,0.201971496,-0.0312509537,0.272865993,-0.940061647
788,1972331,1641760,1.332,-0.796,0.58,186.9,-65.7,51.4,13.4,-10.9,-16.2,0.203558458,-0.0314645833,0.268776513,-0.940885647
789,1974796,1641770,1.361,-0.71,0.59,171.1,-60,60.1,13.4,-10.9,-16.2,0.205267495,-0.0315866573,0.265053255,-0.941587573
790,1977143,1641770,1.362,-0.663,0.59,154.7,-54.1,67.9,12.8,-11.7,-15.8,0.207068087,-0.0316171758,0.2616657,-0.942136906
791,1980598,1641770,1.367,-0.612,0.598,139,-48,75.2,12.8,-11.7,-15.8,0.208990753,-0.0315256203,0.258644368,-0.942533647
792,1982208,1641770,1.363,-0.573,0.606,124.1,-41.9,82.3,12.8,-11.7,-15.8,0.211004975,-0.0313730277,0.255958739,-0.942838832
793,1985031,1641780,1.341,-0.51,0.606,109.5,-35.7,89.4,12.8,-11.7,-15.8,0.213110752,-0.0310983612,0.253608814,-0.942991424
794,1987116,1641780,1.329,-0.497,0.606,94.7,-29.7,96.5,12.2,-12,-15.5,0.215308084,-0.030732139,0.251564074,-0.943052461
795,1990229,1641780,1.301,-0.493,0.595,79.6,-23.4,103.3,12.2,-12,-15.5,0.217627491,-0.0302743614,0.249885556,-0.942991424
796,1992416,1641780,1.277,-0.496,0.6,64.3,-17.4,109.6,12.2,-12,-15.5,0.220007935,-0.0297555467,0.24857326,-0.942808313
797,1994687,1641790,1.233,-0.542,0.601,49.1,-11.6,115.4,12.2,-12,-15.5,0.222479934,-0.029114658,0.247566149,-0.942503128
798,1997267,1641790,1.197,-0.573,0.606,34.1,-6.2,120.6,11.2,-12.7,-16,0.22501297,-0.0284432508,0.246894742,-0.942106388
799,2000723,1641790,1.16,-0.615,0.611,19.7,-1.1,125.4,11.2,-12.7,-16,0.227637562,-0.0276802881,0.246559038,-0.941587573
800,2002235,1641790,1.072,-0.7,0.61,6.1,3.6,129.9,11.2,-12.7,-16,0.230292673,-0.0268562883,0.24652852,-0.940977203
801,2005281,1641800,1.031,-0.746,0.599,-6.3,8.2,134.3,11.2,-12.7,-16,0.232978301,-0.0260017701,0.246803186,-0.940275277
802,2008284,1641800,0.987,-0.792,0.597,-26.9,16.3,142.4,11.1,-13.2,-18.6,0.235816523,-0.0250251778,0.247505112,-0.93939024
803,2009762,1641800,0.939,-0.834,0.586,-26.9,16.3,142.4,11.1,-13.2,-18.6,0.238624226,-0.0240485855,0.248237556,-0.938474685
804,2012901,1641800,0.862,-0.907,0.589,-34.3,19.4,145.8,11.1,-13.2,-18.6,0.241492965,-0.0230719932,0.249092074,-0.937589648
805,2014585,1641810,0.822,-0.938,0.594,-39.3,22,148.4,11.1,-13.2,-18.6,0.244361705,-0.0220343638,0.250099185,-0.936582537
806,2018154,1641810,0.794,-0.957,0.587,-42,23.9,150.3,10.6,-13.1,-17.4,0.247291482,-0.0209356975,0.251167333,-0.935575426
807,2019685,1641810,0.766,-0.984,0.588,-42.4,25.5,151.6,10.6,-13.1,-17.4,0.250221259,-0.0197759941,0.252235481,-0.934507279
808,2022587,1641810,0.71,-1.018,0.593,-41.1,26.9,152.5,10.6,-13.1,-17.4,0.253181555,-0.0186468093,0.25327311,-0.933469649
809,2025679,1641820,0.686,-1.025,0.594,-38.3,28.1,153,10.6,-13.1,-17.4,0.256111332,-0.0174565874,0.254280221,-0.932401502
810,2027116,1641820,0.674,-1.029,0.598,-34.5,29,153.1,10,-13.5,-18.3,0.259071627,-0.0162053285,0.255195776,-0.931363872
811,2030197,1641820,0.65,-1.024,0.595,-30.1,29.6,152.9,10,-13.5,-18.3,0.262001404,-0.0149235511,0.256019776,-0.930356761
812,2033195,1641820,0.63,-1,0.595,-25.7,29.9,152.4,10,-13.5,-18.3,0.264900662,-0.0136112552,0.256782739,-0.929349651
813,2034735,1641830,0.607,-0.984,0.6,-21.5,30,151.9,10,-13.5,-18.3,0.267799921,-0.0122684408,0.257423627,-0.92834254
814,2037949,1641830,0.599,-0.968,0.592,-17.7,30.1,151.3,9.6,-13.5,-18.5,0.270699179,-0.0109256264,0.258003479,-0.927365947
815,2039816,1641830,0.576,-0.913,0.581,-14.7,30.1,150.7,9.6,-13.5,-18.5,0.273567919,-0.00955229347,0.258522294,-0.926389355
816,2043266,1641830,0.568,-0.897,0.569,-12.6,30,150.2,9.6,-13.5,-18.5,0.276436659,-0.00814844203,0.258980071,-0.925412763
817,2044772,1641840,0.553,-0.869,0.566,-11.6,29.8,149.8,9.6,-13.5,-18.5,0.279305399,-0.0067751091,0.259407331,-0.924436171
818,2047203,1641840,0.541,-0.849,0.55,-11.5,29.7,149.5,9,-13.5,-18.3,0.28214362,-0.00540177618,0.259865108,-0.923459578
819,2050732,1641840,0.514,-0.817,0.527,-12.3,29.7,149.5,9,-13.5,-18.3,0.284981841,-0.00402844325,0.260292367,-0.922482986
820,2052272,1641840,0.49,-0.809,0.516,-13.8,29.8,149.8,9,-13.5,-18.3,0.287820063,-0.00265511032,0.260780663,-0.921475875
821,2056158,1641850,0.474,-0.8,0.509,-16.4,29.9,150.2,9,-13.5,-18.3,0.290658284,-0.00131229591,0.261299478,-0.920438246
822,2057787,1641850,0.419,-0.779,0.499,-24.5,30.3,151.5,8.7,-14,-17.5,0.293527024,0,0.262001404,-0.919309061
823,2060573,1641850,0.419,-0.779,0.499,-24.5,30.3,151.5,8.7,-14,-17.5,0.293527024,0,0.262001404,-0.919309061
824,2062259,1641850,0.352,-0.762,0.512,-29.9,30.6,152.5,8.7,-14,-17.5,0.299295022,0.00259407331,0.263466292,-0.917050691
825,2065713,1641860,0.32,-0.754,0.521,-36.2,30.7,153.4,8.7,-14,-17.5,0.302163762,0.00384533219,0.264381848,-0.915829951
826,2067247,1641860,0.245,-0.732,0.534,-43,30.8,154,8.2,-14.2,-17.4,0.305093539,0.00506607257,0.265419477,-0.914548173
827,2070299,1641860,0.214,-0.724,0.551,-50.3,30.9,154.4,8.2,-14.2,-17.4,0.307992798,0.00625629444,0.266609699,-0.913235878
828,2072487,1641860,0.174,-0.719,0.564,-57.5,30.9,154.6,8.2,-14.2,-17.4,0.310892056,0.00738547929,0.267952513,-0.911832026
829,2074754,1641870,0.131,-0.714,0.58,-64.3,30.8,154.9,8.2,-14.2,-17.4,0.313791314,0.00845362712,0.269417402,-0.910397656
830,2078677,1641870,0.075,-0.716,0.621,-70.1,30.5,155,7.8,-13.9,-18.2,0.316721091,0.00949125645,0.270973846,-0.908902249
831,2080324,1641870,0.036,-0.719,0.638,-74.5,30,154.9,7.8,-13.9,-18.2,0.31962035,0.0104983673,0.272621845,-0.907376324
832,2082131,1641870,0,-0.719,0.65,-77.2,29.5,154.7,7.8,-13.9,-18.2,0.322519608,0.0114444411,0.274330882,-0.905850398
833,2085820,1641880,-0.035,-0.726,0.671,-78.5,28.9,154.1,7.8,-13.9,-18.2,0.325418867,0.0123905148,0.276039918,-0.904263436
834,2087956,1641880,-0.09,-0.74,0.708,-78.7,28.1,153.2,7.2,-14.3,-18.1,0.328287606,0.0133060701,0.277748955,-0.902706992
835,2090167,1641880,-0.118,-0.739,0.716,-78.3,27.3,151.9,7.2,-14.3,-18.1,0.331125828,0.0142216254,0.279457991,-0.901120029
836,2092286,1641880,-0.146,-0.75,0.725,-77.3,26.4,150.2,7.2,-14.3,-18.1,0.333933531,0.0151066622,0.281105991,-0.899533067
837,2095304,1641890,-0.17,-0.758,0.745,-75.6,25.8,148,7.2,-14.3,-18.1,0.336710715,0.0159611805,0.28275399,-0.897976623
838,2098306,1641890,-0.202,-0.777,0.765,-72.6,25.5,145.4,7,-13.6,-18.8,0.339426862,0.0168156987,0.284310434,-0.896450697
839,2099797,1641890,-0.214,-0.796,0.789,-68.1,25.2,142.3,7,-13.6,-18.8,0.342081973,0.0177007355,0.285775323,-0.89495529
840,2102919,1641890,-0.218,-0.815,0.801,-62.4,24.7,139.1,7,-13.6,-18.8,0.344676046,0.0185552538,0.287118137,-0.89352092
841,2104673,1641900,-0.234,-0.835,0.837,-55.7,24.3,135.8,7,-13.6,-18.8,0.347178564,0.019470809,0.288308359,-0.892147588
842,2108134,1641900,-0.23,-0.843,0.86,-42.1,23.7,129.5,4.8,-13.9,-18.5,0.349559008,0.0204474013,0.289254433,-0.89086581
843,2109669,1641900,-0.234,-0.843,0.887,-42.1,23.7,129.5,4.8,-13.9,-18.5,0.351939451,0.0213629566,0.290200507,-0.889614551
844,2112754,1641900,-0.238,-0.831,0.907,-36.1,24,126.4,4.8,-13.9,-18.5,0.354258858,0.022400586,0.291024506,-0.888393811
845,2114668,1641910,-0.233,-0.787,0.926,-30.9,24.7,123.3,4.8,-13.9,-18.5,0.356517228,0.0234076968,0.291756951,-0.887234107
846,2118153,1641910,-0.232,-0.756,0.938,-26.7,25.7,120,8.2,-13.7,-19,0.358684042,0.0244758446,0.292428358,-0.886104923
847,2119809,1641910,-0.244,-0.724,0.934,-23.6,27,116.5,8.2,-13.7,-19,0.360789819,0.0255134739,0.293038728,-0.885036775
848,2122737,1641910,-0.255,-0.693,0.938,-21.3,28.3,112.7,8.2,-13.7,-19,0.362773522,0.0266121403,0.293588061,-0.883999145
849,2125571,1641920,-0.282,-0.625,0.927,-19.3,29.7,108.8,8.2,-13.7,-19,0.364696188,0.0277718436,0.294137394,-0.882992035
850,2127272,1641920,-0.301,-0.593,0.908,-17.7,31.2,104.8,7.3,-14,-19,0.366527299,0.0289010285,0.294656209,-0.882015442
851,2130198,1641920,-0.325,-0.561,0.897,-17,32.6,100.8,7.3,-14,-19,0.368266854,0.0300302133,0.295205542,-0.881069369
852,2132320,1641920,-0.352,-0.533,0.87,-17.8,33.7,96.9,7.3,-14,-19,0.369914853,0.0311288797,0.295754875,-0.880153813
853,2135206,1641930,-0.431,-0.476,0.829,-20.6,34.7,93,7.3,-14,-19,0.371501816,0.0322580645,0.296365246,-0.879238258
854,2138107,1641930,-0.471,-0.456,0.811,-25,35.6,89.2,7.3,-14,-19,0.372997223,0.0333262123,0.297067171,-0.878322703
855,2139741,1641930,-0.518,-0.435,0.804,-30.5,36.5,85.8,7.3,-14,-19,0.374431593,0.0343333232,0.297891171,-0.877407147
856,2142173,1641930,-0.605,-0.402,0.802,-36.3,37.4,82.7,7.3,-14,-19,0.375804926,0.035279397,0.298806726,-0.876461074
857,2145625,1641940,-0.648,-0.389,0.803,-41.8,38.1,79.8,7.3,-14,-19,0.377117222,0.0361644337,0.299874874,-0.875515
858,2147359,1641940,-0.688,-0.38,0.804,-47,38.6,77.2,7.2,-14.3,-19.6,0.37836848,0.0370494705,0.301034577,-0.874538408
859,2149731,1641940,-0.723,-0.372,0.801,-52,38.8,75,7.2,-14.3,-19.6,0.379589221,0.0378734703,0.302285836,-0.873531297
860,2152748,1641940,-0.783,-0.358,0.811,-57.2,38.7,73.2,7.2,-14.3,-19.6,0.380779443,0.0386059145,0.303628651,-0.872524186
861,2154599,1641950,-0.814,-0.354,0.812,-62.9,38.3,71.5,7.2,-14.3,-19.6,0.381939146,0.0392773217,0.305093539,-0.871456038
862,2158200,1641950,-0.826,-0.346,0.82,-75.4,36.7,68.3,5.6,-13.6,-19.6,0.383037812,0.0398266549,0.306772057,-0.870357372
863,2159747,1641950,-0.846,-0.341,0.82,-75.4,36.7,68.3,5.6,-13.6,-19.6,0.384166997,0.040314951,0.308450575,-0.869258705
864,2162342,1641950,-0.87,-0.345,0.829,-81.8,35.5,66.4,5.6,-13.6,-19.6,0.385235145,0.0407727287,0.310251167,-0.868099002
865,2165726,1641960,-0.878,-0.34,0.833,-87.8,34.2,64.1,5.6,-13.6,-19.6,0.386333811,0.0411084323,0.312143315,-0.866939299
866,2167267,1641960,-0.886,-0.348,0.837,-93.3,32.7,61.7,5.3,-13.4,-19.6,0.387340922,0.0413830988,0.314127018,-0.865749077
867,2169727,1641960,-0.894,-0.364,0.845,-98.2,31.2,59.1,5.3,-13.4,-19.6,0.388348033,0.0415356914,0.316171758,-0.864558855
868,2173260,1641960,-0.909,-0.359,0.861,-102.4,29.7,56.4,5.3,-13.4,-19.6,0.389294107,0.0416272469,0.318308054,-0.863338115
869,2174798,1641970,-0.918,-0.375,0.877,-105.8,28.4,53.4,5.3,-13.4,-19.6,0.390179144,0.0416272469,0.320505387,-0.862117374
870,2177200,1641970,-0.918,-0.383,0.897,-108.5,27.2,50.4,5,-13,-20,0.391033662,0.0415356914,0.322733238,-0.860896634
871,2180393,1641970,-0.918,-0.402,0.928,-110.5,26.3,47.5,5,-13,-20,0.391857662,0.0414441359,0.324991607,-0.859706412
872,2182214,1641970,-0.926,-0.414,0.952,-111.9,25.5,44.6,5,-13,-20,0.392620624,0.0412915433,0.327249977,-0.858485672
873,2185696,1641980,-0.926,-0.422,0.971,-112.5,24.9,41.7,5,-13,-20,0.39332255,0.0411084323,0.329538865,-0.85729545
874,2187969,1641980,-0.918,-0.426,0.987,-112.2,24.5,38.9,4.7,-12.4,-20.4,0.393963439,0.0408642842,0.331827754,-0.856135746
875,2190123,1641980,-0.91,-0.434,1.025,-111.8,24.2,36.1,4.7,-12.4,-20.4,0.394573809,0.0406201361,0.334086123,-0.854976043
876,2192406,1641980,-0.906,-0.442,1.041,-111.3,24,33.2,4.7,-12.4,-20.4,0.395123142,0.040314951,0.336344493,-0.853877377
877,2194959,1641990,-0.902,-0.446,1.06,-110.6,24.1,30.2,4.7,-12.4,-20.4,0.39558092,0.0400708029,0.338572344,-0.85277871
878,2197192,1641990,-0.89,-0.446,1.087,-109.2,24.6,27.2,3.2,-11.9,-20.7,0.396008179,0.0397961364,0.340800195,-0.851710562
879,2200713,1641990,-0.874,-0.47,1.13,-106.5,25.6,24.1,3.2,-11.9,-20.7,0.396374401,0.0395214698,0.342967009,-0.850672933
880,2202270,1641990,-0.874,-0.482,1.134,-102.6,26.7,21,3.2,-11.9,-20.7,0.396649068,0.0392773217,0.345103305,-0.849696341
881,2204897,1642000,-0.87,-0.493,1.161,-97.5,27.8,18,3.2,-11.9,-20.7,0.396832179,0.0390942106,0.347117527,-0.848780786
882,2207245,1642000,-0.894,-0.505,1.17,-86.6,29.7,12.1,6.9,-12.2,-21.4,0.396923734,0.0390026551,0.348979156,-0.847987304
883,2210627,1642000,-0.906,-0.5,1.186,-86.6,29.7,12.1,6.9,-12.2,-21.4,0.396954253,0.0388500626,0.350810266,-0.847193823
884,2212094,1642000,-0.925,-0.484,1.198,-81.5,30.6,9.4,6.9,-12.2,-21.4,0.396954253,0.0388195441,0.35258034,-0.846461379
885,2214604,1642010,-0.945,-0.464,1.21,-76.6,31.8,6.8,6.9,-12.2,-21.4,0.396954253,0.0387890255,0.354258858,-0.845789972
886,2217942,1642010,-0.992,-0.424,1.235,-71.4,33.2,4.6,4.1,-10.7,-21.3,0.396832179,0.0388195441,0.355876339,-0.845179601
887,2220103,1642010,-1.007,-0.404,1.223,-65.6,34.5,2.5,4.1,-10.7,-21.3,0.396679586,0.0389110996,0.357371746,-0.84459975
888,2222271,1642010,-1.023,-0.38,1.224,-58.7,35.4,0.4,4.1,-10.7,-21.3,0.396465957,0.0390636921,0.358775597,-0.844111454
889,2226075,1642020,-1.031,-0.36,1.216,-50.9,35.8,-1.6,4.1,-10.7,-21.3,0.39619129,0.0392773217,0.360026856,-0.843714713
890,2228377,1642020,-1.03,-0.317,1.208,-42.5,35.6,-4,4.1,-10.5,-21.8,0.395855586,0.0395214698,0.361125523,-0.843379009
891,2229851,1642020,-1.03,-0.301,1.192,-33.9,34.9,-6.5,4.1,-10.5,-21.8,0.395489364,0.0398266549,0.362041078,-0.843134861
892,2232072,1642020,-1.03,-0.289,1.188,-25.4,34,-9.4,4.1,-10.5,-21.8,0.395092624,0.0401623585,0.362804041,-0.842982269
893,2235822,1642030,-1.022,-0.274,1.169,-17.2,33.1,-12.3,4.1,-10.5,-21.8,0.394604328,0.0405285806,0.363414411,-0.842921232
894,2237383,1642030,-1.009,-0.258,1.153,-9.5,32.4,-15.3,4.8,-10.2,-21.6,0.394085513,0.0408948027,0.363902707,-0.84295175
895,2239712,1642030,-0.994,-0.251,1.148,-2.5,31.6,-18.3,4.8,-10.2,-21.6,0.393475143,0.0412915433,0.364238411,-0.843043306
896,2242173,1642030,-0.982,-0.251,1.132,3.7,31.1,-21.3,4.8,-10.2,-21.6,0.392834254,0.041749321,0.36445204,-0.843256935
897,2245728,1642040,-0.966,-0.236,1.116,9.1,30.4,-24,4.8,-10.2,-21.6,0.392162847,0.0422070986,0.364574114,-0.843501083
898,2247901,1642040,-0.958,-0.232,1.104,13.5,29.9,-26.3,5.8,-10.1,-21.8,0.391399884,0.0426648762,0.364604633,-0.843806269
899,2250222,1642040,-0.95,-0.224,1.092,16.5,29.5,-28.2,5.8,-10.1,-21.8,0.390636921,0.0431226539,0.364574114,-0.844141972
900,2252326,1642040,-0.942,-0.217,1.092,17.9,29.6,-29.7,5.8,-10.1,-21.8,0.38984344,0.0435804315,0.364513077,-0.844508194
901,2255314,1642050,-0.926,-0.198,1.072,17.8,30.1,-30.8,5.8,-10.1,-21.8,0.38901944,0.0440382092,0.364482559,-0.844874416
902,2258314,1642050,-0.922,-0.19,1.064,14.1,32.4,-31.9,6.9,-12,-21.5,0.388164922,0.0444654683,0.364513077,-0.845240638
903,2259795,1642050,-0.917,-0.174,1.06,14.1,32.4,-31.9,6.9,-12,-21.5,0.387310404,0.0449537645,0.364574114,-0.845576342
904,2262885,1642050,-0.902,-0.171,1.056,11.2,33.5,-31.7,6.9,-12,-21.5,0.386425367,0.0454420606,0.36466567,-0.845912046
905,2265874,1642060,-0.893,-0.151,1.048,7.6,34.6,-31.1,6.9,-12,-21.5,0.385570849,0.0458998383,0.364848781,-0.846217231
906,2267360,1642060,-0.889,-0.143,1.036,3.3,35.6,-30.5,7.2,-9.6,-21.5,0.38471633,0.0463270974,0.365123447,-0.846461379
907,2269736,1642060,-0.889,-0.136,1.032,-1.7,36.6,-29.8,7.2,-9.6,-21.5,0.383892331,0.0467543565,0.365489669,-0.84664449
908,2273451,1642060,-0.901,-0.116,1.009,-7.8,37.7,-29,7.2,-9.6,-21.5,0.383037812,0.0471510971,0.365977966,-0.846797082
909,2274825,1642070,-0.905,-0.104,1.005,-14.8,38.9,-28.1,7.2,-9.6,-21.5,0.382244331,0.0475173193,0.366618854,-0.846858119
910,2277884,1642070,-0.905,-0.104,1.005,-14.8,38.9,-28.1,7.2,-9.6,-21.5,0.382244331,0.0475173193,0.366618854,-0.846858119
911,2280088,1642070,-0.917,-0.096,0.985,-30.8,41.8,-26.3,7.7,-8.9,-21.6,0.380657369,0.0481276894,0.368327891,-0.846797082
912,2282297,1642070,-0.933,-0.091,0.966,-39,43.1,-25.7,7.7,-8.9,-21.6,0.379863887,0.0484328745,0.369457076,-0.84664449
913,2284663,1642080,-0.929,-0.095,0.962,-46.9,44.3,-25.1,7.7,-8.9,-21.6,0.379100925,0.0486770226,0.370708335,-0.84643086
914,2287313,1642080,-0.925,-0.096,0.951,-53.9,45.2,-24.7,8.3,-8.7,-21.6,0.378337962,0.0488601337,0.372112186,-0.846156194
915,2291420,1642080,-0.917,-0.1,0.943,-60.3,45.7,-24.3,8.3,-8.7,-21.6,0.377574999,0.0490127262,0.373607593,-0.84582049
916,2293647,1642080,-0.89,-0.14,0.938,-66.2,45.9,-23.9,8.3,-8.7,-21.6,0.376812037,0.0491042817,0.375255593,-0.84542375
917,2295844,1642090,-0.882,-0.171,0.938,-71.6,45.8,-23.4,8.3,-8.7,-21.6,0.376079592,0.0491653188,0.376964629,-0.844965972
918,2297365,1642090,-0.871,-0.199,0.934,-76.6,45.6,-22.8,8.5,-8.3,-21.4,0.375377667,0.0491958373,0.378765221,-0.844477676
919,2299818,1642090,-0.859,-0.227,0.934,-81,45.4,-22.1,8.5,-8.3,-21.4,0.374675741,0.0491958373,0.380657369,-0.843928343
920,2302576,1642090,-0.845,-0.298,0.922,-84.7,45.5,-21.4,8.5,-8.3,-21.4,0.374004334,0.0491653188,0.382610553,-0.843348491
921,2305584,1642100,-0.841,-0.329,0.918,-87.5,45.8,-20.6,8.5,-8.3,-21.4,0.373332926,0.0491042817,0.384624775,-0.842738121
922,2307115,1642100,-0.83,-0.357,0.914,-90.4,46.2,-19.4,8.3,-8.9,-22,0.372661519,0.0490737632,0.386700034,-0.842097232
923,2309669,1642100,-0.819,-0.412,0.91,-90.4,46.2,-19.4,8.3,-8.9,-22,0.372020631,0.0490127262,0.388744774,-0.841425825
924,2313127,1642100,-0.811,-0.432,0.909,-91,46.5,-18.8,8.3,-8.9,-22,0.371379742,0.0489822077,0.390820032,-0.840754418
925,2314641,1642110,-0.807,-0.456,0.902,-91.1,46.8,-18.2,8.3,-8.9,-22,0.370738853,0.0489516892,0.392895291,-0.84008301
926,2317136,1642110,-0.804,-0.472,0.902,-90.5,47,-17.6,8.8,-9.9,-22.3,0.370097964,0.0489211707,0.394940031,-0.839411603
927,2320067,1642110,-0.792,-0.503,0.894,-89.2,47.2,-16.8,8.8,-9.9,-22.3,0.369487594,0.0489211707,0.396954253,-0.838709677
928,2322356,1642110,-0.785,-0.523,0.882,-87.1,47.4,-16,8.8,-9.9,-22.3,0.368877224,0.0489516892,0.398968474,-0.83803827
929,2324629,1642120,-0.781,-0.535,0.886,-84.1,47.5,-15.2,8.8,-9.9,-22.3,0.368266854,0.0490127262,0.400860622,-0.837366863
930,2327141,1642120,-0.777,-0.555,0.878,-80.2,47.6,-14.4,8.8,-10.4,-22.5,0.367656484,0.0491042817,0.402783288,-0.836725974
931,2330614,1642120,-0.774,-0.575,0.858,-75.4,47.7,-13.4,8.8,-10.4,-22.5,0.36710715,0.0492568743,0.404553362,-0.836115604
932,2332209,1642120,-0.762,-0.583,0.858,-69.9,47.7,-12.3,8.8,-10.4,-22.5,0.366527299,0.0494399854,0.406201361,-0.835566271
933,2334791,1642130,-0.766,-0.587,0.846,-64,47.6,-11.2,8.8,-10.4,-22.5,0.365947447,0.0497146519,0.407788324,-0.835016938
934,2337700,1642130,-0.762,-0.587,0.842,-58,47.3,-10.4,9.1,-10.5,-22.3,0.365398114,0.050019837,0.409222694,-0.834528642
935,2340359,1642130,-0.754,-0.587,0.826,-51.9,47,-9.5,9.1,-10.5,-22.3,0.364879299,0.0503860591,0.410565508,-0.834101382
936,2342699,1642130,-0.754,-0.579,0.822,-45.8,46.8,-8.6,9.1,-10.5,-22.3,0.364360485,0.0507827998,0.41175573,-0.833704642
937,2344933,1642140,-0.754,-0.575,0.811,-39.5,46.6,-7.4,9.1,-10.5,-22.3,0.36384167,0.0512405774,0.412854396,-0.833368938
938,2347329,1642140,-0.746,-0.568,0.791,-32.8,46.5,-6.1,9.6,-10.8,-22.4,0.363353374,0.0517899106,0.413830988,-0.833063753
939,2350728,1642140,-0.738,-0.556,0.783,-26,46.2,-4.8,9.6,-10.8,-22.4,0.362865078,0.0523697623,0.414685507,-0.832819605
940,2353048,1642140,-0.742,-0.548,0.771,-19.2,45.7,-3.4,9.6,-10.8,-22.4,0.3624073,0.053010651,0.415387432,-0.832605976
941,2355236,1642150,-0.738,-0.54,0.775,-12.7,45.2,-1.8,9.6,-10.8,-22.4,0.361980041,0.0537125767,0.415997803,-0.832453383
942,2357485,1642150,-0.722,-0.513,0.755,-1,44.1,1.4,9.6,-6.2,-20.8,0.361613819,0.0545365764,0.416364025,-0.832392346
943,2359769,1642150,-0.718,-0.501,0.743,-1,44.1,1.4,9.6,-6.2,-20.8,0.361247597,0.0553300577,0.416730247,-0.83230079
944,2362293,1642150,-0.714,-0.486,0.735,3.7,43.7,3,9.6,-6.2,-20.8,0.360881375,0.0561845759,0.417004913,-0.832270272
945,2364705,1642160,-0.713,-0.47,0.727,7.8,43.3,4.7,9.6,-6.2,-20.8,0.360576189,0.0570696127,0.417188025,-0.832239753
946,2368908,1642160,-0.713,-0.439,0.712,11.4,42.8,6.3,9.8,-8.3,-23.4,0.360271004,0.0580156865,0.417310099,-0.832239753
947,2371165,1642160,-0.705,-0.423,0.711,14.5,42.4,7.9,9.8,-8.3,-23.4,0.360026856,0.0589617603,0.417371136,-0.832270272
948,2373056,1642160,-0.709,-0.411,0.707,17.3,42.1,9.4,9.8,-8.3,-23.4,0.359782708,0.0599383526,0.417371136,-0.83230079
949,2375293,1642170,-0.692,-0.388,0.695,19.8,41.8,10.9,9.8,-8.3,-23.4,0.359569079,0.0609759819,0.417310099,-0.832331309
950,2377493,1642170,-0.689,-0.388,0.683,21.9,41.5,12.2,10.1,-7.8,-23.4,0.359385968,0.0620136113,0.417249062,-0.832392346
951,2379728,1642170,-0.688,-0.38,0.683,23.4,41.1,13.4,10.1,-7.8,-23.4,0.359233375,0.0630512406,0.417126988,-0.832422864
952,2382891,1642170,-0.688,-0.376,0.679,24.6,40.8,14.5,10.1,-7.8,-23.4,0.359080782,0.0641193884,0.416974395,-0.832483901
953,2384621,1642180,-0.68,-0.369,0.675,25.4,40.5,15.4,10.1,-7.8,-23.4,0.358958708,0.0652180548,0.416791284,-0.832544939
954,2388067,1642180,-0.676,-0.373,0.675,26,40.2,16.1,10.2,-6.7,-23.3,0.358867153,0.0662862026,0.416608173,-0.832605976
955,2389562,1642180,-0.676,-0.373,0.675,26.6,39.9,16.8,10.2,-6.7,-23.3,0.358745079,0.0673848689,0.416425062,-0.832636494
956,2392317,1642180,-0.673,-0.381,0.671,27,39.5,17.5,10.2,-6.7,-23.3,0.358684042,0.0684530168,0.416211432,-0.832697531
957,2395454,1642190,-0.665,-0.377,0.667,27.2,39.1,18.1,10.2,-6.7,-23.3,0.358623005,0.0695516831,0.415997803,-0.83272805
958,2397215,1642190,-0.665,-0.381,0.663,27.4,38.6,18.6,10.5,-6.4,-23.3,0.358561968,0.0706503494,0.415784173,-0.832789087
959,2400747,1642190,-0.657,-0.385,0.659,27.2,38.3,19,10.5,-6.4,-23.3,0.358500931,0.0717184973,0.415540025,-0.832819605
960,2402267,1642190,-0.661,-0.389,0.659,26.9,37.9,19.4,10.5,-6.4,-23.3,0.358470412,0.0727866451,0.415326395,-0.832850124
961,2405251,1642200,-0.653,-0.381,0.647,26.5,37.5,19.8,10.5,-6.4,-23.3,0.358470412,0.0738242744,0.415112766,-0.832880642
962,2408290,1642200,-0.645,-0.389,0.647,25.7,36.8,20.3,10.3,-8,-21.4,0.358775597,0.0755638295,0.414532914,-0.832850124
963,2409803,1642200,-0.645,-0.389,0.647,25.7,36.8,20.3,10.3,-8,-21.4,0.358775597,0.0766319773,0.414349803,-0.832880642
964,2412933,1642200,-0.641,-0.385,0.655,25.5,36.1,20.4,10.3,-8,-21.4,0.358775597,0.0776696066,0.414136174,-0.832880642
965,2414565,1642210,-0.637,-0.393,0.647,25.4,35.5,20.6,10.3,-8,-21.4,0.358806116,0.0787072359,0.413922544,-0.832880642
966,2417315,1642210,-0.629,-0.398,0.651,25.2,34.9,20.8,10.8,-8.4,-21.8,0.358806116,0.0796838282,0.413708914,-0.832880642
967,2420427,1642210,-0.622,-0.409,0.647,25,34.3,21.1,10.8,-8.4,-21.8,0.358836634,0.0807519761,0.413464766,-0.832880642
968,2422081,1642210,-0.618,-0.421,0.654,24.7,33.6,21.4,10.8,-8.4,-21.8,0.358897671,0.0817285684,0.413251137,-0.832880642
969,2424878,1642220,-0.606,-0.426,0.654,24.3,33,21.6,10.8,-8.4,-21.8,0.35892819,0.0827356792,0.413037507,-0.832880642
970,2428680,1642220,-0.606,-0.437,0.658,24,32.4,21.7,10.7,-8.4,-21.6,0.358989227,0.0837122715,0.412793359,-0.832850124
971,2430926,1642220,-0.598,-0.453,0.658,23.9,32.1,21.8,10.7,-8.4,-21.6,0.359050264,0.0846583453,0.41257973,-0.832850124
972,2432339,1642220,-0.583,-0.469,0.661,23.8,31.6,21.8,10.7,-8.4,-21.6,0.35914182,0.0856349376,0.4123661,-0.832819605
973,2435578,1642230,-0.583,-0.473,0.661,23.6,31.1,21.9,10.7,-8.4,-21.6,0.359202857,0.0865810114,0.412121952,-0.832819605
974,2437345,1642230,-0.579,-0.485,0.657,23.4,30.7,22,10.5,-8.8,-21,0.359294412,0.0874965667,0.411908322,-0.832789087
975,2440563,1642230,-0.571,-0.497,0.653,23.4,30.3,22.1,10.5,-8.8,-21,0.359355449,0.0884426405,0.411664174,-0.832758568
976,2442679,1642230,-0.564,-0.513,0.661,23.5,29.9,22.2,10.5,-8.8,-21,0.359447005,0.0893887143,0.411420026,-0.832758568
977,2445605,1642240,-0.556,-0.517,0.649,23.7,29.5,22.4,10.5,-8.8,-21,0.35953856,0.0903042695,0.411175878,-0.83272805
978,2447202,1642240,-0.556,-0.517,0.657,24.1,29,22.7,11,-8.5,-20.2,0.359660634,0.0912198248,0.41093173,-0.832697531
979,2450319,1642240,-0.552,-0.525,0.653,24.2,28.5,23.2,11,-8.5,-20.2,0.359782708,0.0921353801,0.410626545,-0.832697531
980,2452556,1642240,-0.548,-0.529,0.649,24.4,28,23.7,11,-8.5,-20.2,0.359904782,0.0930509354,0.410382397,-0.832667013
981,2454667,1642250,-0.552,-0.533,0.641,24.4,27.6,24.2,11,-8.5,-20.2,0.360057375,0.0939664907,0.41010773,-0.832636494
982,2458105,1642250,-0.544,-0.529,0.645,24.4,26.8,25.2,11,-9,-23,0.361033967,0.0965910825,0.409253212,-0.832331309
983,2459788,1642250,-0.544,-0.533,0.641,24.4,26.8,25.2,11,-9,-23,0.36118656,0.0975066378,0.408978545,-0.83230079
984,2463197,1642250,-0.544,-0.537,0.641,24.4,26.4,25.6,11,-9,-23,0.361369671,0.0984221931,0.40867336,-0.832270272
985,2464871,1642260,-0.536,-0.537,0.649,24.4,26.1,26.2,11,-9,-23,0.361552782,0.0993072298,0.408398694,-0.832209235
986,2467868,1642260,-0.536,-0.541,0.641,24.4,25.6,26.6,10.8,-9,-19.5,0.361766411,0.100192267,0.408093509,-0.832148198
987,2469633,1642260,-0.528,-0.545,0.652,24.4,25.1,27,10.8,-9,-19.5,0.361980041,0.101107822,0.407788324,-0.832117679
988,2473634,1642260,-0.528,-0.545,0.652,24.4,25.1,27,10.8,-9,-19.5,0.361980041,0.101107822,0.407788324,-0.832117679
989,2475899,1642270,-0.529,-0.557,0.648,23.9,24.3,28.1,10.8,-9,-19.5,0.362437819,0.102877895,0.407177953,-0.831995605
990,2477609,1642270,-0.521,-0.557,0.652,23.5,24,28.5,10.9,-9.2,-19.9,0.362681967,0.103732414,0.406872768,-0.83190405
991,2479718,1642270,-0.521,-0.557,0.648,23,23.7,28.9,10.9,-9.2,-19.9,0.362956633,0.104586932,0.406598102,-0.831843013
992,2482366,1642270,-0.521,-0.557,0.652,22.6,23.5,29.1,10.9,-9.2,-19.9,0.3632313,0.105471969,0.406292917,-0.831751457
993,2485280,1642280,-0.52,-0.545,0.644,22.1,23.1,29.3,10.9,-9.2,-19.9,0.363505966,0.106326487,0.40601825,-0.831659902
994,2488501,1642280,-0.521,-0.549,0.64,21.4,22.6,29.4,10.8,-8.8,-19.6,0.363750114,0.107181005,0.405743583,-0.831568346
995,2490635,1642280,-0.52,-0.542,0.64,20.8,22.1,29.6,10.8,-8.8,-19.6,0.364085818,0.108005005,0.405468917,-0.831476791
996,2492305,1642280,-0.524,-0.538,0.64,20.2,21.6,29.8,10.8,-8.8,-19.6,0.364391003,0.108829005,0.40519425,-0.831354717
997,2494644,1642290,-0.524,-0.534,0.633,19.7,21.1,29.9,10.8,-8.8,-19.6,0.364696188,0.109622486,0.404919584,-0.831232643
998,2497713,1642290,-0.524,-0.526,0.629,19.1,20.7,30,11.1,-9.1,-19.9,0.365001373,0.110415967,0.404675436,-0.831110569
999,2499961,1642290,-0.52,-0.522,0.625,18.5,20.2,30.1,11.1,-9.1,-19.9,0.365337077,0.111209449,0.404431288,-0.830988495
1000,2502237,1642290,-0.52,-0.518,0.621,17.9,19.5,30.1,11.1,-9.1,-19.9,0.365672781,0.111972411,0.40418714,-0.83086642
1001,2506609,1642300,-0.52,-0.506,0.628,17.2,18.8,30.1,11.1,-9.1,-19.9,0.366008484,0.112704855,0.403942991,-0.830744346
1002,2507539,1642300,-0.516,-0.502,0.617,15.6,17.9,29.9,11.3,-9.6,-21.8,0.366618854,0.11404767,0.403546251,-0.83046968
1003,2509670,1642300,-0.516,-0.502,0.617,15.6,17.9,29.9,11.3,-9.6,-21.8,0.366954558,0.114749596,0.403332621,-0.830317087
1004,2513189,1642300,-0.516,-0.498,0.613,14.7,17.4,29.4,11.3,-9.6,-21.8,0.36732078,0.115451521,0.403118992,-0.830195013
1005,2515093,1642310,-0.512,-0.495,0.616,14,16.8,29,11.3,-9.6,-21.8,0.367656484,0.116122929,0.402935881,-0.830042421
1006,2518522,1642310,-0.508,-0.495,0.612,13.2,16,28.5,10.8,-9.6,-21.4,0.367992187,0.116763817,0.40275277,-0.829889828
1007,2520859,1642310,-0.504,-0.499,0.612,12.6,15.5,28.2,10.8,-9.6,-21.4,0.368327891,0.117404706,0.402569658,-0.829706717
1008,2523206,1642310,-0.504,-0.503,0.605,11.7,14.8,28,10.8,-9.6,-21.4,0.368694113,0.118015076,0.402386547,-0.829554125
1009,2525430,1642320,-0.496,-0.499,0.612,10.9,14.2,27.7,10.8,-9.6,-21.4,0.369029817,0.118594928,0.402233955,-0.829401532
1010,2527580,1642320,-0.492,-0.503,0.612,10.2,13.5,27.3,10.7,-9.6,-21.6,0.369396039,0.11917478,0.402081362,-0.829218421
1011,2529962,1642320,-0.5,-0.507,0.612,9.7,12.9,26.9,10.7,-9.6,-21.6,0.369731742,0.119724113,0.401959288,-0.829065828
1012,2532248,1642320,-0.492,-0.511,0.62,9.4,12.4,26.5,10.7,-9.6,-21.6,0.370067446,0.120212409,0.401806696,-0.828913236
1013,2534729,1642330,-0.485,-0.531,0.616,9.3,12,26.2,10.7,-9.6,-21.6,0.370433668,0.120761742,0.401684622,-0.828730125
