sample_index,elapsed_us,device_time_ms,acc_x_g,acc_y_g,acc_z_g,gyro_x_dps,gyro_y_dps,gyro_z_dps,mag_x_ut,mag_y_ut,mag_z_ut,quat_w,quat_x,quat_y,quat_z
0,5563,1505350,0.966,-0.08,0.244,0.1,0,0.3,-4.3,25.3,-18.4,0.101321451,-0.607684561,-0.0369884335,-0.786797693
1,7693,1505350,0.97,-0.08,0.248,0.1,0,0.4,-4.3,25.3,-18.4,0.101321451,-0.607684561,-0.036957915,-0.786797693
2,9616,1505360,0.966,-0.072,0.248,0.1,0,0.5,-4.3,25.3,-18.4,0.10135197,-0.607684561,-0.036957915,-0.786797693
3,11927,1505360,0.966,-0.076,0.244,0.2,-0.1,0.6,-4.3,25.6,-18.8,0.10135197,-0.607684561,-0.036957915,-0.786797693
4,14031,1505360,0.97,-0.076,0.248,0.2,-0.2,0.7,-4.3,25.6,-18.8,0.101382488,-0.607684561,-0.036957915,-0.786797693
5,16981,1505360,0.966,-0.08,0.248,0.1,-0.2,0.8,-4.3,25.6,-18.8,0.101382488,-0.607684561,-0.036957915,-0.786767174
6,20091,1505370,0.973,-0.073,0.248,0,-0.2,0.8,-4.3,25.6,-18.8,0.101413007,-0.607684561,-0.036896878,-0.786767174
7,21572,1505370,0.97,-0.072,0.244,0,-0.1,0.8,-4.2,25.2,-18.6,0.101413007,-0.607684561,-0.036896878,-0.786767174
8,24590,1505370,0.97,-0.069,0.24,0.1,-0.1,1,-4.2,25.2,-18.6,0.101443525,-0.607684561,-0.036896878,-0.786767174
9,27580,1505370,0.97,-0.069,0.252,0.1,-0.1,1,-4.2,25.2,-18.6,0.101474044,-0.607715079,-0.036896878,-0.786767174
10,29168,1505380,0.973,-0.073,0.248,0.1,-0.2,1.1,-4.2,25.2,-18.6,0.101474044,-0.607715079,-0.036896878,-0.786767174
11,32851,1505380,0.97,-0.069,0.244,0,-0.2,1,-4.5,25.6,-18.9,0.101504563,-0.607715079,-0.036896878,-0.786736656
12,34244,1505380,0.966,-0.068,0.248,0,-0.2,1,-4.5,25.6,-18.9,0.101504563,-0.607715079,-0.0368663594,-0.786736656
13,37435,1505380,0.97,-0.069,0.244,-0.1,-0.3,0.9,-4.5,25.6,-18.9,0.101535081,-0.607715079,-0.0368663594,-0.786736656
14,38963,1505390,0.97,-0.072,0.24,-0.1,-0.2,1,-4.5,25.6,-18.9,0.1015656,-0.607715079,-0.0368358409,-0.786736656
15,41882,1505390,0.97,-0.069,0.244,-0.2,-0.2,1.2,-4.1,25.8,-19.3,0.101596118,-0.607928709,-0.0367442854,-0.786584063
16,44914,1505390,0.97,-0.069,0.244,-0.2,-0.2,1.2,-4.1,25.8,-19.3,0.101626637,-0.607928709,-0.0367442854,-0.786584063
17,46387,1505390,0.966,-0.076,0.24,-0.2,-0.3,1.3,-4.1,25.8,-19.3,0.101657155,-0.607928709,-0.0367137669,-0.786584063
18,49327,1505400,0.966,-0.076,0.236,-0.4,-0.3,1.2,-4.1,25.8,-19.3,0.101657155,-0.607928709,-0.0366527299,-0.786553545
19,52661,1505400,0.966,-0.076,0.236,-0.3,-0.3,1.1,-4.3,25.7,-18.9,0.101657155,-0.607959227,-0.0366527299,-0.786553545
20,54665,1505400,0.966,-0.076,0.24,-0.2,-0.2,1,-4.3,25.7,-18.9,0.101657155,-0.607959227,-0.0366527299,-0.786553545
21,56920,1505400,0.966,-0.08,0.24,-0.1,-0.1,1,-4.3,25.7,-18.9,0.101718192,-0.607959227,-0.0366222114,-0.786553545
22,60113,1505410,0.966,-0.08,0.244,-0.1,-0.1,0.9,-4.3,25.7,-18.9,0.101718192,-0.607959227,-0.0366222114,-0.786553545
23,62769,1505410,0.962,-0.084,0.24,-0.1,-0.1,0.8,-4.5,25.6,-19.2,0.101748711,-0.607959227,-0.0365916929,-0.786553545
24,64595,1505410,0.966,-0.084,0.244,-0.2,-0.1,0.8,-4.5,25.6,-19.2,0.101748711,-0.607959227,-0.0365916929,-0.786523026
25,66995,1505410,0.962,-0.084,0.244,-0.2,-0.2,0.8,-4.5,25.6,-19.2,0.101748711,-0.607959227,-0.0365611744,-0.786523026
26,70911,1505420,0.962,-0.084,0.244,-0.2,-0.2,0.8,-4.5,25.6,-19.2,0.101748711,-0.607959227,-0.0365611744,-0.786523026
27,73167,1505420,0.969,-0.088,0.244,-0.4,-0.2,0.8,-4.3,25.4,-19.4,0.101779229,-0.607989746,-0.0365306558,-0.786523026
28,75374,1505420,0.962,-0.084,0.24,-0.5,-0.3,0.8,-4.3,25.4,-19.4,0.101779229,-0.607989746,-0.0365306558,-0.786523026
29,77711,1505420,0.962,-0.092,0.248,-0.4,-0.3,0.8,-4.3,25.4,-19.4,0.101779229,-0.607989746,-0.0365001373,-0.786492508
30,79728,1505430,0.962,-0.088,0.244,-0.4,-0.3,0.7,-4.3,25.4,-19.4,0.101779229,-0.608020264,-0.0364696188,-0.786492508
31,82125,1505430,0.958,-0.092,0.244,-0.4,-0.2,0.6,-4.4,25.8,-19.3,0.101809748,-0.608020264,-0.0364696188,-0.786492508
32,84636,1505430,0.958,-0.088,0.24,-0.4,-0.2,0.5,-4.4,25.8,-19.3,0.101809748,-0.608020264,-0.0364085818,-0.786492508
33,86831,1505430,0.962,-0.088,0.244,-0.4,-0.4,0.4,-4.4,25.8,-19.3,0.101809748,-0.608020264,-0.0364085818,-0.786492508
34,89221,1505440,0.962,-0.092,0.24,-0.4,-0.5,0.4,-4.4,25.8,-19.3,0.101809748,-0.608050783,-0.0364085818,-0.786492508
35,91602,1505440,0.962,-0.088,0.248,-0.6,-0.5,0.4,-4.3,25.7,-18.1,0.101992859,-0.608233894,-0.0361339152,-0.786309397
36,93850,1505440,0.962,-0.088,0.24,-0.6,-0.5,0.4,-4.3,25.7,-18.1,0.101992859,-0.608264412,-0.0361033967,-0.786309397
37,98224,1505440,0.962,-0.088,0.24,-0.7,-0.5,0.4,-4.3,25.7,-18.1,0.101992859,-0.608264412,-0.0361033967,-0.786309397
38,100371,1505450,0.962,-0.08,0.244,-0.9,-0.6,0.4,-4.3,25.7,-18.1,0.101992859,-0.608264412,-0.0360728782,-0.786278878
39,102774,1505450,0.966,-0.084,0.244,-0.9,-0.6,0.3,-4.5,25.6,-19.1,0.101992859,-0.608294931,-0.0360423597,-0.786278878
40,104606,1505450,0.962,-0.088,0.244,-0.8,-0.5,0.3,-4.5,25.6,-19.1,0.101992859,-0.608294931,-0.0360423597,-0.786278878
41,106933,1505450,0.966,-0.084,0.244,-0.7,-0.4,0.3,-4.5,25.6,-19.1,0.101992859,-0.608294931,-0.0360118412,-0.786278878
42,110026,1505460,0.966,-0.084,0.244,-0.6,-0.2,0.3,-4.5,25.6,-19.1,0.101992859,-0.608325449,-0.0360118412,-0.78624836
43,111383,1505460,0.969,-0.08,0.24,-0.4,-0.1,0.4,-4.1,25.5,-19.7,0.101992859,-0.608325449,-0.0359813227,-0.78624836
44,114240,1505460,0.973,-0.08,0.24,-0.3,-0.2,0.4,-4.1,25.5,-19.7,0.101992859,-0.608325449,-0.0359813227,-0.78624836
45,117581,1505460,0.97,-0.08,0.244,-0.1,-0.2,0.3,-4.1,25.5,-19.7,0.101992859,-0.608325449,-0.0359813227,-0.78624836
46,118990,1505470,0.966,-0.084,0.24,0,-0.3,0.2,-4.1,25.5,-19.7,0.101992859,-0.608325449,-0.0359813227,-0.78624836
47,121738,1505470,0.973,-0.084,0.248,0.1,-0.2,0.2,-4.1,25,-19.2,0.101992859,-0.608355968,-0.0359813227,-0.78624836
48,125086,1505470,0.973,-0.084,0.244,0.1,-0.2,0.2,-4.1,25,-19.2,0.101992859,-0.608355968,-0.0359813227,-0.78624836
49,126630,1505470,0.977,-0.088,0.244,0.1,-0.1,0.2,-4.1,25,-19.2,0.102023377,-0.608355968,-0.0359813227,-0.78624836
50,129127,1505480,0.973,-0.08,0.248,0.1,-0.1,0.2,-4.1,25,-19.2,0.102023377,-0.608355968,-0.0359813227,-0.786217841
51,131274,1505480,0.973,-0.084,0.244,0,-0.1,0.2,-3.9,24.9,-18.9,0.102023377,-0.608355968,-0.0359813227,-0.786217841
52,135964,1505480,0.973,-0.084,0.248,0,-0.1,0.2,-3.9,24.9,-18.9,0.102023377,-0.608355968,-0.0359202857,-0.786217841
53,138040,1505480,0.973,-0.08,0.244,-0.1,-0.1,0.3,-3.9,24.9,-18.9,0.102023377,-0.608355968,-0.0359202857,-0.786217841
54,140258,1505490,0.973,-0.084,0.248,-0.1,-0.1,0.4,-3.9,24.9,-18.9,0.102023377,-0.608355968,-0.0359202857,-0.786217841
55,142449,1505490,0.973,-0.073,0.244,-0.4,-0.2,0.3,-4.2,26.7,-17.3,0.102145451,-0.608478042,-0.0357982116,-0.786126286
56,145148,1505490,0.973,-0.073,0.244,-0.4,-0.2,0.3,-4.2,26.7,-17.3,0.102145451,-0.608478042,-0.0357982116,-0.786126286
57,146578,1505490,0.97,-0.08,0.248,-0.6,-0.4,0.3,-4.2,26.7,-17.3,0.102114933,-0.60850856,-0.0357676931,-0.786095767
58,148839,1505500,0.973,-0.073,0.244,-0.7,-0.4,0.4,-4.2,26.7,-17.3,0.102114933,-0.60850856,-0.0357371746,-0.786095767
59,152733,1505500,0.973,-0.08,0.248,-0.8,-0.4,0.4,-4.2,25.3,-19.7,0.102114933,-0.60850856,-0.0357371746,-0.786095767
60,155562,1505500,0.966,-0.08,0.244,-1,-0.3,0.3,-4.2,25.3,-19.7,0.102114933,-0.608539079,-0.0356761376,-0.786095767
61,157777,1505500,0.966,-0.08,0.248,-1,-0.2,0.4,-4.2,25.3,-19.7,0.102114933,-0.608539079,-0.0356761376,-0.786095767
62,159913,1505510,0.973,-0.084,0.244,-1,-0.2,0.3,-4.2,25.3,-19.7,0.102114933,-0.608539079,-0.0356761376,-0.786095767
63,161299,1505510,0.962,-0.076,0.24,-0.9,-0.3,0.2,-4.2,25.1,-20,0.102084414,-0.608539079,-0.0356456191,-0.786095767
64,165179,1505510,0.969,-0.084,0.244,-0.9,-0.4,0.1,-4.2,25.1,-20,0.102084414,-0.608569597,-0.0356151006,-0.786065249
65,166931,1505510,0.969,-0.092,0.244,-0.7,-0.4,0,-4.2,25.1,-20,0.102084414,-0.608569597,-0.0356151006,-0.786065249
66,169354,1505520,0.966,-0.088,0.244,-0.6,-0.4,0.1,-4.2,25.1,-20,0.102053896,-0.608569597,-0.0356151006,-0.786065249
67,172827,1505520,0.966,-0.092,0.24,-0.5,-0.4,0,-4.1,25.1,-19.8,0.102053896,-0.608600116,-0.035584582,-0.786065249
68,175077,1505520,0.966,-0.088,0.248,-0.4,-0.2,0.1,-4.1,25.1,-19.8,0.102053896,-0.608600116,-0.035584582,-0.786065249
69,176956,1505520,0.966,-0.088,0.244,-0.3,0,0.1,-4.1,25.1,-19.8,0.102053896,-0.608600116,-0.035584582,-0.786065249
70,179414,1505530,0.966,-0.088,0.24,-0.3,0,0,-4.1,25.1,-19.8,0.102053896,-0.608600116,-0.035584582,-0.786065249
71,181678,1505530,0.962,-0.092,0.244,-0.3,0.1,0,-3.9,25.7,-19.5,0.102053896,-0.608600116,-0.0355540635,-0.786065249
72,185860,1505530,0.962,-0.092,0.244,-0.4,0,0.1,-3.9,25.7,-19.5,0.102053896,-0.608600116,-0.0355540635,-0.786065249
73,187490,1505530,0.962,-0.092,0.244,-0.4,0,0.1,-3.9,25.7,-19.5,0.102053896,-0.608600116,-0.0355540635,-0.786065249
74,189671,1505540,0.962,-0.092,0.24,-0.6,0.1,0.2,-3.9,25.7,-19.5,0.102023377,-0.608600116,-0.035523545,-0.786065249
75,191736,1505540,0.962,-0.088,0.244,-0.5,0.2,0.3,-4,26.6,-18.5,0.102206488,-0.60872219,-0.035279397,-0.785943175
76,194168,1505540,0.966,-0.088,0.24,-0.5,0.2,0.3,-4,26.6,-18.5,0.102206488,-0.60872219,-0.0352488784,-0.785943175
77,196490,1505540,0.962,-0.088,0.24,-0.4,0.1,0.3,-4,26.6,-18.5,0.102206488,-0.60872219,-0.0352488784,-0.785943175
78,200141,1505550,0.962,-0.08,0.244,-0.4,0.1,0.3,-4,26.6,-18.5,0.102206488,-0.60872219,-0.0351878414,-0.785943175
79,201419,1505550,0.962,-0.088,0.248,-0.4,0.2,0.4,-4.1,25.8,-18.9,0.102206488,-0.60872219,-0.0351878414,-0.785943175
80,204875,1505550,0.958,-0.088,0.244,-0.4,0.4,0.4,-4.1,25.8,-18.9,0.102206488,-0.60872219,-0.0351878414,-0.785973693
81,207162,1505550,0.966,-0.084,0.248,-0.5,0.4,0.5,-4.1,25.8,-18.9,0.102206488,-0.60872219,-0.0351878414,-0.785973693
82,210352,1505560,0.962,-0.084,0.244,-0.6,0.3,0.5,-4.1,25.8,-18.9,0.102206488,-0.608691671,-0.0351573229,-0.785973693
83,212580,1505560,0.962,-0.084,0.248,-0.6,0.3,0.5,-3.9,26.3,-18.9,0.102237007,-0.608691671,-0.0351573229,-0.785973693
84,214439,1505560,0.966,-0.08,0.24,-0.7,0.3,0.5,-3.9,26.3,-18.9,0.102237007,-0.608691671,-0.0351268044,-0.785973693
85,216758,1505560,0.97,-0.08,0.248,-0.8,0.4,0.5,-3.9,26.3,-18.9,0.102206488,-0.608691671,-0.0350962859,-0.785973693
86,219140,1505570,0.966,-0.084,0.248,-0.7,0.4,0.5,-3.9,26.3,-18.9,0.102206488,-0.608691671,-0.0350657674,-0.785973693
87,221475,1505570,0.962,-0.08,0.244,-0.7,0.4,0.6,-4.6,26.5,-18.9,0.102206488,-0.608691671,-0.0350657674,-0.786004212
88,225167,1505570,0.966,-0.084,0.244,-0.6,0.4,0.6,-4.6,26.5,-18.9,0.102237007,-0.608661153,-0.0350352489,-0.786004212
89,227355,1505570,0.962,-0.08,0.244,-0.5,0.6,0.6,-4.6,26.5,-18.9,0.102237007,-0.608661153,-0.0350047304,-0.786004212
90,229465,1505580,0.962,-0.08,0.252,-0.3,0.8,0.6,-4.6,26.5,-18.9,0.102237007,-0.608661153,-0.0350047304,-0.786004212
91,231670,1505580,0.962,-0.076,0.244,-0.2,0.9,0.6,-4,26.7,-18.7,0.102237007,-0.608630634,-0.0349436934,-0.78603473
92,234845,1505580,0.966,-0.08,0.244,-0.2,0.9,0.5,-4,26.7,-18.7,0.102237007,-0.608630634,-0.0349436934,-0.78603473
93,236921,1505580,0.969,-0.084,0.244,-0.2,0.9,0.5,-4,26.7,-18.7,0.102267525,-0.608600116,-0.0349436934,-0.786065249
94,239163,1505590,0.969,-0.084,0.244,-0.2,0.9,0.5,-4,26.7,-18.7,0.102267525,-0.608600116,-0.0349436934,-0.786065249
95,242400,1505590,0.966,-0.084,0.244,-0.1,0.8,0.4,-4.3,25.4,-18.5,0.102389599,-0.608752709,-0.0347605823,-0.785943175
96,244379,1505590,0.966,-0.084,0.244,-0.1,0.8,0.4,-4.3,25.4,-18.5,0.102389599,-0.60872219,-0.0347605823,-0.785943175
97,247526,1505590,0.969,-0.084,0.244,-0.1,0.8,0.4,-4.3,25.4,-18.5,0.102389599,-0.60872219,-0.0347605823,-0.785943175
98,248936,1505600,0.966,-0.084,0.252,-0.3,0.8,0.3,-4.3,25.4,-18.5,0.102389599,-0.60872219,-0.0346995453,-0.785973693
99,251846,1505600,0.97,-0.084,0.248,-0.4,0.8,0.2,-4.2,25.9,-18.5,0.102389599,-0.608691671,-0.0346995453,-0.785973693
100,255015,1505600,0.97,-0.08,0.248,-0.6,0.7,0.2,-4.2,25.9,-18.5,0.102389599,-0.608691671,-0.0346995453,-0.785973693
101,256321,1505600,0.973,-0.084,0.244,-0.7,0.6,0.3,-4.2,25.9,-18.5,0.102389599,-0.608661153,-0.0346995453,-0.786004212
102,259422,1505610,0.966,-0.084,0.252,-0.8,0.5,0.3,-4.2,25.9,-18.5,0.102389599,-0.608661153,-0.0346690268,-0.786004212
103,261615,1505610,0.962,-0.084,0.252,-0.9,0.5,0.3,-4.3,25.6,-18.3,0.102389599,-0.608661153,-0.0346385083,-0.786004212
104,264627,1505610,0.97,-0.084,0.248,-0.9,0.6,0.3,-4.3,25.6,-18.3,0.102389599,-0.608661153,-0.0346385083,-0.786004212
105,267600,1505610,0.97,-0.08,0.244,-0.9,0.7,0.3,-4.3,25.6,-18.3,0.102389599,-0.608630634,-0.0346079897,-0.78603473
106,269080,1505620,0.966,-0.084,0.248,-0.9,0.6,0.3,-4.3,25.6,-18.3,0.102359081,-0.608630634,-0.0345774712,-0.78603473
107,271891,1505620,0.969,-0.088,0.24,-0.7,0.7,0.3,-4.2,25.7,-18.8,0.102359081,-0.608630634,-0.0345469527,-0.78603473
108,274961,1505620,0.962,-0.084,0.248,-0.7,0.6,0.3,-4.2,25.7,-18.8,0.102359081,-0.608600116,-0.0345469527,-0.78603473
109,276514,1505620,0.966,-0.088,0.248,-0.7,0.6,0.1,-4.2,25.7,-18.8,0.102359081,-0.608600116,-0.0345164342,-0.786065249
110,280046,1505630,0.962,-0.088,0.244,-0.7,0.6,0,-4.2,25.7,-18.8,0.102359081,-0.608600116,-0.0345164342,-0.786065249
111,281413,1505630,0.966,-0.088,0.248,-0.7,0.6,0,-4.6,25.6,-18.8,0.102328562,-0.608569597,-0.0344553972,-0.786065249
112,284382,1505630,0.966,-0.092,0.248,-0.7,0.7,0,-4.6,25.6,-18.8,0.102328562,-0.608569597,-0.0344553972,-0.786095767
113,287572,1505630,0.954,-0.092,0.241,-0.7,0.8,0,-4.6,25.6,-18.8,0.102328562,-0.608569597,-0.0344553972,-0.786095767
114,289834,1505640,0.962,-0.088,0.248,-0.7,0.7,0,-4.6,25.6,-18.8,0.102298044,-0.608539079,-0.0344553972,-0.786095767
115,292650,1505640,0.962,-0.088,0.24,-0.7,0.6,0,-3.9,24.7,-18.6,0.102481155,-0.608661153,-0.0341807306,-0.786004212
116,294109,1505640,0.962,-0.088,0.24,-0.7,0.6,0,-3.9,24.7,-18.6,0.102481155,-0.608661153,-0.0341807306,-0.786004212
117,296900,1505640,0.958,-0.092,0.248,-0.8,0.7,0,-3.9,24.7,-18.6,0.102450636,-0.608661153,-0.0341502121,-0.78603473
118,300040,1505650,0.962,-0.088,0.248,-0.9,0.6,0,-3.9,24.7,-18.6,0.102450636,-0.608630634,-0.0341502121,-0.78603473
119,301471,1505650,0.962,-0.088,0.248,-1,0.7,0,-5.3,26.2,-18.5,0.102450636,-0.608630634,-0.0341196936,-0.78603473
120,304419,1505650,0.962,-0.088,0.248,-1.1,0.7,-0.1,-5.3,26.2,-18.5,0.102420118,-0.608630634,-0.0340891751,-0.786065249
121,306674,1505650,0.962,-0.088,0.244,-1.1,0.7,-0.1,-5.3,26.2,-18.5,0.102389599,-0.608600116,-0.0340891751,-0.786065249
122,309814,1505660,0.962,-0.088,0.248,-1.1,0.6,-0.1,-5.3,26.2,-18.5,0.102389599,-0.608600116,-0.0340586566,-0.786065249
123,312665,1505660,0.962,-0.084,0.244,-1,0.4,-0.2,-5.7,26.5,-18.9,0.102359081,-0.608600116,-0.0340586566,-0.786095767
124,314205,1505660,0.962,-0.088,0.244,-0.9,0.4,-0.3,-5.7,26.5,-18.9,0.102359081,-0.608600116,-0.0340281381,-0.786095767
125,318057,1505660,0.962,-0.08,0.244,-0.9,0.5,-0.3,-5.7,26.5,-18.9,0.102328562,-0.608569597,-0.0340281381,-0.786095767
126,320326,1505670,0.962,-0.084,0.24,-0.9,0.6,-0.4,-5.7,26.5,-18.9,0.102298044,-0.608569597,-0.033967101,-0.786095767
127,322521,1505670,0.962,-0.084,0.248,-0.8,0.6,-0.4,-5.8,26.3,-18.6,0.102298044,-0.608569597,-0.033967101,-0.786126286
128,323932,1505670,0.962,-0.084,0.244,-0.7,0.5,-0.4,-5.8,26.3,-18.6,0.102267525,-0.608569597,-0.033967101,-0.786126286
129,326765,1505670,0.962,-0.084,0.244,-0.6,0.4,-0.4,-5.8,26.3,-18.6,0.102267525,-0.608539079,-0.033967101,-0.786126286
130,329979,1505680,0.962,-0.088,0.248,-0.4,0.4,-0.4,-5.8,26.3,-18.6,0.102237007,-0.608539079,-0.033967101,-0.786126286
131,331349,1505680,0.966,-0.084,0.248,-0.4,0.3,-0.4,-5.7,26.4,-18.6,0.102237007,-0.608539079,-0.033967101,-0.786126286
132,334353,1505680,0.962,-0.084,0.244,-0.4,0.4,-0.4,-5.7,26.4,-18.6,0.102206488,-0.608539079,-0.033967101,-0.786126286
133,337472,1505680,0.966,-0.084,0.244,-0.4,0.4,-0.4,-5.7,26.4,-18.6,0.102206488,-0.60850856,-0.033967101,-0.786126286
134,338801,1505690,0.966,-0.084,0.244,-0.4,0.6,-0.6,-5.7,26.4,-18.6,0.102145451,-0.60850856,-0.033967101,-0.786187323
135,341849,1505690,0.966,-0.084,0.244,-0.5,0.4,-0.7,-3.6,25.5,-18.3,0.102298044,-0.608661153,-0.03378399,-0.78603473
136,344917,1505690,0.966,-0.084,0.244,-0.5,0.4,-0.7,-3.6,25.5,-18.3,0.102298044,-0.608661153,-0.03378399,-0.78603473
137,346331,1505690,0.962,-0.084,0.244,-0.6,0.4,-0.7,-3.6,25.5,-18.3,0.102267525,-0.608661153,-0.03378399,-0.786065249
138,349310,1505700,0.962,-0.088,0.244,-0.6,0.5,-0.7,-3.6,25.5,-18.3,0.102237007,-0.608661153,-0.03378399,-0.786065249
139,352509,1505700,0.966,-0.084,0.248,-0.6,0.5,-0.7,-4.9,26.2,-18.3,0.102237007,-0.608630634,-0.03378399,-0.786065249
140,354670,1505700,0.962,-0.084,0.244,-0.6,0.5,-0.7,-4.9,26.2,-18.3,0.102206488,-0.608630634,-0.03378399,-0.786095767
141,356817,1505700,0.962,-0.088,0.248,-0.6,0.4,-0.8,-4.9,26.2,-18.3,0.102145451,-0.608630634,-0.033722953,-0.786095767
142,359904,1505710,0.962,-0.088,0.248,-0.6,0.3,-0.8,-4.9,26.2,-18.3,0.102145451,-0.608630634,-0.033722953,-0.786095767
143,362091,1505710,0.962,-0.084,0.244,-0.7,0.2,-0.8,-4.4,25.5,-18.3,0.102145451,-0.608630634,-0.033722953,-0.786095767
144,364497,1505710,0.962,-0.084,0.244,-0.7,0.1,-0.8,-4.4,25.5,-18.3,0.102114933,-0.608630634,-0.033722953,-0.786126286
145,366653,1505710,0.962,-0.084,0.248,-0.8,0.1,-0.7,-4.4,25.5,-18.3,0.102084414,-0.608630634,-0.033722953,-0.786126286
146,369583,1505720,0.958,-0.092,0.244,-0.8,0,-0.7,-4.4,25.5,-18.3,0.102053896,-0.608630634,-0.033722953,-0.786126286
147,372541,1505720,0.958,-0.092,0.248,-0.8,0,-0.8,-4.1,26,-18.5,0.102023377,-0.608630634,-0.033722953,-0.786126286
148,373976,1505720,0.958,-0.092,0.252,-0.9,-0.1,-1,-4.1,26,-18.5,0.101992859,-0.608630634,-0.033722953,-0.786126286
149,377963,1505720,0.958,-0.084,0.252,-0.9,-0.1,-1.1,-4.1,26,-18.5,0.10196234,-0.608630634,-0.033722953,-0.786126286
150,380431,1505730,0.954,-0.096,0.244,-1,-0.1,-1,-4.1,26,-18.5,0.101931822,-0.608630634,-0.033722953,-0.786126286
151,382634,1505730,0.954,-0.092,0.241,-1,-0.1,-0.9,-3.9,26,-18.1,0.101901303,-0.608630634,-0.033722953,-0.786126286
152,383997,1505730,0.958,-0.092,0.244,-0.9,0,-0.9,-3.9,26,-18.1,0.101870785,-0.608630634,-0.033722953,-0.786126286
153,386928,1505730,0.954,-0.092,0.244,-0.9,0.1,-0.9,-3.9,26,-18.1,0.101840266,-0.608630634,-0.033722953,-0.786126286
154,390045,1505740,0.954,-0.096,0.233,-0.9,0.3,-0.9,-3.9,26,-18.1,0.101809748,-0.608630634,-0.033722953,-0.786126286
155,391666,1505740,0.958,-0.092,0.24,-0.8,0.6,-0.9,-4.3,25.9,-18.6,0.10196234,-0.608783227,-0.0334788049,-0.78603473
156,394796,1505740,0.954,-0.096,0.241,-0.8,0.6,-0.9,-4.3,25.9,-18.6,0.101931822,-0.608752709,-0.0334788049,-0.78603473
157,396850,1505740,0.958,-0.096,0.237,-0.6,0.6,-1,-4.3,25.9,-18.6,0.101901303,-0.608752709,-0.0334788049,-0.78603473
158,399103,1505750,0.95,-0.096,0.241,-0.5,0.5,-1.1,-4.3,25.9,-18.6,0.101901303,-0.608752709,-0.0334788049,-0.786065249
159,402142,1505750,0.958,-0.092,0.244,-0.3,0.4,-1.2,-4,25.6,-18.8,0.101870785,-0.60872219,-0.0334788049,-0.786065249
160,404201,1505750,0.958,-0.1,0.24,-0.2,0.3,-1.3,-4,25.6,-18.8,0.101840266,-0.60872219,-0.0334788049,-0.786065249
161,407466,1505750,0.962,-0.096,0.244,-0.1,0.3,-1.2,-4,25.6,-18.8,0.101809748,-0.60872219,-0.0335398419,-0.786065249
162,408869,1505760,0.958,-0.1,0.244,-0.2,0.3,-1.1,-4,25.6,-18.8,0.101779229,-0.60872219,-0.0335398419,-0.786095767
163,411877,1505760,0.958,-0.096,0.248,-0.4,0.2,-1.1,-3.6,25.5,-18.7,0.101748711,-0.60872219,-0.0335398419,-0.786095767
164,414991,1505760,0.962,-0.096,0.248,-0.5,0,-1,-3.6,25.5,-18.7,0.101748711,-0.60872219,-0.0335398419,-0.786095767
165,416408,1505760,0.962,-0.096,0.244,-0.6,0,-1.1,-3.6,25.5,-18.7,0.101718192,-0.60872219,-0.0335398419,-0.786095767
166,419377,1505770,0.962,-0.092,0.248,-0.6,0,-1,-3.6,25.5,-18.7,0.101657155,-0.60872219,-0.0335703604,-0.786095767
167,423226,1505770,0.962,-0.096,0.252,-0.6,0,-0.9,-4.1,25.5,-18.6,0.101657155,-0.60872219,-0.0335703604,-0.786095767
168,424748,1505770,0.958,-0.092,0.248,-0.6,0,-0.9,-4.1,25.5,-18.6,0.101626637,-0.60872219,-0.0335703604,-0.786095767
169,427581,1505770,0.958,-0.088,0.248,-0.6,-0.1,-1,-4.1,25.5,-18.6,0.101596118,-0.60872219,-0.0335703604,-0.786095767
170,429155,1505780,0.958,-0.088,0.252,-0.6,-0.1,-1,-4.1,25.5,-18.6,0.1015656,-0.60872219,-0.0335703604,-0.786095767
171,433049,1505780,0.966,-0.084,0.248,-0.6,-0.2,-1,-4.3,25.4,-18.8,0.101535081,-0.60872219,-0.0335703604,-0.786095767
172,435244,1505780,0.962,-0.088,0.248,-0.7,-0.2,-1,-4.3,25.4,-18.8,0.101504563,-0.60872219,-0.0335703604,-0.786095767
173,437556,1505780,0.962,-0.084,0.248,-0.6,-0.3,-0.9,-4.3,25.4,-18.8,0.101504563,-0.60872219,-0.0335703604,-0.786095767
174,439684,1505790,0.962,-0.08,0.244,-0.6,-0.3,-0.9,-4.3,25.4,-18.8,0.101474044,-0.608752709,-0.0335703604,-0.786095767
175,441866,1505790,0.97,-0.088,0.252,-0.4,-0.3,-0.9,-5,25.7,-18.6,0.1015656,-0.608844264,-0.0334177679,-0.786004212
176,445590,1505790,0.97,-0.088,0.252,-0.4,-0.3,-0.9,-5,25.7,-18.6,0.101535081,-0.608844264,-0.0334177679,-0.786004212
177,447809,1505790,0.966,-0.088,0.252,-0.4,-0.2,-0.9,-5,25.7,-18.6,0.101504563,-0.608874783,-0.0334177679,-0.786004212
178,450068,1505800,0.966,-0.088,0.248,-0.4,-0.2,-1,-5,25.7,-18.6,0.101474044,-0.608874783,-0.0334482864,-0.786004212
179,452137,1505800,0.966,-0.092,0.244,-0.4,-0.3,-0.9,-3.9,25.8,-17.8,0.101474044,-0.608874783,-0.0334482864,-0.786004212
180,455197,1505800,0.966,-0.08,0.248,-0.4,-0.2,-1,-3.9,25.8,-17.8,0.101443525,-0.608874783,-0.0334482864,-0.786004212
181,456544,1505800,0.966,-0.084,0.244,-0.4,-0.1,-1,-3.9,25.8,-17.8,0.101413007,-0.608874783,-0.0334482864,-0.786004212
182,459708,1505810,0.962,-0.088,0.248,-0.3,0,-1,-3.9,25.8,-17.8,0.101382488,-0.608874783,-0.0334788049,-0.786004212
183,461667,1505810,0.962,-0.084,0.252,-0.3,0.1,-1,-3.8,25.7,-18.6,0.101382488,-0.608874783,-0.0334788049,-0.78603473
184,465762,1505810,0.966,-0.088,0.244,-0.4,0,-1.1,-3.8,25.7,-18.6,0.10135197,-0.608874783,-0.0334788049,-0.78603473
185,468094,1505810,0.962,-0.092,0.248,-0.3,0,-1.1,-3.8,25.7,-18.6,0.101321451,-0.608874783,-0.0334788049,-0.78603473
186,470207,1505820,0.966,-0.088,0.248,-0.3,-0.1,-1.1,-3.8,25.7,-18.6,0.101290933,-0.608874783,-0.0334788049,-0.78603473
187,472582,1505820,0.966,-0.088,0.252,-0.3,0,-1.1,-3.7,25.6,-18.3,0.101290933,-0.608874783,-0.0334788049,-0.78603473
188,474528,1505820,0.962,-0.092,0.244,-0.3,0,-1.2,-3.7,25.6,-18.3,0.101260414,-0.608874783,-0.0334788049,-0.78603473
189,476371,1505820,0.969,-0.092,0.244,-0.3,0,-1.2,-3.7,25.6,-18.3,0.101229896,-0.608874783,-0.0335398419,-0.78603473
190,480643,1505830,0.966,-0.088,0.244,-0.2,0,-1.2,-3.7,25.6,-18.3,0.101168859,-0.608874783,-0.0335398419,-0.78603473
191,482517,1505830,0.966,-0.088,0.248,-0.1,-0.1,-1,-3.5,25.7,-18.2,0.101168859,-0.608874783,-0.0335398419,-0.78603473
192,485151,1505830,0.966,-0.084,0.244,-0.1,-0.2,-0.9,-3.5,25.7,-18.2,0.101168859,-0.608874783,-0.0335703604,-0.78603473
193,486814,1505830,0.966,-0.088,0.248,-0.1,-0.3,-1,-3.5,25.7,-18.2,0.10113834,-0.608905301,-0.0335703604,-0.78603473
194,489083,1505840,0.962,-0.092,0.244,-0.3,-0.4,-1.1,-3.5,25.7,-18.2,0.101107822,-0.608905301,-0.0336008789,-0.78603473
195,493498,1505840,0.966,-0.088,0.248,-0.6,-0.4,-1.2,-5.1,25.5,-18.6,0.101260414,-0.609057894,-0.0333567309,-0.785912656
196,493870,1505840,0.962,-0.084,0.244,-0.6,-0.4,-1.2,-5.1,25.5,-18.6,0.101229896,-0.609057894,-0.0333872494,-0.785912656
197,497573,1505840,0.966,-0.084,0.244,-0.6,-0.4,-1.1,-5.1,25.5,-18.6,0.101168859,-0.609057894,-0.0333872494,-0.785912656
198,499056,1505850,0.966,-0.088,0.244,-0.6,-0.3,-1,-5.1,25.5,-18.6,0.101168859,-0.609057894,-0.0333872494,-0.785912656
199,503275,1505850,0.958,-0.088,0.24,-0.5,-0.3,-1,-3.6,25.6,-18.3,0.10113834,-0.609088412,-0.0333872494,-0.785912656
200,505869,1505850,0.962,-0.084,0.244,-0.5,-0.3,-1.1,-3.6,25.6,-18.3,0.101107822,-0.609088412,-0.0333872494,-0.785912656
201,506443,1505850,0.962,-0.088,0.244,-0.5,-0.3,-1.2,-3.6,25.6,-18.3,0.101077303,-0.609088412,-0.0333872494,-0.785912656
202,510975,1505860,0.962,-0.088,0.244,-0.5,-0.3,-1.2,-3.6,25.6,-18.3,0.101046785,-0.609088412,-0.0334177679,-0.785882138
203,511393,1505860,0.962,-0.088,0.244,-0.6,-0.4,-1.1,-3.6,25.4,-18.5,0.101016266,-0.609088412,-0.0334177679,-0.785882138
204,513975,1505860,0.958,-0.084,0.248,-0.6,-0.3,-1.1,-3.6,25.4,-18.5,0.100985748,-0.609118931,-0.0334177679,-0.785882138
205,516330,1505860,0.962,-0.088,0.244,-0.6,-0.3,-1.1,-3.6,25.4,-18.5,0.100955229,-0.609118931,-0.0334177679,-0.785882138
206,520685,1505870,0.962,-0.088,0.244,-0.6,-0.3,-1.1,-3.6,25.4,-18.5,0.100955229,-0.609118931,-0.0334177679,-0.785882138
207,522938,1505870,0.962,-0.088,0.244,-0.6,-0.3,-1,-3.6,25.7,-18.2,0.100924711,-0.609118931,-0.0334177679,-0.785882138
208,525331,1505870,0.966,-0.084,0.248,-0.6,-0.1,-1,-3.6,25.7,-18.2,0.100894192,-0.609118931,-0.0334482864,-0.785882138
209,527649,1505870,0.962,-0.08,0.244,-0.6,-0.1,-1.1,-3.6,25.7,-18.2,0.100863674,-0.609118931,-0.0334482864,-0.785882138
210,530319,1505880,0.962,-0.084,0.24,-0.7,-0.1,-1.1,-3.6,25.7,-18.2,0.100833155,-0.609149449,-0.0334482864,-0.785882138
211,532734,1505880,0.962,-0.088,0.244,-0.8,-0.1,-1.1,-3.9,25.9,-18.8,0.100802637,-0.609149449,-0.0334482864,-0.785882138
212,534533,1505880,0.962,-0.084,0.24,-0.8,-0.1,-1,-3.9,25.9,-18.8,0.100772118,-0.609149449,-0.0334482864,-0.785882138
213,536680,1505880,0.962,-0.084,0.244,-0.7,-0.3,-1,-3.9,25.9,-18.8,0.1007416,-0.609149449,-0.0334482864,-0.785882138
214,539112,1505890,0.962,-0.088,0.244,-0.7,-0.4,-1,-3.9,25.9,-18.8,0.100680563,-0.609149449,-0.0334482864,-0.785882138
215,542422,1505890,0.962,-0.084,0.244,-0.6,-0.3,-1.2,-4.1,25.9,-18.4,0.100833155,-0.609302042,-0.0332346568,-0.785760063
216,544429,1505890,0.962,-0.084,0.244,-0.6,-0.3,-1.2,-4.1,25.9,-18.4,0.100802637,-0.60933256,-0.0332346568,-0.785760063
217,546630,1505890,0.962,-0.084,0.248,-0.6,-0.1,-1.2,-4.1,25.9,-18.4,0.100772118,-0.60933256,-0.0332346568,-0.785760063
218,549479,1505900,0.962,-0.088,0.244,-0.6,0,-1.2,-4.1,25.9,-18.4,0.1007416,-0.60933256,-0.0332346568,-0.785760063
219,551781,1505900,0.962,-0.084,0.244,-0.7,0,-1.2,-4.5,25.5,-17.8,0.100680563,-0.60933256,-0.0332346568,-0.785760063
220,555685,1505900,0.958,-0.088,0.248,-0.8,0,-1.4,-4.5,25.5,-17.8,0.100680563,-0.60933256,-0.0332346568,-0.785760063
221,557944,1505900,0.962,-0.088,0.248,-0.8,0,-1.4,-4.5,25.5,-17.8,0.100650044,-0.60933256,-0.0332346568,-0.785760063
222,560214,1505910,0.962,-0.088,0.244,-0.8,0,-1.4,-4.5,25.5,-17.8,0.100619526,-0.60933256,-0.0332346568,-0.785760063
223,562570,1505910,0.966,-0.088,0.244,-0.8,0,-1.5,-4.1,25.5,-18.5,0.100558489,-0.60933256,-0.0332346568,-0.785790582
224,564567,1505910,0.966,-0.088,0.244,-0.9,0,-1.5,-4.1,25.5,-18.5,0.10052797,-0.60933256,-0.0332956938,-0.785790582
225,566766,1505910,0.966,-0.096,0.248,-0.9,0,-1.5,-4.1,25.5,-18.5,0.100497452,-0.60933256,-0.0332956938,-0.785790582
226,569966,1505920,0.966,-0.092,0.248,-0.9,0,-1.6,-4.1,25.5,-18.5,0.100436415,-0.60933256,-0.0332956938,-0.785790582
227,572095,1505920,0.966,-0.092,0.244,-0.9,0,-1.5,-4.2,25.6,-18,0.100405896,-0.60933256,-0.0332956938,-0.785790582
228,574246,1505920,0.966,-0.096,0.244,-0.8,0,-1.6,-4.2,25.6,-18,0.100375378,-0.60933256,-0.0332956938,-0.785790582
229,577459,1505920,0.966,-0.096,0.248,-0.8,0,-1.5,-4.2,25.6,-18,0.100344859,-0.60933256,-0.0332956938,-0.785790582
230,579566,1505930,0.966,-0.096,0.244,-0.9,-0.1,-1.6,-4.2,25.6,-18,0.100283822,-0.60933256,-0.0333262123,-0.7858211
231,581829,1505930,0.966,-0.096,0.248,-0.9,-0.1,-1.7,-4.1,25.6,-17.7,0.100253304,-0.60933256,-0.0333262123,-0.7858211
232,584924,1505930,0.966,-0.092,0.244,-0.9,-0.1,-1.7,-4.1,25.6,-17.7,0.100192267,-0.60933256,-0.0333262123,-0.7858211
233,587020,1505930,0.966,-0.092,0.248,-0.9,-0.1,-1.9,-4.1,25.6,-17.7,0.100161748,-0.60933256,-0.0333262123,-0.7858211
234,589266,1505940,0.966,-0.092,0.244,-0.8,-0.3,-1.9,-4.1,25.6,-17.7,0.100100711,-0.609363079,-0.0333567309,-0.7858211
235,592400,1505940,0.97,-0.092,0.252,-0.9,-0.4,-1.9,-4.4,25.7,-19.1,0.100253304,-0.609485153,-0.0330820643,-0.785699026
236,593784,1505940,0.966,-0.092,0.248,-1.1,-0.5,-1.8,-4.4,25.7,-19.1,0.100192267,-0.609485153,-0.0331125828,-0.785699026
237,596623,1505940,0.969,-0.092,0.248,-1.1,-0.6,-1.7,-4.4,25.7,-19.1,0.100161748,-0.609515671,-0.0331125828,-0.785699026
238,600543,1505950,0.969,-0.092,0.24,-1.1,-0.6,-1.7,-4.4,25.7,-19.1,0.10013123,-0.609515671,-0.0331125828,-0.785699026
239,602628,1505950,0.962,-0.092,0.244,-0.9,-0.7,-1.8,-4.3,25.5,-17.3,0.100070193,-0.60954619,-0.0331125828,-0.785699026
240,604010,1505950,0.966,-0.092,0.244,-0.9,-0.7,-1.8,-4.3,25.5,-17.3,0.100039674,-0.60954619,-0.0331431013,-0.785699026
241,606933,1505950,0.969,-0.088,0.244,-0.8,-0.7,-1.8,-4.3,25.5,-17.3,0.100009156,-0.60954619,-0.0331431013,-0.785668508
242,609260,1505960,0.966,-0.088,0.24,-0.7,-0.8,-1.8,-4.3,25.5,-17.3,0.0999481185,-0.609576708,-0.0331431013,-0.785668508
243,612470,1505960,0.969,-0.092,0.244,-0.6,-0.7,-1.8,-4.2,25.2,-16.9,0.0999176,-0.609576708,-0.0331736198,-0.785668508
244,614537,1505960,0.969,-0.088,0.24,-0.6,-0.6,-1.7,-4.2,25.2,-16.9,0.0998870815,-0.609607227,-0.0331736198,-0.785668508
245,616641,1505960,0.973,-0.088,0.244,-0.5,-0.4,-1.7,-4.2,25.2,-16.9,0.0998260445,-0.609607227,-0.0332041383,-0.785668508
246,619603,1505970,0.969,-0.088,0.24,-0.4,-0.3,-1.6,-4.2,25.2,-16.9,0.099795526,-0.609607227,-0.0332041383,-0.785668508
247,621345,1505970,0.969,-0.092,0.236,-0.3,-0.1,-1.6,-4.2,25.8,-17,0.0997650075,-0.609607227,-0.0332346568,-0.785668508
248,624310,1505970,0.966,-0.092,0.236,-0.2,0,-1.7,-4.2,25.8,-17,0.0997039705,-0.609607227,-0.0332346568,-0.785668508
249,627469,1505970,0.966,-0.088,0.244,-0.1,-0.1,-1.7,-4.2,25.8,-17,0.0997039705,-0.609607227,-0.0332346568,-0.785668508
250,629697,1505980,0.969,-0.088,0.244,0,-0.1,-1.7,-4.2,25.8,-17,0.0996734519,-0.609607227,-0.0332956938,-0.785668508
251,631736,1505980,0.969,-0.088,0.244,0,0,-1.8,-4.7,25.2,-17,0.0996429334,-0.609607227,-0.0333262123,-0.785668508
252,635140,1505980,0.969,-0.084,0.244,0,0,-1.8,-4.7,25.2,-17,0.0996124149,-0.609607227,-0.0333567309,-0.785668508
253,637160,1505980,0.966,-0.088,0.244,0,0.1,-1.8,-4.7,25.2,-17,0.0995818964,-0.609607227,-0.0333567309,-0.785699026
254,640176,1505990,0.962,-0.092,0.24,-0.1,0,-1.7,-4.7,25.2,-17,0.0995513779,-0.609607227,-0.0333872494,-0.785699026
255,642070,1505990,0.966,-0.092,0.244,-0.2,0,-1.8,-4.2,25.8,-19.9,0.0997039705,-0.609759819,-0.0331736198,-0.785546434
256,645639,1505990,0.966,-0.092,0.244,-0.3,0.1,-1.9,-4.2,25.8,-19.9,0.0996429334,-0.609759819,-0.0331736198,-0.785576952
257,647413,1505990,0.966,-0.092,0.24,-0.4,0.3,-2,-4.2,25.8,-19.9,0.0996124149,-0.609759819,-0.0332041383,-0.785576952
258,648846,1506000,0.966,-0.092,0.24,-0.5,0.4,-1.9,-4.2,25.8,-19.9,0.0995818964,-0.609729301,-0.0332041383,-0.785576952
259,653004,1506000,0.962,-0.092,0.244,-0.6,0.4,-1.9,-4.2,25.8,-18.1,0.0995208594,-0.609729301,-0.0332346568,-0.785607471
260,655118,1506000,0.958,-0.092,0.24,-0.8,0.3,-1.9,-4.2,25.8,-18.1,0.0994903409,-0.609729301,-0.0332346568,-0.785607471
261,657118,1506000,0.966,-0.092,0.244,-0.9,0.3,-1.8,-4.2,25.8,-18.1,0.0994293039,-0.609729301,-0.0332346568,-0.785607471
262,659179,1506010,0.962,-0.092,0.248,-1.1,0.4,-1.7,-4.2,25.8,-18.1,0.0993987854,-0.609729301,-0.0332346568,-0.785637989
263,663296,1506010,0.962,-0.088,0.244,-1.3,0.4,-1.7,-4.7,25.6,-18.8,0.0993377483,-0.609698782,-0.0332346568,-0.785637989
264,665864,1506010,0.958,-0.092,0.248,-1.4,0.4,-1.7,-4.7,25.6,-18.8,0.0993072298,-0.609698782,-0.0332346568,-0.785637989
265,667692,1506010,0.958,-0.092,0.248,-1.4,0.4,-1.7,-4.7,25.6,-18.8,0.0992156743,-0.609698782,-0.0332346568,-0.785668508
266,669213,1506020,0.962,-0.088,0.248,-1.6,0.3,-1.7,-4.7,25.6,-18.8,0.0991851558,-0.609698782,-0.0332346568,-0.785668508
267,671753,1506020,0.958,-0.092,0.244,-1.6,0.3,-1.7,-4.9,25.6,-19.5,0.0991546373,-0.609698782,-0.0332346568,-0.785668508
268,673829,1506020,0.958,-0.092,0.244,-1.6,0.2,-1.8,-4.9,25.6,-19.5,0.0990936003,-0.609698782,-0.0332346568,-0.785699026
269,678031,1506020,0.958,-0.088,0.248,-1.6,0.2,-1.9,-4.9,25.6,-19.5,0.0990325632,-0.609698782,-0.0332346568,-0.785699026
270,679613,1506030,0.958,-0.084,0.244,-1.6,0.3,-1.9,-4.9,25.6,-19.5,0.0989715262,-0.609698782,-0.0332346568,-0.785699026
271,682071,1506030,0.958,-0.092,0.244,-1.6,0.4,-1.9,-4.3,25.5,-19.5,0.0989410077,-0.609668264,-0.0332346568,-0.785729545
272,684164,1506030,0.954,-0.088,0.244,-1.6,0.3,-1.9,-4.3,25.5,-19.5,0.0988799707,-0.609668264,-0.0332041383,-0.785729545
273,686377,1506030,0.958,-0.088,0.244,-1.5,0.1,-1.9,-4.3,25.5,-19.5,0.0988189337,-0.609668264,-0.0332041383,-0.785729545
274,690663,1506040,0.966,-0.088,0.24,-1.3,0.1,-1.9,-4.3,25.5,-19.5,0.0987273782,-0.609668264,-0.0332346568,-0.785729545
275,693427,1506040,0.962,-0.096,0.244,-0.9,0,-1.8,-4.5,25.6,-18.5,0.0989104892,-0.609790338,-0.0329905087,-0.785637989
276,695684,1506040,0.966,-0.092,0.244,-0.8,0.1,-1.8,-4.5,25.6,-18.5,0.0988494522,-0.609790338,-0.0329905087,-0.785668508
277,698248,1506040,0.962,-0.088,0.24,-0.6,0.3,-1.7,-4.5,25.6,-18.5,0.0988189337,-0.609790338,-0.0329905087,-0.785668508
278,699963,1506050,0.966,-0.088,0.24,-0.5,0.4,-1.8,-4.5,25.6,-18.5,0.0987884152,-0.609759819,-0.0329905087,-0.785668508
279,701754,1506050,0.962,-0.092,0.236,-0.5,0.5,-1.8,-4.2,25.8,-18.8,0.0987273782,-0.609759819,-0.0330515458,-0.785699026
280,704759,1506050,0.962,-0.088,0.236,-0.4,0.4,-1.9,-4.2,25.8,-18.8,0.0986968596,-0.609759819,-0.0330515458,-0.785699026
281,706981,1506050,0.969,-0.088,0.236,-0.3,0.4,-1.9,-4.2,25.8,-18.8,0.0986663411,-0.609759819,-0.0330820643,-0.785699026
282,709203,1506060,0.969,-0.088,0.236,-0.2,0.3,-1.9,-4.2,25.8,-18.8,0.0986358226,-0.609729301,-0.0331125828,-0.785729545
283,713368,1506060,0.969,-0.088,0.232,0,0.3,-2,-4.2,25.4,-19.1,0.0986053041,-0.609729301,-0.0331431013,-0.785729545
284,715768,1506060,0.969,-0.088,0.24,-0.1,0.4,-1.9,-4.2,25.4,-19.1,0.0985442671,-0.609729301,-0.0331431013,-0.785729545
285,716492,1506060,0.969,-0.088,0.24,-0.1,0.6,-1.9,-4.2,25.4,-19.1,0.0985137486,-0.609698782,-0.0331736198,-0.785760063
286,720023,1506070,0.973,-0.084,0.236,-0.1,0.8,-1.8,-4.2,25.4,-19.1,0.0984832301,-0.609698782,-0.0332041383,-0.785760063
287,722395,1506070,0.973,-0.08,0.236,-0.1,0.9,-1.7,-4.3,25.8,-18.9,0.0984527116,-0.609668264,-0.0332041383,-0.785790582
288,723856,1506070,0.969,-0.084,0.236,-0.2,0.9,-1.5,-4.3,25.8,-18.9,0.0984221931,-0.609668264,-0.0332346568,-0.785790582
289,727834,1506070,0.973,-0.084,0.228,-0.3,0.8,-1.4,-4.3,25.8,-18.9,0.0983916746,-0.609637745,-0.0332346568,-0.7858211
290,730365,1506080,0.969,-0.084,0.236,-0.3,0.7,-1.4,-4.3,25.8,-18.9,0.098361156,-0.609637745,-0.0332346568,-0.7858211
291,732430,1506080,0.973,-0.08,0.228,-0.5,0.8,-1.5,-4.2,25.6,-18.9,0.0983306375,-0.609607227,-0.0332346568,-0.785851619
292,734404,1506080,0.973,-0.08,0.24,-0.6,0.9,-1.5,-4.2,25.6,-18.9,0.098300119,-0.609607227,-0.0332346568,-0.785851619
293,736679,1506080,0.977,-0.077,0.236,-0.8,0.9,-1.3,-4.2,25.6,-18.9,0.098239082,-0.609576708,-0.0332346568,-0.785882138
294,738853,1506090,0.973,-0.076,0.232,-0.9,0.9,-1.2,-4.2,25.6,-18.9,0.098239082,-0.609576708,-0.0332346568,-0.785882138
295,743066,1506090,0.977,-0.08,0.232,-1.2,0.8,-1.1,-4.3,25.7,-17.8,0.098239082,-0.609759819,-0.0331431013,-0.785729545
296,745335,1506090,0.977,-0.08,0.232,-1.3,0.7,-1,-4.3,25.7,-17.8,0.098239082,-0.609759819,-0.0331431013,-0.785760063
297,747044,1506090,0.973,-0.08,0.232,-1.4,0.7,-0.9,-4.3,25.7,-17.8,0.0982085635,-0.609729301,-0.0331125828,-0.785760063
298,749469,1506100,0.977,-0.073,0.232,-1.5,0.8,-0.9,-4.3,25.7,-17.8,0.098178045,-0.609729301,-0.0331125828,-0.785790582
299,751733,1506100,0.977,-0.084,0.228,-1.6,0.9,-0.9,-4.5,25.3,-19.1,0.0981475265,-0.609698782,-0.0330820643,-0.785790582
300,754456,1506100,0.973,-0.084,0.228,-1.7,1,-0.9,-4.5,25.3,-19.1,0.0980864895,-0.609698782,-0.0330820643,-0.7858211
301,757746,1506100,0.977,-0.081,0.224,-1.7,1,-0.9,-4.5,25.3,-19.1,0.0980559709,-0.609698782,-0.0330515458,-0.7858211
302,759527,1506110,0.977,-0.08,0.228,-1.8,1.2,-0.8,-4.5,25.3,-19.1,0.0980254524,-0.609668264,-0.0329905087,-0.785851619
303,761946,1506110,0.981,-0.084,0.228,-1.8,1.4,-0.9,-4.5,24.9,-18.9,0.0979949339,-0.609637745,-0.0329905087,-0.785882138
304,764138,1506110,0.981,-0.081,0.228,-1.9,1.6,-0.8,-4.5,24.9,-18.9,0.0979338969,-0.609607227,-0.0329905087,-0.785912656
305,766725,1506110,0.985,-0.081,0.224,-2,1.6,-0.8,-4.5,24.9,-18.9,0.0979033784,-0.609607227,-0.0329599902,-0.785912656
306,768807,1506120,0.989,-0.077,0.232,-2.1,1.5,-0.7,-4.5,24.9,-18.9,0.0978728599,-0.609576708,-0.0329294717,-0.785943175
307,772468,1506120,0.989,-0.077,0.228,-2.3,1.5,-0.6,-4.6,24.7,-19.2,0.0978118229,-0.60954619,-0.0328989532,-0.785973693
308,773790,1506120,0.989,-0.077,0.228,-2.4,1.7,-0.6,-4.6,24.7,-19.2,0.0977507859,-0.609515671,-0.0328379162,-0.786004212
309,776796,1506120,0.993,-0.081,0.232,-2.6,1.9,-0.5,-4.6,24.7,-19.2,0.0977202673,-0.609485153,-0.0328073977,-0.78603473
310,779901,1506130,0.993,-0.077,0.228,-2.7,2.1,-0.3,-4.6,24.7,-19.2,0.0976897488,-0.609454634,-0.0327463607,-0.786065249
311,781318,1506130,0.989,-0.077,0.232,-2.9,2.3,-0.1,-4.7,24.6,-18.7,0.0976592303,-0.609424116,-0.0327158422,-0.786095767
312,784284,1506130,0.993,-0.077,0.228,-3,2.4,0,-4.7,24.6,-18.7,0.0976287118,-0.609393597,-0.0326548051,-0.786126286
313,787508,1506130,1.001,-0.073,0.232,-3.1,2.5,0.1,-4.7,24.6,-18.7,0.0975676748,-0.609363079,-0.0325937681,-0.786126286
314,788826,1506140,0.997,-0.065,0.228,-3.3,2.6,0.2,-4.7,24.6,-18.7,0.0975371563,-0.60933256,-0.0325022126,-0.786187323
315,792490,1506140,1.001,-0.065,0.228,-3.5,2.6,0.3,-4.4,26.7,-17.4,0.0975371563,-0.609485153,-0.0324106571,-0.786065249
316,794024,1506140,1.001,-0.061,0.228,-3.6,2.7,0.4,-4.4,26.7,-17.4,0.0974761193,-0.609454634,-0.0323191015,-0.786095767
317,796980,1506140,1.001,-0.065,0.228,-3.9,2.9,0.5,-4.4,26.7,-17.4,0.0974456008,-0.609424116,-0.0322580645,-0.786126286
318,800692,1506150,1.005,-0.058,0.224,-4,3,0.7,-4.4,26.7,-17.4,0.0974150822,-0.609363079,-0.032166509,-0.786187323
319,802065,1506150,1.005,-0.058,0.228,-4.2,3.1,1,-4,25.3,-19,0.0973540452,-0.60933256,-0.0320749535,-0.78624836
320,804253,1506150,1.009,-0.054,0.228,-4.4,3.1,1.3,-4,25.3,-19,0.0973235267,-0.609271523,-0.0319528794,-0.786278878
321,807992,1506150,1.012,-0.046,0.22,-4.7,3.1,1.6,-4,25.3,-19,0.0972624897,-0.609241005,-0.0318613239,-0.786309397
322,810173,1506160,1.016,-0.05,0.228,-5.1,3.2,1.9,-4,25.3,-19,0.0972624897,-0.609210486,-0.0317392499,-0.786370434
323,812579,1506160,1.02,-0.042,0.227,-5.5,3.3,2.2,-4,25.6,-18.9,0.0972319712,-0.609149449,-0.0316171758,-0.786400952
324,814464,1506160,1.024,-0.042,0.227,-6,3.4,2.5,-4,25.6,-18.9,0.0972014527,-0.609118931,-0.0314645833,-0.786461989
325,816571,1506160,1.024,-0.042,0.227,-6.3,3.5,2.8,-4,25.6,-18.9,0.0971709342,-0.609057894,-0.0312814722,-0.786492508
326,820701,1506170,1.024,-0.042,0.227,-6.7,3.5,3,-4,25.6,-18.9,0.0971404157,-0.609027375,-0.0311288797,-0.786553545
327,822825,1506170,1.032,-0.035,0.227,-6.9,3.5,3.3,-4.4,25.8,-18.9,0.0971098972,-0.608966338,-0.0309762871,-0.786584063
328,824508,1506170,1.032,-0.031,0.223,-7.1,3.4,3.6,-4.4,25.8,-18.9,0.0970793786,-0.60893582,-0.0307626576,-0.786614582
329,826465,1506170,1.032,-0.027,0.227,-7.2,3.2,3.8,-4.4,25.8,-18.9,0.0970488601,-0.608905301,-0.030610065,-0.786675619
330,830649,1506180,1.032,-0.019,0.227,-7.4,3.2,4.1,-4.4,25.8,-18.9,0.0970183416,-0.608844264,-0.0303964354,-0.786706137
331,832662,1506180,1.036,-0.019,0.235,-7.6,3.2,4.4,-4.2,26,-19.2,0.0969878231,-0.608813746,-0.0302133244,-0.786736656
332,834266,1506180,1.032,-0.015,0.235,-8,3.2,4.9,-4.2,26,-19.2,0.0969878231,-0.608783227,-0.0299996948,-0.786797693
333,836859,1506180,1.032,-0.003,0.239,-8.4,3.1,5.4,-4.2,26,-19.2,0.0969573046,-0.608752709,-0.0297860652,-0.786828211
334,839274,1506190,1.028,0.004,0.235,-9,2.9,5.8,-4.2,26,-19.2,0.0969267861,-0.60872219,-0.0295419172,-0.78685873
335,843629,1506190,1.024,0.008,0.239,-9.6,2.9,6.3,-4.3,26.3,-18.4,0.096743675,-0.608844264,-0.0295113987,-0.786797693
336,843888,1506190,1.024,0.008,0.239,-10.4,2.7,6.8,-4.3,26.3,-18.4,0.0967131565,-0.608813746,-0.0292367321,-0.786828211
337,848227,1506190,1.024,0.012,0.243,-11.1,2.6,7.1,-4.3,26.3,-18.4,0.096682638,-0.608813746,-0.028931547,-0.786828211
338,850303,1506200,1.024,0.012,0.243,-11.9,2.6,7.4,-4.3,26.3,-18.4,0.0966521195,-0.608783227,-0.0286568804,-0.78685873
339,852569,1506200,1.017,0.016,0.243,-12.6,2.6,7.6,-4.4,26,-18.3,0.096621601,-0.608783227,-0.0283211768,-0.786889248
340,855008,1506200,1.017,0.023,0.239,-13.2,2.9,7.8,-4.4,26,-18.3,0.0965910825,-0.608752709,-0.0279549547,-0.786919767
341,856892,1506200,1.013,0.016,0.243,-13.7,3.1,8.2,-4.4,26,-18.3,0.096560564,-0.608752709,-0.0275887326,-0.786950285
342,859305,1506210,1.009,0.024,0.235,-14.3,3.3,8.4,-4.4,26,-18.3,0.096499527,-0.60872219,-0.0272225105,-0.786980804
343,861992,1506210,1.001,0.024,0.236,-14.8,3.5,8.6,-4.1,26,-18.4,0.0964690085,-0.608691671,-0.0268562883,-0.787041841
344,864415,1506210,1.001,0.028,0.236,-15.4,3.9,8.6,-4.1,26,-18.4,0.0964079714,-0.608661153,-0.0264900662,-0.787072359
345,866583,1506210,0.993,0.02,0.228,-15.9,4.3,8.7,-4.1,26,-18.4,0.0963469344,-0.608630634,-0.0260933256,-0.787133396
346,870559,1506220,0.993,0.02,0.228,-16.4,4.6,8.7,-4.1,26,-18.4,0.0962858974,-0.608569597,-0.025696585,-0.787163915
347,872110,1506220,0.989,0.016,0.224,-16.8,5,8.9,-4.1,26,-18,0.0962248604,-0.608539079,-0.0252693258,-0.787224952
348,874119,1506220,0.981,0.02,0.22,-17.2,5.4,9.1,-4.1,26,-18,0.0961333048,-0.608478042,-0.0248420667,-0.787285989
349,876508,1506220,0.974,0.012,0.216,-17.6,5.9,9.4,-4.1,26,-18,0.0960722678,-0.608417005,-0.0244148076,-0.787377544
350,880782,1506230,0.974,0.012,0.216,-18.1,6.4,9.5,-4.1,26,-18,0.0960112308,-0.608355968,-0.0239265114,-0.787438581
351,883217,1506230,0.974,0.008,0.216,-18.8,6.8,9.4,-4.5,26.2,-18.2,0.0959196753,-0.608294931,-0.0234992523,-0.787530137
352,885387,1506230,0.97,0.008,0.213,-19.4,7.2,9.4,-4.5,26.2,-18.2,0.0957976012,-0.608203375,-0.0230109561,-0.787621693
353,887738,1506230,0.962,0.005,0.209,-20.2,7.6,9.3,-4.5,26.2,-18.2,0.0957365642,-0.60811182,-0.02252266,-0.787713248
354,889665,1506240,0.962,-0.002,0.209,-20.9,8,9.2,-4.5,26.2,-18.2,0.0956144902,-0.608020264,-0.0220343638,-0.787804804
355,891459,1506240,0.958,-0.006,0.209,-21.8,8.4,9.2,-4.5,26.2,-18.2,0.0953093051,-0.608050783,-0.0216986602,-0.787835322
356,894630,1506240,0.958,-0.01,0.213,-22.6,8.8,9.3,-4.5,26.2,-18.2,0.0951872311,-0.607959227,-0.0211798456,-0.787926878
357,896894,1506240,0.962,-0.014,0.205,-23.5,9.1,9.4,-4.5,26.2,-18.2,0.095065157,-0.607867672,-0.0206305124,-0.788048952
358,899229,1506250,0.958,-0.018,0.209,-24.4,9.4,9.4,-4.5,26.2,-18.2,0.094882046,-0.607745598,-0.0200201422,-0.788171026
359,902654,1506250,0.958,-0.026,0.205,-25.1,9.5,9.5,-4.5,26.3,-18.1,0.0947294534,-0.607623524,-0.019470809,-0.788262581
360,904806,1506250,0.954,-0.022,0.209,-25.8,9.5,9.4,-4.5,26.3,-18.1,0.0945463424,-0.607531968,-0.0188909574,-0.788384655
361,907749,1506250,0.954,-0.025,0.217,-26.5,9.5,9.2,-4.5,26.3,-18.1,0.0943327128,-0.607409894,-0.0182805872,-0.788506729
362,910167,1506260,0.954,-0.029,0.217,-27,9.5,9.1,-4.5,26.3,-18.1,0.0941801202,-0.607318339,-0.017670217,-0.788628803
363,912119,1506260,0.946,-0.029,0.221,-27.6,9.6,9,-4.1,26.4,-18.1,0.0939664907,-0.607226783,-0.0170598468,-0.788750877
364,914477,1506260,0.946,-0.025,0.221,-28.1,9.6,8.9,-4.1,26.4,-18.1,0.0937528611,-0.607104709,-0.0164494766,-0.788872951
365,916720,1506260,0.938,-0.029,0.225,-28.8,9.5,8.8,-4.1,26.4,-18.1,0.093508713,-0.607013153,-0.0158085879,-0.788995025
366,919124,1506270,0.934,-0.021,0.229,-29.5,9.2,8.6,-4.1,26.4,-18.1,0.093264565,-0.606921598,-0.0151676992,-0.7891171
367,922518,1506270,0.931,-0.025,0.225,-30.2,9,8.4,-4.8,26,-17.9,0.0930204169,-0.606830042,-0.0145268105,-0.789208655
368,924062,1506270,0.927,-0.025,0.233,-30.9,8.7,8.3,-4.8,26,-17.9,0.0927762688,-0.606738487,-0.0138554033,-0.789330729
369,926541,1506270,0.923,-0.025,0.233,-31.4,8.5,8.1,-4.8,26,-17.9,0.0925016022,-0.606646931,-0.0131839961,-0.789422285
370,929271,1506280,0.923,-0.033,0.229,-31.8,8.4,7.9,-4.8,26,-17.9,0.0921964171,-0.606585894,-0.0125125889,-0.789544359
371,931660,1506280,0.919,-0.025,0.233,-32.1,8.3,7.6,-5,26.7,-17.8,0.091891232,-0.606494339,-0.0118411817,-0.789635914
372,934063,1506280,0.919,-0.021,0.229,-32.5,8.2,7.3,-5,26.7,-17.8,0.0916165654,-0.606433302,-0.0111697745,-0.78972747
373,936317,1506280,0.911,-0.029,0.229,-33,8.2,7,-5,26.7,-17.8,0.0913113804,-0.606341746,-0.0104983673,-0.789849544
374,938792,1506290,0.911,-0.025,0.229,-33.6,8.2,6.7,-5,26.7,-17.8,0.0909756767,-0.606280709,-0.00979644154,-0.789941099
375,943209,1506290,0.923,-0.033,0.233,-34.2,8,6.1,-5,26.7,-17.8,0.0904263436,-0.606280709,-0.0093386639,-0.790002136
376,944978,1506290,0.923,-0.033,0.233,-34.7,7.6,5.4,-5,26.7,-17.8,0.09009064,-0.606219672,-0.00863673818,-0.790093692
377,946524,1506290,0.919,-0.036,0.233,-35,7.3,4.7,-5,26.7,-17.8,0.0896938993,-0.606158635,-0.00796533097,-0.790185247
378,949927,1506300,0.915,-0.029,0.233,-35.1,7.2,4.3,-5,26.7,-17.8,0.0893276772,-0.606128117,-0.00729392376,-0.790276803
379,952073,1506300,0.911,-0.032,0.229,-35.2,7,4.1,-4.5,27.2,-17.4,0.0889309366,-0.60606708,-0.00662251656,-0.790368358
380,954186,1506300,0.907,-0.032,0.226,-35.4,7,4,-4.5,27.2,-17.4,0.088534196,-0.606006043,-0.00592059084,-0.790459914
381,958292,1506300,0.907,-0.04,0.226,-35.8,6.8,3.7,-4.5,27.2,-17.4,0.0881069369,-0.605975524,-0.00524918363,-0.790551469
382,960491,1506310,0.895,-0.036,0.222,-36.2,6.6,3.4,-4.5,27.2,-17.4,0.0877101962,-0.605914487,-0.00457777642,-0.790643025
383,962756,1506310,0.903,-0.032,0.222,-36.5,6.2,2.8,-4.8,27.1,-17.2,0.0872524186,-0.605883969,-0.0038758507,-0.790734581
384,965081,1506310,0.903,-0.032,0.222,-36.8,5.8,2.2,-4.8,27.1,-17.2,0.0868251595,-0.60585345,-0.00320444349,-0.790795618
385,967030,1506310,0.907,-0.044,0.222,-37.1,5.4,1.4,-4.8,27.1,-17.2,0.0863673818,-0.605822932,-0.00253303629,-0.790856655
386,969268,1506320,0.915,-0.04,0.218,-37.1,5.4,1.4,-4.8,27.1,-17.2,0.0858790857,-0.605792413,-0.00186162908,-0.79094821
387,973288,1506320,0.911,-0.044,0.226,-37.4,5.1,0.6,-4.6,27.5,-17.1,0.0853907895,-0.605792413,-0.00119022187,-0.791009247
388,975507,1506320,0.915,-0.048,0.222,-37.5,5.1,0.1,-4.6,27.5,-17.1,0.0849024934,-0.605761895,-0.000549333171,-0.791070284
389,977676,1506320,0.915,-0.044,0.222,-37.5,5.1,0,-4.6,27.5,-17.1,0.0844141972,-0.605731376,9.15555284e-05,-0.791131321
390,979958,1506330,0.923,-0.048,0.218,-37.5,5.1,-0.3,-4.6,27.5,-17.1,0.0838953825,-0.605731376,0.000732444227,-0.791222877
391,982046,1506330,0.926,-0.052,0.214,-37.8,5.1,-0.8,-4.6,27.5,-17.1,0.0834070864,-0.605700858,0.00137333293,-0.791283914
392,984168,1506330,0.938,-0.06,0.217,-38.2,5.1,-1.5,-4.6,27.5,-17.1,0.0828577532,-0.605670339,0.00204474013,-0.791344951
393,987539,1506330,0.938,-0.06,0.217,-38.6,5.1,-2.3,-4.6,27.5,-17.1,0.0823084201,-0.605670339,0.00268562883,-0.791405988
394,989546,1506340,0.942,-0.064,0.213,-39.2,5.1,-3.2,-4.6,27.5,-17.1,0.0817285684,-0.605639821,0.00332651753,-0.791497543
395,991692,1506340,0.954,-0.068,0.217,-40.2,5.4,-5,-4.6,27.5,-17.1,0.0809350871,-0.605883969,0.00375377667,-0.791405988
396,994941,1506340,0.954,-0.065,0.213,-40.2,5.4,-5,-4.6,27.5,-17.1,0.0803247169,-0.60585345,0.00439466536,-0.791467025
397,996303,1506340,0.958,-0.068,0.217,-40.7,5.4,-5.8,-4.6,27.5,-17.1,0.0796838282,-0.605822932,0.00503555406,-0.79155858
398,999192,1506350,0.962,-0.069,0.217,-41.2,5.3,-6.6,-4.6,27.5,-17.1,0.079012421,-0.605792413,0.00567644276,-0.791619617
399,1002443,1506350,0.962,-0.072,0.225,-41.7,5.1,-7.2,-4.4,26.9,-16.3,0.0783410138,-0.605792413,0.00631733146,-0.791711173
400,1003792,1506350,0.958,-0.076,0.233,-42.3,4.9,-7.8,-4.4,26.9,-16.3,0.0776390881,-0.605761895,0.00692770165,-0.79177221
401,1006873,1506350,0.958,-0.072,0.233,-43,4.9,-8.4,-4.4,26.9,-16.3,0.0769371624,-0.605761895,0.00756859035,-0.791863765
402,1008993,1506360,0.95,-0.072,0.233,-43.7,4.9,-8.7,-4.4,26.9,-16.3,0.0762047182,-0.605761895,0.00823999756,-0.791924802
403,1012036,1506360,0.95,-0.072,0.233,-43.7,4.9,-8.7,-4.4,26.9,-16.3,0.0762047182,-0.605761895,0.00823999756,-0.791924802
404,1014212,1506360,0.942,-0.064,0.233,-45.2,4.9,-9.5,-3.8,27.1,-16.5,0.0747093112,-0.605731376,0.00955229347,-0.792077395
405,1017436,1506360,0.942,-0.072,0.233,-45.8,4.7,-10.1,-3.8,27.1,-16.5,0.07391583,-0.605731376,0.0102237007,-0.792138432
406,1020246,1506370,0.946,-0.08,0.233,-46.6,4.4,-11,-3.8,27.1,-16.5,0.0730918302,-0.605731376,0.0108951079,-0.792199469
407,1021557,1506370,0.93,-0.076,0.241,-47.2,4,-12,-3.6,27.4,-16.1,0.0722678304,-0.605731376,0.0115359966,-0.792260506
408,1024869,1506370,0.93,-0.084,0.241,-47.6,3.6,-13,-3.6,27.4,-16.1,0.0713827937,-0.605761895,0.0122074038,-0.792321543
409,1026305,1506370,0.93,-0.084,0.241,-47.6,3.3,-13.7,-3.6,27.4,-16.1,0.0705587939,-0.605761895,0.0128482925,-0.79238258
410,1029455,1506380,0.934,-0.088,0.237,-47.6,3,-14.6,-3.6,27.4,-16.1,0.0696737571,-0.605792413,0.0134891812,-0.792413099
411,1032726,1506380,0.926,-0.091,0.237,-47.5,2.7,-15.2,-3.5,27.6,-16.2,0.0687582018,-0.605822932,0.0140995514,-0.792474136
412,1034093,1506380,0.926,-0.095,0.241,-47.4,2.6,-16,-3.5,27.6,-16.2,0.0678731651,-0.60585345,0.0147099216,-0.792504654
413,1037079,1506380,0.923,-0.095,0.233,-47.2,2.7,-16.5,-3.5,27.6,-16.2,0.0669576098,-0.605883969,0.0153202918,-0.792565691
414,1039528,1506390,0.923,-0.095,0.233,-47.1,2.9,-17,-3.5,27.6,-16.2,0.066011536,-0.605914487,0.0159306619,-0.79259621
415,1042828,1506390,0.926,-0.095,0.229,-47.4,3.1,-18.2,-3.5,27.6,-16.2,0.0650349437,-0.606036561,0.0164799951,-0.792565691
416,1045038,1506390,0.926,-0.095,0.229,-47.4,3.1,-18.2,-3.5,27.6,-16.2,0.0641499069,-0.60606708,0.0170903653,-0.792626728
417,1046522,1506390,0.926,-0.095,0.225,-47.6,3.1,-18.9,-3.5,27.6,-16.2,0.0631733146,-0.60606708,0.017670217,-0.792657247
418,1049474,1506400,0.934,-0.099,0.21,-47.8,3.2,-19.5,-3.5,27.6,-16.2,0.0621967223,-0.606097598,0.0182500687,-0.792718284
419,1051618,1506400,0.938,-0.103,0.21,-48,3.1,-20.2,-4.1,27.7,-15.4,0.06122013,-0.606097598,0.0187994018,-0.792779321
420,1054886,1506400,0.942,-0.107,0.209,-48.2,2.9,-21,-4.1,27.7,-15.4,0.0602130192,-0.606128117,0.0193792535,-0.792809839
421,1057927,1506400,0.946,-0.111,0.198,-48.2,2.6,-21.7,-4.1,27.7,-15.4,0.0592059084,-0.606158635,0.0198980682,-0.792870876
422,1059289,1506410,0.95,-0.123,0.198,-48.2,2.4,-22.5,-4.1,27.7,-15.4,0.0581377606,-0.606189154,0.0204474013,-0.792901395
423,1062613,1506410,0.957,-0.123,0.194,-48.2,2.1,-23.1,-4.1,27.8,-15.3,0.0571306497,-0.606219672,0.0209967345,-0.792931913
424,1064878,1506410,0.961,-0.123,0.197,-48.1,1.9,-23.8,-4.1,27.8,-15.3,0.0560930204,-0.606250191,0.0214850307,-0.792962432
425,1068036,1506410,0.973,-0.135,0.189,-48.1,1.7,-24.5,-4.1,27.8,-15.3,0.0550248726,-0.606311228,0.0219733268,-0.79299295
426,1070219,1506420,0.973,-0.135,0.193,-48,1.4,-25.2,-4.1,27.8,-15.3,0.0539567248,-0.606341746,0.02252266,-0.793023469
427,1071520,1506420,0.977,-0.139,0.185,-47.9,1.2,-25.7,-4,28,-15.2,0.0528580584,-0.606402783,0.0230109561,-0.793053987
428,1074589,1506420,0.981,-0.143,0.189,-47.8,0.9,-26.2,-4,28,-15.2,0.0517899106,-0.606433302,0.0234992523,-0.793053987
429,1076725,1506420,0.981,-0.147,0.189,-47.7,0.7,-26.7,-4,28,-15.2,0.0506912442,-0.606494339,0.0239265114,-0.793084506
430,1080009,1506430,0.981,-0.155,0.185,-47.8,0.3,-27.3,-4,28,-15.2,0.0495620594,-0.606555376,0.0244148076,-0.793084506
431,1081382,1506430,0.992,-0.159,0.193,-48,0,-27.7,-4.1,27.8,-15.1,0.048463393,-0.606616413,0.0249031037,-0.793084506
432,1084362,1506430,0.996,-0.167,0.197,-48.5,-0.1,-28.1,-4.1,27.8,-15.1,0.0473342082,-0.60667745,0.0253608814,-0.793084506
433,1087541,1506430,0.996,-0.163,0.193,-49,-0.2,-28.3,-4.1,27.8,-15.1,0.0461745048,-0.606769005,0.025818659,-0.793084506
434,1088871,1506440,0.988,-0.163,0.197,-49.4,-0.3,-28.6,-4.1,27.8,-15.1,0.04504532,-0.606830042,0.0263069552,-0.793084506
435,1091976,1506440,0.988,-0.167,0.197,-50.3,-0.7,-28.7,-4.1,27.8,-15.1,0.0439771722,-0.607104709,0.0269783624,-0.792901395
436,1094143,1506440,0.985,-0.171,0.197,-50.3,-0.7,-28.7,-4.1,27.8,-15.1,0.0428479873,-0.607196265,0.0274666585,-0.792901395
437,1097310,1506440,0.985,-0.167,0.201,-50.8,-0.8,-28.8,-4.1,27.8,-15.1,0.0416882839,-0.607257302,0.0279549547,-0.792870876
438,1098759,1506450,0.985,-0.171,0.201,-51.2,-1.1,-28.8,-4.1,27.8,-15.1,0.0404980621,-0.607348857,0.0285042879,-0.792870876
439,1101646,1506450,0.981,-0.174,0.197,-51.6,-1.2,-28.9,-4.2,27.8,-14.5,0.0393078402,-0.607440413,0.028992584,-0.792840358
440,1104908,1506450,0.973,-0.178,0.201,-52,-1.5,-29,-4.2,27.8,-14.5,0.0381176183,-0.607531968,0.0295113987,-0.792809839
441,1106334,1506450,0.969,-0.182,0.209,-52.3,-1.7,-29.1,-4.2,27.8,-14.5,0.036896878,-0.607623524,0.0300302133,-0.792779321
442,1109400,1506460,0.965,-0.178,0.201,-52.5,-1.8,-29.3,-4.2,27.8,-14.5,0.0357371746,-0.607715079,0.0305185095,-0.792748802
443,1112464,1506460,0.957,-0.186,0.209,-52.6,-2,-29.4,-4.2,27.9,-14.3,0.0345164342,-0.607806635,0.0310678426,-0.792687765
444,1113824,1506460,0.957,-0.186,0.209,-52.4,-2.2,-29.6,-4.2,27.9,-14.3,0.0333262123,-0.60789819,0.0315866573,-0.792657247
445,1116940,1506460,0.953,-0.186,0.213,-52.2,-2.5,-29.8,-4.2,27.9,-14.3,0.032105472,-0.608020264,0.0320749535,-0.79259621
446,1119091,1506470,0.953,-0.186,0.213,-51.8,-2.8,-30,-4.2,27.9,-14.3,0.0308847316,-0.60811182,0.0325937681,-0.792565691
447,1122065,1506470,0.953,-0.194,0.209,-51.3,-3.2,-30.3,-4.2,27.9,-14.1,0.0296639912,-0.608233894,0.0330515458,-0.792504654
448,1124377,1506470,0.953,-0.193,0.213,-50.8,-3.4,-30.4,-4.2,27.9,-14.1,0.0285042879,-0.608325449,0.0335398419,-0.792443617
449,1127552,1506470,0.953,-0.19,0.213,-50.4,-3.6,-30.6,-4.2,27.9,-14.1,0.027314066,-0.608447523,0.033967101,-0.792352062
450,1129839,1506480,0.949,-0.19,0.213,-49.9,-3.7,-30.8,-4.2,27.9,-14.1,0.0261238441,-0.608569597,0.0344553972,-0.792291025
451,1132480,1506480,0.949,-0.193,0.217,-49.5,-3.8,-30.9,-4.9,27.9,-14.3,0.0249031037,-0.608691671,0.0348826563,-0.792229987
452,1134011,1506480,0.953,-0.197,0.213,-49,-4,-30.9,-4.9,27.9,-14.3,0.0237434004,-0.608813746,0.035340434,-0.792138432
453,1137018,1506480,0.949,-0.197,0.217,-48.4,-4.3,-31,-4.9,27.9,-14.3,0.0225531785,-0.60893582,0.0357676931,-0.792077395
454,1139394,1506490,0.949,-0.193,0.213,-47.9,-4.6,-30.9,-4.9,27.9,-14.3,0.0213629566,-0.609057894,0.0361644337,-0.791985839
455,1142578,1506490,0.953,-0.201,0.213,-46.9,-5.2,-30.7,-4.9,27.9,-14.3,0.0206305124,-0.609363079,0.037141026,-0.791741691
456,1143956,1506490,0.953,-0.201,0.213,-46.9,-5.2,-30.7,-4.9,27.9,-14.3,0.0195318461,-0.609485153,0.0375377667,-0.791619617
457,1147970,1506490,0.949,-0.197,0.209,-46.2,-5.5,-30.7,-4.9,27.9,-14.3,0.0183721427,-0.609637745,0.0379345073,-0.791528062
458,1150207,1506500,0.949,-0.197,0.209,-45.6,-5.6,-30.7,-4.9,27.9,-14.3,0.0172124393,-0.609759819,0.0383007294,-0.791436506
459,1152460,1506500,0.957,-0.197,0.213,-45.1,-5.7,-30.7,-5.2,28.5,-13.5,0.016113773,-0.609912412,0.0386669515,-0.791344951
460,1154509,1506500,0.957,-0.197,0.213,-44.7,-5.7,-30.6,-5.2,28.5,-13.5,0.0149845882,-0.610065004,0.0390331736,-0.791222877
461,1156759,1506500,0.957,-0.209,0.205,-44.3,-5.8,-30.5,-5.2,28.5,-13.5,0.0138859218,-0.610187078,0.0393993957,-0.791131321
462,1159912,1506510,0.957,-0.209,0.202,-43.8,-6,-30.5,-5.2,28.5,-13.5,0.0127872555,-0.610339671,0.0397350993,-0.791009247
463,1161365,1506510,0.961,-0.213,0.201,-43.3,-6.1,-30.6,-5.2,28.5,-13.3,0.0116885891,-0.610492264,0.0400708029,-0.790887173
464,1165142,1506510,0.965,-0.213,0.201,-42.9,-6,-30.4,-5.2,28.5,-13.3,0.0105899228,-0.610614338,0.0404065065,-0.790795618
465,1167419,1506510,0.969,-0.221,0.197,-42.3,-5.8,-30.1,-5.2,28.5,-13.3,0.00949125645,-0.61076693,0.0407422102,-0.790673544
466,1168969,1506520,0.965,-0.225,0.194,-41.8,-5.6,-29.8,-5.2,28.5,-13.3,0.00842310862,-0.610889004,0.0410473952,-0.790581988
467,1171402,1506520,0.969,-0.229,0.194,-41.3,-5.3,-29.7,-6,28.7,-13,0.00738547929,-0.611011078,0.0413830988,-0.790459914
468,1175283,1506520,0.977,-0.233,0.189,-40.8,-5.2,-29.6,-6,28.7,-13,0.00631733146,-0.611133152,0.0416882839,-0.790368358
469,1177394,1506520,0.98,-0.233,0.193,-40.4,-5,-29.4,-6,28.7,-13,0.00527970214,-0.611255226,0.041993469,-0.790276803
470,1179448,1506530,0.984,-0.241,0.189,-39.9,-4.6,-29.1,-6,28.7,-13,0.00424207282,-0.6113773,0.0422681356,-0.790185247
471,1181647,1506530,0.984,-0.245,0.185,-39.4,-4.4,-28.8,-5.8,28.5,-13,0.003234962,-0.611468856,0.0425733207,-0.790093692
472,1184875,1506530,0.988,-0.253,0.185,-39,-4.1,-28.5,-5.8,28.5,-13,0.00222785119,-0.61159093,0.0428785058,-0.790002136
473,1186353,1506530,0.992,-0.257,0.193,-38.6,-4,-28.1,-5.8,28.5,-13,0.00122074038,-0.611682485,0.0431531724,-0.789910581
474,1190409,1506540,0.992,-0.261,0.189,-38.3,-3.8,-27.6,-5.8,28.5,-13,0.000244148076,-0.611774041,0.0434583575,-0.789819025
475,1192715,1506540,1,-0.273,0.197,-37.6,-3.4,-26.5,-5.8,28.5,-13,0.000122074038,0.612079226,-0.0444654683,0.78951384
476,1195028,1506540,1.004,-0.273,0.197,-37.6,-3.4,-26.5,-5.8,28.5,-13,0.00109866634,0.612140263,-0.0447706534,0.789452803
477,1196930,1506540,1.008,-0.277,0.201,-37.2,-3.3,-26.2,-5.8,28.5,-13,0.00204474013,0.612231819,-0.0450758385,0.789361248
478,1199175,1506550,1.004,-0.288,0.201,-36.8,-3.2,-25.7,-5.8,28.5,-13,0.00296029542,0.612323374,-0.0453505051,0.789269692
479,1202765,1506550,1.012,-0.288,0.201,-36.4,-2.9,-25.2,-6.4,28.2,-12.7,0.0038758507,0.612384411,-0.0456556902,0.789208655
480,1205118,1506550,1.012,-0.292,0.212,-36,-2.6,-24.6,-6.4,28.2,-12.7,0.00479140599,0.612445448,-0.0459303568,0.7891171
481,1207202,1506550,1.012,-0.3,0.212,-35.6,-2.3,-23.8,-6.4,28.2,-12.7,0.00567644276,0.612506485,-0.0462355419,0.789056063
482,1209317,1506560,1.012,-0.3,0.212,-35.1,-2,-23.1,-6.4,28.2,-12.7,0.00653096103,0.612567522,-0.046540727,0.788995025
483,1212485,1506560,1.016,-0.308,0.22,-34.6,-1.8,-22.5,-6.3,28.6,-12.2,0.00738547929,0.612628559,-0.0468153935,0.788933988
484,1214627,1506560,1.015,-0.316,0.22,-34,-1.7,-21.7,-6.3,28.6,-12.2,0.00820947905,0.612659078,-0.0471205786,0.788872951
485,1216838,1506560,1.016,-0.32,0.228,-33.5,-1.5,-21,-6.3,28.6,-12.2,0.0090334788,0.612720115,-0.0473952452,0.788811914
486,1219944,1506570,1.016,-0.32,0.228,-33,-1.3,-20.1,-6.3,28.6,-12.2,0.00982696005,0.612750633,-0.0477309488,0.788750877
487,1221331,1506570,1.012,-0.335,0.236,-32.6,-1.1,-19.5,-6.4,28.6,-12,0.0105899228,0.612781152,-0.0480361339,0.78868984
488,1224289,1506570,1.016,-0.339,0.24,-32,-0.8,-18.8,-6.4,28.6,-12,0.0113528855,0.61281167,-0.0483108005,0.788659322
489,1227555,1506570,1.019,-0.343,0.24,-31.3,-0.4,-18.1,-6.4,28.6,-12,0.0120853298,0.61281167,-0.0486159856,0.788598285
490,1229901,1506580,1.015,-0.351,0.24,-30.6,0,-17.4,-6.4,28.6,-12,0.0127872555,0.612842189,-0.0489211707,0.788567766
491,1231955,1506580,1.012,-0.358,0.244,-29.6,0.2,-16.5,-7.1,28.6,-11.4,0.0134586627,0.612842189,-0.0491958373,0.788537248
492,1234033,1506580,1.012,-0.355,0.244,-28.7,0.5,-15.7,-7.1,28.6,-11.4,0.0141300699,0.612842189,-0.0495010224,0.788506729
493,1237360,1506580,1.008,-0.358,0.244,-27.7,0.8,-14.9,-7.1,28.6,-11.4,0.0147404401,0.612842189,-0.049775689,0.788476211
494,1239509,1506590,1.004,-0.374,0.244,-26.6,1.1,-14.3,-7.1,28.6,-11.4,0.0153508103,0.61281167,-0.050019837,0.788476211
495,1241646,1506590,0.996,-0.378,0.24,-24,1.8,-13,-7.1,28.6,-11.4,0.0151982177,0.612781152,-0.0511490219,0.788415174
496,1244877,1506590,0.996,-0.378,0.24,-24,1.8,-13,-7.1,28.6,-11.4,0.0157475509,0.612750633,-0.05139317,0.788415174
497,1246947,1506590,0.996,-0.382,0.244,-22.6,2.1,-12.4,-7.1,28.6,-11.4,0.016235847,0.612720115,-0.0516067995,0.788415174
498,1249171,1506600,0.988,-0.389,0.244,-21.1,2.4,-11.7,-7.1,28.6,-11.4,0.0167241432,0.612689596,-0.0517899106,0.788415174
499,1252378,1506600,0.984,-0.393,0.241,-19.3,2.8,-11.1,-6.9,28.9,-11.4,0.0172124393,0.612628559,-0.0520035401,0.788445692
500,1254432,1506600,0.984,-0.397,0.237,-17.5,3.1,-10.5,-6.9,28.9,-11.4,0.0176396985,0.612598041,-0.0521561327,0.788445692
501,1256785,1506600,0.972,-0.405,0.237,-15.7,3.4,-9.9,-6.9,28.9,-11.4,0.0180364391,0.612537004,-0.0522782067,0.788476211
502,1259793,1506610,0.972,-0.409,0.229,-13.8,3.8,-9.4,-6.9,28.9,-11.4,0.0183721427,0.612475967,-0.0524002808,0.788506729
503,1261270,1506610,0.972,-0.413,0.229,-11.8,4,-9,-6.9,28.8,-11.5,0.0186773278,0.61241493,-0.0524918363,0.788537248
504,1264122,1506610,0.972,-0.416,0.229,-9.7,4.3,-8.5,-6.9,28.8,-11.5,0.0189825129,0.612323374,-0.0525223548,0.788598285
505,1267375,1506610,0.968,-0.424,0.225,-7.5,4.6,-7.9,-6.9,28.8,-11.5,0.019226661,0.612262337,-0.0525223548,0.788628803
506,1269424,1506620,0.964,-0.428,0.225,-5.4,5,-7.2,-6.9,28.8,-11.5,0.019409772,0.612170782,-0.0525223548,0.78868984
507,1271678,1506620,0.964,-0.432,0.217,-3.2,5.5,-6.7,-6.8,28.5,-11,0.0195928831,0.612079226,-0.0525223548,0.788781396
508,1274887,1506620,0.976,-0.44,0.213,-0.9,6,-6.3,-6.8,28.5,-11,0.0197149571,0.611987671,-0.0524613178,0.788842433
509,1277021,1506620,0.968,-0.452,0.214,1.4,6.6,-6,-6.8,28.5,-11,0.0197759941,0.611896115,-0.0523392438,0.788933988
510,1279121,1506630,0.968,-0.456,0.214,3.8,7.3,-5.6,-6.8,28.5,-11,0.0198675497,0.611774041,-0.0521866512,0.789025544
511,1282391,1506630,0.972,-0.452,0.217,6.3,7.9,-5.3,-6.6,28.5,-11.1,0.0198675497,0.611651967,-0.0520035401,0.789147618
512,1284419,1506630,0.984,-0.471,0.217,8.6,8.6,-4.8,-6.6,28.5,-11.1,0.0198675497,0.611499374,-0.0517899106,0.789269692
513,1286564,1506630,0.98,-0.467,0.225,10.8,9.3,-4.5,-6.6,28.5,-11.1,0.0197759941,0.611346782,-0.0515457625,0.789391766
514,1289613,1506640,0.984,-0.475,0.221,13,10,-4.1,-6.6,28.5,-11.1,0.0197149571,0.611194189,-0.0512405774,0.789544359
515,1291951,1506640,0.968,-0.471,0.225,15,10.7,-3.8,-6.6,28.5,-11.1,0.0195928831,0.611011078,-0.0509353923,0.789696951
516,1294137,1506640,0.968,-0.475,0.229,16.7,11.2,-3.6,-6.6,28.5,-11.1,0.019409772,0.610827967,-0.0505691702,0.789880062
517,1298147,1506640,0.976,-0.479,0.241,17.9,11.5,-3.8,-6.6,28.5,-11.1,0.019287698,0.610644856,-0.0502334666,0.790032655
518,1300376,1506650,0.988,-0.487,0.233,18.5,11.5,-4.5,-6.6,28.5,-11.1,0.0191351054,0.610461745,-0.049836726,0.790215766
519,1302538,1506650,0.984,-0.487,0.237,18.5,11,-5.5,-6.6,28.6,-12.9,0.0189825129,0.610278634,-0.0494399854,0.790398877
520,1304616,1506650,1.011,-0.507,0.24,18.2,10.5,-6.7,-6.6,28.6,-12.9,0.0188604389,0.610126041,-0.0490432447,0.790551469
521,1306854,1506650,1.031,-0.527,0.24,17.6,10,-8.2,-6.6,28.6,-12.9,0.0187994018,0.60994293,-0.0486159856,0.790704062
522,1309225,1506660,1.027,-0.535,0.24,17,10,-9.6,-6.6,28.6,-12.9,0.0187383648,0.609790338,-0.0481887265,0.790826136
523,1312426,1506660,1.054,-0.566,0.236,16.9,10.4,-10.5,-6.7,28.9,-13.2,0.0186773278,0.609637745,-0.0477614673,0.790978729
524,1314586,1506660,1.054,-0.586,0.24,17.4,11.4,-10.6,-6.7,28.9,-13.2,0.0186773278,0.609454634,-0.0473036897,0.79116184
525,1316751,1506660,1.069,-0.606,0.235,18.6,12.8,-9.8,-6.7,28.9,-13.2,0.0186162908,0.609241005,-0.046845912,0.791344951
526,1319973,1506670,1.073,-0.621,0.235,20.6,14.5,-8,-6.7,28.9,-13.2,0.0184942167,0.609027375,-0.0463881344,0.79155858
527,1322032,1506670,1.042,-0.625,0.236,23.6,16.6,-5.2,-6.8,28.6,-13.7,0.0182805872,0.608752709,-0.0458998383,0.791802728
528,1323956,1506670,1.018,-0.628,0.236,27.4,18.9,-1.8,-6.8,28.6,-13.7,0.0179448836,0.608447523,-0.0453810236,0.792077395
529,1326927,1506670,1.014,-0.652,0.233,31.4,21.3,1.7,-6.8,28.6,-13.7,0.0175481429,0.608081301,-0.0448622089,0.79238258
530,1329216,1506680,0.991,-0.667,0.237,35.2,23.4,4.9,-6.8,28.6,-13.7,0.0169682913,0.607684561,-0.0443128758,0.792748802
531,1332602,1506680,0.971,-0.682,0.245,38.2,25.1,7.2,-6.8,28.6,-14.1,0.0163579211,0.607257302,-0.0437330241,0.793115024
532,1334063,1506680,0.944,-0.686,0.242,41,26.5,9,-6.8,28.6,-14.1,0.0157170324,0.606799524,-0.0431531724,0.793511765
533,1337417,1506680,0.909,-0.685,0.246,43.5,27.6,10.5,-6.8,28.6,-14.1,0.0149845882,0.606311228,-0.0425122837,0.793908506
534,1339267,1506690,0.854,-0.688,0.259,45.9,28.4,11.4,-6.8,28.6,-14.1,0.0142216254,0.605822932,-0.041871395,0.794335765
535,1342811,1506690,0.847,-0.703,0.259,47.3,28.6,11,-6.8,28.6,-14.1,0.0134281442,0.605334635,-0.0411694693,0.794763024
536,1344628,1506690,0.839,-0.719,0.263,47.4,28,8.8,-6.8,28.6,-14.1,0.0126651814,0.604846339,-0.0404675436,0.795190283
537,1347728,1506690,0.831,-0.75,0.271,46.7,26.9,4.8,-6.8,28.6,-14.1,0.0119937742,0.604388562,-0.0397045808,0.795587024
538,1349124,1506700,0.858,-0.797,0.275,46.1,25.6,-0.5,-6.8,28.6,-14.1,0.0114139225,0.603961303,-0.0389110996,0.795953246
539,1352225,1506700,0.877,-0.825,0.271,46.8,24.4,-6.4,-6.5,28.3,-12.8,0.0109256264,0.603564562,-0.0379955443,0.796319468
540,1353737,1506700,0.881,-0.837,0.271,49.2,23.6,-11.9,-6.5,28.3,-12.8,0.0104983673,0.603167821,-0.0369884335,0.796655171
541,1357431,1506700,0.869,-0.868,0.259,53.6,23.8,-15.7,-6.5,28.3,-12.8,0.0101016266,0.602771081,-0.0358287301,0.797021393
542,1358967,1506710,0.834,-0.832,0.264,59.4,25.1,-17.1,-6.5,28.3,-12.8,0.00961333048,0.60237434,-0.0345774712,0.797387616
543,1361413,1506710,0.819,-0.828,0.272,65.5,27,-16.1,-6.5,28.3,-12.8,0.00906399731,0.601916562,-0.0332041383,0.797784356
544,1363808,1506710,0.811,-0.812,0.264,70.8,28.2,-13.2,-6.5,28.3,-12.8,0.00839259011,0.601458785,-0.0317697684,0.798211615
545,1367819,1506710,0.791,-0.796,0.253,74.1,27.8,-9.1,-6.5,28.3,-12.8,0.00759910886,0.600970489,-0.0303659169,0.798608356
546,1370181,1506720,0.811,-0.808,0.248,75,25.7,-4.6,-6.5,28.3,-12.8,0.00671407208,0.600543229,-0.028992584,0.799005097
547,1372181,1506720,0.795,-0.792,0.245,73.6,22.3,0,-6.5,28.3,-12.8,0.00576799829,0.600177007,-0.0277108066,0.7993408
548,1373817,1506720,0.819,-0.824,0.229,71,17.7,4.8,-6.5,28.3,-12.8,0.00476088748,0.599871822,-0.0265511032,0.799615467
549,1377927,1506720,0.83,-0.797,0.228,67.6,12.2,9.7,-6.5,28.3,-12.8,0.00369273965,0.599658193,-0.0254829554,0.799829096
550,1380019,1506730,0.858,-0.837,0.208,64.2,6.2,13.4,-6.5,28.3,-12.8,0.00262459181,0.599536119,-0.0245368816,0.79995117
551,1381965,1506730,0.9,-0.888,0.188,61,0.4,15.3,-6.5,28.3,-12.8,0.00155644398,0.599536119,-0.0236823634,0.799981689
552,1385002,1506730,0.982,-0.917,0.163,58.8,-4.8,15.5,-6.5,28.3,-12.8,0.000518814661,0.599597156,-0.0228278451,0.79995117
553,1386787,1506730,1.032,-0.969,0.143,58.2,-9,15.2,-6.5,28.3,-12.8,0.000488296152,-0.599749748,0.0220343638,-0.799859615
554,1388899,1506740,1.04,-0.934,0.146,60.1,-11.9,15.7,-6.5,28.3,-12.8,0.00155644398,-0.599963378,0.0211798456,-0.799737541
555,1392812,1506740,1.06,-0.926,0.127,64.6,-13.1,17.7,-6.5,28.3,-12.8,0.00271614734,-0.600177007,0.0202642903,-0.799584948
556,1394778,1506740,1.064,-0.907,0.126,71,-12.4,22.2,-6.5,28.3,-12.8,0.00402844325,-0.600360118,0.019348735,-0.799462874
557,1396672,1506740,1.052,-0.911,0.115,77.9,-10.2,29,-6.5,28.3,-12.8,0.00555436872,-0.600543229,0.0183721427,-0.7993408
558,1399014,1506750,1.063,-0.962,0.091,83.6,-8,38.4,-6.5,28.3,-12.8,0.00732444227,-0.600634785,0.0173955504,-0.799249245
559,1401321,1506750,1.118,-1.006,0.063,87.8,-6.6,49.2,-6.6,27.8,-13.4,0.0093386639,-0.600726341,0.0164799951,-0.799188208
560,1405811,1506750,1.149,-1.022,0.047,91.6,-6.4,58.8,-6.6,27.8,-13.4,0.0115665151,-0.600787378,0.0156865139,-0.799127171
561,1407949,1506750,1.153,-1.011,0.043,97.3,-6,64.7,-6.6,27.8,-13.4,0.0139774773,-0.600848415,0.0148319956,-0.799066134
562,1410421,1506760,1.149,-0.999,0.047,106.2,-3.9,66.4,-6.6,27.8,-13.4,0.0165410321,-0.600878933,0.0138554033,-0.799035615
563,1412366,1506760,1.106,-0.935,0.067,118.7,0.6,65.4,-6.6,27.8,-13.4,0.019226661,-0.600787378,0.0126346629,-0.799035615
564,1413815,1506760,1.087,-0.919,0.079,133.4,7.1,64.5,-6.6,27.8,-13.4,0.0220954009,-0.600604266,0.0111697745,-0.799157689
565,1417738,1506760,1.06,-0.899,0.072,147.9,13.8,66.3,-6.6,27.8,-13.4,0.0252082888,-0.600268563,0.00946073794,-0.799310282
566,1419598,1506770,1.021,-0.883,0.068,160.1,19.1,71.9,-6.6,27.8,-13.4,0.0285348064,-0.599810785,0.00762962737,-0.79955443
567,1421891,1506770,0.974,-0.843,0.069,168.5,22.3,80.2,-6.6,27.8,-13.4,0.0321359905,-0.599291971,0.00573747978,-0.799829096
568,1424095,1506770,0.962,-0.82,0.058,173.2,23.7,88.8,-6.6,27.8,-13.4,0.0359202857,-0.598742637,0.00390636921,-0.800103763
569,1427050,1506770,0.966,-0.796,0.054,174.9,23.8,96.2,-6.6,27.8,-13.4,0.0399182104,-0.598193304,0.00213629566,-0.800317392
570,1430076,1506780,0.962,-0.769,0.026,174.7,23.2,101.4,-6.6,27.8,-13.4,0.0439771722,-0.597613453,0.000427259133,-0.800561541
571,1431561,1506780,0.962,-0.781,0.015,173.4,22.6,104.9,-6.6,27.8,-13.4,0.0480666524,-0.597033601,-0.00119022187,-0.800744652
572,1435511,1506780,0.966,-0.777,0.011,171.7,21.9,107.4,-6.6,27.8,-13.4,0.0521866512,-0.596484268,-0.00277718436,-0.800897244
573,1437804,1506780,0.966,-0.773,0.007,170.3,21.3,109.5,-6.6,27.8,-13.4,0.05630665,-0.595904416,-0.00430310984,-0.801019318
574,1439814,1506790,0.974,-0.769,0,169.9,20.8,111.8,-6.6,27.8,-13.4,0.0604876858,-0.595355083,-0.00576799829,-0.801141392
575,1441396,1506790,0.981,-0.766,-0.008,170.5,20.4,114.8,-6.6,27.8,-13.4,0.0646992401,-0.594775231,-0.00723288675,-0.801232948
576,1444297,1506790,0.982,-0.758,-0.008,171.7,19.8,118.1,-6.6,27.8,-13.4,0.0690023499,-0.594195379,-0.0086977752,-0.801293985
577,1447521,1506790,0.982,-0.746,-0.012,173,19.1,121.7,-6.6,27.8,-13.4,0.0733359783,-0.593615528,-0.0101016266,-0.801293985
578,1448957,1506800,1.005,-0.739,-0.021,174.1,18.3,125.3,-6.6,27.8,-13.4,0.0778221992,-0.593035676,-0.0115054781,-0.801293985
579,1452484,1506800,1.017,-0.735,-0.025,175,17.5,128.8,-3.8,27.3,-17,0.0823389386,-0.592455824,-0.0128482925,-0.801263466
580,1453927,1506800,1.028,-0.724,-0.033,176,16.6,132.3,-3.8,27.3,-17,0.0869472335,-0.591875973,-0.0141911069,-0.801171911
581,1456905,1506800,1.06,-0.709,-0.049,176.9,15.7,136,-3.8,27.3,-17,0.0915860469,-0.591296121,-0.0155034028,-0.801049837
582,1458783,1506810,1.079,-0.693,-0.057,178,14.7,139.8,-3.8,27.3,-17,0.0963469344,-0.590746788,-0.0167851802,-0.800897244
583,1462014,1506810,1.091,-0.682,-0.065,178.9,13.5,143.9,-3.8,27.3,-17,0.101168859,-0.590166936,-0.0180364391,-0.800683615
584,1464171,1506810,1.106,-0.663,-0.073,179.3,12,148.4,-3.8,27.3,-17,0.10605182,-0.589617603,-0.019226661,-0.800439467
585,1467517,1506810,1.145,-0.632,-0.09,179.2,10,153.4,-3.8,27.3,-17,0.111056856,-0.58906827,-0.0203558458,-0.800134281
586,1469433,1506820,1.161,-0.609,-0.09,178.5,7.6,158.5,-3.8,27.3,-17,0.116122929,-0.588579974,-0.0214239937,-0.799737541
587,1472582,1506820,1.177,-0.59,-0.095,177.4,4.5,164.1,-3.8,27.3,-17,0.121280557,-0.588122196,-0.022400586,-0.799279763
588,1474003,1506820,1.185,-0.555,-0.087,176.1,1,169.7,-3.8,27.3,-17,0.126499222,-0.587694937,-0.0232856227,-0.798760949
589,1476982,1506820,1.216,-0.52,-0.099,175.2,-2.8,175.8,-3.8,27.3,-17,0.131809442,-0.587359233,-0.0240485855,-0.798150578
590,1480098,1506830,1.208,-0.488,-0.084,174.5,-7.2,182.5,-3.8,27.3,-17,0.137211219,-0.587054048,-0.0247810297,-0.797418134
591,1481775,1506830,1.193,-0.453,-0.075,174.9,-12.1,190.4,-1.8,25.4,-20.1,0.142765587,-0.586840419,-0.0254524369,-0.796594134
592,1483948,1506830,1.232,-0.45,-0.076,176.4,-17.9,200.3,-1.8,25.4,-20.1,0.148472549,-0.586718345,-0.0260017701,-0.795617542
593,1487752,1506830,1.298,-0.47,-0.074,179.2,-25.7,213.3,-1.8,25.4,-20.1,0.154454176,-0.586687826,-0.0264595477,-0.794488357
594,1489155,1506840,1.353,-0.448,-0.067,183.3,-36.2,228.3,-1.8,25.4,-20.1,0.160740989,-0.5868099,-0.0268257698,-0.793115024
595,1491963,1506840,1.471,-0.376,-0.049,188.6,-49,242.3,-0.6,25.3,-20.9,0.167332987,-0.587115085,-0.0271614734,-0.791528062
596,1495120,1506840,1.53,-0.33,-0.035,194.8,-62.5,251.1,-0.6,25.3,-20.9,0.174108097,-0.5876339,-0.0275582141,-0.789666433
597,1496610,1506840,1.596,-0.28,-0.032,201.4,-74.7,252.8,-0.6,25.3,-20.9,0.18100528,-0.588274789,-0.0280465102,-0.787591174
598,1499898,1506850,1.643,-0.222,-0.033,207.9,-83.8,248.3,-0.6,25.3,-20.9,0.187871944,-0.589037751,-0.0287789544,-0.785393841
599,1501355,1506850,1.671,-0.148,-0.034,213.8,-88.7,240.3,-0.2,24.3,-21,0.194677572,-0.589831233,-0.0297250282,-0.783104953
600,1504886,1506850,1.667,-0.105,-0.038,219.4,-89,232.2,-0.2,24.3,-21,0.201391644,-0.590533158,-0.0308542131,-0.780816065
601,1506401,1506850,1.644,0,-0.057,225.2,-86,226.6,-0.2,24.3,-21,0.208105716,-0.591143529,-0.0321359905,-0.778557695
602,1510146,1506860,1.628,0.105,-0.089,232.2,-81.4,225.4,-0.2,24.3,-21,0.214880825,-0.591631825,-0.0335398419,-0.776299326
603,1511640,1506860,1.597,0.183,-0.194,238.4,-76.7,231.5,0.5,23.2,-21.5,0.221808527,-0.591967528,-0.0349436934,-0.774010437
604,1513819,1506860,1.542,0.168,-0.259,239.9,-71.6,246.7,0.5,23.2,-21.5,0.229010895,-0.592181158,-0.0361644337,-0.771691031
605,1517402,1506860,1.487,0.165,-0.309,233.7,-64.2,270.1,0.5,23.2,-21.5,0.236518448,-0.592303232,-0.036896878,-0.769310587
606,1518944,1506870,1.436,0.162,-0.359,220.7,-53.6,296.3,0.5,23.2,-21.5,0.244300668,-0.592272713,-0.037079989,-0.766869106
607,1521571,1506870,1.232,0.079,-0.469,204.7,-40.4,319.2,1.3,22.6,-22.1,0.252265999,-0.592089602,-0.0365916929,-0.764458144
608,1526099,1506870,1.133,0.002,-0.518,189.7,-26.3,334.8,1.3,22.6,-22.1,0.26023133,-0.59172338,-0.035584582,-0.762108219
609,1526227,1506870,1.02,-0.046,-0.543,178,-12.8,341.8,1.3,22.6,-22.1,0.26822718,-0.591174047,-0.0342112491,-0.75981933
610,1529404,1506880,0.973,-0.041,-0.518,171,-1.3,340.4,1.3,22.6,-22.1,0.276070437,-0.590441603,-0.0326548051,-0.757652516
611,1531634,1506880,0.946,-0.025,-0.495,168.1,6.8,332,2.4,22.1,-22.8,0.283669546,-0.589526048,-0.0311288797,-0.755607776
612,1534875,1506880,0.888,-0.008,-0.462,167.1,10.3,319.6,2.4,22.1,-22.8,0.291116062,-0.588518937,-0.0296639912,-0.753624073
613,1536200,1506880,0.927,-0.048,-0.447,164.7,8.1,307.7,2.4,22.1,-22.8,0.298287912,-0.587542344,-0.0284127323,-0.75164037
614,1539407,1506890,0.883,-0.149,-0.438,158.1,0.1,299.6,2.4,22.1,-22.8,0.305246132,-0.586657308,-0.0271614734,-0.749565111
615,1541609,1506890,0.829,-0.163,-0.437,147.6,-12.1,295.3,3.5,21.5,-23,0.311929685,-0.586046937,-0.025879696,-0.74733726
616,1544179,1506890,0.821,-0.214,-0.449,135.8,-26.6,292.4,3.5,21.5,-23,0.318430128,-0.585711234,-0.0245063631,-0.744926298
617,1546242,1506890,0.817,-0.206,-0.441,125.5,-41.4,288.6,3.5,21.5,-23,0.324686422,-0.585650197,-0.0231635487,-0.742301706
618,1550106,1506900,0.837,-0.218,-0.394,118.3,-54.1,283.5,3.5,21.5,-23,0.330759606,-0.585802789,-0.0218512528,-0.739524522
619,1552234,1506900,0.887,-0.231,-0.372,113.2,-63.2,278.7,4.4,20.1,-23.8,0.336680197,-0.586138493,-0.0205694754,-0.736625263
620,1553739,1506900,0.907,-0.223,-0.337,108.8,-68.1,275.5,4.4,20.1,-23.8,0.342448195,-0.586535234,-0.019287698,-0.733664968
621,1558207,1506900,0.939,-0.2,-0.275,103.6,-69.6,274.9,4.4,20.1,-23.8,0.348124638,-0.586993011,-0.0179448836,-0.730674154
622,1560589,1506910,0.97,-0.208,-0.256,97.6,-69.7,276.8,4.4,20.1,-23.8,0.353770562,-0.587450789,-0.0164799951,-0.727622303
623,1562532,1506910,0.982,-0.212,-0.236,91.5,-70.6,280.9,4.4,20.5,-23.8,0.359355449,-0.587969604,-0.0148930326,-0.724478896
624,1564065,1506910,0.955,-0.184,-0.212,86.2,-73.9,286,4.4,20.5,-23.8,0.364970855,-0.588518937,-0.0131534776,-0.721243934
625,1567679,1506910,1.056,-0.178,-0.226,82.9,-80.4,290.1,4.4,20.5,-23.8,0.370555742,-0.589190344,-0.011383404,-0.717886898
626,1569180,1506920,1.068,-0.17,-0.23,81.5,-89.1,293,4.4,20.5,-23.8,0.376171148,-0.589983825,-0.00961333048,-0.714316233
627,1572090,1506920,1.064,-0.159,-0.23,81.9,-98.2,295.5,4.7,20,-24.4,0.381817072,-0.59089938,-0.00787377544,-0.710592975
628,1573999,1506920,1.06,-0.155,-0.226,82.2,-104.9,298.5,4.7,20,-24.4,0.387462996,-0.591875973,-0.00619525742,-0.706717124
629,1577039,1506920,0.967,-0.168,-0.17,80.2,-107.3,302,4.7,20,-24.4,0.393139439,-0.592883084,-0.00442518387,-0.702749718
630,1580355,1506930,0.904,-0.23,-0.184,72.8,-105.6,305.4,4.7,20,-24.4,0.398724326,-0.593890194,-0.00250251778,-0.698751793
631,1582255,1506930,0.865,-0.307,-0.203,58.7,-101.9,307.6,4.8,19.6,-24.2,0.40418714,-0.594927824,-0.000305185095,-0.69472335
632,1584524,1506930,0.915,-0.418,-0.192,39.5,-98.3,307.7,4.8,19.6,-24.2,0.409344768,-0.596057009,0.00219733268,-0.690725425
633,1587664,1506930,0.892,-0.503,-0.152,18.9,-95.9,305.4,4.8,19.6,-24.2,0.414197211,-0.597308267,0.00503555406,-0.6867275
634,1589049,1506940,0.899,-0.655,-0.124,0.9,-94.5,301.6,4.8,19.6,-24.2,0.41871395,-0.5986816,0.00808740501,-0.682760094
635,1592407,1506940,0.965,-0.848,-0.063,-13.7,-97.4,294.8,5.1,18.6,-24.2,0.422559282,-0.601275674,0.0113528855,-0.678029725
636,1594295,1506940,1.051,-0.908,-0.06,-13.7,-97.4,294.8,5.1,18.6,-24.2,0.426740318,-0.602740562,0.0145268105,-0.6740318
637,1598022,1506940,1.137,-0.972,-0.097,-4.9,-104.3,291,5.1,18.6,-24.2,0.430982391,-0.604235969,0.0174565874,-0.66994232
638,1599521,1506950,1.148,-1.008,-0.172,13.5,-112.5,286.5,5.1,18.6,-24.2,0.435377056,-0.605609302,0.0199896237,-0.665730766
639,1601630,1506950,1.057,-1.14,-0.299,36.4,-115.7,282.9,7.6,17.6,-24.6,0.44001587,-0.606830042,0.0220954009,-0.661519211
640,1605148,1506950,0.958,-1.268,-0.465,57.1,-108.6,281.4,7.6,17.6,-24.6,0.444868313,-0.607684561,0.0239265114,-0.657399213
641,1607336,1506950,0.874,-1.447,-0.596,70.3,-92,281.5,7.6,17.6,-24.6,0.449903867,-0.608172857,0.025757622,-0.653462325
642,1608949,1506960,0.87,-1.58,-0.663,74.9,-74.7,280.5,7.6,17.6,-24.6,0.454908902,-0.608325449,0.0277108066,-0.649739067
643,1611858,1506960,1.027,-1.344,-0.56,76.3,-67.1,274.9,6.3,18.5,-25.3,0.459852901,-0.608325449,0.0296029542,-0.646168401
644,1613948,1506960,1.091,-1.141,-0.495,80.7,-75.3,264.2,6.3,18.5,-25.3,0.464705344,-0.608417005,0.0312204352,-0.642567217
645,1617430,1506960,1.119,-1.009,-0.504,89.2,-96.8,252.2,6.3,18.5,-25.3,0.469466231,-0.608661153,0.0323191015,-0.638752403
646,1619652,1506970,1.162,-0.892,-0.505,96.9,-123.8,244.7,6.3,18.5,-25.3,0.474257637,-0.609210486,0.0329599902,-0.634662923
647,1621798,1506970,1.478,-0.575,-0.065,99.7,-147.2,244.6,6.8,17.6,-25.2,0.479049043,-0.610034486,0.0332956938,-0.630237739
648,1623872,1506970,1.977,-0.406,0.336,97.2,-163.6,250.4,6.8,17.6,-25.2,0.483901486,-0.611072115,0.0335703604,-0.62550737
649,1628048,1506970,2.874,-0.247,0.71,91.1,-175.7,259.2,6.8,17.6,-25.2,0.488753929,-0.612323374,0.0339365825,-0.620471816
650,1630078,1506980,7.13,-0.086,0.372,82.7,-191.9,268.3,6.8,17.6,-25.2,0.493636891,-0.613818781,0.0343638417,-0.61507004
651,1632229,1506980,7.994,-0.098,-0.712,75.9,-226,276.2,6.3,17.2,-25.8,0.498519852,-0.615802484,0.0346079897,-0.609118931
652,1634898,1506980,7.981,0.106,-1.851,89.2,-293.5,283.9,6.3,17.2,-25.8,0.50367748,-0.618488113,0.0340281381,-0.602130192
653,1636350,1506980,7.987,0.417,-2.216,154.6,-392.3,295.9,6.3,17.2,-25.8,0.509933775,-0.621692557,0.0316782128,-0.593646046
654,1639388,1506990,6.093,2.505,-1.339,304,-480.5,312.8,6.3,17.2,-25.8,0.518387402,-0.624256111,0.0266121403,-0.583819086
655,1643596,1506990,4.299,3.57,-1.484,542.2,-492.1,320.2,6.3,16.3,-26.1,0.530045473,-0.624103519,0.0185247353,-0.57371746
656,1643852,1506990,3.01,4.122,-1.754,826.8,-384.5,295.8,6.3,16.3,-26.1,0.545060579,-0.619098483,0.00775170141,-0.565263833
657,1646951,1506990,1.972,4.674,-1.908,1089.7,-173.1,227.2,6.3,16.3,-26.1,0.562425611,-0.608050783,-0.00463881344,-0.560228278
658,1649258,1507000,0.128,7.162,-2.113,1275.9,81.7,122.1,6.3,16.3,-26.1,0.580645161,-0.591174047,-0.0175786615,-0.559465316
659,1651477,1507000,-1.367,7.982,-1.86,1376.2,316.1,-3.8,6.3,10.2,-28.1,0.598193304,-0.569597461,-0.0304574725,-0.562791833
660,1655277,1507000,-2.704,8.007,-1.412,1406.4,491.5,-138.5,6.3,10.2,-28.1,0.613971374,-0.544816431,-0.0430005799,-0.569475387
661,1656762,1507000,-3.797,8.032,0.725,1361.9,596.8,-269.3,6.3,10.2,-28.1,0.627033296,-0.518601032,-0.0551164281,-0.578600421
662,1659459,1507010,-3.204,7.289,1.068,1200.5,621.2,-374.2,6.3,10.2,-28.1,0.636341441,-0.493667409,-0.0659810175,-0.589037751
663,1662763,1507010,-2.573,5.929,1.568,891.9,554.9,-428.5,7.3,5.3,-28.4,0.641041292,-0.4733726,-0.0743125706,-0.599475082
664,1664131,1507010,-2.06,4.994,1.482,461.4,402.3,-426.8,7.3,5.3,-28.4,0.640797143,-0.460921049,-0.0791344951,-0.608783227
665,1668155,1507010,-1.112,3.073,0.402,-6.8,201.3,-390.5,7.3,5.3,-28.4,0.635853145,-0.45762505,-0.0801416059,-0.616260262
666,1669727,1507020,-0.691,2.337,-0.057,-420,5.2,-351.6,7.3,5.3,-28.4,0.626911222,-0.462752159,-0.0779442732,-0.621875668
667,1671839,1507020,-0.417,1.76,-0.284,-715.9,-144.3,-331,9.2,4.9,-27.8,0.61485641,-0.473860897,-0.0735190893,-0.626056703
668,1674848,1507020,0.052,1.182,-0.335,-874.5,-232,-332.2,9.2,4.9,-27.8,0.600756859,-0.488113041,-0.0681173132,-0.629383221
669,1676582,1507020,0.297,0.861,-0.437,-915.4,-267.9,-348.3,9.2,4.9,-27.8,0.585680715,-0.503158666,-0.0627460555,-0.632312998
670,1680129,1507030,0.561,0.614,-0.469,-880.5,-273.2,-370,9.2,4.9,-27.8,0.570390942,-0.517563402,-0.0581377606,-0.635090182
671,1682207,1507030,0.756,0.345,-0.453,-814.4,-264.7,-389.9,8.2,9.6,-27.7,0.555345317,-0.530747398,-0.0545365764,-0.637867367
672,1685514,1507030,1.149,-0.243,-0.361,-751.3,-249.7,-402.2,8.2,9.6,-27.7,0.540635395,-0.542741173,-0.0517593921,-0.640614032
673,1686918,1507030,1.267,-0.423,-0.136,-709.4,-228.6,-405.6,8.2,9.6,-27.7,0.526230659,-0.553758354,-0.0493484298,-0.643391217
674,1688973,1507040,1.479,-0.484,0.149,-694.8,-203,-401,8.2,9.6,-27.7,0.511886959,-0.564073611,-0.0467543565,-0.646168401
675,1692413,1507040,1.97,-0.973,0.818,-708.1,-178.8,-389.9,6.9,13.4,-27.2,0.497421186,-0.574022645,-0.043549913,-0.648945585
676,1694469,1507040,2.457,-1.516,1.018,-751.3,-165,-371.5,6.9,13.4,-27.2,0.482497635,-0.584032716,-0.0393383587,-0.65150914
677,1696660,1507040,3.059,-2.204,0.761,-829.4,-166.8,-342.2,6.9,13.4,-27.2,0.466841639,-0.594714194,-0.033661916,-0.653584399
678,1700034,1507050,3.924,-3.489,-0.215,-943.8,-184,-296.6,6.9,13.4,-27.2,0.450117496,-0.606616413,-0.0259407331,-0.654744102
679,1701874,1507050,5.502,-6.895,-3.163,-1079.8,-215.2,-228.8,5.2,16.7,-25.7,0.432294687,-0.61998352,-0.0156254769,-0.654560991
680,1704329,1507050,4.868,-8.07,-4.151,-1198.7,-260.2,-132,5.2,16.7,-25.7,0.413953063,-0.63472396,-0.00277718436,-0.652455214
681,1706552,1507050,3.33,-8.109,-3.891,-1237.2,-311.1,-8.1,5.2,16.7,-25.7,0.396526994,-0.65007477,0.0119022187,-0.64803003
682,1709097,1507060,1.618,-7.954,-2.842,-1134.1,-344.9,120.9,5.2,16.7,-25.7,0.382122257,-0.664510025,0.0266121403,-0.641590625
683,1712610,1507060,0.095,-5.359,-0.222,-871.1,-336.2,217.1,5,20.9,-23,0.372631001,-0.676229133,0.0391857662,-0.634266182
684,1713992,1507060,-0.306,-4.175,0.679,-501.4,-277.9,253.2,5,20.9,-23,0.368938261,-0.68385876,0.0476088748,-0.627613147
685,1717098,1507060,-0.172,-3.398,1.078,-129.4,-186.9,235.9,5,20.9,-23,0.370433668,-0.687215796,0.05139317,-0.622760704
686,1719705,1507070,0.107,-2.851,1.209,146.6,-89.1,197.6,5,20.9,-23,0.375408185,-0.687002167,0.051637318,-0.61998352
687,1721622,1507070,0.566,-1.984,1.089,283.8,-0.9,169,5.6,21.6,-22.8,0.381939146,-0.684469131,0.0503250221,-0.618884854
688,1725744,1507070,0.775,-1.821,0.76,298.4,72.2,161.9,5.6,21.6,-22.8,0.388500626,-0.680806909,0.0493179113,-0.618945891
689,1728059,1507070,1.024,-1.632,0.446,242.8,131.4,172.6,5.6,21.6,-22.8,0.394268624,-0.676747948,0.0497146519,-0.619678335
690,1730245,1507080,1.135,-1.593,-0.025,173,178.6,191,5.6,21.6,-22.8,0.399212622,-0.672658467,0.0517288736,-0.620838038
691,1732469,1507080,1.215,-1.744,-0.312,130,214,208,6,21,-23.2,0.403698843,-0.668355358,0.05487228,-0.622302927
692,1734404,1507080,1.172,-1.587,-0.355,133.3,236.6,218,6,21,-23.2,0.408307138,-0.663686026,0.0583208716,-0.623981445
693,1736412,1507080,1.239,-1.382,-0.466,181.5,243,218.4,6,21,-23.2,0.41358684,-0.65846736,0.0611896115,-0.625751518
694,1740800,1507090,1.368,-0.998,-0.677,257,230,209.4,6,21,-23.2,0.419812616,-0.652699362,0.0627460555,-0.627491073
695,1742981,1507090,1.481,-0.809,-0.738,336.5,198,193.6,7.5,20.4,-23.5,0.426953948,-0.646626179,0.062715537,-0.628955962
696,1744565,1507090,1.58,-0.557,-0.701,402,153.3,175.6,7.5,20.4,-23.5,0.434797205,-0.640491958,0.0610675375,-0.63002411
697,1746583,1507090,1.624,-0.307,-0.573,447,106,161.1,7.5,20.4,-23.5,0.443098239,-0.634540849,0.0581987976,-0.630542924
698,1749472,1507100,1.631,-0.028,-0.276,472.8,64.9,155.5,7.5,20.4,-23.5,0.451643422,-0.628833888,0.0544755394,-0.630481887
699,1752673,1507100,1.57,0.118,-0.127,483.8,34,160.2,7.1,18.7,-24.7,0.460463271,-0.623371075,0.0503250221,-0.629871517
700,1755557,1507100,1.492,0.229,-0.016,484.7,12.8,170.8,7.1,18.7,-24.7,0.469344157,-0.618121891,0.0461439863,-0.628864406
701,1758312,1507100,1.322,0.444,0.19,480.4,-1,180.7,7.1,18.7,-24.7,0.478286081,-0.612994781,0.0419629505,-0.627430036
702,1760436,1507110,1.171,0.592,0.31,474.7,-8.8,183.9,7.1,18.7,-24.7,0.487136448,-0.607959227,0.0378429518,-0.625812555
703,1762767,1507110,1.097,0.66,0.35,467.9,-11.1,178.2,9.3,17.3,-25.7,0.495742668,-0.602954192,0.0336924345,-0.624103519
704,1764620,1507110,0.977,0.818,0.403,457.8,-8.6,162.8,9.3,17.3,-25.7,0.503952147,-0.597949156,0.0295113987,-0.622547075
705,1766939,1507110,0.763,0.951,0.411,441.7,-2,139,9.3,17.3,-25.7,0.511581774,-0.593005158,0.0252693258,-0.621234779
706,1769189,1507120,0.665,1.023,0.42,418.1,8.3,109.1,9.3,17.3,-25.7,0.518448439,-0.588152715,0.0211188086,-0.620319224
707,1771599,1507120,0.572,1.095,0.433,387,21.9,76.1,9.5,14.9,-26.2,0.524399548,-0.583391827,0.0170903653,-0.619891964
708,1773848,1507120,0.373,1.075,0.421,348.5,37.9,43,9.5,14.9,-26.2,0.529404584,-0.578875088,0.0133976257,-0.620014039
709,1777843,1507120,0.322,1.072,0.462,302.8,54.4,11.5,9.5,14.9,-26.2,0.53337199,-0.574633015,0.0100711081,-0.620624409
710,1780278,1507130,0.236,0.956,0.409,249.9,68.9,-16.9,9.5,14.9,-26.2,0.53624073,-0.570787683,0.00726340526,-0.621723075
711,1782069,1507130,0.188,0.874,0.378,191.1,78.5,-42,9.4,13,-26.9,0.538041322,-0.567461165,0.00506607257,-0.623218482
712,1784324,1507130,0.334,0.426,0.224,129.7,80.8,-63.8,9.4,13,-26.9,0.538773766,-0.564867092,0.00347911008,-0.624988556
713,1787382,1507130,0.423,0.217,0.175,72.4,75.3,-82.1,9.4,13,-26.9,0.538529618,-0.562974944,0.00234992523,-0.626880703
714,1788759,1507140,0.489,0.071,0.163,27.9,64.1,-97.4,9.4,13,-26.9,0.537522507,-0.561784722,0.00152592547,-0.628833888
715,1791723,1507140,0.563,-0.069,0.248,2.2,50.5,-110.4,9.8,12.9,-26.5,0.5360271,-0.561052278,0.000732444227,-0.630726035
716,1795164,1507140,0.559,-0.12,0.283,-5.6,37.4,-121.9,9.8,12.9,-26.5,0.534287545,-0.560594501,-0.000213629566,-0.632618183
717,1796512,1507140,0.567,-0.183,0.299,-3.1,25.9,-131.2,9.8,12.9,-26.5,0.532425916,-0.560289315,-0.00146488845,-0.634449293
718,1799472,1507150,0.559,-0.225,0.315,0,15.6,-137.5,9.8,12.9,-26.5,0.530533769,-0.560045167,-0.00296029542,-0.636249886
719,1802676,1507150,0.591,-0.273,0.33,-2.4,5.7,-140.3,8.3,12.7,-26.6,0.528550066,-0.55998413,-0.00457777642,-0.637928404
720,1805090,1507150,0.583,-0.304,0.342,-13,-3.9,-139.7,8.3,12.7,-26.6,0.526444288,-0.56019776,-0.0061342204,-0.639484848
721,1807274,1507150,0.61,-0.328,0.353,-30.8,-13.4,-135.7,8.3,12.7,-26.6,0.5241554,-0.560716575,-0.00753807184,-0.640888699
722,1810454,1507160,0.664,-0.395,0.337,-53.2,-23.2,-128.8,8.3,12.7,-26.6,0.521713919,-0.561601611,-0.00863673818,-0.642078921
723,1812591,1507160,0.739,-0.435,0.355,-76.1,-33,-120.1,8.7,13.2,-26.6,0.519089328,-0.562913907,-0.00939970092,-0.643055513
724,1813870,1507160,0.797,-0.44,0.362,-96.3,-42.6,-111,8.7,13.2,-26.6,0.516342662,-0.564592425,-0.00991851558,-0.643818476
725,1817326,1507160,0.856,-0.461,0.368,-111.4,-51,-102.4,8.7,13.2,-26.6,0.51350444,-0.566515091,-0.0101931822,-0.644367809
726,1820224,1507170,0.899,-0.473,0.387,-121.6,-57.1,-94.5,8.7,13.2,-26.6,0.510666219,-0.568681906,-0.0102847377,-0.644734031
727,1821571,1507170,0.965,-0.56,0.429,-127.9,-60.2,-85.9,8.6,13.6,-26.7,0.507858516,-0.570909757,-0.0102237007,-0.644978179
728,1823777,1507170,1.012,-0.604,0.436,-130.9,-60.6,-76.1,8.6,13.6,-26.7,0.50511185,-0.573198645,-0.0099795526,-0.645069735
729,1827528,1507170,1.031,-0.655,0.452,-131.1,-58.9,-65.6,8.6,13.6,-26.7,0.502548296,-0.575457015,-0.00961333048,-0.645100253
730,1829919,1507180,1.074,-0.781,0.439,-129.1,-55.8,-55.5,8.6,13.6,-26.7,0.500137333,-0.577654347,-0.00909451582,-0.645039216
731,1831853,1507180,1.105,-0.836,0.431,-125.2,-52.1,-46.5,8.2,14.4,-26.3,0.497878964,-0.579729606,-0.00851466414,-0.644886624
732,1835903,1507180,1.12,-0.887,0.407,-119.9,-48.3,-38.6,8.2,14.4,-26.3,0.495803705,-0.581713309,-0.00784325694,-0.644734031
733,1838106,1507180,1.108,-0.922,0.388,-113.4,-44.4,-30.8,8.2,14.4,-26.3,0.493911557,-0.58354442,-0.00711081271,-0.644520402
734,1840242,1507190,1.068,-1.043,0.338,-105.4,-40.6,-22,8.2,14.4,-26.3,0.492263558,-0.585253456,-0.00634784997,-0.644245735
735,1842611,1507190,1.045,-1.058,0.335,-95.7,-37,-11.2,7.8,15,-26.3,0.490890225,-0.5868099,-0.00552385022,-0.643910031
736,1844595,1507190,1.014,-1.007,0.339,-83.8,-33.3,1.7,7.8,15,-26.3,0.489822077,-0.588183233,-0.00469985046,-0.643482772
737,1846842,1507190,0.979,-0.885,0.339,-71.1,-29.5,15.9,7.8,15,-26.3,0.489120151,-0.589342936,-0.00381481368,-0.642933439
738,1848796,1507200,0.96,-0.846,0.324,-60.7,-25.4,29.2,7.8,15,-26.3,0.488753929,-0.590350047,-0.00283822138,-0.64229255
739,1851358,1507200,0.944,-0.814,0.313,-56.1,-21,39.3,7.3,15.4,-26.3,0.488570818,-0.591265603,-0.00177007355,-0.641590625
740,1854624,1507200,0.936,-0.795,0.293,-57.9,-16.3,45,7.3,15.4,-26.3,0.488448744,-0.592089602,-0.000549333171,-0.640919218
741,1857226,1507200,0.936,-0.767,0.277,-63.7,-11.5,47.3,7.3,15.4,-26.3,0.488296152,-0.592944121,0.000793481246,-0.64024781
742,1859002,1507210,0.936,-0.752,0.285,-70.1,-6.2,48.2,7.3,15.4,-26.3,0.488052004,-0.59376812,0.00231940672,-0.639667959
743,1861552,1507210,0.948,-0.732,0.293,-74.5,-0.4,49.2,7.7,15.4,-26.3,0.487777337,-0.594561602,0.00399792474,-0.639118625
744,1864944,1507210,0.948,-0.709,0.308,-75.4,6.3,50.4,7.7,15.4,-26.3,0.48750267,-0.595263527,0.00576799829,-0.638660848
745,1866998,1507210,0.925,-0.669,0.32,-73.1,14.1,52.2,7.7,15.4,-26.3,0.487289041,-0.595843379,0.00762962737,-0.638294626
746,1869199,1507220,0.917,-0.649,0.336,-68.6,22.8,54.1,7.7,15.4,-26.3,0.487136448,-0.59624012,0.00952177496,-0.637989441
747,1871725,1507220,0.917,-0.626,0.336,-63,31.6,56,7.9,15.7,-25.8,0.48710593,-0.596453749,0.0114749596,-0.63780633
748,1874168,1507220,0.902,-0.598,0.332,-57.4,40.1,57.5,7.9,15.7,-25.8,0.487136448,-0.596514786,0.0134281442,-0.637684256
749,1878525,1507220,0.89,-0.59,0.329,-51.9,47.7,58,7.9,15.7,-25.8,0.487258522,-0.596362194,0.0154118473,-0.637684256
750,1878838,1507230,0.894,-0.587,0.317,-46.4,54,57,7.9,15.7,-25.8,0.487411115,-0.596087527,0.0173955504,-0.637745293
751,1882076,1507230,0.902,-0.579,0.305,-40.3,58.8,54.3,8.1,16.1,-24.9,0.487624744,-0.595690786,0.019287698,-0.637928404
752,1884802,1507230,0.921,-0.564,0.293,-33.1,62.4,50.1,8.1,16.1,-24.9,0.487868892,-0.595141453,0.0210577715,-0.63820307
753,1886614,1507230,0.921,-0.568,0.297,-24.7,65.6,44.7,8.1,16.1,-24.9,0.488143559,-0.594470046,0.0226752525,-0.638538774
754,1890957,1507240,0.933,-0.572,0.297,-15.2,68.5,39,8.1,16.1,-24.9,0.488448744,-0.593646046,0.024140141,-0.63902707
755,1891488,1507240,0.941,-0.552,0.32,-5.4,71.5,33.4,8.6,15.9,-24.1,0.488814966,-0.592699973,0.0253913999,-0.639576403
756,1896033,1507240,0.933,-0.548,0.332,3.7,74.7,28.5,8.6,15.9,-24.1,0.489211707,-0.591601306,0.0264900662,-0.64024781
757,1898333,1507240,0.926,-0.564,0.344,11.5,77.6,24.5,8.6,15.9,-24.1,0.489669485,-0.590380566,0.0274666585,-0.640980255
758,1900522,1507250,0.926,-0.564,0.348,16.8,79.6,21.1,8.6,15.9,-24.1,0.490127262,-0.58906827,0.0283822138,-0.641804254
759,1902742,1507250,0.926,-0.587,0.371,19.4,80.3,18,9,16.2,-27.2,0.49058504,-0.587725455,0.0291756951,-0.642658773
760,1905163,1507250,0.918,-0.595,0.383,19.6,79.8,14.8,9,16.2,-27.2,0.49098178,-0.586382641,0.0299691763,-0.643543809
761,1907113,1507250,0.906,-0.606,0.391,18,78.3,11.5,9,16.2,-27.2,0.491317484,-0.585070345,0.0307016205,-0.644428846
762,1908992,1507260,0.898,-0.621,0.395,15.4,76.4,8.3,9,16.2,-27.2,0.491592151,-0.583849605,0.0314035463,-0.645313883
763,1913249,1507260,0.859,-0.652,0.404,12.5,74.6,5.6,8.8,15.7,-25.1,0.491775262,-0.582659383,0.032105472,-0.64619892
764,1915619,1507260,0.844,-0.652,0.4,10.5,73,3.8,8.8,15.7,-25.1,0.491927854,-0.58149968,0.0328073977,-0.647114475
765,1917848,1507260,0.828,-0.64,0.397,10.2,71.8,3.5,8.8,15.7,-25.1,0.492049928,-0.580370495,0.0334788049,-0.647999512
766,1920145,1507270,0.82,-0.624,0.405,11.8,70.9,4.9,8.8,15.7,-25.1,0.492202521,-0.57924131,0.0341196936,-0.64885403
767,1921913,1507270,0.844,-0.597,0.404,14.9,70.2,7.8,9.5,16.1,-25.1,0.492446669,-0.578081606,0.0347605823,-0.649647511
768,1925029,1507270,0.855,-0.578,0.396,18.9,70.4,12.1,9.5,16.1,-25.1,0.492812891,-0.576860866,0.035401471,-0.650440992
769,1927616,1507270,0.875,-0.551,0.392,23.2,71.7,17.4,9.5,16.1,-25.1,0.493301187,-0.575579089,0.0360728782,-0.651173437
770,1929634,1507280,0.899,-0.504,0.364,27.9,74.7,23.1,9.5,16.1,-25.1,0.493911557,-0.574205756,0.0367748039,-0.651875362
771,1931825,1507280,0.891,-0.485,0.356,32.6,78.9,28.3,9.7,16,-24.6,0.49467452,-0.572710349,0.0375072481,-0.652577288
772,1934033,1507280,0.891,-0.457,0.352,37.3,83.8,32.3,9.7,16,-24.6,0.495529038,-0.571092868,0.0383007294,-0.653309732
773,1938105,1507280,0.903,-0.415,0.348,42.1,88.5,35.2,9.7,16,-24.6,0.496475112,-0.569322794,0.0390942106,-0.654072695
774,1940259,1507290,0.883,-0.34,0.34,46.6,92.4,37.4,9.7,16,-24.6,0.497512741,-0.567461165,0.0398876919,-0.654835658
775,1942524,1507290,0.903,-0.262,0.336,50.1,95.3,39.2,10,15.6,-24.8,0.49836726,-0.565538499,0.0402233955,-0.655842769
776,1944492,1507290,0.903,-0.262,0.336,51.6,97,40.4,10,15.6,-24.8,0.499496445,-0.563554796,0.0410473952,-0.65663625
777,1947982,1507290,0.899,-0.212,0.324,50.7,97.8,40.6,10,15.6,-24.8,0.500595111,-0.561571093,0.041871395,-0.657429731
778,1950247,1507300,0.888,-0.204,0.328,47.2,97.9,39.2,10,15.6,-24.8,0.501663259,-0.559617908,0.0427564318,-0.658253731
779,1951716,1507300,0.876,-0.192,0.328,41.8,97.3,36.2,10.6,15.6,-26.4,0.502609333,-0.557725761,0.0436719871,-0.659077731
780,1955025,1507300,0.88,-0.196,0.328,35.4,96.2,32.2,10.6,15.6,-26.4,0.503402814,-0.555925169,0.0445875423,-0.659932249
781,1957531,1507300,0.837,-0.175,0.325,28.7,94.7,28.2,10.6,15.6,-26.4,0.504074221,-0.554216132,0.0455641346,-0.660786767
782,1959945,1507310,0.829,-0.171,0.313,21.9,93.3,24.5,10.6,15.6,-26.4,0.504593036,-0.552598651,0.0465712455,-0.661671804
783,1961950,1507310,0.841,-0.164,0.309,14.9,92.1,20.8,11.1,14.9,-25.2,0.504959258,-0.551072726,0.0476393933,-0.662556841
784,1964166,1507310,0.841,-0.168,0.302,7.5,91.2,16.6,11.1,14.9,-25.2,0.505203406,-0.549668874,0.0487380596,-0.663502915
785,1968198,1507310,0.805,-0.191,0.29,-0.7,90.5,11.5,11.1,14.9,-25.2,0.505264443,-0.54832606,0.049836726,-0.664448988
786,1970408,1507320,0.79,-0.202,0.291,-9.4,89.5,5.1,11.1,14.9,-25.2,0.505142369,-0.547135838,0.0510574664,-0.665456099
787,1972564,1507320,0.747,-0.237,0.28,-18,87.6,-1.9,11.6,15.7,-25.4,0.504776147,-0.54606769,0.0522476882,-0.666493728
788,1974560,1507320,0.735,-0.26,0.28,-25.6,84.5,-9.5,11.6,15.7,-25.4,0.504257332,-0.545121616,0.0534379101,-0.667561876
789,1976864,1507320,0.672,-0.302,0.277,-32.1,80.4,-17.2,11.6,15.7,-25.4,0.503524888,-0.544328135,0.0545976135,-0.668691061
790,1979120,1507330,0.649,-0.344,0.266,-37.4,75.3,-25.1,11.6,15.7,-25.4,0.502609333,-0.543656728,0.0556657613,-0.669820246
791,1982497,1507330,0.633,-0.36,0.267,-41.7,69.1,-33.1,11.8,15.3,-25.8,0.501541185,-0.543168432,0.0566423536,-0.670949431
792,1984685,1507330,0.613,-0.379,0.255,-44.8,61.9,-40.7,11.8,15.3,-25.8,0.500350963,-0.54280221,0.0574968719,-0.672078616
793,1986811,1507330,0.554,-0.417,0.241,-47.3,53.8,-47.2,11.8,15.3,-25.8,0.499038667,-0.54258858,0.0582293161,-0.673146764
794,1990570,1507340,0.543,-0.394,0.241,-49.8,45.7,-52.9,11.8,15.3,-25.8,0.497604297,-0.542527543,0.0588396863,-0.674214911
795,1992702,1507340,0.48,-0.479,0.191,-52.5,37.5,-58.6,12.1,16.1,-25.8,0.496078372,-0.542619098,0.0593279824,-0.675222022
796,1994974,1507340,0.436,-0.533,0.161,-54.6,29.2,-65.7,12.1,16.1,-25.8,0.494399854,-0.542863247,0.059663686,-0.676198614
797,1997001,1507340,0.484,-0.436,0.191,-54.6,20.3,-75.5,12.1,16.1,-25.8,0.49262978,-0.543229469,0.0597857601,-0.677205725
798,1999282,1507350,0.48,-0.432,0.191,-51.6,10.4,-87.8,12.1,16.1,-25.8,0.490707114,-0.543748283,0.059602649,-0.678182318
799,2002430,1507350,0.448,-0.427,0.168,-45.8,-0.2,-100.6,12,16,-24.4,0.488662374,-0.544358654,0.0591143529,-0.679219947
800,2003931,1507350,0.441,-0.427,0.153,-38.8,-11.1,-111.9,12,16,-24.4,0.486556597,-0.545091098,0.0582293161,-0.680227058
801,2006831,1507350,0.46,-0.385,0.152,-30.8,-21.7,-121.2,12,16,-24.4,0.484420301,-0.545884579,0.0570085757,-0.68120365
802,2009941,1507360,0.539,-0.241,0.205,-21.5,-31.3,-129,12,16,-24.4,0.482284005,-0.546739097,0.0554521317,-0.682149724
803,2011428,1507360,0.488,-0.268,0.187,-11.3,-39.7,-135.1,11.3,16.2,-24.5,0.480178228,-0.547624134,0.0536210211,-0.683095798
804,2014402,1507360,0.476,-0.252,0.175,-0.6,-46.8,-140,11.3,16.2,-24.5,0.478133488,-0.548478652,0.051454207,-0.683980834
805,2016717,1507360,0.48,-0.225,0.187,10.9,-52.8,-144.9,11.3,16.2,-24.5,0.476149785,-0.549333171,0.0490127262,-0.68489639
806,2019862,1507370,0.532,-0.128,0.213,24.5,-58.6,-151.3,11.3,16.2,-24.5,0.474257637,-0.550096133,0.0461745048,-0.685781426
807,2021250,1507370,0.544,-0.022,0.232,39.3,-64.1,-159.8,11,16.4,-24.5,0.472396008,-0.550828578,0.0430005799,-0.686696982
808,2024105,1507370,0.556,0.004,0.232,53.2,-69.5,-169.7,11,16.4,-24.5,0.470534379,-0.551469466,0.0394909513,-0.687643056
809,2027301,1507370,0.603,0.058,0.243,63.7,-74.1,-180,11,16.4,-24.5,0.46867275,-0.552079836,0.0356151006,-0.688650166
810,2028774,1507380,0.65,0.151,0.254,69.4,-77.4,-190.2,11,16.4,-24.5,0.466689047,-0.552659688,0.0314645833,-0.689718314
811,2031827,1507380,0.682,0.217,0.272,69.8,-79.1,-200.3,10.1,16.2,-25.3,0.46458327,-0.553270058,0.0271919919,-0.690847499
812,2034943,1507380,0.721,0.232,0.248,64.5,-79.2,-210.1,10.1,16.2,-25.3,0.462233345,-0.553941465,0.0228888821,-0.692037721
813,2036435,1507380,0.752,0.259,0.255,53.6,-78,-219.2,10.1,16.2,-25.3,0.459608753,-0.55467391,0.0186468093,-0.693319498
814,2039594,1507390,0.799,0.293,0.251,37.5,-75.7,-227.5,10.1,16.2,-25.3,0.456648457,-0.555528428,0.014557329,-0.694692831
815,2041707,1507390,0.814,0.265,0.227,17.1,-72.7,-235,9.1,16.4,-25.2,0.453291421,-0.556535539,0.0107119968,-0.69615772
816,2045020,1507390,0.826,0.285,0.242,-6,-69.2,-242.2,9.1,16.4,-25.2,0.449568163,-0.557695242,0.00720236824,-0.697683645
817,2046959,1507390,0.865,0.272,0.222,-31.6,-65.4,-249.2,9.1,16.4,-25.2,0.445387127,-0.559007538,0.00399792474,-0.699331645
818,2049306,1507400,0.881,0.244,0.21,-59.1,-61.9,-255.9,9.1,16.4,-25.2,0.440748314,-0.560563982,0.00119022187,-0.701040681
819,2052482,1507400,0.904,0.213,0.198,-88.3,-59,-261.5,8.8,17.5,-24,0.435682241,-0.562303537,-0.00122074038,-0.702810755
820,2054717,1507400,0.915,0.177,0.182,-118.3,-57,-265.5,8.8,17.5,-24,0.430127873,-0.56428724,-0.00320444349,-0.704641865
821,2056376,1507400,0.95,0.098,0.162,-147.5,-56,-268.1,8.8,17.5,-24,0.424176763,-0.566484573,-0.00476088748,-0.706442457
822,2059172,1507410,0.954,0.047,0.146,-147.5,-56,-268.1,8.8,17.5,-24,0.418195135,-0.568681906,-0.00631733146,-0.708243049
823,2062068,1507410,0.965,0.008,0.134,-174.6,-56.1,-269.2,7.7,17.6,-26.5,0.411877804,-0.571092868,-0.00747703482,-0.710013123
824,2064347,1507410,0.969,-0.018,0.13,-198.4,-57.3,-268.8,7.7,17.6,-26.5,0.40519425,-0.57371746,-0.00827051607,-0.711722159
825,2067457,1507410,1.02,-0.093,0.122,-218,-59.5,-267.2,7.7,17.6,-26.5,0.398297067,-0.576494644,-0.00872829371,-0.713370159
826,2068869,1507420,1.027,-0.137,0.118,-233.2,-62.1,-264.3,7.7,17.6,-26.5,0.391247291,-0.579424421,-0.00897244179,-0.714896084
827,2072719,1507420,1.066,-0.172,0.109,-244.5,-64.6,-260,6.8,17.8,-25.6,0.384075442,-0.582445753,-0.0090029603,-0.716330454
828,2074987,1507420,1.07,-0.227,0.109,-252.6,-66.3,-254.3,6.8,17.8,-25.6,0.376842555,-0.585528123,-0.00885036775,-0.71764275
829,2076501,1507420,1.085,-0.259,0.097,-258.5,-65.9,-247.2,6.8,17.8,-25.6,0.369609668,-0.588641011,-0.00848414563,-0.718863491
830,2078865,1507430,1.073,-0.306,0.094,-262.5,-62.8,-238.8,6.8,17.8,-25.6,0.362498856,-0.591662343,-0.00796533097,-0.719992676
831,2081941,1507430,1.1,-0.357,0.074,-264.9,-56.5,-229.7,5.9,19.1,-25.1,0.35544908,-0.59459212,-0.00720236824,-0.72112186
832,2084085,1507430,1.073,-0.395,0.078,-265.2,-47,-220.5,5.9,19.1,-25.1,0.348521378,-0.597338786,-0.00625629444,-0.722220527
833,2088148,1507430,1.061,-0.399,0.079,-262.8,-34.6,-212.1,5.9,19.1,-25.1,0.341746269,-0.599841304,-0.00512710959,-0.723410749
834,2090349,1507440,1.077,-0.419,0.094,-257.1,-20,-205.6,5.9,19.1,-25.1,0.335123753,-0.602038636,-0.00393688772,-0.724692526
835,2092463,1507440,1.065,-0.442,0.071,-236.6,9.6,-196,5.2,19.9,-24.1,0.328928495,-0.60359508,-0.00268562883,-0.72624897
836,2093862,1507440,1.053,-0.43,0.067,-236.6,9.6,-196,5.2,19.9,-24.1,0.322672201,-0.605090487,-0.00143436995,-0.727774895
837,2096823,1507440,1.049,-0.438,0.067,-223.4,21.8,-191.4,5.2,19.9,-24.1,0.316690573,-0.606311228,-0.000274666585,-0.729422895
838,2099974,1507450,1.034,-0.426,0.063,-209.4,31.7,-186.7,5.2,19.9,-24.1,0.310953093,-0.607226783,0.000793481246,-0.731101413
839,2101430,1507450,1.049,-0.415,0.071,-195,39.2,-182.3,4.5,23.4,-21.7,0.305429243,-0.607928709,0.00173955504,-0.732840968
840,2104493,1507450,1.069,-0.399,0.067,-181,44.3,-178.2,4.5,23.4,-21.7,0.300180059,-0.608417005,0.0025635548,-0.734611042
841,2106604,1507450,1.073,-0.372,0.078,-167.7,47.3,-175.2,4.5,23.4,-21.7,0.295144505,-0.608752709,0.003234962,-0.736381115
842,2109852,1507460,1.05,-0.352,0.083,-155.7,49,-173.6,4.5,23.4,-21.7,0.290292062,-0.608966338,0.00375377667,-0.73812067
843,2111282,1507460,1.038,-0.34,0.071,-145.7,50,-173.7,4.1,23,-22.3,0.285531175,-0.609088412,0.00411999878,-0.739860225
844,2114473,1507460,1.054,-0.337,0.071,-138.1,50.7,-174.7,4.1,23,-22.3,0.280861843,-0.609149449,0.00433362835,-0.74159978
845,2116714,1507460,1.081,-0.345,0.059,-133.1,50.4,-175.5,4.1,23,-22.3,0.276253548,-0.609149449,0.00445570238,-0.743339335
846,2119625,1507470,1.139,-0.354,0.034,-130.1,48.7,-175.5,4.1,23,-22.3,0.271675771,-0.609179968,0.0045167394,-0.745017853
847,2121291,1507470,1.163,-0.366,0.026,-129.2,46.1,-175,3.5,23.6,-21.9,0.267097995,-0.609179968,0.00457777642,-0.746635334
848,2124131,1507470,1.205,-0.386,0.009,-129.9,43.3,-175.4,3.5,23.6,-21.9,0.2624897,-0.609241005,0.00460829493,-0.748222297
849,2127091,1507470,1.217,-0.402,-0.006,-131.7,41.6,-177.5,3.5,23.6,-21.9,0.257850887,-0.60933256,0.00463881344,-0.749778741
850,2128765,1507480,1.291,-0.439,-0.023,-133.9,41.3,-181.6,3.5,23.6,-21.9,0.253089999,-0.609424116,0.00466933195,-0.751304666
851,2132136,1507480,1.326,-0.455,-0.027,-135.6,42.5,-187.2,3.4,23.9,-21.4,0.248207038,-0.609485153,0.00463881344,-0.752891629
852,2133776,1507480,1.346,-0.471,-0.023,-136.7,44.8,-193.5,3.4,23.9,-21.4,0.243202002,-0.609515671,0.00454725791,-0.75450911
853,2136625,1507480,1.342,-0.494,-0.023,-137.1,48.3,-199.6,3.4,23.9,-21.4,0.238074892,-0.609454634,0.00439466536,-0.756187628
854,2139925,1507490,1.318,-0.521,-0.011,-136.7,52.8,-204.7,3.4,23.9,-21.4,0.232886746,-0.609302042,0.00421155431,-0.757927183
855,2141998,1507490,1.306,-0.54,0.004,-132.4,62.2,-207.7,2.4,25.1,-20.9,0.227668081,-0.60893582,0.00393688772,-0.759788812
856,2144192,1507490,1.271,-0.567,0.02,-132.4,62.2,-207.7,2.4,25.1,-20.9,0.222449416,-0.608569597,0.00369273965,-0.761619922
857,2147157,1507490,1.205,-0.625,0.041,-127.9,65.4,-203.2,2.4,25.1,-20.9,0.217383343,-0.60811182,0.00344859157,-0.763451033
858,2149500,1507500,1.178,-0.64,0.061,-121.9,66.7,-194.2,2.4,25.1,-20.9,0.212500381,-0.607593005,0.00320444349,-0.765251625
859,2151258,1507500,1.143,-0.651,0.085,-113.9,65.9,-181.8,1.8,25.2,-20.2,0.207953124,-0.607043672,0.00302133244,-0.766960662
860,2154383,1507500,1.123,-0.654,0.101,-103.7,63.5,-168.4,1.8,25.2,-20.2,0.203772088,-0.606433302,0.00280770287,-0.768547624
861,2156694,1507500,1.057,-0.645,0.15,-91.5,60.1,-155.9,1.8,25.2,-20.2,0.199926756,-0.60585345,0.00253303629,-0.770012513
862,2159962,1507510,1.018,-0.636,0.17,-77.6,56.3,-146.1,1.8,25.2,-20.2,0.196447645,-0.60524308,0.00216681417,-0.771385846
863,2162132,1507510,0.971,-0.635,0.202,-63.1,52.2,-139.4,1.3,25.5,-19.8,0.193243202,-0.60463271,0.001617481,-0.772667623
864,2164270,1507510,0.913,-0.627,0.215,-48.9,47.7,-135.4,1.3,25.5,-19.8,0.190313425,-0.60402234,0.000854518265,-0.773857845
865,2167485,1507510,0.749,-0.651,0.226,-36.1,41.8,-133.1,1.3,25.5,-19.8,0.187597278,-0.603473006,-9.15555284e-05,-0.774956511
866,2169505,1507520,0.851,-0.493,0.235,-25.9,33.2,-131.9,1.3,25.5,-19.8,0.185033723,-0.603015229,-0.00125125889,-0.775933103
867,2171755,1507520,0.926,-0.329,0.277,-18.9,20.4,-131.9,0.5,25.9,-20.1,0.182531205,-0.602740562,-0.00259407331,-0.776726585
868,2175042,1507520,0.934,-0.302,0.335,-16.7,4.4,-134.2,0.5,25.9,-20.1,0.180059206,-0.602740562,-0.00405896176,-0.777336955
869,2177467,1507520,0.977,-0.303,0.342,-21.3,-11.5,-139.3,0.5,25.9,-20.1,0.177404096,-0.60298471,-0.00558488723,-0.777733695
870,2178980,1507530,1.086,-0.332,0.352,-32.6,-24.3,-146.8,0.5,25.9,-20.1,0.174474319,-0.603503525,-0.00704977569,-0.777977844
871,2181963,1507530,1.188,-0.357,0.358,-47.3,-32.6,-155.8,0.1,25.6,-19.5,0.171208838,-0.604205451,-0.00842310862,-0.778130436
872,2184162,1507530,1.325,-0.383,0.348,-59.5,-36.4,-164.1,0.1,25.6,-19.5,0.167607654,-0.60502945,-0.00970488601,-0.778283029
873,2188220,1507530,1.356,-0.379,0.359,-64.8,-34.8,-169.4,0.1,25.6,-19.5,0.163884396,-0.605822932,-0.0109561449,-0.778435621
874,2190396,1507540,1.368,-0.356,0.378,-62.3,-26.8,-170.5,0.1,25.6,-19.5,0.160161138,-0.606433302,-0.0122684408,-0.778710288
875,2192662,1507540,1.384,-0.344,0.397,-44.8,0.4,-162.5,-0.7,25.8,-20.3,0.156804102,-0.606555376,-0.0136417737,-0.779290139
876,2194695,1507540,1.364,-0.356,0.39,-44.8,0.4,-162.5,-0.7,25.8,-20.3,0.153447066,-0.606646931,-0.0150456252,-0.779869991
877,2196927,1507540,1.376,-0.34,0.378,-37.2,12.7,-156.3,-0.7,25.8,-20.3,0.150273141,-0.606494339,-0.0164189581,-0.780541398
878,2199192,1507550,1.403,-0.278,0.37,-33.1,20.4,-149.8,-0.7,25.8,-20.3,0.147312845,-0.606189154,-0.017792291,-0.78133488
879,2202547,1507550,1.415,-0.22,0.361,-32.1,23.5,-143,-1.3,25,-19.3,0.144444105,-0.605822932,-0.0190435499,-0.782097842
880,2204639,1507550,1.376,-0.223,0.35,-34.4,22.9,-135.7,-1.3,25,-19.3,0.141666921,-0.605487228,-0.0201422163,-0.782860805
881,2206988,1507550,1.313,-0.226,0.332,-39.6,20.7,-127.7,-1.3,25,-19.3,0.138981292,-0.605212561,-0.0211188086,-0.783532212
882,2209121,1507560,1.262,-0.198,0.313,-47,18,-119,-1.3,25,-19.3,0.136326182,-0.604968413,-0.0218512528,-0.784142582
883,2212286,1507560,1.173,-0.162,0.28,-54.8,15.6,-110.1,-1.3,25.9,-19.2,0.133732109,-0.604815821,-0.0223090304,-0.784691916
884,2214387,1507560,1.118,-0.137,0.253,-61.5,13.5,-101.8,-1.3,25.9,-19.2,0.131168554,-0.604724265,-0.0225531785,-0.78521073
885,2216420,1507560,1.083,-0.133,0.23,-66.8,11.8,-94.6,-1.3,25.9,-19.2,0.128696554,-0.604663228,-0.022583697,-0.785668508
886,2220325,1507570,1.074,-0.164,0.184,-70.5,10.9,-89.5,-1.3,25.9,-19.2,0.126194037,-0.60463271,-0.0225531785,-0.786095767
887,2222463,1507570,1.024,-0.144,0.169,-72.3,10.8,-86.5,-2.2,26.1,-19.1,0.123783074,-0.604602191,-0.0224311045,-0.786492508
888,2223970,1507570,0.965,-0.128,0.162,-71.2,12.4,-85.8,-2.2,26.1,-19.1,0.121372112,-0.604541154,-0.0223090304,-0.786950285
889,2226347,1507570,0.93,-0.123,0.151,-66.4,16.1,-87.1,-2.2,26.1,-19.1,0.119022187,-0.604388562,-0.0222785119,-0.787408063
890,2230078,1507580,0.922,-0.154,0.104,-59.1,21.2,-90.4,-2.2,26.1,-19.1,0.11670278,-0.604113895,-0.022400586,-0.787957396
891,2232315,1507580,0.953,-0.175,0.096,-50.7,25.7,-95.8,-2.8,26,-18.5,0.114352855,-0.603747673,-0.0227057711,-0.788567766
892,2234331,1507580,0.988,-0.179,0.103,-43.2,27.9,-103.2,-2.8,26,-18.5,0.112063967,-0.603350932,-0.0232856227,-0.789208655
893,2237588,1507580,1.027,-0.211,0.106,-36.8,27.3,-111.4,-2.8,26,-18.5,0.109653005,-0.602893155,-0.0240485855,-0.789849544
894,2239928,1507590,1.066,-0.251,0.117,-31.1,24.6,-119.2,-2.8,26,-18.5,0.107211524,-0.602496414,-0.0250251778,-0.790459914
895,2241950,1507590,1.074,-0.258,0.129,-19.4,18.2,-128.5,-3.5,25.8,-18.5,0.104739525,-0.602130192,-0.0263374737,-0.791009247
896,2244200,1507590,1.062,-0.274,0.125,-19.4,18.2,-128.5,-3.5,25.8,-18.5,0.102298044,-0.601794488,-0.0276497696,-0.79155858
897,2248116,1507590,1.031,-0.277,0.098,-13.5,16.8,-130.1,-3.5,25.8,-18.5,0.0998870815,-0.601458785,-0.029053621,-0.792077395
898,2250438,1507600,1.066,-0.219,0.121,-8.2,16.3,-130.8,-3.5,25.8,-18.5,0.0975066378,-0.601092563,-0.030610065,-0.792565691
899,2252572,1507600,1.133,-0.193,0.151,-3.8,15.8,-131.7,-2.7,25.2,-18.7,0.0951872311,-0.600756859,-0.032227546,-0.793053987
900,2253951,1507600,1.168,-0.17,0.178,-1.4,13.9,-132.3,-2.7,25.2,-18.7,0.0928678243,-0.600421155,-0.033906064,-0.793511765
901,2256876,1507600,1.172,-0.182,0.201,-2.2,11,-131.2,-2.7,25.2,-18.7,0.0906094546,-0.60011597,-0.035584582,-0.793939024
902,2259976,1507610,1.137,-0.165,0.206,-6.7,7.7,-127.2,-2.7,25.2,-18.7,0.0883205664,-0.599902341,-0.0371105075,-0.794274728
903,2261400,1507610,1.121,-0.165,0.198,-14.1,5.6,-120.5,-4.9,26.8,-18.5,0.0860316782,-0.59971923,-0.0384228034,-0.794610431
904,2264336,1507610,1.102,-0.161,0.207,-22.5,5,-112.7,-4.9,26.8,-18.5,0.083803827,-0.599597156,-0.0395214698,-0.794885098
905,2267564,1507610,1.106,-0.169,0.195,-30.3,5.7,-105.3,-4.9,26.8,-18.5,0.0815759758,-0.599444563,-0.040314951,-0.795190283
906,2269948,1507620,1.094,-0.153,0.203,-36.9,6.6,-99.5,-4.9,26.8,-18.5,0.0793786431,-0.599322489,-0.0409863582,-0.795495468
907,2271966,1507620,1.082,-0.141,0.203,-41.9,7.3,-95.5,-5.5,26.4,-18.7,0.0771813105,-0.599169897,-0.0415051729,-0.795770135
908,2275028,1507620,1.043,-0.133,0.196,-45.3,7.7,-92.9,-5.5,26.4,-18.7,0.0749839778,-0.599017304,-0.041932432,-0.79607532
909,2276431,1507620,1.035,-0.14,0.188,-48,8.1,-90.3,-5.5,26.4,-18.7,0.0727866451,-0.59889523,-0.0422681356,-0.796380505
910,2280365,1507630,1.012,-0.14,0.181,-50.8,8.6,-87.4,-5.5,26.4,-18.7,0.0706198309,-0.598742637,-0.0425122837,-0.79668569
911,2282566,1507630,0.989,-0.124,0.177,-54.2,9.2,-83.5,-5.5,26.1,-18.5,0.0684530168,-0.598559526,-0.0426343577,-0.796960356
912,2284968,1507630,0.973,-0.128,0.162,-58.4,9.4,-79.4,-5.5,26.1,-18.5,0.0663167211,-0.598406934,-0.0426343577,-0.797265542
913,2287001,1507630,0.961,-0.12,0.154,-63,8.9,-75.7,-5.5,26.1,-18.5,0.0641804254,-0.59828486,-0.0425122837,-0.797540208
914,2289230,1507640,0.977,-0.128,0.15,-68,7.7,-72.8,-5.5,26.1,-18.5,0.0620441298,-0.598162786,-0.0422681356,-0.797814875
915,2291672,1507640,0.977,-0.116,0.158,-78,3.9,-69.4,-5.8,26.1,-18.3,0.0600909452,-0.598498489,-0.0414136174,-0.797784356
916,2293876,1507640,0.977,-0.12,0.158,-78,3.9,-69.4,-5.8,26.1,-18.3,0.0578936125,-0.598467971,-0.0409558397,-0.797967467
917,2297593,1507640,0.981,-0.128,0.15,-82.7,2.2,-67.8,-5.8,26.1,-18.3,0.0556352428,-0.598467971,-0.040375988,-0.798181097
918,2299635,1507650,0.981,-0.124,0.15,-87.1,1.2,-65.8,-5.8,26.1,-18.3,0.0533768731,-0.598498489,-0.0397350993,-0.798333689
919,2301216,1507650,0.969,-0.12,0.15,-91.1,0.8,-63.3,-5,25.6,-17.7,0.0510574664,-0.598529008,-0.0389721366,-0.798486282
920,2304223,1507650,0.977,-0.136,0.146,-94.5,0.8,-60.6,-5,25.6,-17.7,0.0487685781,-0.598559526,-0.0381176183,-0.798669393
921,2307350,1507650,0.98,-0.151,0.146,-97.2,1,-58,-5,25.6,-17.7,0.0465102084,-0.598590045,-0.037141026,-0.798821986
922,2309424,1507660,0.965,-0.151,0.15,-99.2,1.2,-55.4,-5,25.6,-17.7,0.0442213202,-0.598620563,-0.0361644337,-0.798974578
923,2311630,1507660,0.957,-0.151,0.143,-100.4,1.5,-52.5,-5.9,26,-17.3,0.0420239875,-0.598620563,-0.0350962859,-0.799096652
924,2314908,1507660,0.934,-0.139,0.143,-101,1.9,-48.9,-5.9,26,-17.3,0.0398266549,-0.5986816,-0.033967101,-0.799249245
925,2316873,1507660,0.922,-0.15,0.136,-101.2,2.8,-44.9,-5.9,26,-17.3,0.0377208777,-0.5986816,-0.0327463607,-0.799401837
926,2320300,1507670,0.918,-0.158,0.132,-101.5,3.9,-41.1,-5.9,26,-17.3,0.0356761376,-0.598620563,-0.0315256203,-0.79955443
927,2322576,1507670,0.918,-0.158,0.132,-101.9,4.8,-38.1,-6.2,25.9,-16.7,0.0336924345,-0.598620563,-0.0302743614,-0.799737541
928,2324849,1507670,0.906,-0.15,0.14,-102.1,5.4,-36,-6.2,25.9,-16.7,0.0317392499,-0.598590045,-0.028931547,-0.799890133
929,2326917,1507670,0.898,-0.162,0.136,-102.3,5.6,-34.5,-6.2,25.9,-16.7,0.0297860652,-0.598529008,-0.0275887326,-0.800042726
930,2329238,1507680,0.875,-0.15,0.14,-102.5,5.6,-33.5,-6.2,25.9,-16.7,0.0278939177,-0.598467971,-0.0262459181,-0.800195318
931,2332414,1507680,0.875,-0.138,0.144,-103,5.6,-33,-6.2,26.2,-16.8,0.0259712516,-0.598406934,-0.0248725852,-0.800347911
932,2334480,1507680,0.891,-0.173,0.148,-104,5.1,-33.2,-6.2,26.2,-16.8,0.024018067,-0.598376415,-0.0234992523,-0.800500504
933,2336306,1507680,0.906,-0.205,0.144,-105.4,4.2,-34.3,-6.2,26.2,-16.8,0.0220648824,-0.598315378,-0.0220954009,-0.800622578
934,2340623,1507690,0.902,-0.228,0.16,-106.3,3.3,-35.5,-6.2,26.2,-16.8,0.0200201422,-0.598315378,-0.0207220679,-0.800714133
935,2342996,1507690,0.887,-0.236,0.175,-104.4,2.3,-35.4,-6.4,26.7,-15.9,0.0185552538,-0.598712119,-0.0186468093,-0.800500504
936,2345349,1507690,0.887,-0.236,0.175,-104.4,2.3,-35.4,-6.4,26.7,-15.9,0.0166020692,-0.5986816,-0.0172734764,-0.800592059
937,2347010,1507690,0.875,-0.255,0.18,-102.1,2.4,-33.4,-6.4,26.7,-15.9,0.0146794031,-0.5986816,-0.0159306619,-0.800683615
938,2349197,1507700,0.871,-0.255,0.176,-100.2,2.5,-30.6,-6.4,26.7,-15.9,0.0128482925,-0.598620563,-0.0145878475,-0.800744652
939,2353385,1507700,0.859,-0.258,0.18,-99.2,2.5,-27.6,-6.5,26.8,-15.6,0.0110782189,-0.598620563,-0.0132145146,-0.800805689
940,2355536,1507700,0.855,-0.258,0.176,-99.4,2.1,-24.8,-6.5,26.8,-15.6,0.0093386639,-0.598590045,-0.0117801447,-0.800866726
941,2357795,1507700,0.859,-0.262,0.184,-100.1,1.4,-22.3,-6.5,26.8,-15.6,0.00762962737,-0.598590045,-0.0103457747,-0.800927763
942,2359504,1507710,0.859,-0.258,0.192,-100.7,0.7,-19.8,-6.5,26.8,-15.6,0.00598162786,-0.598590045,-0.00881984924,-0.800958281
943,2362040,1507710,0.867,-0.266,0.192,-100.8,0.1,-17.3,-6.2,27,-15.5,0.00436414686,-0.598590045,-0.00729392376,-0.8009888
944,2364441,1507710,0.867,-0.266,0.199,-100.1,-0.2,-14.9,-6.2,27,-15.5,0.00277718436,-0.598590045,-0.00573747978,-0.8009888
945,2366733,1507710,0.879,-0.274,0.199,-98.9,-0.3,-12.5,-6.2,27,-15.5,0.0012817774,-0.598620563,-0.0041810358,-0.8009888
946,2369229,1507720,0.879,-0.282,0.199,-97.4,-0.3,-10,-6.2,27,-15.5,0.000152592547,0.598620563,0.00259407331,0.8009888
947,2371492,1507720,0.875,-0.282,0.199,-95.8,-0.1,-7.7,-6.4,27.1,-15.2,0.00152592547,0.598620563,0.00103762932,0.801019318
948,2375516,1507720,0.871,-0.282,0.199,-94.1,-0.1,-5.5,-6.4,27.1,-15.2,0.00286873989,0.598620563,-0.000518814661,0.8009888
949,2377685,1507720,0.875,-0.29,0.203,-92.3,-0.2,-3.4,-6.4,27.1,-15.2,0.00411999878,0.598620563,-0.00207525864,0.8009888
950,2379922,1507730,0.871,-0.294,0.199,-90.5,-0.5,-1.3,-6.4,27.1,-15.2,0.00534073916,0.598620563,-0.00363170263,0.8009888
951,2381487,1507730,0.875,-0.294,0.195,-88.7,-0.8,0.5,-6.2,27.4,-14.7,0.00646992401,0.598620563,-0.00518814661,0.800958281
952,2384414,1507730,0.886,-0.31,0.195,-87.1,-1.2,2.3,-6.2,27.4,-14.7,0.00756859035,0.598620563,-0.00674459059,0.800927763
953,2386669,1507730,0.89,-0.31,0.199,-85.5,-1.6,4,-6.2,27.4,-14.7,0.00863673818,0.598620563,-0.00830103458,0.800897244
954,2389748,1507740,0.894,-0.31,0.207,-83.6,-2.1,5.7,-6.2,27.4,-14.7,0.00961333048,0.598620563,-0.00982696005,0.800866726
955,2392513,1507740,0.902,-0.318,0.214,-78.8,-2.9,9,-6.3,27.3,-14,0.00888088626,0.599078341,-0.0134586627,0.800500504
956,2393925,1507740,0.906,-0.326,0.214,-78.8,-2.9,9,-6.3,27.3,-14,0.00976592303,0.59910886,-0.0149540696,0.800439467
957,2396992,1507740,0.918,-0.322,0.226,-76,-3.3,10.6,-6.3,27.3,-14,0.0105594043,0.599139378,-0.0164189581,0.80037843
958,2399156,1507750,0.918,-0.318,0.222,-73.2,-3.7,12.2,-6.3,27.3,-14,0.011322367,0.599200415,-0.0178838466,0.800286874
959,2402400,1507750,0.93,-0.314,0.226,-70.7,-4,13.7,-7.2,27.6,-13.6,0.0119937742,0.599230934,-0.019287698,0.800225837
960,2403759,1507750,0.934,-0.318,0.23,-68.4,-4.1,15.2,-7.2,27.6,-13.6,0.0126346629,0.599291971,-0.0206915494,0.800134281
961,2406828,1507750,0.934,-0.322,0.233,-66.4,-4.2,16.6,-7.2,27.6,-13.6,0.0131839961,0.599322489,-0.0220648824,0.800042726
962,2410020,1507760,0.937,-0.318,0.233,-64.5,-4.2,18.1,-7.2,27.6,-13.6,0.0137333293,0.599383526,-0.0234382153,0.799981689
963,2411352,1507760,0.941,-0.314,0.237,-62.8,-4.3,19.4,-6,28.1,-13.8,0.0141911069,0.599414045,-0.0247810297,0.799890133
964,2414435,1507760,0.937,-0.318,0.241,-61.3,-4.1,20.9,-6,28.1,-13.8,0.0146488845,0.599475082,-0.0261238441,0.799798578
965,2417458,1507760,0.937,-0.314,0.241,-59.8,-3.9,22.3,-6,28.1,-13.8,0.0150151067,0.5995056,-0.0274666585,0.799737541
966,2418959,1507770,0.941,-0.31,0.249,-58.4,-3.8,23.6,-6,28.1,-13.8,0.0153813288,0.599536119,-0.0288094729,0.799645985
967,2421866,1507770,0.941,-0.306,0.249,-57.2,-3.8,24.7,-5.8,28.2,-13.2,0.0156865139,0.599566637,-0.0301217689,0.799584948
968,2425024,1507770,0.941,-0.31,0.249,-56,-3.8,25.9,-5.8,28.2,-13.2,0.0159611805,0.599597156,-0.0314340648,0.799493393
969,2426677,1507770,0.945,-0.307,0.245,-54.9,-3.7,27,-5.8,28.2,-13.2,0.0162053285,0.599627674,-0.0327463607,0.799401837
970,2428986,1507780,0.945,-0.306,0.249,-53.8,-3.6,28.2,-5.8,28.2,-13.2,0.0164189581,0.599658193,-0.0340586566,0.7993408
971,2432466,1507780,0.941,-0.306,0.249,-52.5,-3.5,29.2,-5.5,28.2,-13.2,0.0166020692,0.599688711,-0.0353709525,0.799249245
972,2433935,1507780,0.941,-0.306,0.253,-51.3,-3.5,29.9,-5.5,28.2,-13.2,0.0167241432,0.599688711,-0.0366527299,0.799188208
973,2437213,1507780,0.941,-0.306,0.245,-49.9,-3.6,30.6,-5.5,28.2,-13.2,0.0168462172,0.59971923,-0.0379345073,0.799096652
974,2441046,1507790,0.941,-0.303,0.245,-48.4,-3.7,31.3,-5.5,28.2,-13.2,0.0169377728,0.599749748,-0.0391857662,0.799035615
975,2442799,1507790,0.938,-0.295,0.245,-45.9,-4.1,32.9,-5.6,28.4,-12.6,0.0160832545,0.599810785,-0.0415967284,0.798883023
976,2444080,1507790,0.938,-0.295,0.245,-45.9,-4.1,32.9,-5.6,28.4,-12.6,0.016113773,0.599841304,-0.0428174688,0.798791467
977,2447320,1507790,0.934,-0.287,0.245,-44.6,-4.3,33.4,-5.6,28.4,-12.6,0.016113773,0.599871822,-0.0440382092,0.798699911
978,2450611,1507800,0.934,-0.291,0.241,-43.4,-4.6,34,-5.6,28.4,-12.6,0.0160832545,0.599902341,-0.0452589496,0.798608356
979,2452692,1507800,0.941,-0.287,0.241,-41.9,-4.8,34.3,-6.8,28.5,-12.7,0.015991699,0.599932859,-0.0464186529,0.7985168
980,2454539,1507800,0.938,-0.287,0.249,-40.3,-5.1,34.5,-6.8,28.5,-12.7,0.0159306619,0.599963378,-0.0475783563,0.798425245
981,2456669,1507800,0.941,-0.287,0.237,-38.4,-5.3,34.7,-6.8,28.5,-12.7,0.0158391064,0.600024415,-0.0487075411,0.798333689
982,2459912,1507810,0.934,-0.279,0.245,-36.3,-5.4,34.9,-6.8,28.5,-12.7,0.0156865139,0.600054933,-0.0498062075,0.798211615
983,2461446,1507810,0.926,-0.275,0.249,-34,-5.4,35.2,-5.2,28.5,-12.8,0.0155339213,0.60011597,-0.0508743553,0.79812006
984,2465023,1507810,0.93,-0.271,0.249,-31.6,-5.6,35.5,-5.2,28.5,-12.8,0.0153202918,0.600146489,-0.0518814661,0.798028504
985,2466437,1507810,0.938,-0.267,0.249,-29.5,-6.1,35.7,-5.2,28.5,-12.8,0.0150761437,0.600207526,-0.0528580584,0.797936949
986,2469423,1507820,0.938,-0.263,0.253,-27.6,-6.8,35.6,-5.2,28.5,-12.8,0.0148014771,0.600268563,-0.0538041322,0.797814875
987,2471584,1507820,0.938,-0.259,0.257,-25.8,-7.5,35.5,-5,28.8,-12.5,0.014496292,0.600360118,-0.0547196875,0.797692801
988,2473862,1507820,0.938,-0.252,0.261,-23.9,-7.9,35.4,-5,28.8,-12.5,0.0141911069,0.600451674,-0.0556352428,0.797570727
989,2477832,1507820,0.942,-0.244,0.265,-22.1,-8,35.3,-5,28.8,-12.5,0.0138554033,0.600543229,-0.056428724,0.797448653
990,2479930,1507830,0.946,-0.24,0.268,-20.3,-7.9,35.3,-5,28.8,-12.5,0.0134891812,0.600634785,-0.0572832423,0.797326579
991,2482162,1507830,0.95,-0.232,0.268,-18.7,-7.8,35.3,-5,28.7,-12.4,0.0131229591,0.600695822,-0.0580767235,0.797204505
992,2483821,1507830,0.957,-0.228,0.268,-17.3,-7.7,35.3,-5,28.7,-12.4,0.0127262185,0.600787378,-0.0588396863,0.797112949
993,2486885,1507830,0.961,-0.213,0.276,-16.1,-7.6,35.1,-5,28.7,-12.4,0.0123294778,0.600878933,-0.059602649,0.796990875
994,2488955,1507840,0.965,-0.213,0.28,-15,-7.5,34.9,-5,28.7,-12.4,0.0119022187,0.600970489,-0.0603045747,0.796868801
995,2492541,1507840,0.973,-0.201,0.276,-13,-6.8,34.8,-5.1,28.9,-12.2,0.0103152562,0.600878933,-0.0625019074,0.796777245
996,2494432,1507840,0.973,-0.201,0.276,-13,-6.8,34.8,-5.1,28.9,-12.2,0.00985747856,0.600970489,-0.0631733146,0.79668569
