sample_index,elapsed_us,device_time_ms,acc_x_g,acc_y_g,acc_z_g,gyro_x_dps,gyro_y_dps,gyro_z_dps,mag_x_ut,mag_y_ut,mag_z_ut,quat_w,quat_x,quat_y,quat_z
0,4049,659920,0.988,0.036,-0.022,0,0,0,-33.8,6.1,26.6,0.174596393,0.699270608,-0.151371807,0.676442763
1,6241,659920,0.988,0.04,-0.03,0,0.1,0,-33.8,6.1,26.6,0.174596393,0.699270608,-0.151371807,0.676442763
2,8405,659920,0.981,0.036,-0.018,0,0.2,0,-33.8,6.1,26.6,0.174596393,0.699270608,-0.151371807,0.676442763
3,10646,659930,0.988,0.04,-0.018,0,0.1,0,-34,6.2,26.7,0.174596393,0.699270608,-0.151371807,0.676442763
4,13115,659930,0.988,0.036,-0.026,0,0,0,-34,6.2,26.7,0.174596393,0.699270608,-0.151371807,0.676442763
5,16693,659930,0.985,0.04,-0.022,0,-0.1,0,-34,6.2,26.7,0.174596393,0.699270608,-0.151371807,0.676442763
6,18104,659930,0.985,0.04,-0.022,0,0,0,-34,6.2,26.7,0.174596393,0.699270608,-0.151371807,0.676442763
7,21129,659940,0.985,0.04,-0.022,0,0,0,-34,6.2,26.7,0.174596393,0.699270608,-0.151371807,0.676442763
8,23384,659940,0.985,0.04,-0.026,0.1,0.1,0.2,-33.7,6.1,27.1,0.174596393,0.699270608,-0.151371807,0.676442763
9,25619,659940,0.988,0.04,-0.026,0.1,0.1,0.2,-33.7,6.1,27.1,0.174596393,0.699270608,-0.151371807,0.676442763
10,28048,659940,0.985,0.04,-0.022,0.1,0.1,0.1,-33.7,6.1,27.1,0.174565874,0.699270608,-0.151371807,0.676442763
11,31574,659950,0.985,0.04,-0.026,0,0.1,0,-35.7,6.2,26.9,0.174565874,0.699270608,-0.151371807,0.676442763
12,33088,659950,0.985,0.036,-0.018,0,0,0,-35.7,6.2,26.9,0.174565874,0.699270608,-0.151371807,0.676442763
13,35510,659950,0.985,0.04,-0.022,0,0,0,-35.7,6.2,26.9,0.174565874,0.699270608,-0.151371807,0.676442763
14,38345,659950,0.985,0.04,-0.026,0,0,0,-35.7,6.2,26.9,0.174565874,0.699270608,-0.151371807,0.676442763
15,40603,659960,0.985,0.04,-0.022,0,0,0,-34.2,6,26.6,0.174565874,0.699270608,-0.151371807,0.676442763
16,42913,659960,0.988,0.036,-0.03,0,0,0,-34.2,6,26.6,0.174565874,0.699270608,-0.151371807,0.676442763
17,46430,659960,0.988,0.036,-0.026,0,0,0,-34.2,6,26.6,0.174565874,0.699270608,-0.151371807,0.676442763
18,47986,659960,0.988,0.04,-0.022,0,0,0,-34.2,6,26.6,0.174565874,0.699270608,-0.151371807,0.676442763
19,50912,659970,0.985,0.04,-0.022,0,0,0,-34,6,26.7,0.174565874,0.699270608,-0.151371807,0.676442763
20,53933,659970,0.988,0.04,-0.026,0.1,0,0,-34,6,26.7,0.174565874,0.699270608,-0.151371807,0.676442763
21,56042,659970,0.988,0.036,-0.026,0,0,0,-34,6,26.7,0.174565874,0.699270608,-0.151371807,0.676442763
22,58808,659970,0.981,0.036,-0.022,0,0,0,-34,6,26.7,0.174565874,0.699270608,-0.151371807,0.676442763
23,60568,659980,0.981,0.04,-0.022,0,0,0,-34.1,5.9,26.6,0.174565874,0.699270608,-0.151371807,0.676442763
24,63258,659980,0.985,0.036,-0.022,0,-0.1,0,-34.1,5.9,26.6,0.174565874,0.699270608,-0.151371807,0.676442763
25,65467,659980,0.981,0.04,-0.026,0,-0.1,0,-34.1,5.9,26.6,0.174565874,0.699270608,-0.151371807,0.676442763
26,67998,659980,0.988,0.04,-0.018,0,-0.1,-0.1,-34.1,5.9,26.6,0.174596393,0.699270608,-0.151371807,0.676442763
27,70497,659990,0.988,0.04,-0.018,0,-0.1,-0.1,-34.1,5.9,26.6,0.174596393,0.699270608,-0.151371807,0.676442763
28,74614,659990,0.985,0.04,-0.026,0,-0.1,0.1,-33.8,6.1,26.5,0.174596393,0.699270608,-0.151371807,0.676442763
29,77041,659990,0.992,0.036,-0.022,0,0,0.2,-33.8,6.1,26.5,0.174596393,0.699270608,-0.151371807,0.676442763
30,79109,659990,0.988,0.036,-0.022,0,0,0.2,-33.8,6.1,26.5,0.174596393,0.699270608,-0.151371807,0.676442763
31,82192,660000,0.988,0.044,-0.026,-0.1,0.1,0.2,-34.7,6,26.9,0.174596393,0.699270608,-0.151371807,0.676442763
32,84303,660000,0.985,0.036,-0.022,0,0.1,0.2,-34.7,6,26.9,0.174596393,0.699270608,-0.151371807,0.676442763
33,86589,660000,0.985,0.036,-0.026,0,0,0,-34.7,6,26.9,0.174596393,0.699270608,-0.151371807,0.676442763
34,88178,660000,0.988,0.04,-0.022,0,-0.1,0,-34.7,6,26.9,0.174596393,0.699270608,-0.151371807,0.676442763
35,90589,660010,0.988,0.04,-0.018,0,-0.2,-0.1,-34.7,6,27,0.174596393,0.699270608,-0.151371807,0.676442763
36,92978,660010,0.981,0.036,-0.018,0,-0.1,0,-34.7,6,27,0.174596393,0.699270608,-0.151371807,0.676442763
37,95696,660010,0.985,0.04,-0.026,0,0,0,-34.7,6,27,0.174596393,0.699270608,-0.151371807,0.676442763
38,98067,660010,0.985,0.036,-0.022,0,0,0,-34.7,6,27,0.174596393,0.699270608,-0.151371807,0.676442763
39,100865,660020,0.981,0.036,-0.022,0,0,0,-35,5.9,27.4,0.174596393,0.699270608,-0.151371807,0.676442763
40,103187,660020,0.985,0.04,-0.03,0,0,0,-35,5.9,27.4,0.174596393,0.699270608,-0.151371807,0.676442763
41,105614,660020,0.985,0.036,-0.026,-0.1,0,0,-35,5.9,27.4,0.174596393,0.699270608,-0.151371807,0.676442763
42,109008,660020,0.981,0.04,-0.022,0,-0.1,0,-35,5.9,27.4,0.174596393,0.699270608,-0.151371807,0.676442763
43,111292,660030,0.988,0.04,-0.018,0,-0.2,0,-34.7,6.2,27.6,0.174596393,0.699270608,-0.151371807,0.676442763
44,113483,660030,0.992,0.04,-0.022,0,-0.3,0,-34.7,6.2,27.6,0.174596393,0.699270608,-0.151371807,0.676412244
45,115889,660030,0.988,0.04,-0.026,0,-0.3,0,-34.7,6.2,27.6,0.174596393,0.699301126,-0.151371807,0.676412244
46,118069,660030,0.988,0.044,-0.03,0,-0.1,0,-34.7,6.2,27.6,0.174596393,0.699301126,-0.151402326,0.676412244
47,120601,660040,0.988,0.044,-0.03,0,-0.1,0,-34.7,6.2,27.6,0.174596393,0.699301126,-0.151402326,0.676412244
48,122967,660040,0.988,0.036,-0.026,-0.1,0.1,0,-34.7,5.9,28.5,0.174626911,0.699301126,-0.151371807,0.676412244
49,126267,660040,0.985,0.04,-0.022,0,0.2,0,-34.7,5.9,28.5,0.174626911,0.699301126,-0.151371807,0.676412244
50,128575,660040,0.985,0.04,-0.018,0,0.1,0,-34.7,5.9,28.5,0.174626911,0.699301126,-0.151371807,0.676412244
51,130783,660050,0.985,0.04,-0.026,0,0.1,0,-34.9,6.2,25.5,0.174626911,0.699301126,-0.151371807,0.676412244
52,133070,660050,0.985,0.04,-0.022,0,0.1,0,-34.9,6.2,25.5,0.174626911,0.699301126,-0.151371807,0.676412244
53,135498,660050,0.981,0.04,-0.018,0,0.1,0,-34.9,6.2,25.5,0.174626911,0.699270608,-0.151371807,0.676412244
54,137996,660050,0.988,0.04,-0.022,0,0,0,-34.9,6.2,25.5,0.174626911,0.699270608,-0.151371807,0.676412244
55,140658,660060,0.985,0.036,-0.018,0,-0.1,0,-34.6,6.2,27.6,0.174626911,0.699301126,-0.151371807,0.676412244
56,143700,660060,0.988,0.04,-0.022,0,-0.3,0,-34.6,6.2,27.6,0.174626911,0.699301126,-0.151371807,0.676412244
57,145982,660060,0.985,0.04,-0.026,0,-0.2,0,-34.6,6.2,27.6,0.174626911,0.699301126,-0.151371807,0.676412244
58,148148,660060,0.985,0.044,-0.03,0.1,-0.1,0,-34.6,6.2,27.6,0.174626911,0.699301126,-0.151371807,0.676412244
59,150926,660070,0.985,0.036,-0.03,0.1,0,0,-34.6,6.5,27.6,0.174626911,0.699301126,-0.151371807,0.676412244
60,153023,660070,0.988,0.04,-0.026,0.1,0,0,-34.6,6.5,27.6,0.174626911,0.699301126,-0.151371807,0.676412244
61,157200,660070,0.988,0.04,-0.03,0,0,0,-34.6,6.5,27.6,0.174626911,0.699301126,-0.151371807,0.676412244
62,158024,660070,0.988,0.04,-0.022,0,0,0,-34.6,6.5,27.6,0.174626911,0.699301126,-0.151371807,0.676412244
63,160623,660080,0.985,0.04,-0.026,0,0.1,0,-34.5,6.5,27.7,0.174626911,0.699301126,-0.151371807,0.676412244
64,163692,660080,0.985,0.036,-0.022,0,0.1,0,-34.5,6.5,27.7,0.174626911,0.699301126,-0.151371807,0.676412244
65,165990,660080,0.985,0.04,-0.018,0,0.2,0.1,-34.5,6.5,27.7,0.174626911,0.699301126,-0.151371807,0.676412244
66,168210,660080,0.985,0.036,-0.026,-0.1,0.1,0,-34.5,6.5,27.7,0.174626911,0.699270608,-0.151371807,0.676412244
67,171305,660090,0.985,0.036,-0.026,-0.1,0.1,0,-34.5,6.5,27.7,0.174626911,0.699270608,-0.151371807,0.676412244
68,173614,660090,0.985,0.04,-0.026,-0.1,0,0,-35,6.2,27.2,0.174626911,0.699270608,-0.151371807,0.676412244
69,175799,660090,0.988,0.04,-0.022,0,-0.1,0,-35,6.2,27.2,0.174626911,0.699270608,-0.151371807,0.676412244
70,178093,660090,0.988,0.036,-0.026,0.1,0,0,-35,6.2,27.2,0.174626911,0.699270608,-0.151371807,0.676412244
71,180435,660100,0.985,0.04,-0.018,0.1,0,0,-34.9,6.2,25.7,0.174626911,0.699301126,-0.151371807,0.676412244
72,182921,660100,0.988,0.04,-0.026,0,0.1,0,-34.9,6.2,25.7,0.174626911,0.699270608,-0.151371807,0.676412244
73,185554,660100,0.985,0.04,-0.026,0,0.1,-0.1,-34.9,6.2,25.7,0.174626911,0.699270608,-0.151371807,0.676412244
74,188616,660100,0.985,0.036,-0.014,0,0.2,-0.1,-34.9,6.2,25.7,0.174626911,0.699270608,-0.151371807,0.676412244
75,190875,660110,0.985,0.036,-0.03,0,0.1,-0.1,-34.7,6.1,26.6,0.174626911,0.699270608,-0.151371807,0.676412244
76,193076,660110,0.985,0.036,-0.03,0,0.1,0,-34.7,6.1,26.6,0.174626911,0.699270608,-0.151371807,0.676412244
77,196123,660110,0.985,0.036,-0.026,0,0,0,-34.7,6.1,26.6,0.174626911,0.699270608,-0.151371807,0.676442763
78,198565,660110,0.985,0.04,-0.022,0,0.1,0,-34.7,6.1,26.6,0.174626911,0.699270608,-0.151371807,0.676442763
79,200622,660120,0.985,0.04,-0.026,0,0.1,0,-34.3,6.3,25.9,0.174626911,0.699270608,-0.151371807,0.676442763
80,203558,660120,0.985,0.036,-0.026,0,0.1,0,-34.3,6.3,25.9,0.174626911,0.699270608,-0.151371807,0.676442763
81,206555,660120,0.988,0.036,-0.022,0,0,0,-34.3,6.3,25.9,0.174626911,0.699270608,-0.151371807,0.676442763
82,208116,660120,0.985,0.036,-0.022,0,0,0,-34.3,6.3,25.9,0.174626911,0.699270608,-0.151371807,0.676442763
83,211507,660130,0.985,0.036,-0.026,0,0.1,0,-34.7,6,25.9,0.174626911,0.699270608,-0.151371807,0.676442763
84,213073,660130,0.988,0.04,-0.026,0,0.2,0,-34.7,6,25.9,0.17465743,0.699270608,-0.151371807,0.676442763
85,216069,660130,0.988,0.036,-0.026,0,0.2,0,-34.7,6,25.9,0.17465743,0.699270608,-0.151371807,0.676442763
86,218314,660130,0.988,0.036,-0.014,0,0.1,0,-34.7,6,25.9,0.17465743,0.699240089,-0.151371807,0.676442763
87,220574,660140,0.988,0.036,-0.014,0,0.1,0,-34.7,6,25.9,0.17465743,0.699240089,-0.151371807,0.676442763
88,223261,660140,0.985,0.036,-0.026,0,0,0,-34.5,6,25.7,0.174626911,0.699240089,-0.151371807,0.676442763
89,225446,660140,0.985,0.036,-0.022,0,-0.1,0,-34.5,6,25.7,0.174626911,0.699240089,-0.151371807,0.676442763
90,229716,660140,0.985,0.044,-0.022,0,-0.1,0,-34.5,6,25.7,0.174626911,0.699240089,-0.151371807,0.676442763
91,231488,660150,0.985,0.032,-0.026,0,0,0,-35.1,6.1,27.2,0.174626911,0.699270608,-0.151371807,0.676442763
92,233112,660150,0.988,0.04,-0.022,0,0,0,-35.1,6.1,27.2,0.174626911,0.699270608,-0.151371807,0.676442763
93,235596,660150,0.981,0.036,-0.022,0,0,0,-35.1,6.1,27.2,0.174626911,0.699270608,-0.151371807,0.676442763
94,237950,660150,0.981,0.04,-0.026,0.1,0,0,-35.1,6.1,27.2,0.174626911,0.699270608,-0.151371807,0.676442763
95,242134,660160,0.985,0.04,-0.026,0,0,0,-35.2,6,26.3,0.174626911,0.699270608,-0.151371807,0.676442763
96,243813,660160,0.985,0.04,-0.022,0,0,0,-35.2,6,26.3,0.174626911,0.699270608,-0.151371807,0.676442763
97,245544,660160,0.985,0.04,-0.026,0,0,0,-35.2,6,26.3,0.174626911,0.699270608,-0.151371807,0.676442763
98,249034,660160,0.985,0.04,-0.026,0,-0.1,0,-35.2,6,26.3,0.174626911,0.699270608,-0.151371807,0.676442763
99,250459,660170,0.985,0.04,-0.022,0,-0.2,0,-35.2,5.5,26.2,0.174626911,0.699270608,-0.151371807,0.676442763
100,253484,660170,0.985,0.036,-0.018,0,-0.3,0,-35.2,5.5,26.2,0.174626911,0.699270608,-0.151371807,0.676442763
101,255442,660170,0.992,0.04,-0.018,0,-0.4,0,-35.2,5.5,26.2,0.174626911,0.699270608,-0.151371807,0.676412244
102,258963,660170,0.992,0.036,-0.022,0,-0.3,0,-35.2,5.5,26.2,0.174626911,0.699270608,-0.151371807,0.676412244
103,261153,660180,0.988,0.04,-0.03,0,-0.1,0,-34.9,5,26.1,0.174626911,0.699270608,-0.151371807,0.676412244
104,263355,660180,0.988,0.04,-0.022,-0.1,0,0,-34.9,5,26.1,0.174626911,0.699270608,-0.151371807,0.676412244
105,265702,660180,0.985,0.036,-0.022,-0.1,0,0,-34.9,5,26.1,0.174626911,0.699270608,-0.151371807,0.676412244
106,268266,660180,0.985,0.036,-0.022,-0.1,0,0,-34.9,5,26.1,0.174626911,0.699270608,-0.151371807,0.676412244
107,270509,660190,0.985,0.036,-0.022,-0.1,0,0,-34.9,5,26.1,0.174626911,0.699270608,-0.151371807,0.676412244
108,273844,660190,0.985,0.036,-0.022,0,0,0,-34.8,4.1,26.5,0.174626911,0.699301126,-0.151402326,0.676412244
109,276084,660190,0.985,0.04,-0.022,0,0,0,-34.8,4.1,26.5,0.174626911,0.699301126,-0.151402326,0.676412244
110,278451,660190,0.985,0.036,-0.022,0,0,0,-34.8,4.1,26.5,0.174626911,0.699270608,-0.151402326,0.676412244
111,280669,660200,0.985,0.04,-0.022,0,0,0,-34.7,7.5,27.9,0.174626911,0.699270608,-0.151402326,0.676412244
112,282903,660200,0.985,0.04,-0.022,0,0,0,-34.7,7.5,27.9,0.174626911,0.699270608,-0.151402326,0.676412244
113,286146,660200,0.985,0.036,-0.03,0,-0.1,0,-34.7,7.5,27.9,0.174626911,0.699270608,-0.151402326,0.676412244
114,287996,660200,0.981,0.036,-0.022,0,-0.2,0,-34.7,7.5,27.9,0.174626911,0.699301126,-0.151402326,0.676412244
115,290858,660210,0.985,0.04,-0.022,0,-0.1,0,-35.1,5,25.7,0.174626911,0.699301126,-0.151402326,0.676412244
116,293067,660210,0.985,0.04,-0.03,0,-0.1,0,-35.1,5,25.7,0.174626911,0.699301126,-0.151402326,0.676412244
117,295581,660210,0.988,0.04,-0.022,0.1,0,0,-35.1,5,25.7,0.174626911,0.699301126,-0.151402326,0.676412244
118,299033,660210,0.988,0.04,-0.026,0.1,0,0,-35.1,5,25.7,0.174626911,0.699301126,-0.151402326,0.676412244
119,300499,660220,0.985,0.036,-0.026,0.1,0,0,-34.8,5.2,25.8,0.174626911,0.699301126,-0.151402326,0.676412244
120,303466,660220,0.988,0.036,-0.03,0,0,0,-34.8,5.2,25.8,0.174596393,0.699301126,-0.151402326,0.676412244
121,306485,660220,0.988,0.036,-0.022,0,0,0.1,-34.8,5.2,25.8,0.174596393,0.699301126,-0.151402326,0.676412244
122,308060,660220,0.981,0.036,-0.026,0,0,0.1,-34.8,5.2,25.8,0.174596393,0.699301126,-0.151402326,0.676412244
123,311259,660230,0.988,0.04,-0.026,0,0,0.1,-35.2,5,25.7,0.174596393,0.699301126,-0.151402326,0.676412244
124,313487,660230,0.985,0.036,-0.03,0,0,0,-35.2,5,25.7,0.174596393,0.699301126,-0.151402326,0.676412244
125,316419,660230,0.988,0.036,-0.022,0,0,0,-35.2,5,25.7,0.174596393,0.699301126,-0.151402326,0.676412244
126,317999,660230,0.985,0.04,-0.022,0,0,-0.1,-35.2,5,25.7,0.174626911,0.699301126,-0.151402326,0.676412244
127,321054,660240,0.985,0.04,-0.022,0,0,-0.1,-35.2,5,25.7,0.174626911,0.699301126,-0.151402326,0.676412244
128,324075,660240,0.988,0.04,-0.03,0,0,0,-34.5,5.7,26.1,0.174596393,0.699301126,-0.151402326,0.676381726
129,325578,660240,0.985,0.036,-0.018,-0.1,-0.1,0.1,-34.5,5.7,26.1,0.174596393,0.699301126,-0.151432844,0.676381726
130,328637,660240,0.985,0.04,-0.022,0,0,0.1,-34.5,5.7,26.1,0.174596393,0.699301126,-0.151432844,0.676381726
131,330896,660250,0.988,0.04,-0.018,0,0,0.1,-35,7.1,26.8,0.174596393,0.699301126,-0.151432844,0.676381726
132,333104,660250,0.988,0.04,-0.026,0,0.1,0,-35,7.1,26.8,0.174596393,0.699301126,-0.151432844,0.676381726
133,335595,660250,0.988,0.036,-0.022,0,0.1,0,-35,7.1,26.8,0.174596393,0.699301126,-0.151432844,0.676381726
134,337893,660250,0.988,0.036,-0.018,0,0.1,0,-35,7.1,26.8,0.174596393,0.699301126,-0.151432844,0.676381726
135,341435,660260,0.985,0.04,-0.022,0,0,0,-34.6,6.5,26.8,0.174596393,0.699301126,-0.151432844,0.676381726
136,343088,660260,0.985,0.036,-0.022,0.1,0,0,-34.6,6.5,26.8,0.174596393,0.699301126,-0.151432844,0.676381726
137,345461,660260,0.985,0.036,-0.022,0.1,-0.1,0,-34.6,6.5,26.8,0.174596393,0.699301126,-0.151432844,0.676381726
138,349758,660260,0.985,0.036,-0.022,0.1,-0.1,0,-34.6,6.5,26.8,0.174596393,0.699301126,-0.151432844,0.676381726
139,351408,660270,0.985,0.04,-0.022,0,0,0,-34.5,6.8,26.7,0.174596393,0.699301126,-0.151432844,0.676381726
140,353065,660270,0.985,0.036,-0.026,0,0,0,-34.5,6.8,26.7,0.174596393,0.699301126,-0.151432844,0.676381726
141,355504,660270,0.985,0.032,-0.018,0,0.1,0,-34.5,6.8,26.7,0.174596393,0.699301126,-0.151432844,0.676381726
142,358034,660270,0.988,0.04,-0.022,0,0,0,-34.5,6.8,26.7,0.174596393,0.699301126,-0.151432844,0.676381726
143,360426,660280,0.985,0.036,-0.022,0,0,0,-34.7,6.9,26.5,0.174596393,0.699301126,-0.151432844,0.676381726
144,363555,660280,0.988,0.04,-0.022,0,0,0,-34.7,6.9,26.5,0.174596393,0.699301126,-0.151432844,0.676381726
145,365828,660280,0.985,0.04,-0.022,0,0,0,-34.7,6.9,26.5,0.174596393,0.699301126,-0.151432844,0.676381726
146,369192,660280,0.985,0.036,-0.026,0,0.1,0,-34.7,6.9,26.5,0.174596393,0.699301126,-0.151432844,0.676381726
147,371481,660290,0.985,0.036,-0.026,0,0.1,0,-34.7,6.9,26.5,0.174596393,0.699301126,-0.151432844,0.676381726
148,373665,660290,0.985,0.036,-0.026,0,0.1,0.1,-34.8,6.8,26.4,0.174596393,0.699301126,-0.151432844,0.676412244
149,375986,660290,0.985,0.036,-0.026,0,0,0,-34.8,6.8,26.4,0.174596393,0.699301126,-0.151432844,0.676412244
150,378220,660290,0.981,0.036,-0.026,0,0,0,-34.8,6.8,26.4,0.174596393,0.699301126,-0.151432844,0.676412244
151,380500,660300,0.985,0.04,-0.022,0,0,0,-34.8,5.8,26.8,0.174596393,0.699301126,-0.151432844,0.676412244
152,383014,660300,0.985,0.04,-0.022,0,0,0,-34.8,5.8,26.8,0.174596393,0.699301126,-0.151432844,0.676412244
153,386544,660300,0.988,0.036,-0.018,0,0,0,-34.8,5.8,26.8,0.174596393,0.699301126,-0.151432844,0.676412244
154,388131,660300,0.985,0.036,-0.018,0,0,0,-34.8,5.8,26.8,0.174596393,0.699301126,-0.151432844,0.676412244
155,390706,660310,0.988,0.036,-0.018,0,0,0,-35.1,6.5,26.7,0.174596393,0.699301126,-0.151432844,0.676412244
156,393733,660310,0.988,0.036,-0.018,0,0,0,-35.1,6.5,26.7,0.174596393,0.699301126,-0.151432844,0.676381726
157,395690,660310,0.985,0.04,-0.026,0,0,0,-35.1,6.5,26.7,0.174596393,0.699301126,-0.151432844,0.676381726
158,398077,660310,0.981,0.033,-0.018,0,0,0,-35.1,6.5,26.7,0.174596393,0.699301126,-0.151432844,0.676381726
159,400552,660320,0.985,0.036,-0.026,0,0,0.1,-34.8,7,27.1,0.174596393,0.699301126,-0.151432844,0.676381726
160,404797,660320,0.988,0.036,-0.026,0,0,0.1,-34.8,7,27.1,0.174596393,0.699301126,-0.151432844,0.676381726
161,407051,660320,0.988,0.036,-0.022,0,0,0.1,-34.8,7,27.1,0.174596393,0.699301126,-0.151432844,0.676381726
162,409287,660320,0.985,0.04,-0.022,0,0.1,0,-34.8,7,27.1,0.174596393,0.699301126,-0.151432844,0.676412244
163,411476,660330,0.985,0.04,-0.018,-0.1,0.1,0,-36.1,6.8,26.6,0.174596393,0.699301126,-0.151432844,0.676412244
164,413746,660330,0.985,0.04,-0.022,0,0.1,0,-36.1,6.8,26.6,0.174596393,0.699301126,-0.151432844,0.676412244
165,415647,660330,0.988,0.032,-0.022,0,0,0,-36.1,6.8,26.6,0.174596393,0.699301126,-0.151432844,0.676412244
166,419766,660330,0.985,0.036,-0.026,0,0,0,-36.1,6.8,26.6,0.174596393,0.699301126,-0.151432844,0.676412244
167,422050,660340,0.985,0.036,-0.026,0,0,0,-36.1,6.8,26.6,0.174596393,0.699301126,-0.151432844,0.676412244
168,424143,660340,0.988,0.036,-0.026,0.1,0,0,-36.5,6.6,26.8,0.174596393,0.699270608,-0.151432844,0.676412244
169,425839,660340,0.988,0.036,-0.022,0.1,0,0,-36.5,6.6,26.8,0.174596393,0.699270608,-0.151432844,0.676412244
170,428186,660340,0.985,0.036,-0.022,0,0.1,0,-36.5,6.6,26.8,0.174596393,0.699270608,-0.151432844,0.676412244
171,430729,660350,0.985,0.036,-0.018,0,0.2,0,-33.9,5,26.7,0.174596393,0.699270608,-0.151432844,0.676412244
172,432999,660350,0.981,0.036,-0.022,0,0.2,0,-33.9,5,26.7,0.174596393,0.699270608,-0.151432844,0.676442763
173,437245,660350,0.988,0.04,-0.03,0,0.2,0,-33.9,5,26.7,0.174596393,0.699270608,-0.151432844,0.676442763
174,437933,660350,0.988,0.04,-0.026,0,0.1,0,-33.9,5,26.7,0.174596393,0.699270608,-0.151432844,0.676442763
175,440611,660360,0.985,0.036,-0.022,0,0.1,-0.1,-36.2,7.6,27,0.174596393,0.699270608,-0.151432844,0.676442763
176,444673,660360,0.985,0.04,-0.022,0,0.1,0,-36.2,7.6,27,0.174596393,0.699270608,-0.151432844,0.676442763
177,446869,660360,0.985,0.04,-0.022,0,0.1,0,-36.2,7.6,27,0.174596393,0.699270608,-0.151432844,0.676442763
178,448465,660360,0.985,0.04,-0.018,0,0.1,0.1,-36.2,7.6,27,0.174596393,0.699270608,-0.151432844,0.676442763
179,450691,660370,0.985,0.04,-0.022,0.1,0.1,0.2,-36.6,7.4,26.4,0.174596393,0.699240089,-0.151432844,0.676442763
180,452937,660370,0.988,0.04,-0.022,0,0,0.2,-36.6,7.4,26.4,0.174596393,0.699240089,-0.151432844,0.676442763
181,456614,660370,0.985,0.04,-0.026,0,0.1,0,-36.6,7.4,26.4,0.174596393,0.699240089,-0.151432844,0.676442763
182,458139,660370,0.988,0.04,-0.026,0,0.1,-0.1,-36.6,7.4,26.4,0.174596393,0.699240089,-0.151432844,0.676442763
183,460417,660380,0.985,0.04,-0.018,0.1,0.1,-0.1,-36.4,7.6,26.8,0.174596393,0.699240089,-0.151432844,0.676442763
184,462903,660380,0.985,0.04,-0.018,0.1,0.1,-0.1,-36.4,7.6,26.8,0.174596393,0.699240089,-0.151402326,0.676442763
185,466382,660380,0.985,0.04,-0.018,0.1,0.1,-0.1,-36.4,7.6,26.8,0.174596393,0.699240089,-0.151402326,0.676442763
186,467958,660380,0.985,0.04,-0.022,0,0,-0.1,-36.4,7.6,26.8,0.174596393,0.699240089,-0.151402326,0.676473281
187,471647,660390,0.985,0.04,-0.022,0,0,-0.1,-36.4,7.6,26.8,0.174596393,0.699240089,-0.151402326,0.676473281
188,473139,660390,0.985,0.04,-0.018,0,-0.1,0,-35.7,7.4,26.6,0.174596393,0.699240089,-0.151402326,0.676473281
189,475393,660390,0.985,0.036,-0.022,0,-0.1,0,-35.7,7.4,26.6,0.174596393,0.699240089,-0.151402326,0.676473281
190,478475,660390,0.988,0.036,-0.018,-0.1,-0.1,0,-35.7,7.4,26.6,0.174596393,0.699240089,-0.151402326,0.676473281
191,480778,660400,0.985,0.036,-0.026,-0.1,0,0.1,-34.4,6.1,26.9,0.174596393,0.699240089,-0.151402326,0.676473281
192,483044,660400,0.985,0.04,-0.026,-0.1,0.1,0.1,-34.4,6.1,26.9,0.174596393,0.699240089,-0.151402326,0.676473281
193,485414,660400,0.988,0.04,-0.022,-0.1,0.1,0,-34.4,6.1,26.9,0.174596393,0.699240089,-0.151402326,0.676473281
194,488905,660400,0.985,0.04,-0.022,0,0,0,-34.4,6.1,26.9,0.174596393,0.699240089,-0.151402326,0.676473281
195,490528,660410,0.985,0.04,-0.022,0,0,0,-34.7,6.4,27,0.174596393,0.699240089,-0.151402326,0.676473281
196,493300,660410,0.981,0.036,-0.018,0,0,0,-34.7,6.4,27,0.174596393,0.699240089,-0.151402326,0.676473281
197,495646,660410,0.985,0.04,-0.022,0,0,0,-34.7,6.4,27,0.174596393,0.699240089,-0.151402326,0.676473281
198,498558,660410,0.988,0.04,-0.026,0,0,0,-34.7,6.4,27,0.174596393,0.699240089,-0.151402326,0.676473281
199,501576,660420,0.988,0.044,-0.022,0,0,0.1,-34.6,6.6,26.7,0.174596393,0.699240089,-0.151402326,0.676473281
200,503076,660420,0.988,0.036,-0.022,0,0,0,-34.6,6.6,26.7,0.174596393,0.699240089,-0.151402326,0.676473281
201,505635,660420,0.985,0.04,-0.018,0,0,0,-34.6,6.6,26.7,0.174596393,0.699240089,-0.151402326,0.676473281
202,509057,660420,0.985,0.036,-0.022,0,0.1,0,-34.6,6.6,26.7,0.174596393,0.699240089,-0.151402326,0.676473281
203,510574,660430,0.985,0.032,-0.022,0,0.1,-0.1,-34.4,6.3,26.6,0.174596393,0.699209571,-0.151402326,0.676473281
204,514001,660430,0.985,0.036,-0.022,0,0.2,-0.1,-34.4,6.3,26.6,0.174626911,0.699209571,-0.151402326,0.676473281
205,515659,660430,0.988,0.036,-0.022,0,0.1,-0.1,-34.4,6.3,26.6,0.174626911,0.699209571,-0.151402326,0.676473281
206,518383,660430,0.985,0.04,-0.026,0,0,0,-34.4,6.3,26.6,0.174626911,0.699209571,-0.151402326,0.676473281
207,521795,660440,0.985,0.04,-0.026,0,0,0,-34.4,6.3,26.6,0.174626911,0.699209571,-0.151402326,0.676473281
208,523486,660440,0.988,0.04,-0.026,0,0,0,-34.6,6.4,26.7,0.174596393,0.699209571,-0.151432844,0.676473281
209,525795,660440,0.981,0.036,-0.026,0,0,0,-34.6,6.4,26.7,0.174596393,0.699209571,-0.151432844,0.676473281
210,528024,660440,0.981,0.044,-0.022,0,0,0,-34.6,6.4,26.7,0.174596393,0.699209571,-0.151432844,0.676473281
211,530506,660450,0.985,0.036,-0.026,0,0,0,-35.3,6.3,26.7,0.174596393,0.699209571,-0.151432844,0.676473281
212,534041,660450,0.988,0.04,-0.022,0,0,0,-35.3,6.3,26.7,0.174596393,0.699209571,-0.151432844,0.676473281
213,535626,660450,0.985,0.04,-0.022,-0.1,0.1,0,-35.3,6.3,26.7,0.174596393,0.699209571,-0.151432844,0.676473281
214,538166,660450,0.985,0.04,-0.018,0,0.1,0,-35.3,6.3,26.7,0.174596393,0.699209571,-0.151432844,0.6765038
215,540629,660460,0.988,0.032,-0.026,0,0.2,0,-34.3,6.3,26.7,0.174596393,0.699209571,-0.151432844,0.6765038
216,543943,660460,0.988,0.04,-0.022,0,0.1,0,-34.3,6.3,26.7,0.174596393,0.699209571,-0.151432844,0.6765038
217,546152,660460,0.985,0.044,-0.022,0,0.1,0,-34.3,6.3,26.7,0.174596393,0.699209571,-0.151432844,0.6765038
218,548392,660460,0.985,0.04,-0.03,0,0.1,0,-34.3,6.3,26.7,0.174596393,0.699209571,-0.151432844,0.6765038
219,550658,660470,0.985,0.036,-0.026,0,0.1,0,-34.4,6.2,26.7,0.174596393,0.699209571,-0.151432844,0.6765038
220,552924,660470,0.985,0.04,-0.026,0,0.1,-0.1,-34.4,6.2,26.7,0.174596393,0.699179052,-0.151432844,0.6765038
221,556666,660470,0.988,0.036,-0.022,0,0.1,0,-34.4,6.2,26.7,0.174596393,0.699179052,-0.151432844,0.6765038
222,558772,660470,0.985,0.036,-0.026,0,0.2,0,-34.4,6.2,26.7,0.174596393,0.699179052,-0.151432844,0.6765038
223,561051,660480,0.988,0.044,-0.022,0,0.1,0,-34.5,6.1,26.7,0.174596393,0.699179052,-0.151432844,0.6765038
224,563266,660480,0.985,0.04,-0.022,0,0,0,-34.5,6.1,26.7,0.174596393,0.699179052,-0.151432844,0.6765038
225,566364,660480,0.988,0.036,-0.026,0,0,0,-34.5,6.1,26.7,0.174596393,0.699179052,-0.151432844,0.6765038
226,568539,660480,0.988,0.04,-0.026,0,0,0,-34.5,6.1,26.7,0.174596393,0.699179052,-0.151432844,0.6765038
227,570813,660490,0.988,0.04,-0.026,0,0,0,-34.5,6.1,26.7,0.174596393,0.699179052,-0.151432844,0.6765038
228,573018,660490,0.985,0.04,-0.026,-0.1,0,0,-34.3,6.2,26.9,0.174626911,0.699209571,-0.151402326,0.6765038
229,575447,660490,0.981,0.036,-0.018,0,0,0,-34.3,6.2,26.9,0.174626911,0.699209571,-0.151402326,0.6765038
230,578273,660490,0.981,0.04,-0.026,0,0,0,-34.3,6.2,26.9,0.174626911,0.699209571,-0.151402326,0.6765038
231,581273,660500,0.981,0.036,-0.026,0,0,0,-36,6.1,26.6,0.174626911,0.699209571,-0.151402326,0.6765038
232,584178,660500,0.985,0.04,-0.018,0,0,0,-36,6.1,26.6,0.174626911,0.699209571,-0.151402326,0.6765038
233,585699,660500,0.985,0.04,-0.022,0,0,0,-36,6.1,26.6,0.174626911,0.699209571,-0.151402326,0.6765038
234,588747,660500,0.988,0.04,-0.026,0,0,0,-36,6.1,26.6,0.174626911,0.699209571,-0.151402326,0.6765038
235,590403,660510,0.985,0.036,-0.022,-0.1,0,0,-33.7,6.2,26.8,0.174626911,0.699209571,-0.151402326,0.6765038
236,593285,660510,0.985,0.036,-0.026,-0.1,0,0,-33.7,6.2,26.8,0.174626911,0.699209571,-0.151402326,0.6765038
237,596166,660510,0.985,0.04,-0.03,0,0,0,-33.7,6.2,26.8,0.174626911,0.699209571,-0.151402326,0.6765038
238,597917,660510,0.985,0.036,-0.026,0,0,0,-33.7,6.2,26.8,0.174626911,0.699209571,-0.151402326,0.6765038
239,600852,660520,0.985,0.036,-0.022,0,0,0,-33.9,6.3,26.9,0.174626911,0.699209571,-0.151402326,0.6765038
240,603665,660520,0.985,0.036,-0.026,0.1,-0.1,0,-33.9,6.3,26.9,0.174626911,0.699209571,-0.151402326,0.6765038
241,605411,660520,0.985,0.04,-0.022,0.1,-0.1,0,-33.9,6.3,26.9,0.174626911,0.699209571,-0.151402326,0.6765038
242,608388,660520,0.985,0.032,-0.026,0.1,-0.2,0,-33.9,6.3,26.9,0.174626911,0.699209571,-0.151402326,0.676473281
243,611667,660530,0.985,0.04,-0.026,0,-0.1,0,-33.5,6.1,27,0.174626911,0.699209571,-0.151402326,0.676473281
244,613201,660530,0.985,0.04,-0.018,0,-0.1,0,-33.5,6.1,27,0.174626911,0.699209571,-0.151402326,0.676473281
245,616066,660530,0.988,0.036,-0.022,0,-0.1,0,-33.5,6.1,27,0.174626911,0.699209571,-0.151402326,0.676473281
246,619176,660530,0.985,0.04,-0.026,0,-0.1,0,-33.5,6.1,27,0.174626911,0.699209571,-0.151402326,0.676473281
247,620644,660540,0.985,0.04,-0.026,0,-0.1,0,-33.5,6.1,27,0.174626911,0.699209571,-0.151402326,0.676473281
248,623432,660540,0.988,0.036,-0.03,-0.1,-0.1,0,-33.9,6.2,26.5,0.17465743,0.699209571,-0.151402326,0.676473281
249,626566,660540,0.988,0.04,-0.026,-0.1,-0.1,0,-33.9,6.2,26.5,0.17465743,0.699209571,-0.151402326,0.676473281
250,628061,660540,0.988,0.04,-0.022,-0.1,0,0,-33.9,6.2,26.5,0.17465743,0.699240089,-0.151402326,0.676473281
251,630920,660550,0.985,0.04,-0.022,0,0,0,-34.8,6,26.7,0.17465743,0.699240089,-0.151402326,0.676473281
252,634046,660550,0.988,0.044,-0.018,0,0,0,-34.8,6,26.7,0.17465743,0.699209571,-0.151402326,0.676473281
253,635532,660550,0.988,0.032,-0.018,0,0.1,-0.1,-34.8,6,26.7,0.17465743,0.699209571,-0.151402326,0.676473281
254,638557,660550,0.988,0.036,-0.022,0,0.1,-0.1,-34.8,6,26.7,0.17465743,0.699209571,-0.151402326,0.676473281
255,641565,660560,0.985,0.044,-0.018,0,0,0,-34.7,6.2,26.6,0.17465743,0.699209571,-0.151402326,0.676473281
256,643022,660560,0.985,0.044,-0.022,0,-0.1,0,-34.7,6.2,26.6,0.17465743,0.699209571,-0.151402326,0.676473281
257,646046,660560,0.985,0.036,-0.026,0,-0.1,0,-34.7,6.2,26.6,0.17465743,0.699209571,-0.151402326,0.676473281
258,649061,660560,0.988,0.036,-0.022,0.1,0,0,-34.7,6.2,26.6,0.17465743,0.699209571,-0.151402326,0.676473281
259,650544,660570,0.988,0.04,-0.026,0,0.1,0,-34.8,6.2,26.8,0.17465743,0.699209571,-0.151402326,0.676473281
260,653363,660570,0.985,0.036,-0.018,0,0.1,0,-34.8,6.2,26.8,0.17465743,0.699209571,-0.151402326,0.676473281
261,656508,660570,0.985,0.04,-0.014,0,0,0,-34.8,6.2,26.8,0.17465743,0.699209571,-0.151402326,0.676473281
262,658005,660570,0.985,0.036,-0.022,0.1,0,0,-34.8,6.2,26.8,0.17465743,0.699209571,-0.151402326,0.676473281
263,660816,660580,0.985,0.036,-0.026,0.1,-0.1,0,-34.7,6.5,26.7,0.17465743,0.699209571,-0.151402326,0.676473281
264,663927,660580,0.981,0.036,-0.026,0,0,0,-34.7,6.5,26.7,0.174626911,0.699209571,-0.151402326,0.676473281
265,665431,660580,0.985,0.04,-0.026,0,0,0,-34.7,6.5,26.7,0.174626911,0.699209571,-0.151402326,0.676473281
266,668643,660580,0.988,0.036,-0.026,0,0,-0.1,-34.7,6.5,26.7,0.17465743,0.699209571,-0.151402326,0.676473281
267,670840,660590,0.988,0.036,-0.026,0,0,-0.1,-34.7,6.5,26.7,0.17465743,0.699209571,-0.151402326,0.676473281
268,673847,660590,0.988,0.04,-0.026,0,0,0,-34.9,6.5,27.4,0.174626911,0.699240089,-0.151402326,0.676442763
269,675426,660590,0.992,0.04,-0.018,0,-0.1,0,-34.9,6.5,27.4,0.174626911,0.699240089,-0.151402326,0.676442763
270,678330,660590,0.988,0.044,-0.026,0,-0.1,-0.1,-34.9,6.5,27.4,0.174626911,0.699240089,-0.151402326,0.676442763
271,681558,660600,0.985,0.036,-0.03,0,0,0,-35,6.2,26.2,0.174626911,0.699240089,-0.151402326,0.676442763
272,683030,660600,0.988,0.04,-0.022,0,0.1,0,-35,6.2,26.2,0.174626911,0.699240089,-0.151402326,0.676442763
273,686082,660600,0.985,0.036,-0.03,0,0.1,0.1,-35,6.2,26.2,0.174626911,0.699240089,-0.151402326,0.676442763
274,689027,660600,0.985,0.036,-0.026,0,0,0.1,-35,6.2,26.2,0.174626911,0.699240089,-0.151402326,0.676442763
275,690658,660610,0.985,0.04,-0.026,0,0.1,0,-34.7,6.3,27.9,0.174626911,0.699240089,-0.151402326,0.676442763
276,693115,660610,0.985,0.04,-0.022,0,0.1,0,-34.7,6.3,27.9,0.174626911,0.699240089,-0.151402326,0.676442763
277,695927,660610,0.988,0.036,-0.018,0,0.2,-0.1,-34.7,6.3,27.9,0.174626911,0.699240089,-0.151402326,0.676442763
278,698289,660610,0.985,0.04,-0.026,0,0.2,-0.1,-34.7,6.3,27.9,0.174626911,0.699240089,-0.151402326,0.676442763
279,700548,660620,0.988,0.036,-0.022,0,0.1,-0.1,-34.9,5.9,28.3,0.174626911,0.699240089,-0.151402326,0.676473281
280,703493,660620,0.988,0.04,-0.018,0.1,0,-0.1,-34.9,5.9,28.3,0.174626911,0.699240089,-0.151402326,0.676473281
281,706529,660620,0.988,0.036,-0.022,0,-0.1,0,-34.9,5.9,28.3,0.174626911,0.699240089,-0.151402326,0.676442763
282,708011,660620,0.985,0.032,-0.026,0,0,-0.1,-34.9,5.9,28.3,0.174626911,0.699240089,-0.151402326,0.676442763
283,710454,660630,0.985,0.04,-0.026,0,0,0,-34.9,6.3,28.7,0.174626911,0.699240089,-0.151402326,0.676442763
284,714075,660630,0.985,0.04,-0.026,0,0,0,-34.9,6.3,28.7,0.174626911,0.699240089,-0.151402326,0.676442763
285,716300,660630,0.988,0.044,-0.026,0,0,0.1,-34.9,6.3,28.7,0.174626911,0.699240089,-0.151402326,0.676442763
286,719257,660630,0.985,0.04,-0.018,0,0,0,-34.9,6.3,28.7,0.174626911,0.699240089,-0.151402326,0.676442763
287,720751,660640,0.985,0.04,-0.018,0,0,0,-34.9,6.3,28.7,0.174626911,0.699240089,-0.151402326,0.676442763
288,723467,660640,0.988,0.04,-0.018,0,0,0,-35.2,6.2,28.6,0.17465743,0.699270608,-0.151371807,0.676442763
289,725952,660640,0.988,0.036,-0.022,0,0,0,-35.2,6.2,28.6,0.17465743,0.699270608,-0.151371807,0.676442763
290,728090,660640,0.985,0.04,-0.022,0,0,0.1,-35.2,6.2,28.6,0.17465743,0.699270608,-0.151371807,0.676442763
291,730773,660650,0.988,0.036,-0.022,0,0,0.2,-34.7,6,25.4,0.17465743,0.699270608,-0.151371807,0.676442763
292,733088,660650,0.985,0.036,-0.026,0,-0.1,0.2,-34.7,6,25.4,0.17465743,0.699270608,-0.151371807,0.676442763
293,737269,660650,0.981,0.04,-0.026,0,-0.1,0.2,-34.7,6,25.4,0.17465743,0.699270608,-0.151402326,0.676442763
294,738030,660650,0.988,0.036,-0.026,0,-0.1,0.2,-34.7,6,25.4,0.17465743,0.699270608,-0.151402326,0.676442763
295,741229,660660,0.988,0.04,-0.022,0,0,0.1,-35,6.2,26.6,0.17465743,0.699270608,-0.151402326,0.676442763
296,743088,660660,0.985,0.04,-0.022,-0.1,0,0,-35,6.2,26.6,0.17465743,0.699270608,-0.151402326,0.676442763
297,745710,660660,0.985,0.036,-0.026,-0.1,0,0,-35,6.2,26.6,0.17465743,0.699270608,-0.151402326,0.676442763
298,747941,660660,0.985,0.04,-0.022,0,-0.1,0,-35,6.2,26.6,0.17465743,0.699270608,-0.151402326,0.676442763
299,751358,660670,0.988,0.032,-0.026,0,-0.1,0,-34.7,6.6,26.2,0.17465743,0.699270608,-0.151402326,0.676442763
300,752962,660670,0.985,0.04,-0.026,0,0,0,-34.7,6.6,26.2,0.17465743,0.699270608,-0.151402326,0.676412244
301,756616,660670,0.985,0.036,-0.026,0,0,-0.1,-34.7,6.6,26.2,0.17465743,0.699270608,-0.151402326,0.676442763
302,758093,660670,0.988,0.04,-0.022,0,0.1,-0.2,-34.7,6.6,26.2,0.17465743,0.699270608,-0.151402326,0.676442763
303,760429,660680,0.985,0.04,-0.022,0.1,0.1,-0.1,-34.7,6,26,0.17465743,0.699270608,-0.151371807,0.676442763
304,763538,660680,0.985,0.036,-0.018,0.1,0,0,-34.7,6,26,0.17465743,0.699270608,-0.151371807,0.676442763
305,765653,660680,0.985,0.04,-0.018,0.1,-0.1,0,-34.7,6,26,0.17465743,0.699270608,-0.151371807,0.676442763
306,767982,660680,0.985,0.04,-0.022,0.1,-0.2,0,-34.7,6,26,0.17465743,0.699270608,-0.151371807,0.676412244
307,771165,660690,0.985,0.04,-0.022,0.1,-0.2,0,-34.7,6,26,0.17465743,0.699270608,-0.151371807,0.676412244
308,773487,660690,0.985,0.036,-0.018,0,-0.3,0,-34.7,6.2,25.5,0.17465743,0.699240089,-0.151371807,0.676442763
309,775677,660690,0.988,0.044,-0.026,0,-0.3,0,-34.7,6.2,25.5,0.17465743,0.699240089,-0.151371807,0.676442763
310,778325,660690,0.985,0.04,-0.026,0,-0.4,0.1,-34.7,6.2,25.5,0.17465743,0.699270608,-0.151371807,0.676442763
311,780558,660700,0.988,0.036,-0.026,0,-0.3,0,-34.7,6.2,25.5,0.17465743,0.699270608,-0.151371807,0.676442763
312,783990,660700,0.988,0.036,-0.026,0,-0.1,0,-34.7,6.2,25.5,0.17465743,0.699270608,-0.151371807,0.676412244
313,785481,660700,0.985,0.04,-0.018,0,0,0,-34.7,6.2,25.5,0.17465743,0.699270608,-0.151371807,0.676412244
314,788885,660700,0.985,0.036,-0.022,0,0,0,-34.7,6.2,25.5,0.17465743,0.699270608,-0.151371807,0.676412244
315,790557,660710,0.988,0.036,-0.022,0,0.1,0,-34.4,6.1,26.6,0.17465743,0.699270608,-0.151371807,0.676442763
316,793954,660710,0.988,0.036,-0.026,0,0,0,-34.4,6.1,26.6,0.17465743,0.699270608,-0.151371807,0.676442763
317,796159,660710,0.985,0.04,-0.026,0,0,0,-34.4,6.1,26.6,0.17465743,0.699270608,-0.151371807,0.676442763
318,798497,660710,0.981,0.036,-0.022,0,0,0,-34.4,6.1,26.6,0.17465743,0.699270608,-0.151371807,0.676412244
319,800647,660720,0.985,0.04,-0.022,0,0,0,-34.6,6.1,26.7,0.17465743,0.699270608,-0.151371807,0.676412244
320,802931,660720,0.985,0.032,-0.018,0,0,0,-34.6,6.1,26.7,0.17465743,0.699270608,-0.151371807,0.676412244
321,805530,660720,0.988,0.036,-0.022,0,0,0,-34.6,6.1,26.7,0.17465743,0.699270608,-0.151371807,0.676412244
322,809012,660720,0.988,0.04,-0.03,0,0,0,-34.6,6.1,26.7,0.17465743,0.699270608,-0.151371807,0.676412244
323,810577,660730,0.985,0.036,-0.03,0,0,0,-34.5,5.8,26.8,0.17465743,0.699270608,-0.151371807,0.676412244
324,813229,660730,0.985,0.036,-0.026,0.1,0,0.1,-34.5,5.8,26.8,0.17465743,0.699270608,-0.151371807,0.676412244
325,815462,660730,0.988,0.036,-0.022,0.1,0,0.1,-34.5,5.8,26.8,0.17465743,0.699270608,-0.151371807,0.676412244
326,819721,660730,0.988,0.036,-0.022,0.1,0.1,0.1,-34.5,5.8,26.8,0.17465743,0.699270608,-0.151371807,0.676442763
327,820504,660740,0.988,0.036,-0.022,0.1,0.1,0.1,-34.5,5.8,26.8,0.17465743,0.699270608,-0.151371807,0.676442763
328,823088,660740,0.981,0.04,-0.03,0,0.1,0,-34.8,5.3,26.6,0.174626911,0.699270608,-0.151402326,0.676412244
329,827372,660740,0.981,0.036,-0.022,0,0.1,0,-34.8,5.3,26.6,0.174626911,0.699270608,-0.151402326,0.676412244
330,828010,660740,0.988,0.044,-0.018,0,0.1,0,-34.8,5.3,26.6,0.174626911,0.699270608,-0.151402326,0.676412244
331,830655,660750,0.988,0.04,-0.022,0,0.1,0,-34.8,5.3,26.6,0.174626911,0.699270608,-0.151402326,0.676412244
332,832922,660750,0.988,0.04,-0.026,0.1,0.1,0,-34.8,5.3,26.6,0.174626911,0.699270608,-0.151402326,0.676412244
333,836505,660750,0.988,0.04,-0.022,0.1,0.1,0,-34.8,5.3,26.6,0.174626911,0.699270608,-0.151402326,0.676442763
334,838780,660750,0.985,0.036,-0.022,0.1,0.1,0,-34.8,5.3,26.6,0.174596393,0.699270608,-0.151402326,0.676442763
335,840984,660760,0.981,0.033,-0.018,0.1,0.1,0,-34.8,5.1,25.8,0.174596393,0.699270608,-0.151402326,0.676442763
336,843181,660760,0.977,0.036,-0.022,0,0.2,0,-34.8,5.1,25.8,0.174596393,0.699270608,-0.151402326,0.676442763
337,845515,660760,0.985,0.036,-0.022,0,0.2,0,-34.8,5.1,25.8,0.174596393,0.699270608,-0.151402326,0.676442763
338,848111,660760,0.981,0.04,-0.018,0,0.1,0,-34.8,5.1,25.8,0.174596393,0.699270608,-0.151402326,0.676442763
339,850556,660770,0.985,0.036,-0.022,0,0,0,-34.7,4.3,25.3,0.174596393,0.699270608,-0.151402326,0.676442763
340,853770,660770,0.985,0.036,-0.026,0,-0.1,0.1,-34.7,4.3,25.3,0.174596393,0.699270608,-0.151402326,0.676442763
341,856068,660770,0.992,0.036,-0.022,0,-0.1,0.1,-34.7,4.3,25.3,0.174596393,0.699270608,-0.151402326,0.676442763
342,858704,660770,0.985,0.032,-0.022,0,0,0.2,-34.7,4.3,25.3,0.174596393,0.699270608,-0.151402326,0.676442763
343,860969,660780,0.988,0.04,-0.022,0,0.1,0,-35.2,4.3,25.6,0.174596393,0.699270608,-0.151402326,0.676442763
344,863131,660780,0.988,0.04,-0.018,0,0.2,-0.1,-35.2,4.3,25.6,0.174596393,0.699270608,-0.151402326,0.676442763
345,865435,660780,0.985,0.036,-0.026,0,0.3,-0.1,-35.2,4.3,25.6,0.174596393,0.699240089,-0.151402326,0.676442763
346,868955,660780,0.985,0.04,-0.018,0,0.3,-0.1,-35.2,4.3,25.6,0.174596393,0.699240089,-0.151402326,0.676442763
347,870575,660790,0.985,0.04,-0.018,0,0.3,-0.1,-35.2,4.3,25.6,0.174596393,0.699240089,-0.151402326,0.676442763
348,873118,660790,0.985,0.04,-0.022,0,0.2,0,-35,4.3,25.9,0.174626911,0.699209571,-0.151371807,0.676473281
349,875427,660790,0.985,0.04,-0.022,0,0.1,0,-35,4.3,25.9,0.174626911,0.699209571,-0.151371807,0.676473281
350,879630,660790,0.985,0.04,-0.026,0,0.1,0,-35,4.3,25.9,0.174626911,0.699209571,-0.151371807,0.676473281
351,881744,660800,0.988,0.04,-0.026,0,0.1,0,-35,4.3,25.9,0.174626911,0.699209571,-0.151371807,0.676473281
352,883299,660800,0.988,0.036,-0.018,0,0,0,-35,4.3,25.9,0.174626911,0.699209571,-0.151371807,0.676473281
353,885555,660800,0.985,0.036,-0.03,0,-0.1,0,-35,4.3,25.9,0.174626911,0.699209571,-0.151371807,0.676473281
354,888117,660800,0.985,0.036,-0.026,0,-0.2,-0.1,-35,4.3,25.9,0.174626911,0.699209571,-0.151371807,0.676473281
355,890375,660810,0.985,0.04,-0.026,0,-0.1,-0.2,-34.6,5.5,26.9,0.174626911,0.699240089,-0.151371807,0.676473281
356,894518,660810,0.988,0.036,-0.022,0.1,0,-0.1,-34.6,5.5,26.9,0.174626911,0.699240089,-0.151371807,0.676473281
357,896595,660810,0.988,0.04,-0.022,0.1,0,-0.1,-34.6,5.5,26.9,0.174626911,0.699240089,-0.151371807,0.676473281
358,898482,660810,0.988,0.036,-0.026,0,0.1,0,-34.6,5.5,26.9,0.174626911,0.699240089,-0.151371807,0.676473281
359,900817,660820,0.985,0.044,-0.022,0,0.1,0,-34.8,6,26.5,0.174626911,0.699240089,-0.151371807,0.676473281
360,903002,660820,0.985,0.04,-0.022,0,0,0,-34.8,6,26.5,0.174626911,0.699240089,-0.151371807,0.676473281
361,906474,660820,0.988,0.04,-0.026,0,0,0,-34.8,6,26.5,0.174626911,0.699240089,-0.151371807,0.676473281
362,908023,660820,0.985,0.036,-0.022,0,0,0,-34.8,6,26.5,0.174626911,0.699240089,-0.151371807,0.676473281
363,910519,660830,0.985,0.036,-0.026,0,0,-0.1,-34.5,6.9,26.8,0.174626911,0.699240089,-0.151371807,0.676473281
364,914713,660830,0.985,0.04,-0.03,0,0,0,-34.5,6.9,26.8,0.174626911,0.699240089,-0.151371807,0.676473281
365,916956,660830,0.985,0.036,-0.018,0,0,0,-34.5,6.9,26.8,0.174626911,0.699240089,-0.151371807,0.676473281
366,919213,660830,0.985,0.044,-0.022,0,0,0,-34.5,6.9,26.8,0.174626911,0.699240089,-0.151371807,0.676473281
367,921494,660840,0.985,0.044,-0.022,0,0,0,-34.5,6.9,26.8,0.174626911,0.699240089,-0.151371807,0.676473281
368,923597,660840,0.988,0.04,-0.022,0,0,0,-34.9,7.3,27,0.174626911,0.699240089,-0.151371807,0.676473281
369,925926,660840,0.988,0.04,-0.026,0,-0.1,0,-34.9,7.3,27,0.174626911,0.699240089,-0.151371807,0.676473281
370,927960,660840,0.988,0.036,-0.026,0,-0.1,0,-34.9,7.3,27,0.174626911,0.699240089,-0.151371807,0.676473281
371,931611,660850,0.988,0.036,-0.026,0,-0.1,0,-34.9,7.3,27,0.174626911,0.699240089,-0.151371807,0.676473281
372,933216,660850,0.985,0.036,-0.018,0,0,0,-34.9,7.3,27,0.174626911,0.699240089,-0.151371807,0.676473281
373,935471,660850,0.985,0.044,-0.03,0,0,0.1,-34.9,7.3,27,0.174626911,0.699240089,-0.151371807,0.676473281
374,938130,660850,0.985,0.036,-0.018,0.1,0,0,-34.9,7.3,27,0.174626911,0.699240089,-0.151371807,0.676473281
375,941145,660860,0.988,0.04,-0.022,0,0,0,-35.2,6.2,26.7,0.174626911,0.699240089,-0.151371807,0.676473281
376,943536,660860,0.988,0.04,-0.026,0,0,0,-35.2,6.2,26.7,0.174626911,0.699240089,-0.151371807,0.676473281
377,945781,660860,0.985,0.036,-0.022,0,0,0,-35.2,6.2,26.7,0.174626911,0.699240089,-0.151371807,0.676473281
378,948078,660860,0.988,0.036,-0.026,0,-0.1,0,-35.2,6.2,26.7,0.174626911,0.699240089,-0.151371807,0.676473281
379,950579,660870,0.988,0.036,-0.022,0,-0.1,0,-34.8,6.5,27,0.174626911,0.699240089,-0.151371807,0.676473281
380,952929,660870,0.985,0.036,-0.022,0,-0.1,0,-34.8,6.5,27,0.174626911,0.699240089,-0.151371807,0.676473281
381,957108,660870,0.985,0.04,-0.026,-0.1,0,0,-34.8,6.5,27,0.174626911,0.699240089,-0.151371807,0.676442763
382,959398,660870,0.985,0.036,-0.022,0,0,0.1,-34.8,6.5,27,0.174626911,0.699240089,-0.151371807,0.676442763
383,961532,660880,0.988,0.036,-0.026,0,0,0.1,-35.2,6.1,26.9,0.174626911,0.699240089,-0.151371807,0.676442763
384,963847,660880,0.985,0.036,-0.022,0,0,0,-35.2,6.1,26.9,0.174626911,0.699240089,-0.151371807,0.676442763
385,965575,660880,0.988,0.036,-0.026,0,-0.1,0,-35.2,6.1,26.9,0.174626911,0.699240089,-0.151371807,0.676442763
386,968698,660880,0.985,0.04,-0.022,0,-0.1,0,-35.2,6.1,26.9,0.174626911,0.699240089,-0.151371807,0.676442763
387,970995,660890,0.985,0.04,-0.022,0,-0.1,0,-35.2,6.1,26.9,0.174626911,0.699240089,-0.151371807,0.676442763
388,973235,660890,0.981,0.04,-0.026,0,-0.1,0,-35.7,6.6,26.8,0.174596393,0.699270608,-0.151402326,0.676442763
389,975557,660890,0.985,0.036,-0.022,0,-0.1,0,-35.7,6.6,26.8,0.174596393,0.699270608,-0.151402326,0.676442763
390,978081,660890,0.985,0.036,-0.022,0,0,0,-35.7,6.6,26.8,0.174596393,0.699270608,-0.151402326,0.676442763
391,982167,660900,0.981,0.04,-0.026,0,0,0,-35.7,6.6,26.8,0.174596393,0.699270608,-0.151402326,0.676442763
392,984509,660900,0.985,0.04,-0.026,0,0,0,-35.7,6.6,26.8,0.174596393,0.699270608,-0.151402326,0.676442763
393,986799,660900,0.988,0.032,-0.022,-0.1,0,0,-35.7,6.6,26.8,0.174596393,0.699270608,-0.151402326,0.676442763
394,988553,660900,0.988,0.032,-0.022,0,0,0,-35.7,6.6,26.8,0.174596393,0.699270608,-0.151402326,0.676442763
395,990849,660910,0.988,0.036,-0.026,0,-0.1,0,-36.2,7.7,27.2,0.174596393,0.699270608,-0.151402326,0.676442763
396,992927,660910,0.992,0.04,-0.03,0.1,-0.1,0,-36.2,7.7,27.2,0.174596393,0.699270608,-0.151402326,0.676442763
397,997246,660910,0.988,0.036,-0.022,0.1,-0.2,0,-36.2,7.7,27.2,0.174596393,0.699270608,-0.151402326,0.676442763
398,999499,660910,0.981,0.033,-0.022,0.1,-0.1,0,-36.2,7.7,27.2,0.174596393,0.699270608,-0.151402326,0.676412244
399,1001712,660920,0.985,0.036,-0.026,0.1,0,0,-36.9,7.8,26.7,0.174596393,0.699270608,-0.151402326,0.676412244
400,1004028,660920,0.988,0.04,-0.026,0,0,-0.1,-36.9,7.8,26.7,0.174596393,0.699270608,-0.151402326,0.676412244
401,1006189,660920,0.985,0.036,-0.022,0,0,0,-36.9,7.8,26.7,0.174596393,0.699270608,-0.151371807,0.676412244
402,1008516,660920,0.985,0.04,-0.026,0,0,0,-36.9,7.8,26.7,0.174596393,0.699270608,-0.151371807,0.676412244
403,1010636,660930,0.985,0.04,-0.018,0,0.1,0,-37.2,7.8,27.1,0.174596393,0.699270608,-0.151371807,0.676412244
404,1013015,660930,0.985,0.036,-0.018,0,0.2,0,-37.2,7.8,27.1,0.174596393,0.699270608,-0.151371807,0.676442763
405,1015597,660930,0.985,0.04,-0.03,0,0.1,0,-37.2,7.8,27.1,0.174596393,0.699270608,-0.151371807,0.676442763
406,1018053,660930,0.985,0.04,-0.026,0,0.1,0,-37.2,7.8,27.1,0.174596393,0.699270608,-0.151371807,0.676442763
407,1020983,660940,0.985,0.04,-0.026,0,0.1,0,-37.2,7.8,27.1,0.174596393,0.699270608,-0.151371807,0.676442763
408,1022947,660940,0.985,0.036,-0.03,0,0,0,-36.8,7.7,27.1,0.174596393,0.699270608,-0.151371807,0.676442763
409,1026581,660940,0.985,0.04,-0.014,0,0,0,-36.8,7.7,27.1,0.174596393,0.699270608,-0.151371807,0.676442763
410,1028076,660940,0.985,0.036,-0.022,0,-0.1,0,-36.8,7.7,27.1,0.174596393,0.699270608,-0.151371807,0.676442763
411,1030493,660950,0.981,0.036,-0.026,0,-0.1,0,-36.8,7.7,27.1,0.174596393,0.699270608,-0.151371807,0.676412244
412,1032922,660950,0.988,0.04,-0.026,0,-0.1,0,-36.8,7.7,27.1,0.174596393,0.699270608,-0.151371807,0.676412244
413,1036451,660950,0.985,0.04,-0.022,0,-0.1,0,-36.8,7.7,27.1,0.174596393,0.699301126,-0.151371807,0.676412244
414,1037989,660950,0.988,0.036,-0.022,0,-0.1,0,-36.8,7.7,27.1,0.174596393,0.699301126,-0.151371807,0.676412244
415,1041613,660960,0.988,0.044,-0.018,0,0,0,-35.8,6.2,26.8,0.174596393,0.699301126,-0.151371807,0.676412244
416,1043074,660960,0.988,0.036,-0.022,0,0,0,-35.8,6.2,26.8,0.174596393,0.699301126,-0.151371807,0.676412244
417,1046113,660960,0.985,0.036,-0.022,0,0,0,-35.8,6.2,26.8,0.174596393,0.699301126,-0.151371807,0.676412244
418,1047925,660960,0.985,0.036,-0.03,0,-0.1,0,-35.8,6.2,26.8,0.174596393,0.699301126,-0.151371807,0.676412244
419,1050512,660970,0.985,0.04,-0.026,0,-0.1,0,-35,6.4,27.2,0.174596393,0.699301126,-0.151371807,0.676412244
420,1053753,660970,0.985,0.04,-0.022,0.1,-0.1,0,-35,6.4,27.2,0.174596393,0.699301126,-0.151371807,0.676412244
421,1056062,660970,0.988,0.04,-0.022,0.1,-0.1,0,-35,6.4,27.2,0.174596393,0.699301126,-0.151371807,0.676412244
422,1058195,660970,0.988,0.04,-0.026,0.1,-0.1,0,-35,6.4,27.2,0.174596393,0.699301126,-0.151371807,0.676412244
423,1062101,660980,0.992,0.04,-0.026,0.1,0,0,-34.2,6.4,27.3,0.174596393,0.699301126,-0.151371807,0.676412244
424,1063518,660980,0.985,0.036,-0.018,0.1,0,0,-34.2,6.4,27.3,0.174596393,0.699301126,-0.151371807,0.676412244
425,1065773,660980,0.985,0.04,-0.022,0,0.1,-0.1,-34.2,6.4,27.3,0.174596393,0.699301126,-0.151371807,0.676412244
426,1068067,660980,0.988,0.036,-0.022,0,0.1,-0.2,-34.2,6.4,27.3,0.174596393,0.699301126,-0.151371807,0.676412244
427,1070605,660990,0.988,0.036,-0.022,0,0.1,-0.2,-34.2,6.4,27.3,0.174596393,0.699301126,-0.151371807,0.676412244
428,1074103,660990,0.981,0.036,-0.026,0,0,0,-34.2,6.3,27,0.174596393,0.699301126,-0.151371807,0.676412244
429,1076307,660990,0.988,0.032,-0.022,0,0,0,-34.2,6.3,27,0.174596393,0.699270608,-0.151371807,0.676412244
430,1078600,660990,0.988,0.04,-0.026,0,0,0.1,-34.2,6.3,27,0.174596393,0.699270608,-0.151371807,0.676442763
431,1080849,661000,0.988,0.036,-0.022,0,0.1,0.1,-34.2,6.3,27,0.174596393,0.699270608,-0.151371807,0.676442763
432,1083084,661000,0.985,0.036,-0.026,0,0.1,0,-34.2,6.3,27,0.174596393,0.699270608,-0.151371807,0.676442763
433,1085647,661000,0.985,0.032,-0.022,0,0.1,0,-34.2,6.3,27,0.174596393,0.699270608,-0.151371807,0.676442763
434,1087924,661000,0.988,0.04,-0.022,-0.1,0.1,0,-34.2,6.3,27,0.174596393,0.699270608,-0.151371807,0.676442763
435,1090638,661010,0.988,0.04,-0.026,-0.1,0.1,0,-34.6,6.1,26.7,0.174596393,0.699270608,-0.151371807,0.676442763
436,1092966,661010,0.988,0.04,-0.026,-0.1,0.2,0,-34.6,6.1,26.7,0.174596393,0.699270608,-0.151371807,0.676442763
437,1096108,661010,0.985,0.036,-0.018,0,0.2,0,-34.6,6.1,26.7,0.174596393,0.699270608,-0.151371807,0.676442763
438,1098052,661010,0.985,0.04,-0.026,0,0.2,0,-34.6,6.1,26.7,0.174596393,0.699270608,-0.151371807,0.676442763
439,1100786,661020,0.988,0.04,-0.018,0,0.1,0,-34.5,6.2,26.9,0.174596393,0.699270608,-0.151371807,0.676442763
440,1102949,661020,0.985,0.036,-0.022,0,0.1,0,-34.5,6.2,26.9,0.174596393,0.699270608,-0.151371807,0.676442763
441,1106475,661020,0.988,0.04,-0.018,0,0,0,-34.5,6.2,26.9,0.174596393,0.699270608,-0.151371807,0.676442763
442,1108064,661020,0.985,0.04,-0.022,0,0,0,-34.5,6.2,26.9,0.174596393,0.699270608,-0.151371807,0.676442763
443,1110604,661030,0.985,0.036,-0.026,0,0,0,-34.7,5.9,26.5,0.174596393,0.699270608,-0.151371807,0.676442763
444,1112917,661030,0.981,0.04,-0.026,0,0,0,-34.7,5.9,26.5,0.174596393,0.699240089,-0.151371807,0.676442763
445,1117066,661030,0.985,0.036,-0.022,0,0,0,-34.7,5.9,26.5,0.174596393,0.699240089,-0.151371807,0.676442763
446,1119327,661030,0.988,0.036,-0.022,0,0,0,-34.7,5.9,26.5,0.174596393,0.699240089,-0.151371807,0.676442763
447,1121479,661040,0.988,0.036,-0.022,0,0,0,-34.7,5.9,26.5,0.174596393,0.699240089,-0.151371807,0.676442763
448,1122973,661040,0.988,0.04,-0.022,0,-0.1,0,-34.5,5.9,26.9,0.174596393,0.699270608,-0.151371807,0.676442763
449,1126091,661040,0.985,0.04,-0.018,0,-0.1,0,-34.5,5.9,26.9,0.174596393,0.699270608,-0.151371807,0.676442763
450,1128567,661040,0.985,0.036,-0.026,0,0,0,-34.5,5.9,26.9,0.174596393,0.699270608,-0.151371807,0.676442763
451,1131700,661050,0.985,0.04,-0.022,0.1,0,0,-34.5,5.9,26.9,0.174596393,0.699270608,-0.151371807,0.676442763
452,1133202,661050,0.981,0.04,-0.022,0,0,0,-34.5,5.9,26.9,0.174565874,0.699270608,-0.151371807,0.676442763
453,1136175,661050,0.981,0.036,-0.022,0,0,0,-34.5,5.9,26.9,0.174565874,0.699270608,-0.151371807,0.676442763
454,1138512,661050,0.985,0.04,-0.022,0,0,0,-34.5,5.9,26.9,0.174565874,0.699270608,-0.151402326,0.676442763
455,1140646,661060,0.985,0.04,-0.022,0,0,0,-33.5,5.9,26.7,0.174565874,0.699270608,-0.151402326,0.676442763
456,1143685,661060,0.988,0.04,-0.022,0.1,0.1,0,-33.5,5.9,26.7,0.174565874,0.699270608,-0.151371807,0.676442763
457,1146053,661060,0.988,0.036,-0.018,0.1,0,0,-33.5,5.9,26.7,0.174565874,0.699270608,-0.151371807,0.676442763
458,1147981,661060,0.988,0.04,-0.026,0.1,0.1,0,-33.5,5.9,26.7,0.174565874,0.699270608,-0.151371807,0.676442763
459,1151585,661070,0.988,0.04,-0.026,0,0.2,0,-33.8,6,26.7,0.174565874,0.699270608,-0.151371807,0.676442763
460,1153095,661070,0.985,0.036,-0.026,0,0.2,0,-33.8,6,26.7,0.174565874,0.699270608,-0.151371807,0.676442763
461,1156159,661070,0.981,0.04,-0.026,0,0.1,0,-33.8,6,26.7,0.174565874,0.699270608,-0.151371807,0.676473281
462,1158507,661070,0.985,0.032,-0.018,0,0.1,0.1,-33.8,6,26.7,0.174565874,0.699240089,-0.151371807,0.676473281
463,1160632,661080,0.981,0.036,-0.022,0,0.1,0.1,-33.4,6,26.6,0.174565874,0.699240089,-0.151371807,0.676473281
464,1163623,661080,0.985,0.036,-0.022,0,0.1,0,-33.4,6,26.6,0.174565874,0.699240089,-0.151371807,0.676473281
465,1165888,661080,0.988,0.036,-0.022,0,0.1,-0.1,-33.4,6,26.6,0.174565874,0.699240089,-0.151371807,0.676473281
466,1168176,661080,0.985,0.04,-0.026,0,0.1,-0.2,-33.4,6,26.6,0.174565874,0.699240089,-0.151371807,0.676473281
467,1171145,661090,0.985,0.04,-0.026,0,0.1,-0.2,-33.4,6,26.6,0.174565874,0.699240089,-0.151371807,0.676473281
468,1173439,661090,0.985,0.04,-0.018,0,0.1,-0.1,-33.5,6,27,0.174565874,0.699240089,-0.151371807,0.676473281
469,1175602,661090,0.992,0.036,-0.022,0,0.1,0,-33.5,6,27,0.174565874,0.699240089,-0.151371807,0.676473281
470,1177879,661090,0.988,0.04,-0.026,0,0,0,-33.5,6,27,0.174565874,0.699240089,-0.151371807,0.676473281
471,1181655,661100,0.992,0.04,-0.018,0,-0.1,0,-33.5,6,27,0.174565874,0.699240089,-0.151371807,0.676473281
472,1183098,661100,0.988,0.036,-0.026,0.1,-0.1,0.1,-33.5,6,27,0.174565874,0.699240089,-0.151371807,0.676473281
473,1186212,661100,0.988,0.036,-0.022,0.1,0,0.1,-33.5,6,27,0.174565874,0.699240089,-0.151371807,0.676473281
474,1188409,661100,0.985,0.036,-0.022,0,0,0,-33.5,6,27,0.174565874,0.699240089,-0.151371807,0.676473281
475,1191603,661110,0.988,0.04,-0.018,0,0,0,-34.7,6,27,0.174565874,0.699240089,-0.151371807,0.676473281
476,1193170,661110,0.985,0.04,-0.026,0,0.1,0,-34.7,6,27,0.174565874,0.699240089,-0.151371807,0.676473281
477,1196133,661110,0.981,0.04,-0.022,0,0.1,-0.1,-34.7,6,27,0.174565874,0.699240089,-0.151371807,0.676473281
478,1199323,661110,0.985,0.04,-0.022,0,0.2,-0.1,-34.7,6,27,0.174565874,0.699240089,-0.151371807,0.676473281
479,1200678,661120,0.981,0.04,-0.022,0,0.1,-0.1,-35.1,6.2,26.8,0.174565874,0.699240089,-0.151371807,0.676473281
480,1204073,661120,0.981,0.04,-0.018,0,0,0,-35.1,6.2,26.8,0.174565874,0.699240089,-0.151371807,0.676473281
481,1205583,661120,0.981,0.036,-0.026,0,0,0,-35.1,6.2,26.8,0.174565874,0.699240089,-0.151371807,0.676473281
482,1207947,661120,0.988,0.036,-0.026,0,0.1,0,-35.1,6.2,26.8,0.174565874,0.699240089,-0.151371807,0.676473281
483,1211647,661130,0.988,0.036,-0.022,0,0.2,0,-34.7,6,26.7,0.174565874,0.699240089,-0.151371807,0.676473281
484,1213147,661130,0.988,0.04,-0.022,0,0.2,0,-34.7,6,26.7,0.174565874,0.699240089,-0.151371807,0.6765038
485,1216101,661130,0.988,0.04,-0.026,0,0.1,0,-34.7,6,26.7,0.174565874,0.699209571,-0.151371807,0.6765038
486,1217919,661130,0.988,0.04,-0.026,0,0.1,0,-34.7,6,26.7,0.174565874,0.699209571,-0.151371807,0.6765038
487,1220558,661140,0.988,0.04,-0.026,0,0.1,0,-34.7,6,26.7,0.174565874,0.699209571,-0.151371807,0.6765038
488,1223030,661140,0.985,0.036,-0.03,0,-0.1,0,-34.7,6,26.7,0.174565874,0.699240089,-0.151371807,0.676473281
489,1226582,661140,0.985,0.036,-0.022,0,-0.1,0,-34.7,6,26.7,0.174565874,0.699240089,-0.151371807,0.676473281
490,1228163,661140,0.985,0.036,-0.022,0,-0.1,0,-34.7,6,26.7,0.174565874,0.699240089,-0.151371807,0.676473281
491,1230679,661150,0.985,0.036,-0.022,0,0,0,-34.7,6,26.7,0.174565874,0.699240089,-0.151371807,0.676473281
492,1234097,661150,0.981,0.036,-0.018,0,0,-0.1,-34.7,6,26.7,0.174565874,0.699240089,-0.151371807,0.676473281
493,1235574,661150,0.981,0.04,-0.026,0,0,-0.1,-34.7,6,26.7,0.174565874,0.699240089,-0.151371807,0.676473281
494,1238127,661150,0.988,0.032,-0.022,0,0,0,-34.7,6,26.7,0.174596393,0.699240089,-0.151371807,0.676473281
495,1240702,661160,0.981,0.04,-0.026,0,0,0,-34.9,6.1,26.5,0.174596393,0.699240089,-0.151371807,0.676473281
496,1244682,661160,0.985,0.04,-0.026,0,0,0,-34.9,6.1,26.5,0.174596393,0.699240089,-0.151371807,0.676473281
497,1246484,661160,0.988,0.04,-0.018,0.1,0,0,-34.9,6.1,26.5,0.174565874,0.699240089,-0.151371807,0.676473281
498,1248069,661160,0.988,0.036,-0.018,0,0.1,0,-34.9,6.1,26.5,0.174565874,0.699240089,-0.151371807,0.676473281
499,1250625,661170,0.988,0.04,-0.022,0,0.1,0,-34.9,6.1,26.5,0.174565874,0.699240089,-0.151371807,0.676473281
500,1252929,661170,0.985,0.032,-0.026,-0.1,0.2,0,-34.9,6.1,26.5,0.174596393,0.699240089,-0.151371807,0.676473281
501,1255469,661170,0.988,0.036,-0.026,0,0.2,0,-34.9,6.1,26.5,0.174596393,0.699240089,-0.151371807,0.676473281
502,1258847,661170,0.988,0.04,-0.022,0,0.2,0,-34.9,6.1,26.5,0.174596393,0.699240089,-0.151371807,0.6765038
503,1260989,661180,0.988,0.04,-0.022,0,0.1,0,-34.9,6.1,26.5,0.174596393,0.699240089,-0.151371807,0.6765038
504,1263131,661180,0.988,0.036,-0.022,0,-0.1,0,-34.9,6.1,26.5,0.174596393,0.699240089,-0.151371807,0.6765038
505,1265494,661180,0.985,0.04,-0.026,0,-0.2,0,-34.9,6.1,26.5,0.174596393,0.699240089,-0.151371807,0.676473281
506,1267995,661180,0.981,0.036,-0.022,0,-0.3,0,-34.9,6.1,26.5,0.174596393,0.699240089,-0.151371807,0.676473281
507,1271495,661190,0.981,0.036,-0.022,0,-0.3,0,-34.9,6.1,26.5,0.174596393,0.699240089,-0.151371807,0.676473281
508,1273032,661190,0.988,0.036,-0.022,0,-0.3,0,-34.9,6.1,26.5,0.174565874,0.699240089,-0.151371807,0.676473281
509,1275620,661190,0.985,0.04,-0.022,0,-0.3,0.1,-34.9,6.1,26.5,0.174565874,0.699240089,-0.151371807,0.676473281
510,1279760,661190,0.988,0.032,-0.018,0,-0.1,0,-34.9,6.1,26.5,0.174565874,0.699240089,-0.151371807,0.676473281
511,1282128,661200,0.985,0.036,-0.026,0,0,0,-34.9,6.1,26.5,0.174565874,0.699240089,-0.151371807,0.676473281
512,1283958,661200,0.988,0.04,-0.022,0,0,0,-34.9,6.1,26.5,0.174565874,0.699240089,-0.151371807,0.676473281
513,1285535,661200,0.985,0.036,-0.026,0,0,-0.1,-34.9,6.1,26.5,0.174565874,0.699240089,-0.151371807,0.676473281
514,1288205,661200,0.985,0.036,-0.022,0,0.1,-0.1,-34.9,6.1,26.5,0.174565874,0.699240089,-0.151371807,0.676473281
515,1290491,661210,0.985,0.04,-0.018,-0.1,0.2,-0.1,-34.6,6,25,0.174565874,0.699240089,-0.151371807,0.676473281
516,1294578,661210,0.981,0.04,-0.022,-0.1,0.2,-0.1,-34.6,6,25,0.174596393,0.699240089,-0.151371807,0.676473281
517,1296752,661210,0.985,0.036,-0.022,0,0.1,-0.1,-34.6,6,25,0.174596393,0.699240089,-0.151371807,0.676473281
518,1298255,661210,0.985,0.044,-0.026,0,0,0,-34.6,6,25,0.174596393,0.699240089,-0.151371807,0.676473281
519,1300583,661220,0.988,0.04,-0.03,0,-0.1,0,-34.6,6,25,0.174596393,0.699240089,-0.151371807,0.676473281
520,1303949,661220,0.985,0.04,-0.026,0,-0.1,0,-34.6,6,25,0.174596393,0.699240089,-0.151371807,0.676473281
521,1305544,661220,0.985,0.044,-0.022,0,0,0,-34.6,6,25,0.174596393,0.699240089,-0.151371807,0.676473281
522,1308156,661220,0.985,0.036,-0.026,0,0,0,-34.6,6,25,0.174565874,0.699240089,-0.151371807,0.676473281
523,1310407,661230,0.988,0.04,-0.03,0,0,0,-34.6,6,25,0.174565874,0.699240089,-0.151371807,0.676473281
524,1314610,661230,0.985,0.036,-0.022,0,-0.1,0,-34.6,6,25,0.174565874,0.699240089,-0.151371807,0.676473281
525,1315332,661230,0.988,0.036,-0.026,0,-0.2,0,-34.6,6,25,0.174565874,0.699240089,-0.151371807,0.676473281
526,1317951,661230,0.988,0.036,-0.018,0,-0.3,0,-34.6,6,25,0.174565874,0.699270608,-0.151371807,0.676473281
527,1321224,661240,0.988,0.036,-0.018,0,-0.3,0,-34.6,6,25,0.174565874,0.699270608,-0.151371807,0.676473281
528,1323079,661240,0.985,0.036,-0.03,0,0,0,-34.6,6,25,0.174565874,0.699270608,-0.151371807,0.676442763
529,1325412,661240,0.988,0.036,-0.022,0,0,0,-34.6,6,25,0.174565874,0.699270608,-0.151371807,0.676442763
530,1328428,661240,0.985,0.04,-0.026,0,-0.1,0,-34.6,6,25,0.174565874,0.699270608,-0.151371807,0.676442763
531,1330568,661250,0.988,0.036,-0.03,0,-0.2,0,-34.6,6,25,0.174565874,0.699270608,-0.151371807,0.676442763
532,1333240,661250,0.988,0.036,-0.018,0,-0.3,0,-34.6,6,25,0.174565874,0.699270608,-0.151371807,0.676442763
533,1335389,661250,0.981,0.036,-0.022,0.1,-0.1,0,-34.6,6,25,0.174565874,0.699270608,-0.151371807,0.676442763
534,1338921,661250,0.985,0.032,-0.018,0,0,0,-34.6,6,25,0.174565874,0.699270608,-0.151371807,0.676442763
535,1341244,661260,0.988,0.04,-0.022,0,0,0,-34.8,6.2,26.5,0.174565874,0.699270608,-0.151371807,0.676442763
536,1343076,661260,0.988,0.036,-0.018,0,0,0,-34.8,6.2,26.5,0.174565874,0.699270608,-0.151371807,0.676442763
537,1345745,661260,0.992,0.036,-0.022,0,0,0,-34.8,6.2,26.5,0.174565874,0.699270608,-0.151371807,0.676442763
538,1348898,661260,0.985,0.04,-0.022,0,-0.1,0,-34.8,6.2,26.5,0.174565874,0.699270608,-0.151371807,0.676442763
539,1350810,661270,0.988,0.036,-0.026,0,-0.1,0,-34.8,6.2,26.5,0.174565874,0.699301126,-0.151371807,0.676442763
540,1353080,661270,0.988,0.036,-0.022,0,0,0,-34.8,6.2,26.5,0.174565874,0.699301126,-0.151371807,0.676442763
541,1355448,661270,0.985,0.036,-0.022,-0.1,0,0.1,-34.8,6.2,26.5,0.174565874,0.699301126,-0.151371807,0.676442763
542,1359081,661270,0.985,0.036,-0.022,0,0,0,-34.8,6.2,26.5,0.174565874,0.699270608,-0.151402326,0.676442763
543,1360620,661280,0.985,0.036,-0.022,0,0,0,-34.9,5.8,26.6,0.174565874,0.699270608,-0.151402326,0.676442763
544,1363239,661280,0.988,0.036,-0.022,0,0,-0.1,-34.9,5.8,26.6,0.174565874,0.699270608,-0.151402326,0.676442763
545,1365397,661280,0.985,0.032,-0.026,0,0,0,-34.9,5.8,26.6,0.174565874,0.699270608,-0.151402326,0.676442763
546,1368363,661280,0.988,0.036,-0.022,-0.1,0,0,-34.9,5.8,26.6,0.174565874,0.699270608,-0.151402326,0.676442763
547,1370561,661290,0.988,0.036,-0.022,-0.1,0,0,-34.9,5.8,26.6,0.174565874,0.699270608,-0.151402326,0.676442763
548,1373692,661290,0.985,0.036,-0.026,-0.1,0.1,0,-34.8,6.3,26.3,0.174535356,0.699270608,-0.151432844,0.676442763
549,1375981,661290,0.985,0.036,-0.022,0,0,0,-34.8,6.3,26.3,0.174535356,0.699270608,-0.151432844,0.676442763
550,1378275,661290,0.988,0.04,-0.022,0,0,0,-34.8,6.3,26.3,0.174535356,0.699270608,-0.151432844,0.676442763
551,1380511,661300,0.988,0.04,-0.018,0,0,0,-35.1,5.8,26.6,0.174535356,0.699270608,-0.151432844,0.676442763
552,1383093,661300,0.985,0.032,-0.018,0,0,0,-35.1,5.8,26.6,0.174535356,0.699270608,-0.151432844,0.676442763
553,1386494,661300,0.988,0.04,-0.022,0,0,-0.1,-35.1,5.8,26.6,0.174535356,0.699270608,-0.151432844,0.676442763
554,1388110,661300,0.985,0.036,-0.022,-0.1,0,0,-35.1,5.8,26.6,0.174535356,0.699270608,-0.151432844,0.676442763
555,1390783,661310,0.985,0.036,-0.018,-0.1,-0.1,0,-34.9,6.6,27.7,0.174535356,0.699270608,-0.151432844,0.676442763
556,1393114,661310,0.988,0.04,-0.022,0,-0.1,0.1,-34.9,6.6,27.7,0.174535356,0.699270608,-0.151432844,0.676442763
557,1396042,661310,0.988,0.036,-0.022,0,-0.2,0.1,-34.9,6.6,27.7,0.174535356,0.699270608,-0.151432844,0.676442763
558,1398221,661310,0.985,0.036,-0.026,0,-0.3,0,-34.9,6.6,27.7,0.174535356,0.699270608,-0.151432844,0.676442763
559,1400562,661320,0.985,0.036,-0.022,0,-0.2,0,-34.6,5.2,25.3,0.174535356,0.699301126,-0.151432844,0.676412244
560,1403100,661320,0.985,0.044,-0.018,0,-0.1,0,-34.6,5.2,25.3,0.174535356,0.699301126,-0.151432844,0.676412244
561,1405465,661320,0.985,0.04,-0.018,0,0,0,-34.6,5.2,25.3,0.174535356,0.699301126,-0.151432844,0.676412244
562,1408078,661320,0.981,0.036,-0.022,0,0,0,-34.6,5.2,25.3,0.174535356,0.699301126,-0.151432844,0.676412244
563,1410672,661330,0.985,0.044,-0.018,0,0,0,-34.7,4.7,25.5,0.174535356,0.699301126,-0.151432844,0.676412244
564,1412983,661330,0.985,0.04,-0.022,0,0,-0.1,-34.7,4.7,25.5,0.174535356,0.699301126,-0.151432844,0.676412244
565,1416182,661330,0.981,0.036,-0.026,0,0,-0.1,-34.7,4.7,25.5,0.174535356,0.699301126,-0.151432844,0.676412244
566,1418286,661330,0.985,0.036,-0.026,0,0,-0.1,-34.7,4.7,25.5,0.174535356,0.699301126,-0.151432844,0.676412244
567,1420597,661340,0.985,0.036,-0.026,0,0,-0.1,-34.7,4.7,25.5,0.174535356,0.699301126,-0.151432844,0.676412244
568,1423004,661340,0.988,0.04,-0.022,0,0,0,-34.4,4.4,26,0.174565874,0.699301126,-0.151402326,0.676412244
569,1426286,661340,0.985,0.032,-0.022,0,-0.1,0,-34.4,4.4,26,0.174565874,0.699301126,-0.151402326,0.676412244
570,1428537,661340,0.985,0.036,-0.026,0,-0.1,0,-34.4,4.4,26,0.174535356,0.699301126,-0.151402326,0.676412244
571,1430784,661350,0.985,0.036,-0.026,0,-0.1,0,-34.2,3.8,25.8,0.174535356,0.699301126,-0.151402326,0.676412244
572,1433143,661350,0.985,0.04,-0.018,0,-0.1,0,-34.2,3.8,25.8,0.174535356,0.699301126,-0.151402326,0.676412244
573,1435818,661350,0.988,0.036,-0.022,0,-0.1,0,-34.2,3.8,25.8,0.174535356,0.699301126,-0.151402326,0.676412244
574,1438097,661350,0.985,0.036,-0.026,0,-0.1,0,-34.2,3.8,25.8,0.174535356,0.699301126,-0.151402326,0.676412244
575,1440529,661360,0.988,0.04,-0.022,0,0,0,-34.7,7.9,27.3,0.174535356,0.699301126,-0.151402326,0.676412244
576,1443176,661360,0.988,0.04,-0.018,0.1,0,0,-34.7,7.9,27.3,0.174535356,0.699301126,-0.151402326,0.676412244
577,1445452,661360,0.985,0.036,-0.026,0.1,0,0,-34.7,7.9,27.3,0.174535356,0.699301126,-0.151402326,0.676412244
578,1448027,661360,0.985,0.04,-0.018,0.1,0,0,-34.7,7.9,27.3,0.174535356,0.699301126,-0.151402326,0.676412244
579,1452108,661370,0.988,0.04,-0.026,0,-0.1,0,-34.7,5.4,26.2,0.174535356,0.699301126,-0.151402326,0.676412244
580,1454259,661370,0.985,0.032,-0.026,0,-0.2,0,-34.7,5.4,26.2,0.174535356,0.699331645,-0.151402326,0.676381726
581,1456593,661370,0.988,0.04,-0.026,0,-0.1,0,-34.7,5.4,26.2,0.174535356,0.699331645,-0.151402326,0.676381726
582,1459588,661370,0.985,0.036,-0.022,0,-0.1,0,-34.7,5.4,26.2,0.174535356,0.699331645,-0.151402326,0.676381726
583,1460399,661380,0.988,0.044,-0.022,0,0,-0.1,-35,6.5,26,0.174535356,0.699331645,-0.151402326,0.676381726
584,1464105,661380,0.985,0.036,-0.022,0,0,0,-35,6.5,26,0.174565874,0.699331645,-0.151402326,0.676381726
585,1465561,661380,0.985,0.04,-0.026,0,0,0,-35,6.5,26,0.174565874,0.699331645,-0.151402326,0.676381726
586,1467986,661380,0.988,0.04,-0.018,0,0,0,-35,6.5,26,0.174565874,0.699331645,-0.151402326,0.676381726
587,1471507,661390,0.988,0.04,-0.018,0,0,0,-35,6.5,26,0.174565874,0.699331645,-0.151402326,0.676381726
588,1473012,661390,0.985,0.036,-0.022,0,0,0.1,-35.1,6.4,26.1,0.174565874,0.699331645,-0.151402326,0.676381726
589,1475956,661390,0.985,0.036,-0.018,0.1,0,0,-35.1,6.4,26.1,0.174565874,0.699331645,-0.151402326,0.676381726
590,1478247,661390,0.985,0.04,-0.03,0,0,0,-35.1,6.4,26.1,0.174565874,0.699331645,-0.151402326,0.676381726
591,1481118,661400,0.988,0.036,-0.018,0,0,-0.1,-35,7.6,26.4,0.174565874,0.699331645,-0.151402326,0.676381726
592,1482984,661400,0.117,-0.065,0.009,-0.1,0,0,-35,7.6,26.4,0.174565874,0.699331645,-0.151402326,0.676381726
593,1485934,661400,-1.426,-0.774,-0.664,-0.2,0.4,-0.1,-35,7.6,26.4,0.174565874,0.699301126,-0.151402326,0.676412244
594,1488217,661400,1.043,-0.872,-5.189,-3.7,16.8,0.2,-35,7.6,26.4,0.174687948,0.699056978,-0.151402326,0.676656392
595,1490415,661410,-1.631,0.439,-2.957,-8.7,82.3,-2.1,-34.7,6.2,26.8,0.175115207,0.697805719,-0.151158177,0.677846614
596,1494088,661410,2.254,1.553,-7.604,-1,164.4,-10.8,-34.7,6.2,26.8,0.175847652,0.695394757,-0.150395215,0.680318613
597,1495466,661410,3.475,2.194,-4.695,23.2,187.2,-22.4,-34.7,6.2,26.8,0.176427503,0.692770165,-0.148991363,0.683126316
598,1498310,661410,3.339,0.939,-0.906,44.7,101.2,-29.7,-34.7,6.2,26.8,0.176519059,0.691549425,-0.147465438,0.684713279
599,1501316,661420,4.972,0.585,0.319,33.4,-35.1,-27.3,-36.1,6.9,26.5,0.176335948,0.692281869,-0.146702475,0.684163945
600,1503043,661420,1.3,1.457,2.764,3.4,-113.2,-19.7,-36.1,6.9,26.5,0.176213874,0.694051943,-0.146794031,0.682393872
601,1505618,661420,-0.039,1.189,4.473,-17.2,-76.1,-11.4,-36.1,6.9,26.5,0.176396985,0.695150609,-0.147160253,0.681142613
602,1508477,661420,2.107,-0.568,3.254,-17.6,24.8,-3.9,-36.1,6.9,26.5,0.176793725,0.69472335,-0.147282327,0.681447798
603,1511539,661430,1.034,-1.029,4.382,-16.8,105.7,2.9,-35.2,6.2,26.9,0.177343059,0.69307535,-0.147160253,0.683004242
604,1513069,661430,0.1,-1.024,2.711,-23.1,121.7,7.8,-35.2,6.2,26.9,0.177953429,0.691152684,-0.147160253,0.684804834
605,1515595,661430,-0.709,-0.267,3.381,-25.3,103.3,8.7,-35.2,6.2,26.9,0.178563799,0.689474166,-0.147251808,0.686300241
606,1519086,661430,-0.197,-0.882,1.463,-16.9,81.9,5.4,-35.2,6.2,26.9,0.178991058,0.68816187,-0.147282327,0.687520981
607,1520540,661440,-0.197,-0.882,1.463,-16.9,81.9,5.4,-35.2,6.2,26.9,0.178991058,0.68816187,-0.147282327,0.687520981
608,1522863,661440,-0.158,0.149,0.228,4.3,21.4,-2.9,-35.6,7.2,27.5,0.179265725,0.687002167,-0.146946623,0.688650166
609,1525346,661440,-0.153,-0.045,-0.812,11.5,-4.8,-4.9,-35.6,7.2,27.5,0.179174169,0.687154759,-0.146702475,0.688589129
610,1528786,661440,-0.098,-0.266,-0.79,16,-14.6,-5.2,-35.6,7.2,27.5,0.178930021,0.687459944,-0.146458327,0.688406018
611,1530551,661450,0.131,-0.11,-0.618,13.3,-13.8,-4,-36.1,6.4,27.5,0.178777429,0.687734611,-0.146244697,0.688222907
612,1534056,661450,0.548,-0.082,-0.447,3.9,-12.8,-1.8,-36.1,6.4,27.5,0.178685873,0.687948241,-0.146214179,0.688039796
613,1535660,661450,1.163,-0.492,0.016,-5.7,-14.8,0.3,-36.1,6.4,27.5,0.17874691,0.688131352,-0.146366771,0.687795648
614,1538608,661450,1.362,-0.336,0.221,-11.3,-18.3,1.9,-36.1,6.4,27.5,0.178807947,0.688344981,-0.146641438,0.687490463
615,1541594,661460,1.393,-0.186,0.286,-11.8,-19.9,2.5,-35.8,5.4,27.3,0.178899503,0.688589129,-0.146946623,0.687154759
616,1543131,661460,1.21,0.038,-0.155,-7.1,-16.9,2.2,-35.8,5.4,27.3,0.178899503,0.688833277,-0.147160253,0.686880093
617,1546144,661460,1.132,0.212,-0.298,0.4,-9.8,1.2,-35.8,5.4,27.3,0.178838466,0.688955351,-0.147190771,0.6867275
618,1548971,661460,1.074,0.224,-0.402,7.3,-1.8,0.5,-35.8,5.4,27.3,0.178716391,0.689016388,-0.147099216,0.6867275
619,1550502,661470,1.023,0.169,-0.345,10.7,3.1,0.3,-37.1,7.8,27.4,0.178563799,0.689016388,-0.146946623,0.686819056
620,1553531,661470,1.004,0.067,-0.148,9.9,3.2,0.9,-37.1,7.8,27.4,0.178411206,0.689016388,-0.146794031,0.686910611
621,1556548,661470,1.023,-0.01,-0.129,6.2,-0.2,2,-37.1,7.8,27.4,0.178289132,0.689016388,-0.146702475,0.68694113
622,1557958,661470,1.035,-0.03,-0.168,2.1,-4.7,3.1,-37.1,7.8,27.4,0.178197577,0.689107944,-0.146763512,0.686880093
623,1560985,661480,1.016,0.001,-0.093,-0.5,-8.1,3.9,-37.3,7.8,27.7,0.178106021,0.689199499,-0.146855068,0.686758019
624,1564015,661480,1.016,0.02,-0.031,-1,-9.2,4.2,-37.3,7.8,27.7,0.178044984,0.689321574,-0.146977142,0.686635945
625,1565503,661480,1.012,0.052,0.09,-0.3,-9,4.2,-37.3,7.8,27.7,0.177953429,0.689443648,-0.147068697,0.686513871
626,1568296,661480,1.016,0.068,0.18,0.5,-8.3,4,-37.3,7.8,27.7,0.177861873,0.689565722,-0.147160253,0.686422315
627,1571166,661490,1.016,0.068,0.18,0.5,-8.3,4,-37.3,7.8,27.7,0.177861873,0.689565722,-0.147160253,0.686422315
628,1574053,661490,0.989,0.053,0.227,0.2,-6.9,4.1,-38,7.5,27.5,0.177678762,0.689748833,-0.147312845,0.686239204
629,1575591,661490,0.989,0.061,0.227,-0.7,-5.8,4.3,-38,7.5,27.5,0.177587207,0.689840388,-0.147434919,0.686147649
630,1578451,661490,1.012,0.013,0.164,-1.3,-4.6,4.5,-38,7.5,27.5,0.17752617,0.689870907,-0.147526475,0.686086612
631,1581569,661500,1.004,0.017,0.121,-1.7,-3.7,4.8,-38.1,7.8,27.2,0.177495651,0.689901425,-0.147648549,0.686056093
632,1583088,661500,0.981,0.041,0.051,-1.8,-3.6,4.9,-38.1,7.8,27.2,0.177434614,0.689931944,-0.147770623,0.686025575
633,1585930,661500,1.02,0.06,0,-1.6,-4.2,4.9,-38.1,7.8,27.2,0.177373577,0.689992981,-0.147892697,0.685964537
634,1588682,661500,0.992,0.068,-0.097,-1,-5,4.7,-38.1,7.8,27.2,0.177282022,0.690054018,-0.147984252,0.6859035
635,1591531,661510,1.016,0.071,-0.082,-0.5,-5.7,4.4,-34.6,5.9,27.5,0.177220985,0.690115055,-0.148075808,0.685842463
636,1592985,661510,0.969,0.088,-0.073,-0.5,-6.5,4.1,-34.6,5.9,27.5,0.177129429,0.69020661,-0.148167364,0.685750908
637,1596026,661510,1.008,0.115,-0.05,-0.8,-7.7,3.8,-34.6,5.9,27.5,0.177068392,0.690298166,-0.148289438,0.685628834
638,1598932,661510,1,0.111,-0.011,-1.4,-8.7,3.5,-34.6,5.9,27.5,0.176976836,0.69042024,-0.148380993,0.68550676
639,1600548,661520,0.993,0.119,-0.007,-1.9,-9.2,3.3,-36.7,6.5,27.4,0.176946318,0.690511795,-0.148503067,0.685384686
640,1603542,661520,1.004,0.131,0.003,-2.5,-8.8,3.1,-36.7,6.5,27.4,0.176915799,0.690633869,-0.148625141,0.685262612
641,1606501,661520,1.047,0.142,0.092,-2.7,-8.3,2.8,-36.7,6.5,27.4,0.176885281,0.690755943,-0.148747215,0.685140538
642,1607960,661520,1.008,0.135,0.121,-2.8,-8.1,2.5,-36.7,6.5,27.4,0.176885281,0.690847499,-0.148838771,0.685018464
643,1611051,661530,1.047,0.127,0.08,-2.8,-8.4,2.3,-35.7,6.8,27.6,0.176854762,0.690939055,-0.148960845,0.68489639
644,1614056,661530,1.012,0.127,0.121,-2.7,-8.6,2.2,-35.7,6.8,27.6,0.176824244,0.691061129,-0.149082919,0.684743797
645,1615508,661530,0.966,0.116,0.138,-2.5,-8.3,2,-35.7,6.8,27.6,0.176824244,0.691183203,-0.149174474,0.684621723
646,1618590,661530,1.02,0.107,0.093,-2.1,-7.5,2,-35.7,6.8,27.6,0.176793725,0.691274758,-0.14926603,0.684499649
647,1621600,661540,1.02,0.107,0.093,-2.1,-7.5,2,-35.7,6.8,27.6,0.176793725,0.691274758,-0.14926603,0.684499649
648,1623110,661540,0.923,0.069,0.12,-1.9,-6.2,1.8,-35.5,6.8,27.9,0.177220985,0.69103061,-0.148960845,0.684713279
649,1626090,661540,0.954,0.064,0.076,-2.2,-6.6,1.6,-35.5,6.8,27.9,0.177220985,0.691091647,-0.1490524,0.684621723
650,1629073,661540,0.942,0.057,0.08,-2.5,-7.7,1.4,-35.5,6.8,27.9,0.177190466,0.691213721,-0.149143956,0.684499649
651,1630571,661550,0.942,0.037,0.123,-2.7,-9,1.3,-34.6,6.6,27.7,0.177190466,0.691335795,-0.149235511,0.684347056
652,1633448,661550,0.942,0.041,0.111,-2.9,-10.3,1.1,-34.6,6.6,27.7,0.177190466,0.691457869,-0.149357585,0.684194464
653,1636553,661550,0.954,0.049,0.115,-3,-11.9,1,-34.6,6.6,27.7,0.177190466,0.69164098,-0.149449141,0.684011353
654,1638000,661550,0.95,0.041,0.127,-3,-13.7,0.8,-34.6,6.6,27.7,0.177159948,0.691824091,-0.149571215,0.683797723
655,1641038,661560,0.942,0.033,0.1,-2.9,-15.7,0.6,-35.5,6.2,27.6,0.177159948,0.692037721,-0.149693289,0.683553575
656,1643969,661560,0.942,0.017,0.08,-2.6,-17.4,0.4,-35.5,6.2,27.6,0.177129429,0.692281869,-0.149784845,0.683278909
657,1645799,661560,0.938,0.017,0.092,-2.3,-18.6,0.2,-35.5,6.2,27.6,0.17709891,0.692556536,-0.149906919,0.683004242
658,1647909,661560,0.942,0.021,0.1,-1.9,-19.3,0,-35.5,6.2,27.6,0.177068392,0.692831202,-0.149998474,0.682699057
659,1650556,661570,0.919,-0.005,0.081,-1.5,-19.4,0,-35.3,6.4,27.7,0.177037873,0.693136387,-0.150120548,0.682393872
660,1653708,661570,0.918,-0.013,0.073,-1.1,-19.2,0.1,-35.3,6.4,27.7,0.176976836,0.693411054,-0.150212104,0.682088687
661,1655446,661570,0.915,-0.013,0.097,-0.7,-18.8,0.2,-35.3,6.4,27.7,0.176915799,0.69368572,-0.150303659,0.68181402
662,1657933,661570,0.915,-0.021,0.093,-0.3,-18.2,0.2,-35.3,6.4,27.7,0.176854762,0.693960387,-0.150364696,0.681539354
663,1661042,661580,0.922,-0.025,0.057,0.1,-17.6,0.2,-34.8,6.8,27.4,0.176793725,0.694204535,-0.150425733,0.681264687
664,1663996,661580,0.93,-0.013,0.041,0.7,-17.1,0.4,-34.8,6.8,27.4,0.176732688,0.694479202,-0.15048677,0.681020539
665,1665695,661580,0.942,0.005,0.029,1.3,-16.7,0.3,-34.8,6.8,27.4,0.176641133,0.69472335,-0.150547807,0.680776391
666,1668092,661580,0.969,0.009,0.021,1.9,-16.4,0.2,-34.8,6.8,27.4,0.176549577,0.694967498,-0.150578326,0.680532243
667,1670826,661590,0.969,0.009,0.021,1.9,-16.4,0.2,-34.8,6.8,27.4,0.176549577,0.694967498,-0.150578326,0.680532243
668,1674140,661590,0.985,0.029,-0.002,2.8,-16.6,0,-34.9,6.2,27.5,0.176305429,0.695394757,-0.1507004,0.680135502
669,1676136,661590,0.996,0.032,-0.015,3,-17.1,0,-34.9,6.2,27.5,0.176213874,0.695638905,-0.1507004,0.679891354
670,1678538,661590,0.992,0.036,-0.046,3.2,-17.6,0,-34.9,6.2,27.5,0.1760918,0.695913572,-0.150730918,0.679647206
671,1681539,661600,1,0.036,-0.097,3.2,-18,0,-35,6.7,27.2,0.176000244,0.696188238,-0.150761437,0.679372539
672,1683138,661600,0.996,0.04,-0.12,3.3,-18.3,0,-35,6.7,27.2,0.17587817,0.696493423,-0.150761437,0.679097873
673,1686071,661600,1.008,0.04,-0.199,3.4,-18.4,0,-35,6.7,27.2,0.175756096,0.69676809,-0.150791955,0.678853725
674,1687929,661600,1.019,0.04,-0.235,3.5,-18.2,0,-35,6.7,27.2,0.175664541,0.697042756,-0.150822474,0.678579058
675,1690694,661610,1.031,0.047,-0.255,3.4,-17.5,0.1,-36.2,6,26.8,0.175542467,0.697317423,-0.150822474,0.67833491
676,1693717,661610,1.07,0.059,-0.307,3.3,-16.7,0,-36.2,6,26.8,0.175420392,0.69759209,-0.150852992,0.678090762
677,1695964,661610,1.085,0.058,-0.331,3.1,-15.7,0,-36.2,6,26.8,0.175328837,0.697836238,-0.150852992,0.677846614
678,1698906,661610,1.101,0.066,-0.339,3,-14.5,0,-36.2,6,26.8,0.175237281,0.698049867,-0.150883511,0.677632984
679,1700533,661620,1.109,0.07,-0.355,2.8,-13.1,0,-33.5,6.4,26.8,0.175145726,0.698263497,-0.150883511,0.677449873
680,1703604,661620,1.112,0.074,-0.359,2.5,-11.5,-0.1,-33.5,6.4,26.8,0.175084689,0.698446608,-0.150883511,0.677266762
681,1705818,661620,1.112,0.07,-0.355,2.1,-9.5,-0.1,-33.5,6.4,26.8,0.175023652,0.6985992,-0.150883511,0.677144688
682,1708848,661620,1.101,0.062,-0.347,1.6,-7.2,-0.1,-33.5,6.4,26.8,0.174962615,0.698721274,-0.150883511,0.677022614
683,1711030,661630,1.074,0.059,-0.331,1.2,-4.9,0,-34,6.2,26.8,0.174932096,0.698782311,-0.150883511,0.676961577
684,1713278,661630,1.054,0.047,-0.314,0.8,-2.6,0,-34,6.2,26.8,0.174901578,0.698843348,-0.150883511,0.676931059
685,1715511,661630,1.035,0.039,-0.294,0.6,-0.7,0.1,-34,6.2,26.8,0.174901578,0.698843348,-0.150883511,0.67690054
686,1718015,661630,1.015,0.032,-0.27,0.3,0.8,0.1,-34,6.2,26.8,0.174901578,0.698843348,-0.150883511,0.676931059
687,1721518,661640,1.015,0.032,-0.27,0.3,0.8,0.1,-34,6.2,26.8,0.174901578,0.698843348,-0.150883511,0.676931059
688,1723064,661640,0.98,0.036,-0.194,0,2.9,0.1,-33.3,6.4,26.7,0.174840541,0.698965423,-0.150883511,0.676808985
689,1725783,661640,0.973,0.04,-0.159,0.1,3.5,0,-33.3,6.4,26.7,0.174871059,0.698904386,-0.150883511,0.676870022
690,1729825,661640,0.973,0.048,-0.108,0.1,3.8,0,-33.3,6.4,26.7,0.174871059,0.698843348,-0.150852992,0.676931059
691,1732116,661650,0.973,0.052,-0.084,0,3.8,0,-33.6,6.3,26.6,0.174871059,0.698782311,-0.150852992,0.676992096
692,1734164,661650,0.977,0.056,-0.061,0,3.8,-0.1,-33.6,6.3,26.6,0.174901578,0.698721274,-0.150822474,0.677022614
693,1735804,661650,0.989,0.064,-0.03,-0.1,3.8,-0.1,-33.6,6.3,26.6,0.174901578,0.698690756,-0.150822474,0.677083651
694,1738015,661650,1,0.068,0.004,-0.3,3.8,-0.1,-33.6,6.3,26.6,0.174932096,0.698629719,-0.150822474,0.677144688
695,1740706,661660,1.004,0.064,0.023,-0.6,3.6,-0.1,-35.6,6.2,27,0.174962615,0.698568682,-0.150791955,0.677205725
696,1742928,661660,1.016,0.068,0.027,-1,3.6,0,-35.6,6.2,27,0.174993133,0.698507645,-0.150791955,0.677266762
697,1745965,661660,1.012,0.056,0.043,-1.4,3.6,0,-35.6,6.2,27,0.175023652,0.698446608,-0.150822474,0.677297281
698,1748233,661660,1.004,0.052,0.059,-1.8,3.9,0.1,-35.6,6.2,27,0.175023652,0.698385571,-0.150822474,0.677358318
699,1750631,661670,0.993,0.04,0.067,-2.3,4.4,0.1,-34.4,5.8,27,0.175115207,0.698294015,-0.150852992,0.677419355
700,1752984,661670,0.981,0.037,0.063,-2.7,4.9,0.2,-34.4,5.8,27,0.175145726,0.698232978,-0.150883511,0.677480392
701,1755500,661670,0.954,0.021,0.076,-2.9,5.2,0.2,-34.4,5.8,27,0.175206763,0.698141423,-0.150914029,0.677571947
702,1758623,661670,0.938,0.017,0.076,-2.8,5.3,0.1,-34.4,5.8,27,0.1752678,0.698049867,-0.150914029,0.677632984
703,1760807,661680,0.922,0.006,0.077,-2.6,5,0.1,-34.1,6,26.9,0.175328837,0.697958312,-0.150944548,0.677694021
704,1763105,661680,0.911,0.01,0.077,-2.2,4.6,0.1,-34.1,6,26.9,0.175389874,0.697866756,-0.150975066,0.677755058
705,1765697,661680,0.915,0.006,0.069,-1.7,3.8,0,-34.1,6,26.9,0.175420392,0.697805719,-0.150975066,0.677816095
706,1768217,661680,0.915,0.006,0.069,-1.2,2.7,0,-34.1,6,26.9,0.175450911,0.697775201,-0.150975066,0.677846614
707,1770383,661690,0.915,0.006,0.069,-1.2,2.7,0,-34.1,6,26.9,0.175450911,0.697775201,-0.150975066,0.677846614
708,1773765,661690,0.95,0.017,0.056,-0.3,0.3,0,-34.3,5.7,27.1,0.175450911,0.697622608,-0.151005585,0.677999207
709,1775976,661690,0.961,0.021,0.052,0.1,-0.8,0.1,-34.3,5.7,27.1,0.175450911,0.697622608,-0.151005585,0.677999207
710,1778533,661690,0.973,0.029,0.044,0.6,-1.9,0,-34.3,5.7,27.1,0.175450911,0.697653127,-0.151005585,0.677968688
711,1780618,661700,1,0.036,0.031,1,-2.7,0,-34.4,6,26.8,0.175420392,0.697683645,-0.151005585,0.677938169
712,1782874,661700,1.008,0.044,0.027,1.2,-3.3,0,-34.4,6,26.8,0.175389874,0.697744682,-0.151005585,0.677877132
713,1786542,661700,1.012,0.052,0.023,1.3,-3.4,0,-34.4,6,26.8,0.175359355,0.697805719,-0.151005585,0.677846614
714,1788502,661700,1.012,0.052,0.019,1.5,-3.2,-0.1,-34.4,6,26.8,0.175328837,0.697866756,-0.150975066,0.677785577
715,1790771,661710,0.992,0.056,0,1.6,-2.8,-0.1,-34.9,6.1,26.9,0.175298318,0.697897275,-0.150975066,0.677755058
716,1793984,661710,0.985,0.056,0,1.5,-2.4,-0.1,-34.9,6.1,26.9,0.1752678,0.697958312,-0.150944548,0.67772454
717,1796161,661710,0.981,0.052,-0.014,1.4,-2.2,0,-34.9,6.1,26.9,0.175237281,0.69798883,-0.150944548,0.677694021
718,1798429,661710,0.961,0.048,-0.037,1.1,-2,0,-34.9,6.1,26.9,0.175206763,0.698019349,-0.150914029,0.677663503
719,1800847,661720,0.973,0.036,-0.041,0.8,-1.9,0,-34.9,6.2,27,0.175176244,0.698049867,-0.150914029,0.677632984
720,1802884,661720,0.969,0.044,-0.045,0.5,-2,0,-34.9,6.2,27,0.175176244,0.698080386,-0.150914029,0.677602466
721,1805882,661720,0.973,0.04,-0.057,0.2,-2.2,0,-34.9,6.2,27,0.175145726,0.698110904,-0.150944548,0.677571947
722,1808176,661720,0.981,0.036,-0.061,0.1,-2.5,0.1,-34.9,6.2,27,0.175145726,0.698171941,-0.150944548,0.677541429
723,1811959,661730,0.988,0.036,-0.069,0,-2.7,0.1,-35.1,6.4,27.7,0.175115207,0.69820246,-0.150944548,0.67751091
724,1813918,661730,1,0.036,-0.077,0,-3.1,0.2,-35.1,6.4,27.7,0.175115207,0.698263497,-0.150975066,0.677449873
725,1816177,661730,1.012,0.036,-0.086,0,-3.2,0,-35.1,6.4,27.7,0.175115207,0.698294015,-0.150975066,0.677388836
726,1818371,661730,1.012,0.036,-0.09,0.1,-3.3,0,-35.1,6.4,27.7,0.175084689,0.698355052,-0.151005585,0.677358318
727,1820665,661740,1.012,0.036,-0.09,0.1,-3.3,0,-35.1,6.4,27.7,0.175084689,0.698355052,-0.151005585,0.677358318
728,1823020,661740,1.023,0.032,-0.086,0.2,-2.8,0,-34.8,6.4,28,0.175023652,0.698538163,-0.151036103,0.677144688
729,1825336,661740,1.016,0.036,-0.09,0.2,-2.3,0,-34.8,6.4,28,0.175023652,0.698568682,-0.151036103,0.67711417
730,1828922,661740,1.012,0.04,-0.082,0.2,-1.7,0,-34.8,6.4,28,0.174993133,0.6985992,-0.151036103,0.677083651
731,1830557,661750,1.008,0.04,-0.089,0.2,-0.9,0,-34.6,6.5,28.6,0.174993133,0.698629719,-0.151036103,0.677083651
732,1832981,661750,1,0.036,-0.081,0.2,-0.2,0,-34.6,6.5,28.6,0.174993133,0.698629719,-0.151036103,0.677083651
733,1836133,661750,0.984,0.04,-0.081,0.1,0.2,0,-34.6,6.5,28.6,0.174993133,0.698629719,-0.151036103,0.677083651
734,1838038,661750,0.981,0.036,-0.073,0,0.7,0,-34.6,6.5,28.6,0.174993133,0.6985992,-0.151036103,0.677083651
735,1840488,661760,0.981,0.036,-0.069,0,1,0,-34.7,6.4,25.1,0.174993133,0.6985992,-0.151036103,0.67711417
736,1844104,661760,0.977,0.04,-0.053,0,1,0,-34.7,6.4,25.1,0.174993133,0.698568682,-0.151036103,0.67711417
737,1846453,661760,0.977,0.04,-0.053,0.1,1,0,-34.7,6.4,25.1,0.174993133,0.698568682,-0.151036103,0.677144688
738,1848663,661760,0.985,0.04,-0.046,0,0.7,0,-34.7,6.4,25.1,0.174993133,0.698538163,-0.151036103,0.677144688
739,1851106,661770,0.985,0.04,-0.046,0,0.6,0.1,-35.1,6.2,27.2,0.174993133,0.698538163,-0.151036103,0.677175207
740,1853401,661770,0.992,0.04,-0.026,0,0.4,0.1,-35.1,6.2,27.2,0.174993133,0.698538163,-0.151036103,0.677175207
741,1856749,661770,0.996,0.044,-0.022,0,0.4,0.1,-35.1,6.2,27.2,0.174993133,0.698538163,-0.151036103,0.677175207
742,1858870,661770,1.004,0.044,-0.011,0,0.3,0,-35.1,6.2,27.2,0.174993133,0.698538163,-0.151036103,0.677175207
743,1860999,661780,0.996,0.044,-0.011,0,0.3,0,-35,5.7,27.2,0.175023652,0.698507645,-0.151036103,0.677175207
744,1863463,661780,0.996,0.04,-0.003,-0.1,0.4,0,-35,5.7,27.2,0.175023652,0.698507645,-0.151036103,0.677205725
745,1865385,661780,0.992,0.044,-0.007,-0.3,0.6,0.2,-35,5.7,27.2,0.175023652,0.698507645,-0.151036103,0.677205725
746,1869211,661780,0.988,0.036,-0.007,-0.4,0.9,0.2,-35,5.7,27.2,0.175023652,0.698477126,-0.151036103,0.677205725
747,1871314,661790,0.988,0.036,-0.007,-0.4,0.9,0.2,-35,5.7,27.2,0.175023652,0.698477126,-0.151036103,0.677205725
748,1873301,661790,0.969,0.037,0.005,-0.5,1.3,0,-35,5.8,26.9,0.175023652,0.698385571,-0.151036103,0.677297281
749,1876674,661790,0.969,0.029,-0.002,-0.4,1.3,0,-35,5.8,26.9,0.175084689,0.698355052,-0.151036103,0.677327799
750,1878820,661790,0.961,0.033,0.005,-0.4,1.1,0,-35,5.8,26.9,0.175084689,0.698355052,-0.151036103,0.677358318
751,1881096,661800,0.969,0.033,0.001,-0.3,0.7,0,-35.2,6,26.5,0.175084689,0.698324534,-0.151036103,0.677358318
752,1883223,661800,0.973,0.029,0.001,-0.3,0.2,0,-35.2,6,26.5,0.175115207,0.698324534,-0.151036103,0.677358318
753,1885602,661800,0.973,0.029,-0.002,-0.2,-0.1,0,-35.2,6,26.5,0.175115207,0.698324534,-0.151036103,0.677358318
754,1888022,661800,0.989,0.036,0,-0.1,-0.3,0,-35.2,6,26.5,0.175115207,0.698324534,-0.151036103,0.677358318
755,1890387,661810,0.989,0.036,0,0,-0.6,0,-35.1,6,26.1,0.175115207,0.698355052,-0.151036103,0.677327799
756,1894553,661810,0.992,0.036,0,0.1,-0.7,0,-35.1,6,26.1,0.175084689,0.698355052,-0.151036103,0.677327799
757,1895417,661810,0.992,0.04,-0.007,0.2,-0.7,0,-35.1,6,26.1,0.175084689,0.698355052,-0.151036103,0.677327799
758,1897847,661810,0.992,0.044,-0.011,0.4,-0.6,-0.1,-35.1,6,26.1,0.175084689,0.698385571,-0.151036103,0.677297281
759,1901338,661820,0.988,0.04,-0.014,0.4,-0.4,-0.1,-34.9,5.8,26.1,0.175084689,0.698385571,-0.151036103,0.677297281
760,1903651,661820,0.988,0.04,-0.01,0.4,-0.3,-0.1,-34.9,5.8,26.1,0.175084689,0.698385571,-0.151036103,0.677297281
761,1905895,661820,0.985,0.04,-0.018,0.3,-0.3,0,-34.9,5.8,26.1,0.175023652,0.698385571,-0.151036103,0.677297281
762,1908065,661820,0.981,0.04,-0.026,0.2,-0.2,0.1,-34.9,5.8,26.1,0.175023652,0.698416089,-0.151036103,0.677297281
763,1911166,661830,0.977,0.044,-0.022,0.1,-0.1,0.1,-35.1,6.2,26.3,0.175023652,0.698416089,-0.151036103,0.677297281
764,1913083,661830,0.981,0.044,-0.026,0.2,-0.1,0.2,-35.1,6.2,26.3,0.175023652,0.698416089,-0.151036103,0.677297281
765,1915982,661830,0.977,0.04,-0.03,0.2,-0.2,0.2,-35.1,6.2,26.3,0.175023652,0.698416089,-0.151036103,0.677297281
766,1918091,661830,0.981,0.04,-0.034,0.1,-0.4,0,-35.1,6.2,26.3,0.175023652,0.698416089,-0.151036103,0.677297281
767,1921388,661840,0.981,0.04,-0.034,0.1,-0.4,0,-35.1,6.2,26.3,0.175023652,0.698416089,-0.151036103,0.677297281
768,1923605,661840,0.985,0.036,-0.034,0,-0.9,0,-34.8,6,26.5,0.175023652,0.698477126,-0.151036103,0.677205725
769,1925700,661840,0.985,0.036,-0.034,0,-1,0,-34.8,6,26.5,0.175023652,0.698507645,-0.151036103,0.677205725
770,1928021,661840,0.992,0.036,-0.034,0,-1.1,0,-34.8,6,26.5,0.175023652,0.698507645,-0.151036103,0.677175207
771,1930780,661850,1,0.032,-0.038,0.1,-1,0,-34.9,6.1,25.9,0.175023652,0.698538163,-0.151036103,0.677175207
772,1933505,661850,1,0.044,-0.03,0.1,-0.9,0,-34.9,6.1,25.9,0.175023652,0.698538163,-0.151036103,0.677144688
773,1935518,661850,1.004,0.04,-0.031,0.1,-0.7,0,-34.9,6.1,25.9,0.175023652,0.698568682,-0.151036103,0.677144688
774,1937842,661850,1,0.04,-0.03,0.1,-0.4,0,-34.9,6.1,25.9,0.175023652,0.698568682,-0.151036103,0.677144688
775,1942045,661860,0.996,0.044,-0.03,0.1,-0.1,0,-34.9,6.2,27.2,0.175023652,0.698568682,-0.151036103,0.677144688
776,1943478,661860,0.992,0.044,-0.026,0,0.1,0,-34.9,6.2,27.2,0.174993133,0.698568682,-0.151036103,0.677144688
777,1945788,661860,0.985,0.04,-0.03,0,0.3,0.1,-34.9,6.2,27.2,0.174993133,0.698568682,-0.151036103,0.677144688
778,1948079,661860,0.977,0.036,-0.03,0,0.5,0.1,-34.9,6.2,27.2,0.174993133,0.698568682,-0.151036103,0.677144688
779,1950699,661870,0.977,0.036,-0.026,0,0.5,0,-34.6,6,26.5,0.175023652,0.698538163,-0.151036103,0.677144688
780,1952848,661870,0.973,0.033,-0.026,0,0.4,0,-34.6,6,26.5,0.175023652,0.698538163,-0.151036103,0.677175207
781,1957104,661870,0.977,0.033,-0.03,0,0.2,0,-34.6,6,26.5,0.175023652,0.698538163,-0.151036103,0.677175207
782,1958950,661870,0.981,0.036,-0.026,0,0.1,0,-34.6,6,26.5,0.175023652,0.698538163,-0.151036103,0.677175207
783,1960538,661880,0.981,0.036,-0.018,0,0,0,-34.6,5,26.1,0.175023652,0.698538163,-0.151036103,0.677175207
784,1963484,661880,0.985,0.036,-0.022,0,-0.1,0,-34.6,5,26.1,0.175023652,0.698538163,-0.151036103,0.677175207
785,1965849,661880,0.988,0.04,-0.022,0,-0.2,0,-34.6,5,26.1,0.175023652,0.698538163,-0.151036103,0.677175207
786,1968078,661880,0.992,0.04,-0.022,0.1,-0.2,0,-34.6,5,26.1,0.175023652,0.698538163,-0.151036103,0.677175207
787,1970607,661890,0.992,0.04,-0.022,0.1,-0.2,0,-34.6,5,26.1,0.175023652,0.698538163,-0.151036103,0.677175207
788,1973403,661890,0.996,0.04,-0.022,0.1,-0.3,-0.1,-34.4,4.6,26.6,0.174993133,0.698568682,-0.151036103,0.677144688
789,1975575,661890,0.992,0.044,-0.018,0.1,-0.1,-0.1,-34.4,4.6,26.6,0.174993133,0.698568682,-0.151005585,0.677144688
790,1978341,661890,0.985,0.036,-0.022,0,0,0,-34.4,4.6,26.6,0.174993133,0.698568682,-0.151005585,0.677144688
791,1980464,661900,0.988,0.04,-0.018,0,0.1,0,-34.6,4.3,26.1,0.174993133,0.698568682,-0.151036103,0.677144688
792,1982930,661900,0.981,0.04,-0.014,0,0.1,0,-34.6,4.3,26.1,0.174993133,0.698568682,-0.151036103,0.677144688
793,1985934,661900,0.981,0.04,-0.018,0,0.1,0,-34.6,4.3,26.1,0.174993133,0.698538163,-0.151036103,0.677144688
794,1988022,661900,0.977,0.036,-0.018,0,0.2,0,-34.6,4.3,26.1,0.174993133,0.698538163,-0.151036103,0.677175207
795,1990939,661910,0.977,0.04,-0.022,0,0.1,-0.1,-34.9,7.9,27.7,0.174993133,0.698538163,-0.151036103,0.677175207
796,1993136,661910,0.985,0.036,-0.022,0,0.1,0,-34.9,7.9,27.7,0.175023652,0.698538163,-0.151036103,0.677175207
797,1996348,661910,0.985,0.036,-0.018,0,0,-0.1,-34.9,7.9,27.7,0.175023652,0.698538163,-0.151005585,0.677175207
798,1998033,661910,0.985,0.032,-0.022,0,-0.2,0,-34.9,7.9,27.7,0.175023652,0.698538163,-0.151005585,0.677144688
799,2001080,661920,0.988,0.032,-0.022,0,-0.4,0,-35,5.1,26.2,0.174993133,0.698568682,-0.151005585,0.677144688
800,2003295,661920,0.988,0.04,-0.018,0,-0.6,0,-35,5.1,26.2,0.174993133,0.698568682,-0.151005585,0.677144688
801,2006545,661920,0.988,0.04,-0.022,0,-0.6,0,-35,5.1,26.2,0.174993133,0.698568682,-0.151036103,0.677144688
802,2008776,661920,0.988,0.04,-0.018,0,-0.5,0,-35,5.1,26.2,0.174993133,0.698568682,-0.151036103,0.67711417
803,2011036,661930,0.988,0.036,-0.026,0,-0.4,0,-34.6,5.4,25.8,0.174993133,0.6985992,-0.151036103,0.67711417
804,2013200,661930,0.992,0.044,-0.022,0,-0.3,0,-34.6,5.4,25.8,0.174993133,0.6985992,-0.151036103,0.67711417
805,2015590,661930,0.985,0.036,-0.026,0,-0.2,0,-34.6,5.4,25.8,0.174993133,0.6985992,-0.151036103,0.67711417
806,2017862,661930,0.981,0.04,-0.018,0,-0.1,0,-34.6,5.4,25.8,0.174993133,0.6985992,-0.151036103,0.67711417
807,2020759,661940,0.981,0.04,-0.018,0,-0.1,0,-34.6,5.4,25.8,0.174993133,0.6985992,-0.151036103,0.67711417
808,2023042,661940,0.985,0.04,-0.018,0,0,0,-34.8,5.6,26,0.174993133,0.698629719,-0.151036103,0.677083651
809,2025779,661940,0.981,0.036,-0.022,-0.1,0.1,0,-34.8,5.6,26,0.174993133,0.698629719,-0.151036103,0.677083651
810,2028468,661940,0.981,0.033,-0.022,0,0.1,0,-34.8,5.6,26,0.174993133,0.6985992,-0.151036103,0.677083651
811,2030505,661950,0.981,0.04,-0.022,0,0,0,-34.6,7,26,0.174993133,0.6985992,-0.151036103,0.677083651
812,2033084,661950,0.981,0.036,-0.026,0,0,0,-34.6,7,26,0.174993133,0.6985992,-0.151036103,0.677083651
813,2036342,661950,0.985,0.036,-0.026,0,0,0,-34.6,7,26,0.174993133,0.6985992,-0.151036103,0.677083651
814,2038478,661950,0.992,0.04,-0.022,0.1,0,0,-34.6,7,26,0.174993133,0.698629719,-0.151036103,0.677083651
815,2040439,661960,0.988,0.036,-0.026,0.1,0,0,-35.1,6.4,26.6,0.174993133,0.698629719,-0.151036103,0.677083651
816,2043280,661960,0.992,0.036,-0.03,0.2,-0.1,0,-35.1,6.4,26.6,0.174993133,0.698629719,-0.151036103,0.677083651
817,2045454,661960,0.992,0.04,-0.026,0.1,-0.1,0,-35.1,6.4,26.6,0.174993133,0.698629719,-0.151036103,0.677083651
818,2047875,661960,0.988,0.04,-0.018,0.2,-0.3,0.1,-35.1,6.4,26.6,0.174993133,0.698629719,-0.151036103,0.677083651
819,2051704,661970,0.992,0.04,-0.022,0.2,-0.3,0.1,-34.8,6.6,26.8,0.174962615,0.698629719,-0.151036103,0.677083651
820,2053692,661970,0.988,0.04,-0.022,0.1,-0.3,0,-34.8,6.6,26.8,0.174962615,0.698629719,-0.151036103,0.677083651
821,2055987,661970,0.988,0.04,-0.018,0,-0.1,-0.1,-34.8,6.6,26.8,0.174962615,0.698629719,-0.151005585,0.677083651
822,2058122,661970,0.988,0.036,-0.022,0,0,-0.1,-34.8,6.6,26.8,0.174962615,0.698629719,-0.151005585,0.677083651
823,2060776,661980,0.985,0.04,-0.014,0,0.1,-0.1,-34.9,6.5,26.6,0.174962615,0.698629719,-0.151005585,0.677083651
824,2063137,661980,0.985,0.036,-0.014,0,0.2,-0.1,-34.9,6.5,26.6,0.174962615,0.698629719,-0.151005585,0.677083651
825,2066764,661980,0.985,0.044,-0.022,0,0.2,0,-34.9,6.5,26.6,0.174993133,0.698629719,-0.151005585,0.677083651
826,2069156,661980,0.981,0.04,-0.026,0,0.2,0,-34.9,6.5,26.6,0.174993133,0.698629719,-0.151005585,0.677083651
827,2071139,661990,0.981,0.04,-0.026,0,0.2,0,-34.9,6.5,26.6,0.174993133,0.698629719,-0.151005585,0.677083651
828,2073506,661990,0.985,0.044,-0.022,0,0.1,0,-35.2,6.3,26.5,0.174993133,0.6985992,-0.151005585,0.67711417
829,2076355,661990,0.981,0.04,-0.026,0,0.1,0,-35.2,6.3,26.5,0.174993133,0.6985992,-0.151005585,0.67711417
830,2078274,661990,0.985,0.04,-0.026,0.1,0,0,-35.2,6.3,26.5,0.174993133,0.6985992,-0.151005585,0.67711417
831,2080570,662000,0.985,0.04,-0.022,0.1,-0.1,-0.1,-35.2,6.3,26.7,0.174993133,0.6985992,-0.150975066,0.67711417
832,2083106,662000,0.988,0.036,-0.022,0.1,-0.2,-0.2,-35.2,6.3,26.7,0.174993133,0.698629719,-0.150975066,0.677083651
833,2086848,662000,0.985,0.04,-0.022,0.1,-0.1,-0.2,-35.2,6.3,26.7,0.174993133,0.698629719,-0.150975066,0.677083651
834,2088587,662000,0.988,0.036,-0.014,0.1,-0.1,-0.1,-35.2,6.3,26.7,0.174993133,0.698629719,-0.150975066,0.677083651
835,2090631,662010,0.985,0.04,-0.022,0.1,-0.1,0,-34.6,5.1,26.9,0.174993133,0.698629719,-0.150975066,0.677083651
836,2093077,662010,0.985,0.036,-0.022,0.1,-0.2,0,-34.6,5.1,26.9,0.174993133,0.698629719,-0.150975066,0.677083651
837,2095908,662010,0.992,0.04,-0.018,0.1,-0.1,0,-34.6,5.1,26.9,0.174993133,0.698629719,-0.150975066,0.677083651
838,2098898,662010,0.985,0.04,-0.022,0.1,0,0,-34.6,5.1,26.9,0.174993133,0.698629719,-0.150975066,0.677083651
839,2100985,662020,0.988,0.044,-0.022,0.1,0,0.1,-35.8,7.1,26.9,0.174993133,0.698629719,-0.150975066,0.677083651
840,2103419,662020,0.981,0.04,-0.018,0,0,0.1,-35.8,7.1,26.9,0.174993133,0.698629719,-0.150975066,0.677083651
841,2105653,662020,0.985,0.04,-0.022,0,-0.1,0,-35.8,7.1,26.9,0.174993133,0.698629719,-0.150975066,0.677083651
842,2108275,662020,0.981,0.036,-0.018,0,-0.1,0,-35.8,7.1,26.9,0.174993133,0.698629719,-0.150975066,0.677083651
843,2111473,662030,0.985,0.036,-0.018,0,-0.1,0,-36.1,7.1,26.9,0.174993133,0.698629719,-0.150975066,0.677083651
844,2112937,662030,0.985,0.036,-0.022,0,-0.1,0,-36.1,7.1,26.9,0.174993133,0.698629719,-0.150975066,0.677083651
845,2116472,662030,0.985,0.04,-0.022,0,-0.1,0,-36.1,7.1,26.9,0.174993133,0.698629719,-0.150975066,0.677083651
846,2118160,662030,0.985,0.036,-0.018,0,-0.1,0,-36.1,7.1,26.9,0.174993133,0.698660237,-0.150975066,0.677083651
847,2121743,662040,0.985,0.036,-0.018,0,-0.1,0,-36.1,7.1,26.9,0.174993133,0.698660237,-0.150975066,0.677083651
848,2123926,662040,0.985,0.036,-0.018,0.1,-0.1,0,-37,7,26.6,0.174962615,0.698629719,-0.151005585,0.677083651
849,2126194,662040,0.985,0.04,-0.018,0.1,-0.1,0,-37,7,26.6,0.174962615,0.698629719,-0.150975066,0.677083651
850,2128508,662040,0.985,0.036,-0.022,0.1,-0.1,0,-37,7,26.6,0.174962615,0.698629719,-0.150975066,0.677083651
851,2130760,662050,0.988,0.04,-0.022,0.1,0,-0.1,-37.5,6.9,26.7,0.174962615,0.698629719,-0.150975066,0.677083651
852,2132944,662050,0.988,0.044,-0.026,0.1,0,0,-37.5,6.9,26.7,0.174962615,0.698629719,-0.150975066,0.677083651
853,2135633,662050,0.988,0.04,-0.022,0,-0.1,0,-37.5,6.9,26.7,0.174962615,0.698660237,-0.150975066,0.677083651
854,2138021,662050,0.988,0.044,-0.022,0,-0.1,0,-37.5,6.9,26.7,0.174962615,0.698660237,-0.150975066,0.677083651
855,2141209,662060,0.988,0.04,-0.026,0,0,0,-33.8,5.1,26.8,0.174962615,0.698660237,-0.150975066,0.677083651
856,2143442,662060,0.981,0.04,-0.022,0,0,0,-33.8,5.1,26.8,0.174962615,0.698660237,-0.150975066,0.677083651
857,2145696,662060,0.985,0.036,-0.026,0,0.1,0.1,-33.8,5.1,26.8,0.174962615,0.698660237,-0.150975066,0.677083651
858,2147897,662060,0.981,0.04,-0.03,0,0,0,-33.8,5.1,26.8,0.174962615,0.698660237,-0.150975066,0.677083651
859,2150494,662070,0.985,0.04,-0.026,0,0,0,-36.2,7.4,27,0.174962615,0.698660237,-0.150975066,0.677083651
860,2154577,662070,0.985,0.036,-0.026,0,0,0,-36.2,7.4,27,0.174962615,0.698660237,-0.150975066,0.677083651
861,2156934,662070,0.985,0.04,-0.03,0,0,0,-36.2,7.4,27,0.174962615,0.698660237,-0.150975066,0.677083651
862,2159124,662070,0.988,0.04,-0.018,0,0,0,-36.2,7.4,27,0.174962615,0.698660237,-0.150975066,0.677083651
863,2161354,662080,0.988,0.036,-0.022,0,0,0,-35.7,7.3,26.7,0.174962615,0.698660237,-0.151005585,0.677083651
864,2163559,662080,0.985,0.036,-0.018,0,-0.1,0,-35.7,7.3,26.7,0.174962615,0.698660237,-0.151005585,0.677083651
865,2165778,662080,0.988,0.036,-0.014,0,-0.1,0,-35.7,7.3,26.7,0.174962615,0.698660237,-0.151005585,0.677053133
866,2168118,662080,0.988,0.036,-0.022,0.1,-0.1,0,-35.7,7.3,26.7,0.174962615,0.698660237,-0.150975066,0.677053133
867,2170568,662090,0.988,0.036,-0.022,0.1,-0.1,0,-35.7,7.3,26.7,0.174962615,0.698660237,-0.150975066,0.677053133
868,2173967,662090,0.988,0.044,-0.026,0,0,0,-35.5,7.5,26.7,0.174932096,0.698629719,-0.151005585,0.677083651
869,2175494,662090,0.981,0.04,-0.018,0,0,0,-35.5,7.5,26.7,0.174932096,0.698629719,-0.151005585,0.677083651
870,2177949,662090,0.985,0.036,-0.022,0,0.1,0,-35.5,7.5,26.7,0.174932096,0.698629719,-0.151005585,0.67711417
871,2180602,662100,0.981,0.033,-0.022,0,0.1,0,-34.9,7.4,27.1,0.174932096,0.698629719,-0.151005585,0.67711417
872,2183089,662100,0.981,0.04,-0.022,0,0,-0.1,-34.9,7.4,27.1,0.174932096,0.698629719,-0.151005585,0.67711417
873,2186017,662100,0.985,0.036,-0.014,0,0,-0.1,-34.9,7.4,27.1,0.174932096,0.698629719,-0.151005585,0.67711417
874,2188963,662100,0.985,0.04,-0.026,0,-0.2,-0.1,-34.9,7.4,27.1,0.174932096,0.698629719,-0.151005585,0.677083651
875,2190473,662110,0.985,0.036,-0.026,0,-0.3,0,-34.8,6.2,26.7,0.174932096,0.698629719,-0.151005585,0.677083651
876,2193493,662110,0.985,0.04,-0.022,0,-0.3,0,-34.8,6.2,26.7,0.174932096,0.698629719,-0.151005585,0.677083651
877,2196468,662110,0.988,0.032,-0.034,0,-0.1,0,-34.8,6.2,26.7,0.174932096,0.698629719,-0.151005585,0.677083651
878,2197856,662110,0.992,0.04,-0.022,0,-0.1,0,-34.8,6.2,26.7,0.174932096,0.698629719,-0.151005585,0.677083651
879,2200994,662120,0.988,0.036,-0.026,0,-0.1,0,-34.9,5.7,27,0.174932096,0.698660237,-0.151005585,0.677083651
880,2204207,662120,0.988,0.036,-0.026,0,0,0,-34.9,5.7,27,0.174932096,0.698660237,-0.151005585,0.677083651
881,2205646,662120,0.996,0.04,-0.015,0,0,0,-34.9,5.7,27,0.174932096,0.698660237,-0.151005585,0.677083651
882,2208645,662120,0.992,0.036,-0.022,0,0,0,-34.9,5.7,27,0.174932096,0.698660237,-0.151005585,0.677083651
883,2210952,662130,0.985,0.04,-0.026,0,0,0,-34.2,6.2,26.9,0.174932096,0.698660237,-0.151005585,0.677083651
884,2213062,662130,0.988,0.04,-0.022,0,0,0,-34.2,6.2,26.9,0.174932096,0.698660237,-0.151005585,0.677083651
885,2216108,662130,0.988,0.04,-0.018,0,0,0,-34.2,6.2,26.9,0.174932096,0.698660237,-0.151005585,0.677083651
886,2218484,662130,0.981,0.036,-0.022,0,0,0,-34.2,6.2,26.9,0.174932096,0.698660237,-0.151036103,0.677083651
887,2220664,662140,0.981,0.036,-0.022,0,0,0,-34.2,6.2,26.9,0.174932096,0.698660237,-0.151036103,0.677083651
888,2223594,662140,0.981,0.04,-0.022,0,0.1,0,-34.5,5.7,26.7,0.174932096,0.698660237,-0.151005585,0.677083651
889,2225895,662140,0.981,0.04,-0.018,0,0.1,0,-34.5,5.7,26.7,0.174932096,0.698660237,-0.151005585,0.677083651
890,2229089,662140,0.981,0.04,-0.022,0,0.1,-0.1,-34.5,5.7,26.7,0.174932096,0.698660237,-0.151005585,0.677083651
891,2230528,662150,0.988,0.04,-0.026,0,-0.1,0,-34.6,6,27.2,0.174932096,0.698660237,-0.151005585,0.677083651
892,2233650,662150,0.988,0.04,-0.022,0,-0.3,0,-34.6,6,27.2,0.174932096,0.698660237,-0.151005585,0.677053133
893,2235981,662150,0.992,0.036,-0.022,0,-0.4,-0.1,-34.6,6,27.2,0.174932096,0.698660237,-0.151005585,0.677053133
894,2238204,662150,0.988,0.036,-0.026,0,-0.4,-0.1,-34.6,6,27.2,0.174932096,0.698660237,-0.151005585,0.677053133
895,2241493,662160,0.988,0.036,-0.018,0,-0.3,-0.2,-36,6.1,26.7,0.174962615,0.698690756,-0.151005585,0.677053133
896,2243014,662160,0.985,0.04,-0.026,0,-0.3,-0.2,-36,6.1,26.7,0.174962615,0.698690756,-0.151005585,0.677053133
897,2245669,662160,0.992,0.04,-0.026,0,-0.1,-0.2,-36,6.1,26.7,0.174962615,0.698690756,-0.151005585,0.677022614
898,2247930,662160,0.985,0.04,-0.026,0.1,0,-0.1,-36,6.1,26.7,0.174962615,0.698690756,-0.151005585,0.677022614
899,2252196,662170,0.985,0.032,-0.022,0.1,0.1,-0.1,-34.2,6.5,26.9,0.174962615,0.698690756,-0.151005585,0.677022614
900,2254431,662170,0.985,0.04,-0.018,0.1,0.1,-0.1,-34.2,6.5,26.9,0.174962615,0.698690756,-0.151005585,0.677053133
901,2256608,662170,0.981,0.036,-0.022,0,0,0,-34.2,6.5,26.9,0.174962615,0.698690756,-0.151005585,0.677053133
902,2258920,662170,0.985,0.04,-0.018,0,0,0,-34.2,6.5,26.9,0.174962615,0.698690756,-0.151005585,0.677053133
903,2261575,662180,0.981,0.036,-0.022,0,0.1,-0.1,-33.9,6.4,27,0.174962615,0.698690756,-0.151005585,0.677053133
904,2263907,662180,0.985,0.036,-0.022,0,0.1,-0.1,-33.9,6.4,27,0.174962615,0.698690756,-0.150975066,0.677053133
905,2266129,662180,0.988,0.036,-0.022,0,0,-0.1,-33.9,6.4,27,0.174962615,0.698690756,-0.150975066,0.677053133
906,2268327,662180,0.985,0.04,-0.026,0,0,0,-33.9,6.4,27,0.174962615,0.698690756,-0.150975066,0.677053133
907,2270596,662190,0.985,0.04,-0.026,0,0,0,-33.9,6.4,27,0.174962615,0.698690756,-0.150975066,0.677053133
908,2273253,662190,0.988,0.044,-0.026,0,-0.1,0,-34.1,6.3,27.2,0.174932096,0.698690756,-0.151005585,0.677022614
909,2275540,662190,0.988,0.04,-0.018,0,-0.3,0,-34.1,6.3,27.2,0.174932096,0.698690756,-0.151005585,0.677022614
910,2278444,662190,0.988,0.036,-0.018,0,-0.3,0,-34.1,6.3,27.2,0.174932096,0.698721274,-0.151005585,0.677022614
911,2281550,662200,0.988,0.036,-0.018,0,-0.3,0,-34.3,6.1,26.7,0.174932096,0.698721274,-0.151005585,0.677022614
912,2283037,662200,0.988,0.04,-0.026,0,-0.1,0,-34.3,6.1,26.7,0.174932096,0.698721274,-0.151005585,0.676992096
913,2285474,662200,0.988,0.04,-0.018,0,0,0,-34.3,6.1,26.7,0.174932096,0.698721274,-0.151005585,0.676992096
914,2288643,662200,0.985,0.04,-0.022,0.1,0.1,0,-34.3,6.1,26.7,0.174932096,0.698721274,-0.151005585,0.677022614
915,2290789,662210,0.981,0.033,-0.018,0.1,0.1,0,-35.8,5.8,26.7,0.174932096,0.698721274,-0.151005585,0.677022614
916,2293053,662210,0.981,0.036,-0.026,0.1,0.1,0,-35.8,5.8,26.7,0.174932096,0.698721274,-0.151005585,0.677022614
917,2295658,662210,0.988,0.044,-0.026,0.1,0.1,0,-35.8,5.8,26.7,0.174932096,0.698721274,-0.151005585,0.677022614
918,2299065,662210,0.985,0.036,-0.026,0,0,0,-35.8,5.8,26.7,0.174932096,0.698690756,-0.151005585,0.677022614
919,2300628,662220,0.985,0.04,-0.022,0,0,0,-33.7,5.7,27,0.174932096,0.698721274,-0.151005585,0.677022614
920,2303566,662220,0.985,0.04,-0.022,-0.1,-0.1,0,-33.7,5.7,27,0.174932096,0.698721274,-0.151005585,0.677022614
921,2305862,662220,0.985,0.036,-0.022,0,-0.1,0,-33.7,5.7,27,0.174932096,0.698721274,-0.151005585,0.677022614
922,2309074,662220,0.988,0.04,-0.022,0,0,0,-33.7,5.7,27,0.174932096,0.698721274,-0.151005585,0.677022614
923,2310574,662230,0.988,0.04,-0.022,0,0,0,-33.8,6,26.8,0.174932096,0.698721274,-0.151005585,0.677022614
924,2313875,662230,0.985,0.04,-0.022,0,0,0,-33.8,6,26.8,0.174932096,0.698721274,-0.151005585,0.677022614
925,2316022,662230,0.985,0.04,-0.022,0,0,0,-33.8,6,26.8,0.174932096,0.698721274,-0.151005585,0.677022614
926,2318320,662230,0.985,0.04,-0.03,0.1,0,-0.1,-33.8,6,26.8,0.174932096,0.698721274,-0.151005585,0.677022614
927,2322166,662240,0.985,0.04,-0.03,0.1,0,-0.1,-33.8,6,26.8,0.174932096,0.698721274,-0.151005585,0.677022614
928,2323715,662240,0.988,0.032,-0.018,0.1,0,-0.1,-33.9,6,26.7,0.174962615,0.698751793,-0.151005585,0.676961577
929,2325429,662240,0.988,0.044,-0.018,0,0,-0.1,-33.9,6,26.7,0.174962615,0.698751793,-0.150975066,0.676961577
930,2328107,662240,0.988,0.044,-0.026,-0.1,0,0,-33.9,6,26.7,0.174962615,0.698751793,-0.151005585,0.676961577
931,2330883,662250,0.985,0.044,-0.026,-0.1,0,0,-34.1,5.9,27.1,0.174962615,0.698751793,-0.151005585,0.676961577
932,2333924,662250,0.985,0.04,-0.026,0,0,0,-34.1,5.9,27.1,0.174962615,0.698751793,-0.151005585,0.676961577
933,2335511,662250,0.988,0.04,-0.018,0,-0.1,0,-34.1,5.9,27.1,0.174962615,0.698751793,-0.151005585,0.676961577
934,2338163,662250,0.985,0.036,-0.03,0,-0.2,0,-34.1,5.9,27.1,0.174962615,0.698751793,-0.151005585,0.676961577
935,2342027,662260,0.985,0.036,-0.026,0,-0.3,0,-34.8,6.3,26.8,0.174962615,0.698751793,-0.151005585,0.676961577
936,2343499,662260,0.985,0.04,-0.022,0,-0.3,0,-34.8,6.3,26.8,0.174962615,0.698751793,-0.151005585,0.676961577
937,2345813,662260,0.988,0.04,-0.018,0.1,-0.2,0,-34.8,6.3,26.8,0.174962615,0.698751793,-0.151005585,0.676961577
938,2347986,662260,0.985,0.036,-0.018,0.1,-0.1,0,-34.8,6.3,26.8,0.174962615,0.698782311,-0.151005585,0.676961577
939,2350472,662270,0.985,0.04,-0.022,0.1,0,0,-35.2,6.2,26.7,0.174932096,0.698782311,-0.151005585,0.676961577
940,2353946,662270,0.988,0.04,-0.026,0.1,0,0,-35.2,6.2,26.7,0.174932096,0.698782311,-0.151005585,0.676961577
941,2355483,662270,0.988,0.036,-0.026,0,0.1,0,-35.2,6.2,26.7,0.174932096,0.698782311,-0.151005585,0.676961577
942,2357951,662270,0.985,0.04,-0.022,0,0.1,0.1,-35.2,6.2,26.7,0.174932096,0.698751793,-0.151005585,0.676961577
943,2361444,662280,0.985,0.036,-0.026,0,0.1,0.1,-34.8,6,27.3,0.174932096,0.698751793,-0.151005585,0.676961577
944,2362957,662280,0.985,0.036,-0.022,0,0,0,-34.8,6,27.3,0.174932096,0.698751793,-0.151005585,0.676961577
945,2365469,662280,0.988,0.036,-0.026,0,0,0,-34.8,6,27.3,0.174932096,0.698751793,-0.151005585,0.676961577
946,2367991,662280,0.985,0.036,-0.026,0,0,0,-34.8,6,27.3,0.174932096,0.698751793,-0.151005585,0.676961577
947,2370902,662290,0.985,0.036,-0.026,0,0,0,-34.8,6,27.3,0.174932096,0.698751793,-0.151005585,0.676961577
948,2374042,662290,0.985,0.036,-0.022,0,0,0,-35.1,6.1,27.5,0.174901578,0.698782311,-0.151036103,0.676931059
949,2375432,662290,0.985,0.04,-0.018,0,0.1,0,-35.1,6.1,27.5,0.174901578,0.698782311,-0.151036103,0.676931059
950,2379053,662290,0.985,0.036,-0.026,0,0.1,0,-35.1,6.1,27.5,0.174901578,0.698782311,-0.151036103,0.676931059
951,2381548,662300,0.985,0.032,-0.018,0,0,0,-35.1,6.3,28.4,0.174901578,0.698782311,-0.151036103,0.676931059
952,2383624,662300,0.985,0.04,-0.022,0,0,-0.1,-35.1,6.3,28.4,0.174901578,0.698782311,-0.151036103,0.676931059
953,2385612,662300,0.988,0.036,-0.018,0,0,0,-35.1,6.3,28.4,0.174901578,0.698782311,-0.151036103,0.676931059
954,2388019,662300,0.985,0.04,-0.022,0,-0.1,0,-35.1,6.3,28.4,0.174901578,0.698782311,-0.151036103,0.676931059
955,2390500,662310,0.985,0.04,-0.026,0,-0.2,0,-34.8,6.1,25.6,0.174901578,0.698782311,-0.151036103,0.676931059
956,2393173,662310,0.985,0.036,-0.026,0,-0.2,0,-34.8,6.1,25.6,0.174901578,0.698782311,-0.151036103,0.676931059
957,2396671,662310,0.988,0.036,-0.018,0,-0.1,0,-34.8,6.1,25.6,0.174901578,0.69881283,-0.151036103,0.676931059
958,2398822,662310,0.985,0.036,-0.026,0,0,0,-34.8,6.1,25.6,0.174901578,0.69881283,-0.151036103,0.676931059
959,2401071,662320,0.985,0.036,-0.026,0,0,0,-34.9,6.1,27.6,0.174901578,0.69881283,-0.151036103,0.676931059
960,2403343,662320,0.988,0.044,-0.018,0,-0.1,0,-34.9,6.1,27.6,0.174901578,0.69881283,-0.151036103,0.676931059
961,2405541,662320,0.985,0.04,-0.026,0,-0.3,0,-34.9,6.1,27.6,0.174901578,0.69881283,-0.151036103,0.67690054
962,2408109,662320,0.985,0.036,-0.022,0,-0.3,0,-34.9,6.1,27.6,0.174901578,0.69881283,-0.151066622,0.67690054
963,2411100,662330,0.988,0.04,-0.022,0,-0.3,0,-34.9,6.2,28.2,0.174901578,0.69881283,-0.151066622,0.67690054
964,2413079,662330,0.985,0.04,-0.022,0,-0.1,0,-34.9,6.2,28.2,0.174901578,0.69881283,-0.151066622,0.67690054
965,2415439,662330,0.985,0.036,-0.026,0,0,0,-34.9,6.2,28.2,0.174901578,0.69881283,-0.151066622,0.67690054
966,2417931,662330,0.985,0.036,-0.026,0,0,0,-34.9,6.2,28.2,0.174901578,0.69881283,-0.151066622,0.67690054
967,2421351,662340,0.985,0.036,-0.026,0,0,0,-34.9,6.2,28.2,0.174901578,0.69881283,-0.151066622,0.67690054
968,2423524,662340,0.985,0.036,-0.026,0,0,0,-34.8,6.2,28.1,0.174871059,0.698843348,-0.151066622,0.676870022
969,2425878,662340,0.988,0.04,-0.018,0,0.1,0,-34.8,6.2,28.1,0.174871059,0.698843348,-0.151066622,0.676870022
970,2428079,662340,0.988,0.036,-0.022,0.1,0.1,-0.1,-34.8,6.2,28.1,0.174871059,0.698843348,-0.151066622,0.676870022
971,2430453,662350,0.988,0.036,-0.018,0.1,0,0,-35.2,5.7,28.2,0.174871059,0.698843348,-0.151066622,0.676870022
972,2434043,662350,0.988,0.036,-0.026,0,0,0,-35.2,5.7,28.2,0.174871059,0.698843348,-0.151066622,0.676870022
973,2436199,662350,0.992,0.04,-0.03,0,-0.1,0,-35.2,5.7,28.2,0.174871059,0.698843348,-0.151066622,0.676870022
974,2438037,662350,0.988,0.04,-0.022,0,-0.1,0,-35.2,5.7,28.2,0.174871059,0.698843348,-0.151066622,0.676870022
975,2440608,662360,0.985,0.04,-0.022,0,-0.1,0,-34.7,6.2,25.5,0.174871059,0.698843348,-0.151066622,0.676870022
976,2443757,662360,0.985,0.036,-0.018,0,0,0,-34.7,6.2,25.5,0.174871059,0.698843348,-0.151066622,0.676870022
977,2445537,662360,0.992,0.036,-0.022,0,0,0,-34.7,6.2,25.5,0.174871059,0.698843348,-0.151066622,0.676870022
978,2448199,662360,0.985,0.036,-0.022,0,0,0,-34.7,6.2,25.5,0.174871059,0.698843348,-0.151066622,0.676870022
979,2450494,662370,0.985,0.036,-0.022,0.1,0,-0.1,-34.9,6,26.5,0.174871059,0.698873867,-0.151036103,0.676870022
980,2454712,662370,0.981,0.036,-0.018,0.1,-0.1,-0.1,-34.9,6,26.5,0.174871059,0.698873867,-0.151036103,0.676870022
981,2456868,662370,0.981,0.036,-0.022,0.1,-0.2,0,-34.9,6,26.5,0.174871059,0.698873867,-0.151036103,0.676870022
982,2459160,662370,0.985,0.036,-0.018,0.1,-0.2,0,-34.9,6,26.5,0.174871059,0.698873867,-0.151036103,0.676839503
983,2462147,662380,0.985,0.04,-0.014,0,-0.1,0,-34.7,6.3,25.8,0.174871059,0.698873867,-0.151036103,0.676839503
984,2464303,662380,0.985,0.044,-0.026,0,-0.1,0,-34.7,6.3,25.8,0.174871059,0.698873867,-0.151036103,0.676839503
985,2466559,662380,0.985,0.04,-0.022,0,-0.1,0,-34.7,6.3,25.8,0.174871059,0.698873867,-0.151036103,0.676839503
986,2468897,662380,0.988,0.04,-0.022,0,-0.1,0,-34.7,6.3,25.8,0.174871059,0.698873867,-0.151036103,0.676839503
987,2471040,662390,0.988,0.04,-0.022,0,-0.1,0,-34.7,6.3,25.8,0.174871059,0.698873867,-0.151036103,0.676839503
988,2473318,662390,0.992,0.036,-0.022,0,0,0,-35,6.3,25.8,0.174901578,0.698873867,-0.151036103,0.676839503
989,2475645,662390,0.985,0.036,-0.022,0,0,0,-35,6.3,25.8,0.174901578,0.698873867,-0.151036103,0.676839503
990,2478014,662390,0.985,0.04,-0.022,0,-0.1,0,-35,6.3,25.8,0.174901578,0.698873867,-0.151036103,0.676839503
991,2480926,662400,0.988,0.04,-0.022,0,-0.1,0,-34.8,6.5,25.6,0.174901578,0.698873867,-0.151036103,0.676839503
992,2483096,662400,0.988,0.04,-0.026,0,-0.1,0,-34.8,6.5,25.6,0.174901578,0.698873867,-0.151036103,0.676839503
993,2485758,662400,0.988,0.036,-0.022,0,0,0,-34.8,6.5,25.6,0.174901578,0.698873867,-0.151036103,0.676839503
994,2488713,662400,0.985,0.04,-0.022,0,0,0,-34.8,6.5,25.6,0.174901578,0.698873867,-0.151036103,0.676839503
995,2490912,662410,0.985,0.036,-0.022,0,0.1,0,-34.9,6.2,27,0.174901578,0.698873867,-0.151036103,0.676839503
996,2494248,662410,0.981,0.04,-0.022,0,0.1,0,-34.9,6.2,27,0.174901578,0.698873867,-0.151036103,0.676839503
997,2495796,662410,0.988,0.04,-0.03,0,0.1,0,-34.9,6.2,27,0.174901578,0.698873867,-0.151036103,0.676839503
998,2498003,662410,0.992,0.04,-0.022,0,0.1,0,-34.9,6.2,27,0.174901578,0.698873867,-0.151036103,0.676839503
999,2500914,662420,0.985,0.036,-0.022,-0.1,0.1,0,-34.8,6.5,26.5,0.174901578,0.698873867,-0.151036103,0.676839503
1000,2503364,662420,0.992,0.04,-0.022,0,0.1,0,-34.8,6.5,26.5,0.174901578,0.698873867,-0.151036103,0.676839503
1001,2506336,662420,0.985,0.036,-0.022,0,0.2,0,-34.8,6.5,26.5,0.174901578,0.698873867,-0.151036103,0.676839503
1002,2508512,662420,0.985,0.04,-0.026,0.1,0.1,0,-34.8,6.5,26.5,0.174901578,0.698873867,-0.151036103,0.676870022
1003,2510733,662430,0.985,0.044,-0.026,0.1,0.1,0.1,-34.9,6.2,26.5,0.174901578,0.698873867,-0.151036103,0.676870022
1004,2513092,662430,0.988,0.04,-0.022,0.1,0,0,-34.9,6.2,26.5,0.174901578,0.698873867,-0.151036103,0.676870022
1005,2515653,662430,0.988,0.04,-0.022,0.1,0,0,-34.9,6.2,26.5,0.174901578,0.698873867,-0.151036103,0.676870022
1006,2518006,662430,0.988,0.036,-0.022,0,0,0,-34.9,6.2,26.5,0.174901578,0.698873867,-0.151036103,0.676870022
1007,2522083,662440,0.988,0.036,-0.022,0,0,0,-34.9,6.2,26.5,0.174901578,0.698873867,-0.151036103,0.676870022
1008,2524241,662440,0.988,0.04,-0.018,0,0,0,-34.9,5.9,26.6,0.174901578,0.698873867,-0.151005585,0.676839503
1009,2526530,662440,0.985,0.04,-0.022,0,0,-0.1,-34.9,5.9,26.6,0.174901578,0.698873867,-0.151005585,0.676839503
1010,2528821,662440,0.988,0.036,-0.022,0,0,-0.1,-34.9,5.9,26.6,0.174932096,0.698873867,-0.151005585,0.676839503
1011,2531037,662450,0.981,0.036,-0.022,0,0.1,0,-35,4.7,26.3,0.174932096,0.698873867,-0.151005585,0.676839503
1012,2533225,662450,0.985,0.036,-0.022,0,0,0,-35,4.7,26.3,0.174932096,0.698873867,-0.151005585,0.676839503
1013,2535567,662450,0.985,0.04,-0.022,0,0,0,-35,4.7,26.3,0.174932096,0.698873867,-0.151005585,0.676839503
1014,2538279,662450,0.981,0.036,-0.022,0,-0.1,0,-35,4.7,26.3,0.174932096,0.698873867,-0.151005585,0.676839503
1015,2540404,662460,0.985,0.032,-0.026,0,-0.1,-0.1,-34.9,7.6,28,0.174932096,0.698873867,-0.151005585,0.676839503
1016,2543601,662460,0.988,0.036,-0.022,0,-0.1,0,-34.9,7.6,28,0.174932096,0.698873867,-0.151005585,0.676839503
1017,2546523,662460,0.988,0.036,-0.022,0,-0.1,0,-34.9,7.6,28,0.174932096,0.698904386,-0.151005585,0.676839503
1018,2548103,662460,0.985,0.036,-0.022,0.1,0,0,-34.9,7.6,28,0.174932096,0.698904386,-0.151005585,0.676839503
1019,2550550,662470,0.985,0.04,-0.022,0.1,-0.1,0,-34.7,4.8,26.1,0.174932096,0.698904386,-0.151005585,0.676839503
1020,2553755,662470,0.988,0.036,-0.026,0,-0.1,0,-34.7,4.8,26.1,0.174901578,0.698904386,-0.151005585,0.676839503
1021,2555414,662470,0.985,0.036,-0.022,0,-0.1,0,-34.7,4.8,26.1,0.174901578,0.698904386,-0.151005585,0.676839503
1022,2558250,662470,0.985,0.044,-0.022,0,-0.1,0,-34.7,4.8,26.1,0.174901578,0.698904386,-0.151005585,0.676839503
1023,2561318,662480,0.981,0.033,-0.018,-0.1,0,0,-34.6,4.9,26.2,0.174932096,0.698904386,-0.151005585,0.676808985
1024,2564077,662480,0.988,0.032,-0.022,-0.1,0,0,-34.6,4.9,26.2,0.174932096,0.698904386,-0.151005585,0.676808985
1025,2565567,662480,0.988,0.032,-0.026,-0.1,0,0,-34.6,4.9,26.2,0.174932096,0.698904386,-0.151005585,0.676808985
1026,2568522,662480,0.985,0.04,-0.022,0,0,0,-34.6,4.9,26.2,0.174932096,0.698904386,-0.151005585,0.676808985
1027,2571571,662490,0.985,0.04,-0.022,0,0,0,-34.6,4.9,26.2,0.174932096,0.698904386,-0.151005585,0.676808985
1028,2572975,662490,0.985,0.036,-0.026,0,0.1,0,-34.6,4.8,25.8,0.174871059,0.698873867,-0.151066622,0.676839503
1029,2576070,662490,0.985,0.04,-0.022,0,0.2,0,-34.6,4.8,25.8,0.174871059,0.698873867,-0.151066622,0.676839503
1030,2578273,662490,0.985,0.04,-0.022,0.1,0.1,0,-34.6,4.8,25.8,0.174871059,0.698873867,-0.151066622,0.676839503
1031,2581072,662500,0.985,0.04,-0.03,0.1,0.1,-0.1,-34.9,5.4,25.7,0.174871059,0.698873867,-0.151066622,0.676839503
1032,2583308,662500,0.985,0.036,-0.018,0.1,0,-0.1,-34.9,5.4,25.7,0.174871059,0.698873867,-0.151066622,0.676839503
1033,2586576,662500,0.985,0.036,-0.022,0.1,0,-0.2,-34.9,5.4,25.7,0.174871059,0.698873867,-0.151036103,0.676839503
1034,2588090,662500,0.988,0.04,-0.022,0,0,-0.2,-34.9,5.4,25.7,0.174871059,0.698873867,-0.151036103,0.676839503
1035,2590554,662510,0.985,0.036,-0.022,0,0,-0.2,-35,7,26.7,0.174871059,0.698873867,-0.151036103,0.676839503
1036,2594029,662510,0.981,0.036,-0.022,0,0,-0.1,-35,7,26.7,0.174871059,0.698873867,-0.151036103,0.676839503
1037,2595515,662510,0.985,0.04,-0.026,0,0,0,-35,7,26.7,0.174871059,0.698873867,-0.151036103,0.676839503
1038,2598835,662510,0.985,0.036,-0.022,0,0,0,-35,7,26.7,0.174871059,0.698873867,-0.151036103,0.676839503
1039,2601164,662520,0.985,0.036,-0.026,0,0,0,-34.7,6.6,27,0.174871059,0.698873867,-0.151036103,0.676839503
1040,2603973,662520,0.988,0.04,-0.022,0,0,0,-34.7,6.6,27,0.174871059,0.698873867,-0.151036103,0.676839503
1041,2605537,662520,0.988,0.04,-0.026,0,0,0,-34.7,6.6,27,0.174871059,0.698873867,-0.151036103,0.676839503
1042,2608327,662520,0.988,0.04,-0.018,0,0,0,-34.7,6.6,27,0.174871059,0.698873867,-0.151036103,0.676839503
1043,2611296,662530,0.988,0.036,-0.018,0,0,0,-34.9,6.9,26.7,0.174871059,0.698873867,-0.151036103,0.676839503
1044,2612824,662530,0.988,0.036,-0.026,0,-0.1,0,-34.9,6.9,26.7,0.174901578,0.698873867,-0.151036103,0.676839503
1045,2615898,662530,0.985,0.04,-0.022,0,-0.1,0,-34.9,6.9,26.7,0.174901578,0.698873867,-0.151036103,0.676839503
1046,2617974,662530,0.988,0.032,-0.03,0,-0.1,0,-34.9,6.9,26.7,0.174901578,0.698904386,-0.151036103,0.676839503
1047,2620838,662540,0.988,0.032,-0.03,0,-0.1,0,-34.9,6.9,26.7,0.174901578,0.698904386,-0.151036103,0.676839503
1048,2623890,662540,0.985,0.036,-0.022,0,0,0,-34.6,7.3,26.7,0.174840541,0.698904386,-0.151066622,0.676808985
1049,2625323,662540,0.985,0.036,-0.018,0.1,0,0,-34.6,7.3,26.7,0.174840541,0.698904386,-0.151066622,0.676808985
1050,2628012,662540,0.985,0.032,-0.018,0.1,0,0,-34.6,7.3,26.7,0.174840541,0.698904386,-0.151066622,0.676808985
1051,2631014,662550,0.988,0.04,-0.022,0.1,0,0,-34.9,7.5,27.2,0.174840541,0.698904386,-0.151066622,0.676808985
1052,2633785,662550,0.985,0.04,-0.022,0,0,0,-34.9,7.5,27.2,0.174840541,0.698904386,-0.151066622,0.676808985
1053,2635367,662550,0.988,0.04,-0.026,0,0,0,-34.9,7.5,27.2,0.174840541,0.698904386,-0.151066622,0.676808985
1054,2638629,662550,0.985,0.036,-0.022,0,-0.1,0,-34.9,7.5,27.2,0.174840541,0.698904386,-0.151066622,0.676808985
1055,2640639,662560,0.988,0.04,-0.018,0,0,0,-34.9,6,26.5,0.174840541,0.698904386,-0.151066622,0.676808985
1056,2642957,662560,0.988,0.04,-0.026,0,0,0,-34.9,6,26.5,0.174840541,0.698904386,-0.151066622,0.676808985
1057,2645469,662560,0.985,0.036,-0.022,0,0,0,-34.9,6,26.5,0.174840541,0.698904386,-0.151066622,0.676808985
1058,2649737,662560,0.985,0.036,-0.03,0.1,0,0,-34.9,6,26.5,0.174840541,0.698904386,-0.151066622,0.676808985
1059,2651989,662570,0.988,0.04,-0.022,0.1,0,0,-34.9,6.3,27,0.174840541,0.698904386,-0.151066622,0.676808985
1060,2654208,662570,0.988,0.036,-0.026,0.1,0,0,-34.9,6.3,27,0.174840541,0.698904386,-0.151066622,0.676808985
1061,2656670,662570,0.988,0.036,-0.026,0.1,-0.1,0,-34.9,6.3,27,0.174840541,0.698934904,-0.151066622,0.676808985
1062,2659076,662570,0.988,0.04,-0.022,0.1,-0.2,0,-34.9,6.3,27,0.174840541,0.698934904,-0.151066622,0.676808985
1063,2661004,662580,0.985,0.04,-0.026,0,-0.2,0,-35.2,6.5,27,0.174840541,0.698934904,-0.151066622,0.676808985
1064,2663208,662580,0.988,0.036,-0.022,0,-0.1,0,-35.2,6.5,27,0.174840541,0.698934904,-0.151066622,0.676808985
1065,2665541,662580,0.988,0.04,-0.018,0,0,0,-35.2,6.5,27,0.174840541,0.698934904,-0.151066622,0.676808985
1066,2668195,662580,0.985,0.036,-0.022,0,0,0,-35.2,6.5,27,0.174840541,0.698934904,-0.151066622,0.676808985
1067,2672269,662590,0.985,0.036,-0.022,0,0,0,-35.2,6.5,27,0.174840541,0.698934904,-0.151066622,0.676808985
1068,2674815,662590,0.985,0.032,-0.022,0,0,0,-36.1,6.3,27.3,0.174840541,0.698934904,-0.151066622,0.676808985
1069,2676936,662590,0.985,0.032,-0.026,0,0,0,-36.1,6.3,27.3,0.174840541,0.698934904,-0.151066622,0.676808985
1070,2679117,662590,0.985,0.036,-0.022,0,0,0,-36.1,6.3,27.3,0.174840541,0.698934904,-0.151066622,0.676808985
1071,2681401,662600,0.985,0.04,-0.026,0.1,0,0,-36.4,6.3,27,0.174840541,0.698934904,-0.151066622,0.676808985
1072,2683525,662600,0.985,0.04,-0.022,0,0,0,-36.4,6.3,27,0.174840541,0.698934904,-0.151036103,0.676808985
1073,2685818,662600,0.985,0.036,-0.022,0,0,0,-36.4,6.3,27,0.174840541,0.698934904,-0.151036103,0.676808985
1074,2688156,662600,0.988,0.036,-0.022,0,0,0,-36.4,6.3,27,0.174840541,0.698934904,-0.151036103,0.676808985
1075,2690670,662610,0.985,0.04,-0.026,0,0,0,-33.9,5.1,26.9,0.174840541,0.698934904,-0.151036103,0.676808985
1076,2692996,662610,0.988,0.036,-0.022,0,0,0,-33.9,5.1,26.9,0.174840541,0.698934904,-0.151036103,0.676747948
1077,2696635,662610,0.985,0.036,-0.018,0,0,0,-33.9,5.1,26.9,0.174840541,0.698934904,-0.151036103,0.676747948
1078,2698789,662610,0.988,0.036,-0.022,0,0,0,-33.9,5.1,26.9,0.174840541,0.698934904,-0.151036103,0.676747948
1079,2700975,662620,0.985,0.044,-0.022,0,0,0,-36.6,7.1,26.7,0.174840541,0.698934904,-0.151036103,0.676747948
1080,2703194,662620,0.988,0.036,-0.022,0,0,0,-36.6,7.1,26.7,0.174840541,0.698934904,-0.151036103,0.676747948
1081,2705521,662620,0.988,0.032,-0.026,0,0,0,-36.6,7.1,26.7,0.174840541,0.698934904,-0.151036103,0.676747948
1082,2708178,662620,0.988,0.036,-0.026,0,0,0.1,-36.6,7.1,26.7,0.174840541,0.698934904,-0.151036103,0.676747948
1083,2710443,662630,0.988,0.04,-0.018,0.1,-0.1,0,-36.6,7.2,26.8,0.174840541,0.698934904,-0.151036103,0.676747948
1084,2714467,662630,0.985,0.032,-0.022,0.1,0,0,-36.6,7.2,26.8,0.174840541,0.698934904,-0.151036103,0.676747948
1085,2716807,662630,0.985,0.036,-0.022,0,0,0,-36.6,7.2,26.8,0.174840541,0.698934904,-0.151036103,0.676747948
1086,2719183,662630,0.988,0.036,-0.022,0,0.2,0,-36.6,7.2,26.8,0.174840541,0.698934904,-0.151036103,0.676808985
1087,2721703,662640,0.988,0.036,-0.022,0,0.2,0,-36.6,7.2,26.8,0.174840541,0.698934904,-0.151036103,0.676808985
1088,2723871,662640,0.985,0.04,-0.022,0,0.1,0,-36.6,7.1,27,0.174810022,0.698904386,-0.151066622,0.676808985
1089,2726129,662640,0.981,0.04,-0.018,0,0.1,0,-36.6,7.1,27,0.174810022,0.698904386,-0.151066622,0.676808985
1090,2728383,662640,0.981,0.04,-0.022,0,0.1,0,-36.6,7.1,27,0.174810022,0.698904386,-0.151066622,0.676839503
1091,2730631,662650,0.985,0.036,-0.026,0,0,0,-35.8,7.4,26.7,0.174810022,0.698904386,-0.151066622,0.676839503
1092,2733253,662650,0.985,0.036,-0.022,0,0,0,-35.8,7.4,26.7,0.174810022,0.698904386,-0.151066622,0.676839503
1093,2735427,662650,0.985,0.036,-0.022,0,0,0,-35.8,7.4,26.7,0.174810022,0.698904386,-0.151066622,0.676839503
1094,2738903,662650,0.985,0.036,-0.026,0,-0.1,0,-35.8,7.4,26.7,0.174810022,0.698904386,-0.151066622,0.676808985
1095,2740779,662660,0.988,0.036,-0.022,0,-0.2,0,-34.4,5.9,26.9,0.174810022,0.698904386,-0.151066622,0.676808985
1096,2744023,662660,0.988,0.036,-0.022,0,-0.3,0,-34.4,5.9,26.9,0.174810022,0.698904386,-0.151066622,0.676808985
1097,2746156,662660,0.992,0.044,-0.026,0,-0.2,0,-34.4,5.9,26.9,0.174810022,0.698934904,-0.151066622,0.676808985
1098,2748970,662660,0.985,0.04,-0.026,0,-0.1,0,-34.4,5.9,26.9,0.174810022,0.698934904,-0.151066622,0.676808985
