sample_index,elapsed_us,device_time_ms,acc_x_g,acc_y_g,acc_z_g,gyro_x_dps,gyro_y_dps,gyro_z_dps,mag_x_ut,mag_y_ut,mag_z_ut,quat_w,quat_x,quat_y,quat_z
0,3418,620390,-0.616,-0.551,0.573,5.8,1.9,1.2,1.3,-6.5,-23.8,0.504654073,0.110538041,0.45945616,-0.722464675
1,5838,620390,-0.62,-0.555,0.577,6,2.1,1.2,1.3,-6.5,-23.8,0.504654073,0.110660115,0.459364605,-0.722495193
2,9871,620390,-0.62,-0.555,0.573,6.1,2.2,1.3,1.3,-6.5,-23.8,0.504623554,0.110751671,0.459303568,-0.72255623
3,11356,620390,-0.616,-0.543,0.569,6.2,2.4,1.3,1.3,-6.5,-23.7,0.504623554,0.110873745,0.459212012,-0.722586749
4,13526,620400,-0.624,-0.551,0.577,6.3,2.4,1.4,1.3,-6.5,-23.7,0.504593036,0.110995819,0.459150975,-0.722617267
5,16363,620400,-0.624,-0.543,0.573,6.3,2.6,1.4,1.3,-6.5,-23.7,0.504562517,0.111148412,0.45905942,-0.722678304
6,18684,620400,-0.62,-0.539,0.573,6.3,2.6,1.3,1.3,-6.5,-23.7,0.504562517,0.111270486,0.458998383,-0.722708823
7,20872,620400,-0.62,-0.539,0.573,6.3,2.6,1.3,1.3,-6.5,-23.7,0.504562517,0.111270486,0.458998383,-0.722708823
8,23425,620410,-0.616,-0.536,0.569,6.3,2.8,1.1,5.6,-7.9,-24,0.504623554,0.111514634,0.458571123,-0.722891934
9,25634,620410,-0.62,-0.531,0.569,6.2,2.8,1,5.6,-7.9,-24,0.504593036,0.111636708,0.458510086,-0.722952971
10,29177,620410,-0.616,-0.536,0.569,5.9,2.9,0.9,5.6,-7.9,-24,0.504562517,0.111758782,0.458449049,-0.722983489
11,30952,620410,-0.616,-0.532,0.565,5.5,3,0.7,3,-5,-23.9,0.504531999,0.111880856,0.458388012,-0.723014008
12,33198,620420,-0.616,-0.528,0.561,5.2,3.2,0.5,3,-5,-23.9,0.50450148,0.11200293,0.458326975,-0.723075045
13,36655,620420,-0.62,-0.531,0.561,4.9,3.4,0.5,3,-5,-23.9,0.504440443,0.112094485,0.458296457,-0.723105564
14,38325,620420,-0.624,-0.527,0.561,4.8,3.5,0.5,3,-5,-23.9,0.504409925,0.112216559,0.458265938,-0.723136082
15,40791,620420,-0.624,-0.535,0.565,4.6,3.5,0.4,4.2,-5.2,-23.6,0.504379406,0.112338633,0.458204901,-0.723166601
16,44180,620430,-0.624,-0.531,0.565,4.3,3.7,0.3,4.2,-5.2,-23.6,0.504318369,0.11239967,0.458204901,-0.723197119
17,45818,620430,-0.624,-0.531,0.565,4.1,3.8,0.2,4.2,-5.2,-23.6,0.504287851,0.112552263,0.458174383,-0.723227638
18,48819,620430,-0.624,-0.531,0.573,3.7,3.8,0.2,4.2,-5.2,-23.6,0.504257332,0.112643818,0.458143864,-0.723258156
19,50962,620430,-0.624,-0.531,0.569,3.4,3.8,0.1,4.9,-4.8,-23.9,0.504196295,0.112765893,0.458143864,-0.723288675
20,53195,620440,-0.624,-0.524,0.565,3.1,3.8,0,4.9,-4.8,-23.9,0.504165777,0.112857448,0.458143864,-0.723288675
21,55683,620440,-0.624,-0.527,0.561,2.9,3.9,-0.2,4.9,-4.8,-23.9,0.50410474,0.112949004,0.458113346,-0.723319193
22,59306,620440,-0.628,-0.527,0.565,2.8,4,-0.3,4.9,-4.8,-23.9,0.504043703,0.113040559,0.458113346,-0.723349712
23,60761,620440,-0.624,-0.524,0.557,2.7,4.2,-0.5,5.6,-4.9,-23.6,0.503982665,0.113132115,0.458143864,-0.723349712
24,63635,620450,-0.624,-0.531,0.561,2.7,4.3,-0.5,5.6,-4.9,-23.6,0.503921628,0.11322367,0.458143864,-0.72338023
25,66870,620450,-0.624,-0.535,0.561,2.7,4.5,-0.6,5.6,-4.9,-23.6,0.503860591,0.113315226,0.458143864,-0.723410749
26,68305,620450,-0.624,-0.535,0.565,2.9,4.5,-0.6,5.6,-4.9,-23.6,0.503799554,0.113376263,0.458143864,-0.723441267
27,71270,620450,-0.624,-0.535,0.565,2.9,4.5,-0.6,5.6,-4.9,-23.6,0.503799554,0.113376263,0.458143864,-0.723441267
28,74294,620460,-0.628,-0.543,0.561,3.2,4.7,-0.9,4.7,-6.6,-23.9,0.503799554,0.113742485,0.457930235,-0.723532823
29,75771,620460,-0.624,-0.539,0.561,3.4,4.8,-1.1,4.7,-6.6,-23.9,0.503738517,0.11383404,0.457930235,-0.723563341
30,78795,620460,-0.628,-0.547,0.561,3.4,4.8,-1.3,4.7,-6.6,-23.9,0.503646962,0.113956114,0.457930235,-0.72359386
31,81102,620460,-0.624,-0.543,0.569,3.4,4.7,-1.4,4.9,-5.9,-23.8,0.503585925,0.11404767,0.457930235,-0.723624378
32,83288,620470,-0.628,-0.543,0.565,3.4,4.4,-1.6,4.9,-5.9,-23.8,0.503494369,0.114139225,0.457930235,-0.723685415
33,86172,620470,-0.624,-0.543,0.557,3.5,4.3,-1.6,4.9,-5.9,-23.8,0.503402814,0.114230781,0.457930235,-0.723715934
34,89227,620470,-0.62,-0.543,0.561,3.7,4.4,-1.7,4.9,-5.9,-23.8,0.503341777,0.114322336,0.457930235,-0.723776971
35,90875,620470,-0.62,-0.539,0.561,3.8,4.5,-1.8,4.4,-6,-24,0.503250221,0.114413892,0.457899716,-0.723807489
36,94529,620480,-0.624,-0.543,0.561,3.9,4.7,-1.9,4.4,-6,-24,0.503158666,0.114505448,0.457899716,-0.723868526
37,95972,620480,-0.628,-0.535,0.557,4.1,4.8,-1.9,4.4,-6,-24,0.50306711,0.114627522,0.457899716,-0.723899045
38,98805,620480,-0.624,-0.543,0.561,4.3,4.9,-1.9,4.4,-6,-24,0.502975555,0.114719077,0.457899716,-0.723960082
39,100731,620480,-0.624,-0.539,0.561,4.3,4.9,-1.7,4.6,-7,-23.8,0.502883999,0.114841151,0.457869198,-0.724021119
40,104219,620490,-0.624,-0.539,0.565,4.3,5.1,-1.7,4.6,-7,-23.8,0.502792444,0.114963225,0.457869198,-0.724051637
41,105805,620490,-0.628,-0.539,0.557,4.3,4.9,-1.8,4.6,-7,-23.8,0.502700888,0.115054781,0.457869198,-0.724112674
42,108567,620490,-0.628,-0.535,0.561,4.1,4.9,-2,4.6,-7,-23.8,0.502609333,0.115146336,0.457869198,-0.724173711
43,111741,620490,-0.624,-0.539,0.553,4,4.8,-2,4.2,-8.1,-24,0.502517777,0.11526841,0.457838679,-0.724234748
44,113222,620500,-0.628,-0.539,0.561,3.9,4.8,-1.9,4.2,-8.1,-24,0.502426222,0.115329447,0.457838679,-0.724265267
45,116118,620500,-0.628,-0.539,0.565,3.8,4.9,-1.9,4.2,-8.1,-24,0.502365184,0.115451521,0.457838679,-0.724326304
46,119191,620500,-0.624,-0.535,0.565,3.7,5,-1.7,4.2,-8.1,-24,0.502273629,0.115573595,0.457838679,-0.724356822
47,120834,620500,-0.624,-0.535,0.565,3.7,5,-1.7,4.2,-8.1,-24,0.502273629,0.115573595,0.457838679,-0.724356822
48,124420,620510,-0.624,-0.543,0.565,3.3,5,-1.7,4.2,-5.1,-23.4,0.502212592,0.115817743,0.457655568,-0.724478896
49,125843,620510,-0.632,-0.535,0.565,3.2,5,-1.8,4.2,-5.1,-23.4,0.502121036,0.115939817,0.457655568,-0.724539933
50,128831,620510,-0.628,-0.535,0.565,3,5.1,-1.8,4.2,-5.1,-23.4,0.502029481,0.116031373,0.457655568,-0.724570452
51,131920,620510,-0.632,-0.539,0.565,2.9,5.3,-1.7,4.3,-7.8,-24.6,0.501937925,0.116122929,0.457686087,-0.72460097
52,133402,620520,-0.628,-0.539,0.569,2.6,5.5,-1.7,4.3,-7.8,-24.6,0.50184637,0.116214484,0.457716605,-0.724631489
53,136315,620520,-0.632,-0.539,0.569,2.5,5.6,-1.6,4.3,-7.8,-24.6,0.501754814,0.11630604,0.457747124,-0.724662008
54,139428,620520,-0.632,-0.539,0.569,2.4,5.6,-1.6,4.3,-7.8,-24.6,0.501663259,0.116428114,0.457777642,-0.724692526
55,141647,620520,-0.636,-0.547,0.569,2.3,5.4,-1.6,4.5,-8.2,-24.5,0.501571703,0.116519669,0.457777642,-0.724723045
56,143476,620530,-0.636,-0.551,0.573,2.2,5.4,-1.6,4.5,-8.2,-24.5,0.501480148,0.116611225,0.457808161,-0.724753563
57,146293,620530,-0.636,-0.547,0.569,2.1,5.2,-1.5,4.5,-8.2,-24.5,0.501419111,0.11670278,0.457838679,-0.724753563
58,149422,620530,-0.636,-0.543,0.573,2,5.3,-1.4,4.5,-8.2,-24.5,0.501327555,0.116794336,0.457869198,-0.724784082
59,150866,620530,-0.64,-0.551,0.573,2.1,5.2,-1.4,4.7,-7.6,-24.5,0.501236,0.116885891,0.457899716,-0.7248146
60,153735,620540,-0.636,-0.543,0.565,2.1,5.2,-1.2,4.7,-7.6,-24.5,0.501174963,0.116977447,0.457930235,-0.724845119
61,156945,620540,-0.64,-0.551,0.569,2.3,5.2,-1.1,4.7,-7.6,-24.5,0.501083407,0.117099521,0.457960753,-0.724845119
62,158345,620540,-0.636,-0.547,0.565,2.5,5.2,-1.1,4.7,-7.6,-24.5,0.50102237,0.117191076,0.457960753,-0.724875637
63,161358,620540,-0.64,-0.543,0.558,2.7,5.4,-0.9,4.7,-6.4,-24.4,0.500930815,0.117282632,0.457991272,-0.724906156
64,164499,620550,-0.64,-0.539,0.565,2.8,5.5,-0.9,4.7,-6.4,-24.4,0.500869778,0.117404706,0.45802179,-0.724936674
65,166628,620550,-0.64,-0.543,0.565,2.8,5.5,-0.9,4.7,-6.4,-24.4,0.500778222,0.117496261,0.45802179,-0.724967193
66,168236,620550,-0.64,-0.535,0.565,2.8,5.4,-0.9,4.7,-6.4,-24.4,0.500717185,0.117618336,0.458052309,-0.724997711
67,171263,620550,-0.64,-0.535,0.565,2.8,5.4,-0.9,4.7,-6.4,-24.4,0.500717185,0.117618336,0.458052309,-0.724997711
68,173535,620560,-0.644,-0.539,0.569,2.7,5.4,-0.8,4.8,-6.2,-22.7,0.500656148,0.117954039,0.457960753,-0.72502823
69,175673,620560,-0.644,-0.539,0.565,2.6,5.5,-0.8,4.8,-6.2,-22.7,0.500564592,0.118076113,0.457960753,-0.72502823
70,178758,620560,-0.636,-0.539,0.569,2.6,5.6,-0.8,4.8,-6.2,-22.7,0.500503555,0.118167669,0.457991272,-0.725058748
71,181121,620560,-0.64,-0.539,0.569,2.5,5.7,-0.8,4.7,-6.7,-25,0.500412,0.118259224,0.45802179,-0.725089267
72,183402,620570,-0.64,-0.535,0.565,2.5,5.7,-0.9,4.7,-6.7,-25,0.500350963,0.118411817,0.458052309,-0.725089267
73,186984,620570,-0.64,-0.539,0.565,2.6,5.7,-0.9,4.7,-6.7,-25,0.500259407,0.118503372,0.458082827,-0.725119785
74,188643,620570,-0.636,-0.535,0.561,2.5,5.7,-0.9,4.7,-6.7,-25,0.50019837,0.118625446,0.458082827,-0.725150304
75,190872,620570,-0.644,-0.543,0.565,2.5,5.7,-0.9,4.6,-6.3,-24.7,0.500106815,0.118717002,0.458113346,-0.725180822
76,193270,620580,-0.644,-0.539,0.562,2.4,5.6,-0.9,4.6,-6.3,-24.7,0.500015259,0.118839076,0.458143864,-0.725180822
77,195621,620580,-0.636,-0.531,0.569,2.4,5.6,-0.8,4.6,-6.3,-24.7,0.499954222,0.118930631,0.458174383,-0.725211341
78,199923,620580,-0.64,-0.531,0.561,2.3,5.5,-0.8,4.6,-6.3,-24.7,0.499862667,0.119052705,0.458204901,-0.725211341
79,202208,620580,-0.636,-0.531,0.561,2.1,5.5,-0.8,4.7,-6,-24.9,0.49980163,0.119144261,0.45823542,-0.725241859
80,204467,620590,-0.64,-0.527,0.554,2,5.6,-0.9,4.7,-6,-24.9,0.499710074,0.119235817,0.458265938,-0.725272378
81,206816,620590,-0.644,-0.527,0.558,1.8,5.6,-0.8,4.7,-6,-24.9,0.499649037,0.119357891,0.458296457,-0.725272378
82,208995,620590,-0.644,-0.527,0.55,1.5,5.8,-0.8,4.7,-6,-24.9,0.499588,0.119449446,0.458326975,-0.725272378
83,211306,620590,-0.64,-0.527,0.558,1.3,5.9,-0.8,4.7,-6.4,-24.9,0.499496445,0.119541002,0.458388012,-0.725302896
84,213532,620600,-0.64,-0.523,0.558,1.3,5.9,-0.9,4.7,-6.4,-24.9,0.499435408,0.119663076,0.458418531,-0.725302896
85,215693,620600,-0.64,-0.523,0.55,1.3,5.8,-1,4.7,-6.4,-24.9,0.499343852,0.119724113,0.458479568,-0.725302896
86,218119,620600,-0.636,-0.527,0.554,1.3,5.7,-1,4.7,-6.4,-24.9,0.499252297,0.119846187,0.458510086,-0.725302896
87,221258,620600,-0.636,-0.527,0.554,1.3,5.7,-1,4.7,-6.4,-24.9,0.499252297,0.119846187,0.458510086,-0.725302896
88,223469,620610,-0.64,-0.527,0.554,1.3,5.7,-0.8,5.2,-6.6,-24.6,0.499252297,0.120273446,0.458418531,-0.725302896
89,226763,620610,-0.644,-0.527,0.554,1.3,5.9,-0.9,5.2,-6.6,-24.6,0.499191259,0.120365001,0.458479568,-0.725302896
90,228884,620610,-0.64,-0.531,0.558,1.3,5.9,-0.9,5.2,-6.6,-24.6,0.499099704,0.120487075,0.458510086,-0.725302896
91,231270,620610,-0.64,-0.531,0.558,1.3,6,-1.1,4.8,-6.3,-22.9,0.499038667,0.120578631,0.458571123,-0.725333415
92,233830,620620,-0.64,-0.531,0.554,1.2,6,-1.2,4.8,-6.3,-22.9,0.498947111,0.120670186,0.45863216,-0.725333415
93,236071,620620,-0.644,-0.531,0.558,1,6,-1.4,4.8,-6.3,-22.9,0.498855556,0.120761742,0.458662679,-0.725333415
94,238611,620620,-0.64,-0.531,0.565,0.9,5.9,-1.5,4.8,-6.3,-22.9,0.498764,0.120853298,0.458723716,-0.725363933
95,240687,620620,-0.64,-0.535,0.558,0.7,5.8,-1.5,4.9,-6.2,-21.7,0.498672445,0.120944853,0.458784753,-0.725363933
96,244942,620630,-0.636,-0.527,0.557,0.7,5.6,-1.5,4.9,-6.2,-21.7,0.498611408,0.121036409,0.45884579,-0.725363933
97,245729,620630,-0.64,-0.527,0.558,0.7,5.5,-1.5,4.9,-6.2,-21.7,0.498519852,0.121097446,0.458876308,-0.725394452
98,249413,620630,-0.64,-0.527,0.558,0.7,5.4,-1.5,4.9,-6.2,-21.7,0.498428297,0.121189001,0.458937346,-0.725394452
99,250941,620630,-0.64,-0.527,0.558,0.7,5.5,-1.5,5,-6.5,-21.6,0.49836726,0.121250038,0.458998383,-0.725394452
100,253344,620640,-0.64,-0.527,0.558,0.7,5.6,-1.4,5,-6.5,-21.6,0.498275704,0.121341594,0.459028901,-0.72542497
101,256417,620640,-0.644,-0.527,0.554,0.6,5.6,-1.4,5,-6.5,-21.6,0.498184149,0.121433149,0.459089938,-0.72542497
102,258543,620640,-0.644,-0.531,0.562,0.7,5.6,-1.2,5,-6.5,-21.6,0.498123112,0.121524705,0.459150975,-0.72542497
103,261734,620640,-0.648,-0.531,0.554,0.7,5.4,-1.3,5,-6.7,-21.4,0.498031556,0.121585742,0.459212012,-0.72542497
104,263756,620650,-0.644,-0.531,0.558,0.7,5.4,-1.3,5,-6.7,-21.4,0.497970519,0.121677297,0.459242531,-0.725455489
105,266236,620650,-0.644,-0.531,0.558,0.8,5.3,-1.4,5,-6.7,-21.4,0.497878964,0.121738334,0.459303568,-0.725455489
106,268280,620650,-0.644,-0.535,0.558,1,5.2,-1.4,5,-6.7,-21.4,0.497787408,0.12182989,0.459334086,-0.725455489
107,270922,620650,-0.644,-0.535,0.558,1,5.2,-1.4,5,-6.7,-21.4,0.497787408,0.12182989,0.459334086,-0.725455489
108,273981,620660,-0.64,-0.539,0.558,1.2,5.1,-1.3,4.9,-6.2,-25.7,0.497817927,0.122257149,0.459212012,-0.725455489
109,276259,620660,-0.64,-0.535,0.561,1.2,5.2,-1.3,4.9,-6.2,-25.7,0.49775689,0.122348704,0.459242531,-0.725486007
110,278697,620660,-0.644,-0.535,0.554,1.1,5.3,-1.4,4.9,-6.2,-25.7,0.497665334,0.122409742,0.459303568,-0.725486007
111,280986,620660,-0.644,-0.539,0.562,1.2,5.2,-1.4,4.8,-6.7,-23.8,0.497604297,0.122501297,0.459334086,-0.725486007
112,283446,620670,-0.644,-0.535,0.558,1.2,5.1,-1.5,4.8,-6.7,-23.8,0.497512741,0.122592853,0.459395123,-0.725516526
113,286097,620670,-0.648,-0.535,0.554,1.3,4.9,-1.6,4.8,-6.7,-23.8,0.497421186,0.12265389,0.459425642,-0.725547044
114,288150,620670,-0.648,-0.539,0.554,1.4,4.8,-1.7,4.8,-6.7,-23.8,0.497360149,0.122745445,0.45945616,-0.725547044
115,291138,620670,-0.644,-0.543,0.558,1.6,4.7,-1.7,4.5,-6.6,-24.5,0.497268593,0.122806482,0.45945616,-0.725577563
116,293542,620680,-0.648,-0.547,0.562,1.7,4.7,-1.6,4.5,-6.6,-24.5,0.497207556,0.122898038,0.459517197,-0.725608081
117,295788,620680,-0.644,-0.543,0.558,1.9,4.8,-1.4,4.5,-6.6,-24.5,0.497116001,0.122959075,0.459547716,-0.725608081
118,298363,620680,-0.644,-0.551,0.558,2.1,4.8,-1.3,4.5,-6.6,-24.5,0.497054964,0.12305063,0.459547716,-0.7256386
119,301669,620680,-0.648,-0.547,0.566,2.3,4.8,-1.2,4.5,-6.6,-24.5,0.496963408,0.123142186,0.459578234,-0.725669118
120,303222,620690,-0.644,-0.539,0.562,2.4,4.8,-1.3,4.5,-6.6,-24.5,0.496902371,0.123233741,0.459578234,-0.725699637
121,305632,620690,-0.648,-0.547,0.554,2.3,4.7,-1.3,4.5,-6.6,-24.5,0.496810816,0.123325297,0.459608753,-0.725730155
122,308590,620690,-0.648,-0.543,0.558,2.2,4.6,-1.2,4.5,-6.6,-24.5,0.496749779,0.123416852,0.459639271,-0.725760674
123,310886,620690,-0.652,-0.543,0.558,2.1,4.5,-1.2,4.5,-6.6,-24.5,0.496658223,0.123477889,0.459639271,-0.725760674
124,313194,620700,-0.648,-0.539,0.562,2,4.3,-1.2,4.5,-6.6,-24.5,0.496566668,0.123569445,0.45966979,-0.725791192
125,316519,620700,-0.652,-0.539,0.562,1.9,4.2,-1.2,4.5,-6.6,-24.5,0.496536149,0.123630482,0.45966979,-0.725821711
126,318768,620700,-0.652,-0.539,0.558,1.8,4.2,-1.2,4.5,-6.6,-24.5,0.496475112,0.123722037,0.459700308,-0.725821711
127,320770,620700,-0.652,-0.539,0.558,1.8,4.2,-1.2,4.5,-6.6,-24.5,0.496475112,0.123722037,0.459700308,-0.725821711
128,325067,620710,-0.648,-0.535,0.558,1.5,4.1,-1.2,5.1,-6.5,-23.5,0.496444594,0.124027223,0.459608753,-0.725852229
129,327219,620710,-0.648,-0.539,0.562,1.4,3.9,-1.3,5.1,-6.5,-23.5,0.496383557,0.12408826,0.459639271,-0.725882748
130,328703,620710,-0.64,-0.543,0.561,1.4,3.7,-1.2,5.1,-6.5,-23.5,0.49632252,0.124118778,0.459639271,-0.725882748
131,330964,620710,-0.644,-0.539,0.554,1.3,3.6,-1.2,5.1,-6.5,-23.5,0.496261483,0.124210334,0.45966979,-0.725913266
132,333351,620720,-0.644,-0.543,0.562,1.3,3.6,-1.2,5.1,-6.5,-23.5,0.496200446,0.124271371,0.459700308,-0.725913266
133,335814,620720,-0.64,-0.543,0.554,1.3,3.6,-1.2,5.1,-6.5,-23.5,0.496139409,0.124332408,0.459700308,-0.725943785
134,340083,620720,-0.64,-0.547,0.558,1.2,3.6,-1.2,5.1,-6.5,-23.5,0.496078372,0.124393445,0.459730827,-0.725943785
135,340942,620720,-0.648,-0.551,0.562,1,3.6,-1.2,5.1,-6.5,-23.5,0.496017335,0.124454482,0.459761345,-0.725974303
136,343234,620730,-0.644,-0.551,0.562,0.7,3.7,-1.2,5.1,-6.5,-23.5,0.495956297,0.124515519,0.459791864,-0.725974303
137,346692,620730,-0.636,-0.547,0.557,0.6,3.7,-1.4,5.1,-6.5,-23.5,0.49589526,0.124546037,0.459822382,-0.726004822
138,348762,620730,-0.644,-0.551,0.566,0.6,3.7,-1.4,5.1,-6.5,-23.5,0.495834223,0.124607074,0.459852901,-0.726004822
139,351191,620730,-0.64,-0.547,0.561,0.7,3.6,-1.3,5.1,-6.5,-23.5,0.495773186,0.124668111,0.459883419,-0.726004822
140,353248,620740,-0.64,-0.547,0.561,0.8,3.5,-1.2,5.1,-6.5,-23.5,0.495742668,0.12469863,0.459913938,-0.72603534
141,355753,620740,-0.644,-0.555,0.566,1,3.4,-1.1,5.1,-6.5,-23.5,0.495681631,0.124759667,0.459944456,-0.72603534
142,358708,620740,-0.644,-0.555,0.562,1.2,3.3,-1.1,5.1,-6.5,-23.5,0.495620594,0.124820704,0.459974975,-0.726065859
143,360832,620740,-0.644,-0.551,0.562,1.3,3.2,-0.9,5.1,-6.5,-23.5,0.495559557,0.124881741,0.459974975,-0.726065859
144,363900,620750,-0.64,-0.551,0.562,1.5,3.4,-0.8,5.1,-6.5,-23.5,0.495529038,0.124942778,0.460005493,-0.726096377
145,366174,620750,-0.644,-0.543,0.558,1.6,3.4,-0.6,5.1,-6.5,-23.5,0.495468001,0.125003815,0.460005493,-0.726096377
146,368260,620750,-0.648,-0.551,0.562,1.7,3.5,-0.6,5.1,-6.5,-23.5,0.495406964,0.125064852,0.460005493,-0.726126896
147,371424,620750,-0.648,-0.551,0.562,1.7,3.5,-0.6,5.1,-6.5,-23.5,0.495406964,0.125064852,0.460005493,-0.726126896
148,373607,620760,-0.648,-0.547,0.562,1.6,3.4,-0.6,3.5,-6.8,-23.7,0.495376446,0.125186926,0.459883419,-0.726187933
149,375804,620760,-0.652,-0.543,0.554,1.6,3.4,-0.6,3.5,-6.8,-23.7,0.495315409,0.125278481,0.459913938,-0.726218451
150,378974,620760,-0.652,-0.539,0.558,1.6,3.3,-0.7,3.5,-6.8,-23.7,0.49528489,0.125339518,0.459913938,-0.726218451
151,381172,620760,-0.656,-0.542,0.562,1.6,3.3,-0.6,3.5,-6.8,-23.7,0.495223853,0.125400555,0.459913938,-0.72624897
152,383507,620770,-0.66,-0.531,0.558,1.6,3.3,-0.6,3.5,-6.8,-23.7,0.495193335,0.125461592,0.459944456,-0.72624897
153,385648,620770,-0.66,-0.538,0.554,1.6,3.3,-0.6,3.5,-6.8,-23.7,0.495132298,0.125522629,0.459944456,-0.726279489
154,388802,620770,-0.656,-0.535,0.554,1.6,3.2,-0.6,3.5,-6.8,-23.7,0.495101779,0.125583666,0.459974975,-0.726279489
155,391471,620770,-0.66,-0.535,0.558,1.6,3.1,-0.6,3.5,-6.8,-23.7,0.495040742,0.125644704,0.459974975,-0.726310007
156,393708,620780,-0.664,-0.534,0.55,1.7,3.1,-0.7,3.5,-6.8,-23.7,0.494979705,0.125705741,0.459974975,-0.726310007
157,396108,620780,-0.652,-0.531,0.55,1.7,3.1,-0.9,3.5,-6.8,-23.7,0.494949187,0.125766778,0.459974975,-0.726340526
158,398426,620780,-0.656,-0.531,0.55,1.8,3.1,-1.1,3.5,-6.8,-23.7,0.49488815,0.125827815,0.460005493,-0.726371044
159,401902,620780,-0.656,-0.535,0.55,1.8,2.9,-1.2,3.5,-6.8,-23.7,0.494827113,0.125888852,0.460005493,-0.726401563
160,403462,620790,-0.656,-0.535,0.558,1.8,2.5,-1.3,3.5,-6.8,-23.7,0.494766076,0.12591937,0.460005493,-0.726401563
161,405880,620790,-0.656,-0.535,0.558,1.8,2.3,-1.4,3.5,-6.8,-23.7,0.494735557,0.125980407,0.460005493,-0.726432081
162,408195,620790,-0.66,-0.538,0.558,1.8,2.3,-1.5,3.5,-6.8,-23.7,0.49467452,0.126010926,0.460005493,-0.7264626
163,411857,620790,-0.66,-0.538,0.562,1.8,2.3,-1.9,3.5,-6.8,-23.7,0.494613483,0.126041444,0.460005493,-0.726493118
164,413608,620800,-0.66,-0.542,0.558,2.1,2.3,-2.1,3.5,-6.8,-23.7,0.494552446,0.126071963,0.460005493,-0.726554155
165,416879,620800,-0.66,-0.542,0.562,2.4,2.3,-2.2,3.5,-6.8,-23.7,0.494491409,0.126133,0.460005493,-0.726584674
166,418884,620800,-0.652,-0.546,0.562,2.8,2.1,-2.2,3.5,-6.8,-23.7,0.494430372,0.126163518,0.459974975,-0.726615192
167,420872,620800,-0.652,-0.546,0.562,2.8,2.1,-2.2,3.5,-6.8,-23.7,0.494430372,0.126163518,0.459974975,-0.726615192
168,424322,620810,-0.648,-0.554,0.562,3.6,1.7,-2.5,5,-6.7,-23.7,0.494430372,0.126438185,0.459761345,-0.726737266
169,425894,620810,-0.648,-0.558,0.558,3.9,1.5,-2.7,5,-6.7,-23.7,0.494338816,0.126468703,0.459730827,-0.726798303
170,428353,620810,-0.648,-0.562,0.57,4.3,1.4,-2.8,5,-6.7,-23.7,0.494277779,0.12652974,0.45966979,-0.72685934
171,430824,620810,-0.648,-0.574,0.57,4.7,1.3,-2.9,5,-6.7,-23.7,0.494216742,0.126560259,0.459639271,-0.726920377
172,433548,620820,-0.644,-0.574,0.57,5.2,1.3,-3,5,-6.7,-23.7,0.494125187,0.126621296,0.459578234,-0.727011933
173,435837,620820,-0.64,-0.578,0.573,5.5,1.3,-3.1,5,-6.7,-23.7,0.494033631,0.126651814,0.459517197,-0.727103488
174,438368,620820,-0.648,-0.582,0.581,5.9,1.4,-3.2,5,-6.7,-23.7,0.493972594,0.126712851,0.459425642,-0.727195044
175,440754,620820,-0.648,-0.586,0.581,6.4,1.5,-3.2,4.2,-6.8,-23.3,0.493881039,0.126773888,0.459364605,-0.727286599
176,443288,620830,-0.648,-0.582,0.577,6.9,1.5,-3.1,4.2,-6.8,-23.3,0.493789483,0.126834925,0.459273049,-0.727378155
177,446512,620830,-0.652,-0.59,0.581,7.6,1.4,-3,4.2,-6.8,-23.3,0.493697928,0.126926481,0.459181494,-0.727500229
178,448682,620830,-0.648,-0.586,0.589,8.3,1.3,-2.8,4.2,-6.8,-23.3,0.493636891,0.127018036,0.45905942,-0.727591784
179,451741,620830,-0.641,-0.59,0.585,8.9,1.1,-2.6,3.4,-6.5,-23.5,0.493545335,0.127109592,0.458937346,-0.727713858
180,453999,620840,-0.644,-0.586,0.577,9.7,1,-2.5,3.4,-6.5,-23.5,0.493484298,0.127170629,0.458815271,-0.727835932
181,455823,620840,-0.644,-0.582,0.581,10.5,1,-2.4,3.4,-6.5,-23.5,0.493392743,0.127292703,0.458662679,-0.727958007
182,458841,620840,-0.644,-0.586,0.577,11.3,0.9,-2.4,3.4,-6.5,-23.5,0.493301187,0.127414777,0.458479568,-0.728110599
183,460813,620840,-0.645,-0.59,0.581,12,0.9,-2.4,3.4,-6.5,-23.5,0.49324015,0.127536851,0.458326975,-0.728263192
184,464619,620850,-0.641,-0.59,0.573,12.6,0.9,-2.3,3.4,-6.5,-23.5,0.493148595,0.127658925,0.458143864,-0.728385266
185,466347,620850,-0.641,-0.586,0.573,13.2,1,-2.4,3.4,-6.5,-23.5,0.493057039,0.127780999,0.457930235,-0.728568377
186,468304,620850,-0.644,-0.586,0.577,13.7,1,-2.5,3.4,-6.5,-23.5,0.492965484,0.127933592,0.457747124,-0.728720969
187,470779,620850,-0.644,-0.586,0.577,13.7,1,-2.5,3.4,-6.5,-23.5,0.492965484,0.127933592,0.457747124,-0.728720969
188,473282,620860,-0.645,-0.59,0.577,14.4,1.2,-2.6,2.7,-6.8,-23.6,0.492721335,0.128025147,0.457319864,-0.729148228
189,476542,620860,-0.644,-0.586,0.577,14.9,1.4,-2.7,2.7,-6.8,-23.6,0.492599261,0.128147221,0.457106235,-0.729300821
190,478552,620860,-0.645,-0.586,0.573,15.5,1.6,-2.7,2.7,-6.8,-23.6,0.492507706,0.128330332,0.456892605,-0.729483932
191,480847,620860,-0.64,-0.582,0.589,16.1,1.8,-2.8,2.8,-6.6,-23.5,0.492385632,0.128513443,0.456678976,-0.729667043
192,483432,620870,-0.648,-0.59,0.593,16.6,2,-2.8,2.8,-6.6,-23.5,0.492294076,0.128696554,0.456434828,-0.729880673
193,486468,620870,-0.672,-0.574,0.562,17,2.1,-2.7,2.8,-6.6,-23.5,0.492172002,0.128879666,0.45619068,-0.730063784
194,488486,620870,-0.676,-0.566,0.559,17.3,2.3,-2.6,2.8,-6.6,-23.5,0.492049928,0.129093295,0.455946532,-0.730246895
195,490801,620870,-0.672,-0.566,0.566,17.4,2.3,-2.7,3.2,-6.8,-23.5,0.491927854,0.129276406,0.455702383,-0.730460524
196,493307,620880,-0.664,-0.574,0.566,17.4,2.2,-3,3.2,-6.8,-23.5,0.49180578,0.129490036,0.455458235,-0.730643635
197,496910,620880,-0.648,-0.582,0.577,17.3,2.3,-3.3,3.2,-6.8,-23.5,0.491683706,0.129673147,0.455214087,-0.730857265
198,499397,620880,-0.625,-0.582,0.581,17.3,2.5,-3.5,3.2,-6.8,-23.5,0.491561632,0.129856258,0.454969939,-0.731070894
199,500947,620880,-0.613,-0.587,0.58,17.2,2.7,-3.5,4,-7,-23.7,0.491439558,0.130069887,0.454725791,-0.731254006
200,503264,620890,-0.613,-0.587,0.58,17.3,2.7,-3.3,4,-7,-23.7,0.491286966,0.130252998,0.454512162,-0.731437117
201,506630,620890,-0.625,-0.586,0.581,17.4,2.8,-3.4,4,-7,-23.7,0.491164892,0.130466628,0.454268014,-0.731650746
202,508290,620890,-0.64,-0.582,0.585,17.6,3,-3.8,4,-7,-23.7,0.491012299,0.130649739,0.454023865,-0.731864376
203,511730,620890,-0.656,-0.574,0.582,17.8,3.6,-4.3,4,-7,-23.7,0.490859706,0.130863369,0.453779717,-0.732078005
204,513825,620900,-0.68,-0.558,0.586,17.9,4.5,-4.6,4,-7,-23.7,0.490707114,0.131076998,0.453566088,-0.732291635
205,516177,620900,-0.676,-0.558,0.578,18,5.2,-4.6,4,-7,-23.7,0.490524003,0.131321146,0.453352458,-0.732505264
206,518298,620900,-0.676,-0.558,0.566,18.1,5.7,-4.3,4,-7,-23.7,0.490340892,0.131565294,0.453138829,-0.732718894
207,520895,620900,-0.676,-0.558,0.566,18.1,5.7,-4.3,4,-7,-23.7,0.490340892,0.131565294,0.453138829,-0.732718894
208,523216,620910,-0.649,-0.586,0.562,18.6,5.7,-4,5.8,-6.2,-23.6,0.490005188,0.132114628,0.45271157,-0.733115635
209,526666,620910,-0.641,-0.59,0.569,19.1,5.6,-4.1,5.8,-6.2,-23.6,0.489822077,0.132358776,0.452467421,-0.733329264
210,528763,620910,-0.637,-0.594,0.577,19.9,5.7,-4.5,5.8,-6.2,-23.6,0.489638966,0.132633442,0.452223273,-0.733542894
211,531098,620910,-0.633,-0.606,0.585,20.9,5.9,-4.9,5.7,-6.6,-23.4,0.489425336,0.13287759,0.451979125,-0.733787042
212,533306,620920,-0.637,-0.614,0.585,21.8,6.3,-5.3,5.7,-6.6,-23.4,0.489211707,0.133182775,0.451704459,-0.734061708
213,536343,620920,-0.637,-0.606,0.589,22.6,6.7,-5.7,5.7,-6.6,-23.4,0.488998077,0.133457442,0.451429792,-0.734305857
214,538349,620920,-0.645,-0.606,0.593,23.1,7.4,-6,5.7,-6.6,-23.4,0.488753929,0.133762627,0.451155126,-0.734580523
215,542102,620920,-0.649,-0.594,0.593,23.3,8.3,-6,6.1,-6.3,-23.3,0.488509781,0.134098331,0.450880459,-0.73485519
216,544172,620930,-0.648,-0.59,0.593,23.4,9,-5.9,6.1,-6.3,-23.3,0.488265633,0.134434034,0.450636311,-0.735129856
217,545853,620930,-0.644,-0.586,0.589,23.5,9.5,-5.8,6.1,-6.3,-23.3,0.487990967,0.134769738,0.450361644,-0.735343486
218,549540,620930,-0.644,-0.582,0.593,23.9,9.8,-5.6,6.1,-6.3,-23.3,0.487746818,0.13513596,0.450117496,-0.735648671
219,551747,620930,-0.64,-0.578,0.581,24.4,10,-5.5,6.1,-6.9,-23.3,0.487472152,0.135502182,0.44984283,-0.735923338
220,553833,620940,-0.632,-0.578,0.573,25,10.1,-5.6,6.1,-6.9,-23.3,0.487228004,0.135868404,0.449568163,-0.736198004
221,556947,620940,-0.637,-0.582,0.569,25.7,10.2,-6,6.1,-6.9,-23.3,0.486953337,0.136265145,0.449293497,-0.736472671
222,559163,620940,-0.625,-0.582,0.569,26.6,10.3,-6.7,6.1,-6.9,-23.3,0.486648152,0.136631367,0.448988311,-0.736777856
223,560730,620940,-0.621,-0.586,0.577,27.6,10.4,-7.3,6.1,-6.9,-23.3,0.486342967,0.137028108,0.448683126,-0.737113559
224,563414,620950,-0.617,-0.587,0.581,28.6,10.8,-7.9,6.1,-6.9,-23.3,0.486037782,0.137424848,0.448347423,-0.737449263
225,567469,620950,-0.617,-0.583,0.577,29.5,11.2,-8.3,6.1,-6.9,-23.3,0.485702078,0.137852107,0.448011719,-0.737784967
226,568202,620950,-0.617,-0.583,0.588,30.1,11.8,-8.4,6.1,-6.9,-23.3,0.485366375,0.138279366,0.447676016,-0.73812067
227,571847,620950,-0.617,-0.583,0.588,30.1,11.8,-8.4,6.1,-6.9,-23.3,0.485366375,0.138279366,0.447676016,-0.73812067
228,573903,620960,-0.612,-0.559,0.588,30.4,13.1,-8.4,5.8,-8.7,-23.1,0.484481338,0.138767663,0.447096164,-0.738975188
229,576461,620960,-0.612,-0.559,0.592,30.3,13.7,-8.4,5.8,-8.7,-23.1,0.484145634,0.13922544,0.44676046,-0.739310892
230,578403,620960,-0.608,-0.551,0.592,30.3,14.1,-8.4,5.8,-8.7,-23.1,0.483779412,0.139683218,0.446455275,-0.739646596
231,582275,620960,-0.608,-0.547,0.6,30.3,14.6,-8.4,5.6,-10.2,-23,0.483382672,0.140171514,0.44615009,-0.739982299
232,583295,620970,-0.604,-0.544,0.596,30.3,14.9,-8.3,5.6,-10.2,-23,0.483016449,0.14065981,0.445844905,-0.740318003
233,586927,620970,-0.6,-0.544,0.592,30,15.3,-8.2,5.6,-10.2,-23,0.482650227,0.141148106,0.44553972,-0.740653706
234,588279,620970,-0.6,-0.544,0.58,29.5,15.5,-8.2,5.6,-10.2,-23,0.482284005,0.141605884,0.445234535,-0.74098941
235,591697,620970,-0.6,-0.544,0.58,28.9,15.7,-8.3,5.9,-10.7,-22.6,0.481887265,0.14209418,0.444959868,-0.741294595
236,593981,620980,-0.608,-0.551,0.588,28.1,16,-8.3,5.9,-10.7,-22.6,0.481521043,0.142582476,0.44471572,-0.741630299
237,596281,620980,-0.608,-0.555,0.58,27.5,16.3,-8.4,5.9,-10.7,-22.6,0.481124302,0.143040254,0.444471572,-0.741935484
238,598184,620980,-0.601,-0.571,0.576,27.2,16.7,-8.4,5.9,-10.7,-22.6,0.48075808,0.14352855,0.444227424,-0.74221015
239,601969,620980,-0.597,-0.579,0.576,26.9,17,-8.4,5.8,-11.2,-22.6,0.480361339,0.143986328,0.443983276,-0.742515336
240,604177,620990,-0.593,-0.591,0.576,26.9,17.2,-8.6,5.8,-11.2,-22.6,0.479964599,0.144474624,0.443769646,-0.742820521
241,606636,620990,-0.593,-0.595,0.58,27,17.4,-8.8,5.8,-11.2,-22.6,0.479567858,0.14496292,0.443525498,-0.743125706
242,609411,620990,-0.585,-0.599,0.576,27.2,17.5,-9.2,5.8,-11.2,-22.6,0.479171117,0.145420698,0.443311869,-0.743430891
243,610990,620990,-0.589,-0.595,0.572,27.7,17.6,-9.5,5.8,-11.2,-22.6,0.478743858,0.145908994,0.443067721,-0.743736076
244,613329,621000,-0.585,-0.595,0.568,28,17.8,-10,5.8,-11.2,-22.6,0.478316599,0.14639729,0.442823572,-0.744041261
245,616433,621000,-0.589,-0.587,0.56,28.5,18,-10.6,5.8,-11.2,-22.6,0.47788934,0.146885586,0.442579424,-0.744376965
246,618714,621000,-0.589,-0.575,0.56,29.1,18.2,-11,5.8,-11.2,-22.6,0.477431562,0.147373882,0.442335276,-0.744712668
247,620598,621000,-0.589,-0.575,0.56,29.1,18.2,-11,5.8,-11.2,-22.6,0.477431562,0.147373882,0.442335276,-0.744712668
248,624284,621010,-0.581,-0.552,0.556,30.9,18.4,-11.8,6.1,-8.6,-24.2,0.476180303,0.147679067,0.442030091,-0.745658742
249,625988,621010,-0.584,-0.54,0.552,31.7,18.5,-12,6.1,-8.6,-24.2,0.475722526,0.148228401,0.441755425,-0.746024964
250,628261,621010,-0.584,-0.528,0.548,32.1,18.5,-12.1,6.1,-8.6,-24.2,0.47523423,0.148747215,0.44145024,-0.746391186
251,630628,621010,-0.584,-0.524,0.548,32.2,18.6,-12.3,6.5,-8.5,-24.1,0.474745933,0.14926603,0.441175573,-0.746757408
252,634951,621020,-0.588,-0.52,0.548,32.3,18.6,-12.6,6.5,-8.5,-24.1,0.474257637,0.149784845,0.440870388,-0.747154149
253,635657,621020,-0.592,-0.513,0.537,32.3,18.8,-12.9,6.5,-8.5,-24.1,0.473738823,0.150273141,0.440565203,-0.747520371
254,638301,621020,-0.584,-0.509,0.536,32.4,18.9,-13.4,6.5,-8.5,-24.1,0.473250526,0.150791955,0.440290536,-0.747917112
255,641666,621020,-0.584,-0.505,0.54,32.5,19.1,-13.9,6.9,-7.6,-24,0.472731712,0.15131077,0.44001587,-0.748313852
256,643336,621030,-0.584,-0.505,0.536,32.4,19.2,-14.6,6.9,-7.6,-24,0.472182379,0.151829585,0.439710685,-0.748710593
257,645921,621030,-0.584,-0.501,0.544,32.1,19.4,-15.3,6.9,-7.6,-24,0.471663564,0.152317881,0.439436018,-0.749107334
258,648246,621030,-0.584,-0.497,0.54,31.6,19.4,-16.1,6.9,-7.6,-24,0.471083712,0.152806177,0.43919187,-0.749534593
259,651865,621030,-0.58,-0.493,0.54,30.9,19.5,-16.7,6.8,-7.1,-23.9,0.470534379,0.153294473,0.438947722,-0.749931333
260,653480,621040,-0.584,-0.489,0.544,30.2,19.6,-17.3,6.8,-7.1,-23.9,0.469954527,0.153752251,0.438703574,-0.750328074
261,655875,621040,-0.584,-0.489,0.544,29.6,19.9,-17.8,6.8,-7.1,-23.9,0.469374676,0.154210028,0.438489944,-0.750724815
262,659870,621040,-0.588,-0.489,0.556,29.2,20.3,-18.1,6.8,-7.1,-23.9,0.468794824,0.154667806,0.438276315,-0.751121555
263,661738,621040,-0.592,-0.489,0.552,29.1,20.9,-18.1,6.8,-7.1,-23.9,0.468184454,0.155156102,0.438062685,-0.751518296
264,663286,621050,-0.595,-0.485,0.568,29,21.6,-18.1,6.8,-7.1,-23.9,0.467574084,0.15561388,0.437879574,-0.751915036
265,666592,621050,-0.599,-0.493,0.568,29,22.2,-18,6.8,-7.1,-23.9,0.466963713,0.156102176,0.437696463,-0.752281259
266,668690,621050,-0.599,-0.497,0.576,28.9,22.7,-18.2,6.8,-7.1,-23.9,0.466353343,0.156590472,0.437513352,-0.752677999
267,670792,621050,-0.599,-0.497,0.576,28.9,22.7,-18.2,6.8,-7.1,-23.9,0.466353343,0.156590472,0.437513352,-0.752677999
268,674668,621060,-0.607,-0.5,0.588,28.6,23.5,-18.6,6.6,-8.9,-22.5,0.465132603,0.157536546,0.437055574,-0.753501999
269,676515,621060,-0.607,-0.504,0.588,28.4,23.8,-18.9,6.6,-8.9,-22.5,0.464491714,0.158024842,0.436872463,-0.75389874
270,678472,621060,-0.603,-0.504,0.592,28.2,24,-19.1,6.6,-8.9,-22.5,0.463850826,0.158513138,0.436719871,-0.754264962
271,680656,621060,-0.608,-0.512,0.592,28,24.4,-19.5,6.8,-9.3,-22,0.463209937,0.159031953,0.436567278,-0.754661702
272,683415,621070,-0.615,-0.512,0.596,27.9,25,-19.7,6.8,-9.3,-22,0.46253853,0.159520249,0.436445204,-0.755027924
273,685791,621070,-0.619,-0.512,0.588,27.9,25.7,-20,6.8,-9.3,-22,0.461867122,0.160039064,0.43632313,-0.755394147
274,688913,621070,-0.623,-0.512,0.592,28,26.2,-20.3,6.8,-9.3,-22,0.461195715,0.160557878,0.436170537,-0.755790887
275,691069,621070,-0.631,-0.519,0.592,28.1,26.7,-20.7,7,-9.5,-21.8,0.460493789,0.161107212,0.436078982,-0.756157109
276,693381,621080,-0.628,-0.523,0.592,28.2,27.2,-21.1,7,-9.5,-21.8,0.459791864,0.161626026,0.435956908,-0.75655385
277,695829,621080,-0.632,-0.523,0.585,28.2,27.6,-21.6,7,-9.5,-21.8,0.45905942,0.162175359,0.435834834,-0.756950591
278,699408,621080,-0.636,-0.531,0.585,28.5,27.8,-21.9,7,-9.5,-21.8,0.458326975,0.162694174,0.43571276,-0.757347331
279,700626,621080,-0.632,-0.535,0.573,28.9,27.9,-22.3,7.6,-9.2,-20.2,0.457594531,0.163243507,0.435590686,-0.757744072
280,703716,621090,-0.628,-0.535,0.557,29.4,27.8,-22.6,7.6,-9.2,-20.2,0.456831568,0.163762322,0.435468612,-0.758140812
281,705753,621090,-0.636,-0.543,0.557,29.7,27.7,-22.7,7.6,-9.2,-20.2,0.456099124,0.164281137,0.435346538,-0.758537553
282,709728,621090,-0.64,-0.547,0.554,30.1,27.7,-22.9,7.6,-9.2,-20.2,0.455336161,0.164860988,0.435193945,-0.758964812
283,711316,621090,-0.636,-0.559,0.546,30.3,27.7,-23,7.6,-9.2,-20.2,0.454603717,0.165410321,0.435041353,-0.759392071
284,713607,621100,-0.632,-0.563,0.546,30.6,27.7,-23.1,7.6,-9.2,-20.2,0.453840754,0.165929136,0.43488876,-0.759788812
285,715875,621100,-0.636,-0.559,0.55,30.6,27.7,-23.4,7.6,-9.2,-20.2,0.453077792,0.166478469,0.434766686,-0.760216071
286,718527,621100,-0.636,-0.563,0.542,30.5,27.7,-24,7.6,-9.2,-20.2,0.452314829,0.167027802,0.434614093,-0.76064333
287,720631,621100,-0.636,-0.563,0.542,30.5,27.7,-24,7.6,-9.2,-20.2,0.452314829,0.167027802,0.434614093,-0.76064333
288,724302,621110,-0.632,-0.563,0.554,29.7,28,-25.9,8,-9.3,-20.2,0.450575274,0.167912839,0.434553056,-0.761497848
289,725698,621110,-0.628,-0.559,0.557,29.4,28.2,-26.9,8,-9.3,-20.2,0.449751274,0.168401135,0.434430982,-0.761955626
290,728853,621110,-0.628,-0.555,0.569,29.6,28.5,-27.7,8,-9.3,-20.2,0.448896756,0.16891995,0.434339427,-0.762413404
291,731022,621110,-0.62,-0.543,0.573,29.9,28.7,-28.4,8,-9.5,-20.8,0.448042238,0.169408246,0.434217353,-0.762871181
292,734050,621120,-0.624,-0.535,0.581,30.4,29,-28.8,8,-9.5,-20.8,0.447187719,0.169927061,0.43406476,-0.763328959
293,735732,621120,-0.62,-0.524,0.577,30.9,29.3,-29.1,8,-9.5,-20.8,0.446302683,0.170445875,0.433973205,-0.763786737
294,739463,621120,-0.619,-0.5,0.58,31.3,29.6,-29.1,8,-9.5,-20.8,0.445417646,0.17096469,0.433851131,-0.764244514
295,741337,621120,-0.623,-0.496,0.569,31.9,30,-29.2,8,-9.5,-20.5,0.444532609,0.171483505,0.433729057,-0.76473281
296,743266,621130,-0.619,-0.484,0.572,32.5,30.4,-29.2,8,-9.5,-20.5,0.443647572,0.172032838,0.433576464,-0.765221107
297,746685,621130,-0.619,-0.48,0.584,33.2,30.7,-29.1,8,-9.5,-20.5,0.442732017,0.17261269,0.433423872,-0.765678884
298,748236,621130,-0.627,-0.476,0.584,33.7,31,-28.8,8,-9.5,-20.5,0.441816462,0.173162023,0.433271279,-0.76616718
299,751253,621130,-0.631,-0.476,0.588,34.1,31.5,-28.3,8.7,-9.4,-21,0.440931425,0.173772393,0.433118686,-0.766655477
300,753649,621140,-0.631,-0.476,0.584,34,31.8,-28,8.7,-9.4,-21,0.44001587,0.174352245,0.432966094,-0.767113254
301,756291,621140,-0.635,-0.472,0.577,33.4,32.3,-27.7,8.7,-9.4,-21,0.439130833,0.174962615,0.432813501,-0.767571032
302,759179,621140,-0.639,-0.476,0.581,32.3,32.6,-27.7,8.7,-9.4,-21,0.438245796,0.175542467,0.432691427,-0.768028809
303,760737,621140,-0.635,-0.48,0.588,30.9,32.9,-27.7,8.7,-9.4,-21,0.437330241,0.176122318,0.432599872,-0.768456069
304,763994,621150,-0.627,-0.488,0.584,29.5,33.1,-27.7,8.7,-9.4,-21,0.436445204,0.17670217,0.432538835,-0.768852809
305,766089,621150,-0.631,-0.492,0.588,28.2,33.3,-27.8,8.7,-9.4,-21,0.435560167,0.177282022,0.432477798,-0.769280068
306,768280,621150,-0.631,-0.496,0.585,27.1,33.8,-27.8,8.7,-9.4,-21,0.43467513,0.177831355,0.432447279,-0.76964629
307,770640,621150,-0.631,-0.496,0.585,27.1,33.8,-27.8,8.7,-9.4,-21,0.43467513,0.177831355,0.432447279,-0.76964629
308,773584,621160,-0.635,-0.496,0.585,25.6,35,-27.1,8.8,-9.7,-21.2,0.432996612,0.178930021,0.432172613,-0.770500809
309,775786,621160,-0.643,-0.499,0.581,24.8,35.7,-26.5,8.8,-9.7,-21.2,0.432111576,0.179509873,0.432203131,-0.770836512
310,779075,621160,-0.647,-0.503,0.585,24.1,36.3,-25.9,8.8,-9.7,-21.2,0.431226539,0.180120243,0.43223365,-0.771172216
311,780981,621160,-0.651,-0.499,0.581,23.1,36.9,-25.5,9.5,-9.5,-22.1,0.430372021,0.180730613,0.432294687,-0.771477401
312,783653,621170,-0.663,-0.507,0.574,22.3,37.4,-25.1,9.5,-9.5,-22.1,0.429486984,0.181310465,0.432386242,-0.771782586
313,786771,621170,-0.667,-0.511,0.57,21.5,37.9,-24.9,9.5,-9.5,-22.1,0.428632466,0.181920835,0.432477798,-0.772087771
314,788870,621170,-0.671,-0.511,0.554,20.9,38.2,-24.6,9.5,-9.5,-22.1,0.427777947,0.182531205,0.432569353,-0.772362438
315,791274,621170,-0.679,-0.522,0.555,20.4,38.5,-24.3,9.1,-9.9,-21.7,0.426923429,0.183141575,0.432691427,-0.772606586
316,793689,621180,-0.684,-0.542,0.547,20.1,38.5,-24.1,9.1,-9.9,-21.7,0.426068911,0.183751946,0.432782983,-0.772881252
317,795800,621180,-0.684,-0.558,0.531,19.9,38.5,-23.9,9.1,-9.9,-21.7,0.425214393,0.184362316,0.432905057,-0.773125401
318,798775,621180,-0.692,-0.573,0.524,19.8,38.4,-23.9,9.1,-9.9,-21.7,0.424359874,0.184972686,0.433027131,-0.773400067
319,801269,621180,-0.692,-0.581,0.512,19.7,38.2,-24.1,9.5,-10,-21.8,0.423535875,0.185583056,0.433149205,-0.773644215
320,803202,621190,-0.701,-0.597,0.501,19.7,37.9,-24.5,9.5,-10,-21.8,0.422681356,0.186162908,0.433271279,-0.773888363
321,806760,621190,-0.701,-0.608,0.497,19.7,37.6,-25.3,9.5,-10,-21.8,0.421796319,0.186742759,0.433393353,-0.77416303
322,809117,621190,-0.705,-0.612,0.497,19.6,37.3,-26.3,9.5,-10,-21.8,0.420911283,0.187292093,0.433515427,-0.774407178
323,811350,621190,-0.701,-0.62,0.501,19.6,37.2,-27.2,9.9,-9.9,-20.7,0.420026246,0.187841426,0.433637501,-0.774712363
324,813507,621200,-0.713,-0.616,0.501,20,37.1,-28.2,9.9,-9.9,-20.7,0.419110691,0.188390759,0.433729057,-0.775017548
325,815763,621200,-0.709,-0.608,0.509,20.9,37.1,-29.1,9.9,-9.9,-20.7,0.418195135,0.188940092,0.433851131,-0.775322733
326,818402,621200,-0.708,-0.585,0.497,22.6,37.1,-29.7,9.9,-9.9,-20.7,0.417249062,0.189489425,0.433912168,-0.775658437
327,820624,621200,-0.708,-0.585,0.497,22.6,37.1,-29.7,9.9,-9.9,-20.7,0.417249062,0.189489425,0.433912168,-0.775658437
328,824784,621210,-0.704,-0.561,0.536,27,37,-30.5,10.5,-10,-20.6,0.415143284,0.190649129,0.434339427,-0.776268807
329,827050,621210,-0.712,-0.553,0.548,29.1,37,-31,10.5,-10,-20.6,0.414166692,0.191259499,0.434308908,-0.776665548
330,828606,621210,-0.711,-0.541,0.563,31.3,37,-31.6,10.5,-10,-20.6,0.413129063,0.191869869,0.434217353,-0.777092807
331,830766,621210,-0.715,-0.502,0.595,33.3,37.1,-32.1,11,-10.3,-20.5,0.412091433,0.192510758,0.434125797,-0.777550584
332,833183,621220,-0.71,-0.494,0.606,35.3,37.2,-32.4,11,-10.3,-20.5,0.411053804,0.193151646,0.434003723,-0.778038881
333,836701,621220,-0.714,-0.47,0.614,36.8,37.4,-32.5,11,-10.3,-20.5,0.409985656,0.193792535,0.433851131,-0.778496658
334,838237,621220,-0.722,-0.454,0.622,37.7,37.7,-32.6,11,-10.3,-20.5,0.408917508,0.194463942,0.433698538,-0.778984954
335,840733,621220,-0.733,-0.423,0.63,38,38,-32.5,11,-9.8,-20.4,0.407849361,0.19513535,0.433515427,-0.779473251
336,844263,621230,-0.741,-0.411,0.626,38.2,38.1,-32.4,11,-9.8,-20.4,0.406720176,0.195837275,0.433332316,-0.779961547
337,845676,621230,-0.745,-0.403,0.63,38.2,38.1,-32.2,11,-9.8,-20.4,0.405682546,0.196508683,0.433179724,-0.780449843
338,848753,621230,-0.749,-0.399,0.619,38.2,37.9,-32.1,11,-9.8,-20.4,0.404614399,0.19718009,0.432996612,-0.780938139
339,850991,621230,-0.756,-0.391,0.607,37.9,37.7,-31.9,11.3,-10.3,-20.4,0.403546251,0.197882015,0.432813501,-0.781426435
340,853311,621240,-0.764,-0.394,0.607,37.3,37.7,-31.7,11.3,-10.3,-20.4,0.402508621,0.198553423,0.432660909,-0.781884213
341,855841,621240,-0.768,-0.39,0.596,36.3,37.8,-31.5,11.3,-10.3,-20.4,0.401440474,0.199194311,0.432508316,-0.78234199
342,860046,621240,-0.789,-0.402,0.588,34.9,37.9,-31.4,11.3,-10.3,-20.4,0.400402844,0.199865719,0.432355724,-0.78276925
343,862178,621240,-0.796,-0.398,0.585,33.2,38.2,-31.4,9.6,-10.2,-19.9,0.399365215,0.200506607,0.432264168,-0.783196509
344,863668,621250,-0.812,-0.401,0.581,31.1,38.4,-31.2,9.6,-10.2,-19.9,0.398327586,0.201147496,0.432203131,-0.783593249
345,866668,621250,-0.808,-0.405,0.585,29,38.7,-30.8,9.6,-10.2,-19.9,0.397289956,0.201757866,0.432172613,-0.783959471
346,868203,621250,-0.828,-0.397,0.574,26.8,39.1,-30.4,9.6,-10.2,-19.9,0.396282846,0.202368236,0.432203131,-0.784325694
347,870925,621250,-0.828,-0.397,0.574,26.8,39.1,-30.4,9.6,-10.2,-19.9,0.396282846,0.202368236,0.432203131,-0.784325694
348,873700,621260,-0.84,-0.397,0.555,23.1,39.4,-29.3,13.2,-10.1,-19.8,0.395092624,0.204992828,0.431592761,-0.784569842
349,875935,621260,-0.84,-0.393,0.543,21.5,39.2,-29,13.2,-10.1,-19.8,0.394116031,0.20557268,0.431714835,-0.784844508
350,878210,621260,-0.848,-0.401,0.512,19.9,38.8,-28.7,13.2,-10.1,-19.8,0.393169958,0.206152532,0.431836909,-0.785088656
351,880955,621260,-0.853,-0.408,0.504,18.3,38.2,-28.6,13.6,-10,-19.6,0.392254402,0.206701865,0.431958983,-0.785332804
352,883651,621270,-0.853,-0.412,0.493,16.8,37.7,-28.5,13.6,-10,-19.6,0.391338847,0.207220679,0.432111576,-0.785576952
353,886697,621270,-0.869,-0.424,0.481,15.6,37.3,-28.3,13.6,-10,-19.6,0.390423292,0.207708975,0.432325205,-0.785790582
354,888110,621270,-0.857,-0.436,0.473,14.6,37.1,-27.8,13.6,-10,-19.6,0.389538255,0.20822779,0.432508316,-0.786004212
355,891015,621270,-0.849,-0.444,0.473,14,36.9,-27,13.7,-10.4,-19.4,0.388653218,0.208716086,0.432691427,-0.786187323
356,894028,621280,-0.841,-0.44,0.465,13.7,36.5,-26.5,13.7,-10.4,-19.4,0.3877987,0.209204382,0.432905057,-0.786400952
357,895658,621280,-0.861,-0.444,0.438,13.7,35.7,-26.6,13.7,-10.4,-19.4,0.386913663,0.209692679,0.433088168,-0.786584063
358,898362,621280,-0.869,-0.443,0.442,14.1,34.5,-27.6,13.7,-10.4,-19.4,0.386059145,0.210150456,0.433240761,-0.786797693
359,901156,621280,-0.881,-0.435,0.443,14.8,33.6,-28.9,14.2,-9.8,-19.3,0.385174108,0.210577715,0.433423872,-0.787011322
360,904070,621290,-0.885,-0.427,0.454,15.8,32.9,-30,14.2,-9.8,-19.3,0.384289071,0.210974456,0.433545946,-0.78725547
361,905677,621290,-0.908,-0.399,0.474,17.2,32.3,-30.5,14.2,-9.8,-19.3,0.383373516,0.211401715,0.43366802,-0.787530137
362,908563,621290,-0.912,-0.387,0.482,18.8,31.7,-30.8,14.2,-9.8,-19.3,0.382457961,0.211798456,0.433759575,-0.787835322
363,911667,621290,-0.92,-0.371,0.49,20.5,31,-30.7,12.5,-10,-19.4,0.381542405,0.212225715,0.433820612,-0.788140507
364,913146,621300,-0.935,-0.351,0.506,22.2,30.2,-30.7,12.5,-10,-19.4,0.38062685,0.212622456,0.433820612,-0.788445692
365,916917,621300,-0.958,-0.312,0.538,23.6,29.3,-30.4,12.5,-10,-19.4,0.379711295,0.213049715,0.433790094,-0.788811914
366,918390,621300,-0.974,-0.292,0.558,24.5,28.4,-30,12.5,-10,-19.4,0.37879574,0.213446455,0.433759575,-0.789147618
367,920816,621300,-0.997,-0.248,0.582,24.9,27.6,-29.4,11.8,-10.3,-19.5,0.377910703,0.213843196,0.433698538,-0.789483322
368,923196,621310,-1.016,-0.228,0.586,24.3,26.9,-28.7,11.8,-10.3,-19.5,0.377056185,0.214239937,0.433637501,-0.789849544
369,926802,621310,-1.036,-0.207,0.602,22.9,26,-27.9,11.8,-10.3,-19.5,0.376232185,0.214606159,0.433576464,-0.790154729
370,928924,621310,-1.055,-0.195,0.599,20.7,25.1,-27.2,11.8,-10.3,-19.5,0.375408185,0.214972381,0.433545946,-0.790459914
371,931364,621310,-1.075,-0.171,0.611,17.7,24.3,-26.7,11.1,-9.8,-19.5,0.374645222,0.215277566,0.433576464,-0.790734581
372,934054,621320,-1.126,-0.131,0.616,14.4,23.4,-26.3,11.1,-9.8,-19.5,0.37388226,0.215552232,0.433637501,-0.790978729
373,936152,621320,-1.141,-0.119,0.613,10.6,22.4,-25.9,11.1,-9.8,-19.5,0.373180334,0.215765862,0.433759575,-0.791192358
374,938528,621320,-1.165,-0.102,0.613,6.5,21.4,-25.5,11.1,-9.8,-19.5,0.372508927,0.215948973,0.433942686,-0.791344951
375,940744,621320,-1.185,-0.094,0.606,2.1,20.3,-24.8,9.6,-10.1,-19.2,0.371868038,0.216101566,0.434186834,-0.791467025
376,944127,621330,-1.212,-0.093,0.595,-2.2,19.1,-23.7,9.6,-10.1,-19.2,0.371288186,0.216193121,0.434492019,-0.79155858
377,946534,621330,-1.228,-0.093,0.592,-6.5,17.9,-22.4,9.6,-10.1,-19.2,0.370769372,0.21622364,0.434858242,-0.791589099
378,948794,621330,-1.236,-0.097,0.588,-10.5,16.4,-20.6,9.6,-10.1,-19.2,0.370311594,0.21622364,0.435254982,-0.791589099
379,951129,621330,-1.24,-0.105,0.588,-14.3,14.7,-18.7,9.6,-9.7,-18.8,0.369914853,0.216193121,0.43571276,-0.791528062
380,953370,621340,-1.256,-0.116,0.596,-17.8,12.9,-16.7,9.6,-9.7,-18.8,0.36957915,0.216101566,0.436201056,-0.791436506
381,955853,621340,-1.257,-0.124,0.604,-21,11,-14.4,9.6,-9.7,-18.8,0.369335002,0.21601001,0.436719871,-0.791314432
382,958189,621340,-1.26,-0.124,0.616,-23.7,9.2,-12,9.6,-9.7,-18.8,0.369151891,0.215857418,0.437269204,-0.791131321
383,962562,621340,-1.256,-0.124,0.635,-26.1,7.5,-9.6,14.6,-11.2,-19.2,0.369029817,0.215674306,0.437818537,-0.790917692
384,964635,621350,-1.268,-0.124,0.643,-28.1,5.6,-6.9,14.6,-11.2,-19.2,0.36896878,0.215491195,0.438398389,-0.790673544
385,966892,621350,-1.272,-0.108,0.655,-29.7,3.8,-4.3,14.6,-11.2,-19.2,0.368999298,0.215277566,0.438947722,-0.790398877
386,969034,621350,-1.276,-0.104,0.655,-31.1,1.9,-1.7,14.6,-11.2,-19.2,0.369121372,0.215033418,0.439527573,-0.79012421
387,971567,621350,-1.28,-0.088,0.655,-32.2,-0.2,0.7,11.8,-8.5,-19.3,0.369273965,0.21478927,0.440076907,-0.789819025
388,973708,621360,-1.283,-0.08,0.655,-33.2,-2.5,3.1,11.8,-8.5,-19.3,0.369518113,0.214484085,0.440595721,-0.789483322
389,976176,621360,-1.283,-0.06,0.651,-33.6,-5,5.2,11.8,-8.5,-19.3,0.369792779,0.2141789,0.441114536,-0.7891171
390,978491,621360,-1.283,-0.037,0.655,-33.9,-7.7,7.2,11.8,-8.5,-19.3,0.370159001,0.213843196,0.441602832,-0.788781396
391,980810,621360,-1.29,0.014,0.651,-33.9,-10.5,9,12.3,-8.6,-19.4,0.370586261,0.213476974,0.44206061,-0.788415174
392,983928,621370,-1.289,0.045,0.655,-33.6,-13.3,11.1,12.3,-8.6,-19.4,0.371044038,0.213080233,0.442487869,-0.78807947
393,986427,621370,-1.293,0.084,0.663,-33.2,-16.1,12.9,12.3,-8.6,-19.4,0.371562853,0.212683493,0.442854091,-0.787713248
394,988656,621370,-1.292,0.132,0.667,-32.9,-18.8,14.6,12.3,-8.6,-19.4,0.372173223,0.212225715,0.443220313,-0.787377544
395,990791,621370,-1.294,0.226,0.678,-32.7,-21.5,16.1,13.2,-8.2,-19.6,0.372814112,0.211737419,0.443525498,-0.787041841
396,993454,621380,-1.29,0.281,0.674,-32.8,-24.4,17.4,13.2,-8.2,-19.6,0.373516037,0.211218604,0.443800165,-0.786675619
397,995773,621380,-1.297,0.328,0.69,-33.5,-27.4,18.7,13.2,-8.2,-19.6,0.374248482,0.210669271,0.444074831,-0.786339915
398,998208,621380,-1.311,0.411,0.709,-34.5,-30.4,19.8,13.2,-8.2,-19.6,0.375041963,0.210058901,0.444318979,-0.785973693
399,1000787,621380,-1.311,0.446,0.721,-35.9,-33.5,20.8,13.6,-8.6,-20,0.375896481,0.209387494,0.444563128,-0.785607471
400,1003810,621390,-1.31,0.478,0.729,-37.5,-36.6,21.4,13.6,-8.6,-20,0.376781518,0.208655049,0.444807276,-0.785241249
401,1006215,621390,-1.317,0.517,0.74,-39.4,-40,21.4,13.6,-8.6,-20,0.377727592,0.20783105,0.445051424,-0.784844508
402,1008394,621390,-1.333,0.549,0.753,-41.5,-43.5,20.8,13.6,-8.6,-20,0.378673666,0.206946013,0.44532609,-0.784478286
403,1010988,621390,-1.341,0.561,0.764,-43.7,-47.1,20.3,12.3,-9.7,-19.7,0.379680776,0.205999939,0.445600757,-0.784081545
404,1013455,621400,-1.356,0.573,0.773,-46.3,-50.5,20.5,12.3,-9.7,-19.7,0.380748924,0.204931791,0.445875423,-0.783715323
405,1017341,621400,-1.368,0.582,0.785,-49.5,-53.7,21.7,12.3,-9.7,-19.7,0.381847591,0.203833125,0.446180609,-0.783288064
406,1019746,621400,-1.391,0.594,0.797,-53.4,-56.5,23.5,12.3,-9.7,-19.7,0.383037812,0.202642903,0.446516312,-0.782799768
407,1022090,621400,-1.403,0.606,0.809,-58.1,-59.1,25.9,12.3,-8.6,-20,0.38431959,0.201391644,0.446882534,-0.782280953
408,1024124,621410,-1.414,0.634,0.825,-63.3,-61.7,28.2,12.3,-8.6,-20,0.385692923,0.200079348,0.447340312,-0.781701102
409,1026447,621410,-1.449,0.693,0.837,-68.7,-64.3,30,12.3,-8.6,-20,0.387127293,0.198706015,0.447828608,-0.781060213
410,1028563,621410,-1.46,0.733,0.853,-74.1,-66.7,30.8,12.3,-8.6,-20,0.3886227,0.197241127,0.44840846,-0.780358287
411,1030944,621410,-1.476,0.765,0.873,-79.3,-69.2,30.7,11.6,-8.3,-19.8,0.390148625,0.195684683,0.44901883,-0.779625843
412,1033154,621420,-1.491,0.812,0.885,-84.1,-72,29.8,11.6,-8.3,-19.8,0.391735588,0.194036683,0.449690237,-0.778832362
413,1035883,621420,-1.514,0.868,0.905,-88.1,-75.2,28.2,11.6,-8.3,-19.8,0.39332255,0.19226661,0.4504532,-0.778038881
414,1039194,621420,-1.521,0.888,0.909,-91.4,-78.7,26.6,11.6,-8.3,-19.8,0.394940031,0.190404981,0.451216163,-0.777245399
415,1040651,621420,-1.537,0.888,0.909,-93.9,-82,25.3,11.4,-8.6,-20.3,0.396557512,0.188451796,0.451979125,-0.776451918
416,1043592,621430,-1.561,0.881,0.898,-96.1,-85,24.5,11.4,-8.6,-20.3,0.398205512,0.186437574,0.452772607,-0.775627918
417,1046426,621430,-1.589,0.866,0.883,-98.3,-87.1,24.1,11.4,-8.6,-20.3,0.39988403,0.184331797,0.453596606,-0.774803919
418,1048157,621430,-1.605,0.87,0.872,-100.8,-88.5,23.9,11.4,-8.6,-20.3,0.401562548,0.182195502,0.454420606,-0.7739494
419,1050982,621430,-1.625,0.874,0.857,-103.5,-89.8,23.4,10.5,-9.4,-20.6,0.403271584,0.179998169,0.455275124,-0.773064364
420,1053330,621440,-1.641,0.875,0.842,-105.8,-91.5,23,10.5,-9.4,-20.6,0.404980621,0.177770318,0.45619068,-0.772179327
421,1055657,621440,-1.689,0.891,0.788,-107.4,-93.8,23.1,10.5,-9.4,-20.6,0.406720176,0.175450911,0.457075716,-0.771263771
422,1059264,621440,-1.705,0.904,0.754,-108.2,-96.6,23.8,10.5,-9.4,-20.6,0.408490249,0.173070467,0.457930235,-0.770317698
423,1060805,621440,-1.728,0.924,0.723,-108.5,-100,24.5,9.6,-6.6,-20.7,0.410290841,0.170720542,0.458784753,-0.769402142
424,1063428,621450,-1.792,0.953,0.67,-108.4,-103.6,24.3,9.6,-6.6,-20.7,0.41215247,0.168248543,0.459578234,-0.768486587
425,1066779,621450,-1.831,0.954,0.647,-107.7,-107.4,23.1,9.6,-6.6,-20.7,0.4140141,0.165715506,0.460310678,-0.767571032
426,1068268,621450,-1.859,0.954,0.633,-106.5,-111.3,20.9,9.6,-6.6,-20.7,0.415875729,0.163090915,0.461012604,-0.766716514
427,1071105,621450,-1.931,0.944,0.611,-104.5,-115.3,18.4,9.6,-8.8,-21.6,0.417706839,0.160374767,0.461653493,-0.765923032
428,1074147,621460,-1.967,0.917,0.6,-101.6,-119.3,16.1,9.6,-8.8,-21.6,0.41953795,0.157628101,0.462202826,-0.76516007
429,1075705,621460,-1.995,0.89,0.605,-97.7,-123.4,14.7,9.6,-8.8,-21.6,0.42136906,0.154820399,0.462660604,-0.764458144
430,1078668,621460,-2.028,0.86,0.606,-93,-127.4,14.2,9.6,-8.8,-21.6,0.423200171,0.151982177,0.462996307,-0.763817255
431,1082427,621460,-2.052,0.821,0.603,-87.2,-131.6,14.3,9,-9.5,-22,0.4250618,0.149143956,0.463179418,-0.763206885
432,1084701,621470,-2.109,0.732,0.617,-80.3,-136,14.5,9,-9.5,-22,0.426923429,0.146275216,0.463209937,-0.76268807
433,1086203,621470,-2.129,0.685,0.621,-72.1,-140.7,14.6,9,-9.5,-22,0.428815577,0.143406476,0.463057344,-0.76229133
434,1089204,621470,-2.146,0.634,0.626,-62.2,-145.5,14.3,9,-9.5,-22,0.430707724,0.140537736,0.462660604,-0.761986145
435,1090645,621470,-2.163,0.592,0.622,-50.8,-150.7,13.7,7.9,-8.7,-22.7,0.43263039,0.137699515,0.462050233,-0.761803034
436,1093607,621480,-2.184,0.502,0.592,-38,-155.9,12.9,7.9,-8.7,-22.7,0.434522538,0.134861293,0.461165197,-0.761741997
437,1096673,621480,-2.18,0.474,0.572,-24.2,-161.4,12.4,7.9,-8.7,-22.7,0.436414686,0.132053591,0.460005493,-0.761864071
438,1098172,621480,-2.185,0.451,0.549,-9.8,-167,12,7.9,-8.7,-22.7,0.438337352,0.129337443,0.458540605,-0.762138737
439,1100794,621480,-2.201,0.427,0.518,4.5,-172.6,11.7,7.2,-8,-22.5,0.440229499,0.126621296,0.456770531,-0.762535478
440,1104224,621490,-2.185,0.427,0.514,18.6,-177.8,11.4,7.2,-8,-22.5,0.442152165,0.123966185,0.454725791,-0.763084811
441,1105671,621490,-2.177,0.442,0.514,32.2,-182.8,11.2,7.2,-8,-22.5,0.444044313,0.121341594,0.452375866,-0.763786737
442,1108522,621490,-2.173,0.474,0.529,45.3,-187.3,11,7.2,-8,-22.5,0.445966979,0.11874752,0.449781793,-0.764641255
443,1110954,621490,-2.164,0.537,0.552,58.2,-191.4,10.9,5.9,-7.1,-20.5,0.447859127,0.116245003,0.446913053,-0.765587329
444,1113495,621500,-2.175,0.572,0.564,70.4,-194.6,10.7,5.9,-7.1,-20.5,0.449751274,0.113773003,0.443800165,-0.766655477
445,1115664,621500,-2.182,0.612,0.564,82.1,-197.5,10.4,5.9,-7.1,-20.5,0.451643422,0.11139256,0.440473647,-0.76781518
446,1119153,621500,-2.194,0.643,0.564,92.5,-199.7,9.9,5.9,-7.1,-20.5,0.453505051,0.109042634,0.436902982,-0.769096957
447,1120624,621500,-2.248,0.719,0.534,101.6,-201.6,8.8,5.2,-8,-23,0.455305643,0.106753746,0.433179724,-0.770439772
448,1123431,621510,-2.26,0.763,0.538,108.7,-202.6,6.8,5.2,-8,-23,0.457075716,0.104495376,0.429334391,-0.771874142
449,1125780,621510,-2.271,0.814,0.546,113.8,-203,3.9,5.2,-8,-23,0.458784753,0.102237007,0.425366985,-0.77333903
450,1128169,621510,-2.289,0.885,0.558,116.7,-202.7,-0.3,5.2,-8,-23,0.460402234,0.099978637,0.42136906,-0.774864956
451,1131095,621510,-2.311,1.035,0.566,117.8,-201.8,-5.7,3.7,-8.2,-22.7,0.461897641,0.0976897488,0.417340617,-0.776451918
452,1133315,621520,-2.325,1.126,0.547,117.4,-201,-12.2,3.7,-8.2,-22.7,0.463270974,0.0953703421,0.413373211,-0.778069399
453,1135705,621520,-2.32,1.212,0.519,115.6,-200.4,-19.9,3.7,-8.2,-22.7,0.464491714,0.0929593799,0.409405805,-0.779717399
454,1138477,621520,-2.315,1.349,0.429,113.2,-200.6,-28.5,3.7,-8.2,-22.7,0.465559862,0.0904263436,0.405499435,-0.781395917
455,1141646,621520,-2.33,1.389,0.413,111.2,-201.2,-36.9,2.6,-8.9,-23,0.466475417,0.0878017518,0.401623585,-0.78316599
456,1143432,621530,-2.33,1.397,0.413,110.7,-201.7,-44.3,2.6,-8.9,-23,0.467268899,0.0850550859,0.397747734,-0.784966582
457,1145671,621530,-2.314,1.393,0.433,112.5,-201.3,-50.4,2.6,-8.9,-23,0.467940306,0.0823389386,0.393871883,-0.786797693
458,1149126,621530,-2.306,1.381,0.53,117,-199.4,-56.1,2.6,-8.9,-23,0.46845912,0.0796227912,0.389904477,-0.788750877
459,1150915,621530,-2.298,1.377,0.584,123.7,-195.9,-62.5,1.8,-9,-22.4,0.468825343,0.0769981994,0.385876034,-0.790765099
460,1154021,621540,-2.277,1.38,0.65,130.9,-191.2,-70.6,1.8,-9,-22.4,0.469008454,0.0744346446,0.381786554,-0.792901395
461,1155915,621540,-2.265,1.4,0.712,137.6,-185.5,-80.9,1.8,-9,-22.4,0.468916898,0.0719626453,0.377636036,-0.795159764
462,1159487,621540,-2.22,1.45,0.844,143.6,-179.6,-93.5,1.8,-9,-22.4,0.468550676,0.0695516831,0.373455,-0.797570727
463,1160937,621540,-2.195,1.465,0.898,149.5,-173.8,-108.2,1.3,-11,-20.9,0.46784875,0.0671712394,0.369212928,-0.800134281
464,1163202,621550,-2.159,1.457,0.971,156.3,-168.2,-124.1,1.3,-11,-20.9,0.466811121,0.0648213141,0.364940336,-0.802911466
465,1166230,621550,-2.055,1.431,1.187,165.2,-162.5,-140.9,1.3,-11,-20.9,0.465376751,0.0625324259,0.360606708,-0.805871761
466,1169150,621550,-1.971,1.433,1.302,177.3,-156.1,-157.9,1.3,-11,-20.9,0.463576159,0.0603350932,0.356089969,-0.809076205
467,1170657,621550,-1.844,1.446,1.404,192.8,-148.4,-175.3,1.1,-11.5,-19.4,0.461378826,0.0583208716,0.351420637,-0.812524796
468,1173299,621560,-1.779,1.48,1.527,210.8,-139.3,-193.2,1.1,-11.5,-19.4,0.458723716,0.056489761,0.346507157,-0.816248054
469,1176607,621560,-1.668,1.623,1.727,229.5,-128.8,-211.9,1.1,-11.5,-19.4,0.455641346,0.05487228,0.341380047,-0.820245979
470,1178195,621560,-1.583,1.736,1.814,246.1,-117.1,-231.8,1.1,-11.5,-19.4,0.452070681,0.0534989471,0.336100345,-0.824488052
471,1181038,621560,-1.473,1.898,1.854,258.1,-103.9,-253.9,1.3,-12.4,-17.8,0.447920164,0.0522782067,0.330698569,-0.828974273
472,1184159,621570,-1.311,2.103,1.95,263.2,-89.6,-278.8,1.3,-12.4,-17.8,0.443220313,0.0512405774,0.32535783,-0.833674123
473,1185652,621570,-1.051,2.435,1.985,261.5,-76.4,-306,1.3,-12.4,-17.8,0.437879574,0.0502029481,0.320200201,-0.838526566
474,1188533,621570,-0.89,2.573,1.973,255.1,-66.9,-334.4,1.3,-12.4,-17.8,0.431928465,0.0490737632,0.315256203,-0.84356212
475,1192038,621570,-0.714,2.702,1.976,244.7,-61.8,-363.9,1.8,-13.5,-16,0.425366985,0.0477614673,0.310525834,-0.84868923
476,1193622,621580,-0.569,2.797,1.987,229.1,-58.9,-396.1,1.8,-13.5,-16,0.418195135,0.0460829493,0.306161687,-0.853938414
477,1196443,621580,0.043,2.905,1.97,205,-55,-432.6,1.8,-13.5,-16,0.410260323,0.0440382092,0.302255318,-0.859279153
478,1198698,621580,0.317,2.95,1.936,172.1,-48.9,-473.2,1.8,-13.5,-16,0.401532029,0.0415356914,0.299020356,-0.864619892
479,1201905,621580,0.622,2.962,1.845,131.8,-40.8,-515.8,3.3,-13.9,-15.7,0.391918699,0.038575396,0.296609394,-0.86999115
480,1203399,621590,1.454,2.896,1.648,86.9,-31.2,-558.4,3.3,-13.9,-15.7,0.381420331,0.0350962859,0.295144505,-0.87530137
481,1206331,621590,1.824,2.804,1.353,39.8,-21.6,-601.3,3.3,-13.9,-15.7,0.370006409,0.0311288797,0.29462569,-0.880489517
482,1208650,621590,2.14,2.635,0.849,-6.6,-14,-645.6,3.3,-13.9,-15.7,0.357646413,0.0266731773,0.29505295,-0.885586108
483,1211587,621590,2.423,2.463,0.131,-49,-11.3,-691.2,5.7,-13.5,-20.7,0.344370861,0.0216071047,0.296304209,-0.890560625
484,1213166,621600,2.981,1.921,-1.698,-83.3,-16.2,-734.8,5.7,-13.5,-20.7,0.330179754,0.0159306619,0.298104801,-0.895443587
485,1216074,621600,3.456,1.327,-2.361,-105.5,-30.3,-771.4,5.7,-13.5,-20.7,0.31531724,0.00955229347,0.300180059,-0.900204474
486,1218849,621600,4.081,0.782,-2.638,-109.8,-52.9,-796.5,5.7,-13.5,-20.7,0.299996948,0.00253303629,0.302072207,-0.904812769
487,1221189,621600,5.55,-0.583,-2.478,-92,-81.5,-806.4,7.9,-12,-18.3,0.284554582,-0.00497451704,0.303353984,-0.909360027
488,1223489,621610,5.719,-1.764,-3.787,-53.1,-111.4,-799.6,7.9,-12,-18.3,0.269386883,-0.0127872555,0.303598132,-0.913815729
489,1226368,621610,6.099,-5.304,-7.908,6.3,-143.1,-779.3,7.9,-12,-18.3,0.254768517,-0.0207525864,0.302346873,-0.918271432
490,1228716,621610,2.558,-8.159,-8.016,137.7,-204.9,-741.4,7.9,-12,-18.3,0.241279336,-0.028992584,0.298074282,-0.923062838
491,1231702,621610,4.189,-8.196,-8.044,455.5,-331.5,-687.7,10.6,-11.8,-19.5,0.229834895,-0.0377513962,0.28666036,-0.929258095
492,1233251,621620,7.937,-8.28,-6.925,923.6,-538.8,-568.9,10.6,-11.8,-19.5,0.22235786,-0.0475783563,0.264687033,-0.93713187
493,1236098,621620,7.946,-8.275,-3.125,1206.5,-721.3,-359.8,10.6,-11.8,-19.5,0.220282601,-0.0585345012,0.235999634,-0.944608905
494,1239123,621620,8.108,-1.119,4.286,1032.3,-673.6,-151.3,10.6,-11.8,-19.5,0.221869564,-0.0682088687,0.211218604,-0.949461348
495,1240664,621620,7.882,2.788,7.339,457.3,-344.1,-131.1,8.5,-15.3,-19.6,0.221411786,-0.0737327189,0.199865719,-0.951597644
496,1243561,621630,3.622,6.613,2.43,-152.2,102.2,-324,8.5,-15.3,-19.6,0.213995788,-0.0737632374,0.202978607,-0.952635273
497,1246773,621630,1.134,7.982,2.297,-553.9,421.2,-543.3,8.5,-15.3,-19.6,0.199896237,-0.0699789422,0.215552232,-0.953215125
498,1248269,621630,0.661,7.971,0.775,-691.9,533.5,-536.2,8.5,-15.3,-19.6,0.185125278,-0.064394055,0.231391339,-0.952879421
499,1251038,621630,-3.375,8.08,-1.761,-623.7,511.9,-306,12.1,-12,-20.8,0.1752678,-0.0578020569,0.245979186,-0.951536607
500,1254046,621640,-5.794,8.133,-2.907,-439.7,424.9,1.8,12.1,-12,-20.8,0.172460097,-0.0506607257,0.256691183,-0.949613941
501,1255629,621640,-7.386,8.17,-2.97,-245.9,317.9,216.7,12.1,-12,-20.8,0.174901578,-0.0437330241,0.263222144,-0.947721793
502,1258745,621640,-7.236,8.168,-1.677,-103.4,221.6,292.1,12.1,-12,-20.8,0.17957091,-0.0378734703,0.266457106,-0.946195868
503,1260642,621640,-4.356,5.932,-2.26,-29,141.5,264.1,11.8,-12.3,-18.5,0.184148686,-0.0335703604,0.267830439,-0.945066683
504,1264117,621650,-3.117,2.887,-0.944,4.4,75.2,203.4,11.8,-12.3,-18.5,0.187902463,-0.0307626576,0.268196661,-0.944334239
505,1265708,621650,-2.28,0.406,0.794,37.7,13.7,161.7,11.8,-12.3,-18.5,0.191198462,-0.0294198431,0.267586291,-0.94390698
506,1268658,621650,-1.785,-2.233,4.156,97.4,-38.5,143.5,11.8,-12.3,-18.5,0.194433424,-0.028931547,0.265511032,-0.943845943
507,1271687,621650,-1.152,-3.742,3.604,169.4,-71.2,123.5,11.3,-13.2,-18.4,0.197485275,-0.028992584,0.261787774,-0.944242683
508,1273172,621660,-2.025,-6.855,2.98,216.2,-88.1,89,11.3,-13.2,-18.4,0.199957274,-0.0293893246,0.256996368,-0.945005646
509,1276150,621660,-0.408,-6.346,2.522,217.5,-95.1,34.7,11.3,-13.2,-18.4,0.201361126,-0.0301522874,0.252113407,-0.946012757
510,1279263,621660,0.169,-6.049,2.915,175.7,-95.3,-33.1,11.3,-13.2,-18.4,0.201300089,-0.0315866573,0.248054445,-0.947050386
511,1280784,621660,0.376,-5.168,3.431,117.7,-86.9,-95.3,11.8,-13.6,-18.4,0.199896237,-0.0333567309,0.245185705,-0.948026978
512,1283152,621670,0.578,-4.084,3.949,59.8,-67.6,-123.6,11.8,-13.6,-18.4,0.197729423,-0.0351573229,0.243537706,-0.948850978
513,1285608,621670,0.636,-3.015,4.316,14.4,-42,-107.3,11.8,-13.6,-18.4,0.19574572,-0.0365611744,0.242988372,-0.949339274
514,1289033,621670,0.011,-1.162,3.839,-14.2,-16.1,-67.4,11.8,-13.6,-18.4,0.194433424,-0.0372936186,0.243171484,-0.949552904
515,1291210,621670,-0.509,-0.452,3.241,-23.9,4.1,-29.8,12.1,-13.5,-17.9,0.193762017,-0.0374767296,0.24365978,-0.949552904
516,1293513,621680,-0.944,0.079,2.74,-13.1,13.2,-9.9,12.1,-13.5,-17.9,0.19348735,-0.0373241371,0.243964965,-0.949522385
517,1295772,621680,-1.238,0.42,2.43,16.1,9.3,-9.7,12.1,-13.5,-17.9,0.193243202,-0.0371105075,0.24365978,-0.949674978
518,1298261,621680,-1.477,0.441,2.264,54.6,-4.5,-23.1,12.1,-13.5,-17.9,0.192815943,-0.037079989,0.242500076,-0.9500412
519,1301758,621680,-1.507,0.005,2.294,88.3,-20.6,-41.9,12,-13.4,-18.1,0.192144536,-0.0373546556,0.240546892,-0.950682089
520,1303246,621690,-1.415,-0.688,2.305,103.5,-30.9,-59,12,-13.4,-18.1,0.191167943,-0.0378734703,0.238227485,-0.951445051
521,1305685,621690,-0.996,-2.054,2.072,94.5,-32,-69.7,12,-13.4,-18.1,0.189947203,-0.038514359,0.236060671,-0.952177496
522,1309304,621690,-0.77,-2.527,1.895,66.9,-25.8,-74.9,12,-13.4,-18.1,0.18857387,-0.0391552477,0.234504227,-0.952818384
523,1310902,621690,-0.577,-2.826,1.715,34.2,-17.6,-78.9,10.8,-13.7,-17.8,0.187047945,-0.0397961364,0.23361919,-0.953306681
524,1314245,621700,-0.433,-2.948,1.544,8.2,-11.4,-84,10.8,-13.7,-17.8,0.185369427,-0.0404370251,0.233344523,-0.953672903
525,1315832,621700,-0.278,-2.779,1.097,-6.2,-8.3,-88.3,10.8,-13.7,-17.8,0.183568834,-0.0410473952,0.233375042,-0.954008606
526,1319122,621700,-0.208,-2.541,0.896,-11.5,-7.2,-88.7,10.8,-13.7,-17.8,0.181768242,-0.0417188025,0.233497116,-0.954283273
527,1321302,621700,-0.093,-2.241,0.818,-12.1,-7.3,-85.1,13.8,-13.5,-17.9,0.179998169,-0.0423596912,0.23361919,-0.954557939
528,1323629,621710,0.059,-1.902,0.98,-11.8,-7.9,-79.7,13.8,-13.5,-17.9,0.178380688,-0.0429700613,0.233802301,-0.954802087
529,1325785,621710,0.336,-1.17,0.889,-11.8,-8.6,-74.7,13.8,-13.5,-17.9,0.176854762,-0.0435804315,0.233924375,-0.955015717
530,1328432,621710,0.489,-0.816,0.981,-11.6,-8.8,-70.7,13.8,-13.5,-17.9,0.175420392,-0.0441908017,0.234076968,-0.955229347
531,1330707,621710,0.633,-0.469,1.019,-10.7,-8.5,-67.2,13.9,-13,-17.8,0.17404706,-0.0447096164,0.234199042,-0.955412458
532,1334889,621720,0.761,-0.15,0.98,-8.7,-8.2,-64.7,13.9,-13,-17.8,0.172734764,-0.0452894681,0.234290597,-0.955595569
533,1336514,621720,0.942,0.34,0.809,-5.4,-8.3,-63.5,13.9,-13,-17.8,0.171452986,-0.0458082827,0.234321116,-0.955809198
534,1338881,621720,1.004,0.515,0.749,-1.4,-8.8,-64.8,13.9,-13,-17.8,0.17014069,-0.0463270974,0.23422956,-0.956022828
535,1341094,621720,1.041,0.644,0.708,2.2,-9.7,-68.6,14.3,-13,-17.8,0.168767357,-0.0468764306,0.234076968,-0.956297494
536,1343311,621730,1.015,0.767,0.681,4.6,-10.1,-74.2,14.3,-13,-17.8,0.16727195,-0.0473952452,0.233863338,-0.956572161
537,1346161,621730,1.015,0.817,0.595,4.9,-10.2,-80.2,14.3,-13,-17.8,0.165654469,-0.0480361339,0.23361919,-0.956877346
538,1348495,621730,0.931,0.776,0.539,2.5,-9.8,-85.4,14.3,-13,-17.8,0.163914914,-0.0486770226,0.233466597,-0.957182531
539,1352585,621730,0.817,0.606,0.433,-3.1,-8.7,-88.2,14.3,-12.5,-18.2,0.162114322,-0.0493179113,0.23340556,-0.957487716
540,1353299,621740,0.806,0.602,0.558,-14.1,-5.2,-88.4,14.3,-12.5,-18.2,0.160283212,-0.0499282815,0.233588672,-0.957701346
541,1355625,621740,0.76,0.489,0.451,-28,0.3,-86.6,14.3,-12.5,-18.2,0.158421583,-0.0504776147,0.234076968,-0.957884457
542,1360071,621740,0.62,0.201,0.389,-37.5,4.3,-81.4,14.3,-12.5,-18.2,0.156651509,-0.0509048738,0.234809412,-0.957976012
543,1362388,621740,0.57,0.041,0.422,-37.3,4.6,-71.6,12.1,-12.4,-18,0.155095065,-0.0513016144,0.235511338,-0.958006531
544,1364524,621750,0.567,-0.201,0.493,-28.8,1.7,-57.4,12.1,-12.4,-18,0.153874325,-0.0516678365,0.236060671,-0.958067568
545,1366885,621750,0.589,-0.312,0.532,-18.4,-0.3,-42.5,12.1,-12.4,-18,0.152958769,-0.0519730216,0.236396374,-0.958098086
546,1369024,621750,0.624,-0.387,0.582,-9.8,-0.5,-30.2,12.1,-12.4,-18,0.152317881,-0.0521561327,0.236548967,-0.958159124
547,1371287,621750,0.714,-0.46,0.646,-3.5,0.8,-21.2,14.3,-12.1,-18,0.151860103,-0.0522782067,0.236610004,-0.958220161
548,1373541,621760,0.758,-0.465,0.657,0.8,3.2,-14.8,14.3,-12.1,-18,0.1515244,-0.0522782067,0.236548967,-0.958281198
549,1375775,621760,0.802,-0.45,0.667,4.3,6.1,-9.8,14.3,-12.1,-18,0.15131077,-0.0521866512,0.236518448,-0.958342235
550,1378489,621760,0.838,-0.431,0.643,7.5,9.2,-5,14.3,-12.1,-18,0.151158177,-0.0519730216,0.236365856,-0.958403272
551,1380823,621760,0.858,-0.365,0.525,10.9,12.7,0,14.1,-12.3,-18,0.15109714,-0.0516983551,0.236182745,-0.958464309
552,1383300,621770,0.854,-0.33,0.462,15.1,16.3,5.1,14.1,-12.3,-18,0.151127659,-0.0512710959,0.235938597,-0.958555864
553,1385875,621770,0.835,-0.286,0.42,20.6,19.7,10,14.1,-12.3,-18,0.151280251,-0.0507217627,0.235572375,-0.95864742
554,1389061,621770,0.8,-0.23,0.389,27.3,22.6,14.7,14.1,-12.3,-18,0.151493881,-0.0500808741,0.235084078,-0.958769494
555,1391404,621770,0.816,-0.231,0.385,34.4,25.3,18.9,14,-12,-17.5,0.151799066,-0.0493484298,0.234473708,-0.958891568
556,1393314,621780,0.875,-0.271,0.536,42.3,27.9,23.3,14,-12,-17.5,0.152195807,-0.0484939116,0.233710746,-0.959074679
557,1396483,621780,0.883,-0.311,0.516,52.4,30.7,28.6,14,-12,-17.5,0.152684103,-0.0475478378,0.232734153,-0.959288308
558,1398678,621780,0.879,-0.291,0.442,65.8,33.5,34.8,14,-12,-17.5,0.153324992,-0.0464186529,0.231513413,-0.959532456
559,1401173,621780,1.205,-0.38,0.84,79.5,35.4,42.4,13.5,-12.3,-17.4,0.154118473,-0.0451979125,0.230018006,-0.959807123
560,1403387,621790,1.348,-0.458,1.004,89,36.7,51.4,13.5,-12.3,-17.4,0.155095065,-0.0438856166,0.228308969,-0.960142827
561,1405815,621790,1.355,-0.505,1.016,91.6,38.5,63.7,13.5,-12.3,-17.4,0.156315806,-0.0424512467,0.226599933,-0.960417493
562,1408144,621790,1.336,-0.576,0.743,87,41.4,79.5,13.5,-12.3,-17.4,0.15787225,-0.0408948027,0.224982452,-0.960600604
563,1411573,621790,1.378,-0.672,0.625,74.8,45.2,97.8,13.4,-13,-17.4,0.159764397,-0.0392162847,0.223670156,-0.960661641
564,1413276,621800,1.457,-0.63,0.498,56,48.8,114.4,13.4,-13,-17.4,0.16196173,-0.0374462111,0.222754601,-0.960570086
565,1416057,621800,1.504,-0.659,0.419,34.3,51.7,125.3,13.4,-13,-17.4,0.164372692,-0.0356151006,0.222327342,-0.960325938
566,1419091,621800,1.518,-0.754,0.325,16,54.1,129.8,13.4,-13,-17.4,0.166844691,-0.03378399,0.222266305,-0.959990234
567,1421278,621800,1.513,-0.824,0.329,5,56.7,130.3,10.5,-13.3,-17.1,0.169286172,-0.0319528794,0.222479934,-0.959562975
568,1423433,621810,1.508,-0.879,0.333,2.1,59.7,130.6,10.5,-13.3,-17.1,0.171727653,-0.0300302133,0.222724082,-0.959135716
569,1425799,621810,1.499,-0.934,0.349,5,62.9,133,10.5,-13.3,-17.1,0.174230171,-0.0280770287,0.222937712,-0.958708457
570,1428227,621810,1.462,-1.035,0.389,10.2,65.5,137.9,10.5,-13.3,-17.1,0.176793725,-0.0260017701,0.223059786,-0.958250679
571,1431037,621810,1.45,-1.067,0.402,14.9,67.7,144.8,10,-13.3,-16.5,0.179509873,-0.0238044374,0.223090304,-0.95782342
572,1433257,621820,1.434,-1.098,0.41,17.8,69.2,152.5,10,-13.3,-16.5,0.182348094,-0.0215765862,0.223059786,-0.957335124
573,1435750,621820,1.418,-1.121,0.41,18.8,69.8,160.1,10,-13.3,-16.5,0.185369427,-0.0192571795,0.223029267,-0.956816309
574,1438989,621820,1.39,-1.132,0.403,18.7,69.7,166.6,10,-13.3,-16.5,0.188512833,-0.0169072542,0.222998749,-0.956236457
575,1441301,621820,1.366,-1.131,0.404,18.3,69,172.2,9.2,-14,-16.3,0.191778314,-0.014557329,0.222937712,-0.955656606
576,1443465,621830,1.358,-1.135,0.412,18.4,68,177,9.2,-14,-16.3,0.19513535,-0.0122074038,0.222876675,-0.955015717
577,1445723,621830,1.362,-1.155,0.42,19.4,67,181.6,9.2,-14,-16.3,0.19861446,-0.00982696005,0.222846156,-0.95434431
578,1448398,621830,1.349,-1.17,0.44,21.4,65.8,185.9,9.2,-14,-16.3,0.202154607,-0.00747703482,0.222693564,-0.953642384
579,1451531,621830,1.345,-1.186,0.467,24.7,64.7,190,8.7,-14.4,-16.5,0.205786309,-0.00509659108,0.222510453,-0.952940458
580,1453578,621840,1.337,-1.209,0.495,29.4,63.8,194.4,8.7,-14.4,-16.5,0.209540086,-0.00268562883,0.222205267,-0.952208014
581,1455859,621840,1.329,-1.244,0.55,35.3,63.5,199.2,8.7,-14.4,-16.5,0.2133549,-0.000244148076,0.221778008,-0.951445051
582,1458588,621840,1.317,-1.26,0.566,41.5,63.3,204.3,8.7,-14.4,-16.5,0.217291787,0.00222785119,0.221198157,-0.950682089
583,1461027,621840,1.309,-1.267,0.586,47,63.4,209.6,11.9,-16.6,-16.2,0.221350749,0.00479140599,0.220496231,-0.949919126
584,1463279,621850,1.309,-1.263,0.601,51.5,63.6,214.5,11.9,-16.6,-16.2,0.225470748,0.00738547929,0.219733268,-0.949095126
585,1466446,621850,1.306,-1.232,0.625,54.6,63.5,218.6,11.9,-16.6,-16.2,0.229682302,0.0100100711,0.21887875,-0.948271126
586,1468745,621850,1.306,-1.212,0.636,56.7,63.4,221.7,11.9,-16.6,-16.2,0.233954894,0.0126651814,0.217963195,-0.94738609
587,1470911,621850,1.299,-1.173,0.64,57.9,63.3,223.9,10.1,-13.4,-15.4,0.238258003,0.0153508103,0.217017121,-0.946501053
588,1473248,621860,1.288,-1.133,0.648,58.3,63.6,225.3,10.1,-13.4,-15.4,0.242591632,0.0180364391,0.216040529,-0.945554979
589,1475843,621860,1.25,-1.03,0.661,57.8,64.2,226.1,10.1,-13.4,-15.4,0.24692526,0.0207220679,0.215124973,-0.944608905
590,1479297,621860,1.215,-0.974,0.669,56.3,65,226.7,10.1,-13.4,-15.4,0.251258889,0.0234382153,0.214209418,-0.943601794
591,1480823,621860,1.18,-0.915,0.682,54,66,227.3,10.4,-14,-15.2,0.255592517,0.0261238441,0.213324381,-0.942564165
592,1483378,621870,1.098,-0.818,0.695,50.9,66.8,227.7,10.4,-14,-15.2,0.259926145,0.02887051,0.2125309,-0.941496017
593,1485882,621870,1.033,-0.777,0.912,47.3,67.5,228,10.4,-14,-15.2,0.264290292,0.0315866573,0.211798456,-0.940366832
594,1489862,621870,0.969,-0.709,0.714,43.1,68.1,228.1,10.4,-14,-15.2,0.26862392,0.0342722861,0.211127049,-0.939176611
595,1492021,621870,0.889,-0.692,0.626,38.8,68.2,228.3,9.6,-14.6,-15,0.27292703,0.036957915,0.210577715,-0.93795587
596,1493566,621880,0.771,-0.646,0.708,34.4,67.8,228.6,9.6,-14.6,-15,0.277291177,0.0395825068,0.210089419,-0.936674093
597,1495737,621880,0.704,-0.624,0.733,30.1,66.9,228.7,9.6,-14.6,-15,0.281624805,0.0422070986,0.20966216,-0.935361797
598,1500019,621880,0.63,-0.591,0.758,25.7,66.4,227.8,9.6,-14.6,-15,0.285927915,0.0447706534,0.209326456,-0.934018983
599,1500658,621880,0.534,-0.593,0.776,20.8,66.4,226,9.5,-14.8,-14.5,0.290200507,0.0472731712,0.209112827,-0.932615131
600,1503748,621890,0.384,-0.55,0.807,15.8,66.5,223.5,9.5,-14.8,-14.5,0.294442579,0.0497451704,0.208960234,-0.931180761
601,1505900,621890,0.313,-0.541,0.837,11.4,66.4,220.8,9.5,-14.8,-14.5,0.298593097,0.0521866512,0.208929716,-0.929746391
602,1508196,621890,0.254,-0.535,0.858,8.1,65.7,218.2,9.5,-14.8,-14.5,0.302713095,0.0545670949,0.208929716,-0.928281503
603,1510790,621890,0.147,-0.517,0.904,6,64.7,216.1,6.9,-16.9,-14.9,0.306802576,0.0568865017,0.208960234,-0.926755577
604,1513728,621900,0.1,-0.508,0.917,5.4,63.4,214.5,6.9,-16.9,-14.9,0.310831019,0.0592059084,0.209021271,-0.925290689
605,1516009,621900,0.08,-0.508,0.925,6,61.9,213.2,6.9,-16.9,-14.9,0.314828944,0.0614642781,0.20905179,-0.923764763
606,1518299,621900,0.044,-0.507,0.926,7.6,60.7,212.2,6.9,-16.9,-14.9,0.318826868,0.0636921293,0.209021271,-0.922269356
607,1520762,621900,0.001,-0.502,0.923,10.1,59.6,211.4,6.4,-17,-14.9,0.322794275,0.065950499,0.208929716,-0.920743431
608,1523847,621910,-0.01,-0.506,0.92,13,58.5,210.4,6.4,-17,-14.9,0.326731162,0.0681783502,0.208777123,-0.919217505
609,1525840,621910,-0.026,-0.517,0.924,16.1,57.5,209.4,6.4,-17,-14.9,0.330637532,0.0703756829,0.208532975,-0.91769158
610,1528289,621910,-0.042,-0.521,0.936,18.7,56.6,208.3,6.4,-17,-14.9,0.334513382,0.072603534,0.20822779,-0.916196173
611,1530656,621910,-0.082,-0.52,0.953,20.3,55.9,207.2,5.9,-17.7,-14.8,0.338358715,0.0748008667,0.207922605,-0.914670248
612,1534848,621920,-0.101,-0.511,0.961,20.6,55.8,205.9,5.9,-17.7,-14.8,0.342204047,0.0769981994,0.207586901,-0.913144322
613,1536274,621920,-0.129,-0.491,0.95,19.8,56.1,204.4,5.9,-17.7,-14.8,0.345988342,0.0791955321,0.207251198,-0.911587878
614,1538450,621920,-0.157,-0.479,0.947,18.2,56.8,202.3,5.9,-17.7,-14.8,0.3497116,0.0813928648,0.206976531,-0.910061953
615,1541489,621920,-0.196,-0.438,0.948,16.5,57.4,199.7,4.9,-19.3,-14.7,0.353373821,0.0835596789,0.206732383,-0.90847499
616,1543297,621930,-0.223,-0.414,0.96,14.7,58,196.5,4.9,-19.3,-14.7,0.356975005,0.0856959746,0.206518754,-0.906918546
617,1546291,621930,-0.242,-0.39,0.961,13.3,58.4,192.7,4.9,-19.3,-14.7,0.360515152,0.0878322703,0.206366161,-0.905362102
618,1548615,621930,-0.285,-0.322,0.969,11.8,59,188.8,4.9,-19.3,-14.7,0.363933226,0.0899380474,0.206213569,-0.903805658
619,1550773,621930,-0.296,-0.287,0.973,10.2,59.9,184.7,4.8,-20,-14.8,0.367290262,0.0920438246,0.206122013,-0.902279733
620,1553132,621940,-0.312,-0.255,0.978,8.1,60.7,180.3,4.8,-20,-14.8,0.370555742,0.0941190832,0.206091494,-0.900723289
621,1555743,621940,-0.327,-0.223,0.982,5.4,61.7,175.7,4.8,-20,-14.8,0.373729667,0.0961638234,0.206122013,-0.899197363
622,1559021,621940,-0.346,-0.156,0.99,2.4,62.5,170.9,4.8,-20,-14.8,0.376781518,0.098178045,0.206244087,-0.897671438
623,1560783,621940,-0.369,-0.124,0.983,-0.9,63.4,165.9,4,-16,-13.7,0.379741813,0.100161748,0.206427198,-0.896176031
624,1563536,621950,-0.397,-0.104,0.979,-4.3,64.1,160.6,4,-16,-13.7,0.382610553,0.102084414,0.206671346,-0.894680624
625,1566668,621950,-0.424,-0.091,0.988,-7.8,64.7,155.2,4,-16,-13.7,0.385357219,0.10400708,0.207037568,-0.893185217
626,1568875,621950,-0.487,-0.031,0.989,-11.5,65.2,149.9,4,-16,-13.7,0.388012329,0.105838191,0.207464827,-0.891720328
627,1571170,621950,-0.487,-0.031,0.989,-11.5,65.2,149.9,4,-16,-13.7,0.388012329,0.105838191,0.207464827,-0.891720328
628,1573335,621960,-0.55,0.013,0.991,-19.1,65.8,140.2,3.6,-19.3,-16.1,0.393658254,0.110812708,0.20639668,-0.888882107
629,1575758,621960,-0.585,0.045,0.988,-22.7,66,135.7,3.6,-19.3,-16.1,0.396038697,0.112491226,0.207098605,-0.887447737
630,1579212,621960,-0.648,0.102,0.978,-25.9,66.1,131.3,3.6,-19.3,-16.1,0.398358104,0.114139225,0.20783105,-0.886013367
631,1580810,621960,-0.683,0.122,0.975,-28.7,66.2,126.7,2.5,-18.7,-15.8,0.400555437,0.115756706,0.208655049,-0.884640034
632,1583247,621970,-0.707,0.15,0.964,-30.8,66.2,122,2.5,-18.7,-15.8,0.402691733,0.117282632,0.209509568,-0.883236183
633,1586727,621970,-0.769,0.199,0.977,-32,66,117.1,2.5,-18.7,-15.8,0.404736473,0.118839076,0.210425123,-0.881893368
634,1588316,621970,-0.797,0.219,0.974,-32.3,65.6,112.3,2.5,-18.7,-15.8,0.406659139,0.120334483,0.21131016,-0.880581072
635,1590820,621970,-0.828,0.224,0.994,-31.8,65.1,107.5,2.8,-18.3,-15.8,0.408520768,0.121799371,0.212225715,-0.879299295
636,1593149,621980,-0.852,0.224,1.01,-30.5,64.7,103,2.8,-18.3,-15.8,0.410290841,0.12326426,0.213110752,-0.878078555
637,1596068,621980,-0.892,0.213,1.027,-28.7,64.4,98.9,2.8,-18.3,-15.8,0.411938841,0.12469863,0.21396527,-0.876888333
638,1598476,621980,-0.908,0.21,1.027,-27.1,63.9,95.2,2.8,-18.3,-15.8,0.413556322,0.126102481,0.214819788,-0.875728629
639,1600835,621980,-0.924,0.202,1.024,-26.5,63,92,2.4,-17.4,-16.5,0.415082247,0.127506333,0.215643788,-0.874599445
640,1603343,621990,-0.948,0.207,0.997,-27.7,61.7,89,2.4,-17.4,-16.5,0.416577654,0.128849147,0.216467788,-0.87347026
641,1605701,621990,-0.983,0.219,0.947,-30.8,60.3,86.2,2.4,-17.4,-16.5,0.418012024,0.130100406,0.217383343,-0.872371593
642,1609892,621990,-1.003,0.235,0.932,-35.1,59,83.4,2.4,-17.4,-16.5,0.419415876,0.131321146,0.218329417,-0.871272927
643,1612009,621990,-1.019,0.247,0.917,-39.6,57.9,80.5,2.6,-17.6,-14.5,0.420789209,0.132450331,0.219397565,-0.870174261
644,1613552,622000,-1.035,0.264,0.906,-43.7,56.7,77.1,2.6,-17.6,-14.5,0.422101505,0.13348796,0.220526749,-0.869106113
645,1615779,622000,-1.062,0.311,0.902,-47,55.6,73.6,2.6,-17.6,-14.5,0.423352763,0.134464553,0.221716971,-0.868037965
646,1618342,622000,-1.065,0.327,0.902,-49.9,54.3,70.2,2.6,-17.6,-14.5,0.424573504,0.135380108,0.22296823,-0.866969817
647,1620789,622000,-1.031,0.287,0.808,-53,53,67.2,2.6,-17.5,-16.3,0.425733207,0.136204108,0.224250008,-0.865932188
648,1624903,622010,-1.099,0.442,0.961,-55.5,51,65.6,2.6,-17.5,-16.3,0.426892911,0.136997589,0.225592822,-0.864894559
649,1627036,622010,-1.122,0.482,0.985,-57,48.5,66,2.6,-17.5,-16.3,0.428083132,0.137699515,0.226905118,-0.863856929
650,1628464,622010,-1.095,0.45,0.899,-59.1,47.1,67.2,2.6,-17.5,-16.3,0.429303873,0.138370922,0.228247932,-0.862788781
651,1631290,622010,-1.114,0.501,0.895,-63.6,47.2,66.9,2.2,-17.6,-16.6,0.430494095,0.138981292,0.229712821,-0.861690115
652,1633704,622020,-1.079,0.504,0.886,-70.3,48.3,63.2,2.2,-17.6,-16.6,0.431653798,0.139561144,0.231269265,-0.860621967
653,1635866,622020,-1.102,0.509,0.911,-76.7,48.8,57.1,2.2,-17.6,-16.6,0.432721946,0.14004944,0.23300882,-0.859523301
654,1638222,622020,-1.098,0.505,0.926,-81.9,49.3,50.1,2.2,-17.6,-16.6,0.43366802,0.140446181,0.234870449,-0.858485672
655,1640788,622020,-1.106,0.497,0.922,-86.2,49.8,43.5,2.2,-17.3,-17,0.434492019,0.140781884,0.236823634,-0.857478561
656,1645002,622030,-1.119,0.474,0.903,-90.8,50.2,37.9,2.2,-17.3,-17,0.435224464,0.141056551,0.238868374,-0.856501968
657,1647194,622030,-1.131,0.458,0.888,-96.2,50.9,33.5,2.2,-17.3,-17,0.435865352,0.14127018,0.241035188,-0.855525376
658,1648679,622030,-1.143,0.443,0.881,-102.5,51.6,30,2.2,-17.3,-17,0.436475723,0.141422773,0.243354595,-0.854518265
659,1652546,622030,-1.156,0.412,0.881,-108.7,52.7,26.9,2.1,-16.4,-16.9,0.437025056,0.141514328,0.245796075,-0.853511155
660,1654768,622040,-1.16,0.396,0.889,-113.9,53.7,24.3,2.1,-16.4,-16.9,0.43754387,0.141544847,0.24835963,-0.852504044
661,1656267,622040,-1.168,0.377,0.905,-117.8,54.6,21.8,2.1,-16.4,-16.9,0.438032167,0.141575365,0.25101474,-0.851496933
662,1658375,622040,-1.168,0.357,0.921,-120.4,55,19.8,2.1,-16.4,-16.9,0.438459426,0.141544847,0.253700369,-0.850459304
663,1661424,622040,-1.176,0.33,0.956,-122.5,55.1,17.9,2.5,-16.4,-17.8,0.438856166,0.14148381,0.256447035,-0.849452193
664,1663234,622050,-1.18,0.318,0.972,-124.1,55,16.5,2.5,-16.4,-17.8,0.439252907,0.141422773,0.259224219,-0.848414563
665,1666202,622050,-1.184,0.31,0.976,-125.6,55,15.6,2.5,-16.4,-17.8,0.439619129,0.141331217,0.262031922,-0.847376934
666,1668661,622050,-1.188,0.303,0.984,-126.7,54.8,15.1,2.5,-16.4,-17.8,0.439924314,0.141209143,0.264870144,-0.846339305
667,1670895,622050,-1.181,0.279,0.995,-126.8,54.4,14.5,2.8,-16,-16.6,0.440290536,0.141087069,0.267677847,-0.845301675
668,1673738,622060,-1.177,0.267,0.999,-125.7,53.7,13.6,2.8,-16,-16.6,0.44062624,0.140934477,0.270455031,-0.844264046
669,1675995,622060,-1.165,0.247,0.991,-123.5,52.9,12.3,2.8,-16,-16.6,0.440931425,0.140781884,0.273201697,-0.843256935
670,1678304,622060,-1.15,0.223,0.979,-120.4,52,10.3,2.8,-16,-16.6,0.441175573,0.14065981,0.275856807,-0.842280343
671,1680834,622060,-1.119,0.179,0.951,-116.9,51.1,7.9,3.3,-15.7,-15.9,0.441358684,0.140507218,0.278511917,-0.841334269
672,1683157,622070,-1.108,0.159,0.931,-113.5,50.2,5.3,3.3,-15.7,-15.9,0.441511277,0.140385144,0.281075472,-0.840418714
673,1686541,622070,-1.092,0.139,0.911,-110,49.3,2.4,3.3,-15.7,-15.9,0.441572314,0.140232551,0.283547472,-0.839564196
674,1688801,622070,-1.077,0.111,0.876,-106,48.6,-0.5,3.3,-15.7,-15.9,0.441602832,0.140110477,0.285958434,-0.838770714
675,1690948,622070,-1.073,0.103,0.856,-101.1,48,-3.5,3.2,-15.2,-16.7,0.441541795,0.139988403,0.288277841,-0.83803827
676,1693154,622080,-1.061,0.099,0.844,-95,47.6,-6.3,3.2,-15.2,-16.7,0.441419721,0.139866329,0.290505692,-0.837336344
677,1696269,622080,-1.054,0.091,0.836,-88.2,47.3,-9,3.2,-15.2,-16.7,0.441206091,0.139866329,0.29258095,-0.836725974
678,1698404,622080,-1.042,0.102,0.824,-80.9,47,-11.2,3.2,-15.2,-16.7,0.440961943,0.139866329,0.294564653,-0.836176641
679,1700676,622080,-1.033,0.122,0.812,-73.8,46.5,-13.1,3.6,-15.2,-16.5,0.44062624,0.139927366,0.296395764,-0.835688345
680,1703156,622090,-1.029,0.126,0.8,-66.8,46.1,-14.7,3.6,-15.2,-16.5,0.440260018,0.140018921,0.298104801,-0.835261086
681,1706685,622090,-1.029,0.138,0.796,-59.8,45.8,-15.9,3.6,-15.2,-16.5,0.439863277,0.140171514,0.299691763,-0.834864345
682,1708266,622090,-1.017,0.161,0.804,-52.7,45.3,-16.8,3.6,-15.2,-16.5,0.439436018,0.140385144,0.301126133,-0.83455916
683,1710610,622090,-1.017,0.169,0.804,-45.8,44.8,-17.8,4,-14.8,-20.3,0.438947722,0.14065981,0.302438429,-0.834284494
684,1713557,622100,-1.013,0.169,0.804,-39.3,44.1,-18.7,4,-14.8,-20.3,0.438428907,0.140934477,0.303659169,-0.834070864
685,1716618,622100,-1.013,0.173,0.804,-33.6,43.6,-19.7,4,-14.8,-20.3,0.437879574,0.141300699,0.304727317,-0.833887753
686,1718905,622100,-1.005,0.176,0.8,-28.3,42.9,-20.4,4,-14.8,-20.3,0.437299722,0.141666921,0.305734428,-0.833765679
687,1721225,622100,-0.997,0.176,0.795,-23.5,42.2,-20.8,4.2,-14.1,-18.9,0.436719871,0.142063662,0.306619465,-0.833674123
688,1723450,622110,-1.001,0.176,0.799,-19,41.4,-21,4.2,-14.1,-18.9,0.4361095,0.142490921,0.307412946,-0.833613086
689,1725977,622110,-0.989,0.18,0.787,-15,40.7,-21,4.2,-14.1,-18.9,0.43549913,0.142948698,0.30814539,-0.833582568
690,1728146,622110,-0.985,0.176,0.795,-11.6,40,-20.8,4.2,-14.1,-18.9,0.43488876,0.143436995,0.308816797,-0.833582568
691,1730886,622110,-0.973,0.183,0.799,-8.7,39.7,-20.3,4.4,-13.9,-19.5,0.43427839,0.143925291,0.309427168,-0.833613086
692,1733305,622120,-0.973,0.183,0.795,-6.6,39.7,-19.6,4.4,-13.9,-19.5,0.433698538,0.144474624,0.309976501,-0.833613086
693,1735681,622120,-0.965,0.187,0.787,-5.3,39.7,-19,4.4,-13.9,-19.5,0.433088168,0.144993439,0.310495315,-0.833643605
694,1738292,622120,-0.961,0.195,0.794,-4.9,39.9,-18.5,4.4,-13.9,-19.5,0.432477798,0.145542772,0.31101413,-0.833643605
695,1741722,622120,-0.961,0.191,0.798,-5.7,40.2,-18.4,4.7,-14.2,-20.4,0.431897946,0.146122623,0.311563463,-0.833643605
696,1743196,622130,-0.961,0.183,0.794,-7.7,40.7,-18.4,4.7,-14.2,-20.4,0.431318094,0.146641438,0.312143315,-0.833643605
697,1745725,622130,-0.945,0.187,0.802,-10.7,41.3,-18.6,4.7,-14.2,-20.4,0.430738243,0.147190771,0.312814722,-0.833613086
698,1750080,622130,-0.937,0.179,0.813,-14.5,42,-19.2,4.7,-14.2,-20.4,0.430127873,0.147679067,0.313516648,-0.833552049
699,1752238,622130,-0.933,0.179,0.817,-19.1,42.8,-19.9,5.1,-14.1,-20.4,0.429548021,0.148136845,0.314340648,-0.833491012
700,1754466,622140,-0.917,0.17,0.825,-24.4,43.6,-20.7,5.1,-14.1,-20.4,0.428937651,0.148564104,0.315256203,-0.833368938
701,1756698,622140,-0.894,0.174,0.816,-30,44.8,-21.2,5.1,-14.1,-20.4,0.428357799,0.148960845,0.316293832,-0.833216346
702,1759089,622140,-0.878,0.169,0.824,-35.8,46,-21.3,5.1,-14.1,-20.4,0.427747429,0.149296548,0.317453536,-0.833002716
703,1761381,622140,-0.87,0.161,0.816,-41.2,47.4,-20.9,5.1,-14.4,-18.9,0.427198096,0.149632252,0.318704794,-0.832758568
704,1763405,622150,-0.858,0.153,0.815,-46,48.7,-20.1,5.1,-14.4,-18.9,0.426618244,0.149937437,0.320047609,-0.832483901
705,1766378,622150,-0.859,0.134,0.811,-50.1,49.9,-19.1,5.1,-14.4,-18.9,0.426099429,0.150242622,0.321481979,-0.832148198
706,1768559,622150,-0.855,0.118,0.796,-53.6,51,-18.1,5.1,-14.4,-18.9,0.425580615,0.150547807,0.323007904,-0.831751457
707,1770806,622150,-0.843,0.09,0.776,-56.5,52.1,-17.1,5.1,-14,-19.1,0.425092318,0.150852992,0.324564348,-0.831354717
708,1773266,622160,-0.844,0.062,0.76,-58.9,53.1,-16.1,5.1,-14,-19.1,0.424604022,0.151158177,0.326181829,-0.830896939
709,1776113,622160,-0.84,0.039,0.741,-60.8,54,-15.5,5.1,-14,-19.1,0.424146245,0.151463363,0.327829829,-0.830439161
710,1778422,622160,-0.837,0.019,0.737,-62,54.9,-15.2,5.1,-14,-19.1,0.423688467,0.151768548,0.329508347,-0.829950865
711,1780678,622160,-0.833,0.003,0.721,-62.7,55.7,-15.2,5.9,-13.6,-19.3,0.423200171,0.152104251,0.331217383,-0.829462569
712,1783247,622170,-0.834,-0.043,0.706,-62.5,56.4,-15.6,5.9,-13.6,-19.3,0.422742393,0.152439955,0.33292642,-0.828974273
713,1785866,622170,-0.826,-0.067,0.698,-61.4,57.2,-16.2,5.9,-13.6,-19.3,0.422223579,0.152775658,0.334604938,-0.828485977
714,1789337,622170,-0.827,-0.086,0.69,-59.2,57.9,-17,5.9,-13.6,-19.3,0.421674245,0.153141881,0.336283456,-0.827997681
715,1791633,622170,-0.823,-0.102,0.69,-56,58.4,-17.6,5.8,-13.4,-19.1,0.421124912,0.153538621,0.337900937,-0.827570421
716,1793487,622180,-0.811,-0.118,0.698,-52.2,58.7,-18.3,5.8,-13.4,-19.1,0.420545061,0.153996399,0.339426862,-0.827143162
717,1795937,622180,-0.816,-0.13,0.698,-47.8,58.9,-19.1,5.8,-13.4,-19.1,0.419904172,0.154484695,0.340891751,-0.82677694
718,1798293,622180,-0.808,-0.138,0.698,-43.1,58.8,-20,5.8,-13.4,-19.1,0.419263283,0.15500351,0.342265084,-0.826441237
719,1800775,622180,-0.804,-0.162,0.698,-37.8,58.8,-20.8,6.4,-13.2,-19.4,0.418561357,0.155552843,0.34357738,-0.826136052
720,1804157,622190,-0.804,-0.162,0.698,-32.1,58.7,-21.6,6.4,-13.2,-19.4,0.417859432,0.156163213,0.344767602,-0.825891903
721,1805751,622190,-0.8,-0.177,0.697,-26,58.5,-22.3,6.4,-13.2,-19.4,0.417096469,0.15683462,0.345835749,-0.825708792
722,1808259,622190,-0.797,-0.193,0.701,-19.3,58.1,-23,6.4,-13.2,-19.4,0.416302988,0.157506027,0.346812342,-0.8255562
723,1810656,622190,-0.801,-0.205,0.694,-12.1,57.7,-23.4,4.9,-13.2,-19.5,0.415478988,0.15826899,0.347636341,-0.825495163
724,1813886,622200,-0.797,-0.217,0.694,-4.5,57,-23.9,4.9,-13.2,-19.5,0.41462447,0.159062471,0.348307749,-0.825464644
725,1816281,622200,-0.797,-0.221,0.698,3.1,56.1,-24.4,4.9,-13.2,-19.5,0.413769951,0.15991699,0.348826563,-0.825525681
726,1818146,622200,-0.801,-0.225,0.694,10.3,55.3,-24.7,4.9,-13.2,-19.5,0.412854396,0.160832545,0.349253822,-0.825617237
727,1821726,622200,-0.801,-0.225,0.694,10.3,55.3,-24.7,4.9,-13.2,-19.5,0.412854396,0.160832545,0.349253822,-0.825617237
728,1823247,622210,-0.793,-0.229,0.721,22.7,54.2,-25.3,8.8,-13.1,-19.4,0.411420026,0.163853877,0.349223304,-0.825769829
729,1825699,622210,-0.789,-0.225,0.725,27.7,53.7,-25.5,8.8,-13.1,-19.4,0.410443434,0.164860988,0.349314859,-0.826013977
730,1829204,622210,-0.781,-0.229,0.728,31.9,53.1,-25.5,8.8,-13.1,-19.4,0.409466842,0.165929136,0.349314859,-0.826288644
731,1830769,622210,-0.769,-0.233,0.728,35.4,52.4,-25.3,9.1,-12.9,-19.4,0.408459731,0.166997284,0.349223304,-0.826593829
732,1833285,622220,-0.761,-0.237,0.728,38.3,51.6,-25,9.1,-12.9,-19.4,0.407483139,0.168065432,0.349070711,-0.826929533
733,1835687,622220,-0.757,-0.237,0.728,40.6,50.8,-24.4,9.1,-12.9,-19.4,0.406506546,0.169164098,0.3488876,-0.827265236
734,1839189,622220,-0.746,-0.249,0.735,42.2,50.2,-23.8,9.1,-12.9,-19.4,0.405529954,0.170262764,0.348673971,-0.82760094
735,1840776,622220,-0.742,-0.242,0.731,42.8,49.5,-23.1,9.1,-13,-19.2,0.40458388,0.171361431,0.348399304,-0.827936644
736,1843150,622230,-0.742,-0.245,0.727,42.5,48.9,-22.4,9.1,-13,-19.2,0.403637806,0.172460097,0.348124638,-0.828272347
737,1847477,622230,-0.738,-0.246,0.723,41.2,48.4,-21.6,9.1,-13,-19.2,0.402722251,0.173528245,0.347911008,-0.828608051
738,1848374,622230,-0.738,-0.242,0.719,39.4,48.1,-20.6,9.1,-13,-19.2,0.401837214,0.174596393,0.347697378,-0.828913236
739,1850633,622230,-0.742,-0.234,0.723,37.2,47.9,-19.4,9.7,-13,-18.9,0.400982696,0.175634022,0.347514267,-0.829187902
740,1854880,622240,-0.734,-0.234,0.723,34.8,47.7,-18,9.7,-13,-18.9,0.400158696,0.176671651,0.347392193,-0.829401532
741,1856359,622240,-0.73,-0.242,0.719,32.3,47.3,-16.4,9.7,-13,-18.9,0.399395734,0.177678762,0.347270119,-0.829615162
742,1858607,622240,-0.73,-0.25,0.711,29.3,47,-14.8,9.7,-13,-18.9,0.398632771,0.178685873,0.347209082,-0.829798273
743,1860895,622240,-0.722,-0.258,0.711,26.1,46.7,-13.3,8.1,-13.1,-18.4,0.397961364,0.179662465,0.347209082,-0.829920347
744,1863629,622250,-0.722,-0.27,0.711,22.6,46.6,-11.9,8.1,-13.1,-18.4,0.397289956,0.180608539,0.347239601,-0.830011902
745,1866631,622250,-0.707,-0.293,0.719,18.8,46.3,-10.5,8.1,-13.1,-18.4,0.396679586,0.181524094,0.347331156,-0.830072939
746,1868114,622250,-0.699,-0.305,0.719,14.9,45.9,-9.2,8.1,-13.1,-18.4,0.396099734,0.182409131,0.347514267,-0.830072939
747,1870604,622250,-0.699,-0.305,0.719,14.9,45.9,-9.2,8.1,-13.1,-18.4,0.396099734,0.182409131,0.347514267,-0.830072939
748,1873488,622260,-0.695,-0.325,0.707,6.6,45.2,-6.6,8.2,-13.4,-18.5,0.395641957,0.185369427,0.347300638,-0.829706717
749,1875626,622260,-0.688,-0.333,0.707,2.6,45,-5.5,8.2,-13.4,-18.5,0.395214698,0.186193426,0.34766686,-0.829584643
750,1878643,622260,-0.688,-0.337,0.699,-0.8,44.9,-4.4,8.2,-13.4,-18.5,0.394787439,0.186956389,0.348094119,-0.829432051
751,1880781,622260,-0.692,-0.345,0.695,-3.9,44.4,-3.2,8.2,-13.4,-18.4,0.394390698,0.187688833,0.348551897,-0.829248939
752,1883170,622270,-0.688,-0.345,0.687,-6.4,43.8,-2.1,8.2,-13.4,-18.4,0.394054994,0.188421278,0.349040193,-0.829065828
753,1886704,622270,-0.68,-0.361,0.679,-8.7,43,-1,8.2,-13.4,-18.4,0.393749809,0.189123203,0.349589526,-0.82882168
754,1888201,622270,-0.68,-0.365,0.683,-10.6,42.2,-0.1,8.2,-13.4,-18.4,0.393475143,0.18979461,0.350138859,-0.828547014
755,1891503,622270,-0.672,-0.373,0.687,-12.2,41.4,0.7,7.2,-13.4,-18.8,0.393200476,0.190435499,0.350718711,-0.828302866
756,1893747,622280,-0.669,-0.385,0.683,-13.2,40.5,1.4,7.2,-13.4,-18.8,0.392986847,0.191076388,0.351298563,-0.827997681
757,1896097,622280,-0.653,-0.409,0.683,-13.7,39.6,2,7.2,-13.4,-18.8,0.392773217,0.191686758,0.351878414,-0.827723014
758,1898237,622280,-0.653,-0.409,0.69,-13.7,38.6,2.5,7.2,-13.4,-18.8,0.392590106,0.19226661,0.352458266,-0.827417829
759,1901516,622280,-0.649,-0.428,0.69,-13.3,37.5,2.7,6.5,-13.3,-18.4,0.392406995,0.19287698,0.353007599,-0.827143162
760,1903785,622290,-0.65,-0.44,0.69,-12.6,36.5,3,6.5,-13.3,-18.4,0.392223884,0.193456832,0.353526414,-0.826868496
761,1906044,622290,-0.65,-0.44,0.679,-11.6,35.5,3.3,6.5,-13.3,-18.4,0.392071291,0.194006165,0.353984191,-0.826593829
762,1908291,622290,-0.646,-0.448,0.682,-10.3,34.4,3.6,6.5,-13.3,-18.4,0.39188818,0.194555498,0.354503006,-0.826349681
763,1911403,622290,-0.642,-0.452,0.675,-8.6,33.3,3.9,10.2,-13.6,-18.4,0.391766106,0.19513535,0.354930265,-0.826105533
764,1914361,622300,-0.646,-0.452,0.655,-6.6,32,4.2,10.2,-13.6,-18.4,0.391613514,0.195684683,0.355296487,-0.825861385
765,1915853,622300,-0.65,-0.452,0.655,-4.3,30.7,4.5,10.2,-13.6,-18.4,0.391460921,0.196234016,0.355601672,-0.825678274
766,1918984,622300,-0.642,-0.452,0.655,-1.5,29.3,4.7,10.2,-13.6,-18.4,0.391338847,0.196783349,0.355876339,-0.825495163
767,1920710,622300,-0.642,-0.452,0.655,-1.5,29.3,4.7,10.2,-13.6,-18.4,0.391338847,0.196783349,0.355876339,-0.825495163
768,1924141,622310,-0.642,-0.456,0.647,4.7,26.4,5.3,7.3,-13,-18.5,0.391033662,0.198248238,0.356517228,-0.825006867
769,1925721,622310,-0.642,-0.452,0.639,8.2,24.9,5.4,7.3,-13,-18.5,0.390911588,0.198797571,0.356547746,-0.824915311
770,1928555,622310,-0.646,-0.456,0.64,11.6,23.3,5.5,7.3,-13,-18.5,0.390789514,0.199377422,0.356517228,-0.824854274
771,1931587,622310,-0.638,-0.456,0.643,14.9,21.8,5.3,7.4,-12.7,-18.3,0.390636921,0.199926756,0.356395154,-0.824823756
772,1933188,622320,-0.638,-0.452,0.643,17.8,20.2,5.1,7.4,-12.7,-18.3,0.390514847,0.200476089,0.356242561,-0.824823756
773,1936466,622320,-0.634,-0.449,0.643,20.3,18.8,4.8,7.4,-12.7,-18.3,0.390362255,0.201025422,0.355998413,-0.824884793
774,1938147,622320,-0.634,-0.441,0.651,22.6,17.5,4.6,7.4,-12.7,-18.3,0.390209662,0.201574755,0.355723746,-0.82494583
775,1941052,622320,-0.634,-0.425,0.659,24.4,16.2,4.5,8.2,-12.7,-18.2,0.39005707,0.202124088,0.355418561,-0.825006867
776,1944024,622330,-0.63,-0.425,0.662,26,14.9,4.8,8.2,-12.7,-18.2,0.389904477,0.202642903,0.355052339,-0.825098422
777,1946899,622330,-0.626,-0.417,0.662,27.1,13.8,5.2,8.2,-12.7,-18.2,0.389782403,0.203161718,0.354655599,-0.825189978
778,1948428,622330,-0.629,-0.409,0.666,27.9,12.5,5.7,8.2,-12.7,-18.2,0.389660329,0.203680532,0.354228339,-0.825312052
779,1951176,622330,-0.629,-0.394,0.654,28.2,11.3,6.2,9.4,-12.9,-18,0.389538255,0.204168828,0.35380108,-0.825434126
780,1953965,622340,-0.633,-0.386,0.662,28.1,10.3,6.7,9.4,-12.9,-18,0.389477218,0.204657125,0.353343303,-0.8255562
781,1956192,622340,-0.633,-0.378,0.658,27.5,9.4,7,9.4,-12.9,-18,0.389385662,0.205114902,0.352885525,-0.825647755
782,1958482,622340,-0.633,-0.374,0.662,26.6,8.5,7.5,9.4,-12.9,-18,0.389355144,0.205542161,0.352458266,-0.825769829
783,1961595,622340,-0.637,-0.366,0.674,25.5,7.7,8.1,9.7,-14.5,-18.2,0.389324625,0.20596942,0.352031007,-0.825861385
784,1963749,622350,-0.637,-0.37,0.678,24.2,7,9.1,9.7,-14.5,-18.2,0.389324625,0.206366161,0.351603748,-0.825922422
785,1965947,622350,-0.629,-0.374,0.678,22.7,6.4,10.1,9.7,-14.5,-18.2,0.389355144,0.206762902,0.351207007,-0.825983459
786,1968924,622350,-0.629,-0.378,0.682,20.8,5.8,11,9.7,-14.5,-18.2,0.389416181,0.207129124,0.350810266,-0.826013977
787,1970818,622350,-0.629,-0.378,0.682,20.8,5.8,11,9.7,-14.5,-18.2,0.389416181,0.207129124,0.350810266,-0.826013977
788,1973230,622360,-0.629,-0.394,0.686,15.9,5,12.4,9.7,-12.4,-17.6,0.38984344,0.208105716,0.349803156,-0.826013977
789,1977491,622360,-0.633,-0.397,0.69,13.1,4.8,12.8,9.7,-12.4,-17.6,0.389965514,0.208410901,0.349559008,-0.825983459
790,1979747,622360,-0.633,-0.413,0.69,10.3,4.5,13.1,9.7,-12.4,-17.6,0.390118107,0.208685568,0.349345378,-0.825922422
791,1981808,622360,-0.633,-0.421,0.694,7.6,4.2,13.4,9.6,-12.2,-18.1,0.390301218,0.208929716,0.349192785,-0.825861385
792,1983840,622370,-0.637,-0.417,0.694,5.3,3.9,13.6,9.6,-12.2,-18.1,0.390484329,0.209143345,0.349070711,-0.825769829
793,1986127,622370,-0.633,-0.417,0.694,3.2,3.6,13.8,9.6,-12.2,-18.1,0.390697958,0.209326456,0.348979156,-0.825647755
794,1988398,622370,-0.629,-0.421,0.69,1.5,3.2,14,9.6,-12.2,-18.1,0.390911588,0.209509568,0.348918119,-0.825525681
795,1991013,622370,-0.629,-0.417,0.69,0.1,3,14.3,10,-12.2,-17.7,0.391155736,0.209692679,0.348857082,-0.825403607
796,1993263,622380,-0.637,-0.417,0.682,-1.2,2.9,14.8,10,-12.2,-17.7,0.391399884,0.209845271,0.348857082,-0.825251015
797,1997657,622380,-0.633,-0.409,0.686,-2.3,2.8,15.2,10,-12.2,-17.7,0.391674551,0.209997864,0.348826563,-0.825067904
798,1998441,622380,-0.641,-0.405,0.674,-3.2,2.9,15.5,10,-12.2,-17.7,0.391949217,0.210119938,0.348857082,-0.824915311
799,2000903,622380,-0.641,-0.397,0.674,-4,2.8,15.7,9.7,-12.5,-17.7,0.392223884,0.21027253,0.3488876,-0.8247322
800,2004165,622390,-0.641,-0.393,0.678,-4.6,2.6,15.8,9.7,-12.5,-17.7,0.39249855,0.210394604,0.348918119,-0.824549089
801,2006368,622390,-0.637,-0.382,0.674,-5.4,2.4,16,9.7,-12.5,-17.7,0.392803735,0.210516678,0.348948637,-0.824365978
802,2008591,622390,-0.641,-0.378,0.674,-6,2.3,16.3,9.7,-12.5,-17.7,0.393108921,0.210638752,0.349009674,-0.824152348
803,2010845,622390,-0.641,-0.374,0.67,-6.8,2.1,16.4,9.3,-13.1,-18,0.393414106,0.210730308,0.349070711,-0.823969237
804,2013351,622400,-0.633,-0.37,0.674,-7.5,1.9,16.3,9.3,-13.1,-18,0.393719291,0.210821863,0.349162267,-0.823755608
805,2015653,622400,-0.637,-0.37,0.67,-8.1,1.6,16.3,9.3,-13.1,-18,0.394054994,0.210913419,0.349223304,-0.823541978
806,2019785,622400,-0.637,-0.37,0.662,-8.7,1.4,16.2,9.3,-13.1,-18,0.394360179,0.210974456,0.349345378,-0.823328349
807,2021234,622400,-0.637,-0.37,0.662,-8.7,1.4,16.2,9.3,-13.1,-18,0.394360179,0.210974456,0.349345378,-0.823328349
808,2023632,622410,-0.633,-0.378,0.662,-9.7,1.2,15.7,9.3,-14.9,-17.8,0.395184179,0.211401715,0.349253822,-0.822840052
809,2025790,622410,-0.633,-0.393,0.659,-9.9,1.1,15.1,9.3,-14.9,-17.8,0.395489364,0.211462752,0.349375896,-0.822626423
810,2028175,622410,-0.629,-0.398,0.655,-9.8,1,14.5,9.3,-14.9,-17.8,0.395794549,0.211493271,0.349497971,-0.822443312
811,2031226,622410,-0.629,-0.401,0.655,-9.3,0.9,13.8,9.1,-15.8,-17.8,0.396099734,0.211554308,0.349620045,-0.822229682
812,2033422,622420,-0.637,-0.413,0.655,-8.7,0.9,13.2,9.1,-15.8,-17.8,0.396343883,0.211584826,0.3497116,-0.822046571
813,2035706,622420,-0.634,-0.417,0.651,-7.8,0.9,12.7,9.1,-15.8,-17.8,0.396618549,0.211645863,0.349803156,-0.821893979
814,2038772,622420,-0.638,-0.421,0.651,-6.8,0.8,12.1,9.1,-15.8,-17.8,0.396862697,0.211676382,0.349894711,-0.821710868
815,2040934,622420,-0.642,-0.417,0.647,-5.6,0.6,11.5,9.3,-16.2,-17.8,0.397076327,0.211737419,0.34992523,-0.821558275
816,2043865,622430,-0.649,-0.409,0.659,-4.2,0.2,11,9.3,-16.2,-17.8,0.397289956,0.211798456,0.349955748,-0.821436201
817,2046381,622430,-0.649,-0.405,0.663,-2.8,-0.1,10.4,9.3,-16.2,-17.8,0.397503586,0.211828974,0.349955748,-0.821344646
818,2048541,622430,-0.649,-0.405,0.667,-1.3,-0.5,9.9,9.3,-16.2,-17.8,0.397686697,0.211890011,0.349955748,-0.821222571
819,2050734,622430,-0.649,-0.397,0.667,0.1,-0.7,9.5,9.2,-16.1,-17.9,0.397869808,0.211951048,0.349894711,-0.821161534
820,2054369,622440,-0.649,-0.397,0.655,1.4,-0.8,9.1,9.2,-16.1,-17.9,0.398022401,0.212012085,0.349803156,-0.821100497
821,2055888,622440,-0.645,-0.397,0.659,2.4,-1.1,8.6,9.2,-16.1,-17.9,0.398174993,0.212103641,0.3497116,-0.82103946
822,2058862,622440,-0.649,-0.397,0.663,3.3,-1.4,8.4,9.2,-16.1,-17.9,0.398327586,0.212134159,0.349620045,-0.821008942
823,2061198,622440,-0.649,-0.401,0.663,3.9,-1.7,8,9.3,-12,-16.5,0.398480178,0.212225715,0.349497971,-0.820978423
824,2063512,622450,-0.653,-0.393,0.663,4.3,-1.9,7.5,9.3,-12,-16.5,0.398602252,0.212286752,0.349345378,-0.820947905
825,2065738,622450,-0.653,-0.393,0.659,4.5,-2,7.1,9.3,-12,-16.5,0.398724326,0.212347789,0.349223304,-0.820917386
826,2068161,622450,-0.653,-0.385,0.663,4.5,-2.1,6.9,9.3,-12,-16.5,0.3988464,0.212378307,0.34910123,-0.820917386
827,2071704,622450,-0.653,-0.385,0.663,4.5,-2.1,6.9,9.3,-12,-16.5,0.3988464,0.212378307,0.34910123,-0.820917386
828,2073273,622460,-0.66,-0.361,0.663,3.5,-2.1,6.7,9.1,-13.7,-19.9,0.399182104,0.212836085,0.348826563,-0.820764794
829,2076904,622460,-0.656,-0.358,0.671,2.6,-2.1,6.6,9.1,-13.7,-19.9,0.399304178,0.212866604,0.348704489,-0.820734275
830,2078419,622460,-0.664,-0.353,0.663,1.7,-2.1,6.6,9.1,-13.7,-19.9,0.399426252,0.212897122,0.348643452,-0.820703757
831,2081391,622460,-0.66,-0.338,0.659,0.7,-2.2,6.6,9.1,-12.9,-19.7,0.399548326,0.212897122,0.348582415,-0.82064272
832,2083692,622470,-0.66,-0.342,0.663,-0.1,-2.5,6.7,9.1,-12.9,-19.7,0.399700919,0.212927641,0.348521378,-0.820612201
833,2085879,622470,-0.664,-0.338,0.659,-1,-2.7,6.8,9.1,-12.9,-19.7,0.399853511,0.212897122,0.34849086,-0.820551164
834,2088953,622470,-0.66,-0.342,0.663,-2,-3,6.8,9.1,-12.9,-19.7,0.400006104,0.212897122,0.348460341,-0.820490127
835,2091266,622470,-0.656,-0.358,0.663,-3,-3.1,6.8,9.6,-12,-19.7,0.400158696,0.212866604,0.348460341,-0.82042909
836,2093444,622480,-0.656,-0.362,0.667,-4,-3.1,6.8,9.6,-12,-19.7,0.400341807,0.212805567,0.348460341,-0.820337535
837,2095694,622480,-0.653,-0.369,0.671,-4.9,-3.1,6.9,9.6,-12,-19.7,0.4004944,0.212775048,0.34849086,-0.820245979
838,2098184,622480,-0.653,-0.377,0.667,-5.7,-3.1,6.9,9.6,-12,-19.7,0.400677511,0.212714011,0.348551897,-0.820154424
839,2101715,622480,-0.653,-0.393,0.663,-6.5,-3.1,7,9.1,-11.8,-19.6,0.400860622,0.212652974,0.348612934,-0.820062868
840,2103205,622490,-0.653,-0.389,0.663,-7.1,-3.1,7,9.1,-11.8,-19.6,0.401043733,0.212591937,0.348673971,-0.819971313
841,2106152,622490,-0.645,-0.385,0.667,-7.8,-3.1,7.2,9.1,-11.8,-19.6,0.401226844,0.2125309,0.348735008,-0.819849239
842,2109093,622490,-0.653,-0.393,0.671,-8.4,-2.9,7.3,9.1,-11.8,-19.6,0.401440474,0.212439344,0.348826563,-0.819757683
843,2110643,622490,-0.653,-0.385,0.667,-8.9,-2.8,7.5,9.1,-13.5,-18.1,0.401623585,0.212378307,0.348948637,-0.819635609
844,2113700,622500,-0.653,-0.385,0.671,-9.2,-2.4,7.7,9.1,-13.5,-18.1,0.401837214,0.21231727,0.349040193,-0.819483016
845,2115940,622500,-0.649,-0.381,0.671,-9.3,-2.2,8,9.1,-13.5,-18.1,0.402020325,0.212256233,0.349162267,-0.819360942
846,2118171,622500,-0.653,-0.381,0.679,-9.1,-2.1,8.2,9.1,-13.5,-18.1,0.402233955,0.212195196,0.349253822,-0.819238868
847,2120735,622500,-0.653,-0.381,0.679,-9.1,-2.1,8.2,9.1,-13.5,-18.1,0.402233955,0.212195196,0.349253822,-0.819238868
848,2125015,622510,-0.649,-0.381,0.69,-8.5,-2.1,8.9,9,-13.7,-18.3,0.402813807,0.212469863,0.349253822,-0.818872646
849,2127194,622510,-0.649,-0.385,0.686,-8.2,-2,9.2,9,-13.7,-18.3,0.403057955,0.212439344,0.349345378,-0.818750572
850,2128722,622510,-0.641,-0.401,0.694,-7.8,-1.9,9.7,9,-13.7,-18.3,0.403271584,0.212408826,0.349406415,-0.81859798
851,2130757,622510,-0.645,-0.401,0.69,-7.4,-1.8,10,8.7,-13.7,-17.6,0.403515732,0.212378307,0.349467452,-0.818475906
852,2134165,622520,-0.645,-0.401,0.686,-7,-1.8,10.3,8.7,-13.7,-17.6,0.403729362,0.212347789,0.349528489,-0.818323313
853,2135767,622520,-0.645,-0.397,0.686,-6.7,-1.7,10.6,8.7,-13.7,-17.6,0.40397351,0.212347789,0.349589526,-0.818201239
854,2138238,622520,-0.661,-0.393,0.687,-6.5,-1.4,11,8.7,-13.7,-17.6,0.404217658,0.212347789,0.349650563,-0.818048647
855,2141688,622520,-0.661,-0.385,0.687,-6.4,-1.2,11.3,8.8,-13.5,-16.7,0.404461806,0.212347789,0.3497116,-0.817926572
856,2143332,622530,-0.657,-0.381,0.686,-6.3,-1,11.4,8.8,-13.5,-16.7,0.404705954,0.212378307,0.349742119,-0.81777398
857,2146375,622530,-0.653,-0.373,0.694,-6.2,-1,11.6,8.8,-13.5,-16.7,0.404950102,0.212378307,0.349803156,-0.817621387
858,2148233,622530,-0.652,-0.369,0.69,-6.1,-0.9,11.8,8.8,-13.5,-16.7,0.40519425,0.212408826,0.349833674,-0.817468795
859,2150651,622530,-0.649,-0.37,0.69,-6,-0.9,12.2,9,-13.7,-15.6,0.405438398,0.212439344,0.349894711,-0.817316202
860,2153290,622540,-0.652,-0.362,0.694,-5.8,-0.7,12.6,9,-13.7,-15.6,0.405682546,0.212469863,0.34992523,-0.81716361
861,2156633,622540,-0.652,-0.354,0.694,-5.7,-0.6,12.9,9,-13.7,-15.6,0.405957213,0.212500381,0.349955748,-0.817011017
862,2158509,622540,-0.652,-0.35,0.694,-5.7,-0.4,13.1,9,-13.7,-15.6,0.40623188,0.2125309,0.350016785,-0.816858425
863,2160662,622540,-0.656,-0.346,0.694,-5.9,-0.3,13.1,8.9,-13.7,-20.4,0.406476028,0.212591937,0.350047304,-0.816705832
864,2163241,622550,-0.66,-0.342,0.69,-6,-0.1,13,8.9,-13.7,-20.4,0.406720176,0.212622456,0.350077822,-0.816522721
865,2167400,622550,-0.668,-0.338,0.694,-6.1,0,12.9,8.9,-13.7,-20.4,0.406994842,0.212683493,0.350138859,-0.816370128
866,2169603,622550,-0.668,-0.342,0.702,-6.1,0.1,12.8,8.9,-13.7,-20.4,0.407269509,0.212714011,0.350199896,-0.816217536
867,2171128,622550,-0.668,-0.342,0.702,-6.1,0.1,12.8,8.9,-13.7,-20.4,0.407269509,0.212714011,0.350199896,-0.816217536
868,2173331,622560,-0.668,-0.345,0.702,-5.8,0.4,12.6,9.2,-13.9,-17.6,0.408246101,0.213446455,0.349436934,-0.815851314
869,2176858,622560,-0.668,-0.345,0.702,-5.6,0.6,12.7,9.2,-13.9,-17.6,0.408490249,0.213507492,0.349467452,-0.815698721
870,2178393,622560,-0.668,-0.338,0.706,-5.5,0.6,12.8,9.2,-13.9,-17.6,0.408734397,0.213568529,0.349528489,-0.815546129
871,2180593,622560,-0.668,-0.342,0.71,-5.2,0.6,12.8,8.8,-13.8,-17.9,0.408978545,0.213629566,0.349559008,-0.815363018
872,2183200,622570,-0.668,-0.349,0.702,-4.8,0.4,12.9,8.8,-13.8,-17.9,0.409253212,0.213690603,0.349589526,-0.815210425
873,2186633,622570,-0.672,-0.353,0.695,-4.4,0.3,12.8,8.8,-13.8,-17.9,0.40949736,0.21375164,0.349620045,-0.815057833
874,2188120,622570,-0.672,-0.345,0.695,-4,0.3,12.7,8.8,-13.8,-17.9,0.409741508,0.213843196,0.349620045,-0.814935759
875,2190617,622570,-0.68,-0.345,0.703,-3.6,0.4,12.3,8.6,-13.8,-18.8,0.409955138,0.213904233,0.349650563,-0.814783166
876,2194211,622580,-0.68,-0.341,0.703,-3.3,0.5,11.9,8.6,-13.8,-18.8,0.410199286,0.21396527,0.349650563,-0.814661092
877,2195709,622580,-0.68,-0.341,0.703,-2.9,0.5,11.7,8.6,-13.8,-18.8,0.410412915,0.214056825,0.349650563,-0.814508499
878,2199230,622580,-0.676,-0.341,0.706,-2.6,0.5,11.5,8.6,-13.8,-18.8,0.410626545,0.214087344,0.349650563,-0.814386425
879,2200767,622580,-0.672,-0.345,0.71,-2.2,0.5,11.4,8.9,-13.9,-19.9,0.410840175,0.214209418,0.349650563,-0.814264351
880,2204340,622590,-0.676,-0.349,0.706,-1.8,0.6,11.4,8.9,-13.9,-19.9,0.411023286,0.214270455,0.349620045,-0.814142277
881,2205923,622590,-0.672,-0.353,0.71,-1.4,0.6,11.4,8.9,-13.9,-19.9,0.411236915,0.214362011,0.349620045,-0.814020203
882,2208197,622590,-0.676,-0.353,0.71,-1.1,0.6,11.2,8.9,-13.9,-19.9,0.411450545,0.214453566,0.349589526,-0.813928648
883,2211092,622590,-0.672,-0.357,0.702,-1,0.5,11,8.7,-13.5,-18.6,0.411633656,0.214545122,0.349559008,-0.813806574
884,2213461,622600,-0.672,-0.353,0.706,-0.9,0.5,10.9,8.7,-13.5,-18.6,0.411847285,0.214636677,0.349528489,-0.813715018
885,2216811,622600,-0.672,-0.349,0.702,-0.9,0.4,10.7,8.7,-13.5,-18.6,0.412030396,0.214697714,0.349497971,-0.813592944
886,2219271,622600,-0.676,-0.341,0.699,-1.1,0.3,10.6,8.7,-13.5,-18.6,0.412213507,0.21478927,0.349467452,-0.81347087
887,2221413,622600,-0.676,-0.341,0.699,-1.1,0.3,10.6,8.7,-13.5,-18.6,0.412213507,0.21478927,0.349467452,-0.81347087
888,2223661,622610,-0.668,-0.342,0.702,-1.4,0.3,10.6,8.7,-13.5,-18.6,0.412945952,0.215369121,0.348796045,-0.813257241
889,2226021,622610,-0.676,-0.345,0.702,-1.4,0.4,10.7,8.7,-13.5,-18.6,0.413129063,0.215430158,0.348765526,-0.813135166
890,2228216,622610,-0.672,-0.349,0.706,-1.4,0.4,11.1,8.7,-13.5,-18.6,0.413342692,0.215521714,0.348765526,-0.813043611
891,2231702,622610,-0.672,-0.357,0.702,-1.4,0.4,11.2,8.7,-13.5,-18.6,0.413556322,0.215582751,0.348735008,-0.812921537
892,2233982,622620,-0.66,-0.365,0.698,-1.7,0.2,11.2,8.7,-13.5,-18.6,0.413739433,0.215674306,0.348704489,-0.812799463
893,2235694,622620,-0.664,-0.373,0.702,-2,0.1,11,8.7,-13.5,-18.6,0.413953063,0.215735343,0.348704489,-0.812677389
894,2238689,622620,-0.66,-0.381,0.71,-2.3,0.1,10.7,8.7,-13.5,-18.6,0.414166692,0.215796381,0.348704489,-0.812555315
895,2241703,622620,-0.653,-0.393,0.71,-2.4,0.1,10.6,8.7,-13.5,-18.6,0.414349803,0.215857418,0.348673971,-0.812463759
896,2243173,622630,-0.649,-0.401,0.702,-2.4,0,10.5,8.7,-13.5,-18.6,0.414532914,0.215918455,0.348673971,-0.812341685
897,2246582,622630,-0.645,-0.405,0.702,-2.1,0,10.6,8.7,-13.5,-18.6,0.414746544,0.215979492,0.348673971,-0.812219611
898,2248695,622630,-0.641,-0.409,0.71,-1.7,-0.2,10.9,8.7,-13.5,-18.6,0.414960173,0.216040529,0.348643452,-0.812128056
899,2250766,622630,-0.641,-0.417,0.706,-1.1,-0.3,11.2,8.7,-13.5,-18.6,0.415173803,0.216101566,0.348612934,-0.812005982
900,2253198,622640,-0.637,-0.417,0.713,-0.6,-0.5,11.8,8.7,-13.5,-18.6,0.415387432,0.216193121,0.348551897,-0.811883908
901,2256540,622640,-0.637,-0.417,0.709,0,-0.4,12.4,8.7,-13.5,-18.6,0.415601062,0.216284677,0.34849086,-0.811792352
902,2258836,622640,-0.633,-0.425,0.709,0.6,-0.3,12.8,8.7,-13.5,-18.6,0.41584521,0.216376232,0.348429823,-0.811670278
903,2260790,622640,-0.637,-0.425,0.717,1.3,-0.2,13.3,7.6,-13.6,-18.5,0.41605884,0.216498306,0.348338267,-0.811578722
904,2263792,622650,-0.641,-0.421,0.717,1.8,-0.2,13.7,7.6,-13.6,-18.5,0.416302988,0.216589862,0.348216193,-0.811456648
905,2265945,622650,-0.637,-0.429,0.713,2.4,-0.3,14,7.6,-13.6,-18.5,0.416547136,0.216711936,0.348124638,-0.811334574
906,2269026,622650,-0.63,-0.441,0.709,2.8,-0.3,14.2,7.6,-13.6,-18.5,0.416791284,0.216864528,0.348002564,-0.811243019
907,2271119,622650,-0.63,-0.441,0.709,2.8,-0.3,14.2,7.6,-13.6,-18.5,0.416791284,0.216864528,0.348002564,-0.811243019
908,2273289,622660,-0.637,-0.429,0.717,3.6,-0.6,14.7,7.6,-13.6,-18.5,0.417157506,0.216498306,0.347697378,-0.811273537
909,2275780,622660,-0.637,-0.433,0.713,4,-0.7,15,7.6,-13.6,-18.5,0.417401654,0.216650899,0.347544786,-0.811181982
910,2278797,622660,-0.626,-0.437,0.697,4.1,-0.6,15.2,7.6,-13.6,-18.5,0.417645802,0.216803491,0.347392193,-0.811059908
911,2281368,622660,-0.626,-0.429,0.697,4.1,-0.6,15.1,7.6,-13.6,-18.5,0.417920469,0.216925565,0.347239601,-0.810968352
912,2283430,622670,-0.626,-0.429,0.701,4.3,-0.7,15.1,7.6,-13.6,-18.5,0.418164617,0.217078158,0.347087008,-0.810876797
913,2286369,622670,-0.622,-0.421,0.69,4.6,-0.9,15.6,7.6,-13.6,-18.5,0.418408765,0.21723075,0.346934416,-0.810754723
914,2288527,622670,-0.621,-0.417,0.693,5.1,-1.1,16.2,7.6,-13.6,-18.5,0.418683432,0.217352824,0.346751305,-0.810663167
915,2290768,622670,-0.621,-0.413,0.686,5.5,-1,16.8,7.6,-13.6,-18.5,0.418958098,0.217535936,0.346537675,-0.810541093
916,2293175,622680,-0.629,-0.413,0.686,5.7,-1,17.3,7.6,-13.6,-18.5,0.419263283,0.217688528,0.346354564,-0.810449538
917,2296271,622680,-0.629,-0.401,0.686,5.7,-0.9,17.6,7.6,-13.6,-18.5,0.41953795,0.217871639,0.346171453,-0.810327464
918,2298366,622680,-0.637,-0.393,0.69,5.8,-1,17.8,7.6,-13.6,-18.5,0.419843135,0.217993713,0.345957823,-0.81020539
919,2300801,622680,-0.641,-0.385,0.682,5.7,-1,17.8,7.6,-13.6,-18.5,0.42014832,0.218207343,0.345774712,-0.810083316
920,2303914,622690,-0.629,-0.386,0.682,5.4,-1,17.6,7.6,-13.6,-18.5,0.420392468,0.218359935,0.345591601,-0.80999176
921,2306209,622690,-0.637,-0.378,0.686,5,-1,17.5,7.6,-13.6,-18.5,0.420728172,0.218512528,0.34540849,-0.809869686
922,2308391,622690,-0.633,-0.382,0.682,4.8,-1.2,17.6,7.6,-13.6,-18.5,0.421033357,0.21866512,0.345225379,-0.809747612
923,2310723,622690,-0.633,-0.378,0.682,4.8,-1.5,17.7,7.2,-13.7,-18.3,0.421338542,0.218817713,0.345042268,-0.809625538
924,2314384,622700,-0.641,-0.378,0.69,4.9,-1.7,17.6,7.2,-13.7,-18.3,0.421643727,0.218970305,0.344859157,-0.809503464
925,2316732,622700,-0.637,-0.382,0.678,4.9,-1.8,17.5,7.2,-13.7,-18.3,0.421918394,0.219122898,0.344645528,-0.80938139
926,2318679,622700,-0.633,-0.386,0.67,4.6,-1.9,17,7.2,-13.7,-18.3,0.422223579,0.219244972,0.344492935,-0.809289834
927,2320781,622700,-0.633,-0.386,0.67,4.6,-1.9,17,7.2,-13.7,-18.3,0.422223579,0.219244972,0.344492935,-0.809289834
928,2324972,622710,-0.637,-0.386,0.666,3.9,-1.9,15.7,7.2,-13.7,-18.3,0.422772912,0.219428083,0.344096194,-0.809106723
929,2327074,622710,-0.633,-0.382,0.658,3.8,-2.1,15.1,7.2,-13.7,-18.3,0.423047578,0.219519639,0.343913083,-0.809015168
930,2329349,622710,-0.629,-0.386,0.666,4,-2.2,14.8,7.2,-13.7,-18.3,0.423322245,0.219641713,0.343760491,-0.808923612
931,2331618,622710,-0.629,-0.386,0.658,4.1,-2.5,14.6,7.2,-13.7,-18.3,0.423566393,0.219733268,0.343607898,-0.808832057
932,2333814,622720,-0.629,-0.378,0.662,4.3,-2.7,14.4,7.2,-13.7,-18.3,0.423810541,0.219824824,0.343424787,-0.808740501
933,2335802,622720,-0.629,-0.374,0.674,4.5,-2.9,14.3,7.2,-13.7,-18.3,0.424085208,0.219946898,0.343241676,-0.808648946
934,2338456,622720,-0.629,-0.374,0.67,4.6,-3,14,7.2,-13.7,-18.3,0.424298837,0.220038453,0.343058565,-0.80855739
935,2340711,622720,-0.629,-0.37,0.666,4.4,-3,13.7,7.2,-13.7,-18.3,0.424573504,0.220130009,0.342905972,-0.808496353
936,2344813,622730,-0.629,-0.362,0.658,4.2,-3,13.3,7.2,-13.7,-18.3,0.424817652,0.220191046,0.342722861,-0.808404798
937,2347072,622730,-0.633,-0.362,0.662,3.8,-3.2,12.9,7.2,-13.7,-18.3,0.425031281,0.220282601,0.342570269,-0.80834376
938,2348233,622730,-0.629,-0.362,0.662,3.4,-3.2,12.4,7.2,-13.7,-18.3,0.42527543,0.220343638,0.342417676,-0.808252205
939,2352357,622730,-0.629,-0.362,0.666,3.1,-3.3,11.9,7.2,-13.7,-18.3,0.425489059,0.220404675,0.342265084,-0.808191168
940,2354586,622740,-0.621,-0.366,0.67,2.9,-3.6,11.5,7.2,-13.7,-18.3,0.425702689,0.220465712,0.34214301,-0.808130131
941,2356778,622740,-0.621,-0.366,0.67,2.7,-3.7,11,7.2,-13.7,-18.3,0.425916318,0.220496231,0.341990417,-0.808069094
942,2359800,622740,-0.621,-0.362,0.67,2.5,-3.7,10.5,7.2,-13.7,-18.3,0.426099429,0.220526749,0.341868343,-0.808008057
943,2362175,622740,-0.621,-0.366,0.674,2.2,-3.5,10,5.8,-13.9,-18.2,0.426313059,0.220557268,0.341746269,-0.80794702
944,2364286,622750,-0.621,-0.366,0.678,1.9,-3.4,9.5,5.8,-13.9,-18.2,0.42649617,0.220587786,0.341624195,-0.807885983
945,2366534,622750,-0.621,-0.366,0.666,1.5,-3.4,9,5.8,-13.9,-18.2,0.426679281,0.220618305,0.34153264,-0.807824946
946,2368788,622750,-0.617,-0.362,0.666,1.1,-3.5,8.6,5.8,-13.9,-18.2,0.426831874,0.220618305,0.341441084,-0.807763909
947,2370850,622750,-0.617,-0.362,0.666,1.1,-3.5,8.6,5.8,-13.9,-18.2,0.426831874,0.220618305,0.341441084,-0.807763909
948,2373258,622760,-0.617,-0.351,0.666,0.1,-3.7,7.7,5.1,-14,-18.1,0.427167577,0.220404675,0.341196936,-0.807763909
949,2376761,622760,-0.621,-0.351,0.666,-0.2,-3.8,7.2,5.1,-14,-18.1,0.42732017,0.220374157,0.34110538,-0.80773339
950,2378466,622760,-0.62,-0.343,0.67,-0.7,-3.8,6.6,5.1,-14,-18.1,0.427472762,0.220374157,0.341074862,-0.807672353
951,2380680,622760,-0.616,-0.339,0.666,-1.1,-3.8,6.1,4.6,-14.1,-18.7,0.427625355,0.220343638,0.341013825,-0.807611316
952,2383129,622770,-0.616,-0.339,0.677,-1.6,-3.8,5.6,4.6,-14.1,-18.7,0.427747429,0.220282601,0.340983306,-0.807580798
953,2386447,622770,-0.616,-0.339,0.674,-2.1,-3.6,5.2,4.6,-14.1,-18.7,0.427869503,0.220252083,0.340952788,-0.807519761
954,2388699,622770,-0.613,-0.347,0.677,-2.6,-3.6,4.7,4.6,-14.1,-18.7,0.427991577,0.220191046,0.340952788,-0.807489242
955,2390885,622770,-0.609,-0.351,0.685,-2.9,-3.5,4.3,4.7,-14,-18.4,0.428113651,0.220130009,0.340952788,-0.807428205
956,2393253,622780,-0.613,-0.362,0.677,-3.2,-3.5,3.8,4.7,-14,-18.4,0.428205206,0.220068972,0.340952788,-0.807397687
957,2395658,622780,-0.613,-0.37,0.681,-3.5,-3.3,3.4,4.7,-14,-18.4,0.42832728,0.220007935,0.340983306,-0.807367168
958,2399209,622780,-0.613,-0.362,0.677,-3.8,-3.3,3,4.7,-14,-18.4,0.428418836,0.219916379,0.340983306,-0.807306131
959,2400648,622780,-0.621,-0.374,0.682,-4.1,-3.2,2.7,4.7,-14,-18.4,0.428510392,0.219855342,0.341013825,-0.807275613
960,2403199,622790,-0.625,-0.37,0.682,-4.4,-3,2.4,4.7,-14,-18.4,0.428601947,0.219763787,0.341074862,-0.807214576
961,2407499,622790,-0.629,-0.37,0.682,-4.6,-2.8,2.3,4.7,-14,-18.4,0.428693503,0.21970275,0.34110538,-0.807184057
962,2409787,622790,-0.629,-0.366,0.678,-4.8,-2.6,2.2,4.7,-14,-18.4,0.428785058,0.219611194,0.341166417,-0.807153539
963,2411972,622790,-0.637,-0.366,0.67,-4.9,-2.5,2,7,-12.2,-18.3,0.428846095,0.219550157,0.341196936,-0.807092502
964,2414158,622800,-0.633,-0.366,0.678,-5,-2.6,2,7,-12.2,-18.3,0.428937651,0.219458602,0.341257973,-0.807061983
965,2415851,622800,-0.633,-0.366,0.674,-4.8,-2.8,1.9,7,-12.2,-18.3,0.428998688,0.219397565,0.34131901,-0.807000946
966,2418183,622800,-0.633,-0.37,0.678,-4.5,-3,2,7,-12.2,-18.3,0.429090243,0.219306009,0.341349528,-0.806970428
967,2420716,622800,-0.633,-0.37,0.678,-4.5,-3,2,7,-12.2,-18.3,0.429090243,0.219306009,0.341349528,-0.806970428
968,2424164,622810,-0.641,-0.378,0.682,-3.7,-2.7,2.4,7.8,-12.2,-18.2,0.429242836,0.219031343,0.341349528,-0.806970428
969,2425646,622810,-0.637,-0.389,0.682,-3.3,-2.5,2.7,7.8,-12.2,-18.2,0.429334391,0.218970305,0.341380047,-0.806909391
970,2428921,622810,-0.645,-0.389,0.682,-3.1,-2.4,2.8,7.8,-12.2,-18.2,0.429425947,0.218939787,0.341410566,-0.806878872
971,2430917,622810,-0.645,-0.393,0.682,-2.8,-2.2,2.9,9,-12,-18.2,0.429486984,0.21887875,0.341410566,-0.806848354
972,2433899,622820,-0.649,-0.393,0.678,-2.6,-2.2,2.9,9,-12,-18.2,0.429578539,0.218848231,0.341410566,-0.806817835
973,2436129,622820,-0.653,-0.397,0.682,-2.3,-2.1,3,9,-12,-18.2,0.429670095,0.218817713,0.341441084,-0.806787317
974,2438420,622820,-0.649,-0.401,0.678,-2.1,-2.1,3.2,9,-12,-18.2,0.429731132,0.218787194,0.341441084,-0.806726279
975,2440914,622820,-0.649,-0.393,0.682,-1.9,-2.1,3.2,8.6,-12.3,-18.5,0.429822687,0.218756676,0.341441084,-0.806695761
976,2443203,622830,-0.649,-0.393,0.682,-1.4,-2.1,3.3,8.6,-12.3,-18.5,0.429914243,0.218726157,0.341410566,-0.806665242
977,2446967,622830,-0.649,-0.385,0.686,-1.1,-1.9,3.4,8.6,-12.3,-18.5,0.42997528,0.218695639,0.341410566,-0.806634724
978,2449070,622830,-0.649,-0.385,0.682,-0.8,-1.6,3.6,8.6,-12.3,-18.5,0.430066836,0.218695639,0.341380047,-0.806604205
979,2450956,622830,-0.649,-0.377,0.686,-0.7,-1.4,3.8,8.6,-12.3,-18.5,0.430158391,0.218695639,0.341380047,-0.806573687
980,2454432,622840,-0.657,-0.369,0.679,-0.6,-1.2,3.9,8.6,-12.3,-18.5,0.430219428,0.218695639,0.341349528,-0.806543168
981,2456154,622840,-0.657,-0.373,0.686,-0.7,-1,4.2,8.6,-12.3,-18.5,0.430310984,0.218695639,0.341349528,-0.806482131
982,2459430,622840,-0.649,-0.373,0.69,-0.7,-0.8,4.4,8.6,-12.3,-18.5,0.430402539,0.218695639,0.34131901,-0.806451613
983,2460962,622840,-0.652,-0.369,0.69,-0.7,-0.7,4.5,7.4,-13.9,-18.6,0.430494095,0.218726157,0.341288491,-0.806421094
984,2464208,622850,-0.656,-0.365,0.686,-0.7,-0.7,4.6,7.4,-13.9,-18.6,0.43058565,0.218726157,0.341288491,-0.806360057
985,2465765,622850,-0.653,-0.373,0.694,-0.7,-0.6,4.6,7.4,-13.9,-18.6,0.430677206,0.218756676,0.341257973,-0.806329539
986,2469360,622850,-0.652,-0.369,0.69,-0.9,-0.5,4.6,7.4,-13.9,-18.6,0.430768761,0.218756676,0.341257973,-0.806268502
987,2471491,622850,-0.652,-0.369,0.69,-0.9,-0.5,4.6,7.4,-13.9,-18.6,0.430768761,0.218756676,0.341257973,-0.806268502
988,2473434,622860,-0.649,-0.37,0.682,-1.1,-0.1,4.8,7.1,-14.4,-18.3,0.430982391,0.218756676,0.341166417,-0.806207465
989,2475690,622860,-0.648,-0.362,0.682,-1.2,0,4.9,7.1,-14.4,-18.3,0.431073946,0.218787194,0.341166417,-0.806146428
990,2478736,622860,-0.652,-0.362,0.686,-1.2,0.3,4.9,7.1,-14.4,-18.3,0.431165502,0.218817713,0.341166417,-0.806085391
991,2481802,622860,-0.652,-0.358,0.686,-1.2,0.5,4.9,7.3,-15.1,-18.5,0.431226539,0.218848231,0.341166417,-0.806024354
992,2483335,622870,-0.652,-0.354,0.682,-1.3,0.6,5,7.3,-15.1,-18.5,0.431318094,0.21887875,0.341196936,-0.805963317
993,2485654,622870,-0.652,-0.354,0.69,-1.5,0.8,4.9,7.3,-15.1,-18.5,0.43140965,0.218939787,0.341196936,-0.80590228
994,2488602,622870,-0.656,-0.354,0.694,-1.7,1,4.6,7.3,-15.1,-18.5,0.431501205,0.218970305,0.341227454,-0.805841243
995,2490824,622870,-0.656,-0.358,0.69,-1.8,1.1,4.4,7.3,-15.8,-18.7,0.431592761,0.218970305,0.341227454,-0.805780206
996,2493277,622880,-0.656,-0.354,0.686,-1.8,1.1,4.3,7.3,-15.8,-18.7,0.431653798,0.219031343,0.341257973,-0.805719169
997,2496679,622880,-0.656,-0.358,0.686,-1.9,0.9,4.3,7.3,-15.8,-18.7,0.431745354,0.219061861,0.341288491,-0.805658132
998,2498167,622880,-0.652,-0.362,0.69,-2,0.8,4.2,7.3,-15.8,-18.7,0.431806391,0.21909238,0.34131901,-0.805597095
999,2501159,622880,-0.652,-0.354,0.698,-2,0.6,4.1,7.3,-15.8,-18.7,0.431897946,0.219122898,0.34131901,-0.805536058
1000,2504127,622890,-0.652,-0.362,0.69,-1.9,0.6,3.9,7.3,-15.8,-18.7,0.431958983,0.219122898,0.341349528,-0.805475021
1001,2505748,622890,-0.648,-0.358,0.694,-1.8,0.6,3.8,7.3,-15.8,-18.7,0.432050539,0.219153417,0.341380047,-0.805444502
1002,2508161,622890,-0.648,-0.358,0.694,-1.7,0.7,3.8,7.3,-15.8,-18.7,0.432111576,0.219183935,0.341380047,-0.805383465
1003,2511038,622890,-0.652,-0.366,0.686,-1.6,0.9,3.6,7.6,-15,-19.1,0.432172613,0.219214454,0.341410566,-0.805322428
1004,2513943,622900,-0.652,-0.362,0.686,-1.6,1,3.3,7.6,-15,-19.1,0.43223365,0.219244972,0.341441084,-0.80529191
1005,2516322,622900,-0.652,-0.358,0.686,-1.7,1.1,3.2,7.6,-15,-19.1,0.432294687,0.219275491,0.341441084,-0.805230873
1006,2518700,622900,-0.648,-0.362,0.682,-1.8,1.1,3,7.6,-15,-19.1,0.432355724,0.219306009,0.341471603,-0.805200354
1007,2520849,622900,-0.648,-0.362,0.682,-1.8,1.1,3,7.6,-15,-19.1,0.432355724,0.219306009,0.341471603,-0.805200354
1008,2524498,622910,-0.652,-0.354,0.678,-1.8,0.9,2.9,7.4,-15.1,-19.5,0.432508316,0.219275491,0.341380047,-0.805139317
1009,2525826,622910,-0.656,-0.354,0.682,-1.7,0.9,2.8,7.4,-15.1,-19.5,0.432538835,0.219306009,0.341410566,-0.805108798
1010,2528922,622910,-0.652,-0.354,0.678,-1.7,0.9,2.7,7.4,-15.1,-19.5,0.432599872,0.219306009,0.341441084,-0.80507828
1011,2531275,622910,-0.656,-0.358,0.675,-1.6,0.9,2.5,7.6,-14,-19.4,0.43263039,0.219336528,0.341441084,-0.805017243
1012,2533245,622920,-0.652,-0.358,0.671,-1.6,0.9,2.5,7.6,-14,-19.4,0.432691427,0.219367046,0.341471603,-0.804986724
1013,2536414,622920,-0.652,-0.35,0.671,-1.7,0.9,2.3,7.6,-14,-19.4,0.432721946,0.219367046,0.341502121,-0.804956206
1014,2538116,622920,-0.652,-0.354,0.671,-1.8,0.9,2.1,7.6,-14,-19.4,0.432782983,0.219397565,0.34153264,-0.804895169
1015,2541685,622920,-0.656,-0.358,0.675,-1.9,0.9,1.9,7.5,-13.2,-19.4,0.432813501,0.219397565,0.341563158,-0.80486465
1016,2543295,622930,-0.656,-0.358,0.667,-1.8,0.9,1.9,7.5,-13.2,-19.4,0.43284402,0.219428083,0.341593677,-0.804834132
1017,2546244,622930,-0.652,-0.358,0.671,-1.7,0.8,1.8,7.5,-13.2,-19.4,0.432874538,0.219428083,0.341624195,-0.804803613
1018,2548229,622930,-0.652,-0.358,0.671,-1.5,0.8,1.7,7.5,-13.2,-19.4,0.432905057,0.219428083,0.341654714,-0.804773095
1019,2552184,622930,-0.652,-0.358,0.678,-1.4,0.7,1.7,7.5,-13.2,-19.4,0.432935575,0.219458602,0.341685232,-0.804742576
1020,2553777,622940,-0.657,-0.365,0.671,-1.1,0.6,1.6,7.5,-13.2,-19.4,0.432966094,0.219458602,0.341715751,-0.804712058
1021,2555854,622940,-0.657,-0.369,0.671,-0.8,0.4,1.5,7.5,-13.2,-19.4,0.432996612,0.21948912,0.341715751,-0.804681539
1022,2558911,622940,-0.653,-0.377,0.671,-0.5,0.2,1.6,7.5,-13.2,-19.4,0.433027131,0.21948912,0.341715751,-0.804651021
1023,2561906,622940,-0.653,-0.373,0.671,-0.1,0,1.6,7.7,-13.8,-19.2,0.433057649,0.21948912,0.341715751,-0.804651021
1024,2563437,622950,-0.649,-0.381,0.671,0.1,-0.1,1.6,7.7,-13.8,-19.2,0.433088168,0.219519639,0.341715751,-0.804620502
1025,2565942,622950,-0.653,-0.385,0.675,0.5,-0.2,1.7,7.7,-13.8,-19.2,0.433118686,0.219519639,0.341685232,-0.804620502
1026,2568534,622950,-0.649,-0.393,0.675,0.8,-0.3,1.7,7.7,-13.8,-19.2,0.433149205,0.219550157,0.341654714,-0.804620502
1027,2570698,622950,-0.649,-0.393,0.675,0.8,-0.3,1.7,7.7,-13.8,-19.2,0.433149205,0.219550157,0.341654714,-0.804620502
1028,2573915,622960,-0.649,-0.393,0.682,0.9,-0.4,1.9,7.5,-13.8,-19.2,0.433088168,0.219397565,0.341807306,-0.804620502
