sample_index,elapsed_us,device_time_ms,acc_x_g,acc_y_g,acc_z_g,gyro_x_dps,gyro_y_dps,gyro_z_dps,mag_x_ut,mag_y_ut,mag_z_ut,quat_w,quat_x,quat_y,quat_z
0,5084,22340,0.981,-0.038,0.22,-1.7,-0.5,0.1,-5,23.6,-20.1,0.158665731,-0.620014039,-0.0962248604,-0.76229133
1,7019,22340,0.981,-0.038,0.22,-1.7,-0.5,0.1,-5,23.6,-20.1,0.158665731,-0.620014039,-0.0962248604,-0.76229133
2,9115,22340,0.981,-0.03,0.216,-1.5,0.1,0,-4.7,23.7,-20.1,0.158391064,-0.61998352,-0.0962553789,-0.762382885
3,11300,22350,0.981,-0.03,0.216,-1.5,0.1,0,-4.7,23.7,-20.1,0.158391064,-0.61998352,-0.0962553789,-0.762382885
4,13559,22350,0.981,-0.03,0.216,-1.5,0.1,0,-4.7,23.7,-20.1,0.158391064,-0.61998352,-0.0962553789,-0.762382885
5,16037,22350,0.981,-0.03,0.216,-1.5,0.1,0,-4.7,23.7,-20.1,0.158391064,-0.61998352,-0.0962553789,-0.762382885
6,20511,22350,0.981,-0.03,0.216,-1.5,0.1,0,-4.7,23.7,-20.1,0.158391064,-0.61998352,-0.0962553789,-0.762382885
7,22770,22360,0.981,-0.03,0.216,-1.5,0.1,0,-4.7,23.7,-20.1,0.158391064,-0.61998352,-0.0962553789,-0.762382885
8,25048,22360,0.981,-0.03,0.216,-1.5,0.1,0,-4.7,23.7,-20.1,0.158391064,-0.61998352,-0.0962553789,-0.762382885
9,27325,22360,0.981,-0.03,0.216,-1.5,0.1,0,-4.7,23.7,-20.1,0.158391064,-0.61998352,-0.0962553789,-0.762382885
10,29569,22360,0.981,-0.03,0.216,-1.5,0.1,0,-4.7,23.7,-20.1,0.158391064,-0.61998352,-0.0962553789,-0.762382885
11,31537,22370,0.981,-0.03,0.216,-1.5,0.1,0,-4.7,23.7,-20.1,0.158391064,-0.61998352,-0.0962553789,-0.762382885
12,35513,22370,0.981,-0.03,0.216,-1.5,0.1,0,-4.7,23.7,-20.1,0.158391064,-0.61998352,-0.0962553789,-0.762382885
13,37898,22370,0.973,-0.041,0.217,-2.1,0.9,-0.7,-5.1,24.2,-20.4,0.158085879,-0.61998352,-0.0960112308,-0.762474441
14,40061,22370,0.973,-0.041,0.217,-2.1,0.9,-0.7,-5.1,24.2,-20.4,0.158085879,-0.61998352,-0.0960112308,-0.762474441
15,42032,22380,0.973,-0.041,0.217,-2.1,0.9,-0.7,-5.1,24.2,-20.4,0.158085879,-0.61998352,-0.0960112308,-0.762474441
16,44669,22380,0.973,-0.041,0.217,-2.1,0.9,-0.7,-5.1,24.2,-20.4,0.158085879,-0.61998352,-0.0960112308,-0.762474441
17,46533,22380,0.973,-0.041,0.217,-2.1,0.9,-0.7,-5.1,24.2,-20.4,0.158085879,-0.61998352,-0.0960112308,-0.762474441
18,48819,22380,0.973,-0.041,0.217,-2.1,0.9,-0.7,-5.1,24.2,-20.4,0.158085879,-0.61998352,-0.0960112308,-0.762474441
19,51125,22390,0.973,-0.041,0.217,-2.1,0.9,-0.7,-5.1,24.2,-20.4,0.158085879,-0.61998352,-0.0960112308,-0.762474441
20,53707,22390,0.973,-0.041,0.217,-2.1,0.9,-0.7,-5.1,24.2,-20.4,0.158085879,-0.61998352,-0.0960112308,-0.762474441
21,55949,22390,0.973,-0.041,0.217,-2.1,0.9,-0.7,-5.1,24.2,-20.4,0.158085879,-0.61998352,-0.0960112308,-0.762474441
22,60492,22390,0.973,-0.041,0.217,-2.1,0.9,-0.7,-5.1,24.2,-20.4,0.158085879,-0.61998352,-0.0960112308,-0.762474441
23,62932,22400,0.973,-0.041,0.217,-2.1,0.9,-0.7,-5.1,24.2,-20.4,0.158085879,-0.61998352,-0.0960112308,-0.762474441
24,65661,22400,0.973,-0.041,0.217,-2.1,0.9,-0.7,-5.1,24.2,-20.4,0.158085879,-0.61998352,-0.0960112308,-0.762474441
25,68023,22400,0.973,-0.041,0.217,-2.1,0.9,-0.7,-5.1,24.2,-20.4,0.158085879,-0.61998352,-0.0960112308,-0.762474441
26,70158,22400,0.969,-0.065,0.217,-3.7,1.6,-2.1,-4.1,23.1,-19.9,0.157200842,-0.619739372,-0.0955229347,-0.762932218
27,72251,22410,0.969,-0.065,0.217,-3.7,1.6,-2.1,-4.1,23.1,-19.9,0.157200842,-0.619739372,-0.0955229347,-0.762932218
28,74244,22410,0.969,-0.065,0.217,-3.7,1.6,-2.1,-4.1,23.1,-19.9,0.157200842,-0.619739372,-0.0955229347,-0.762932218
29,77623,22410,0.969,-0.065,0.217,-3.7,1.6,-2.1,-4.1,23.1,-19.9,0.157200842,-0.619739372,-0.0955229347,-0.762932218
30,80841,22410,0.969,-0.065,0.217,-3.7,1.6,-2.1,-4.1,23.1,-19.9,0.157200842,-0.619739372,-0.0955229347,-0.762932218
31,81251,22420,0.969,-0.065,0.217,-3.7,1.6,-2.1,-4.1,23.1,-19.9,0.157200842,-0.619739372,-0.0955229347,-0.762932218
32,83967,22420,0.969,-0.065,0.217,-3.7,1.6,-2.1,-4.1,23.1,-19.9,0.157200842,-0.619739372,-0.0955229347,-0.762932218
33,87080,22420,0.969,-0.065,0.217,-3.7,1.6,-2.1,-4.1,23.1,-19.9,0.157200842,-0.619739372,-0.0955229347,-0.762932218
34,89027,22420,0.969,-0.065,0.217,-3.7,1.6,-2.1,-4.1,23.1,-19.9,0.157200842,-0.619739372,-0.0955229347,-0.762932218
35,91214,22430,0.969,-0.065,0.217,-3.7,1.6,-2.1,-4.1,23.1,-19.9,0.157200842,-0.619739372,-0.0955229347,-0.762932218
36,93715,22430,0.969,-0.065,0.217,-3.7,1.6,-2.1,-4.1,23.1,-19.9,0.157200842,-0.619739372,-0.0955229347,-0.762932218
37,96487,22430,0.969,-0.065,0.217,-3.7,1.6,-2.1,-4.1,23.1,-19.9,0.157200842,-0.619739372,-0.0955229347,-0.762932218
38,98647,22430,0.969,-0.065,0.217,-3.7,1.6,-2.1,-4.1,23.1,-19.9,0.157200842,-0.619739372,-0.0955229347,-0.762932218
39,101256,22440,0.969,-0.065,0.217,-3.7,1.6,-2.1,-4.1,23.1,-19.9,0.157200842,-0.619739372,-0.0955229347,-0.762932218
40,103976,22440,0.969,-0.065,0.217,-3.7,1.6,-2.1,-4.1,23.1,-19.9,0.157200842,-0.619739372,-0.0955229347,-0.762932218
41,107320,22440,0.969,-0.065,0.217,-3.7,1.6,-2.1,-4.1,23.1,-19.9,0.157200842,-0.619739372,-0.0955229347,-0.762932218
42,109159,22440,0.969,-0.065,0.217,-3.7,1.6,-2.1,-4.1,23.1,-19.9,0.157200842,-0.619739372,-0.0955229347,-0.762932218
43,111461,22450,0.969,-0.065,0.217,-3.7,1.6,-2.1,-4.1,23.1,-19.9,0.157200842,-0.619739372,-0.0955229347,-0.762932218
44,115446,22450,0.969,-0.065,0.217,-3.7,1.6,-2.1,-4.1,23.1,-19.9,0.157200842,-0.619739372,-0.0955229347,-0.762932218
45,117675,22450,0.977,-0.034,0.22,-2,-0.1,-1.9,-5.4,24.4,-20.3,0.155827509,-0.619647816,-0.0952177496,-0.763328959
46,119788,22450,0.977,-0.034,0.22,-2,-0.1,-1.9,-5.4,24.4,-20.3,0.155827509,-0.619647816,-0.0952177496,-0.763328959
47,121469,22460,0.977,-0.034,0.22,-2,-0.1,-1.9,-5.4,24.4,-20.3,0.155827509,-0.619647816,-0.0952177496,-0.763328959
48,123908,22460,0.977,-0.034,0.22,-2,-0.1,-1.9,-5.4,24.4,-20.3,0.155827509,-0.619647816,-0.0952177496,-0.763328959
49,126317,22460,0.977,-0.034,0.22,-2,-0.1,-1.9,-5.4,24.4,-20.3,0.155827509,-0.619647816,-0.0952177496,-0.763328959
50,129798,22460,0.977,-0.034,0.22,-2,-0.1,-1.9,-5.4,24.4,-20.3,0.155827509,-0.619647816,-0.0952177496,-0.763328959
51,132675,22470,0.977,-0.034,0.22,-2,-0.1,-1.9,-5.4,24.4,-20.3,0.155827509,-0.619647816,-0.0952177496,-0.763328959
52,134828,22470,0.977,-0.034,0.22,-2,-0.1,-1.9,-5.4,24.4,-20.3,0.155827509,-0.619647816,-0.0952177496,-0.763328959
53,136450,22470,0.977,-0.034,0.22,-2,-0.1,-1.9,-5.4,24.4,-20.3,0.155827509,-0.619647816,-0.0952177496,-0.763328959
54,138828,22470,0.977,-0.034,0.22,-2,-0.1,-1.9,-5.4,24.4,-20.3,0.155827509,-0.619647816,-0.0952177496,-0.763328959
55,141166,22480,0.977,-0.034,0.22,-2,-0.1,-1.9,-5.4,24.4,-20.3,0.155827509,-0.619647816,-0.0952177496,-0.763328959
56,143739,22480,0.977,-0.034,0.22,-2,-0.1,-1.9,-5.4,24.4,-20.3,0.155827509,-0.619647816,-0.0952177496,-0.763328959
57,146287,22480,0.977,-0.034,0.22,-2,-0.1,-1.9,-5.4,24.4,-20.3,0.155827509,-0.619647816,-0.0952177496,-0.763328959
58,148577,22480,0.977,-0.034,0.22,-2,-0.1,-1.9,-5.4,24.4,-20.3,0.155827509,-0.619647816,-0.0952177496,-0.763328959
59,151143,22490,0.977,-0.034,0.22,-2,-0.1,-1.9,-5.4,24.4,-20.3,0.155827509,-0.619647816,-0.0952177496,-0.763328959
60,153530,22490,0.977,-0.034,0.22,-2,-0.1,-1.9,-5.4,24.4,-20.3,0.155827509,-0.619647816,-0.0952177496,-0.763328959
61,157923,22490,0.977,-0.034,0.22,-2,-0.1,-1.9,-5.4,24.4,-20.3,0.155827509,-0.619647816,-0.0952177496,-0.763328959
62,160245,22490,0.977,-0.034,0.22,-2,-0.1,-1.9,-5.4,24.4,-20.3,0.155827509,-0.619647816,-0.0952177496,-0.763328959
63,162464,22500,0.977,-0.034,0.22,-2,-0.1,-1.9,-5.4,24.4,-20.3,0.155827509,-0.619647816,-0.0952177496,-0.763328959
64,164636,22500,0.977,-0.034,0.22,-2,-0.1,-1.9,-5.4,24.4,-20.3,0.155827509,-0.619647816,-0.0952177496,-0.763328959
65,166508,22500,0.977,-0.034,0.22,-2,-0.1,-1.9,-5.4,24.4,-20.3,0.155827509,-0.619647816,-0.0952177496,-0.763328959
66,168622,22500,0.977,-0.034,0.22,-2,-0.1,-1.9,-5.4,24.4,-20.3,0.155827509,-0.619647816,-0.0952177496,-0.763328959
67,172184,22510,0.977,-0.034,0.22,-2,-0.1,-1.9,-5.4,24.4,-20.3,0.155827509,-0.619647816,-0.0952177496,-0.763328959
68,174599,22510,0.977,-0.034,0.22,-2,-0.1,-1.9,-5.4,24.4,-20.3,0.155827509,-0.619647816,-0.0952177496,-0.763328959
69,178243,22510,0.977,-0.034,0.22,-2,-0.1,-1.9,-5.4,24.4,-20.3,0.155827509,-0.619647816,-0.0952177496,-0.763328959
70,178721,22510,0.977,-0.053,0.224,-2.7,0.6,-2.1,-4.5,23.4,-20.3,0.154057436,-0.61937315,-0.094882046,-0.763939329
71,181566,22520,0.977,-0.053,0.224,-2.7,0.6,-2.1,-4.5,23.4,-20.3,0.154057436,-0.61937315,-0.094882046,-0.763939329
72,183783,22520,0.977,-0.053,0.224,-2.7,0.6,-2.1,-4.5,23.4,-20.3,0.154057436,-0.61937315,-0.094882046,-0.763939329
73,186202,22520,0.977,-0.053,0.224,-2.7,0.6,-2.1,-4.5,23.4,-20.3,0.154057436,-0.61937315,-0.094882046,-0.763939329
74,188660,22520,0.977,-0.053,0.224,-2.7,0.6,-2.1,-4.5,23.4,-20.3,0.154057436,-0.61937315,-0.094882046,-0.763939329
75,191023,22530,0.977,-0.053,0.224,-2.7,0.6,-2.1,-4.5,23.4,-20.3,0.154057436,-0.61937315,-0.094882046,-0.763939329
76,193634,22530,0.977,-0.053,0.224,-2.7,0.6,-2.1,-4.5,23.4,-20.3,0.154057436,-0.61937315,-0.094882046,-0.763939329
77,197594,22530,0.977,-0.053,0.224,-2.7,0.6,-2.1,-4.5,23.4,-20.3,0.154057436,-0.61937315,-0.094882046,-0.763939329
78,199879,22530,0.977,-0.053,0.224,-2.7,0.6,-2.1,-4.5,23.4,-20.3,0.154057436,-0.61937315,-0.094882046,-0.763939329
79,201567,22540,0.977,-0.053,0.224,-2.7,0.6,-2.1,-4.5,23.4,-20.3,0.154057436,-0.61937315,-0.094882046,-0.763939329
80,203790,22540,0.977,-0.053,0.224,-2.7,0.6,-2.1,-4.5,23.4,-20.3,0.154057436,-0.61937315,-0.094882046,-0.763939329
81,206227,22540,0.977,-0.053,0.224,-2.7,0.6,-2.1,-4.5,23.4,-20.3,0.154057436,-0.61937315,-0.094882046,-0.763939329
82,209176,22540,0.977,-0.053,0.224,-2.7,0.6,-2.1,-4.5,23.4,-20.3,0.154057436,-0.61937315,-0.094882046,-0.763939329
83,211317,22550,0.977,-0.053,0.224,-2.7,0.6,-2.1,-4.5,23.4,-20.3,0.154057436,-0.61937315,-0.094882046,-0.763939329
84,213682,22550,0.977,-0.053,0.224,-2.7,0.6,-2.1,-4.5,23.4,-20.3,0.154057436,-0.61937315,-0.094882046,-0.763939329
85,216265,22550,0.977,-0.053,0.224,-2.7,0.6,-2.1,-4.5,23.4,-20.3,0.154057436,-0.61937315,-0.094882046,-0.763939329
86,218471,22550,0.977,-0.053,0.224,-2.7,0.6,-2.1,-4.5,23.4,-20.3,0.154057436,-0.61937315,-0.094882046,-0.763939329
87,223040,22560,0.977,-0.053,0.224,-2.7,0.6,-2.1,-4.5,23.4,-20.3,0.154057436,-0.61937315,-0.094882046,-0.763939329
88,225150,22560,0.977,-0.053,0.224,-2.7,0.6,-2.1,-4.5,23.4,-20.3,0.154057436,-0.61937315,-0.094882046,-0.763939329
89,227447,22560,0.977,-0.053,0.224,-2.7,0.6,-2.1,-4.5,23.4,-20.3,0.154057436,-0.61937315,-0.094882046,-0.763939329
90,229112,22560,0.977,-0.053,0.224,-2.7,0.6,-2.1,-4.5,23.4,-20.3,0.154057436,-0.61937315,-0.094882046,-0.763939329
91,232130,22570,0.977,-0.053,0.224,-2.7,0.6,-2.1,-4.5,23.4,-20.3,0.154057436,-0.61937315,-0.094882046,-0.763939329
92,233901,22570,0.977,-0.053,0.224,-2.7,0.6,-2.1,-4.5,23.4,-20.3,0.154057436,-0.61937315,-0.094882046,-0.763939329
93,236032,22570,0.977,-0.053,0.224,-2.7,0.6,-2.1,-4.5,23.4,-20.3,0.154057436,-0.61937315,-0.094882046,-0.763939329
94,238883,22570,0.977,-0.053,0.224,-2.7,0.6,-2.1,-4.5,23.4,-20.3,0.154057436,-0.61937315,-0.094882046,-0.763939329
95,241438,22580,0.977,-0.053,0.224,-2.7,0.6,-2.1,-4.5,23.4,-20.3,0.154057436,-0.61937315,-0.094882046,-0.763939329
96,244084,22580,0.977,-0.053,0.224,-2.7,0.6,-2.1,-4.5,23.4,-20.3,0.154057436,-0.61937315,-0.094882046,-0.763939329
97,246945,22580,0.977,-0.053,0.224,-2.7,0.6,-2.1,-4.5,23.4,-20.3,0.154057436,-0.61937315,-0.094882046,-0.763939329
98,248959,22580,0.977,-0.053,0.224,-2.7,0.6,-2.1,-4.5,23.4,-20.3,0.154057436,-0.61937315,-0.094882046,-0.763939329
99,251286,22590,0.977,-0.053,0.224,-2.7,0.6,-2.1,-4.5,23.4,-20.3,0.154057436,-0.61937315,-0.094882046,-0.763939329
100,255351,22590,0.969,-0.045,0.213,-2,0.6,-1.5,-4.1,23.9,-20.2,0.152562029,-0.619312113,-0.0946989349,-0.764305551
101,257662,22590,0.969,-0.045,0.217,-2.2,0.5,-1.5,-4.7,23.8,-20,0.152562029,-0.619251076,-0.0946989349,-0.764366588
102,259743,22590,0.969,-0.045,0.217,-2.2,0.5,-1.5,-4.7,23.8,-20,0.152562029,-0.619251076,-0.0946989349,-0.764366588
103,261596,22600,0.969,-0.045,0.217,-2.2,0.5,-1.5,-4.7,23.8,-20,0.152562029,-0.619251076,-0.0946989349,-0.764366588
104,263670,22600,0.969,-0.045,0.217,-2.2,0.5,-1.5,-4.7,23.8,-20,0.152562029,-0.619251076,-0.0946989349,-0.764366588
105,266348,22600,0.969,-0.045,0.217,-2.2,0.5,-1.5,-4.7,23.8,-20,0.152562029,-0.619251076,-0.0946989349,-0.764366588
106,270725,22600,0.969,-0.045,0.217,-2.2,0.5,-1.5,-4.7,23.8,-20,0.152562029,-0.619251076,-0.0946989349,-0.764366588
107,271174,22610,0.969,-0.053,0.221,-2.5,0.6,-1.3,-4.7,23.8,-20,0.152226325,-0.619220557,-0.0945463424,-0.764488662
108,273706,22610,0.969,-0.053,0.221,-2.5,0.6,-1.3,-4.7,23.8,-20,0.152226325,-0.619220557,-0.0945463424,-0.764488662
109,276019,22610,0.969,-0.053,0.221,-2.5,0.6,-1.3,-4.7,23.8,-20,0.152226325,-0.619220557,-0.0945463424,-0.764488662
110,278776,22610,0.969,-0.053,0.221,-2.5,0.6,-1.3,-4.7,23.8,-20,0.152226325,-0.619220557,-0.0945463424,-0.764488662
111,282589,22620,0.969,-0.053,0.221,-2.5,0.6,-1.3,-4.7,23.8,-20,0.152226325,-0.619220557,-0.0945463424,-0.764488662
112,284856,22620,0.969,-0.053,0.221,-2.5,0.6,-1.3,-4.7,23.8,-20,0.152226325,-0.619220557,-0.0945463424,-0.764488662
113,287401,22620,0.969,-0.053,0.221,-2.5,0.6,-1.3,-4.7,23.8,-20,0.152226325,-0.619220557,-0.0945463424,-0.764488662
114,290365,22620,0.977,-0.049,0.228,-1.9,-0.3,-1.3,-4.3,24.2,-20.3,0.151860103,-0.619220557,-0.0943937498,-0.764549699
115,293164,22630,0.977,-0.049,0.228,-1.9,-0.3,-1.3,-4.3,24.2,-20.3,0.151860103,-0.619220557,-0.0943937498,-0.764549699
116,293539,22630,0.977,-0.049,0.228,-1.9,-0.3,-1.3,-4.3,24.2,-20.3,0.151860103,-0.619220557,-0.0943937498,-0.764549699
117,297625,22630,0.977,-0.049,0.228,-1.9,-0.3,-1.3,-4.3,24.2,-20.3,0.151860103,-0.619220557,-0.0943937498,-0.764549699
118,299773,22630,0.977,-0.049,0.228,-1.9,-0.3,-1.3,-4.3,24.2,-20.3,0.151860103,-0.619220557,-0.0943937498,-0.764549699
119,302700,22640,0.977,-0.049,0.228,-1.9,-0.3,-1.3,-4.3,24.2,-20.3,0.151860103,-0.619220557,-0.0943937498,-0.764549699
120,304852,22640,0.977,-0.049,0.228,-1.9,-0.3,-1.3,-4.3,24.2,-20.3,0.151860103,-0.619220557,-0.0943937498,-0.764549699
121,306512,22640,0.977,-0.049,0.228,-1.9,-0.3,-1.3,-4.3,24.2,-20.3,0.151860103,-0.619220557,-0.0943937498,-0.764549699
122,308942,22640,0.977,-0.049,0.228,-1.9,-0.3,-1.3,-4.3,24.2,-20.3,0.151860103,-0.619220557,-0.0943937498,-0.764549699
123,311194,22650,0.977,-0.049,0.228,-1.9,-0.3,-1.3,-4.3,24.2,-20.3,0.151860103,-0.619220557,-0.0943937498,-0.764549699
124,315237,22650,0.977,-0.049,0.228,-1.9,-0.3,-1.3,-4.3,24.2,-20.3,0.151860103,-0.619220557,-0.0943937498,-0.764549699
125,318319,22650,0.973,-0.034,0.22,-0.1,-0.6,-0.6,-4.1,24.3,-19.9,0.151554918,-0.619251076,-0.0943327128,-0.764580218
126,318864,22650,0.973,-0.034,0.22,-0.1,-0.6,-0.6,-4.1,24.3,-19.9,0.151554918,-0.619251076,-0.0943327128,-0.764580218
127,321602,22660,0.973,-0.034,0.22,-0.1,-0.6,-0.6,-4.1,24.3,-19.9,0.151554918,-0.619251076,-0.0943327128,-0.764580218
128,323919,22660,0.973,-0.034,0.22,-0.1,-0.6,-0.6,-4.1,24.3,-19.9,0.151554918,-0.619251076,-0.0943327128,-0.764580218
129,326286,22660,0.973,-0.034,0.22,-0.1,-0.6,-0.6,-4.1,24.3,-19.9,0.151554918,-0.619251076,-0.0943327128,-0.764580218
130,328748,22660,0.973,-0.034,0.22,-0.1,-0.6,-0.6,-4.1,24.3,-19.9,0.151554918,-0.619251076,-0.0943327128,-0.764580218
131,333213,22670,0.973,-0.034,0.22,-0.1,-0.6,-0.6,-4.1,24.3,-19.9,0.151554918,-0.619251076,-0.0943327128,-0.764580218
132,333637,22670,0.97,-0.026,0.221,0.1,-1,-0.4,-4.9,23.7,-19.7,0.151493881,-0.61937315,-0.0944242683,-0.764519181
133,337883,22670,0.97,-0.026,0.221,0.1,-1,-0.4,-4.9,23.7,-19.7,0.151493881,-0.61937315,-0.0944242683,-0.764519181
134,340154,22670,0.97,-0.026,0.221,0.1,-1,-0.4,-4.9,23.7,-19.7,0.151493881,-0.61937315,-0.0944242683,-0.764519181
135,342016,22680,0.97,-0.026,0.221,0.1,-1,-0.4,-4.9,23.7,-19.7,0.151493881,-0.61937315,-0.0944242683,-0.764519181
136,344637,22680,0.97,-0.026,0.221,0.1,-1,-0.4,-4.9,23.7,-19.7,0.151493881,-0.61937315,-0.0944242683,-0.764519181
137,346324,22680,0.97,-0.026,0.221,0.1,-1,-0.4,-4.9,23.7,-19.7,0.151493881,-0.61937315,-0.0944242683,-0.764519181
138,348637,22680,0.97,-0.026,0.221,0.1,-1,-0.4,-4.9,23.7,-19.7,0.151493881,-0.61937315,-0.0944242683,-0.764519181
139,352230,22690,0.97,-0.026,0.221,0.1,-1,-0.4,-4.9,23.7,-19.7,0.151493881,-0.61937315,-0.0944242683,-0.764519181
140,354068,22690,0.97,-0.026,0.221,0.1,-1,-0.4,-4.9,23.7,-19.7,0.151493881,-0.61937315,-0.0944242683,-0.764519181
141,356383,22690,0.97,-0.026,0.221,0.1,-1,-0.4,-4.9,23.7,-19.7,0.151493881,-0.61937315,-0.0944242683,-0.764519181
142,358671,22690,0.97,-0.026,0.221,0.1,-1,-0.4,-4.9,23.7,-19.7,0.151493881,-0.61937315,-0.0944242683,-0.764519181
143,362964,22700,0.97,-0.026,0.221,0.1,-1,-0.4,-4.9,23.7,-19.7,0.151493881,-0.61937315,-0.0944242683,-0.764519181
144,363543,22700,0.97,-0.026,0.221,0.1,-1,-0.4,-4.9,23.7,-19.7,0.151493881,-0.61937315,-0.0944242683,-0.764519181
145,366335,22700,0.97,-0.026,0.221,0.1,-1,-0.4,-4.9,23.7,-19.7,0.151493881,-0.61937315,-0.0944242683,-0.764519181
146,368600,22700,0.97,-0.026,0.221,0.1,-1,-0.4,-4.9,23.7,-19.7,0.151493881,-0.61937315,-0.0944242683,-0.764519181
147,373276,22710,0.97,-0.026,0.221,0.1,-1,-0.4,-4.9,23.7,-19.7,0.151493881,-0.61937315,-0.0944242683,-0.764519181
148,373716,22710,0.966,-0.049,0.221,-1.1,0.1,-0.7,-5,23.6,-17.6,0.151188696,-0.619342631,-0.0944547868,-0.764580218
149,376298,22710,0.966,-0.049,0.221,-1.1,0.1,-0.7,-5,23.6,-17.6,0.151188696,-0.619342631,-0.0944547868,-0.764580218
150,379793,22710,0.966,-0.049,0.221,-1.1,0.1,-0.7,-5,23.6,-17.6,0.151188696,-0.619342631,-0.0944547868,-0.764580218
151,382065,22720,0.966,-0.049,0.221,-1.1,0.1,-0.7,-5,23.6,-17.6,0.151188696,-0.619342631,-0.0944547868,-0.764580218
152,384118,22720,0.966,-0.049,0.221,-1.1,0.1,-0.7,-5,23.6,-17.6,0.151188696,-0.619342631,-0.0944547868,-0.764580218
153,386345,22720,0.966,-0.049,0.221,-1.1,0.1,-0.7,-5,23.6,-17.6,0.151188696,-0.619342631,-0.0944547868,-0.764580218
154,388592,22720,0.966,-0.049,0.221,-1.1,0.1,-0.7,-5,23.6,-17.6,0.151188696,-0.619342631,-0.0944547868,-0.764580218
155,391108,22730,0.966,-0.049,0.221,-1.1,0.1,-0.7,-5,23.6,-17.6,0.151188696,-0.619342631,-0.0944547868,-0.764580218
156,395736,22730,0.966,-0.049,0.221,-1.1,0.1,-0.7,-5,23.6,-17.6,0.151188696,-0.619342631,-0.0944547868,-0.764580218
157,396063,22730,0.966,-0.049,0.221,-1.1,0.1,-0.7,-5,23.6,-17.6,0.151188696,-0.619342631,-0.0944547868,-0.764580218
158,400028,22730,0.966,-0.049,0.221,-1.1,0.1,-0.7,-5,23.6,-17.6,0.151188696,-0.619342631,-0.0944547868,-0.764580218
159,402293,22740,0.966,-0.049,0.221,-1.1,0.1,-0.7,-5,23.6,-17.6,0.151188696,-0.619342631,-0.0944547868,-0.764580218
160,403926,22740,0.966,-0.049,0.221,-1.1,0.1,-0.7,-5,23.6,-17.6,0.151188696,-0.619342631,-0.0944547868,-0.764580218
161,406125,22740,0.966,-0.049,0.221,-1.1,0.1,-0.7,-5,23.6,-17.6,0.151188696,-0.619342631,-0.0944547868,-0.764580218
162,408644,22740,0.966,-0.049,0.221,-1.1,0.1,-0.7,-5,23.6,-17.6,0.151188696,-0.619342631,-0.0944547868,-0.764580218
163,413058,22750,0.966,-0.049,0.221,-1.1,0.1,-0.7,-5,23.6,-17.6,0.151188696,-0.619342631,-0.0944547868,-0.764580218
164,415342,22750,0.966,-0.049,0.221,-1.1,0.1,-0.7,-5,23.6,-17.6,0.151188696,-0.619342631,-0.0944547868,-0.764580218
165,417673,22750,0.966,-0.049,0.221,-1.1,0.1,-0.7,-5,23.6,-17.6,0.151188696,-0.619342631,-0.0944547868,-0.764580218
166,419821,22750,0.966,-0.049,0.221,-1.1,0.1,-0.7,-5,23.6,-17.6,0.151188696,-0.619342631,-0.0944547868,-0.764580218
167,422047,22760,0.973,-0.022,0.22,-0.4,-1.7,0,-4.8,23.8,-19.5,0.150669881,-0.619556261,-0.0943327128,-0.764519181
168,424507,22760,0.973,-0.022,0.22,-0.4,-1.7,0,-4.8,23.8,-19.5,0.150669881,-0.619556261,-0.0943327128,-0.764519181
169,426396,22760,0.973,-0.022,0.22,-0.4,-1.7,0,-4.8,23.8,-19.5,0.150669881,-0.619556261,-0.0943327128,-0.764519181
170,428661,22760,0.973,-0.022,0.22,-0.4,-1.7,0,-4.8,23.8,-19.5,0.150669881,-0.619556261,-0.0943327128,-0.764519181
171,432997,22770,0.973,-0.022,0.22,-0.4,-1.7,0,-4.8,23.8,-19.5,0.150669881,-0.619556261,-0.0943327128,-0.764519181
172,433465,22770,0.973,-0.022,0.22,-0.4,-1.7,0,-4.8,23.8,-19.5,0.150669881,-0.619556261,-0.0943327128,-0.764519181
173,438149,22770,0.973,-0.022,0.22,-0.4,-1.7,0,-4.8,23.8,-19.5,0.150669881,-0.619556261,-0.0943327128,-0.764519181
174,438515,22770,0.973,-0.022,0.22,-0.4,-1.7,0,-4.8,23.8,-19.5,0.150669881,-0.619556261,-0.0943327128,-0.764519181
175,441081,22780,0.973,-0.022,0.22,-0.4,-1.7,0,-4.8,23.8,-19.5,0.150669881,-0.619556261,-0.0943327128,-0.764519181
176,443504,22780,0.973,-0.022,0.22,-0.4,-1.7,0,-4.8,23.8,-19.5,0.150669881,-0.619556261,-0.0943327128,-0.764519181
177,447878,22780,0.973,-0.022,0.22,-0.4,-1.7,0,-4.8,23.8,-19.5,0.150669881,-0.619556261,-0.0943327128,-0.764519181
178,450026,22780,0.973,-0.022,0.22,-0.4,-1.7,0,-4.8,23.8,-19.5,0.150669881,-0.619556261,-0.0943327128,-0.764519181
179,452249,22790,0.973,-0.022,0.22,-0.4,-1.7,0,-4.8,23.8,-19.5,0.150669881,-0.619556261,-0.0943327128,-0.764519181
180,454481,22790,0.973,-0.022,0.22,-0.4,-1.7,0,-4.8,23.8,-19.5,0.150669881,-0.619556261,-0.0943327128,-0.764519181
181,456153,22790,0.973,-0.022,0.22,-0.4,-1.7,0,-4.8,23.8,-19.5,0.150669881,-0.619556261,-0.0943327128,-0.764519181
182,458932,22790,0.973,-0.022,0.22,-0.4,-1.7,0,-4.8,23.8,-19.5,0.150669881,-0.619556261,-0.0943327128,-0.764519181
183,461492,22800,0.973,-0.022,0.22,-0.4,-1.7,0,-4.8,23.8,-19.5,0.150669881,-0.619556261,-0.0943327128,-0.764519181
184,463734,22800,0.973,-0.022,0.22,-0.4,-1.7,0,-4.8,23.8,-19.5,0.150669881,-0.619556261,-0.0943327128,-0.764519181
185,466179,22800,0.973,-0.022,0.22,-0.4,-1.7,0,-4.8,23.8,-19.5,0.150669881,-0.619556261,-0.0943327128,-0.764519181
186,470018,22800,0.973,-0.022,0.22,-0.4,-1.7,0,-4.8,23.8,-19.5,0.150669881,-0.619556261,-0.0943327128,-0.764519181
187,472330,22810,0.973,-0.022,0.22,-0.4,-1.7,0,-4.8,23.8,-19.5,0.150669881,-0.619556261,-0.0943327128,-0.764519181
188,474718,22810,0.973,-0.022,0.22,-0.4,-1.7,0,-4.8,23.8,-19.5,0.150669881,-0.619556261,-0.0943327128,-0.764519181
189,476572,22810,0.973,-0.022,0.22,-0.4,-1.7,0,-4.8,23.8,-19.5,0.150669881,-0.619556261,-0.0943327128,-0.764519181
190,478705,22810,0.973,-0.022,0.22,-0.4,-1.7,0,-4.8,23.8,-19.5,0.150669881,-0.619556261,-0.0943327128,-0.764519181
191,481020,22820,0.973,-0.022,0.22,-0.4,-1.7,0,-4.8,23.8,-19.5,0.150669881,-0.619556261,-0.0943327128,-0.764519181
192,483478,22820,0.973,-0.022,0.22,-0.4,-1.7,0,-4.8,23.8,-19.5,0.150669881,-0.619556261,-0.0943327128,-0.764519181
193,488182,22820,0.973,-0.022,0.22,-0.4,-1.7,0,-4.8,23.8,-19.5,0.150669881,-0.619556261,-0.0943327128,-0.764519181
194,488597,22820,0.973,-0.022,0.22,-0.4,-1.7,0,-4.8,23.8,-19.5,0.150669881,-0.619556261,-0.0943327128,-0.764519181
195,491292,22830,0.973,-0.022,0.22,-0.4,-1.7,0,-4.8,23.8,-19.5,0.150669881,-0.619556261,-0.0943327128,-0.764519181
196,493533,22830,0.973,-0.022,0.22,-0.4,-1.7,0,-4.8,23.8,-19.5,0.150669881,-0.619556261,-0.0943327128,-0.764519181
197,496081,22830,0.973,-0.022,0.22,-0.4,-1.7,0,-4.8,23.8,-19.5,0.150669881,-0.619556261,-0.0943327128,-0.764519181
198,498655,22830,0.973,-0.022,0.22,-0.4,-1.7,0,-4.8,23.8,-19.5,0.150669881,-0.619556261,-0.0943327128,-0.764519181
199,501070,22840,0.973,-0.022,0.22,-0.4,-1.7,0,-4.8,23.8,-19.5,0.150669881,-0.619556261,-0.0943327128,-0.764519181
200,505484,22840,0.973,-0.022,0.22,-0.4,-1.7,0,-4.8,23.8,-19.5,0.150669881,-0.619556261,-0.0943327128,-0.764519181
201,507652,22840,0.973,-0.022,0.22,-0.4,-1.7,0,-4.8,23.8,-19.5,0.150669881,-0.619556261,-0.0943327128,-0.764519181
202,509782,22840,0.973,-0.022,0.22,-0.4,-1.7,0,-4.8,23.8,-19.5,0.150669881,-0.619556261,-0.0943327128,-0.764519181
203,511541,22850,0.973,-0.022,0.22,-0.4,-1.7,0,-4.8,23.8,-19.5,0.150669881,-0.619556261,-0.0943327128,-0.764519181
204,513833,22850,0.973,-0.022,0.22,-0.4,-1.7,0,-4.8,23.8,-19.5,0.150669881,-0.619556261,-0.0943327128,-0.764519181
205,516180,22850,0.973,-0.022,0.22,-0.4,-1.7,0,-4.8,23.8,-19.5,0.150669881,-0.619556261,-0.0943327128,-0.764519181
206,518805,22850,0.973,-0.022,0.22,-0.4,-1.7,0,-4.8,23.8,-19.5,0.150669881,-0.619556261,-0.0943327128,-0.764519181
207,521369,22860,0.973,-0.022,0.22,-0.4,-1.7,0,-4.8,23.8,-19.5,0.150669881,-0.619556261,-0.0943327128,-0.764519181
208,523515,22860,0.973,-0.022,0.22,-0.4,-1.7,0,-4.8,23.8,-19.5,0.150669881,-0.619556261,-0.0943327128,-0.764519181
209,526064,22860,0.973,-0.022,0.22,-0.4,-1.7,0,-4.8,23.8,-19.5,0.150669881,-0.619556261,-0.0943327128,-0.764519181
210,530568,22860,0.973,-0.022,0.22,-0.4,-1.7,0,-4.8,23.8,-19.5,0.150669881,-0.619556261,-0.0943327128,-0.764519181
211,532862,22870,0.973,-0.022,0.22,-0.4,-1.7,0,-4.8,23.8,-19.5,0.150669881,-0.619556261,-0.0943327128,-0.764519181
212,534996,22870,0.973,-0.022,0.22,-0.4,-1.7,0,-4.8,23.8,-19.5,0.150669881,-0.619556261,-0.0943327128,-0.764519181
213,536986,22870,0.973,-0.022,0.22,-0.4,-1.7,0,-4.8,23.8,-19.5,0.150669881,-0.619556261,-0.0943327128,-0.764519181
214,539032,22870,0.973,-0.022,0.22,-0.4,-1.7,0,-4.8,23.8,-19.5,0.150669881,-0.619556261,-0.0943327128,-0.764519181
215,543168,22880,0.973,-0.022,0.22,-0.4,-1.7,0,-4.8,23.8,-19.5,0.150669881,-0.619556261,-0.0943327128,-0.764519181
216,543534,22880,0.985,0,0.197,-5.6,-2.5,1.8,-4.8,22.8,-21,0.148838771,-0.62141789,-0.0922879727,-0.763634144
217,547555,22880,0.985,0,0.197,-5.6,-2.5,1.8,-4.8,22.8,-21,0.148838771,-0.62141789,-0.0922879727,-0.763634144
218,549884,22880,0.985,0,0.197,-5.6,-2.5,1.8,-4.8,22.8,-21,0.148838771,-0.62141789,-0.0922879727,-0.763634144
219,552180,22890,0.989,-0.007,0.189,-6,-2.3,1.9,-4.8,23.3,-21.2,0.14865566,-0.621601001,-0.091891232,-0.763542589
220,554793,22890,0.989,-0.007,0.189,-6,-2.3,1.9,-4.8,23.3,-21.2,0.14865566,-0.621601001,-0.091891232,-0.763542589
221,556631,22890,0.989,-0.007,0.189,-6,-2.3,1.9,-4.8,23.3,-21.2,0.14865566,-0.621601001,-0.091891232,-0.763542589
222,559124,22890,0.989,-0.007,0.189,-6,-2.3,1.9,-4.8,23.3,-21.2,0.14865566,-0.621601001,-0.091891232,-0.763542589
223,561272,22900,0.989,-0.007,0.189,-6,-2.3,1.9,-4.8,23.3,-21.2,0.14865566,-0.621601001,-0.091891232,-0.763542589
224,563626,22900,0.989,-0.007,0.189,-6,-2.3,1.9,-4.8,23.3,-21.2,0.14865566,-0.621601001,-0.091891232,-0.763542589
225,566239,22900,0.989,-0.007,0.189,-6,-2.3,1.9,-4.8,23.3,-21.2,0.14865566,-0.621601001,-0.091891232,-0.763542589
226,568490,22900,0.989,-0.007,0.189,-6,-2.3,1.9,-4.8,23.3,-21.2,0.14865566,-0.621601001,-0.091891232,-0.763542589
227,571212,22910,0.989,-0.007,0.189,-6,-2.3,1.9,-4.8,23.3,-21.2,0.14865566,-0.621601001,-0.091891232,-0.763542589
228,573810,22910,0.989,-0.007,0.189,-6,-2.3,1.9,-4.8,23.3,-21.2,0.14865566,-0.621601001,-0.091891232,-0.763542589
229,576143,22910,0.989,-0.007,0.189,-6,-2.3,1.9,-4.8,23.3,-21.2,0.14865566,-0.621601001,-0.091891232,-0.763542589
230,578636,22910,0.989,-0.007,0.189,-6,-2.3,1.9,-4.8,23.3,-21.2,0.14865566,-0.621601001,-0.091891232,-0.763542589
231,583065,22920,0.989,-0.007,0.189,-6,-2.3,1.9,-4.8,23.3,-21.2,0.14865566,-0.621601001,-0.091891232,-0.763542589
232,585338,22920,0.989,-0.007,0.189,-6,-2.3,1.9,-4.8,23.3,-21.2,0.14865566,-0.621601001,-0.091891232,-0.763542589
233,587868,22920,0.989,-0.007,0.189,-6,-2.3,1.9,-4.8,23.3,-21.2,0.14865566,-0.621601001,-0.091891232,-0.763542589
234,590085,22920,0.989,-0.007,0.189,-6,-2.3,1.9,-4.8,23.3,-21.2,0.14865566,-0.621601001,-0.091891232,-0.763542589
235,592002,22930,0.989,-0.007,0.189,-6,-2.3,1.9,-4.8,23.3,-21.2,0.14865566,-0.621601001,-0.091891232,-0.763542589
236,594655,22930,0.989,-0.007,0.189,-6,-2.3,1.9,-4.8,23.3,-21.2,0.14865566,-0.621601001,-0.091891232,-0.763542589
237,596551,22930,0.989,-0.007,0.189,-6,-2.3,1.9,-4.8,23.3,-21.2,0.14865566,-0.621601001,-0.091891232,-0.763542589
238,598642,22930,0.989,-0.007,0.189,-6,-2.3,1.9,-4.8,23.3,-21.2,0.14865566,-0.621601001,-0.091891232,-0.763542589
239,601410,22940,0.989,-0.007,0.189,-6,-2.3,1.9,-4.8,23.3,-21.2,0.14865566,-0.621601001,-0.091891232,-0.763542589
240,603947,22940,0.989,-0.007,0.189,-6,-2.3,1.9,-4.8,23.3,-21.2,0.14865566,-0.621601001,-0.091891232,-0.763542589
241,606258,22940,0.989,-0.007,0.189,-6,-2.3,1.9,-4.8,23.3,-21.2,0.14865566,-0.621601001,-0.091891232,-0.763542589
242,608595,22940,0.989,-0.007,0.189,-6,-2.3,1.9,-4.8,23.3,-21.2,0.14865566,-0.621601001,-0.091891232,-0.763542589
243,611101,22950,0.989,-0.007,0.189,-6,-2.3,1.9,-4.8,23.3,-21.2,0.14865566,-0.621601001,-0.091891232,-0.763542589
244,613742,22950,0.989,-0.007,0.189,-6,-2.3,1.9,-4.8,23.3,-21.2,0.14865566,-0.621601001,-0.091891232,-0.763542589
245,616408,22950,0.989,-0.007,0.189,-6,-2.3,1.9,-4.8,23.3,-21.2,0.14865566,-0.621601001,-0.091891232,-0.763542589
246,618615,22950,0.989,-0.007,0.189,-6,-2.3,1.9,-4.8,23.3,-21.2,0.14865566,-0.621601001,-0.091891232,-0.763542589
247,620991,22960,0.989,-0.007,0.189,-6,-2.3,1.9,-4.8,23.3,-21.2,0.14865566,-0.621601001,-0.091891232,-0.763542589
248,625563,22960,0.989,-0.007,0.189,-6,-2.3,1.9,-4.8,23.3,-21.2,0.14865566,-0.621601001,-0.091891232,-0.763542589
249,627985,22960,0.989,-0.007,0.189,-6,-2.3,1.9,-4.8,23.3,-21.2,0.14865566,-0.621601001,-0.091891232,-0.763542589
250,630060,22960,0.989,-0.007,0.189,-6,-2.3,1.9,-4.8,23.3,-21.2,0.14865566,-0.621601001,-0.091891232,-0.763542589
251,632273,22970,0.989,-0.007,0.189,-6,-2.3,1.9,-4.8,23.3,-21.2,0.14865566,-0.621601001,-0.091891232,-0.763542589
252,634323,22970,0.989,-0.007,0.189,-6,-2.3,1.9,-4.8,23.3,-21.2,0.14865566,-0.621601001,-0.091891232,-0.763542589
253,636213,22970,0.989,-0.007,0.189,-6,-2.3,1.9,-4.8,23.3,-21.2,0.14865566,-0.621601001,-0.091891232,-0.763542589
254,638617,22970,0.989,-0.007,0.189,-6,-2.3,1.9,-4.8,23.3,-21.2,0.14865566,-0.621601001,-0.091891232,-0.763542589
255,641144,22980,0.989,-0.007,0.189,-6,-2.3,1.9,-4.8,23.3,-21.2,0.14865566,-0.621601001,-0.091891232,-0.763542589
256,645304,22980,0.989,-0.007,0.189,-6,-2.3,1.9,-4.8,23.3,-21.2,0.14865566,-0.621601001,-0.091891232,-0.763542589
257,647526,22980,0.989,-0.007,0.189,-6,-2.3,1.9,-4.8,23.3,-21.2,0.14865566,-0.621601001,-0.091891232,-0.763542589
258,649778,22980,0.989,-0.007,0.189,-6,-2.3,1.9,-4.8,23.3,-21.2,0.14865566,-0.621601001,-0.091891232,-0.763542589
259,652033,22990,0.989,-0.007,0.189,-6,-2.3,1.9,-4.8,23.3,-21.2,0.14865566,-0.621601001,-0.091891232,-0.763542589
260,654095,22990,0.989,-0.007,0.189,-6,-2.3,1.9,-4.8,23.3,-21.2,0.14865566,-0.621601001,-0.091891232,-0.763542589
261,657311,22990,0.989,-0.007,0.189,-6,-2.3,1.9,-4.8,23.3,-21.2,0.14865566,-0.621601001,-0.091891232,-0.763542589
262,659553,22990,0.989,-0.007,0.189,-6,-2.3,1.9,-4.8,23.3,-21.2,0.14865566,-0.621601001,-0.091891232,-0.763542589
263,661211,23000,0.989,-0.007,0.189,-6,-2.3,1.9,-4.8,23.3,-21.2,0.14865566,-0.621601001,-0.091891232,-0.763542589
264,663540,23000,0.989,-0.007,0.189,-6,-2.3,1.9,-4.8,23.3,-21.2,0.14865566,-0.621601001,-0.091891232,-0.763542589
265,666997,23000,0.989,-0.007,0.189,-6,-2.3,1.9,-4.8,23.3,-21.2,0.14865566,-0.621601001,-0.091891232,-0.763542589
266,668627,23000,0.989,-0.007,0.189,-6,-2.3,1.9,-4.8,23.3,-21.2,0.14865566,-0.621601001,-0.091891232,-0.763542589
267,672472,23010,0.989,-0.007,0.189,-6,-2.3,1.9,-4.8,23.3,-21.2,0.14865566,-0.621601001,-0.091891232,-0.763542589
268,674585,23010,0.989,-0.007,0.189,-6,-2.3,1.9,-4.8,23.3,-21.2,0.14865566,-0.621601001,-0.091891232,-0.763542589
269,676474,23010,0.985,0,0.165,-16.2,-0.5,4.8,-5.1,24,-19.5,0.142979217,-0.627521592,-0.0825525681,-0.76085696
270,678697,23010,0.985,0,0.165,-16.2,-0.5,4.8,-5.1,24,-19.5,0.142979217,-0.627521592,-0.0825525681,-0.76085696
271,681508,23020,0.985,0,0.165,-16.2,-0.5,4.8,-5.1,24,-19.5,0.142979217,-0.627521592,-0.0825525681,-0.76085696
272,683940,23020,0.985,0,0.165,-16.2,-0.5,4.8,-5.1,24,-19.5,0.142979217,-0.627521592,-0.0825525681,-0.76085696
273,686247,23020,0.985,0,0.165,-16.2,-0.5,4.8,-5.1,24,-19.5,0.142979217,-0.627521592,-0.0825525681,-0.76085696
274,688703,23020,0.985,0,0.165,-16.2,-0.5,4.8,-5.1,24,-19.5,0.142979217,-0.627521592,-0.0825525681,-0.76085696
275,691428,23030,0.985,0,0.165,-16.2,-0.5,4.8,-5.1,24,-19.5,0.142979217,-0.627521592,-0.0825525681,-0.76085696
276,694023,23030,0.985,0,0.165,-16.2,-0.5,4.8,-5.1,24,-19.5,0.142979217,-0.627521592,-0.0825525681,-0.76085696
277,696021,23030,0.985,0,0.165,-16.2,-0.5,4.8,-5.1,24,-19.5,0.142979217,-0.627521592,-0.0825525681,-0.76085696
278,699939,23030,0.985,0,0.165,-16.2,-0.5,4.8,-5.1,24,-19.5,0.142979217,-0.627521592,-0.0825525681,-0.76085696
279,702364,23040,0.985,0,0.165,-16.2,-0.5,4.8,-5.1,24,-19.5,0.142979217,-0.627521592,-0.0825525681,-0.76085696
280,704552,23040,0.985,0,0.165,-16.2,-0.5,4.8,-5.1,24,-19.5,0.142979217,-0.627521592,-0.0825525681,-0.76085696
281,706332,23040,0.985,0,0.165,-16.2,-0.5,4.8,-5.1,24,-19.5,0.142979217,-0.627521592,-0.0825525681,-0.76085696
282,708649,23040,0.985,0,0.165,-16.2,-0.5,4.8,-5.1,24,-19.5,0.142979217,-0.627521592,-0.0825525681,-0.76085696
283,711348,23050,0.985,0,0.165,-16.2,-0.5,4.8,-5.1,24,-19.5,0.142979217,-0.627521592,-0.0825525681,-0.76085696
284,713928,23050,0.985,0,0.165,-16.2,-0.5,4.8,-5.1,24,-19.5,0.142979217,-0.627521592,-0.0825525681,-0.76085696
285,716236,23050,0.985,0,0.165,-16.2,-0.5,4.8,-5.1,24,-19.5,0.142979217,-0.627521592,-0.0825525681,-0.76085696
286,719185,23050,0.985,0,0.165,-16.2,-0.5,4.8,-5.1,24,-19.5,0.142979217,-0.627521592,-0.0825525681,-0.76085696
287,721369,23060,0.985,0,0.165,-16.2,-0.5,4.8,-5.1,24,-19.5,0.142979217,-0.627521592,-0.0825525681,-0.76085696
288,723733,23060,0.985,0,0.165,-16.2,-0.5,4.8,-5.1,24,-19.5,0.142979217,-0.627521592,-0.0825525681,-0.76085696
289,726007,23060,0.985,0,0.165,-16.2,-0.5,4.8,-5.1,24,-19.5,0.142979217,-0.627521592,-0.0825525681,-0.76085696
290,728544,23060,0.985,0,0.165,-16.2,-0.5,4.8,-5.1,24,-19.5,0.142979217,-0.627521592,-0.0825525681,-0.76085696
291,733243,23070,0.985,0,0.165,-16.2,-0.5,4.8,-5.1,24,-19.5,0.142979217,-0.627521592,-0.0825525681,-0.76085696
292,733698,23070,0.985,0,0.165,-16.2,-0.5,4.8,-5.1,24,-19.5,0.142979217,-0.627521592,-0.0825525681,-0.76085696
293,736759,23070,0.985,0,0.165,-16.2,-0.5,4.8,-5.1,24,-19.5,0.142979217,-0.627521592,-0.0825525681,-0.76085696
294,740079,23070,0.946,0.005,0.186,-26.6,-3.3,3.7,-5.8,24.7,-18.8,0.135837886,-0.63002411,-0.0714743492,-0.761223182
295,741919,23080,0.946,0.005,0.186,-26.6,-3.3,3.7,-5.8,24.7,-18.8,0.135837886,-0.63002411,-0.0714743492,-0.761223182
296,744514,23080,0.946,0.005,0.186,-26.6,-3.3,3.7,-5.8,24.7,-18.8,0.135837886,-0.63002411,-0.0714743492,-0.761223182
297,746194,23080,0.946,0.005,0.186,-26.6,-3.3,3.7,-5.8,24.7,-18.8,0.135837886,-0.63002411,-0.0714743492,-0.761223182
298,748874,23080,0.946,0.005,0.186,-26.6,-3.3,3.7,-5.8,24.7,-18.8,0.135837886,-0.63002411,-0.0714743492,-0.761223182
299,751129,23090,0.946,0.005,0.186,-26.6,-3.3,3.7,-5.8,24.7,-18.8,0.135837886,-0.63002411,-0.0714743492,-0.761223182
300,753815,23090,0.946,0.005,0.186,-26.6,-3.3,3.7,-5.8,24.7,-18.8,0.135837886,-0.63002411,-0.0714743492,-0.761223182
301,756076,23090,0.946,0.005,0.186,-26.6,-3.3,3.7,-5.8,24.7,-18.8,0.135837886,-0.63002411,-0.0714743492,-0.761223182
302,758609,23090,0.946,0.005,0.186,-26.6,-3.3,3.7,-5.8,24.7,-18.8,0.135837886,-0.63002411,-0.0714743492,-0.761223182
303,763141,23100,0.946,0.005,0.186,-26.6,-3.3,3.7,-5.8,24.7,-18.8,0.135837886,-0.63002411,-0.0714743492,-0.761223182
304,763545,23100,0.946,0.005,0.186,-26.6,-3.3,3.7,-5.8,24.7,-18.8,0.135837886,-0.63002411,-0.0714743492,-0.761223182
305,766227,23100,0.946,0.005,0.186,-26.6,-3.3,3.7,-5.8,24.7,-18.8,0.135837886,-0.63002411,-0.0714743492,-0.761223182
306,768579,23100,0.946,0.005,0.186,-26.6,-3.3,3.7,-5.8,24.7,-18.8,0.135837886,-0.63002411,-0.0714743492,-0.761223182
307,772935,23110,0.946,0.005,0.186,-26.6,-3.3,3.7,-5.8,24.7,-18.8,0.135837886,-0.63002411,-0.0714743492,-0.761223182
308,775177,23110,0.946,0.005,0.186,-26.6,-3.3,3.7,-5.8,24.7,-18.8,0.135837886,-0.63002411,-0.0714743492,-0.761223182
309,777365,23110,0.946,0.005,0.186,-26.6,-3.3,3.7,-5.8,24.7,-18.8,0.135837886,-0.63002411,-0.0714743492,-0.761223182
310,779778,23110,0.946,0.005,0.186,-26.6,-3.3,3.7,-5.8,24.7,-18.8,0.135837886,-0.63002411,-0.0714743492,-0.761223182
311,781554,23120,0.961,-0.026,0.166,-30,-0.4,-1.4,-5,25.2,-18.5,0.129581591,-0.631641591,-0.0642109439,-0.761619922
312,784929,23120,0.961,-0.026,0.166,-30,-0.4,-1.4,-5,25.2,-18.5,0.129581591,-0.631641591,-0.0642109439,-0.761619922
313,787140,23120,0.961,-0.026,0.166,-30,-0.4,-1.4,-5,25.2,-18.5,0.129581591,-0.631641591,-0.0642109439,-0.761619922
314,788921,23120,0.961,-0.026,0.166,-30,-0.4,-1.4,-5,25.2,-18.5,0.129581591,-0.631641591,-0.0642109439,-0.761619922
315,793150,23130,0.961,-0.026,0.166,-30,-0.4,-1.4,-5,25.2,-18.5,0.129581591,-0.631641591,-0.0642109439,-0.761619922
316,793562,23130,0.958,-0.03,0.178,-36.6,-3.1,-1.8,-5.1,25.1,-18.1,0.127109592,-0.632282479,-0.0615253151,-0.761711478
317,797996,23130,0.958,-0.03,0.178,-36.6,-3.1,-1.8,-5.1,25.1,-18.1,0.127109592,-0.632282479,-0.0615253151,-0.761711478
318,800208,23130,0.954,-0.033,0.178,-38.8,-4,-2.1,-4.8,25.2,-17.9,0.125949889,-0.632618183,-0.0603350932,-0.761741997
319,802782,23140,0.95,-0.033,0.174,-39.8,-4.2,-2.2,-4.8,25.2,-17.9,0.125370037,-0.632801294,-0.0596942045,-0.761741997
320,805623,23140,0.95,-0.037,0.182,-40.7,-4.4,-2.5,-4.8,25.2,-17.9,0.124759667,-0.632984405,-0.0590838343,-0.761741997
321,806008,23140,0.95,-0.037,0.182,-40.7,-4.4,-2.5,-4.8,25.2,-17.9,0.124759667,-0.632984405,-0.0590838343,-0.761741997
322,808573,23140,0.95,-0.037,0.182,-40.7,-4.4,-2.5,-4.8,25.2,-17.9,0.124759667,-0.632984405,-0.0590838343,-0.761741997
323,811043,23150,0.95,-0.037,0.182,-40.7,-4.4,-2.5,-4.8,25.2,-17.9,0.124759667,-0.632984405,-0.0590838343,-0.761741997
324,815189,23150,0.95,-0.037,0.182,-40.7,-4.4,-2.5,-4.8,25.2,-17.9,0.124759667,-0.632984405,-0.0590838343,-0.761741997
325,817433,23150,0.95,-0.037,0.182,-40.7,-4.4,-2.5,-4.8,25.2,-17.9,0.124759667,-0.632984405,-0.0590838343,-0.761741997
326,819613,23150,0.95,-0.037,0.182,-40.7,-4.4,-2.5,-4.8,25.2,-17.9,0.124759667,-0.632984405,-0.0590838343,-0.761741997
327,823211,23160,0.95,-0.037,0.182,-40.7,-4.4,-2.5,-4.8,25.2,-17.9,0.124759667,-0.632984405,-0.0590838343,-0.761741997
328,823646,23160,0.93,-0.049,0.186,-43.9,-6.5,-4.8,-4.9,25.9,-17.7,0.11917478,-0.634601886,-0.0541398358,-0.761619922
329,826274,23160,0.93,-0.049,0.186,-43.9,-6.5,-4.8,-4.9,25.9,-17.7,0.11917478,-0.634601886,-0.0541398358,-0.761619922
330,828812,23160,0.93,-0.049,0.186,-43.9,-6.5,-4.8,-4.9,25.9,-17.7,0.11917478,-0.634601886,-0.0541398358,-0.761619922
331,831155,23170,0.93,-0.049,0.186,-43.9,-6.5,-4.8,-4.9,25.9,-17.7,0.11917478,-0.634601886,-0.0541398358,-0.761619922
332,833548,23170,0.93,-0.049,0.186,-43.9,-6.5,-4.8,-4.9,25.9,-17.7,0.11917478,-0.634601886,-0.0541398358,-0.761619922
333,836059,23170,0.93,-0.049,0.186,-43.9,-6.5,-4.8,-4.9,25.9,-17.7,0.11917478,-0.634601886,-0.0541398358,-0.761619922
334,838746,23170,0.93,-0.049,0.186,-43.9,-6.5,-4.8,-4.9,25.9,-17.7,0.11917478,-0.634601886,-0.0541398358,-0.761619922
335,842185,23180,0.93,-0.049,0.186,-43.9,-6.5,-4.8,-4.9,25.9,-17.7,0.11917478,-0.634601886,-0.0541398358,-0.761619922
336,843967,23180,0.926,-0.053,0.151,-42.5,-7.3,-7.1,-4.8,26.2,-17.6,0.113498337,-0.636402478,-0.0492263558,-0.761345256
337,846259,23180,0.926,-0.053,0.151,-42.5,-7.3,-7.1,-4.8,26.2,-17.6,0.113498337,-0.636402478,-0.0492263558,-0.761345256
338,849739,23180,0.926,-0.053,0.151,-42.5,-7.3,-7.1,-4.8,26.2,-17.6,0.113498337,-0.636402478,-0.0492263558,-0.761345256
339,851498,23190,0.926,-0.061,0.143,-42.1,-6.9,-8.2,-4.6,26.1,-17.7,0.111331523,-0.637043367,-0.0474868007,-0.761223182
340,854450,23190,0.93,-0.064,0.147,-42.1,-6.8,-8.4,-4.6,26.1,-17.7,0.110599078,-0.637256996,-0.0469069491,-0.761192663
341,856101,23190,0.934,-0.068,0.139,-42.2,-6.7,-8.7,-4.8,26.2,-17.3,0.109805597,-0.637562181,-0.0464186529,-0.761101108
342,859817,23190,0.934,-0.068,0.139,-42.2,-6.7,-8.7,-4.8,26.2,-17.3,0.109805597,-0.637562181,-0.0464186529,-0.761101108
343,861428,23200,0.938,-0.076,0.131,-42.8,-6.3,-9.3,-4.8,26.2,-17.3,0.10831019,-0.637958922,-0.0452894681,-0.761040071
344,863860,23200,0.938,-0.076,0.131,-42.8,-6.3,-9.3,-4.8,26.2,-17.3,0.10831019,-0.637958922,-0.0452894681,-0.761040071
345,867866,23200,0.945,-0.084,0.131,-43.4,-6,-10,-4.5,26.2,-17.2,0.106753746,-0.638355663,-0.0441602832,-0.761009552
346,870023,23200,0.945,-0.084,0.131,-43.6,-5.9,-10.3,-4.5,26.2,-17.2,0.105960265,-0.638538774,-0.04361095,-0.760979034
347,872131,23210,0.945,-0.084,0.131,-43.6,-5.9,-10.3,-4.5,26.2,-17.2,0.105960265,-0.638538774,-0.04361095,-0.760979034
348,874542,23210,0.945,-0.084,0.131,-43.6,-5.9,-10.3,-4.5,26.2,-17.2,0.105960265,-0.638538774,-0.04361095,-0.760979034
349,876374,23210,0.945,-0.084,0.131,-43.6,-5.9,-10.3,-4.5,26.2,-17.2,0.105960265,-0.638538774,-0.04361095,-0.760979034
350,878659,23210,0.945,-0.084,0.131,-43.6,-5.9,-10.3,-4.5,26.2,-17.2,0.105960265,-0.638538774,-0.04361095,-0.760979034
351,883561,23220,0.973,-0.093,0.138,-45.4,-6.3,-11.9,-6.2,25.9,-17.1,0.101870785,-0.639515366,-0.0407422102,-0.760887478
352,883561,23220,0.977,-0.097,0.134,-45.9,-6.3,-12.1,-6.2,25.9,-17.1,0.101016266,-0.639698477,-0.0401623585,-0.76085696
353,886844,23220,0.977,-0.097,0.134,-45.9,-6.3,-12.1,-6.2,25.9,-17.1,0.101016266,-0.639698477,-0.0401623585,-0.76085696
354,888522,23220,0.985,-0.097,0.146,-46.9,-6.4,-12.7,-4.5,26.1,-16.6,0.0993072298,-0.640095218,-0.0390026551,-0.760826441
355,891839,23230,0.985,-0.097,0.146,-46.9,-6.4,-12.7,-4.5,26.1,-16.6,0.0993072298,-0.640095218,-0.0390026551,-0.760826441
356,894713,23230,0.996,-0.101,0.15,-47.9,-6.5,-13.1,-4.5,26.1,-16.6,0.0975066378,-0.640491958,-0.0378124332,-0.760765404
357,897601,23230,1,-0.105,0.15,-48.5,-6.4,-13.2,-4.7,25.9,-16.7,0.096621601,-0.640705588,-0.0372020631,-0.760734886
358,899800,23230,1.008,-0.105,0.149,-49.1,-6.2,-13.3,-4.7,25.9,-16.7,0.0957060457,-0.640888699,-0.0365916929,-0.760734886
359,901977,23240,1.008,-0.105,0.146,-49.8,-5.9,-13.5,-4.7,25.9,-16.7,0.0947904904,-0.641102329,-0.0359813227,-0.760704367
360,905712,23240,1.016,-0.105,0.153,-50.5,-5.6,-13.8,-4.7,25.9,-16.7,0.0938444166,-0.64128544,-0.035340434,-0.760704367
361,906250,23240,1.02,-0.105,0.149,-51.2,-5.4,-14.1,-4.8,26.3,-16.9,0.0929288614,-0.641529588,-0.0346385083,-0.76064333
362,909694,23240,1.02,-0.105,0.149,-51.2,-5.4,-14.1,-4.8,26.3,-16.9,0.0929288614,-0.641529588,-0.0346385083,-0.76064333
363,912115,23250,1.024,-0.109,0.153,-52,-5.1,-14.7,-4.8,26.3,-16.9,0.0909756767,-0.641865291,-0.0333262123,-0.760612812
364,915875,23250,1.027,-0.113,0.153,-52.3,-4.9,-15,-4.8,26.3,-16.9,0.0899990844,-0.642048402,-0.0326853236,-0.760612812
365,916219,23250,1.027,-0.117,0.153,-52.6,-4.7,-15.3,-4.5,26.4,-16.1,0.0889614551,-0.642231513,-0.0320139164,-0.760612812
366,918734,23250,1.027,-0.117,0.153,-52.6,-4.7,-15.3,-4.5,26.4,-16.1,0.0889614551,-0.642231513,-0.0320139164,-0.760612812
367,923511,23260,1.027,-0.117,0.153,-52.6,-4.7,-15.3,-4.5,26.4,-16.1,0.0889614551,-0.642231513,-0.0320139164,-0.760612812
368,923511,23260,1.035,-0.137,0.153,-53.1,-4,-16.2,-4.5,26.4,-16.1,0.0859706412,-0.64271981,-0.0300912503,-0.76064333
369,926204,23260,1.035,-0.137,0.153,-53.1,-4,-16.2,-4.5,26.4,-16.1,0.0859706412,-0.64271981,-0.0300912503,-0.76064333
370,928548,23260,1.035,-0.137,0.153,-53.1,-4,-16.2,-4.5,26.4,-16.1,0.0859706412,-0.64271981,-0.0300912503,-0.76064333
371,931224,23270,1.035,-0.137,0.153,-53.1,-4,-16.2,-4.5,26.4,-16.1,0.0859706412,-0.64271981,-0.0300912503,-0.76064333
372,935712,23270,1.035,-0.152,0.145,-53.7,-2.9,-17.3,-5.8,26.9,-16.1,0.0818201239,-0.643299661,-0.0274666585,-0.760704367
373,936094,23270,1.039,-0.156,0.141,-53.8,-2.8,-17.8,-5.7,27,-15.8,0.0807824946,-0.643421735,-0.0268562883,-0.760734886
374,938627,23270,1.039,-0.156,0.141,-53.8,-2.8,-17.8,-5.7,27,-15.8,0.0807824946,-0.643421735,-0.0268562883,-0.760734886
375,943194,23280,1.039,-0.156,0.141,-53.8,-2.8,-17.8,-5.7,27,-15.8,0.0807824946,-0.643421735,-0.0268562883,-0.760734886
376,943614,23280,1.031,-0.18,0.137,-54.1,-2.7,-18.4,-5.7,27,-15.8,0.0775780511,-0.643818476,-0.0249641408,-0.760795923
377,947677,23280,1.031,-0.18,0.137,-54.1,-2.7,-18.4,-5.7,27,-15.8,0.0775780511,-0.643818476,-0.0249641408,-0.760795923
378,949972,23280,1.031,-0.187,0.137,-54.1,-2.8,-18.6,-6.1,27.3,-15.8,0.0754417554,-0.644062624,-0.0236823634,-0.76085696
379,952286,23290,1.027,-0.195,0.138,-54.1,-2.7,-18.8,-6.1,27.3,-15.8,0.0743736076,-0.644184698,-0.0230719932,-0.76085696
380,954093,23290,1.027,-0.195,0.138,-54.1,-2.7,-18.8,-6.1,27.3,-15.8,0.0743736076,-0.644184698,-0.0230719932,-0.76085696
381,957589,23290,1.027,-0.195,0.138,-54.1,-2.7,-18.8,-6.1,27.3,-15.8,0.0743736076,-0.644184698,-0.0230719932,-0.76085696
382,959346,23290,1.023,-0.211,0.134,-53.7,-2.7,-19.3,-6,27.5,-15.6,0.0716269417,-0.64476455,-0.0205999939,-0.760704367
383,961964,23300,1.023,-0.219,0.13,-53.4,-2.8,-19.5,-6,27.5,-15.6,0.0705282754,-0.644886624,-0.0200201422,-0.760734886
384,963898,23300,1.023,-0.219,0.126,-53.1,-2.7,-19.7,-6,27.5,-15.6,0.0694296091,-0.645008698,-0.019409772,-0.760734886
385,966132,23300,1.023,-0.219,0.126,-53.1,-2.7,-19.7,-6,27.5,-15.6,0.0694296091,-0.645008698,-0.019409772,-0.760734886
386,970421,23300,1.023,-0.219,0.126,-53.1,-2.7,-19.7,-6,27.5,-15.6,0.0694296091,-0.645008698,-0.019409772,-0.760734886
387,972780,23310,1.023,-0.219,0.126,-53.1,-2.7,-19.7,-6,27.5,-15.6,0.0694296091,-0.645008698,-0.019409772,-0.760734886
388,975728,23310,1.019,-0.234,0.118,-51.2,-1.9,-20.6,-6.3,27.4,-15,0.0651875362,-0.645405438,-0.0170903653,-0.760826441
389,977979,23310,1.023,-0.238,0.114,-50.8,-1.6,-20.6,-6.3,27.2,-15,0.0641193884,-0.645496994,-0.0165715506,-0.76085696
390,980200,23310,1.027,-0.246,0.11,-50.2,-1.1,-20.8,-6.3,27.2,-15,0.0630817591,-0.645588549,-0.015991699,-0.760887478
391,982009,23320,1.027,-0.246,0.11,-50.2,-1.1,-20.8,-6.3,27.2,-15,0.0630817591,-0.645588549,-0.015991699,-0.760887478
392,984607,23320,1.027,-0.262,0.106,-49.2,-0.4,-21.2,-6.3,27.2,-15,0.0609759819,-0.645741142,-0.0149845882,-0.760948515
393,986586,23320,1.027,-0.262,0.106,-49.2,-0.4,-21.2,-6.3,27.2,-15,0.0609759819,-0.645741142,-0.0149845882,-0.760948515
394,989306,23320,1.038,-0.278,0.102,-48.2,0.3,-21.5,-6,27.6,-14.5,0.0588702048,-0.645832698,-0.0139774773,-0.761040071
395,992067,23330,1.038,-0.281,0.098,-47.7,0.8,-21.8,-6,27.6,-14.5,0.057863094,-0.645893735,-0.0134891812,-0.761101108
396,994645,23330,1.042,-0.278,0.102,-47.1,1.3,-22,-6,27.6,-14.5,0.0568254646,-0.645924253,-0.013000885,-0.761162145
397,998349,23330,1.042,-0.285,0.102,-46.5,1.8,-22.3,-6.4,27.2,-13.8,0.0557878353,-0.645924253,-0.0125431074,-0.761223182
398,998761,23330,1.046,-0.293,0.102,-45.7,2.2,-22.5,-6.4,27.2,-13.8,0.0547807245,-0.645954772,-0.0121158483,-0.761284219
399,1001871,23340,1.046,-0.293,0.102,-45.7,2.2,-22.5,-6.4,27.2,-13.8,0.0547807245,-0.645954772,-0.0121158483,-0.761284219
400,1005670,23340,1.054,-0.305,0.11,-43.7,2.8,-22.9,-6.4,27.2,-13.8,0.0527665029,-0.645954772,-0.01126133,-0.761436811
401,1006157,23340,1.062,-0.313,0.11,-42.5,3.2,-23.2,-6.4,27.7,-13.3,0.0525223548,-0.64619892,-0.0100100711,-0.7612537
402,1008883,23340,1.062,-0.313,0.11,-42.5,3.2,-23.2,-6.4,27.7,-13.3,0.0525223548,-0.64619892,-0.0100100711,-0.7612537
403,1012904,23350,1.062,-0.325,0.125,-42.3,3.5,-23.4,-6.4,27.7,-13.3,0.0505691702,-0.64619892,-0.00924710837,-0.761406293
404,1015093,23350,1.062,-0.325,0.125,-42.2,3.8,-23.3,-6.4,27.7,-13.3,0.0495620594,-0.646168401,-0.00885036775,-0.761497848
405,1017411,23350,1.062,-0.325,0.125,-42.2,3.8,-23.3,-6.4,27.7,-13.3,0.0495620594,-0.646168401,-0.00885036775,-0.761497848
406,1019531,23350,1.062,-0.325,0.125,-42.2,3.8,-23.3,-6.4,27.7,-13.3,0.0495620594,-0.646168401,-0.00885036775,-0.761497848
407,1021893,23360,1.066,-0.368,0.145,-43.2,4.8,-23.5,-6.6,27.4,-12.5,0.046601764,-0.646046327,-0.0077211829,-0.761803034
408,1023772,23360,1.066,-0.376,0.141,-43.7,5,-23.7,-6.6,27.4,-12.5,0.0455946532,-0.646015809,-0.00729392376,-0.761894589
409,1027808,23360,1.077,-0.407,0.145,-44.4,5.1,-24.2,-6.9,27.6,-15.5,0.0445570238,-0.645954772,-0.00689718314,-0.762016663
410,1030112,23360,1.124,-0.443,0.14,-45.1,5.1,-24.5,-6.9,27.6,-15.5,0.043488876,-0.645924253,-0.00650044252,-0.762108219
411,1032200,23370,1.124,-0.443,0.14,-45.1,5.1,-24.5,-6.9,27.6,-15.5,0.043488876,-0.645924253,-0.00650044252,-0.762108219
412,1034403,23370,1.124,-0.443,0.14,-45.1,5.1,-24.5,-6.9,27.6,-15.5,0.043488876,-0.645924253,-0.00650044252,-0.762108219
413,1036122,23370,1.175,-0.51,0.151,-46,7.6,-29.4,-7.3,27.1,-13.1,0.0402233955,-0.645741142,-0.00531022065,-0.762443922
414,1040207,23370,1.167,-0.526,0.155,-44.2,11.5,-33.7,-7.3,27.1,-13.1,0.0390331736,-0.645558031,-0.00506607257,-0.762657552
415,1042509,23380,1.128,-0.544,0.164,-41.1,17.4,-38.6,-7.3,27.1,-13.1,0.0378124332,-0.645313883,-0.00488296152,-0.762932218
416,1044738,23380,1.128,-0.544,0.164,-41.1,17.4,-38.6,-7.3,27.1,-13.1,0.0378124332,-0.645313883,-0.00488296152,-0.762932218
417,1046885,23380,1.053,-0.582,0.181,-31.3,32,-46.3,-7.2,26.8,-12.4,0.0353709525,-0.644398328,-0.00497451704,-0.763817255
418,1048857,23380,1.022,-0.593,0.178,-26.4,37.8,-47.5,-7.2,26.8,-12.4,0.0342112491,-0.643787957,-0.00518814661,-0.764397107
419,1052830,23390,0.979,-0.581,0.186,-22.9,40.8,-46.6,-7.2,26.8,-12.4,0.0331125828,-0.64311655,-0.00543229469,-0.765007477
420,1054938,23390,1.014,-0.644,0.174,-22.3,40.8,-44.4,-7.2,26.8,-12.4,0.0320749535,-0.642445143,-0.00564592425,-0.765617847
421,1057208,23390,0.991,-0.671,0.159,-30.1,33.8,-40.4,-7.1,27.4,-13.4,0.0309762871,-0.64189581,-0.00567644276,-0.766106143
422,1059414,23390,0.991,-0.671,0.159,-30.1,33.8,-40.4,-7.1,27.4,-13.4,0.0309762871,-0.64189581,-0.00567644276,-0.766106143
423,1061493,23400,0.991,-0.671,0.159,-30.1,33.8,-40.4,-7.1,27.4,-13.4,0.0309762871,-0.64189581,-0.00567644276,-0.766106143
424,1064659,23400,0.991,-0.671,0.159,-30.1,33.8,-40.4,-7.1,27.4,-13.4,0.0309762871,-0.64189581,-0.00567644276,-0.766106143
425,1066865,23400,1.014,-0.777,0.147,-49.8,22.7,-40.8,-7.4,27.4,-13.4,0.0260017701,-0.640125736,-0.00518814661,-0.767784661
426,1068810,23400,1.014,-0.777,0.147,-49.8,22.7,-40.8,-7.4,27.4,-13.4,0.0260017701,-0.640125736,-0.00518814661,-0.767784661
427,1072867,23410,1.021,-0.859,0.131,-58.9,17.3,-40.1,-7.4,27.4,-13.4,0.0230719932,-0.639545885,-0.00439466536,-0.768364513
428,1075327,23410,1.001,-0.867,0.128,-61.6,15,-39.7,-7.4,27.4,-13.4,0.0215460677,-0.639301737,-0.00390636921,-0.768608661
429,1077483,23410,1.001,-0.867,0.128,-61.6,15,-39.7,-7.4,27.4,-13.4,0.0215460677,-0.639301737,-0.00390636921,-0.768608661
430,1079606,23410,1.001,-0.867,0.128,-61.6,15,-39.7,-7.4,27.4,-13.4,0.0215460677,-0.639301737,-0.00390636921,-0.768608661
431,1081908,23420,1.001,-0.867,0.128,-61.6,15,-39.7,-7.4,27.4,-13.4,0.0215460677,-0.639301737,-0.00390636921,-0.768608661
432,1085373,23420,1.001,-0.867,0.128,-61.6,15,-39.7,-7.4,27.4,-13.4,0.0215460677,-0.639301737,-0.00390636921,-0.768608661
433,1087614,23420,1.071,-1.024,0.111,-55.2,5.5,-36.2,-7.5,27.6,-13.2,0.0141605884,-0.638630329,-0.00146488845,-0.769341105
434,1089803,23420,1.071,-1.024,0.111,-55.2,5.5,-36.2,-7.5,27.6,-13.2,0.0141605884,-0.638630329,-0.00146488845,-0.769341105
435,1092923,23430,1.071,-1.024,0.111,-55.2,5.5,-36.2,-7.5,27.6,-13.2,0.0141605884,-0.638630329,-0.00146488845,-0.769341105
436,1095272,23430,1.11,-1.103,0.099,-33.9,9.2,-37.8,-7.5,27.6,-13.2,0.0105594043,-0.638355663,-0.000854518265,-0.76964629
437,1098412,23430,1.11,-1.103,0.099,-33.9,9.2,-37.8,-7.5,27.6,-13.2,0.0105594043,-0.638355663,-0.000854518265,-0.76964629
438,1098863,23430,1.11,-1.103,0.099,-33.9,9.2,-37.8,-7.5,27.6,-13.2,0.0105594043,-0.638355663,-0.000854518265,-0.76964629
439,1101375,23440,1.11,-1.103,0.099,-33.9,9.2,-37.8,-7.5,27.6,-13.2,0.0105594043,-0.638355663,-0.000854518265,-0.76964629
440,1105136,23440,1.11,-1.103,0.099,-33.9,9.2,-37.8,-7.5,27.6,-13.2,0.0105594043,-0.638355663,-0.000854518265,-0.76964629
441,1107841,23440,1.11,-1.103,0.099,-33.9,9.2,-37.8,-7.5,27.6,-13.2,0.0105594043,-0.638355663,-0.000854518265,-0.76964629
442,1110365,23440,1.11,-1.103,0.099,-33.9,9.2,-37.8,-7.5,27.6,-13.2,0.0105594043,-0.638355663,-0.000854518265,-0.76964629
443,1113120,23450,1.11,-1.103,0.099,-33.9,9.2,-37.8,-7.5,27.6,-13.2,0.0105594043,-0.638355663,-0.000854518265,-0.76964629
444,1113514,23450,1.11,-1.103,0.099,-33.9,9.2,-37.8,-7.5,27.6,-13.2,0.0105594043,-0.638355663,-0.000854518265,-0.76964629
445,1116156,23450,1.11,-1.103,0.099,-33.9,9.2,-37.8,-7.5,27.6,-13.2,0.0105594043,-0.638355663,-0.000854518265,-0.76964629
446,1118744,23450,1.11,-1.103,0.099,-33.9,9.2,-37.8,-7.5,27.6,-13.2,0.0105594043,-0.638355663,-0.000854518265,-0.76964629
447,1121392,23460,1.11,-1.103,0.099,-33.9,9.2,-37.8,-7.5,27.6,-13.2,0.0105594043,-0.638355663,-0.000854518265,-0.76964629
448,1124210,23460,1.11,-1.103,0.099,-33.9,9.2,-37.8,-7.5,27.6,-13.2,0.0105594043,-0.638355663,-0.000854518265,-0.76964629
449,1126950,23460,1.11,-1.103,0.099,-33.9,9.2,-37.8,-7.5,27.6,-13.2,0.0105594043,-0.638355663,-0.000854518265,-0.76964629
450,1129562,23460,1.039,-1.223,0.077,64,22.7,2.6,-8.1,27.1,-13.8,0.0136722922,-0.627826777,-0.017670217,-0.778008362
451,1131577,23470,1.039,-1.223,0.077,64,22.7,2.6,-8.1,27.1,-13.8,0.0136722922,-0.627826777,-0.017670217,-0.778008362
452,1133968,23470,1.039,-1.223,0.077,64,22.7,2.6,-8.1,27.1,-13.8,0.0136722922,-0.627826777,-0.017670217,-0.778008362
453,1135978,23470,1.039,-1.223,0.077,64,22.7,2.6,-8.1,27.1,-13.8,0.0136722922,-0.627826777,-0.017670217,-0.778008362
454,1138475,23470,1.039,-1.223,0.077,64,22.7,2.6,-8.1,27.1,-13.8,0.0136722922,-0.627826777,-0.017670217,-0.778008362
455,1143175,23480,1.039,-1.223,0.077,64,22.7,2.6,-8.1,27.1,-13.8,0.0136722922,-0.627826777,-0.017670217,-0.778008362
456,1143532,23480,1.039,-1.223,0.077,64,22.7,2.6,-8.1,27.1,-13.8,0.0136722922,-0.627826777,-0.017670217,-0.778008362
457,1146011,23480,1.039,-1.223,0.077,64,22.7,2.6,-8.1,27.1,-13.8,0.0136722922,-0.627826777,-0.017670217,-0.778008362
458,1148608,23480,1.039,-1.223,0.077,64,22.7,2.6,-8.1,27.1,-13.8,0.0136722922,-0.627826777,-0.017670217,-0.778008362
459,1151037,23490,1.039,-1.223,0.077,64,22.7,2.6,-8.1,27.1,-13.8,0.0136722922,-0.627826777,-0.017670217,-0.778008362
460,1155451,23490,1.039,-1.223,0.077,64,22.7,2.6,-8.1,27.1,-13.8,0.0136722922,-0.627826777,-0.017670217,-0.778008362
461,1157670,23490,1.039,-1.223,0.077,64,22.7,2.6,-8.1,27.1,-13.8,0.0136722922,-0.627826777,-0.017670217,-0.778008362
462,1159901,23490,1.039,-1.223,0.077,64,22.7,2.6,-8.1,27.1,-13.8,0.0136722922,-0.627826777,-0.017670217,-0.778008362
463,1161492,23500,1.039,-1.223,0.077,64,22.7,2.6,-8.1,27.1,-13.8,0.0136722922,-0.627826777,-0.017670217,-0.778008362
464,1165606,23500,1.129,-1.042,-0.077,198.7,52.7,62,-7.6,25.9,-15.7,0.0455946532,-0.618091372,-0.0428174688,-0.783593249
465,1167910,23500,1.187,-0.992,-0.078,202.2,46.9,67,-7.5,25.3,-16.2,0.0495010224,-0.617145299,-0.0453199866,-0.783959471
466,1170005,23500,1.187,-0.992,-0.078,202.2,46.9,67,-7.5,25.3,-16.2,0.0495010224,-0.617145299,-0.0453199866,-0.783959471
467,1172280,23510,1.187,-0.992,-0.078,202.2,46.9,67,-7.5,25.3,-16.2,0.0495010224,-0.617145299,-0.0453199866,-0.783959471
468,1174676,23510,1.187,-0.992,-0.078,202.2,46.9,67,-7.5,25.3,-16.2,0.0495010224,-0.617145299,-0.0453199866,-0.783959471
469,1176486,23510,1.187,-0.992,-0.078,202.2,46.9,67,-7.5,25.3,-16.2,0.0495010224,-0.617145299,-0.0453199866,-0.783959471
470,1178840,23510,1.187,-0.992,-0.078,202.2,46.9,67,-7.5,25.3,-16.2,0.0495010224,-0.617145299,-0.0453199866,-0.783959471
471,1181074,23520,1.187,-0.992,-0.078,202.2,46.9,67,-7.5,25.3,-16.2,0.0495010224,-0.617145299,-0.0453199866,-0.783959471
472,1183651,23520,1.187,-0.992,-0.078,202.2,46.9,67,-7.5,25.3,-16.2,0.0495010224,-0.617145299,-0.0453199866,-0.783959471
473,1186092,23520,1.187,-0.992,-0.078,202.2,46.9,67,-7.5,25.3,-16.2,0.0495010224,-0.617145299,-0.0453199866,-0.783959471
474,1188788,23520,1.187,-0.992,-0.078,202.2,46.9,67,-7.5,25.3,-16.2,0.0495010224,-0.617145299,-0.0453199866,-0.783959471
475,1191405,23530,1.187,-0.992,-0.078,202.2,46.9,67,-7.5,25.3,-16.2,0.0495010224,-0.617145299,-0.0453199866,-0.783959471
476,1194844,23530,1.187,-0.992,-0.078,202.2,46.9,67,-7.5,25.3,-16.2,0.0495010224,-0.617145299,-0.0453199866,-0.783959471
477,1197746,23530,1.187,-0.992,-0.078,202.2,46.9,67,-7.5,25.3,-16.2,0.0495010224,-0.617145299,-0.0453199866,-0.783959471
478,1199944,23530,1.187,-0.992,-0.078,202.2,46.9,67,-7.5,25.3,-16.2,0.0495010224,-0.617145299,-0.0453199866,-0.783959471
479,1202236,23540,1.187,-0.992,-0.078,202.2,46.9,67,-7.5,25.3,-16.2,0.0495010224,-0.617145299,-0.0453199866,-0.783959471
480,1204092,23540,1.187,-0.992,-0.078,202.2,46.9,67,-7.5,25.3,-16.2,0.0495010224,-0.617145299,-0.0453199866,-0.783959471
481,1206328,23540,1.187,-0.992,-0.078,202.2,46.9,67,-7.5,25.3,-16.2,0.0495010224,-0.617145299,-0.0453199866,-0.783959471
482,1208685,23540,1.187,-0.992,-0.078,202.2,46.9,67,-7.5,25.3,-16.2,0.0495010224,-0.617145299,-0.0453199866,-0.783959471
483,1213048,23550,1.187,-0.992,-0.078,202.2,46.9,67,-7.5,25.3,-16.2,0.0495010224,-0.617145299,-0.0453199866,-0.783959471
484,1215236,23550,1.187,-0.992,-0.078,202.2,46.9,67,-7.5,25.3,-16.2,0.0495010224,-0.617145299,-0.0453199866,-0.783959471
485,1217509,23550,1.187,-0.992,-0.078,202.2,46.9,67,-7.5,25.3,-16.2,0.0495010224,-0.617145299,-0.0453199866,-0.783959471
486,1219700,23550,1.187,-0.992,-0.078,202.2,46.9,67,-7.5,25.3,-16.2,0.0495010224,-0.617145299,-0.0453199866,-0.783959471
487,1221934,23560,1.187,-0.992,-0.078,202.2,46.9,67,-7.5,25.3,-16.2,0.0495010224,-0.617145299,-0.0453199866,-0.783959471
488,1223923,23560,1.187,-0.992,-0.078,202.2,46.9,67,-7.5,25.3,-16.2,0.0495010224,-0.617145299,-0.0453199866,-0.783959471
489,1227888,23560,1.187,-0.992,-0.078,202.2,46.9,67,-7.5,25.3,-16.2,0.0495010224,-0.617145299,-0.0453199866,-0.783959471
490,1230205,23560,1.169,-0.379,-0.185,274.1,66.4,171.2,-3,23.2,-21.9,0.188421278,-0.580858791,-0.109805597,-0.784203619
491,1232225,23570,1.169,-0.379,-0.185,274.1,66.4,171.2,-3,23.2,-21.9,0.188421278,-0.580858791,-0.109805597,-0.784203619
492,1234503,23570,1.2,-0.286,-0.307,279.4,68.3,186,-3,23.2,-21.9,0.202002014,-0.577074496,-0.114108707,-0.783013398
493,1238151,23570,1.2,-0.286,-0.307,279.4,68.3,186,-3,23.2,-21.9,0.202002014,-0.577074496,-0.114108707,-0.783013398
494,1238520,23570,1.247,-0.221,-0.402,292.9,68,199,-2.3,21.9,-23,0.216284677,-0.573107089,-0.118442335,-0.781487472
495,1241292,23580,1.247,-0.221,-0.402,292.9,68,199,-2.3,21.9,-23,0.216284677,-0.573107089,-0.118442335,-0.781487472
496,1244103,23580,1.247,-0.221,-0.402,292.9,68,199,-2.3,21.9,-23,0.216284677,-0.573107089,-0.118442335,-0.781487472
497,1246611,23580,1.247,-0.221,-0.402,292.9,68,199,-2.3,21.9,-23,0.216284677,-0.573107089,-0.118442335,-0.781487472
498,1249923,23580,1.247,-0.221,-0.402,292.9,68,199,-2.3,21.9,-23,0.216284677,-0.573107089,-0.118442335,-0.781487472
499,1252108,23590,1.247,-0.221,-0.402,292.9,68,199,-2.3,21.9,-23,0.216284677,-0.573107089,-0.118442335,-0.781487472
500,1254150,23590,1.247,-0.221,-0.402,292.9,68,199,-2.3,21.9,-23,0.216284677,-0.573107089,-0.118442335,-0.781487472
501,1256388,23590,1.247,-0.221,-0.402,292.9,68,199,-2.3,21.9,-23,0.216284677,-0.573107089,-0.118442335,-0.781487472
502,1258686,23590,1.247,-0.221,-0.402,292.9,68,199,-2.3,21.9,-23,0.216284677,-0.573107089,-0.118442335,-0.781487472
503,1261241,23600,1.247,-0.221,-0.402,292.9,68,199,-2.3,21.9,-23,0.216284677,-0.573107089,-0.118442335,-0.781487472
504,1263840,23600,1.247,-0.221,-0.402,292.9,68,199,-2.3,21.9,-23,0.216284677,-0.573107089,-0.118442335,-0.781487472
505,1266017,23600,1.247,-0.221,-0.402,292.9,68,199,-2.3,21.9,-23,0.216284677,-0.573107089,-0.118442335,-0.781487472
506,1269591,23600,1.247,-0.221,-0.402,292.9,68,199,-2.3,21.9,-23,0.216284677,-0.573107089,-0.118442335,-0.781487472
507,1271289,23610,1.531,0.384,-0.201,440.3,-29.3,288.3,0.2,18.6,-26,0.333262123,-0.545976135,-0.163731803,-0.750968963
508,1273647,23610,1.531,0.384,-0.201,440.3,-29.3,288.3,0.2,18.6,-26,0.333262123,-0.545976135,-0.163731803,-0.750968963
509,1278539,23610,1.531,0.384,-0.201,440.3,-29.3,288.3,0.2,18.6,-26,0.333262123,-0.545976135,-0.163731803,-0.750968963
510,1278539,23610,1.68,0.487,-0.184,359.7,-30.2,288.8,1.1,15.3,-26.9,0.360942412,-0.541825617,-0.173192541,-0.738975188
511,1283003,23620,1.68,0.487,-0.184,359.7,-30.2,288.8,1.1,15.3,-26.9,0.360942412,-0.541825617,-0.173192541,-0.738975188
512,1285241,23620,1.988,0.637,-0.296,287,-18.3,290.3,1.1,15.3,-26.9,0.377269814,-0.539841914,-0.176519059,-0.731437117
513,1287468,23620,1.988,0.637,-0.296,287,-18.3,290.3,1.1,15.3,-26.9,0.377269814,-0.539841914,-0.176519059,-0.731437117
514,1289740,23620,1.988,0.637,-0.296,287,-18.3,290.3,1.1,15.3,-26.9,0.377269814,-0.539841914,-0.176519059,-0.731437117
515,1291661,23630,1.988,0.637,-0.296,287,-18.3,290.3,1.1,15.3,-26.9,0.377269814,-0.539841914,-0.176519059,-0.731437117
516,1293933,23630,1.988,0.637,-0.296,287,-18.3,290.3,1.1,15.3,-26.9,0.377269814,-0.539841914,-0.176519059,-0.731437117
517,1296336,23630,1.988,0.637,-0.296,287,-18.3,290.3,1.1,15.3,-26.9,0.377269814,-0.539841914,-0.176519059,-0.731437117
518,1298551,23630,1.988,0.637,-0.296,287,-18.3,290.3,1.1,15.3,-26.9,0.377269814,-0.539841914,-0.176519059,-0.731437117
519,1302700,23640,1.988,0.637,-0.296,287,-18.3,290.3,1.1,15.3,-26.9,0.377269814,-0.539841914,-0.176519059,-0.731437117
520,1304953,23640,1.988,0.637,-0.296,287,-18.3,290.3,1.1,15.3,-26.9,0.377269814,-0.539841914,-0.176519059,-0.731437117
521,1307197,23640,0.846,0.491,-0.541,83.3,182.9,394.5,3.6,13,-27.7,0.443739128,-0.525223548,-0.15561388,-0.709219642
522,1309504,23640,0.476,0.18,-0.78,83.3,182.9,394.5,3.6,13,-27.7,0.451399274,-0.522904141,-0.150608844,-0.707174902
523,1313234,23650,0.982,0.672,-0.755,85.9,169.9,395.5,3.6,13,-27.7,0.458998383,-0.520706809,-0.145725883,-0.704886013
524,1313560,23650,1.41,1.072,-0.497,94,155.4,391.3,3.6,13,-27.7,0.466566973,-0.518601032,-0.141178625,-0.702414014
525,1317780,23650,1.41,1.072,-0.497,94,155.4,391.3,3.6,13,-27.7,0.466566973,-0.518601032,-0.141178625,-0.702414014
526,1320582,23650,1.41,1.072,-0.497,94,155.4,391.3,3.6,13,-27.7,0.466566973,-0.518601032,-0.141178625,-0.702414014
527,1321009,23660,0.794,0.421,-0.716,8.2,195.2,407.3,4.9,12.3,-27.7,0.488052004,-0.512466811,-0.125064852,-0.69533372
528,1325891,23660,0.794,0.421,-0.716,8.2,195.2,407.3,4.9,12.3,-27.7,0.488052004,-0.512466811,-0.125064852,-0.69533372
529,1326330,23660,0.595,-0.026,-0.382,-165,260.4,463.9,7.1,11.5,-27.3,0.500228889,-0.509933775,-0.10605182,-0.691702017
530,1328548,23660,0.595,-0.026,-0.382,-165,260.4,463.9,7.1,11.5,-27.3,0.500228889,-0.509933775,-0.10605182,-0.691702017
531,1331037,23670,0.595,-0.026,-0.382,-165,260.4,463.9,7.1,11.5,-27.3,0.500228889,-0.509933775,-0.10605182,-0.691702017
532,1335617,23670,0.595,-0.026,-0.382,-165,260.4,463.9,7.1,11.5,-27.3,0.500228889,-0.509933775,-0.10605182,-0.691702017
533,1335987,23670,0.595,-0.026,-0.382,-165,260.4,463.9,7.1,11.5,-27.3,0.500228889,-0.509933775,-0.10605182,-0.691702017
534,1340302,23670,0.595,-0.026,-0.382,-165,260.4,463.9,7.1,11.5,-27.3,0.500228889,-0.509933775,-0.10605182,-0.691702017
535,1342611,23680,0.595,-0.026,-0.382,-165,260.4,463.9,7.1,11.5,-27.3,0.500228889,-0.509933775,-0.10605182,-0.691702017
536,1344655,23680,0.595,-0.026,-0.382,-165,260.4,463.9,7.1,11.5,-27.3,0.500228889,-0.509933775,-0.10605182,-0.691702017
537,1347013,23680,0.595,-0.026,-0.382,-165,260.4,463.9,7.1,11.5,-27.3,0.500228889,-0.509933775,-0.10605182,-0.691702017
538,1348664,23680,0.595,-0.026,-0.382,-165,260.4,463.9,7.1,11.5,-27.3,0.500228889,-0.509933775,-0.10605182,-0.691702017
539,1351278,23690,0.595,-0.026,-0.382,-165,260.4,463.9,7.1,11.5,-27.3,0.500228889,-0.509933775,-0.10605182,-0.691702017
540,1353942,23690,0.595,-0.026,-0.382,-165,260.4,463.9,7.1,11.5,-27.3,0.500228889,-0.509933775,-0.10605182,-0.691702017
541,1356299,23690,0.595,-0.026,-0.382,-165,260.4,463.9,7.1,11.5,-27.3,0.500228889,-0.509933775,-0.10605182,-0.691702017
542,1358478,23690,0.595,-0.026,-0.382,-165,260.4,463.9,7.1,11.5,-27.3,0.500228889,-0.509933775,-0.10605182,-0.691702017
543,1360973,23700,0.595,-0.026,-0.382,-165,260.4,463.9,7.1,11.5,-27.3,0.500228889,-0.509933775,-0.10605182,-0.691702017
544,1365486,23700,0.595,-0.026,-0.382,-165,260.4,463.9,7.1,11.5,-27.3,0.500228889,-0.509933775,-0.10605182,-0.691702017
545,1367811,23700,0.595,-0.026,-0.382,-165,260.4,463.9,7.1,11.5,-27.3,0.500228889,-0.509933775,-0.10605182,-0.691702017
546,1370515,23700,0.595,-0.026,-0.382,-165,260.4,463.9,7.1,11.5,-27.3,0.500228889,-0.509933775,-0.10605182,-0.691702017
547,1373012,23710,0.595,-0.026,-0.382,-165,260.4,463.9,7.1,11.5,-27.3,0.500228889,-0.509933775,-0.10605182,-0.691702017
548,1373497,23710,0.595,-0.026,-0.382,-165,260.4,463.9,7.1,11.5,-27.3,0.500228889,-0.509933775,-0.10605182,-0.691702017
549,1378038,23710,0.595,-0.026,-0.382,-165,260.4,463.9,7.1,11.5,-27.3,0.500228889,-0.509933775,-0.10605182,-0.691702017
550,1380356,23710,0.595,-0.026,-0.382,-165,260.4,463.9,7.1,11.5,-27.3,0.500228889,-0.509933775,-0.10605182,-0.691702017
551,1382664,23720,0.595,-0.026,-0.382,-165,260.4,463.9,7.1,11.5,-27.3,0.500228889,-0.509933775,-0.10605182,-0.691702017
552,1384785,23720,0.595,-0.026,-0.382,-165,260.4,463.9,7.1,11.5,-27.3,0.500228889,-0.509933775,-0.10605182,-0.691702017
553,1387053,23720,0.595,-0.026,-0.382,-165,260.4,463.9,7.1,11.5,-27.3,0.500228889,-0.509933775,-0.10605182,-0.691702017
554,1388940,23720,0.595,-0.026,-0.382,-165,260.4,463.9,7.1,11.5,-27.3,0.500228889,-0.509933775,-0.10605182,-0.691702017
555,1390971,23730,0.595,-0.026,-0.382,-165,260.4,463.9,7.1,11.5,-27.3,0.500228889,-0.509933775,-0.10605182,-0.691702017
556,1393617,23730,0.595,-0.026,-0.382,-165,260.4,463.9,7.1,11.5,-27.3,0.500228889,-0.509933775,-0.10605182,-0.691702017
557,1396198,23730,0.595,-0.026,-0.382,-165,260.4,463.9,7.1,11.5,-27.3,0.500228889,-0.509933775,-0.10605182,-0.691702017
558,1398854,23730,0.595,-0.026,-0.382,-165,260.4,463.9,7.1,11.5,-27.3,0.500228889,-0.509933775,-0.10605182,-0.691702017
559,1402740,23740,0.595,-0.026,-0.382,-165,260.4,463.9,7.1,11.5,-27.3,0.500228889,-0.509933775,-0.10605182,-0.691702017
560,1404976,23740,0.595,-0.026,-0.382,-165,260.4,463.9,7.1,11.5,-27.3,0.500228889,-0.509933775,-0.10605182,-0.691702017
561,1407279,23740,0.595,-0.026,-0.382,-165,260.4,463.9,7.1,11.5,-27.3,0.500228889,-0.509933775,-0.10605182,-0.691702017
562,1409059,23740,0.595,-0.026,-0.382,-165,260.4,463.9,7.1,11.5,-27.3,0.500228889,-0.509933775,-0.10605182,-0.691702017
563,1411397,23750,0.595,-0.026,-0.382,-165,260.4,463.9,7.1,11.5,-27.3,0.500228889,-0.509933775,-0.10605182,-0.691702017
564,1413674,23750,0.595,-0.026,-0.382,-165,260.4,463.9,7.1,11.5,-27.3,0.500228889,-0.509933775,-0.10605182,-0.691702017
565,1416227,23750,0.595,-0.026,-0.382,-165,260.4,463.9,7.1,11.5,-27.3,0.500228889,-0.509933775,-0.10605182,-0.691702017
566,1418499,23750,0.595,-0.026,-0.382,-165,260.4,463.9,7.1,11.5,-27.3,0.500228889,-0.509933775,-0.10605182,-0.691702017
567,1422992,23760,0.595,-0.026,-0.382,-165,260.4,463.9,7.1,11.5,-27.3,0.500228889,-0.509933775,-0.10605182,-0.691702017
568,1424968,23760,0.595,-0.026,-0.382,-165,260.4,463.9,7.1,11.5,-27.3,0.500228889,-0.509933775,-0.10605182,-0.691702017
569,1427114,23760,0.595,-0.026,-0.382,-165,260.4,463.9,7.1,11.5,-27.3,0.500228889,-0.509933775,-0.10605182,-0.691702017
570,1429120,23760,0.595,-0.026,-0.382,-165,260.4,463.9,7.1,11.5,-27.3,0.500228889,-0.509933775,-0.10605182,-0.691702017
571,1431192,23770,0.595,-0.026,-0.382,-165,260.4,463.9,7.1,11.5,-27.3,0.500228889,-0.509933775,-0.10605182,-0.691702017
572,1433798,23770,0.595,-0.026,-0.382,-165,260.4,463.9,7.1,11.5,-27.3,0.500228889,-0.509933775,-0.10605182,-0.691702017
573,1436359,23770,0.595,-0.026,-0.382,-165,260.4,463.9,7.1,11.5,-27.3,0.500228889,-0.509933775,-0.10605182,-0.691702017
574,1438686,23770,0.595,-0.026,-0.382,-165,260.4,463.9,7.1,11.5,-27.3,0.500228889,-0.509933775,-0.10605182,-0.691702017
575,1441261,23780,0.595,-0.026,-0.382,-165,260.4,463.9,7.1,11.5,-27.3,0.500228889,-0.509933775,-0.10605182,-0.691702017
576,1443558,23780,0.595,-0.026,-0.382,-165,260.4,463.9,7.1,11.5,-27.3,0.500228889,-0.509933775,-0.10605182,-0.691702017
577,1447229,23780,0.595,-0.026,-0.382,-165,260.4,463.9,7.1,11.5,-27.3,0.500228889,-0.509933775,-0.10605182,-0.691702017
578,1449644,23780,0.595,-0.026,-0.382,-165,260.4,463.9,7.1,11.5,-27.3,0.500228889,-0.509933775,-0.10605182,-0.691702017
579,1451420,23790,0.595,-0.026,-0.382,-165,260.4,463.9,7.1,11.5,-27.3,0.500228889,-0.509933775,-0.10605182,-0.691702017
580,1453737,23790,0.595,-0.026,-0.382,-165,260.4,463.9,7.1,11.5,-27.3,0.500228889,-0.509933775,-0.10605182,-0.691702017
581,1456099,23790,0.595,-0.026,-0.382,-165,260.4,463.9,7.1,11.5,-27.3,0.500228889,-0.509933775,-0.10605182,-0.691702017
582,1458768,23790,0.595,-0.026,-0.382,-165,260.4,463.9,7.1,11.5,-27.3,0.500228889,-0.509933775,-0.10605182,-0.691702017
583,1461273,23800,0.595,-0.026,-0.382,-165,260.4,463.9,7.1,11.5,-27.3,0.500228889,-0.509933775,-0.10605182,-0.691702017
584,1463530,23800,0.595,-0.026,-0.382,-165,260.4,463.9,7.1,11.5,-27.3,0.500228889,-0.509933775,-0.10605182,-0.691702017
585,1466034,23800,0.595,-0.026,-0.382,-165,260.4,463.9,7.1,11.5,-27.3,0.500228889,-0.509933775,-0.10605182,-0.691702017
586,1470475,23800,0.595,-0.026,-0.382,-165,260.4,463.9,7.1,11.5,-27.3,0.500228889,-0.509933775,-0.10605182,-0.691702017
587,1472841,23810,0.595,-0.026,-0.382,-165,260.4,463.9,7.1,11.5,-27.3,0.500228889,-0.509933775,-0.10605182,-0.691702017
588,1474650,23810,0.595,-0.026,-0.382,-165,260.4,463.9,7.1,11.5,-27.3,0.500228889,-0.509933775,-0.10605182,-0.691702017
589,1476980,23810,0.595,-0.026,-0.382,-165,260.4,463.9,7.1,11.5,-27.3,0.500228889,-0.509933775,-0.10605182,-0.691702017
590,1478893,23810,0.595,-0.026,-0.382,-165,260.4,463.9,7.1,11.5,-27.3,0.500228889,-0.509933775,-0.10605182,-0.691702017
591,1481245,23820,0.595,-0.026,-0.382,-165,260.4,463.9,7.1,11.5,-27.3,0.500228889,-0.509933775,-0.10605182,-0.691702017
592,1484586,23820,0.595,-0.026,-0.382,-165,260.4,463.9,7.1,11.5,-27.3,0.500228889,-0.509933775,-0.10605182,-0.691702017
593,1487462,23820,0.595,-0.026,-0.382,-165,260.4,463.9,7.1,11.5,-27.3,0.500228889,-0.509933775,-0.10605182,-0.691702017
594,1489810,23820,0.595,-0.026,-0.382,-165,260.4,463.9,7.1,11.5,-27.3,0.500228889,-0.509933775,-0.10605182,-0.691702017
595,1491647,23830,0.595,-0.026,-0.382,-165,260.4,463.9,7.1,11.5,-27.3,0.500228889,-0.509933775,-0.10605182,-0.691702017
596,1493855,23830,0.595,-0.026,-0.382,-165,260.4,463.9,7.1,11.5,-27.3,0.500228889,-0.509933775,-0.10605182,-0.691702017
597,1496109,23830,0.595,-0.026,-0.382,-165,260.4,463.9,7.1,11.5,-27.3,0.500228889,-0.509933775,-0.10605182,-0.691702017
598,1498676,23830,0.595,-0.026,-0.382,-165,260.4,463.9,7.1,11.5,-27.3,0.500228889,-0.509933775,-0.10605182,-0.691702017
599,1500997,23840,0.595,-0.026,-0.382,-165,260.4,463.9,7.1,11.5,-27.3,0.500228889,-0.509933775,-0.10605182,-0.691702017
600,1505522,23840,0.595,-0.026,-0.382,-165,260.4,463.9,7.1,11.5,-27.3,0.500228889,-0.509933775,-0.10605182,-0.691702017
601,1507867,23840,0.595,-0.026,-0.382,-165,260.4,463.9,7.1,11.5,-27.3,0.500228889,-0.509933775,-0.10605182,-0.691702017
602,1509889,23840,0.595,-0.026,-0.382,-165,260.4,463.9,7.1,11.5,-27.3,0.500228889,-0.509933775,-0.10605182,-0.691702017
603,1511526,23850,0.595,-0.026,-0.382,-165,260.4,463.9,7.1,11.5,-27.3,0.500228889,-0.509933775,-0.10605182,-0.691702017
604,1513743,23850,0.595,-0.026,-0.382,-165,260.4,463.9,7.1,11.5,-27.3,0.500228889,-0.509933775,-0.10605182,-0.691702017
605,1517069,23850,0.595,-0.026,-0.382,-165,260.4,463.9,7.1,11.5,-27.3,0.500228889,-0.509933775,-0.10605182,-0.691702017
606,1519013,23850,0.595,-0.026,-0.382,-165,260.4,463.9,7.1,11.5,-27.3,0.500228889,-0.509933775,-0.10605182,-0.691702017
607,1521210,23860,0.595,-0.026,-0.382,-165,260.4,463.9,7.1,11.5,-27.3,0.500228889,-0.509933775,-0.10605182,-0.691702017
608,1523535,23860,0.595,-0.026,-0.382,-165,260.4,463.9,7.1,11.5,-27.3,0.500228889,-0.509933775,-0.10605182,-0.691702017
609,1526052,23860,0.595,-0.026,-0.382,-165,260.4,463.9,7.1,11.5,-27.3,0.500228889,-0.509933775,-0.10605182,-0.691702017
610,1530516,23860,0.595,-0.026,-0.382,-165,260.4,463.9,7.1,11.5,-27.3,0.500228889,-0.509933775,-0.10605182,-0.691702017
611,1532801,23870,0.595,-0.026,-0.382,-165,260.4,463.9,7.1,11.5,-27.3,0.500228889,-0.509933775,-0.10605182,-0.691702017
612,1535166,23870,0.595,-0.026,-0.382,-165,260.4,463.9,7.1,11.5,-27.3,0.500228889,-0.509933775,-0.10605182,-0.691702017
613,1537331,23870,0.734,-0.494,0.23,-27.3,23.8,67.3,9.7,15.8,-25.5,0.502273629,-0.565843684,-0.00296029542,-0.653798029
614,1539069,23870,0.734,-0.494,0.23,-27.3,23.8,67.3,9.7,15.8,-25.5,0.502273629,-0.565843684,-0.00296029542,-0.653798029
615,1541368,23880,0.734,-0.494,0.23,-27.3,23.8,67.3,9.7,15.8,-25.5,0.502273629,-0.565843684,-0.00296029542,-0.653798029
616,1543938,23880,0.734,-0.494,0.23,-27.3,23.8,67.3,9.7,15.8,-25.5,0.502273629,-0.565843684,-0.00296029542,-0.653798029
617,1546591,23880,0.734,-0.494,0.23,-27.3,23.8,67.3,9.7,15.8,-25.5,0.502273629,-0.565843684,-0.00296029542,-0.653798029
618,1548836,23880,0.734,-0.494,0.23,-27.3,23.8,67.3,9.7,15.8,-25.5,0.502273629,-0.565843684,-0.00296029542,-0.653798029
619,1551179,23890,0.734,-0.494,0.23,-27.3,23.8,67.3,9.7,15.8,-25.5,0.502273629,-0.565843684,-0.00296029542,-0.653798029
620,1553724,23890,0.734,-0.494,0.23,-27.3,23.8,67.3,9.7,15.8,-25.5,0.502273629,-0.565843684,-0.00296029542,-0.653798029
621,1556406,23890,0.734,-0.494,0.23,-27.3,23.8,67.3,9.7,15.8,-25.5,0.502273629,-0.565843684,-0.00296029542,-0.653798029
622,1558663,23890,0.734,-0.494,0.23,-27.3,23.8,67.3,9.7,15.8,-25.5,0.502273629,-0.565843684,-0.00296029542,-0.653798029
623,1560954,23900,0.734,-0.494,0.23,-27.3,23.8,67.3,9.7,15.8,-25.5,0.502273629,-0.565843684,-0.00296029542,-0.653798029
624,1565127,23900,0.734,-0.494,0.23,-27.3,23.8,67.3,9.7,15.8,-25.5,0.502273629,-0.565843684,-0.00296029542,-0.653798029
625,1567110,23900,0.786,-0.236,0.424,47.2,-24.8,48.7,9.7,15.4,-25.4,0.513016144,-0.568132572,0.0057985168,-0.643391217
626,1569140,23900,0.786,-0.236,0.424,47.2,-24.8,48.7,9.7,15.4,-25.4,0.513016144,-0.568132572,0.0057985168,-0.643391217
627,1571390,23910,0.822,-0.135,0.478,43.2,-7.7,52.8,9.7,15.4,-25.4,0.515549181,-0.567461165,0.00555436872,-0.641956847
628,1574642,23910,0.822,-0.135,0.478,43.2,-7.7,52.8,9.7,15.4,-25.4,0.515549181,-0.567461165,0.00555436872,-0.641956847
629,1576393,23910,0.822,-0.135,0.478,43.2,-7.7,52.8,9.7,15.4,-25.4,0.515549181,-0.567461165,0.00555436872,-0.641956847
630,1578676,23910,0.822,-0.135,0.478,43.2,-7.7,52.8,9.7,15.4,-25.4,0.515549181,-0.567461165,0.00555436872,-0.641956847
631,1581179,23920,0.822,-0.135,0.478,43.2,-7.7,52.8,9.7,15.4,-25.4,0.515549181,-0.567461165,0.00555436872,-0.641956847
632,1585810,23920,0.822,-0.135,0.478,43.2,-7.7,52.8,9.7,15.4,-25.4,0.515549181,-0.567461165,0.00555436872,-0.641956847
633,1586174,23920,0.76,-0.146,0.444,5,-0.8,52.7,9.1,15.4,-25.9,0.522080142,-0.565599536,0.00790429395,-0.638294626
634,1590582,23920,0.76,-0.146,0.444,5,-0.8,52.7,9.1,15.4,-25.9,0.522080142,-0.565599536,0.00790429395,-0.638294626
635,1592602,23930,0.752,-0.185,0.436,-8,-7.8,35.3,9.1,15.4,-25.9,0.523087252,-0.565843684,0.00894192328,-0.637226478
636,1595325,23930,0.752,-0.185,0.436,-8,-7.8,35.3,9.1,15.4,-25.9,0.523087252,-0.565843684,0.00894192328,-0.637226478
637,1597696,23930,0.752,-0.185,0.436,-8,-7.8,35.3,9.1,15.4,-25.9,0.523087252,-0.565843684,0.00894192328,-0.637226478
638,1599840,23930,0.849,-0.093,0.423,-5.7,-16.5,9.3,9.2,15.1,-25.9,0.523453475,-0.566759239,0.00936918241,-0.636097293
639,1602156,23940,0.974,-0.033,0.393,-1.4,-12.5,4.9,9.2,15.1,-25.9,0.523514512,-0.566972869,0.00930814539,-0.635883663
640,1604014,23940,0.915,-0.087,0.359,-0.5,-7.1,-0.9,9.2,15.1,-25.9,0.523483993,-0.567064425,0.00921658986,-0.635792108
641,1606339,23940,0.915,-0.087,0.359,-0.5,-7.1,-0.9,9.2,15.1,-25.9,0.523483993,-0.567064425,0.00921658986,-0.635792108
642,1609101,23940,0.915,-0.087,0.359,-0.5,-7.1,-0.9,9.2,15.1,-25.9,0.523483993,-0.567064425,0.00921658986,-0.635792108
643,1611372,23950,0.915,-0.087,0.359,-0.5,-7.1,-0.9,9.2,15.1,-25.9,0.523483993,-0.567064425,0.00921658986,-0.635792108
644,1613668,23950,0.915,-0.087,0.359,-0.5,-7.1,-0.9,9.2,15.1,-25.9,0.523483993,-0.567064425,0.00921658986,-0.635792108
645,1617943,23950,1.287,0.074,0.41,-51.4,-6.1,-61.6,8.7,15.7,-25.5,0.518051698,-0.568742943,0.0070802942,-0.638782922
646,1620154,23950,1.287,0.09,0.422,-61,-2.6,-69.4,8.7,15.7,-25.5,0.516312143,-0.569475387,0.00704977569,-0.639545885
647,1622366,23960,1.287,0.09,0.422,-61,-2.6,-69.4,8.7,15.7,-25.5,0.516312143,-0.569475387,0.00704977569,-0.639545885
648,1624579,23960,1.287,0.09,0.422,-61,-2.6,-69.4,8.7,15.7,-25.5,0.516312143,-0.569475387,0.00704977569,-0.639545885
649,1628098,23960,1.287,0.09,0.422,-61,-2.6,-69.4,8.7,15.7,-25.5,0.516312143,-0.569475387,0.00704977569,-0.639545885
650,1628733,23960,1.252,-0.03,0.364,-113.7,46.7,-82.4,9,15.8,-25.6,0.507095553,-0.572222053,0.00946073794,-0.644398328
651,1632002,23970,1.252,-0.03,0.364,-113.7,46.7,-82.4,9,15.8,-25.6,0.507095553,-0.572222053,0.00946073794,-0.644398328
652,1633785,23970,0.856,-0.254,0.247,-131.7,66.7,-75,9,15.8,-25.6,0.501693777,-0.573320719,0.0125125889,-0.647602771
653,1637748,23970,0.856,-0.254,0.247,-131.7,66.7,-75,9,15.8,-25.6,0.501693777,-0.573320719,0.0125125889,-0.647602771
654,1639936,23970,0.77,-0.284,0.244,-134.1,74.1,-70.8,9,16.9,-24.6,0.496261483,-0.574236274,0.016113773,-0.65089877
655,1641904,23980,0.746,-0.284,0.249,-130.2,71.6,-71.6,9,16.9,-24.6,0.493575854,-0.574633015,0.0178228095,-0.652516251
656,1644343,23980,0.746,-0.284,0.249,-130.2,71.6,-71.6,9,16.9,-24.6,0.493575854,-0.574633015,0.0178228095,-0.652516251
657,1646377,23980,0.758,-0.292,0.241,-124.3,63,-79.9,9.1,17.1,-23.9,0.488174078,-0.575518052,0.0208746605,-0.655720695
658,1650487,23980,0.785,-0.273,0.244,-125.6,60.2,-86.8,9.1,17.1,-23.9,0.485335856,-0.576036866,0.0222174749,-0.657338176
659,1652666,23990,0.765,-0.327,0.217,-129.4,58.6,-94.3,9.1,17.1,-23.9,0.482314524,-0.576616718,0.0235297708,-0.659016694
660,1654907,23990,0.765,-0.327,0.217,-129.4,58.6,-94.3,9.1,17.1,-23.9,0.482314524,-0.576616718,0.0235297708,-0.659016694
661,1657167,23990,0.8,-0.379,0.17,-138.5,54.7,-106.3,8.4,17.7,-23.1,0.475814081,-0.577959532,0.0260017701,-0.662434767
662,1659173,23990,0.8,-0.379,0.17,-140.4,50.8,-109.3,8.4,17.7,-23.1,0.472457045,-0.578753014,0.0271919919,-0.664113285
663,1661448,24000,0.859,-0.341,0.176,-139.2,46.3,-111,8.4,17.7,-23.1,0.469038972,-0.579577013,0.0282906583,-0.665761284
664,1665543,24000,0.859,-0.341,0.176,-139.2,46.3,-111,8.4,17.7,-23.1,0.469038972,-0.579577013,0.0282906583,-0.665761284
665,1667856,24000,0.925,-0.357,0.151,-132.8,39.1,-114.8,8.9,18.5,-22.3,0.462263863,-0.581255531,0.0301522874,-0.668935209
666,1669915,24000,0.925,-0.357,0.151,-132.8,39.1,-114.8,8.9,18.5,-22.3,0.462263863,-0.581255531,0.0301522874,-0.668935209
667,1671540,24010,0.925,-0.357,0.151,-132.8,39.1,-114.8,8.9,18.5,-22.3,0.462263863,-0.581255531,0.0301522874,-0.668935209
668,1675791,24010,0.827,-0.387,0.075,-130.1,40.5,-126.1,8.9,18.5,-22.3,0.451857051,-0.583697012,0.0323801386,-0.673818171
669,1676211,24010,0.142,-0.658,0.01,-129.9,42.1,-131.2,8.9,19.6,-25.1,0.448255867,-0.584429456,0.0330515458,-0.675527207
670,1680161,24010,0.142,-0.658,0.01,-129.9,42.1,-131.2,8.9,19.6,-25.1,0.448255867,-0.584429456,0.0330515458,-0.675527207
671,1682476,24020,0.314,-0.649,-0.055,-120.2,27.8,-155.4,8.9,19.6,-25.1,0.440656758,-0.586077456,0.0336008789,-0.679097873
672,1684824,24020,0.314,-0.649,-0.055,-120.2,27.8,-155.4,8.9,19.6,-25.1,0.440656758,-0.586077456,0.0336008789,-0.679097873
673,1686631,24020,0.314,-0.649,-0.055,-120.2,27.8,-155.4,8.9,19.6,-25.1,0.440656758,-0.586077456,0.0336008789,-0.679097873
674,1690734,24020,0.314,-0.649,-0.055,-120.2,27.8,-155.4,8.9,19.6,-25.1,0.440656758,-0.586077456,0.0336008789,-0.679097873
675,1691154,24030,0.705,-0.527,-0.027,-65.4,-79.8,-223.7,8.3,19.8,-23,0.424298837,-0.592150639,0.0266731773,-0.684530168
676,1695594,24030,0.705,-0.527,-0.027,-65.4,-79.8,-223.7,8.3,19.8,-23,0.424298837,-0.592150639,0.0266731773,-0.684530168
677,1697795,24030,0.861,-0.49,-0.038,-54.9,-110.9,-222.1,7.6,20.2,-22.1,0.416211432,-0.596545305,0.0206915494,-0.685872982
678,1699779,24030,0.924,-0.472,-0.031,-50,-121.7,-217.4,7.6,20.2,-22.1,0.4123661,-0.59889523,0.0174565874,-0.686208686
679,1702264,24040,0.979,-0.43,-0.021,-44.2,-129.4,-211.4,7.6,20.2,-22.1,0.40867336,-0.601306192,0.0142216254,-0.686391797
680,1704031,24040,0.99,-0.43,-0.013,-37.6,-132.9,-205.1,7.6,20.2,-22.1,0.405133213,-0.603686636,0.0109256264,-0.686483352
681,1707086,24040,1.053,-0.395,0.016,-30.9,-131.5,-198.5,6.4,20.7,-22.6,0.401776177,-0.605975524,0.00759910886,-0.686483352
682,1708870,24040,1.084,-0.384,0.027,-24.6,-125.8,-191.7,6.4,20.7,-22.6,0.398602252,-0.60811182,0.00433362835,-0.686483352
683,1711207,24050,1.084,-0.384,0.027,-24.6,-125.8,-191.7,6.4,20.7,-22.6,0.398602252,-0.60811182,0.00433362835,-0.686483352
684,1713763,24050,1.12,-0.318,0.085,-13.6,-103,-177.8,6.4,20.7,-22.6,0.392742698,-0.611682485,-0.00186162908,-0.686696982
685,1717047,24050,1.101,-0.282,0.125,-9.8,-86.8,-170.5,5.3,20.7,-23.1,0.39005707,-0.613055818,-0.00473036897,-0.687002167
686,1718685,24050,1.078,-0.274,0.141,-8.3,-68,-163.1,5.3,20.7,-23.1,0.387493515,-0.614123966,-0.00738547929,-0.687459944
687,1723634,24060,1.078,-0.274,0.141,-8.3,-68,-163.1,5.3,20.7,-23.1,0.387493515,-0.614123966,-0.00738547929,-0.687459944
688,1723634,24060,1.019,-0.238,0.177,-10.9,-27.6,-149.5,5.3,20.7,-23.1,0.382610553,-0.615375225,-0.0118106632,-0.689016388
689,1726328,24060,1.019,-0.238,0.177,-10.9,-27.6,-149.5,5.3,20.7,-23.1,0.382610553,-0.615375225,-0.0118106632,-0.689016388
690,1730186,24060,0.926,-0.244,0.187,-16.1,10.9,-142.7,4.6,21.2,-24.3,0.377880184,-0.615466781,-0.0151982177,-0.691457869
691,1732462,24070,0.895,-0.204,0.195,-17.8,28,-142.5,4.6,21.2,-24.3,0.375469222,-0.615161596,-0.0166020692,-0.693014313
692,1734605,24070,0.832,-0.184,0.2,-18.4,42.9,-144.1,4.6,21.2,-24.3,0.373088778,-0.614581744,-0.0179143651,-0.694753868
693,1736457,24070,0.832,-0.184,0.2,-18.4,42.9,-144.1,4.6,21.2,-24.3,0.373088778,-0.614581744,-0.0179143651,-0.694753868
694,1738752,24070,0.781,-0.156,0.193,-18,65.3,-148,4.2,21.2,-23.4,0.368175298,-0.612933744,-0.0203253273,-0.698782311
695,1741134,24080,0.735,-0.127,0.182,-18.1,72.7,-149.2,4.2,21.2,-23.4,0.365703299,-0.611896115,-0.0214545122,-0.700949126
696,1746026,24080,0.723,-0.104,0.178,-19.1,77.7,-149.9,4.2,21.2,-23.4,0.363170263,-0.610797449,-0.0225531785,-0.703207495
697,1746399,24080,0.723,-0.076,0.17,-21.4,80.1,-150.4,4,21.7,-23.9,0.360606708,-0.609637745,-0.0235602893,-0.705465865
698,1748723,24080,0.723,-0.076,0.17,-21.4,80.1,-150.4,4,21.7,-23.9,0.360606708,-0.609637745,-0.0235602893,-0.705465865
699,1753085,24090,0.731,-0.03,0.143,-31.7,77.6,-152.5,4,21.7,-23.9,0.35523545,-0.60750145,-0.0255134739,-0.709952086
700,1755405,24090,0.746,-0.026,0.131,-40.5,72.8,-154.5,4,21.7,-23.9,0.35236671,-0.606585894,-0.0263679922,-0.712149419
701,1757734,24090,0.789,-0.019,0.103,-51.5,66.1,-157.2,3.5,22.1,-24.3,0.349253822,-0.60585345,-0.0271004364,-0.714255196
702,1760602,24090,0.789,-0.019,0.103,-64.4,57.5,-160.9,3.5,22.1,-24.3,0.345927305,-0.605365154,-0.0278328806,-0.716269417
703,1762789,24100,0.879,-0.005,0.066,-78.7,47.6,-166,3.5,22.1,-24.3,0.342326121,-0.605090487,-0.0284127323,-0.718192083
704,1765003,24100,0.961,0.008,0.044,-93.8,36.7,-172.4,3.5,22.1,-24.3,0.338419752,-0.605121006,-0.028931547,-0.720023194
705,1767357,24100,1,0,0.032,-109.5,25.8,-179.3,3.1,22,-24.1,0.33414716,-0.605395672,-0.0294198431,-0.721732231
706,1769580,24100,1.105,-0.002,0.003,-125.8,16.1,-185.8,3.1,22,-24.1,0.329569384,-0.605945006,-0.0297555467,-0.72338023
707,1771514,24110,1.163,-0.038,-0.021,-143,7.9,-190.5,3.1,22,-24.1,0.324686422,-0.606707968,-0.0299691763,-0.724936674
708,1775403,24110,1.214,-0.082,-0.03,-160.9,1.6,-192.6,3.1,22,-24.1,0.319498276,-0.607684561,-0.0299691763,-0.726432081
709,1777675,24110,1.268,-0.126,-0.05,-178.5,-3,-192.5,2.5,23,-22.2,0.314065981,-0.608844264,-0.0296639912,-0.727835932
710,1779670,24110,1.268,-0.126,-0.05,-178.5,-3,-192.5,2.5,23,-22.2,0.314065981,-0.608844264,-0.0296639912,-0.727835932
711,1783474,24120,1.408,-0.285,-0.099,-208.2,-7.4,-189.6,2.5,23,-22.2,0.30262154,-0.611529893,-0.0284432508,-0.730460524
712,1783898,24120,1.439,-0.375,-0.119,-218.4,-6.7,-188.9,2.5,23,-22.2,0.296700949,-0.612964263,-0.0275276955,-0.731742302
713,1786088,24120,1.439,-0.375,-0.119,-218.4,-6.7,-188.9,2.5,23,-22.2,0.296700949,-0.612964263,-0.0275276955,-0.731742302
714,1790837,24120,1.439,-0.375,-0.119,-218.4,-6.7,-188.9,2.5,23,-22.2,0.296700949,-0.612964263,-0.0275276955,-0.731742302
715,1791214,24130,1.329,-0.596,-0.129,-222.8,6.5,-196.3,2.2,23.4,-21.8,0.278389843,-0.616779077,-0.0245063631,-0.735801263
716,1794390,24130,1.329,-0.596,-0.129,-222.8,6.5,-196.3,2.2,23.4,-21.8,0.278389843,-0.616779077,-0.0245063631,-0.735801263
717,1796219,24130,1.329,-0.596,-0.129,-222.8,6.5,-196.3,2.2,23.4,-21.8,0.278389843,-0.616779077,-0.0245063631,-0.735801263
718,1798484,24130,1.329,-0.596,-0.129,-222.8,6.5,-196.3,2.2,23.4,-21.8,0.278389843,-0.616779077,-0.0245063631,-0.735801263
719,1801131,24140,1.329,-0.596,-0.129,-222.8,6.5,-196.3,2.2,23.4,-21.8,0.278389843,-0.616779077,-0.0245063631,-0.735801263
720,1805582,24140,1.329,-0.596,-0.129,-222.8,6.5,-196.3,2.2,23.4,-21.8,0.278389843,-0.616779077,-0.0245063631,-0.735801263
721,1805975,24140,1.329,-0.596,-0.129,-222.8,6.5,-196.3,2.2,23.4,-21.8,0.278389843,-0.616779077,-0.0245063631,-0.735801263
722,1808547,24140,1.329,-0.596,-0.129,-222.8,6.5,-196.3,2.2,23.4,-21.8,0.278389843,-0.616779077,-0.0245063631,-0.735801263
723,1813070,24150,1.329,-0.596,-0.129,-222.8,6.5,-196.3,2.2,23.4,-21.8,0.278389843,-0.616779077,-0.0245063631,-0.735801263
724,1813457,24150,1.329,-0.596,-0.129,-222.8,6.5,-196.3,2.2,23.4,-21.8,0.278389843,-0.616779077,-0.0245063631,-0.735801263
725,1816030,24150,1.329,-0.596,-0.129,-222.8,6.5,-196.3,2.2,23.4,-21.8,0.278389843,-0.616779077,-0.0245063631,-0.735801263
726,1820642,24150,1.329,-0.596,-0.129,-222.8,6.5,-196.3,2.2,23.4,-21.8,0.278389843,-0.616779077,-0.0245063631,-0.735801263
727,1821079,24160,1.329,-0.596,-0.129,-222.8,6.5,-196.3,2.2,23.4,-21.8,0.278389843,-0.616779077,-0.0245063631,-0.735801263
728,1823663,24160,1.329,-0.596,-0.129,-222.8,6.5,-196.3,2.2,23.4,-21.8,0.278389843,-0.616779077,-0.0245063631,-0.735801263
729,1827381,24160,1.329,-0.596,-0.129,-222.8,6.5,-196.3,2.2,23.4,-21.8,0.278389843,-0.616779077,-0.0245063631,-0.735801263
730,1829476,24160,1.329,-0.596,-0.129,-222.8,6.5,-196.3,2.2,23.4,-21.8,0.278389843,-0.616779077,-0.0245063631,-0.735801263
731,1831361,24170,1.329,-0.596,-0.129,-222.8,6.5,-196.3,2.2,23.4,-21.8,0.278389843,-0.616779077,-0.0245063631,-0.735801263
732,1835467,24170,1.329,-0.596,-0.129,-222.8,6.5,-196.3,2.2,23.4,-21.8,0.278389843,-0.616779077,-0.0245063631,-0.735801263
733,1838073,24170,1.112,-0.708,0.16,-184.7,51.3,-113.8,-0.3,25.8,-19.6,0.194860683,-0.625873592,0.000274666585,-0.755149998
734,1838524,24170,1.112,-0.708,0.16,-184.7,51.3,-113.8,-0.3,25.8,-19.6,0.194860683,-0.625873592,0.000274666585,-0.755149998
735,1841188,24180,1.112,-0.708,0.16,-184.7,51.3,-113.8,-0.3,25.8,-19.6,0.194860683,-0.625873592,0.000274666585,-0.755149998
736,1843554,24180,1.112,-0.708,0.16,-184.7,51.3,-113.8,-0.3,25.8,-19.6,0.194860683,-0.625873592,0.000274666585,-0.755149998
737,1846085,24180,1.112,-0.708,0.16,-184.7,51.3,-113.8,-0.3,25.8,-19.6,0.194860683,-0.625873592,0.000274666585,-0.755149998
738,1848575,24180,1.112,-0.708,0.16,-184.7,51.3,-113.8,-0.3,25.8,-19.6,0.194860683,-0.625873592,0.000274666585,-0.755149998
739,1852984,24190,1.112,-0.708,0.16,-184.7,51.3,-113.8,-0.3,25.8,-19.6,0.194860683,-0.625873592,0.000274666585,-0.755149998
740,1855293,24190,1.112,-0.708,0.16,-184.7,51.3,-113.8,-0.3,25.8,-19.6,0.194860683,-0.625873592,0.000274666585,-0.755149998
741,1857871,24190,1.112,-0.708,0.16,-184.7,51.3,-113.8,-0.3,25.8,-19.6,0.194860683,-0.625873592,0.000274666585,-0.755149998
742,1860516,24190,1.041,-0.676,0.154,-131.5,14.2,-100.3,-1.2,26.3,-18.5,0.157750175,-0.626667074,0.0132755516,-0.763023774
743,1862532,24200,1.041,-0.676,0.154,-131.5,14.2,-100.3,-1.2,26.3,-18.5,0.157750175,-0.626667074,0.0132755516,-0.763023774
744,1864837,24200,1.041,-0.676,0.154,-131.5,14.2,-100.3,-1.2,26.3,-18.5,0.157750175,-0.626667074,0.0132755516,-0.763023774
745,1867008,24200,1.041,-0.676,0.154,-131.5,14.2,-100.3,-1.2,26.3,-18.5,0.157750175,-0.626667074,0.0132755516,-0.763023774
746,1869561,24200,1.041,-0.676,0.154,-131.5,14.2,-100.3,-1.2,26.3,-18.5,0.157750175,-0.626667074,0.0132755516,-0.763023774
747,1871579,24210,1.041,-0.676,0.154,-131.5,14.2,-100.3,-1.2,26.3,-18.5,0.157750175,-0.626667074,0.0132755516,-0.763023774
748,1873577,24210,1.041,-0.676,0.154,-131.5,14.2,-100.3,-1.2,26.3,-18.5,0.157750175,-0.626667074,0.0132755516,-0.763023774
749,1876199,24210,1.041,-0.676,0.154,-131.5,14.2,-100.3,-1.2,26.3,-18.5,0.157750175,-0.626667074,0.0132755516,-0.763023774
750,1878480,24210,1.041,-0.676,0.154,-131.5,14.2,-100.3,-1.2,26.3,-18.5,0.157750175,-0.626667074,0.0132755516,-0.763023774
751,1883033,24220,1.041,-0.676,0.154,-131.5,14.2,-100.3,-1.2,26.3,-18.5,0.157750175,-0.626667074,0.0132755516,-0.763023774
752,1885184,24220,1.041,-0.676,0.154,-131.5,14.2,-100.3,-1.2,26.3,-18.5,0.157750175,-0.626667074,0.0132755516,-0.763023774
753,1887354,24220,0.878,-0.497,0.117,-65.5,11.8,-75.5,-2.3,27.8,-16.3,0.128727073,-0.629230628,0.0184331797,-0.766228217
754,1889635,24220,0.878,-0.497,0.117,-65.5,11.8,-75.5,-2.3,27.8,-16.3,0.128727073,-0.629230628,0.0184331797,-0.766228217
755,1891857,24230,0.878,-0.497,0.117,-65.5,11.8,-75.5,-2.3,27.8,-16.3,0.128727073,-0.629230628,0.0184331797,-0.766228217
756,1895650,24230,0.878,-0.497,0.117,-65.5,11.8,-75.5,-2.3,27.8,-16.3,0.128727073,-0.629230628,0.0184331797,-0.766228217
757,1896010,24230,0.862,-0.384,0.102,-46.4,21.5,-67.6,-2.9,28,-16.3,0.120944853,-0.628742332,0.0181890316,-0.767906735
758,1900129,24230,0.862,-0.384,0.102,-46.4,21.5,-67.6,-2.9,28,-16.3,0.120944853,-0.628742332,0.0181890316,-0.767906735
759,1902419,24240,0.862,-0.384,0.102,-46.4,21.5,-67.6,-2.9,28,-16.3,0.120944853,-0.628742332,0.0181890316,-0.767906735
760,1904543,24240,0.862,-0.384,0.102,-46.4,21.5,-67.6,-2.9,28,-16.3,0.120944853,-0.628742332,0.0181890316,-0.767906735
761,1906526,24240,0.862,-0.384,0.102,-46.4,21.5,-67.6,-2.9,28,-16.3,0.120944853,-0.628742332,0.0181890316,-0.767906735
762,1908826,24240,0.862,-0.384,0.102,-46.4,21.5,-67.6,-2.9,28,-16.3,0.120944853,-0.628742332,0.0181890316,-0.767906735
763,1911184,24250,0.862,-0.384,0.102,-46.4,21.5,-67.6,-2.9,28,-16.3,0.120944853,-0.628742332,0.0181890316,-0.767906735
764,1913805,24250,0.862,-0.384,0.102,-46.4,21.5,-67.6,-2.9,28,-16.3,0.120944853,-0.628742332,0.0181890316,-0.767906735
765,1916603,24250,0.862,-0.384,0.102,-46.4,21.5,-67.6,-2.9,28,-16.3,0.120944853,-0.628742332,0.0181890316,-0.767906735
766,1918760,24250,0.862,-0.384,0.102,-46.4,21.5,-67.6,-2.9,28,-16.3,0.120944853,-0.628742332,0.0181890316,-0.767906735
767,1922493,24260,0.862,-0.384,0.102,-46.4,21.5,-67.6,-2.9,28,-16.3,0.120944853,-0.628742332,0.0181890316,-0.767906735
768,1924816,24260,0.862,-0.384,0.102,-46.4,21.5,-67.6,-2.9,28,-16.3,0.120944853,-0.628742332,0.0181890316,-0.767906735
769,1927061,24260,0.862,-0.384,0.102,-46.4,21.5,-67.6,-2.9,28,-16.3,0.120944853,-0.628742332,0.0181890316,-0.767906735
770,1929118,24260,0.862,-0.384,0.102,-46.4,21.5,-67.6,-2.9,28,-16.3,0.120944853,-0.628742332,0.0181890316,-0.767906735
771,1931339,24270,0.862,-0.384,0.102,-46.4,21.5,-67.6,-2.9,28,-16.3,0.120944853,-0.628742332,0.0181890316,-0.767906735
772,1934554,24270,0.862,-0.384,0.102,-46.4,21.5,-67.6,-2.9,28,-16.3,0.120944853,-0.628742332,0.0181890316,-0.767906735
773,1936425,24270,0.862,-0.384,0.102,-46.4,21.5,-67.6,-2.9,28,-16.3,0.120944853,-0.628742332,0.0181890316,-0.767906735
774,1938701,24270,0.862,-0.384,0.102,-46.4,21.5,-67.6,-2.9,28,-16.3,0.120944853,-0.628742332,0.0181890316,-0.767906735
775,1941232,24280,0.862,-0.384,0.102,-46.4,21.5,-67.6,-2.9,28,-16.3,0.120944853,-0.628742332,0.0181890316,-0.767906735
776,1943461,24280,0.862,-0.384,0.102,-46.4,21.5,-67.6,-2.9,28,-16.3,0.120944853,-0.628742332,0.0181890316,-0.767906735
777,1948126,24280,0.862,-0.384,0.102,-46.4,21.5,-67.6,-2.9,28,-16.3,0.120944853,-0.628742332,0.0181890316,-0.767906735
778,1948596,24280,0.862,-0.384,0.102,-46.4,21.5,-67.6,-2.9,28,-16.3,0.120944853,-0.628742332,0.0181890316,-0.767906735
779,1951135,24290,0.862,-0.384,0.102,-46.4,21.5,-67.6,-2.9,28,-16.3,0.120944853,-0.628742332,0.0181890316,-0.767906735
780,1955522,24290,0.862,-0.384,0.102,-46.4,21.5,-67.6,-2.9,28,-16.3,0.120944853,-0.628742332,0.0181890316,-0.767906735
781,1957731,24290,0.862,-0.384,0.102,-46.4,21.5,-67.6,-2.9,28,-16.3,0.120944853,-0.628742332,0.0181890316,-0.767906735
782,1959893,24290,0.862,-0.384,0.102,-46.4,21.5,-67.6,-2.9,28,-16.3,0.120944853,-0.628742332,0.0181890316,-0.767906735
783,1962635,24300,0.862,-0.384,0.102,-46.4,21.5,-67.6,-2.9,28,-16.3,0.120944853,-0.628742332,0.0181890316,-0.767906735
784,1964744,24300,0.862,-0.384,0.102,-46.4,21.5,-67.6,-2.9,28,-16.3,0.120944853,-0.628742332,0.0181890316,-0.767906735
785,1967028,24300,0.862,-0.384,0.102,-46.4,21.5,-67.6,-2.9,28,-16.3,0.120944853,-0.628742332,0.0181890316,-0.767906735
786,1968997,24300,0.862,-0.384,0.102,-46.4,21.5,-67.6,-2.9,28,-16.3,0.120944853,-0.628742332,0.0181890316,-0.767906735
787,1971294,24310,0.862,-0.384,0.102,-46.4,21.5,-67.6,-2.9,28,-16.3,0.120944853,-0.628742332,0.0181890316,-0.767906735
788,1973461,24310,0.862,-0.384,0.102,-46.4,21.5,-67.6,-2.9,28,-16.3,0.120944853,-0.628742332,0.0181890316,-0.767906735
789,1976578,24310,0.862,-0.384,0.102,-46.4,21.5,-67.6,-2.9,28,-16.3,0.120944853,-0.628742332,0.0181890316,-0.767906735
790,1978819,24310,0.862,-0.384,0.102,-46.4,21.5,-67.6,-2.9,28,-16.3,0.120944853,-0.628742332,0.0181890316,-0.767906735
791,1981487,24320,0.862,-0.384,0.102,-46.4,21.5,-67.6,-2.9,28,-16.3,0.120944853,-0.628742332,0.0181890316,-0.767906735
792,1983644,24320,0.862,-0.384,0.102,-46.4,21.5,-67.6,-2.9,28,-16.3,0.120944853,-0.628742332,0.0181890316,-0.767906735
793,1986303,24320,0.862,-0.384,0.102,-46.4,21.5,-67.6,-2.9,28,-16.3,0.120944853,-0.628742332,0.0181890316,-0.767906735
794,1988918,24320,0.862,-0.384,0.102,-46.4,21.5,-67.6,-2.9,28,-16.3,0.120944853,-0.628742332,0.0181890316,-0.767906735
795,1991148,24330,0.862,-0.384,0.102,-46.4,21.5,-67.6,-2.9,28,-16.3,0.120944853,-0.628742332,0.0181890316,-0.767906735
796,1993772,24330,0.862,-0.384,0.102,-46.4,21.5,-67.6,-2.9,28,-16.3,0.120944853,-0.628742332,0.0181890316,-0.767906735
797,1996358,24330,0.862,-0.384,0.102,-46.4,21.5,-67.6,-2.9,28,-16.3,0.120944853,-0.628742332,0.0181890316,-0.767906735
798,1998476,24330,0.862,-0.384,0.102,-46.4,21.5,-67.6,-2.9,28,-16.3,0.120944853,-0.628742332,0.0181890316,-0.767906735
799,2002101,24340,0.862,-0.384,0.102,-46.4,21.5,-67.6,-2.9,28,-16.3,0.120944853,-0.628742332,0.0181890316,-0.767906735
800,2005004,24340,0.862,-0.384,0.102,-46.4,21.5,-67.6,-2.9,28,-16.3,0.120944853,-0.628742332,0.0181890316,-0.767906735
801,2007259,24340,0.862,-0.384,0.102,-46.4,21.5,-67.6,-2.9,28,-16.3,0.120944853,-0.628742332,0.0181890316,-0.767906735
802,2008998,24340,0.862,-0.384,0.102,-46.4,21.5,-67.6,-2.9,28,-16.3,0.120944853,-0.628742332,0.0181890316,-0.767906735
803,2011250,24350,0.862,-0.384,0.102,-46.4,21.5,-67.6,-2.9,28,-16.3,0.120944853,-0.628742332,0.0181890316,-0.767906735
804,2013564,24350,0.862,-0.384,0.102,-46.4,21.5,-67.6,-2.9,28,-16.3,0.120944853,-0.628742332,0.0181890316,-0.767906735
805,2016203,24350,0.862,-0.384,0.102,-46.4,21.5,-67.6,-2.9,28,-16.3,0.120944853,-0.628742332,0.0181890316,-0.767906735
806,2018756,24350,0.862,-0.384,0.102,-46.4,21.5,-67.6,-2.9,28,-16.3,0.120944853,-0.628742332,0.0181890316,-0.767906735
807,2021657,24360,0.862,-0.384,0.102,-46.4,21.5,-67.6,-2.9,28,-16.3,0.120944853,-0.628742332,0.0181890316,-0.767906735
808,2024948,24360,0.862,-0.384,0.102,-46.4,21.5,-67.6,-2.9,28,-16.3,0.120944853,-0.628742332,0.0181890316,-0.767906735
809,2027309,24360,0.862,-0.384,0.102,-46.4,21.5,-67.6,-2.9,28,-16.3,0.120944853,-0.628742332,0.0181890316,-0.767906735
810,2029262,24360,0.862,-0.384,0.102,-46.4,21.5,-67.6,-2.9,28,-16.3,0.120944853,-0.628742332,0.0181890316,-0.767906735
811,2032526,24370,0.862,-0.384,0.102,-46.4,21.5,-67.6,-2.9,28,-16.3,0.120944853,-0.628742332,0.0181890316,-0.767906735
812,2034729,24370,0.862,-0.384,0.102,-46.4,21.5,-67.6,-2.9,28,-16.3,0.120944853,-0.628742332,0.0181890316,-0.767906735
813,2038550,24370,0.862,-0.384,0.102,-46.4,21.5,-67.6,-2.9,28,-16.3,0.120944853,-0.628742332,0.0181890316,-0.767906735
814,2038550,24370,0.949,-0.358,0.182,-34.1,-0.8,7,-5.2,29.6,-12.5,0.0579546495,-0.629963073,0.0630512406,-0.771843623
815,2041196,24380,0.949,-0.358,0.182,-34.1,-0.8,7,-5.2,29.6,-12.5,0.0579546495,-0.629963073,0.0630512406,-0.771843623
816,2043884,24380,0.949,-0.358,0.182,-34.1,-0.8,7,-5.2,29.6,-12.5,0.0579546495,-0.629963073,0.0630512406,-0.771843623
817,2046005,24380,0.949,-0.358,0.182,-34.1,-0.8,7,-5.2,29.6,-12.5,0.0579546495,-0.629963073,0.0630512406,-0.771843623
818,2050799,24380,0.949,-0.358,0.182,-34.1,-0.8,7,-5.2,29.6,-12.5,0.0579546495,-0.629963073,0.0630512406,-0.771843623
819,2051164,24390,0.953,-0.338,0.174,-26.4,-3.2,6.7,-5.5,29.7,-12,0.0565202795,-0.630298776,0.066011536,-0.771446883
820,2053795,24390,0.953,-0.338,0.174,-26.4,-3.2,6.7,-5.5,29.7,-12,0.0565202795,-0.630298776,0.066011536,-0.771446883
821,2056442,24390,0.953,-0.338,0.174,-26.4,-3.2,6.7,-5.5,29.7,-12,0.0565202795,-0.630298776,0.066011536,-0.771446883
822,2058692,24390,0.953,-0.338,0.174,-26.4,-3.2,6.7,-5.5,29.7,-12,0.0565202795,-0.630298776,0.066011536,-0.771446883
823,2061223,24400,0.953,-0.338,0.174,-26.4,-3.2,6.7,-5.5,29.7,-12,0.0565202795,-0.630298776,0.066011536,-0.771446883
824,2065131,24400,0.953,-0.338,0.174,-26.4,-3.2,6.7,-5.5,29.7,-12,0.0565202795,-0.630298776,0.066011536,-0.771446883
825,2067338,24400,0.953,-0.338,0.174,-26.4,-3.2,6.7,-5.5,29.7,-12,0.0565202795,-0.630298776,0.066011536,-0.771446883
826,2069084,24400,0.953,-0.338,0.174,-26.4,-3.2,6.7,-5.5,29.7,-12,0.0565202795,-0.630298776,0.066011536,-0.771446883
827,2073163,24410,0.953,-0.338,0.174,-26.4,-3.2,6.7,-5.5,29.7,-12,0.0565202795,-0.630298776,0.066011536,-0.771446883
828,2073588,24410,0.933,-0.279,0.194,-19,-7.7,5.4,-4.8,29.5,-11.7,0.0561235389,-0.631366924,0.0711386456,-0.770134587
829,2077866,24410,0.933,-0.279,0.194,-19,-7.7,5.4,-4.8,29.5,-11.7,0.0561235389,-0.631366924,0.0711386456,-0.770134587
830,2080188,24410,0.933,-0.279,0.194,-19,-7.7,5.4,-4.8,29.5,-11.7,0.0561235389,-0.631366924,0.0711386456,-0.770134587
831,2082393,24420,0.953,-0.268,0.206,-21,-9.4,5.4,-3.9,29.6,-12.1,0.0556047243,-0.63185522,0.0723288675,-0.76964629
832,2084706,24420,0.953,-0.268,0.206,-21,-9.4,5.4,-3.9,29.6,-12.1,0.0556047243,-0.63185522,0.0723288675,-0.76964629
833,2086489,24420,0.953,-0.268,0.206,-21,-9.4,5.4,-3.9,29.6,-12.1,0.0556047243,-0.63185522,0.0723288675,-0.76964629
834,2088722,24420,0.953,-0.268,0.206,-21,-9.4,5.4,-3.9,29.6,-12.1,0.0556047243,-0.63185522,0.0723288675,-0.76964629
835,2092858,24430,0.953,-0.268,0.206,-21,-9.4,5.4,-3.9,29.6,-12.1,0.0556047243,-0.63185522,0.0723288675,-0.76964629
836,2095054,24430,0.945,-0.256,0.202,-18.8,-6.5,10,-4.2,29.4,-11.6,0.05487228,-0.632648701,0.0745567186,-0.768852809
837,2097330,24430,0.945,-0.256,0.202,-18.8,-6.5,10,-4.2,29.4,-11.6,0.05487228,-0.632648701,0.0745567186,-0.768852809
838,2099579,24430,0.945,-0.256,0.202,-18.8,-6.5,10,-4.2,29.4,-11.6,0.05487228,-0.632648701,0.0745567186,-0.768852809
839,2102172,24440,0.945,-0.256,0.202,-18.8,-6.5,10,-4.2,29.4,-11.6,0.05487228,-0.632648701,0.0745567186,-0.768852809
840,2104834,24440,0.922,-0.216,0.206,-15.9,-3.5,12.4,-3.8,29.6,-11.2,0.054811243,-0.632923368,0.0762657552,-0.768456069
841,2107147,24440,0.922,-0.216,0.206,-15.9,-3.5,12.4,-3.8,29.6,-11.2,0.054811243,-0.632923368,0.0762657552,-0.768456069
842,2110870,24440,0.922,-0.216,0.206,-15.9,-3.5,12.4,-3.8,29.6,-11.2,0.054811243,-0.632923368,0.0762657552,-0.768456069
843,2111219,24450,0.922,-0.217,0.19,-18.7,-4.1,9.3,-3.8,29.6,-11.4,0.0547807245,-0.632984405,0.0778527177,-0.768272958
844,2115478,24450,0.922,-0.217,0.19,-18.7,-4.1,9.3,-3.8,29.6,-11.4,0.0547807245,-0.632984405,0.0778527177,-0.768272958
845,2117649,24450,0.91,-0.212,0.183,-19.7,-4.3,6.9,-3.6,29.8,-11.3,0.0544755394,-0.633136998,0.0787072359,-0.768059328
846,2119619,24450,0.918,-0.22,0.183,-19.9,-4.2,5.6,-3.6,29.8,-11.3,0.0543229469,-0.633228553,0.0791344951,-0.767967772
847,2121204,24460,0.918,-0.22,0.183,-19.9,-4.2,5.6,-3.6,29.8,-11.3,0.0543229469,-0.633228553,0.0791344951,-0.767967772
848,2125481,24460,0.918,-0.22,0.183,-19.9,-4.2,5.6,-3.6,29.8,-11.3,0.0543229469,-0.633228553,0.0791344951,-0.767967772
849,2127774,24460,0.918,-0.22,0.183,-19.9,-4.2,5.6,-3.6,29.8,-11.3,0.0543229469,-0.633228553,0.0791344951,-0.767967772
850,2128579,24460,0.918,-0.22,0.183,-19.9,-4.2,5.6,-3.6,29.8,-11.3,0.0543229469,-0.633228553,0.0791344951,-0.767967772
851,2132998,24470,0.918,-0.22,0.183,-19.9,-4.2,5.6,-3.6,29.8,-11.3,0.0543229469,-0.633228553,0.0791344951,-0.767967772
852,2135033,24470,0.918,-0.22,0.183,-19.9,-4.2,5.6,-3.6,29.8,-11.3,0.0543229469,-0.633228553,0.0791344951,-0.767967772
853,2137338,24470,0.918,-0.22,0.183,-19.9,-4.2,5.6,-3.6,29.8,-11.3,0.0543229469,-0.633228553,0.0791344951,-0.767967772
854,2139564,24470,0.918,-0.22,0.183,-19.9,-4.2,5.6,-3.6,29.8,-11.3,0.0543229469,-0.633228553,0.0791344951,-0.767967772
855,2141589,24480,0.918,-0.22,0.183,-19.9,-4.2,5.6,-3.6,29.8,-11.3,0.0543229469,-0.633228553,0.0791344951,-0.767967772
856,2144466,24480,0.918,-0.22,0.183,-19.9,-4.2,5.6,-3.6,29.8,-11.3,0.0543229469,-0.633228553,0.0791344951,-0.767967772
857,2146132,24480,0.929,-0.283,0.163,-19.2,-1.9,-2.9,-4.6,29.6,-11.1,0.0512710959,-0.63411359,0.0826746422,-0.767082736
858,2151247,24480,0.929,-0.283,0.163,-19.2,-1.9,-2.9,-4.6,29.6,-11.1,0.0512710959,-0.63411359,0.0826746422,-0.767082736
859,2151247,24490,0.933,-0.295,0.171,-19.4,-2.4,-3.2,-4.6,29.6,-11.1,0.0506302072,-0.634235664,0.0832239753,-0.766960662
860,2155754,24490,0.933,-0.295,0.171,-19.4,-2.4,-3.2,-4.6,29.6,-11.1,0.0506302072,-0.634235664,0.0832239753,-0.766960662
861,2156231,24490,0.929,-0.295,0.175,-18.8,-3.4,-3.3,-4.1,29.6,-11.1,0.0506302072,-0.634357738,0.0845057527,-0.766685995
862,2159409,24490,0.929,-0.295,0.175,-18.8,-3.4,-3.3,-4.1,29.6,-11.1,0.0506302072,-0.634357738,0.0845057527,-0.766685995
863,2161376,24500,0.933,-0.307,0.179,-18.5,-3.6,-3.2,-4.1,29.6,-11.1,0.050019837,-0.634540849,0.0850245674,-0.766533403
864,2164584,24500,0.933,-0.307,0.179,-18.5,-3.6,-3.2,-4.1,29.6,-11.1,0.050019837,-0.634540849,0.0850245674,-0.766533403
865,2166417,24500,0.933,-0.307,0.179,-18.5,-3.6,-3.2,-4.1,29.6,-11.1,0.050019837,-0.634540849,0.0850245674,-0.766533403
866,2168956,24500,0.933,-0.307,0.179,-18.5,-3.6,-3.2,-4.1,29.6,-11.1,0.050019837,-0.634540849,0.0850245674,-0.766533403
867,2172873,24510,0.941,-0.307,0.19,-17.5,-5.1,-3.3,-4.2,29.7,-11,0.0488296152,-0.63493759,0.0860316782,-0.76616718
868,2174965,24510,0.945,-0.307,0.194,-17,-5.4,-3.2,-4.2,29.7,-11,0.0485244301,-0.635059664,0.0862758263,-0.766075625
869,2177763,24510,0.941,-0.303,0.194,-16.4,-5.7,-3,-5.3,29.8,-11,0.048280282,-0.635181738,0.0864894559,-0.765953551
870,2179854,24510,0.945,-0.315,0.206,-16.1,-6.2,-3.1,-5.3,29.8,-11,0.0480056154,-0.635303812,0.0867336039,-0.765831477
871,2181894,24520,0.945,-0.315,0.206,-16.1,-6.2,-3.1,-5.3,29.8,-11,0.0480056154,-0.635303812,0.0867336039,-0.765831477
872,2183761,24520,0.945,-0.315,0.206,-16.1,-6.2,-3.1,-5.3,29.8,-11,0.0480056154,-0.635303812,0.0867336039,-0.765831477
873,2186050,24520,0.945,-0.315,0.206,-16.1,-6.2,-3.1,-5.3,29.8,-11,0.0480056154,-0.635303812,0.0867336039,-0.765831477
874,2190188,24520,0.945,-0.315,0.206,-16.1,-6.2,-3.1,-5.3,29.8,-11,0.0480056154,-0.635303812,0.0867336039,-0.765831477
875,2192580,24530,0.945,-0.315,0.206,-16.1,-6.2,-3.1,-5.3,29.8,-11,0.0480056154,-0.635303812,0.0867336039,-0.765831477
876,2194672,24530,0.937,-0.307,0.21,-13.4,-8.6,-2.6,-3.5,29.5,-10.5,0.0465712455,-0.636219367,0.0878933073,-0.765037996
877,2196833,24530,0.941,-0.307,0.21,-12.8,-8.9,-2.7,-3.3,29.7,-10.6,0.0463576159,-0.636402478,0.0880764183,-0.764885403
878,2198842,24530,0.941,-0.307,0.21,-12.8,-8.9,-2.7,-3.3,29.7,-10.6,0.0463576159,-0.636402478,0.0880764183,-0.764885403
879,2201532,24540,0.941,-0.307,0.21,-12.8,-8.9,-2.7,-3.3,29.7,-10.6,0.0463576159,-0.636402478,0.0880764183,-0.764885403
880,2204429,24540,0.941,-0.307,0.21,-12.8,-8.9,-2.7,-3.3,29.7,-10.6,0.0463576159,-0.636402478,0.0880764183,-0.764885403
881,2206267,24540,0.922,-0.295,0.206,-8.1,-10.9,-3.1,-3.8,29.7,-10.5,0.0464796899,-0.636646626,0.0894497513,-0.764519181
882,2208591,24540,0.922,-0.295,0.206,-8.1,-10.9,-3.1,-3.8,29.7,-10.5,0.0463270974,-0.636829737,0.0895718253,-0.76433607
883,2212696,24550,0.926,-0.287,0.206,-7,-11.1,-3.1,-3.8,29.7,-10.5,0.0461745048,-0.637043367,0.0896328623,-0.764183477
884,2214946,24550,0.926,-0.295,0.202,-5.9,-11.1,-2.9,-3.8,29.7,-10.5,0.0461134678,-0.637226478,0.0896633808,-0.764000366
885,2217244,24550,0.922,-0.287,0.206,-5,-11.1,-2.7,-3.3,29.9,-10.6,0.0460219123,-0.637440107,0.0897244179,-0.763847774
886,2219036,24550,0.918,-0.287,0.202,-4.3,-11.1,-2.6,-3.3,29.9,-10.6,0.0459303568,-0.637623218,0.0897244179,-0.763695181
887,2221543,24560,0.918,-0.287,0.202,-4.3,-11.1,-2.6,-3.3,29.9,-10.6,0.0459303568,-0.637623218,0.0897244179,-0.763695181
888,2223587,24560,0.918,-0.287,0.202,-4.3,-11.1,-2.6,-3.3,29.9,-10.6,0.0459303568,-0.637623218,0.0897244179,-0.763695181
889,2226125,24560,0.918,-0.287,0.202,-4.3,-11.1,-2.6,-3.3,29.9,-10.6,0.0459303568,-0.637623218,0.0897244179,-0.763695181
890,2229789,24560,0.918,-0.287,0.202,-4.3,-11.1,-2.6,-3.3,29.9,-10.6,0.0459303568,-0.637623218,0.0897244179,-0.763695181
891,2231753,24570,0.918,-0.287,0.202,-4.3,-11.1,-2.6,-3.3,29.9,-10.6,0.0459303568,-0.637623218,0.0897244179,-0.763695181
892,2234285,24570,0.918,-0.271,0.183,0.2,-11,-2.2,-4.9,29.8,-10.5,0.0456862087,-0.638782922,0.0896328623,-0.762749107
893,2236286,24570,0.918,-0.275,0.171,1,-11,-2.2,-4.2,30.1,-10.9,0.0456862087,-0.638966033,0.0895718253,-0.762596515
894,2240337,24570,0.922,-0.267,0.179,1.7,-11,-2.2,-4.2,30.1,-10.9,0.0456862087,-0.639149144,0.0895107883,-0.762474441
895,2242630,24580,0.926,-0.26,0.171,2.3,-11.1,-2.2,-4.2,30.1,-10.9,0.0456862087,-0.639332255,0.0894192328,-0.762321848
896,2244885,24580,0.926,-0.26,0.171,2.3,-11.1,-2.2,-4.2,30.1,-10.9,0.0456862087,-0.639332255,0.0894192328,-0.762321848
897,2247017,24580,0.926,-0.252,0.167,3.7,-11.3,-1.7,-4.1,29.7,-10.8,0.0458082827,-0.639698477,0.0892361217,-0.762016663
898,2249058,24580,0.933,-0.244,0.171,4.2,-11.4,-1.4,-4.1,29.7,-10.8,0.0458388012,-0.639881588,0.0891445662,-0.761864071
899,2251342,24590,0.933,-0.244,0.171,4.2,-11.4,-1.4,-4.1,29.7,-10.8,0.0458388012,-0.639881588,0.0891445662,-0.761864071
900,2253814,24590,0.937,-0.248,0.167,4.8,-11.9,-1.4,-4.1,29.7,-10.8,0.0459913938,-0.640278329,0.0889309366,-0.761558885
901,2257518,24590,0.941,-0.237,0.167,5.5,-12.3,-1.1,-4.5,30,-11.1,0.0464186529,-0.640339366,0.0892361217,-0.761436811
902,2259992,24590,0.949,-0.237,0.163,5.8,-12.3,-0.8,-4.5,30,-11.1,0.046540727,-0.640552995,0.0891140477,-0.761284219
903,2262105,24600,0.949,-0.244,0.163,5.8,-12.3,-0.8,-4.5,30,-11.1,0.0466322825,-0.640736106,0.0889614551,-0.761101108
904,2264040,24600,0.953,-0.233,0.159,5.8,-12.3,-0.5,-4.5,30,-11.1,0.046723838,-0.640949736,0.0888698996,-0.760948515
905,2266581,24600,0.953,-0.233,0.159,5.8,-12.3,-0.5,-4.5,30,-11.1,0.046723838,-0.640949736,0.0888698996,-0.760948515
906,2269658,24600,0.953,-0.233,0.159,5.8,-12.3,-0.5,-4.5,30,-11.1,0.046723838,-0.640949736,0.0888698996,-0.760948515
907,2271807,24610,0.953,-0.233,0.159,5.8,-12.3,-0.5,-4.5,30,-11.1,0.046723838,-0.640949736,0.0888698996,-0.760948515
908,2273804,24610,0.969,-0.245,0.162,6.5,-11.7,1,-4.1,29.9,-11,0.0471510971,-0.641712699,0.0884426405,-0.760338145
909,2276772,24610,0.969,-0.233,0.166,6.6,-11.7,1.6,-4.5,29.8,-10.8,0.0473342082,-0.64189581,0.0883205664,-0.760185553
910,2279064,24610,0.98,-0.233,0.166,6.7,-11.7,2.1,-4.5,29.8,-10.8,0.0474868007,-0.642078921,0.0882290109,-0.76003296
911,2281904,24620,0.98,-0.233,0.166,6.7,-11.7,2.1,-4.5,29.8,-10.8,0.0474868007,-0.642078921,0.0882290109,-0.76003296
912,2283586,24620,0.988,-0.233,0.17,6.9,-11.8,2.8,-4.5,29.8,-10.8,0.0478225043,-0.642445143,0.0880458998,-0.759697256
913,2287551,24620,0.988,-0.233,0.17,6.9,-11.8,2.8,-4.5,29.8,-10.8,0.0478225043,-0.642445143,0.0880458998,-0.759697256
914,2289554,24620,0.988,-0.233,0.17,6.9,-11.8,2.8,-4.5,29.8,-10.8,0.0478225043,-0.642445143,0.0880458998,-0.759697256
915,2292046,24630,0.988,-0.233,0.17,6.9,-11.8,2.8,-4.5,29.8,-10.8,0.0478225043,-0.642445143,0.0880458998,-0.759697256
916,2294281,24630,0.988,-0.233,0.166,7.3,-10.9,4.4,-4.4,29.9,-10.4,0.0485549486,-0.643147069,0.0877407147,-0.759117405
917,2296736,24630,0.988,-0.233,0.166,7.3,-10.9,4.4,-4.4,29.9,-10.4,0.0485549486,-0.643147069,0.0877407147,-0.759117405
918,2300593,24630,0.988,-0.233,0.178,7.5,-10.8,5.4,-4.6,29.4,-10.4,0.0489822077,-0.643482772,0.0876186407,-0.758781701
919,2300987,24640,0.996,-0.226,0.173,7.7,-10.8,6,-4.6,29.4,-10.4,0.0492263558,-0.643635365,0.0875576037,-0.758690146
920,2303637,24640,0.996,-0.226,0.173,7.7,-10.8,6,-4.6,29.4,-10.4,0.0492263558,-0.643635365,0.0875576037,-0.758690146
921,2308073,24640,0.992,-0.237,0.177,7.9,-10.9,7.2,-4.2,29.7,-10.1,0.0498062075,-0.643848994,0.0875881222,-0.758445997
922,2310578,24640,0.992,-0.237,0.177,7.9,-10.9,7.2,-4.2,29.7,-10.1,0.0500808741,-0.644032105,0.0875576037,-0.758293405
923,2312896,24650,0.988,-0.237,0.17,7.9,-10.9,7.6,-4.2,29.7,-10.1,0.0503250221,-0.644184698,0.0874965667,-0.758140812
924,2313543,24650,0.992,-0.241,0.17,8,-10.9,7.8,-4.2,29.7,-10.1,0.0505691702,-0.644337291,0.0874660482,-0.758018738
925,2318135,24650,0.992,-0.241,0.17,8,-10.9,7.8,-4.2,29.7,-10.1,0.0505691702,-0.644337291,0.0874660482,-0.758018738
926,2318615,24650,0.992,-0.237,0.17,8.6,-10.6,8.5,-4.4,29.6,-9.6,0.0511490219,-0.644642476,0.0874050111,-0.757713553
927,2321135,24660,0.992,-0.237,0.17,8.6,-10.6,8.5,-4.4,29.6,-9.6,0.0511490219,-0.644642476,0.0874050111,-0.757713553
928,2326108,24660,0.992,-0.237,0.17,8.6,-10.6,8.5,-4.4,29.6,-9.6,0.0511490219,-0.644642476,0.0874050111,-0.757713553
929,2326578,24660,0.984,-0.249,0.17,9.3,-10.2,9.5,-4.2,29.7,-12,0.0520340587,-0.645069735,0.0873134556,-0.757316813
930,2329308,24660,0.984,-0.245,0.174,9.6,-10.2,9.8,-4.2,29.7,-12,0.0523697623,-0.645222327,0.0872829371,-0.75716422
931,2331559,24670,0.984,-0.241,0.178,9.8,-10,10,-4.2,29.7,-12,0.0527054659,-0.645344401,0.0872524186,-0.757042146
932,2333882,24670,0.984,-0.241,0.178,9.8,-10,10,-4.2,29.7,-12,0.0527054659,-0.645344401,0.0872524186,-0.757042146
933,2336532,24670,0.988,-0.249,0.17,10.1,-9.7,10.5,-3.7,29.8,-10.1,0.0533463546,-0.645619068,0.0871608631,-0.756767479
934,2339580,24670,0.984,-0.249,0.17,10.3,-9.5,10.8,-3.7,29.8,-10.1,0.0537125767,-0.645741142,0.0871303446,-0.756645405
935,2343284,24680,0.988,-0.249,0.178,10.5,-9.5,11.1,-3.7,29.8,-10.1,0.0540482803,-0.645863216,0.0871303446,-0.756523331
936,2343609,24680,0.988,-0.253,0.17,10.8,-9.3,11.2,-3.7,29.8,-10.1,0.0544145024,-0.64598529,0.087099826,-0.756401257
937,2347657,24680,0.988,-0.253,0.17,10.8,-9.3,11.2,-3.7,29.8,-10.1,0.0544145024,-0.64598529,0.087099826,-0.756401257
938,2349996,24680,0.992,-0.249,0.166,11.3,-9,11.6,-3.9,29.3,-9.8,0.0551469466,-0.64619892,0.0870082705,-0.756157109
939,2352429,24690,0.984,-0.249,0.17,11.6,-8.9,11.7,-3.9,29.3,-9.8,0.0555131687,-0.646320994,0.086977752,-0.756035035
940,2354505,24690,0.988,-0.245,0.166,12,-8.8,11.9,-3.9,29.3,-9.8,0.0559099094,-0.646412549,0.0869472335,-0.755912961
941,2356444,24690,0.988,-0.245,0.166,12,-8.8,11.9,-3.9,29.3,-9.8,0.0559099094,-0.646412549,0.0869472335,-0.755912961
942,2360359,24690,0.988,-0.245,0.166,12,-8.8,11.9,-3.9,29.3,-9.8,0.0559099094,-0.646412549,0.0869472335,-0.755912961
943,2362604,24700,0.992,-0.237,0.17,13.3,-8.1,12.4,-4.1,29.7,-9.7,0.0576494644,-0.646382031,0.0874050111,-0.755760369
944,2364907,24700,0.992,-0.237,0.17,13.3,-8.1,12.4,-4.1,29.7,-9.7,0.0576494644,-0.646382031,0.0874050111,-0.755760369
945,2368074,24700,0.992,-0.237,0.17,13.3,-8.1,12.4,-4.1,29.7,-9.7,0.0576494644,-0.646382031,0.0874050111,-0.755760369
946,2368664,24700,0.992,-0.237,0.17,13.3,-8.1,12.4,-4.1,29.7,-9.7,0.0576494644,-0.646382031,0.0874050111,-0.755760369
947,2371310,24710,0.992,-0.226,0.17,14.6,-7,12.9,-3.8,29.7,-10,0.0593585009,-0.646687216,0.0871608631,-0.755394147
948,2375305,24710,0.996,-0.222,0.166,14.6,-6.6,13.1,-3.8,29.7,-10,0.0598467971,-0.646748253,0.087099826,-0.755302591
949,2377513,24710,0.992,-0.226,0.166,14.7,-6.2,13.2,-4.3,29.9,-13,0.0602740562,-0.64680929,0.0870082705,-0.755241554
950,2379824,24710,0.996,-0.222,0.166,14.7,-5.8,13.3,-4.3,29.9,-13,0.0607013153,-0.646870327,0.0869472335,-0.755149998
951,2382007,24720,0.996,-0.218,0.169,14.9,-5.5,13.3,-4.3,29.9,-13,0.061159093,-0.646900845,0.0868861965,-0.755088961
952,2383974,24720,1,-0.218,0.166,15,-5.2,13.5,-4.3,29.9,-13,0.0615558336,-0.646961882,0.0868251595,-0.755027924
953,2386461,24720,1,-0.218,0.166,15,-5.2,13.5,-4.3,29.9,-13,0.0615558336,-0.646961882,0.0868251595,-0.755027924
954,2389972,24720,1,-0.218,0.166,15,-5.2,13.5,-4.3,29.9,-13,0.0615558336,-0.646961882,0.0868251595,-0.755027924
955,2392047,24730,0.996,-0.206,0.169,15.1,-4.4,13.8,-3.6,30.3,-11.4,0.062959685,-0.647053438,0.0866420484,-0.754875332
956,2394531,24730,0.996,-0.206,0.169,15,-4.3,13.9,-3.6,30.3,-11.4,0.0633869442,-0.647083956,0.0865810114,-0.754814295
957,2396532,24730,0.992,-0.206,0.166,15,-4,14,-3.9,29.5,-12,0.0638447218,-0.647083956,0.0865199744,-0.754753258
958,2398777,24730,0.992,-0.206,0.166,15,-4,14,-3.9,29.5,-12,0.0638447218,-0.647083956,0.0865199744,-0.754753258
959,2401131,24740,0.996,-0.198,0.166,15,-3.4,14.2,-3.9,29.5,-12,0.0647602771,-0.647114475,0.0864284188,-0.754692221
960,2403612,24740,0.992,-0.202,0.17,15,-3.2,14.2,-3.9,29.5,-12,0.0652180548,-0.647114475,0.0863673818,-0.754631184
961,2408047,24740,0.992,-0.194,0.173,15.2,-2.9,14,-3.4,30.2,-12.3,0.0654622028,-0.646870327,0.0860316782,-0.754875332
962,2410360,24740,0.992,-0.194,0.173,15.2,-2.9,14,-3.4,30.2,-12.3,0.0659199805,-0.646870327,0.0859706412,-0.754844813
963,2412614,24750,0.996,-0.194,0.173,15.2,-2.7,14.1,-3.4,30.2,-12.3,0.0663777581,-0.646870327,0.0859096042,-0.754814295
964,2414871,24750,0.992,-0.194,0.166,15.3,-2.5,14.2,-3.4,30.2,-12.3,0.0668355358,-0.646839808,0.0858485672,-0.754783776
965,2417117,24750,0.992,-0.19,0.17,15.2,-2.5,14.2,-3.6,30.2,-12.7,0.0672627949,-0.646839808,0.0857875301,-0.754753258
966,2419062,24750,0.992,-0.19,0.166,15.2,-2.5,14.2,-3.6,30.2,-12.7,0.0677205725,-0.646839808,0.0857570116,-0.754722739
967,2421370,24760,0.988,-0.187,0.166,15.2,-2.3,14.1,-3.6,30.2,-12.7,0.0681783502,-0.646839808,0.0856959746,-0.754692221
968,2423674,24760,0.996,-0.191,0.169,15.2,-2,14.1,-3.6,30.2,-12.7,0.0686361278,-0.64680929,0.0856349376,-0.754692221
969,2428476,24760,0.988,-0.187,0.162,15.3,-1.8,14.1,-3.7,29.7,-11.7,0.0690939055,-0.646778771,0.0855433821,-0.754661702
970,2428846,24760,0.992,-0.19,0.162,15.4,-1.6,14.2,-3.7,29.7,-11.7,0.0695516831,-0.646778771,0.0855128636,-0.754631184
971,2432855,24770,0.992,-0.19,0.162,15.4,-1.6,14.2,-3.7,29.7,-11.7,0.0695516831,-0.646778771,0.0855128636,-0.754631184
972,2435006,24770,0.988,-0.19,0.162,15.5,-1.4,14.3,-3.7,29.7,-11.7,0.0704672384,-0.646717734,0.085421308,-0.754631184
973,2437734,24770,0.988,-0.19,0.162,15.4,-1.3,14.2,-3.9,29.6,-11.3,0.0708944975,-0.646687216,0.085360271,-0.754600665
974,2440048,24770,0.988,-0.19,0.162,15.5,-1.2,14.1,-3.9,29.6,-11.3,0.0713522752,-0.646656697,0.085299234,-0.754600665
975,2441961,24780,0.988,-0.19,0.162,15.5,-1.2,14.1,-3.9,29.6,-11.3,0.0713522752,-0.646656697,0.085299234,-0.754600665
976,2444432,24780,0.988,-0.19,0.162,15.5,-1.2,14.1,-3.9,29.6,-11.3,0.0713522752,-0.646656697,0.085299234,-0.754600665
977,2446311,24780,0.988,-0.19,0.162,15.5,-1.2,14.1,-3.9,29.6,-11.3,0.0713522752,-0.646656697,0.085299234,-0.754600665
978,2448664,24780,0.98,-0.186,0.158,15.5,-0.4,13.7,-3.7,29.6,-11.5,0.0731833857,-0.646504105,0.0850550859,-0.754570147
979,2453539,24790,0.973,-0.194,0.162,15.1,-0.2,13.6,-3.7,29.6,-11.5,0.0736106449,-0.646473586,0.0849940489,-0.754570147
980,2453539,24790,0.973,-0.19,0.158,14.6,-0.1,13.5,-3.7,29.6,-11.5,0.074037904,-0.646412549,0.0849330119,-0.754600665
981,2457921,24790,0.973,-0.19,0.158,14.6,-0.1,13.5,-3.7,29.6,-11.5,0.074037904,-0.646412549,0.0849330119,-0.754600665
982,2460114,24790,0.973,-0.19,0.154,13.4,-0.3,13.1,-3.8,29.7,-11.4,0.0745872372,-0.646290475,0.0845362712,-0.754692221
983,2462473,24800,0.973,-0.19,0.154,13.4,-0.3,13.1,-3.8,29.7,-11.4,0.0745872372,-0.646290475,0.0845362712,-0.754692221
984,2464740,24800,0.969,-0.198,0.158,12.5,-0.5,12.6,-3.8,29.7,-11.4,0.0753501999,-0.64619892,0.0844752342,-0.754692221
985,2466536,24800,0.969,-0.198,0.158,12.5,-0.5,12.6,-3.8,29.7,-11.4,0.0753501999,-0.64619892,0.0844752342,-0.754692221
986,2468630,24800,0.969,-0.198,0.158,12.5,-0.5,12.6,-3.8,29.7,-11.4,0.0753501999,-0.64619892,0.0844752342,-0.754692221
987,2472103,24810,0.969,-0.198,0.154,11.3,-0.8,11.9,-3.3,29.3,-11.7,0.0764793847,-0.646107364,0.0843836787,-0.754661702
988,2474210,24810,0.965,-0.194,0.158,11.1,-0.8,11.7,-3.3,29.3,-11.7,0.0768150884,-0.646076846,0.0843836787,-0.754661702
989,2477396,24810,0.969,-0.194,0.162,11,-0.7,11.4,-3.3,29.6,-11.1,0.077150792,-0.646076846,0.0843531602,-0.754631184
990,2479635,24810,0.969,-0.194,0.162,11,-0.7,11.4,-3.3,29.6,-11.1,0.077150792,-0.646076846,0.0843531602,-0.754631184
991,2481584,24820,0.969,-0.194,0.162,11,-0.7,11.4,-3.3,29.6,-11.1,0.077150792,-0.646076846,0.0843531602,-0.754631184
992,2483811,24820,0.969,-0.194,0.162,11,-0.7,11.4,-3.3,29.6,-11.1,0.077150792,-0.646076846,0.0843531602,-0.754631184
993,2486177,24820,0.969,-0.194,0.162,11,-0.7,11.4,-3.3,29.6,-11.1,0.077150792,-0.646076846,0.0843531602,-0.754631184
994,2488886,24820,0.961,-0.194,0.158,10.7,-0.1,9.5,-3.1,29.5,-12.3,0.078768273,-0.645924253,0.0842005676,-0.754631184
995,2493398,24830,0.957,-0.194,0.162,10.8,0,9.3,-3.1,29.5,-12.3,0.0790734581,-0.645893735,0.0841395306,-0.754631184
996,2493909,24830,0.953,-0.19,0.158,10.8,0,9.1,-3.1,29.5,-12.3,0.0793786431,-0.645832698,0.0840784936,-0.754631184
997,2497443,24830,0.953,-0.19,0.158,10.8,0,9.1,-3.1,29.5,-12.3,0.0793786431,-0.645832698,0.0840784936,-0.754631184
998,2499582,24830,0.957,-0.19,0.158,10.9,0,8.4,-3.3,29.2,-12.4,0.0799890133,-0.645771661,0.0839869381,-0.754631184
999,2502239,24840,0.957,-0.19,0.158,10.9,0,8.4,-3.3,29.2,-12.4,0.0799890133,-0.645771661,0.0839869381,-0.754631184
1000,2504102,24840,0.953,-0.186,0.158,10.8,0.3,7.7,-3.3,29.2,-12.4,0.0805383465,-0.645710623,0.0838343455,-0.754661702
1001,2508120,24840,0.953,-0.186,0.158,10.8,0.3,7.7,-3.3,29.2,-12.4,0.0805383465,-0.645710623,0.0838343455,-0.754661702
1002,2508461,24840,0.953,-0.182,0.155,10.6,0.5,7.2,-3.4,28.7,-12.4,0.0807824946,-0.645558031,0.0833155309,-0.754814295
1003,2512900,24850,0.953,-0.182,0.155,10.6,0.5,7.2,-3.4,28.7,-12.4,0.0807824946,-0.645558031,0.0833155309,-0.754814295
1004,2515096,24850,0.957,-0.182,0.151,10.4,0.9,6.9,-3.4,28.7,-12.4,0.0813013092,-0.645466475,0.0831629383,-0.754844813
1005,2517263,24850,0.961,-0.186,0.158,10.4,1.1,6.7,-3.2,28.3,-12.3,0.0815454573,-0.645435957,0.0831019013,-0.754875332
1006,2520569,24850,0.965,-0.178,0.158,10.3,1.4,6.4,-3.2,28.3,-12.3,0.0817896054,-0.64537492,0.0830103458,-0.754875332
1007,2523018,24860,0.965,-0.178,0.154,10.2,1.5,6.1,-3.2,28.3,-12.3,0.0820337535,-0.645313883,0.0829187902,-0.754936369
1008,2525136,24860,0.965,-0.178,0.154,10.2,1.5,6.1,-3.2,28.3,-12.3,0.0820337535,-0.645313883,0.0829187902,-0.754936369
1009,2527401,24860,0.969,-0.182,0.154,9.8,1.8,5.4,-2.9,30.4,-11.1,0.0824915311,-0.645191809,0.0827661977,-0.754997406
1010,2529550,24860,0.969,-0.182,0.154,9.8,1.8,5.4,-2.9,30.4,-11.1,0.0824915311,-0.645191809,0.0827661977,-0.754997406
1011,2532107,24870,0.969,-0.182,0.154,9.8,1.8,5.4,-2.9,30.4,-11.1,0.0824915311,-0.645191809,0.0827661977,-0.754997406
1012,2533876,24870,0.969,-0.182,0.166,9,1.8,4.9,-2.9,30.4,-11.1,0.0831019013,-0.645039216,0.0825220496,-0.755088961
1013,2536635,24870,0.969,-0.182,0.166,9,1.8,4.9,-2.9,30.4,-11.1,0.0831019013,-0.645039216,0.0825220496,-0.755088961
1014,2538869,24870,0.969,-0.182,0.166,9,1.8,4.9,-2.9,30.4,-11.1,0.0831019013,-0.645039216,0.0825220496,-0.755088961
