sample_index,elapsed_us,device_time_ms,acc_x_g,acc_y_g,acc_z_g,gyro_x_dps,gyro_y_dps,gyro_z_dps,mag_x_ut,mag_y_ut,mag_z_ut,quat_w,quat_x,quat_y,quat_z
0,4581,2028780,0.988,0.044,-0.038,0,-0.1,0,-35.6,7.1,27.3,0.156620991,0.707327494,-0.133884701,0.676137577
1,6719,2028780,0.985,0.04,-0.034,0,-0.1,0,-36.3,6.7,27.1,0.156620991,0.707388531,-0.133854183,0.676107059
2,9425,2028790,0.985,0.036,-0.034,0,0,0,-36.3,6.7,27.1,0.156620991,0.707388531,-0.133854183,0.676107059
3,11623,2028790,0.988,0.036,-0.042,0,0,0,-36.3,6.7,27.1,0.156620991,0.707388531,-0.133854183,0.676107059
4,15742,2028790,0.985,0.036,-0.042,0,0,0,-36.9,6.7,27,0.156620991,0.707388531,-0.133884701,0.676107059
5,17974,2028790,0.985,0.036,-0.038,0,0,0,-36.9,6.7,27,0.156620991,0.707388531,-0.133854183,0.676107059
6,20231,2028800,0.981,0.04,-0.03,0,0,0,-36.9,6.7,27,0.156620991,0.707388531,-0.133884701,0.676107059
7,22480,2028800,0.985,0.04,-0.034,0,0,0,-36.9,6.7,27,0.156620991,0.707388531,-0.133854183,0.676107059
8,24769,2028800,0.985,0.04,-0.038,0,0,0,-37.5,6.7,27,0.156620991,0.707388531,-0.133854183,0.676107059
9,27022,2028800,0.985,0.044,-0.034,0,-0.1,0,-37.5,6.7,27,0.156620991,0.707388531,-0.133854183,0.676107059
10,29289,2028810,0.988,0.04,-0.034,0,0,0.1,-37.5,6.7,27,0.156620991,0.707388531,-0.133884701,0.676107059
11,31816,2028810,0.988,0.04,-0.034,0,0,0,-37.5,6.7,27,0.156620991,0.707388531,-0.133884701,0.676107059
12,35235,2028810,0.985,0.04,-0.034,0,0,0,-33.8,4.9,27.1,0.156620991,0.707388531,-0.133884701,0.676107059
13,37505,2028810,0.985,0.036,-0.034,-0.1,0,0,-33.8,4.9,27.1,0.156620991,0.707388531,-0.133884701,0.676107059
14,39731,2028820,0.981,0.04,-0.038,-0.1,-0.1,0,-33.8,4.9,27.1,0.156620991,0.707388531,-0.133884701,0.67607654
15,42401,2028820,0.981,0.04,-0.038,0,-0.3,0,-33.8,4.9,27.1,0.156620991,0.707388531,-0.133884701,0.67607654
16,44282,2028820,0.981,0.04,-0.03,0,-0.3,0,-36.4,6.9,27,0.156620991,0.707388531,-0.133884701,0.67607654
17,46904,2028820,0.985,0.04,-0.038,0,-0.2,0,-36.4,6.9,27,0.156620991,0.707388531,-0.133884701,0.67607654
18,49162,2028830,0.985,0.04,-0.038,0,0,0,-36.4,6.9,27,0.156620991,0.707388531,-0.133884701,0.67607654
19,53303,2028830,0.985,0.036,-0.034,0,0,0,-36.4,6.9,27,0.156620991,0.707388531,-0.133884701,0.67607654
20,55465,2028830,0.981,0.04,-0.034,0,0.2,0.1,-36.4,6.7,27,0.156620991,0.707388531,-0.133884701,0.67607654
21,57759,2028830,0.988,0.04,-0.034,0,0.2,0.1,-36.4,6.7,27,0.156620991,0.707388531,-0.133884701,0.67607654
22,60100,2028840,0.988,0.04,-0.042,0,0.1,0.1,-36.4,6.7,27,0.156620991,0.707388531,-0.133884701,0.676107059
23,62328,2028840,0.988,0.04,-0.03,0,0,0.1,-36.4,6.7,27,0.156620991,0.707388531,-0.133884701,0.676107059
24,65271,2028840,0.985,0.04,-0.038,0,0,0,-35.5,7,27,0.156620991,0.707388531,-0.133884701,0.676107059
25,67662,2028840,0.988,0.04,-0.042,0.1,-0.1,0,-35.5,7,27,0.156620991,0.707388531,-0.133884701,0.676107059
26,69669,2028850,0.985,0.044,-0.038,0,-0.1,0,-35.5,7,27,0.156620991,0.707388531,-0.133884701,0.676107059
27,71834,2028850,0.988,0.044,-0.034,0,-0.1,0,-35.5,7,27,0.156620991,0.707388531,-0.133884701,0.67607654
28,74738,2028850,0.985,0.04,-0.034,0,-0.1,0,-34.8,7.1,26.9,0.156620991,0.707388531,-0.133884701,0.67607654
29,77120,2028850,0.988,0.04,-0.03,0,0,0,-34.8,7.1,26.9,0.156620991,0.707388531,-0.133884701,0.67607654
30,80324,2028860,0.985,0.036,-0.038,0,0,0,-34.8,7.1,26.9,0.156620991,0.707388531,-0.133884701,0.67607654
31,81631,2028860,0.985,0.04,-0.034,-0.1,0.1,0,-34.8,7.1,26.9,0.156620991,0.707388531,-0.133884701,0.67607654
32,84411,2028860,0.985,0.044,-0.038,0,0.1,0,-34.7,6,27,0.156620991,0.707388531,-0.133884701,0.676107059
33,86739,2028860,0.985,0.04,-0.038,0,0.1,0,-34.7,6,27,0.156620991,0.707388531,-0.133884701,0.676107059
34,89365,2028870,0.988,0.04,-0.038,0,0.1,0,-34.7,6,27,0.156620991,0.707388531,-0.133884701,0.676107059
35,93351,2028870,0.985,0.044,-0.034,0,0.1,0,-34.7,6,27,0.156620991,0.707388531,-0.133884701,0.676107059
36,94130,2028870,0.985,0.036,-0.034,0,0.1,0,-34.9,6.2,26.6,0.156620991,0.707388531,-0.133884701,0.676107059
37,96858,2028870,0.988,0.04,-0.034,0,0,0,-34.9,6.2,26.6,0.156620991,0.707388531,-0.133884701,0.676107059
38,100888,2028880,0.985,0.036,-0.026,0,0,0,-34.9,6.2,26.6,0.156620991,0.707388531,-0.133884701,0.676107059
39,101844,2028880,0.988,0.036,-0.03,0,-0.1,0,-34.9,6.2,26.6,0.156620991,0.707388531,-0.133884701,0.676107059
40,104529,2028880,0.988,0.036,-0.03,0,-0.1,0,-34.9,6.2,26.6,0.156620991,0.707388531,-0.133884701,0.676107059
41,106915,2028880,0.988,0.04,-0.034,0,-0.3,-0.1,-34.7,5.4,26.8,0.156590472,0.707327494,-0.13391522,0.676137577
42,109516,2028890,0.981,0.04,-0.03,0,-0.3,-0.1,-34.7,5.4,26.8,0.156590472,0.707327494,-0.13391522,0.676137577
43,111828,2028890,0.985,0.04,-0.03,0,-0.1,0,-34.7,5.4,26.8,0.156590472,0.707358013,-0.13391522,0.676137577
44,115100,2028890,0.985,0.032,-0.038,0,0,0,-34.7,6.1,26.6,0.156590472,0.707358013,-0.13391522,0.676137577
45,117314,2028890,0.988,0.04,-0.038,0,0.1,0,-34.7,6.1,26.6,0.156590472,0.707327494,-0.13391522,0.676137577
46,119398,2028900,0.985,0.04,-0.038,0,0.1,0.1,-34.7,6.1,26.6,0.156590472,0.707327494,-0.13391522,0.676137577
47,121885,2028900,0.985,0.04,-0.038,0.1,0,0.2,-34.7,6.1,26.6,0.156590472,0.707327494,-0.13391522,0.676137577
48,124370,2028900,0.985,0.04,-0.034,0.1,0,0.1,-34.6,6.1,27,0.156590472,0.707327494,-0.13391522,0.676137577
49,126837,2028900,0.985,0.044,-0.038,0,0,0,-34.6,6.1,27,0.156590472,0.707327494,-0.13391522,0.676137577
50,129281,2028910,0.988,0.04,-0.038,0,0,0,-34.6,6.1,27,0.156590472,0.707327494,-0.13391522,0.676137577
51,132251,2028910,0.985,0.04,-0.034,0,0,-0.1,-34.6,6.1,27,0.156590472,0.707327494,-0.13391522,0.676137577
52,134460,2028910,0.988,0.04,-0.034,0,0.1,-0.1,-35.7,6,26.7,0.156590472,0.707327494,-0.13391522,0.676137577
53,136775,2028910,0.988,0.04,-0.042,0,0.2,-0.1,-35.7,6,26.7,0.156590472,0.707327494,-0.133884701,0.676137577
54,139199,2028920,0.988,0.044,-0.034,0,0.2,-0.1,-35.7,6,26.7,0.156590472,0.707327494,-0.133884701,0.676168096
55,143274,2028920,0.985,0.04,-0.038,0,0.2,0,-35.7,6,26.7,0.156590472,0.707327494,-0.133884701,0.676168096
56,144143,2028920,0.985,0.04,-0.034,0,0.1,-0.1,-34.2,5.8,26.7,0.156590472,0.707327494,-0.133884701,0.676168096
57,146648,2028920,0.985,0.036,-0.03,-0.1,0,-0.1,-34.2,5.8,26.7,0.156590472,0.707327494,-0.133884701,0.676168096
58,150796,2028930,0.988,0.036,-0.03,-0.1,0,0,-34.2,5.8,26.7,0.156620991,0.707327494,-0.133884701,0.676168096
59,153041,2028930,0.988,0.04,-0.038,0,0,0,-34.2,5.8,26.7,0.156620991,0.707327494,-0.133884701,0.676168096
60,155219,2028930,0.988,0.04,-0.038,0,0,0,-34.2,5.8,26.7,0.156620991,0.707327494,-0.133884701,0.676168096
61,157560,2028930,0.985,0.04,-0.038,0,0,0,-34.2,5.9,26.5,0.156590472,0.707296976,-0.13391522,0.676198614
62,159850,2028940,0.988,0.04,-0.042,0,0,0,-34.2,5.9,26.5,0.156590472,0.707296976,-0.13391522,0.676198614
63,162078,2028940,0.981,0.044,-0.034,0,0,0,-34.2,5.9,26.5,0.156590472,0.707296976,-0.13391522,0.676198614
64,164279,2028940,0.988,0.036,-0.038,0,0,0,-34.5,5.8,26.7,0.156590472,0.707296976,-0.13391522,0.676198614
65,166876,2028940,0.988,0.04,-0.034,0,0,0,-34.5,5.8,26.7,0.156590472,0.707296976,-0.13391522,0.676198614
66,170152,2028950,0.988,0.04,-0.034,0,0,0,-34.5,5.8,26.7,0.156590472,0.707296976,-0.13391522,0.676198614
67,171765,2028950,0.985,0.04,-0.03,0,0,0,-34.5,5.8,26.7,0.156590472,0.707296976,-0.133884701,0.676198614
68,174166,2028950,0.988,0.036,-0.046,0,-0.1,0,-34.5,5.8,26.7,0.156590472,0.707296976,-0.13391522,0.676198614
69,177822,2028950,0.985,0.036,-0.03,0,0,0,-34.5,5.8,26.7,0.156590472,0.707296976,-0.13391522,0.676198614
70,179526,2028960,0.981,0.04,-0.038,0,0,0.1,-34.5,5.8,26.7,0.156590472,0.707296976,-0.13391522,0.676198614
71,182147,2028960,0.985,0.036,-0.034,0,0,0,-34.5,5.8,26.7,0.156590472,0.707296976,-0.13391522,0.676198614
72,184112,2028960,0.988,0.04,-0.038,0,0,0,-36.1,5.9,26.9,0.156590472,0.707296976,-0.13391522,0.676198614
73,188307,2028960,0.988,0.04,-0.034,0,0,-0.1,-36.1,5.9,26.9,0.156590472,0.707296976,-0.13391522,0.676198614
74,190586,2028970,0.992,0.04,-0.034,0.1,0.1,-0.1,-36.1,5.9,26.9,0.156590472,0.707296976,-0.133884701,0.676198614
75,192926,2028970,0.985,0.036,-0.034,0.1,0,-0.1,-36.1,5.9,26.9,0.156590472,0.707296976,-0.133884701,0.676198614
76,194010,2028970,0.988,0.036,-0.03,0.1,0,0,-33.8,5.9,27,0.156590472,0.707296976,-0.133884701,0.676198614
77,197244,2028970,0.985,0.036,-0.038,0.1,0,0,-33.8,5.9,27,0.156590472,0.707296976,-0.133884701,0.676198614
78,199511,2028980,0.985,0.036,-0.034,0,0.1,0,-33.8,5.9,27,0.156590472,0.707296976,-0.133884701,0.676198614
79,201990,2028980,0.981,0.04,-0.034,0,0.1,0,-33.8,5.9,27,0.156590472,0.707296976,-0.133884701,0.676198614
80,204232,2028980,0.985,0.04,-0.026,-0.1,0.1,0,-33.5,5.8,27.1,0.156590472,0.707266457,-0.13391522,0.676229133
81,206717,2028980,0.985,0.04,-0.038,0,0,0,-33.5,5.8,27.1,0.156590472,0.707266457,-0.13391522,0.676229133
82,209564,2028990,0.985,0.04,-0.034,0,0.1,0,-33.5,5.8,27.1,0.156590472,0.707266457,-0.13391522,0.676229133
83,211727,2028990,0.988,0.04,-0.034,0.1,0.1,0,-33.5,5.8,27.1,0.156590472,0.707266457,-0.13391522,0.676229133
84,215927,2028990,0.985,0.044,-0.034,0.1,0,0,-33.7,5.7,27.3,0.156559954,0.707266457,-0.13391522,0.676229133
85,218143,2028990,0.985,0.036,-0.03,0,-0.1,0,-33.7,5.7,27.3,0.156559954,0.707266457,-0.13391522,0.676229133
86,220340,2029000,0.985,0.04,-0.03,0,-0.2,0,-33.7,5.7,27.3,0.156559954,0.707266457,-0.13391522,0.676229133
87,222657,2029000,0.985,0.04,-0.038,0,-0.3,0,-33.7,5.7,27.3,0.156559954,0.707266457,-0.13391522,0.676229133
88,224814,2029000,0.988,0.04,-0.034,0,-0.3,0,-33.5,6,27.2,0.156559954,0.707266457,-0.13391522,0.676198614
89,227099,2029000,0.988,0.036,-0.042,0,-0.2,0,-33.5,6,27.2,0.156559954,0.707266457,-0.13391522,0.676198614
90,229453,2029010,0.988,0.04,-0.034,0,-0.1,0,-33.5,6,27.2,0.156559954,0.707296976,-0.13391522,0.676198614
91,231687,2029010,0.988,0.04,-0.034,0,0,0,-33.5,6,27.2,0.156559954,0.707296976,-0.13391522,0.676198614
92,234289,2029010,0.985,0.04,-0.03,0,0,0,-34.8,5.9,26.9,0.156559954,0.707296976,-0.13391522,0.676198614
93,238461,2029010,0.988,0.04,-0.03,0,0,0,-34.8,5.9,26.9,0.156559954,0.707296976,-0.13391522,0.676198614
94,239228,2029020,0.985,0.044,-0.034,0,0,0,-34.8,5.9,26.9,0.156559954,0.707266457,-0.13391522,0.676198614
95,243702,2029020,0.985,0.032,-0.046,0,0,0,-34.8,5.9,26.9,0.156559954,0.707266457,-0.13391522,0.676198614
96,244428,2029020,0.985,0.04,-0.038,0,0,0,-34.7,6.2,26.6,0.156559954,0.707266457,-0.13391522,0.676198614
97,246586,2029020,0.985,0.036,-0.03,0,0,0,-34.7,6.2,26.6,0.156559954,0.707266457,-0.13391522,0.676198614
98,249301,2029030,0.985,0.036,-0.034,0,0,0,-34.7,6.2,26.6,0.156559954,0.707266457,-0.13391522,0.676198614
99,251684,2029030,0.985,0.044,-0.034,0,0,0,-34.7,6.2,26.6,0.156559954,0.707266457,-0.13391522,0.676198614
100,254958,2029030,0.988,0.044,-0.038,0,0,-0.1,-34.4,6,27,0.156559954,0.707266457,-0.13391522,0.676229133
101,257187,2029030,0.988,0.044,-0.038,0,-0.1,0,-34.4,6,27,0.156559954,0.707266457,-0.13391522,0.676229133
102,259371,2029040,0.988,0.044,-0.034,0,-0.1,0,-34.4,6,27,0.156559954,0.707266457,-0.13391522,0.676229133
103,261950,2029040,0.985,0.04,-0.038,0,-0.1,0,-34.4,6,27,0.156559954,0.707266457,-0.13391522,0.676229133
104,265930,2029040,0.988,0.036,-0.038,0,0,0.1,-34.5,6.4,27.1,0.156559954,0.707266457,-0.13391522,0.676229133
105,266699,2029040,0.988,0.04,-0.034,0.1,0.1,0,-34.5,6.4,27.1,0.156559954,0.707266457,-0.13391522,0.676229133
106,270355,2029050,0.988,0.036,-0.038,0.1,0.2,0,-34.5,6.4,27.1,0.156559954,0.707266457,-0.13391522,0.676229133
107,273323,2029050,0.988,0.036,-0.042,0.1,0.2,0,-34.5,6.4,27.1,0.156559954,0.707266457,-0.13391522,0.676229133
108,275601,2029050,0.988,0.04,-0.038,0.1,0.2,0.1,-34.7,5.6,27.7,0.156559954,0.707266457,-0.13391522,0.676229133
109,278379,2029050,0.988,0.036,-0.038,0,0.1,0,-34.7,5.6,27.7,0.156559954,0.707266457,-0.13391522,0.676229133
110,279188,2029060,0.988,0.04,-0.034,0,0,0,-34.7,5.6,27.7,0.156559954,0.707266457,-0.13391522,0.676229133
111,282184,2029060,0.985,0.036,-0.038,0,-0.1,-0.1,-34.7,5.6,27.7,0.156559954,0.707266457,-0.13391522,0.676229133
112,284421,2029060,0.985,0.04,-0.034,0,-0.2,0,-34.9,5.8,25.9,0.156559954,0.707266457,-0.13391522,0.676229133
113,286893,2029060,0.985,0.04,-0.038,-0.1,-0.2,0,-34.9,5.8,25.9,0.156559954,0.707266457,-0.13391522,0.676229133
114,289774,2029070,0.988,0.036,-0.038,-0.1,-0.1,0,-34.9,5.8,25.9,0.156559954,0.707266457,-0.13391522,0.676229133
115,292735,2029070,0.985,0.044,-0.038,0,-0.1,-0.1,-34.9,5.8,25.9,0.156559954,0.707266457,-0.13391522,0.676229133
116,295035,2029070,0.985,0.04,-0.034,0,0,-0.1,-34.6,5.6,27.5,0.156559954,0.707266457,-0.13391522,0.676229133
117,297233,2029070,0.992,0.04,-0.03,0,0,-0.1,-34.6,5.6,27.5,0.156559954,0.707266457,-0.13391522,0.676229133
118,299415,2029080,0.988,0.04,-0.03,0,-0.1,-0.1,-34.6,5.6,27.5,0.156559954,0.707266457,-0.13391522,0.676198614
119,302311,2029080,0.988,0.04,-0.034,0,-0.3,0,-34.6,5.6,27.5,0.156559954,0.707266457,-0.13391522,0.676198614
120,304463,2029080,0.988,0.04,-0.034,0,-0.3,0,-34.6,5.6,27.5,0.156559954,0.707266457,-0.13391522,0.676198614
121,306889,2029080,0.985,0.04,-0.034,0,-0.2,0,-34.8,6,28.4,0.156590472,0.707266457,-0.133884701,0.676229133
122,309309,2029090,0.981,0.04,-0.038,0,-0.1,0,-34.8,6,28.4,0.156590472,0.707266457,-0.133884701,0.676229133
123,311622,2029090,0.985,0.044,-0.034,0,-0.1,0,-34.8,6,28.4,0.156590472,0.707266457,-0.133884701,0.676229133
124,314714,2029090,0.981,0.036,-0.034,0,-0.1,0,-34.8,5.5,28.3,0.156590472,0.707266457,-0.133884701,0.676229133
125,317832,2029090,0.985,0.036,-0.038,0,0,0,-34.8,5.5,28.3,0.156590472,0.707266457,-0.133884701,0.676229133
126,319255,2029100,0.985,0.032,-0.042,-0.1,0,0,-34.8,5.5,28.3,0.156590472,0.707266457,-0.133884701,0.676229133
127,321978,2029100,0.985,0.04,-0.038,-0.1,0.1,0,-34.8,5.5,28.3,0.156590472,0.707266457,-0.13391522,0.676229133
128,324298,2029100,0.985,0.036,-0.038,-0.1,0.1,0,-35.1,6.1,28.3,0.156590472,0.707266457,-0.13391522,0.676229133
129,328310,2029100,0.985,0.04,-0.038,0,0,0,-35.1,6.1,28.3,0.156590472,0.707266457,-0.13391522,0.676229133
130,329147,2029110,0.988,0.036,-0.038,0,-0.1,0,-35.1,6.1,28.3,0.156590472,0.707266457,-0.13391522,0.676229133
131,332777,2029110,0.985,0.044,-0.034,0,-0.1,0.1,-35.1,6.1,28.3,0.156590472,0.707266457,-0.13391522,0.676229133
132,335271,2029110,0.988,0.036,-0.03,0,0,0.1,-35.1,5.9,25.2,0.156590472,0.707266457,-0.13391522,0.676229133
133,337490,2029110,0.988,0.04,-0.038,0,0.1,0.1,-35.1,5.9,25.2,0.156590472,0.707266457,-0.13391522,0.676229133
134,339719,2029120,0.985,0.044,-0.034,0,0.2,0,-35.1,5.9,25.2,0.156590472,0.707266457,-0.13391522,0.676229133
135,342396,2029120,0.985,0.04,-0.03,0,0.1,0,-35.1,5.9,25.2,0.156590472,0.707235939,-0.13391522,0.676229133
136,344239,2029120,0.985,0.04,-0.038,0,0.1,-0.1,-35,6.2,27.2,0.156590472,0.707235939,-0.13391522,0.676229133
137,346655,2029120,0.985,0.036,-0.034,0,0.1,-0.1,-35,6.2,27.2,0.156590472,0.707235939,-0.13391522,0.676229133
138,350237,2029130,0.985,0.04,-0.038,0,0.1,-0.1,-35,6.2,27.2,0.156590472,0.707235939,-0.13391522,0.676229133
139,351862,2029130,0.981,0.04,-0.038,0,0,0,-35,6.2,27.2,0.156590472,0.707235939,-0.13391522,0.676229133
140,354440,2029130,0.985,0.036,-0.03,0,-0.1,0,-35,6,26.4,0.156590472,0.707266457,-0.13391522,0.676229133
141,356892,2029130,0.985,0.04,-0.038,0.1,-0.1,0.1,-35,6,26.4,0.156590472,0.707266457,-0.13391522,0.676229133
142,360157,2029140,0.985,0.04,-0.03,0,-0.1,0,-35,6,26.4,0.156590472,0.707266457,-0.13391522,0.676229133
143,362430,2029140,0.985,0.04,-0.034,0,0,0,-35,6,26.4,0.156590472,0.707266457,-0.13391522,0.676229133
144,364171,2029140,0.988,0.044,-0.034,0,0,0,-35,6.2,26,0.156590472,0.707266457,-0.13391522,0.676229133
145,366751,2029140,0.992,0.04,-0.038,0,0,0,-35,6.2,26,0.156590472,0.707266457,-0.13391522,0.676229133
146,370651,2029150,0.988,0.044,-0.034,0,0,0,-35,6.2,26,0.156590472,0.707266457,-0.13391522,0.676229133
147,372900,2029150,0.988,0.04,-0.034,0.1,0,0,-35,6.2,26,0.156590472,0.707266457,-0.13391522,0.676229133
148,375957,2029150,0.988,0.04,-0.034,0.1,0,0,-35.1,5.9,25.6,0.156590472,0.707266457,-0.13391522,0.676229133
149,376601,2029150,0.985,0.04,-0.038,0.1,0.1,0,-35.1,5.9,25.6,0.156590472,0.707266457,-0.133884701,0.676229133
150,379469,2029160,0.981,0.04,-0.034,0,0.1,0,-35.1,5.9,25.6,0.156590472,0.707266457,-0.133884701,0.676229133
151,381739,2029160,0.985,0.04,-0.03,0,0.1,-0.1,-35.1,5.9,25.6,0.156590472,0.707266457,-0.133884701,0.676229133
152,384456,2029160,0.985,0.044,-0.03,0,0,0,-34.7,6.2,27.2,0.156590472,0.707266457,-0.133884701,0.676229133
153,386671,2029160,0.981,0.04,-0.03,0,0,0,-34.7,6.2,27.2,0.156590472,0.707266457,-0.133884701,0.676229133
154,390763,2029170,0.985,0.036,-0.042,0,-0.1,0,-34.7,6.2,27.2,0.156590472,0.707266457,-0.13391522,0.676229133
155,393020,2029170,0.988,0.04,-0.034,0,-0.1,0.1,-34.7,6.2,27.2,0.156590472,0.707266457,-0.13391522,0.676229133
156,395393,2029170,0.988,0.04,-0.042,0,-0.1,0,-34.6,6,26.6,0.156590472,0.707266457,-0.13391522,0.676229133
157,397489,2029170,0.988,0.036,-0.038,0.1,-0.1,0.1,-34.6,6,26.6,0.156590472,0.707266457,-0.13391522,0.676229133
158,399730,2029180,0.988,0.036,-0.038,0,-0.1,0.1,-34.6,6,26.6,0.156559954,0.707266457,-0.13391522,0.676229133
159,402000,2029180,0.988,0.036,-0.03,0,-0.1,0.1,-34.6,6,26.6,0.156559954,0.707266457,-0.13391522,0.676229133
160,404251,2029180,0.988,0.036,-0.03,0,-0.1,0.1,-34.6,6,26.6,0.156559954,0.707266457,-0.13391522,0.676229133
161,408321,2029180,0.985,0.036,-0.034,0,0,0,-34.6,5.9,26.7,0.156559954,0.707266457,-0.133945738,0.676198614
162,410519,2029190,0.992,0.04,-0.034,0,0,0,-34.6,5.9,26.7,0.156559954,0.707266457,-0.133945738,0.676198614
163,412751,2029190,0.985,0.04,-0.038,0,0.1,0,-34.6,5.9,26.7,0.156559954,0.707266457,-0.133945738,0.676198614
164,415025,2029190,0.985,0.04,-0.034,0,0.2,0,-34.9,5.8,26.6,0.156559954,0.707266457,-0.133945738,0.676229133
165,417340,2029190,0.985,0.036,-0.038,0,0.1,0,-34.9,5.8,26.6,0.156559954,0.707266457,-0.133945738,0.676229133
166,419507,2029200,0.988,0.04,-0.034,0,0,0,-34.9,5.8,26.6,0.156559954,0.707266457,-0.133945738,0.676229133
167,421756,2029200,0.981,0.036,-0.038,0.1,-0.1,0,-34.9,5.8,26.6,0.156559954,0.707266457,-0.133945738,0.676229133
168,424186,2029200,0.981,0.036,-0.034,0,-0.1,0,-34.6,5.9,26.7,0.156559954,0.707266457,-0.133945738,0.676229133
169,426678,2029200,0.985,0.04,-0.042,0,-0.1,0,-34.6,5.9,26.7,0.156559954,0.707266457,-0.133945738,0.676198614
170,430134,2029210,0.985,0.036,-0.03,0,-0.1,0,-34.6,5.9,26.7,0.156559954,0.707266457,-0.133945738,0.676198614
171,432610,2029210,0.985,0.036,-0.038,0,-0.1,0,-34.6,5.9,26.7,0.156559954,0.707266457,-0.133945738,0.676198614
172,435446,2029210,0.992,0.036,-0.038,0,-0.1,0,-35,6.2,27.7,0.156559954,0.707296976,-0.133945738,0.676198614
173,437778,2029210,0.985,0.04,-0.038,0,-0.1,0,-35,6.2,27.7,0.156559954,0.707296976,-0.133945738,0.676198614
174,440682,2029220,0.985,0.04,-0.042,0,0,0,-35,6.2,27.7,0.156559954,0.707296976,-0.133945738,0.676198614
175,442968,2029220,0.985,0.036,-0.038,0,0,0,-35,6.2,27.7,0.156559954,0.707296976,-0.133945738,0.676198614
176,445107,2029220,0.988,0.04,-0.038,0,0.1,0,-34.7,5.1,25.6,0.156559954,0.707296976,-0.133945738,0.676198614
177,447466,2029220,0.985,0.04,-0.038,0,0.2,0,-34.7,5.1,25.6,0.156559954,0.707266457,-0.133945738,0.676198614
178,449643,2029230,0.988,0.04,-0.038,0,0.2,0,-34.7,5.1,25.6,0.156559954,0.707266457,-0.133945738,0.676198614
179,451914,2029230,0.985,0.04,-0.034,0,0.2,0,-34.7,5.1,25.6,0.156559954,0.707266457,-0.133945738,0.676229133
180,454146,2029230,0.985,0.036,-0.034,0,0.2,-0.1,-34.9,4.5,26.2,0.156559954,0.707296976,-0.13391522,0.676198614
181,458491,2029230,0.988,0.04,-0.026,0,0.2,0,-34.9,4.5,26.2,0.156559954,0.707266457,-0.13391522,0.676198614
182,459350,2029240,0.985,0.04,-0.042,0,0.2,0,-34.9,4.5,26.2,0.156559954,0.707266457,-0.13391522,0.676198614
183,461887,2029240,0.985,0.036,-0.038,0,0.1,0,-34.9,4.5,26.2,0.156559954,0.707266457,-0.13391522,0.676198614
184,464132,2029240,0.985,0.04,-0.038,0,0,0,-34.6,3.8,25.7,0.156559954,0.707266457,-0.13391522,0.676198614
185,466562,2029240,0.985,0.036,-0.034,0,0,-0.1,-34.6,3.8,25.7,0.156559954,0.707266457,-0.13391522,0.676198614
186,469621,2029250,0.985,0.036,-0.042,0,0,-0.2,-34.6,3.8,25.7,0.156590472,0.707266457,-0.13391522,0.676198614
187,471915,2029250,0.988,0.04,-0.034,0,0,-0.2,-34.6,3.8,25.7,0.156590472,0.707266457,-0.13391522,0.676198614
188,474276,2029250,0.985,0.044,-0.038,0,0,-0.1,-34.6,3.6,26.1,0.156590472,0.707266457,-0.13391522,0.676198614
189,476945,2029250,0.985,0.04,-0.034,0,0,-0.1,-34.6,3.6,26.1,0.156590472,0.707266457,-0.13391522,0.676198614
190,479058,2029260,0.988,0.04,-0.034,0,0,0,-34.6,3.6,26.1,0.156590472,0.707266457,-0.13391522,0.676198614
191,483135,2029260,0.988,0.036,-0.03,0,0.1,0,-34.6,3.6,26.1,0.156590472,0.707266457,-0.13391522,0.676198614
192,485362,2029260,0.988,0.04,-0.034,0.1,0.2,0,-34.8,7.5,27.8,0.156590472,0.707266457,-0.13391522,0.676229133
193,487756,2029260,0.985,0.04,-0.03,0.1,0.2,0,-34.8,7.5,27.8,0.156590472,0.707266457,-0.13391522,0.676229133
194,490840,2029270,0.985,0.04,-0.038,0.1,0.3,0,-34.8,7.5,27.8,0.156590472,0.707266457,-0.13391522,0.676229133
195,492965,2029270,0.985,0.04,-0.042,0.1,0.2,0,-34.8,7.5,27.8,0.156559954,0.707266457,-0.133884701,0.676229133
196,494251,2029270,0.981,0.036,-0.034,0,0.1,0,-34.9,4.9,26.4,0.156559954,0.707266457,-0.133884701,0.676229133
197,498272,2029270,0.988,0.044,-0.034,0,0,0,-34.9,4.9,26.4,0.156559954,0.707266457,-0.133884701,0.676229133
198,500621,2029280,0.985,0.036,-0.038,0,-0.1,0,-34.9,4.9,26.4,0.156559954,0.707266457,-0.133884701,0.676229133
199,502771,2029280,0.985,0.04,-0.046,0,0,0,-34.9,4.9,26.4,0.156559954,0.707266457,-0.133884701,0.676229133
200,505103,2029280,0.985,0.04,-0.046,0,0,0,-34.9,4.9,26.4,0.156559954,0.707266457,-0.133884701,0.676229133
201,507267,2029280,0.988,0.044,-0.038,0.1,-0.1,0,-35,5.6,26.4,0.156559954,0.707296976,-0.13391522,0.676198614
202,509411,2029290,0.988,0.04,-0.038,0,-0.2,0,-35,5.6,26.4,0.156559954,0.707296976,-0.13391522,0.676198614
203,511898,2029290,0.985,0.04,-0.034,0,-0.1,0,-35,5.6,26.4,0.156559954,0.707296976,-0.13391522,0.676198614
204,514182,2029290,0.985,0.032,-0.042,0,-0.1,0,-34.8,6.2,26.2,0.156559954,0.707296976,-0.13391522,0.676198614
205,518402,2029290,0.985,0.04,-0.03,-0.1,0,0,-34.8,6.2,26.2,0.156559954,0.707296976,-0.13391522,0.676198614
206,519209,2029300,0.988,0.04,-0.034,0,0,0,-34.8,6.2,26.2,0.156559954,0.707296976,-0.13391522,0.676198614
207,521754,2029300,0.985,0.04,-0.038,0,0,0,-34.8,6.2,26.2,0.156559954,0.707296976,-0.13391522,0.676198614
208,525691,2029300,0.985,0.036,-0.03,0,0,0,-35,7.3,26.1,0.156559954,0.707296976,-0.13391522,0.676198614
209,527889,2029300,0.985,0.04,-0.038,0,0.1,-0.1,-35,7.3,26.1,0.156559954,0.707296976,-0.13391522,0.676198614
210,530173,2029310,0.981,0.04,-0.034,0,0,-0.1,-35,7.3,26.1,0.156559954,0.707296976,-0.13391522,0.676198614
211,532459,2029310,0.985,0.036,-0.038,0,0,-0.1,-35,7.3,26.1,0.156559954,0.707296976,-0.13391522,0.676198614
212,534639,2029310,0.985,0.036,-0.034,0,0,-0.1,-34.9,6.2,26.8,0.156559954,0.707296976,-0.133884701,0.676198614
213,536659,2029310,0.981,0.04,-0.03,0,0,0,-34.9,6.2,26.8,0.156559954,0.707296976,-0.133884701,0.676198614
214,539382,2029320,0.988,0.04,-0.038,0.1,0.1,0,-34.9,6.2,26.8,0.156559954,0.707296976,-0.133884701,0.676198614
215,542786,2029320,0.985,0.04,-0.034,0.1,0,0.1,-34.9,6.2,26.8,0.156559954,0.707296976,-0.133884701,0.676198614
216,545058,2029320,0.985,0.04,-0.034,0.1,0.1,0.2,-35.1,6.5,26.7,0.156559954,0.707296976,-0.133884701,0.676198614
217,547186,2029320,0.992,0.04,-0.038,0.1,0.1,0,-35.1,6.5,26.7,0.156559954,0.707296976,-0.133884701,0.676198614
218,549487,2029330,0.985,0.04,-0.038,0,0.1,0,-35.1,6.5,26.7,0.156559954,0.707296976,-0.133884701,0.676198614
219,551778,2029330,0.988,0.04,-0.038,0,0,0,-35.1,6.5,26.7,0.156559954,0.707296976,-0.133884701,0.676198614
220,554403,2029330,0.988,0.04,-0.038,0,0,0,-35.1,6.5,26.7,0.156559954,0.707296976,-0.133884701,0.676198614
221,557248,2029330,0.981,0.04,-0.034,0,0,0,-35.1,6.6,26.9,0.156559954,0.707296976,-0.133884701,0.676198614
222,559528,2029340,0.992,0.036,-0.034,0,0,0,-35.1,6.6,26.9,0.156559954,0.707296976,-0.133884701,0.676198614
223,561702,2029340,0.985,0.044,-0.03,0,0,0,-35.1,6.6,26.9,0.156559954,0.707296976,-0.133884701,0.676198614
224,565881,2029340,0.985,0.04,-0.034,0,0,0,-34.9,6.1,26.8,0.156559954,0.707296976,-0.133884701,0.676198614
225,568093,2029340,0.981,0.036,-0.042,0,0,0,-34.9,6.1,26.8,0.156559954,0.707296976,-0.133884701,0.676198614
226,570758,2029350,0.985,0.04,-0.034,0,0,-0.1,-34.9,6.1,26.8,0.156559954,0.707296976,-0.133884701,0.676198614
227,571636,2029350,0.985,0.032,-0.034,0,0,0,-34.9,6.1,26.8,0.156559954,0.707296976,-0.133884701,0.676198614
228,574232,2029350,0.985,0.036,-0.03,0,-0.1,0,-35.1,6.1,27,0.156559954,0.707296976,-0.133884701,0.676198614
229,578278,2029350,0.988,0.04,-0.038,0,-0.1,0,-35.1,6.1,27,0.156559954,0.707296976,-0.133884701,0.676168096
230,580463,2029360,0.988,0.036,-0.034,0,-0.1,0,-35.1,6.1,27,0.156559954,0.707327494,-0.133884701,0.676168096
231,582692,2029360,0.985,0.04,-0.038,0,-0.1,0,-35.1,6.1,27,0.156559954,0.707327494,-0.133884701,0.676168096
232,585004,2029360,0.988,0.044,-0.034,0,-0.1,0,-34.6,5,27,0.156559954,0.707327494,-0.133884701,0.676168096
233,587536,2029360,0.985,0.032,-0.034,0,-0.1,0,-34.6,5,27,0.156559954,0.707327494,-0.133884701,0.676168096
234,589747,2029370,0.981,0.036,-0.03,0,0,0,-34.6,5,27,0.156559954,0.707327494,-0.133884701,0.676168096
235,592316,2029370,0.985,0.04,-0.034,0,0,0,-34.6,5,27,0.156559954,0.707327494,-0.133884701,0.676168096
236,594314,2029370,0.985,0.04,-0.038,0,0,0,-35.2,7.4,26.6,0.156559954,0.707327494,-0.133884701,0.676168096
237,596897,2029370,0.988,0.04,-0.034,0,0,0,-35.2,7.4,26.6,0.156529435,0.707327494,-0.133884701,0.676168096
238,600954,2029380,0.981,0.04,-0.038,0,-0.1,0,-35.2,7.4,26.6,0.156559954,0.707327494,-0.13391522,0.676168096
239,601849,2029380,0.988,0.04,-0.034,0,-0.1,-0.1,-35.2,7.4,26.6,0.156559954,0.707327494,-0.133884701,0.676168096
240,604358,2029380,0.988,0.04,-0.034,0,-0.1,-0.1,-35.2,7.4,26.6,0.156559954,0.707327494,-0.133884701,0.676168096
241,606683,2029380,0.981,0.04,-0.034,0,-0.3,0,-36,7.4,26.3,0.156559954,0.707327494,-0.133884701,0.676168096
242,610737,2029390,0.985,0.04,-0.034,0,-0.3,0,-36,7.4,26.3,0.156559954,0.707327494,-0.133884701,0.676137577
243,613317,2029390,0.988,0.04,-0.038,0,-0.3,-0.1,-36,7.4,26.3,0.156559954,0.707358013,-0.133884701,0.676137577
244,614139,2029390,0.988,0.036,-0.042,0.1,-0.3,-0.1,-36.8,7.5,26.4,0.156559954,0.707358013,-0.133884701,0.676137577
245,616777,2029390,0.985,0.036,-0.038,0,-0.1,0,-36.8,7.5,26.4,0.156559954,0.707358013,-0.133884701,0.676137577
246,620668,2029400,0.985,0.032,-0.034,0,0,0,-36.8,7.5,26.4,0.156559954,0.707358013,-0.133884701,0.676137577
247,623035,2029400,0.985,0.04,-0.038,0,0.1,0,-36.8,7.5,26.4,0.156559954,0.707358013,-0.133884701,0.676137577
248,625217,2029400,0.985,0.036,-0.042,0,0.1,0.1,-37,7.2,26.6,0.156559954,0.707358013,-0.133884701,0.676137577
249,627558,2029400,0.985,0.04,-0.034,0,0.1,0.1,-37,7.2,26.6,0.156559954,0.707358013,-0.133884701,0.676137577
250,629713,2029410,0.985,0.04,-0.038,0,0.1,0,-37,7.2,26.6,0.156559954,0.707358013,-0.133884701,0.676137577
251,631955,2029410,0.992,0.04,-0.042,0,0.1,0.1,-37,7.2,26.6,0.156559954,0.707327494,-0.133884701,0.676137577
252,634654,2029410,0.988,0.044,-0.038,0,0.1,0.1,-33.7,4.9,26.9,0.156559954,0.707327494,-0.133884701,0.676168096
253,636583,2029410,0.988,0.04,-0.034,0,0,0.1,-33.7,4.9,26.9,0.156559954,0.707327494,-0.13391522,0.676168096
254,640807,2029420,0.988,0.036,-0.038,0,0,0,-33.7,4.9,26.9,0.156529435,0.707327494,-0.13391522,0.676168096
255,642636,2029420,0.985,0.04,-0.034,0,0,0,-33.7,4.9,26.9,0.156529435,0.707327494,-0.133884701,0.676168096
256,644916,2029420,0.985,0.04,-0.038,0.1,0.1,0,-36.8,6.8,26.3,0.156529435,0.707327494,-0.133884701,0.676168096
257,647132,2029420,0.985,0.04,-0.034,0,0.1,0,-36.8,6.8,26.3,0.156529435,0.707327494,-0.133884701,0.676168096
258,649380,2029430,0.988,0.04,-0.042,0,0.1,0.1,-36.8,6.8,26.3,0.156529435,0.707327494,-0.133884701,0.676168096
259,651664,2029430,0.985,0.044,-0.042,-0.1,0,0,-36.8,6.8,26.3,0.156529435,0.707327494,-0.13391522,0.676168096
260,654516,2029430,0.985,0.044,-0.042,-0.1,0,0,-36.8,6.8,26.3,0.156529435,0.707327494,-0.13391522,0.676168096
261,656906,2029430,0.985,0.04,-0.03,0,0,-0.1,-36.4,6.9,26.9,0.156559954,0.707358013,-0.133884701,0.676137577
262,659179,2029440,0.985,0.04,-0.034,0,0,-0.2,-36.4,6.9,26.9,0.156559954,0.707358013,-0.133884701,0.676137577
263,661624,2029440,0.985,0.044,-0.034,0,0,-0.2,-36.4,6.9,26.9,0.156559954,0.707358013,-0.133884701,0.676137577
264,665071,2029440,0.988,0.036,-0.03,0,-0.1,-0.1,-35.9,6.8,27,0.156559954,0.707358013,-0.133884701,0.676107059
265,666650,2029440,0.985,0.036,-0.038,0.1,-0.1,-0.1,-35.9,6.8,27,0.156559954,0.707358013,-0.133884701,0.676107059
266,670227,2029450,0.981,0.036,-0.038,0.1,0,-0.1,-35.9,6.8,27,0.156559954,0.707358013,-0.133884701,0.676107059
267,672027,2029450,0.985,0.036,-0.034,0.1,0,-0.1,-35.9,6.8,27,0.156559954,0.707358013,-0.133854183,0.676107059
268,674207,2029450,0.985,0.04,-0.038,0.2,0,0,-35.5,7.4,26.9,0.156559954,0.707358013,-0.133854183,0.676107059
269,676860,2029450,0.988,0.04,-0.034,0.2,0,0,-35.5,7.4,26.9,0.156559954,0.707358013,-0.133854183,0.676137577
270,681014,2029460,0.988,0.04,-0.038,0.1,0,0,-35.5,7.4,26.9,0.156559954,0.707358013,-0.133854183,0.676137577
271,681905,2029460,0.985,0.04,-0.034,0.1,0,0,-35.5,7.4,26.9,0.156559954,0.707358013,-0.133854183,0.676137577
272,684337,2029460,0.985,0.044,-0.034,0,0,-0.1,-34.5,6,27,0.156559954,0.707358013,-0.133854183,0.676137577
273,686670,2029460,0.985,0.036,-0.046,0,0,0,-34.5,6,27,0.156559954,0.707358013,-0.133854183,0.676137577
274,689265,2029470,0.985,0.04,-0.038,0,0,0,-34.5,6,27,0.156559954,0.707358013,-0.133854183,0.676137577
275,693665,2029470,0.985,0.04,-0.038,0,-0.1,0,-34.5,6,27,0.156559954,0.707388531,-0.133854183,0.676137577
276,694328,2029470,0.988,0.04,-0.03,0,0,0,-34.7,5.8,27.2,0.156559954,0.707388531,-0.133854183,0.676137577
277,697558,2029470,0.985,0.04,-0.034,0,0,0,-34.7,5.8,27.2,0.156559954,0.707388531,-0.133854183,0.676107059
278,699604,2029480,0.985,0.04,-0.042,0,-0.1,0,-34.7,5.8,27.2,0.156559954,0.707388531,-0.133854183,0.676107059
279,702023,2029480,0.988,0.044,-0.038,0,-0.1,0,-34.7,5.8,27.2,0.156559954,0.707388531,-0.133854183,0.676107059
280,704213,2029480,0.985,0.032,-0.03,0,0,0,-34.7,5.7,27,0.156559954,0.707388531,-0.133854183,0.676107059
281,706763,2029480,0.985,0.032,-0.03,0,0,0,-34.7,5.7,27,0.156559954,0.707388531,-0.133854183,0.676107059
282,710922,2029490,0.981,0.036,-0.034,0,0,0.1,-34.7,5.7,27,0.156559954,0.707388531,-0.133854183,0.676107059
283,711740,2029490,0.985,0.032,-0.042,0,0.1,0,-34.7,5.7,27,0.156559954,0.707388531,-0.133854183,0.676107059
284,714311,2029490,0.985,0.04,-0.034,0,0.2,0,-34.5,5.7,27,0.156559954,0.707388531,-0.133854183,0.676107059
285,716675,2029490,0.981,0.04,-0.034,0.1,0.2,0,-34.5,5.7,27,0.156559954,0.707388531,-0.133854183,0.676107059
286,719657,2029500,0.988,0.04,-0.03,0.1,0.2,-0.1,-34.5,5.7,27,0.156559954,0.707388531,-0.133823664,0.676137577
287,721770,2029500,0.985,0.036,-0.034,0.1,0.1,-0.1,-34.5,5.7,27,0.156559954,0.707358013,-0.133823664,0.676137577
288,724099,2029500,0.985,0.036,-0.038,0,0,0,-34.6,6,27.4,0.156559954,0.707358013,-0.133823664,0.676137577
289,728167,2029500,0.985,0.036,-0.042,0,-0.1,0,-34.6,6,27.4,0.156559954,0.707388531,-0.133823664,0.676137577
290,730377,2029510,0.985,0.036,-0.038,0,-0.2,0,-34.6,6,27.4,0.156559954,0.707388531,-0.133823664,0.676107059
291,732738,2029510,0.985,0.04,-0.034,0,-0.1,0,-34.6,6,27.4,0.156559954,0.707388531,-0.133823664,0.676107059
292,734141,2029510,0.988,0.04,-0.034,0,0,0,-34.6,6,27.4,0.156559954,0.707388531,-0.133823664,0.676107059
293,737202,2029510,0.981,0.04,-0.034,0,0,0,-34.6,6,27.4,0.156559954,0.707388531,-0.133823664,0.676107059
294,739597,2029520,0.985,0.04,-0.038,0,0.1,0,-34.6,6,27.4,0.156559954,0.707388531,-0.133823664,0.676107059
295,742302,2029520,0.985,0.032,-0.038,0,0.2,0,-34.6,6,27.4,0.156559954,0.707388531,-0.133823664,0.676137577
296,744113,2029520,0.988,0.044,-0.034,0,0.1,-0.1,-34.1,5.9,27.1,0.156559954,0.707388531,-0.133823664,0.676137577
297,748479,2029520,0.988,0.04,-0.034,0,0.1,0,-34.1,5.9,27.1,0.156559954,0.707358013,-0.133823664,0.676137577
298,750784,2029530,0.985,0.04,-0.038,0,0,-0.1,-34.1,5.9,27.1,0.156559954,0.707388531,-0.133823664,0.676137577
299,751627,2029530,0.988,0.036,-0.038,0,-0.1,-0.1,-34.1,5.9,27.1,0.156559954,0.707388531,-0.133823664,0.676137577
300,754139,2029530,0.985,0.04,-0.03,0,-0.1,0,-34.1,6.2,27.1,0.156590472,0.707388531,-0.133823664,0.676107059
301,758229,2029530,0.985,0.04,-0.038,0,-0.1,0,-34.1,6.2,27.1,0.156590472,0.707388531,-0.133823664,0.676107059
302,760463,2029540,0.985,0.036,-0.03,0,-0.1,0,-34.1,6.2,27.1,0.156590472,0.707388531,-0.133823664,0.676107059
303,762637,2029540,0.988,0.048,-0.038,0,-0.1,-0.1,-34.1,6.2,27.1,0.156590472,0.707388531,-0.133823664,0.676107059
304,765849,2029540,0.985,0.04,-0.042,0,0,-0.1,-34.4,6,26.9,0.156590472,0.707388531,-0.133823664,0.676107059
305,768052,2029540,0.981,0.04,-0.034,0,0,-0.1,-34.4,6,26.9,0.156590472,0.707388531,-0.133823664,0.676107059
306,770236,2029550,0.985,0.036,-0.038,0,0,-0.1,-34.4,6,26.9,0.156590472,0.707388531,-0.133823664,0.676107059
307,772507,2029550,0.985,0.04,-0.038,0,0,0,-34.4,6,26.9,0.156590472,0.707388531,-0.133823664,0.676107059
308,774741,2029550,0.988,0.044,-0.03,0,0.1,0,-34,5.8,27.5,0.156590472,0.707388531,-0.133823664,0.676107059
309,776973,2029550,0.985,0.036,-0.034,0,0.1,0,-34,5.8,27.5,0.156590472,0.707388531,-0.133823664,0.676107059
310,779372,2029560,0.985,0.04,-0.034,0,0.1,0,-34,5.8,27.5,0.156590472,0.707388531,-0.133823664,0.676107059
311,782056,2029560,0.985,0.04,-0.034,0,0.1,0,-34,5.8,27.5,0.156590472,0.707388531,-0.133823664,0.676107059
312,784513,2029560,0.988,0.04,-0.038,0,0,0,-34,5.8,27.5,0.156590472,0.707388531,-0.133823664,0.676107059
313,786734,2029560,0.988,0.036,-0.03,0,0,0,-34,5.8,27.5,0.156590472,0.707388531,-0.133823664,0.676107059
314,789339,2029570,0.985,0.044,-0.034,0,-0.1,-0.1,-34,5.8,27.5,0.156590472,0.707388531,-0.133823664,0.676107059
315,792675,2029570,0.985,0.04,-0.034,-0.1,0,-0.2,-34,5.8,27.5,0.156590472,0.707388531,-0.133823664,0.676107059
316,795286,2029570,0.981,0.04,-0.038,0,0,-0.1,-33.7,6,27,0.156590472,0.707388531,-0.133823664,0.676107059
317,797576,2029570,0.981,0.036,-0.03,0,0.1,0,-33.7,6,27,0.156590472,0.707388531,-0.133823664,0.676107059
318,799789,2029580,0.985,0.04,-0.034,0.1,0.2,0,-33.7,6,27,0.156590472,0.707388531,-0.133793146,0.676107059
319,802279,2029580,0.981,0.036,-0.034,0,0.1,0,-33.7,6,27,0.156590472,0.707388531,-0.133793146,0.676107059
320,805161,2029580,0.981,0.036,-0.034,0,0.1,0,-33.7,6,27,0.156590472,0.707388531,-0.133793146,0.676107059
321,808207,2029580,0.988,0.036,-0.034,0,0,-0.1,-33.6,6,27.1,0.156590472,0.707358013,-0.133793146,0.676137577
322,810459,2029590,0.988,0.04,-0.038,0,0,-0.1,-33.6,6,27.1,0.156590472,0.707358013,-0.133793146,0.676137577
323,811431,2029590,0.988,0.04,-0.034,0,0,0,-33.6,6,27.1,0.156590472,0.707358013,-0.133793146,0.676137577
324,814703,2029590,0.988,0.036,-0.042,0,0,0,-34.1,5.9,27.1,0.156590472,0.707358013,-0.133793146,0.676137577
325,816992,2029590,0.985,0.04,-0.038,0,0,0.1,-34.1,5.9,27.1,0.156590472,0.707358013,-0.133793146,0.676137577
326,819182,2029600,0.988,0.04,-0.034,0,0,0.2,-34.1,5.9,27.1,0.156590472,0.707358013,-0.133823664,0.676137577
327,822736,2029600,0.985,0.036,-0.038,0,0.1,0.2,-34.1,5.9,27.1,0.156590472,0.707358013,-0.133823664,0.676137577
328,825877,2029600,0.985,0.04,-0.038,0,0.1,0,-34.1,5.5,27,0.156590472,0.707358013,-0.133823664,0.676137577
329,826642,2029600,0.985,0.04,-0.042,0,0,0,-34.1,5.5,27,0.156590472,0.707358013,-0.133823664,0.676137577
330,829152,2029610,0.988,0.044,-0.03,0,0,-0.1,-34.1,5.5,27,0.156590472,0.707358013,-0.133823664,0.676137577
331,831523,2029610,0.988,0.036,-0.03,0,0,-0.1,-34.1,5.5,27,0.156590472,0.707358013,-0.133823664,0.676137577
332,835684,2029610,0.985,0.04,-0.042,0,-0.1,-0.1,-34.1,5.5,27,0.156590472,0.707358013,-0.133823664,0.676137577
333,836460,2029610,0.985,0.04,-0.034,0,-0.1,0,-34.1,5.5,27,0.156590472,0.707358013,-0.133823664,0.676137577
334,839141,2029620,0.988,0.04,-0.034,0,-0.1,0,-34.1,5.5,27,0.156590472,0.707358013,-0.133823664,0.676137577
335,841731,2029620,0.988,0.04,-0.03,0,0,0,-34.1,5.5,27,0.156590472,0.707358013,-0.133823664,0.676137577
336,844391,2029620,0.985,0.04,-0.038,0,0,0,-34.7,6.2,27.2,0.156590472,0.707358013,-0.133823664,0.676137577
337,846752,2029620,0.985,0.036,-0.034,0,0,0,-34.7,6.2,27.2,0.156590472,0.707358013,-0.133823664,0.676137577
338,849176,2029630,0.985,0.04,-0.042,0,0,0,-34.7,6.2,27.2,0.156590472,0.707358013,-0.133823664,0.676137577
339,853699,2029630,0.985,0.04,-0.03,0,0,0,-34.7,6.2,27.2,0.156590472,0.707358013,-0.133823664,0.676137577
340,854129,2029630,0.985,0.036,-0.034,0,0,0,-34.7,6.4,27.7,0.156590472,0.707358013,-0.133823664,0.676137577
341,856457,2029630,0.985,0.036,-0.034,0,0,0,-34.7,6.4,27.7,0.156590472,0.707358013,-0.133823664,0.676137577
342,859472,2029640,0.988,0.036,-0.038,0,0,0,-34.7,6.4,27.7,0.156590472,0.707358013,-0.133823664,0.676137577
343,861808,2029640,0.988,0.044,-0.034,0,0,0,-34.7,6.4,27.7,0.156590472,0.707358013,-0.133793146,0.676137577
344,864252,2029640,0.985,0.04,-0.034,0,0,0,-34.9,6.1,27.3,0.156590472,0.707358013,-0.133793146,0.676137577
345,867429,2029640,0.988,0.04,-0.038,0,0.1,0.1,-34.9,6.1,27.3,0.156590472,0.707358013,-0.133823664,0.676137577
346,869563,2029650,0.988,0.04,-0.034,0,0.1,0.1,-34.9,6.1,27.3,0.156590472,0.707358013,-0.133823664,0.676137577
347,871715,2029650,0.985,0.036,-0.038,0,0.1,0,-34.9,6.1,27.3,0.156590472,0.707358013,-0.133823664,0.676137577
348,874138,2029650,0.985,0.04,-0.034,0,0,0,-34.7,6.1,27.7,0.156590472,0.707358013,-0.133823664,0.676137577
349,876782,2029650,0.988,0.04,-0.038,0,-0.1,0,-34.7,6.1,27.7,0.156590472,0.707358013,-0.133793146,0.676137577
350,880854,2029660,0.985,0.036,-0.034,0.1,-0.1,-0.1,-34.7,6.1,27.7,0.156590472,0.707358013,-0.133793146,0.676137577
351,883120,2029660,0.981,0.036,-0.03,0,0,-0.2,-34.7,6.1,27.7,0.156590472,0.707358013,-0.133793146,0.676137577
352,886085,2029660,0.985,0.036,-0.042,0,0,-0.2,-34.7,6.1,27.7,0.156590472,0.707358013,-0.133793146,0.676137577
353,886511,2029660,0.985,0.036,-0.034,0,0,0,-34.7,6.1,27.7,0.156590472,0.707358013,-0.133793146,0.676137577
354,890104,2029670,0.985,0.044,-0.034,0,-0.1,0,-34.7,6.1,27.7,0.156590472,0.707358013,-0.133793146,0.676137577
355,892257,2029670,0.988,0.04,-0.042,0,-0.1,0,-34.7,6.1,27.7,0.156590472,0.707358013,-0.133793146,0.676137577
356,894133,2029670,0.985,0.04,-0.038,0,-0.1,0,-35,6.2,27.5,0.156590472,0.707358013,-0.133793146,0.676137577
357,897203,2029670,0.981,0.04,-0.034,0,-0.1,0,-35,6.2,27.5,0.156590472,0.707358013,-0.133793146,0.676137577
358,899406,2029680,0.985,0.04,-0.038,0,0,0,-35,6.2,27.5,0.156590472,0.707358013,-0.133793146,0.676137577
359,901650,2029680,0.988,0.04,-0.038,0,0,0,-35,6.2,27.5,0.156590472,0.707358013,-0.133793146,0.676137577
360,905388,2029680,0.988,0.04,-0.038,0,0,0,-35,6.2,27.5,0.156590472,0.707358013,-0.133793146,0.676137577
361,907754,2029680,0.985,0.036,-0.03,0,0,0,-35.2,6,27.9,0.156590472,0.707388531,-0.133793146,0.676107059
362,909366,2029690,0.985,0.04,-0.034,0,0,0.1,-35.2,6,27.9,0.156590472,0.707388531,-0.133793146,0.676107059
363,911744,2029690,0.985,0.036,-0.038,0,0,0,-35.2,6,27.9,0.156590472,0.707388531,-0.133793146,0.676107059
364,915517,2029690,0.985,0.04,-0.038,0,0,0,-34.6,5.9,28.7,0.156590472,0.707388531,-0.133793146,0.676107059
365,918411,2029690,0.981,0.04,-0.038,0,0,0,-34.6,5.9,28.7,0.156590472,0.707388531,-0.133793146,0.676107059
366,920775,2029700,0.985,0.036,-0.034,0,0,-0.1,-34.6,5.9,28.7,0.156590472,0.707388531,-0.133793146,0.676107059
367,923125,2029700,0.985,0.04,-0.038,0,0,-0.1,-34.6,5.9,28.7,0.156590472,0.707388531,-0.133793146,0.676107059
368,924127,2029700,0.985,0.044,-0.03,0,0,0,-35,6.1,28.4,0.156590472,0.707388531,-0.133793146,0.676107059
369,926590,2029700,0.988,0.04,-0.03,0,0,0.1,-35,6.1,28.4,0.156590472,0.707388531,-0.133793146,0.676137577
370,930861,2029710,0.985,0.04,-0.034,0,0,0.1,-35,6.1,28.4,0.156590472,0.707388531,-0.133793146,0.676137577
371,932993,2029710,0.985,0.04,-0.034,0,0.1,0.2,-35,6.1,28.4,0.156590472,0.707388531,-0.133823664,0.676137577
372,935288,2029710,0.985,0.036,-0.034,0,0,0.1,-35,6.1,28.4,0.156590472,0.707358013,-0.133823664,0.676137577
373,938273,2029710,0.981,0.036,-0.038,0,0,0,-35,6.1,28.4,0.156590472,0.707358013,-0.133823664,0.676137577
374,940574,2029720,0.988,0.04,-0.034,0,-0.1,0,-35,6.1,28.4,0.156590472,0.707388531,-0.133823664,0.676137577
375,942751,2029720,0.988,0.04,-0.042,0,-0.1,0,-35,6.1,28.4,0.156590472,0.707388531,-0.133823664,0.676137577
376,943989,2029720,0.988,0.036,-0.038,0,0,0,-35,5.9,27.2,0.156590472,0.707388531,-0.133823664,0.676137577
377,947255,2029720,0.985,0.044,-0.034,0,0,0,-35,5.9,27.2,0.156590472,0.707388531,-0.133823664,0.676137577
378,949585,2029730,0.985,0.036,-0.03,0,0,-0.1,-35,5.9,27.2,0.156590472,0.707388531,-0.133823664,0.676107059
379,951873,2029730,0.985,0.04,-0.034,-0.1,0,0,-35,5.9,27.2,0.156590472,0.707388531,-0.133823664,0.676107059
380,954714,2029730,0.985,0.032,-0.034,0,0,0,-34.5,5.6,26.4,0.156590472,0.707358013,-0.133823664,0.676137577
381,957186,2029730,0.985,0.04,-0.038,0,0,0,-34.5,5.6,26.4,0.156590472,0.707358013,-0.133823664,0.676137577
382,959697,2029740,0.985,0.04,-0.034,0,0,0,-34.5,5.6,26.4,0.156590472,0.707358013,-0.133823664,0.676137577
383,961606,2029740,0.985,0.04,-0.034,0.1,0,-0.1,-34.5,5.6,26.4,0.156590472,0.707358013,-0.133823664,0.676137577
384,964248,2029740,0.988,0.04,-0.038,0.1,0,-0.1,-34.6,6,25.9,0.156590472,0.707358013,-0.133823664,0.676137577
385,967698,2029740,0.985,0.04,-0.042,0.1,0,-0.1,-34.6,6,25.9,0.156590472,0.707358013,-0.133823664,0.676137577
386,969998,2029750,0.988,0.044,-0.038,0.1,0,-0.1,-34.6,6,25.9,0.156590472,0.707358013,-0.133793146,0.676137577
387,972270,2029750,0.988,0.04,-0.03,0,0,0,-34.6,6,25.9,0.156590472,0.707358013,-0.133793146,0.676137577
388,975271,2029750,0.985,0.036,-0.034,0,0,0,-34.8,5.7,25.4,0.156590472,0.707358013,-0.133793146,0.676137577
389,977572,2029750,0.988,0.04,-0.034,0,0,0,-34.8,5.7,25.4,0.156590472,0.707358013,-0.133793146,0.676137577
390,979770,2029760,0.988,0.044,-0.034,0,0,0,-34.8,5.7,25.4,0.156590472,0.707358013,-0.133793146,0.676137577
391,982470,2029760,0.988,0.036,-0.038,0,0,0,-34.8,5.7,25.4,0.156590472,0.707358013,-0.133793146,0.676137577
392,984230,2029760,0.985,0.04,-0.034,0,0,0,-34.8,5.7,25.4,0.156590472,0.707358013,-0.133793146,0.676137577
393,988878,2029760,0.988,0.044,-0.034,0.1,0.1,0,-34.8,5.7,25.4,0.156590472,0.707358013,-0.133793146,0.676137577
394,989727,2029770,0.985,0.036,-0.03,0.1,0.1,0,-34.8,5.7,25.4,0.156590472,0.707358013,-0.133793146,0.676137577
395,992429,2029770,0.985,0.04,-0.03,0,0.1,0,-34.8,5.7,25.4,0.156590472,0.707358013,-0.133793146,0.676137577
396,994244,2029770,0.985,0.036,-0.03,0,0.1,0,-34.7,5.8,26.8,0.156590472,0.707358013,-0.133793146,0.676137577
397,997918,2029770,0.985,0.036,-0.034,-0.1,0,0,-34.7,5.8,26.8,0.156590472,0.707358013,-0.133793146,0.676137577
398,999134,2029780,0.985,0.04,-0.034,-0.1,0,0,-34.7,5.8,26.8,0.156590472,0.707358013,-0.133793146,0.676137577
399,1001456,2029780,0.985,0.04,-0.034,0,0,0,-34.7,5.8,26.8,0.156590472,0.707358013,-0.133793146,0.676137577
400,1005244,2029780,0.985,0.04,-0.034,0,0,0,-34.7,5.8,26.8,0.156590472,0.707358013,-0.133793146,0.676137577
401,1006607,2029780,0.985,0.044,-0.038,0,0,0,-34,6.2,26.7,0.156590472,0.707327494,-0.133823664,0.676168096
402,1009297,2029790,0.988,0.04,-0.034,0,0,0,-34,6.2,26.7,0.156590472,0.707327494,-0.133823664,0.676168096
403,1012483,2029790,0.988,0.04,-0.038,0,0,0,-34,6.2,26.7,0.156590472,0.707327494,-0.133823664,0.676168096
404,1014725,2029790,0.988,0.036,-0.038,0.1,0,0,-34.5,6,26.7,0.156590472,0.707327494,-0.133823664,0.676168096
405,1017063,2029790,0.988,0.036,-0.038,0.1,0,0,-34.5,6,26.7,0.156590472,0.707327494,-0.133823664,0.676168096
406,1019180,2029800,0.985,0.04,-0.03,0,0,0,-34.5,6,26.7,0.156590472,0.707327494,-0.133823664,0.676168096
407,1021502,2029800,0.985,0.04,-0.042,0,0,0,-34.5,6,26.7,0.156590472,0.707327494,-0.133823664,0.676168096
408,1024114,2029800,0.981,0.04,-0.042,0,-0.1,0,-34.6,5.4,26.5,0.156590472,0.707327494,-0.133823664,0.676168096
409,1027449,2029800,0.985,0.04,-0.03,0,-0.2,0,-34.6,5.4,26.5,0.156590472,0.707327494,-0.133823664,0.676168096
410,1029692,2029810,0.985,0.04,-0.034,0,-0.3,0,-34.6,5.4,26.5,0.156590472,0.707327494,-0.133823664,0.676168096
411,1031797,2029810,0.988,0.04,-0.038,0,-0.3,-0.1,-34.6,5.4,26.5,0.156590472,0.707327494,-0.133823664,0.676168096
412,1034056,2029810,0.985,0.044,-0.038,0,0,-0.1,-34.6,5.4,26.5,0.156590472,0.707358013,-0.133823664,0.676168096
413,1036506,2029810,0.985,0.04,-0.034,0,0,0,-34.6,5.4,26.5,0.156590472,0.707358013,-0.133823664,0.676168096
414,1039851,2029820,0.985,0.036,-0.034,0,0,0,-34.6,5.4,26.5,0.156590472,0.707327494,-0.133823664,0.676168096
415,1042176,2029820,0.985,0.032,-0.034,0,0,0,-34.6,5.4,26.5,0.156590472,0.707327494,-0.133823664,0.676168096
416,1044384,2029820,0.985,0.04,-0.034,0,-0.1,0,-34.7,5.1,25.8,0.156590472,0.707358013,-0.133823664,0.676168096
417,1046552,2029820,0.985,0.04,-0.042,0,-0.1,0,-34.7,5.1,25.8,0.156590472,0.707358013,-0.133823664,0.676168096
418,1049182,2029830,0.985,0.04,-0.038,0,0.1,0,-34.7,5.1,25.8,0.156590472,0.707358013,-0.133823664,0.676168096
419,1052400,2029830,0.985,0.036,-0.038,0,0.2,0,-34.7,5.1,25.8,0.156590472,0.707327494,-0.133823664,0.676168096
420,1054472,2029830,0.988,0.036,-0.034,0,0.1,-0.1,-34.8,4.3,25.7,0.156590472,0.707358013,-0.133823664,0.676137577
421,1056771,2029830,0.988,0.04,-0.034,0,0.1,-0.1,-34.8,4.3,25.7,0.156590472,0.707358013,-0.133823664,0.676137577
422,1059045,2029840,0.988,0.04,-0.034,0,0,-0.1,-34.8,4.3,25.7,0.156590472,0.707358013,-0.133823664,0.676137577
423,1061919,2029840,0.985,0.044,-0.042,-0.1,0,-0.1,-34.8,4.3,25.7,0.156590472,0.707358013,-0.133823664,0.676137577
424,1064263,2029840,0.985,0.044,-0.038,-0.1,-0.1,-0.1,-34.5,3.8,25.7,0.156590472,0.707358013,-0.133823664,0.676137577
425,1066530,2029840,0.985,0.04,-0.038,-0.1,0,0,-34.5,3.8,25.7,0.156590472,0.707358013,-0.133823664,0.676137577
426,1069124,2029850,0.985,0.04,-0.038,0,0,0,-34.5,3.8,25.7,0.156590472,0.707358013,-0.133823664,0.676137577
427,1072470,2029850,0.985,0.036,-0.038,0,0,0,-34.5,3.8,25.7,0.156590472,0.707358013,-0.133823664,0.676137577
428,1074913,2029850,0.988,0.04,-0.034,0,0,0,-34.8,3.6,25.7,0.156590472,0.707358013,-0.133823664,0.676137577
429,1077108,2029850,0.985,0.04,-0.034,0,0,0,-34.8,3.6,25.7,0.156590472,0.707358013,-0.133823664,0.676137577
430,1079222,2029860,0.988,0.04,-0.038,0,0,0,-34.8,3.6,25.7,0.156590472,0.707358013,-0.133823664,0.676137577
431,1081515,2029860,0.985,0.04,-0.03,0,0.1,-0.1,-34.8,3.6,25.7,0.156590472,0.707358013,-0.133823664,0.676137577
432,1084978,2029860,0.988,0.04,-0.034,0,0.1,-0.1,-34.8,3.6,25.7,0.156590472,0.707358013,-0.133823664,0.676137577
433,1087256,2029860,0.988,0.04,-0.038,0,0,-0.1,-34.8,3.6,25.7,0.156590472,0.707358013,-0.133823664,0.676137577
434,1090265,2029870,0.988,0.036,-0.038,0,0,-0.1,-34.8,3.6,25.7,0.156590472,0.707358013,-0.133823664,0.676137577
435,1092530,2029870,0.988,0.036,-0.038,0,0,-0.1,-34.8,3.6,25.7,0.156590472,0.707358013,-0.133823664,0.676137577
436,1094827,2029870,0.985,0.04,-0.038,0,-0.1,0,-35,4.8,26.3,0.156590472,0.707358013,-0.133823664,0.676137577
437,1097918,2029870,0.985,0.044,-0.03,0,0,0,-35,4.8,26.3,0.156590472,0.707358013,-0.133823664,0.676137577
438,1100913,2029880,0.988,0.04,-0.042,0,0,0,-35,4.8,26.3,0.156590472,0.707358013,-0.133823664,0.676137577
439,1101812,2029880,0.988,0.04,-0.038,0,0,0,-35,4.8,26.3,0.156590472,0.707358013,-0.133823664,0.676137577
440,1104674,2029880,0.988,0.04,-0.038,0,0,0,-35,4.8,26.3,0.156590472,0.707358013,-0.133823664,0.676137577
441,1107416,2029880,0.985,0.036,-0.034,0,0,0.1,-34.7,5.5,26.2,0.156620991,0.707358013,-0.133793146,0.676137577
442,1109851,2029890,0.988,0.04,-0.034,0,0.1,0.1,-34.7,5.5,26.2,0.156620991,0.707358013,-0.133793146,0.676137577
443,1112705,2029890,0.985,0.04,-0.038,0,0.1,0,-34.7,5.5,26.2,0.156620991,0.707358013,-0.133793146,0.676137577
444,1115743,2029890,0.985,0.04,-0.038,0,0.1,0,-35,6.3,26.1,0.156620991,0.707358013,-0.133793146,0.676137577
445,1116534,2029890,0.985,0.04,-0.038,-0.1,0.1,0,-35,6.3,26.1,0.156620991,0.707358013,-0.133793146,0.676137577
446,1120979,2029900,0.985,0.036,-0.042,-0.1,0.2,0,-35,6.3,26.1,0.156620991,0.707358013,-0.133793146,0.676137577
447,1121762,2029900,0.981,0.036,-0.038,-0.1,0.2,0,-35,6.3,26.1,0.156620991,0.707358013,-0.133823664,0.676137577
448,1124647,2029900,0.988,0.036,-0.03,0,0.1,0,-34.8,6.9,26.2,0.156620991,0.707358013,-0.133823664,0.676137577
449,1127363,2029900,0.988,0.04,-0.034,0,0.1,0,-34.8,6.9,26.2,0.156620991,0.707358013,-0.133823664,0.676137577
450,1129177,2029910,0.988,0.04,-0.038,0,0,0,-34.8,6.9,26.2,0.156620991,0.707358013,-0.133823664,0.676137577
451,1133644,2029910,0.988,0.04,-0.03,0,0,0,-34.8,6.9,26.2,0.156620991,0.707358013,-0.133823664,0.676137577
452,1134257,2029910,0.988,0.04,-0.038,0,0,0,-34.8,6.9,26.2,0.156620991,0.707358013,-0.133823664,0.676137577
453,1138172,2029910,0.985,0.04,-0.034,0,0,0,-34.8,6.9,26.2,0.156620991,0.707358013,-0.133823664,0.676137577
454,1140438,2029920,0.988,0.04,-0.034,0,0,0,-34.8,6.9,26.2,0.156620991,0.707358013,-0.133823664,0.676137577
455,1142763,2029920,0.985,0.04,-0.042,0,0.1,0,-34.8,6.9,26.2,0.156620991,0.707358013,-0.133823664,0.676137577
456,1145635,2029920,0.985,0.04,-0.038,0,0.1,0,-34.9,6.3,26.9,0.156620991,0.707327494,-0.133823664,0.676137577
457,1148229,2029920,0.985,0.04,-0.038,0,0.2,0,-34.9,6.3,26.9,0.156620991,0.707327494,-0.133823664,0.676168096
458,1150487,2029930,0.988,0.044,-0.038,0,0.2,0,-34.9,6.3,26.9,0.156620991,0.707327494,-0.133823664,0.676168096
459,1152759,2029930,0.985,0.036,-0.034,0,0.1,0,-34.9,6.3,26.9,0.156620991,0.707327494,-0.133823664,0.676168096
460,1155069,2029930,0.985,0.036,-0.034,0,0.1,0,-34.9,6.3,26.9,0.156620991,0.707327494,-0.133823664,0.676168096
461,1157330,2029930,0.985,0.04,-0.03,0,0.2,0,-35,6.5,27,0.156620991,0.707327494,-0.133793146,0.676168096
462,1159558,2029940,0.985,0.036,-0.03,0,0.2,0,-35,6.5,27,0.156620991,0.707327494,-0.133793146,0.676168096
463,1161839,2029940,0.985,0.04,-0.034,0,0.1,0,-35,6.5,27,0.156620991,0.707327494,-0.133793146,0.676168096
464,1165259,2029940,0.985,0.036,-0.038,0,0,0,-34.6,6.5,26.8,0.156620991,0.707327494,-0.133793146,0.676168096
465,1167554,2029940,0.988,0.04,-0.038,0,-0.1,0,-34.6,6.5,26.8,0.156620991,0.707327494,-0.133793146,0.676168096
466,1169664,2029950,0.988,0.036,-0.034,0,0,0,-34.6,6.5,26.8,0.156620991,0.707327494,-0.133793146,0.676168096
467,1171917,2029950,0.988,0.04,-0.038,0,0,0.1,-34.6,6.5,26.8,0.156620991,0.707327494,-0.133793146,0.676168096
468,1174216,2029950,0.985,0.04,-0.034,0,0.1,0.1,-34.7,6.3,27,0.156620991,0.707327494,-0.133793146,0.676168096
469,1176827,2029950,0.988,0.036,-0.038,0.1,0.1,0,-34.7,6.3,27,0.156620991,0.707327494,-0.133793146,0.676168096
470,1179173,2029960,0.985,0.036,-0.038,0,0.1,0,-34.7,6.3,27,0.156620991,0.707327494,-0.133793146,0.676168096
471,1183310,2029960,0.985,0.036,-0.038,0,0.1,0,-34.7,6.3,27,0.156620991,0.707327494,-0.133793146,0.676168096
472,1185516,2029960,0.985,0.036,-0.038,0,0,0,-34.7,6.3,27,0.156620991,0.707327494,-0.133793146,0.676168096
473,1188338,2029960,0.985,0.036,-0.038,0,0,0,-34.7,6.3,27,0.156620991,0.707327494,-0.133793146,0.676168096
474,1189141,2029970,0.985,0.036,-0.038,0,0,0,-34.7,6.3,27,0.156620991,0.707327494,-0.133793146,0.676168096
475,1192088,2029970,0.988,0.044,-0.034,0,0.1,0,-34.7,6.3,27,0.156620991,0.707327494,-0.133793146,0.676168096
476,1194409,2029970,0.985,0.04,-0.038,0,0.1,0,-34.8,5.2,27,0.156620991,0.707327494,-0.133793146,0.676168096
477,1197326,2029970,0.988,0.04,-0.034,0,0.1,0,-34.8,5.2,27,0.156620991,0.707327494,-0.133793146,0.676168096
478,1199557,2029980,0.988,0.04,-0.034,0,0,0,-34.8,5.2,27,0.156590472,0.707327494,-0.133793146,0.676168096
479,1201852,2029980,0.988,0.04,-0.038,0,0,0.1,-34.8,5.2,27,0.156590472,0.707327494,-0.133793146,0.676168096
480,1204473,2029980,0.988,0.04,-0.038,0,0,0.1,-34.8,5.2,27,0.156590472,0.707327494,-0.133793146,0.676168096
481,1206715,2029980,0.988,0.04,-0.034,0.1,0,0,-34.8,5.2,27,0.156590472,0.707327494,-0.133793146,0.676168096
482,1210321,2029990,0.988,0.04,-0.038,0,0,0,-34.8,5.2,27,0.156590472,0.707327494,-0.133793146,0.676168096
483,1212622,2029990,0.988,0.044,-0.034,0,-0.1,0,-34.8,5.2,27,0.156590472,0.707327494,-0.133793146,0.676168096
484,1214854,2029990,0.985,0.044,-0.038,0,0,0,-34.8,5.2,27,0.156590472,0.707327494,-0.133793146,0.676168096
485,1217159,2029990,0.985,0.044,-0.034,0,0,0,-34.8,5.2,27,0.156590472,0.707327494,-0.133793146,0.676168096
486,1219361,2030000,0.988,0.04,-0.034,0,0,0,-34.8,5.2,27,0.156590472,0.707327494,-0.133793146,0.676168096
487,1221622,2030000,0.988,0.04,-0.034,0,0,0,-34.8,5.2,27,0.156590472,0.707327494,-0.133793146,0.676168096
488,1224237,2030000,0.988,0.04,-0.034,0,0,0,-34.8,5.2,27,0.156590472,0.707327494,-0.133793146,0.676168096
489,1227565,2030000,0.985,0.036,-0.034,0,-0.1,0,-34.8,5.2,27,0.156590472,0.707327494,-0.133793146,0.676168096
490,1229794,2030010,0.985,0.036,-0.034,0,-0.1,0,-34.8,5.2,27,0.156590472,0.707327494,-0.133793146,0.676168096
491,1231848,2030010,0.985,0.04,-0.042,0,0,0,-34.8,5.2,27,0.156620991,0.707327494,-0.133793146,0.676168096
492,1234173,2030010,0.988,0.04,-0.038,0,-0.1,0,-34.8,5.2,27,0.156590472,0.707327494,-0.133793146,0.676168096
493,1237778,2030010,0.988,0.04,-0.038,0,-0.1,0,-34.8,5.2,27,0.156590472,0.707327494,-0.133793146,0.676168096
494,1240816,2030020,0.988,0.04,-0.038,0,-0.1,0,-34.8,5.2,27,0.156590472,0.707327494,-0.133793146,0.676168096
495,1243604,2030020,0.985,0.044,-0.038,0,-0.1,0,-34.8,5.2,27,0.156590472,0.707358013,-0.133793146,0.676137577
496,1244553,2030020,0.988,0.04,-0.034,0,-0.1,0,-35,4.6,27,0.156590472,0.707358013,-0.133793146,0.676137577
497,1247083,2030020,0.985,0.036,-0.034,0,0,0,-35,4.6,27,0.156590472,0.707358013,-0.133793146,0.676137577
498,1249524,2030030,0.985,0.04,-0.042,0,0.1,0,-35,4.6,27,0.156590472,0.707358013,-0.133793146,0.676137577
499,1251771,2030030,0.985,0.044,-0.034,0,0.1,0.1,-35,4.6,27,0.156590472,0.707358013,-0.133793146,0.676168096
500,1254515,2030030,0.988,0.04,-0.038,0,0,0.1,-34.6,7.4,26.6,0.156620991,0.707358013,-0.133793146,0.676137577
501,1256819,2030030,0.985,0.036,-0.03,0,-0.1,0,-34.6,7.4,26.6,0.156620991,0.707358013,-0.133793146,0.676137577
502,1260813,2030040,0.988,0.04,-0.034,0,-0.2,0,-34.6,7.4,26.6,0.156620991,0.707358013,-0.133793146,0.676137577
503,1261633,2030040,0.985,0.036,-0.03,0,-0.3,0,-34.6,7.4,26.6,0.156620991,0.707358013,-0.133793146,0.676137577
504,1264228,2030040,0.985,0.04,-0.03,0,-0.1,-0.1,-34.6,7.4,26.6,0.156620991,0.707358013,-0.133793146,0.676137577
505,1267613,2030040,0.988,0.04,-0.034,0.1,0,-0.1,-34.6,7.4,26.6,0.156590472,0.707358013,-0.133793146,0.676137577
506,1269225,2030050,0.985,0.04,-0.038,0.1,0,0,-34.6,7.4,26.6,0.156590472,0.707358013,-0.133793146,0.676137577
507,1271657,2030050,0.985,0.044,-0.042,0.1,0,0,-34.6,7.4,26.6,0.156590472,0.707358013,-0.133793146,0.676137577
508,1275876,2030050,0.985,0.04,-0.038,0,0,0,-34.6,7.4,26.6,0.156590472,0.707358013,-0.133793146,0.676137577
509,1278161,2030050,0.985,0.04,-0.038,0,0,0,-34.6,7.4,26.6,0.156590472,0.707358013,-0.133793146,0.676137577
510,1279174,2030060,0.988,0.036,-0.034,0,0,0,-34.6,7.4,26.6,0.156590472,0.707358013,-0.133793146,0.676137577
511,1282608,2030060,0.988,0.04,-0.038,0,0,0,-34.6,7.4,26.6,0.156590472,0.707358013,-0.133793146,0.676137577
512,1284895,2030060,0.988,0.04,-0.034,0,0,0,-34.6,7.4,26.6,0.156590472,0.707358013,-0.133793146,0.676137577
513,1287078,2030060,0.988,0.036,-0.038,0,0,0,-34.6,7.4,26.6,0.156590472,0.707358013,-0.133793146,0.676137577
514,1289322,2030070,0.985,0.04,-0.038,0.1,0,0,-34.6,7.4,26.6,0.156590472,0.707358013,-0.133793146,0.676137577
515,1292190,2030070,0.985,0.036,-0.034,0,0,0,-34.6,7.4,26.6,0.156590472,0.707358013,-0.133793146,0.676137577
516,1294357,2030070,0.985,0.04,-0.03,0,0.1,0,-34.4,5.9,26.9,0.156590472,0.707358013,-0.133793146,0.676137577
517,1296719,2030070,0.985,0.04,-0.03,0,0.1,0,-34.4,5.9,26.9,0.156590472,0.707358013,-0.133793146,0.676137577
518,1300058,2030080,0.985,0.044,-0.038,-0.1,0,-0.1,-34.4,5.9,26.9,0.156590472,0.707358013,-0.133793146,0.676137577
519,1302362,2030080,0.985,0.04,-0.038,-0.1,0,0,-34.4,5.9,26.9,0.156590472,0.707358013,-0.133793146,0.676137577
520,1304630,2030080,0.985,0.04,-0.038,-0.1,0,0,-34.4,5.9,26.9,0.156590472,0.707358013,-0.133793146,0.676137577
521,1306862,2030080,0.988,0.04,-0.03,-0.1,0,0,-34.4,5.9,26.9,0.156620991,0.707358013,-0.133762627,0.676168096
522,1309158,2030090,0.988,0.04,-0.034,0,0,0,-34.4,5.9,26.9,0.156620991,0.707327494,-0.133793146,0.676168096
523,1312898,2030090,0.988,0.04,-0.034,0,0,0,-34.4,5.9,26.9,0.156620991,0.707327494,-0.133793146,0.676168096
524,1315104,2030090,0.988,0.04,-0.034,0,0,0,-34.4,5.9,26.9,0.156620991,0.707327494,-0.133793146,0.676168096
525,1317356,2030090,0.988,0.04,-0.034,0,0,0,-34.4,5.9,26.9,0.156620991,0.707327494,-0.133762627,0.676168096
526,1320172,2030100,0.985,0.04,-0.034,0,0,0,-34.4,5.9,26.9,0.156620991,0.707327494,-0.133762627,0.676168096
527,1323116,2030100,0.988,0.04,-0.034,0,0,-0.1,-34.4,5.9,26.9,0.156620991,0.707327494,-0.133762627,0.676168096
528,1325437,2030100,-1.517,-0.33,0.163,-0.3,1,-0.1,-34.5,5.9,27.4,0.156651509,0.707327494,-0.133762627,0.676168096
529,1326709,2030100,4.649,-3.189,-8.122,-9.3,50.2,-5.4,-34.5,5.9,27.4,0.157017731,0.706564531,-0.133640553,0.67690054
530,1330631,2030110,2.252,-0.703,-8.053,-8,198.2,-22.3,-34.5,5.9,27.4,0.158024842,0.703665273,-0.132755516,0.679860836
531,1332886,2030110,2.958,2.109,-8.071,64.2,310,-46.9,-34.5,5.9,27.4,0.158635212,0.6994232,-0.13000885,0.684621723
532,1335265,2030110,2.958,2.109,-8.071,64.2,310,-46.9,-34.5,5.9,27.4,0.158635212,0.6994232,-0.13000885,0.684621723
533,1337567,2030110,-0.203,7.573,8.045,328.9,95.7,-65.3,-34.5,5.9,27.4,0.153416547,0.696096683,-0.118625446,0.691213721
534,1339851,2030120,4.132,-7.257,6.734,210.8,-37.6,-41.7,-34.5,5.9,27.4,0.150730918,0.697470016,-0.114932707,0.691061129
535,1342222,2030120,-1.034,-8.085,-6.236,-70.2,-51,6,-34.5,5.9,27.4,0.151585437,0.69798883,-0.116275521,0.690115055
536,1344316,2030120,-5.91,7.103,8.227,-265.7,33.5,43.8,-37.6,7.8,26.2,0.155064547,0.696493423,-0.120822779,0.690084536
537,1346553,2030120,0.69,-0.799,-0.336,-240.6,101.1,48.6,-37.6,7.8,26.2,0.158238472,0.694021424,-0.124851222,0.691152684
538,1350877,2030130,1.802,-4.825,-5.555,-125.8,77.1,20.1,-37.6,7.8,26.2,0.160039064,0.692342906,-0.126773888,0.692037721
539,1351644,2030130,1.995,-3.75,-1.395,-69.1,-36,-9.8,-37.6,7.8,26.2,0.16113773,0.69267861,-0.127780999,0.69124424
540,1354327,2030130,0.415,-0.128,-2.593,-36.1,-111.3,-23.3,-36.5,7.3,25.9,0.161717582,0.694296091,-0.128391369,0.689382611
541,1356779,2030130,-0.052,-0.75,-4.442,22.5,-66.1,-25.9,-36.5,7.3,25.9,0.161595508,0.695455794,-0.127872555,0.688344981
542,1360627,2030140,-1.377,-1.428,-2.557,64.6,41.4,-18.9,-36.5,7.3,25.9,0.161015656,0.695089572,-0.126468703,0.689107944
543,1362886,2030140,-1.368,-1.607,2.054,54.6,115.7,-5.5,-36.5,7.3,25.9,0.160588397,0.693563646,-0.125156407,0.691000092
544,1365126,2030140,1.252,0.517,3.246,18.9,94.1,7.8,-35.7,7.1,26.4,0.160435804,0.692190313,-0.124668111,0.692495499
545,1367397,2030140,3.471,1.806,3.819,-5.5,-14.5,15.3,-35.7,7.1,26.4,0.160252693,0.692342906,-0.125034333,0.692312387
546,1370122,2030150,3.215,0.356,1.939,-10.9,-124.5,15.7,-35.7,7.1,26.4,0.159825434,0.694143498,-0.125858333,0.690450758
547,1372458,2030150,0.315,0.404,-0.366,-6.4,-144,11.1,-35.7,7.1,26.4,0.159367656,0.696249275,-0.126651814,0.688283944
548,1375421,2030150,-0.014,0.899,-0.385,2.9,-67.2,5,-35.3,7.3,26.5,0.159062471,0.697256386,-0.126895962,0.687276833
549,1377667,2030150,0.699,0.501,-1.421,15,27.6,0.2,-35.3,7.3,26.5,0.158909879,0.696890164,-0.126590777,0.68776513
550,1379946,2030160,1.142,0.201,-1.45,19.3,67.6,-1,-35.3,7.3,26.5,0.158818323,0.69594409,-0.126041444,0.688833277
551,1382222,2030160,1.231,0.267,-1.59,10.7,46.7,1.2,-35.3,7.3,26.5,0.158757286,0.695272683,-0.125736259,0.689565722
552,1384424,2030160,0.905,0.062,-1.128,-2.9,4.2,4.7,-35.8,7,26.2,0.158757286,0.695211646,-0.125858333,0.689657277
553,1386706,2030160,0.73,-0.391,-0.651,-14.2,-25.2,7.1,-35.8,7,26.2,0.158787805,0.695516831,-0.126255074,0.689260537
554,1389261,2030170,1.119,-0.469,-0.425,-20.2,-34.2,7.8,-35.8,7,26.2,0.15887936,0.69594409,-0.126804407,0.688711203
555,1393210,2030170,1.517,-0.019,-0.317,-17.3,-31.9,6.9,-35.8,7,26.2,0.158940397,0.696340831,-0.127262185,0.688192389
556,1393982,2030170,1.592,0.121,-0.147,-6.3,-26.9,5.3,-37.7,6.4,27,0.15887936,0.696707053,-0.127536851,0.687795648
557,1398495,2030170,1.265,0.502,-0.228,6.3,-19.2,3.5,-37.7,6.4,27,0.158696249,0.697012238,-0.12756737,0.687520981
558,1399197,2030180,1.063,0.721,-0.152,14.6,-6.2,2.2,-37.7,6.4,27,0.158421583,0.697134312,-0.127414777,0.687459944
559,1402344,2030180,0.938,0.489,-0.378,15.6,8.7,1.3,-37.7,6.4,27,0.158177435,0.697042756,-0.127170629,0.687643056
560,1404584,2030180,0.837,0.286,-0.124,10.4,18.8,0.8,-35,6.6,27.5,0.158055361,0.696798608,-0.126956999,0.687978759
561,1406864,2030180,0.869,0.31,0.25,2,19.2,0.5,-35,6.6,27.5,0.158085879,0.696523942,-0.126865444,0.688283944
562,1409397,2030190,0.935,0.006,0.331,-5.2,11,0.4,-35,6.6,27.5,0.158177435,0.696340831,-0.126895962,0.688436537
563,1411703,2030190,0.965,-0.304,0.366,-9.5,0,0.5,-35,6.6,27.5,0.158299509,0.696279794,-0.127048555,0.688406018
564,1415889,2030190,0.978,-0.059,0.788,-10.9,-7.6,0.8,-35.3,6.5,27.4,0.158421583,0.696371349,-0.127262185,0.688253426
565,1418153,2030190,1.068,0.077,0.73,-9,-9.4,0.9,-35.3,6.5,27.4,0.158543657,0.696493423,-0.127445296,0.688100833
566,1420338,2030200,1.106,0.151,0.525,-4.2,-7.4,0.8,-35.3,6.5,27.4,0.158574175,0.696584979,-0.127536851,0.687978759
567,1422624,2030200,1.048,0.218,0.437,0.5,-4,0.4,-35.3,6.5,27.4,0.158543657,0.696646016,-0.12756737,0.687917722
568,1424600,2030200,0.957,0.119,-0.319,3,-0.4,0,-34.9,6.8,27.1,0.158513138,0.696646016,-0.127506333,0.687917722
569,1426777,2030200,0.887,0.009,-0.317,2.9,3.1,0,-34.9,6.8,27.1,0.158421583,0.696615497,-0.127475814,0.687978759
570,1429478,2030210,0.895,0.025,-0.078,0.7,5.4,0.2,-34.9,6.8,27.1,0.158421583,0.69655446,-0.127445296,0.688070315
571,1433354,2030210,1.09,0.024,0.318,-1.7,4.3,0.6,-34.9,6.8,27.1,0.15848262,0.696462905,-0.127445296,0.688131352
572,1434195,2030210,1.098,-0.117,0.24,-3.8,-0.1,0.8,-35.1,6.3,27.4,0.158543657,0.696462905,-0.127536851,0.688100833
573,1436727,2030210,1.004,-0.104,0.082,-5,-4.4,0.9,-35.1,6.3,27.4,0.158574175,0.696493423,-0.127628407,0.688039796
574,1440940,2030220,0.903,-0.001,-0.059,-4.5,-4.4,1,-35.1,6.3,27.4,0.158635212,0.69655446,-0.127750481,0.687948241
575,1443231,2030220,0.91,-0.034,-0.458,-2.4,-0.3,0.8,-35.1,6.3,27.4,0.158665731,0.69655446,-0.127780999,0.687948241
576,1445290,2030220,0.976,-0.006,-0.323,0,3.8,0.8,-36.1,6.3,27.3,0.158635212,0.696493423,-0.127780999,0.688009278
577,1446883,2030220,1.066,0.095,-0.052,1.7,4.1,0.8,-36.1,6.3,27.3,0.158635212,0.696432386,-0.127750481,0.688070315
578,1449214,2030230,1.098,0.103,0.291,2.6,0.4,0.9,-36.1,6.3,27.3,0.158574175,0.696432386,-0.127719962,0.688100833
579,1451811,2030230,1.04,0.096,0.332,2.7,-3.4,0.9,-36.1,6.3,27.3,0.158513138,0.696493423,-0.127719962,0.688070315
580,1454185,2030230,0.966,0.108,0.271,2.1,-4.4,0.8,-36.2,6.2,27.2,0.158421583,0.69655446,-0.127719962,0.688009278
581,1458292,2030230,0.907,0.045,0.16,1.1,-1.8,0.6,-36.2,6.2,27.2,0.158421583,0.696584979,-0.127719962,0.687978759
582,1459218,2030240,0.922,0.025,-0.036,0.2,1.8,0.4,-36.2,6.2,27.2,0.158391064,0.69655446,-0.127719962,0.688009278
583,1461685,2030240,0.965,0.068,-0.049,0,3.6,0.3,-36.2,6.2,27.2,0.158421583,0.696493423,-0.127689444,0.688070315
584,1465659,2030240,1.004,0.068,-0.082,-0.1,2.6,0.2,-36.3,6,27,0.158421583,0.696462905,-0.127689444,0.688100833
585,1467857,2030240,1.016,0.064,-0.098,-0.1,0.3,0.2,-36.3,6,27,0.158421583,0.696462905,-0.127689444,0.688100833
586,1470145,2030250,1.012,0.048,-0.097,-0.3,-1.5,0.4,-36.3,6,27,0.158421583,0.696462905,-0.127719962,0.688100833
587,1472504,2030250,1.023,0.012,-0.153,-0.7,-2.1,0.5,-36.3,6,27,0.158421583,0.696493423,-0.127750481,0.688070315
588,1474339,2030250,1.019,0.012,-0.148,-1.1,-1.9,0.7,-36.1,6,27.2,0.158421583,0.696523942,-0.127780999,0.688039796
589,1476644,2030250,0.988,0.032,-0.085,-1.3,-1.3,0.7,-36.1,6,27.2,0.158421583,0.69655446,-0.127811518,0.688009278
590,1479255,2030260,0.977,0.021,-0.069,-1.3,-0.7,0.8,-36.1,6,27.2,0.158421583,0.69655446,-0.127872555,0.687978759
591,1481754,2030260,0.969,0.036,-0.069,-1.3,0,0.9,-36.1,6,27.2,0.158421583,0.696523942,-0.127903073,0.687978759
592,1484178,2030260,0.965,0.005,-0.08,-1.2,0.3,1,-36.4,6,27.5,0.158421583,0.696523942,-0.127933592,0.687978759
593,1487090,2030260,0.977,-0.014,-0.12,-1.2,0.1,1.1,-36.4,6,27.5,0.158421583,0.696523942,-0.12796411,0.688009278
594,1489374,2030270,0.984,-0.014,-0.104,-1.2,-0.4,1.3,-36.4,6,27.5,0.158421583,0.696523942,-0.127994629,0.687978759
595,1492112,2030270,1,-0.006,-0.124,-1,-1.3,1.4,-36.4,6,27.5,0.158421583,0.696523942,-0.128055666,0.687978759
596,1494184,2030270,0.985,-0.022,0.016,-0.8,-2.1,1.5,-36.2,6.2,26.6,0.158391064,0.69655446,-0.128086184,0.687948241
597,1498328,2030270,1,-0.01,0.055,-0.5,-2.7,1.5,-36.2,6.2,26.6,0.158391064,0.696584979,-0.128116703,0.687917722
598,1500644,2030280,0.993,0.029,0.137,-0.3,-2.9,1.5,-36.2,6.2,26.6,0.158360546,0.696615497,-0.128147221,0.687856685
599,1502851,2030280,0.977,0.033,0.259,0,-2.7,1.5,-36.2,6.2,26.6,0.158330027,0.696676534,-0.128208258,0.687826167
600,1505124,2030280,0.973,0.041,0.263,0.3,-2.2,1.6,-36,6.4,28.2,0.15826899,0.696462905,-0.128238777,0.688039796
601,1507462,2030280,0.973,0.057,0.251,0.6,-1.8,1.7,-36,6.4,28.2,0.158238472,0.696493423,-0.128269295,0.688009278
602,1509503,2030290,0.969,0.061,0.212,0.6,-1.5,1.7,-36,6.4,28.2,0.158207953,0.696523942,-0.128299814,0.687978759
603,1511898,2030290,0.958,0.029,0.088,0.4,-1.5,1.8,-36,6.4,28.2,0.158146916,0.696523942,-0.128330332,0.687978759
604,1514424,2030290,0.961,0.033,0.076,0,-1.6,1.8,-36.2,6.5,29.1,0.158116398,0.69655446,-0.128360851,0.687948241
605,1516669,2030290,0.957,0.021,0.041,-0.9,-2.1,1.7,-36.2,6.5,29.1,0.158116398,0.696584979,-0.128391369,0.687917722
606,1519399,2030300,0.973,-0.006,0.001,-1.9,-2.9,1.7,-36.2,6.5,29.1,0.158085879,0.696615497,-0.128482925,0.687887204
607,1521675,2030300,0.957,-0.033,-0.064,-2.8,-3.7,1.8,-36.2,6.5,29.1,0.158116398,0.696646016,-0.128543962,0.687826167
608,1525705,2030300,0.941,-0.029,-0.13,-3.3,-4.4,1.9,-36,6.2,29.3,0.158116398,0.696707053,-0.128635517,0.68776513
609,1527919,2030300,0.937,-0.029,-0.193,-3.3,-5,2,-36,6.2,29.3,0.158116398,0.69676809,-0.128757591,0.687673574
610,1530122,2030310,0.953,-0.01,-0.131,-2.7,-5.5,2.1,-36,6.2,29.3,0.158116398,0.696829127,-0.128849147,0.687582018
611,1532425,2030310,0.973,-0.01,-0.084,-2.4,-6.2,2.3,-36,6.2,29.3,0.158085879,0.696920682,-0.128940703,0.687490463
612,1534743,2030310,0.984,-0.018,-0.038,-2.5,-7.3,2.6,-36,6.2,29.5,0.158085879,0.697012238,-0.129032258,0.687398907
613,1536899,2030310,0.988,-0.026,-0.01,-3.1,-8.4,2.7,-36,6.2,29.5,0.158055361,0.697103793,-0.129123814,0.687246315
614,1539503,2030320,0.985,-0.006,-0.01,-3.8,-8.6,2.7,-36,6.2,29.5,0.158055361,0.697225867,-0.129276406,0.687124241
615,1543547,2030320,0.977,0.021,0.005,-3.8,-8,2.5,-36,6.2,29.5,0.158055361,0.697317423,-0.12939848,0.687002167
616,1544277,2030320,0.981,0.041,0.044,-3.2,-7.2,2.5,-36,6.4,25.8,0.158055361,0.697408979,-0.129520554,0.686880093
617,1546927,2030320,1,0.052,0.059,-2.4,-7,2.4,-36,6.4,25.8,0.158024842,0.697500534,-0.12961211,0.686788537
618,1549163,2030330,1.008,0.052,0.058,-2.1,-7.8,2.4,-36,6.4,25.8,0.157994324,0.69759209,-0.129703665,0.686666463
619,1553278,2030330,1,0.072,0.059,-2.2,-9.1,2.5,-36,6.4,25.8,0.157963805,0.697714164,-0.129825739,0.686544389
620,1554080,2030330,1,0.072,0.059,-2.2,-9.1,2.5,-36,6.4,25.8,0.157963805,0.697714164,-0.129825739,0.686544389
621,1556786,2030330,0.985,0.096,0.094,-3.1,-11.2,2.8,-36,6.5,27.9,0.157994324,0.697805719,-0.129978332,0.686391797
622,1559105,2030340,0.973,0.08,0.11,-3.7,-11.9,2.9,-36,6.5,27.9,0.157994324,0.69798883,-0.130100406,0.686208686
623,1562450,2030340,0.977,0.064,0.122,-3.7,-11.9,2.9,-36,6.5,27.9,0.157963805,0.698141423,-0.130283517,0.686025575
624,1564724,2030340,0.977,0.06,0.118,-5.3,-14.3,2.9,-35.7,6.4,27.6,0.157963805,0.698324534,-0.13043611,0.685811945
625,1566762,2030340,0.981,0.068,0.134,-5.3,-14.3,2.9,-35.7,6.4,27.6,0.157963805,0.698507645,-0.130619221,0.685567797
626,1569496,2030350,0.973,0.064,0.157,-5.7,-15.8,3,-35.7,6.4,27.6,0.157963805,0.698721274,-0.130802332,0.685323649
627,1571759,2030350,0.985,0.049,0.161,-5.8,-17.2,3.1,-35.7,6.4,27.6,0.157933287,0.698934904,-0.131015961,0.685079501
628,1574238,2030350,0.962,0.057,0.177,-5.6,-18,3.3,-36,6.3,26.8,0.157933287,0.699179052,-0.131199072,0.684774316
629,1576760,2030350,0.938,0.073,0.182,-5.5,-18.3,3.6,-36,6.3,26.8,0.157902768,0.6994232,-0.131412702,0.684499649
630,1580815,2030360,0.934,0.053,0.159,-5.1,-18,3.7,-36,6.3,26.8,0.15787225,0.699667348,-0.131595813,0.684224982
631,1583199,2030360,0.852,0.018,0.118,-4.5,-17.3,3.6,-36,6.3,26.8,0.157841731,0.699911496,-0.131778924,0.683950316
632,1585426,2030360,0.907,0.045,0.073,-3.7,-16.1,3.1,-35.7,6.1,26.3,0.157811213,0.700125126,-0.131931516,0.683706168
633,1588375,2030360,0.868,0.069,0.141,-3.1,-14.8,2.7,-35.7,6.1,26.3,0.157780694,0.700338755,-0.132053591,0.683492538
634,1590146,2030370,0.833,0.081,0.091,-2.2,-14,2.4,-35.7,6.1,26.3,0.157719657,0.700521867,-0.132206183,0.683278909
635,1592207,2030370,0.798,0.074,0.077,-1.1,-13.7,2.1,-35.7,6.1,26.3,0.157689138,0.700704978,-0.132297739,0.683065279
636,1594896,2030370,0.927,0.077,0.135,0,-13.4,1.7,-35.4,5.8,27.5,0.157597583,0.700918607,-0.132389294,0.682882168
637,1597247,2030370,0.868,0.093,0.133,0.7,-12.8,1.3,-35.4,5.8,27.5,0.157536546,0.701101718,-0.132419813,0.682668538
638,1599439,2030380,0.895,0.104,0,1.5,-12.2,0.9,-35.4,5.8,27.5,0.15744499,0.701284829,-0.132450331,0.682485427
639,1601732,2030380,0.915,0.112,0.022,2.3,-12.5,0.4,-35.4,5.8,27.5,0.157383953,0.70146794,-0.13248085,0.682302316
640,1604419,2030380,0.915,0.112,0.022,2.3,-12.5,0.4,-35.4,5.8,27.5,0.157383953,0.70146794,-0.13248085,0.682302316
641,1606722,2030380,1.004,0.103,0.015,3,-16.8,-0.2,-35.4,6.1,27.4,0.157322916,0.701895199,-0.132389294,0.681905576
642,1609444,2030390,1.066,0.083,-0.04,3,-20,-0.4,-35.4,6.1,27.4,0.157231361,0.702200385,-0.132419813,0.681600391
643,1611743,2030390,1.074,0.075,-0.049,2.7,-22.8,-0.4,-35.4,6.1,27.4,0.157109287,0.702566607,-0.132450331,0.681264687
644,1615294,2030390,1.082,0.063,-0.072,2.3,-24.3,-0.3,-35,6.3,27.2,0.157017731,0.702932829,-0.13248085,0.680898465
645,1617546,2030390,1.062,0.051,-0.138,2,-24,-0.1,-35,6.3,27.2,0.156926176,0.703299051,-0.132541887,0.680532243
646,1619745,2030400,1.054,0.032,-0.161,1.7,-22.4,0.1,-35,6.3,27.2,0.15683462,0.703634754,-0.132572405,0.680196539
647,1621973,2030400,1.05,0.028,-0.185,1.6,-20.3,0.3,-35,6.3,27.2,0.156743065,0.70393994,-0.132633442,0.679891354
648,1624218,2030400,1.043,0.016,-0.196,1.3,-18.5,0.4,-35,6.2,27.1,0.156651509,0.704214606,-0.132694479,0.679616688
649,1627690,2030400,1.031,0.008,-0.247,0.8,-17.1,0.4,-35,6.2,27.1,0.156590472,0.704489273,-0.132755516,0.679342021
650,1629124,2030410,1.027,0.008,-0.274,0.4,-16.1,0.4,-35,6.2,27.1,0.156529435,0.704702902,-0.132786035,0.679097873
651,1631583,2030410,1.031,0.016,-0.29,0.1,-15.2,0.2,-35,6.2,27.1,0.156468398,0.70494705,-0.132847072,0.678884243
652,1634168,2030410,1.038,0.02,-0.31,0.2,-14.4,0,-35.1,5.6,26.7,0.15643788,0.70516068,-0.132908109,0.678640095
653,1637316,2030410,1.042,0.023,-0.314,0.5,-13.5,-0.1,-35.1,5.6,26.7,0.156376843,0.70537431,-0.132938627,0.678456984
654,1639547,2030420,1.05,0.027,-0.326,0.9,-12.5,-0.1,-35.1,5.6,26.7,0.156315806,0.705557421,-0.132969146,0.678243355
655,1642235,2030420,1.054,0.039,-0.326,1.2,-11.4,-0.1,-35.1,5.6,26.7,0.156285287,0.705710013,-0.132969146,0.678090762
656,1644034,2030420,1.066,0.051,-0.307,1.5,-10.4,-0.1,-35.2,6.5,28.2,0.15622425,0.705893124,-0.132999664,0.677938169
657,1646687,2030420,1.058,0.063,-0.291,1.8,-9.2,-0.1,-35.2,6.5,28.2,0.156163213,0.706015198,-0.132999664,0.677785577
658,1650144,2030430,1.062,0.071,-0.287,1.9,-7.9,-0.1,-35.2,6.5,28.2,0.156132694,0.706137272,-0.132969146,0.677663503
659,1652340,2030430,1.05,0.071,-0.263,2.1,-6.3,0,-35.2,6.5,28.2,0.156071657,0.706259346,-0.132969146,0.677571947
660,1654542,2030430,1.05,0.071,-0.263,2.1,-6.3,0,-35.2,6.5,28.2,0.156071657,0.706259346,-0.132969146,0.677571947
661,1656816,2030430,1.035,0.079,-0.22,2.1,-2.7,0,-35.2,5.1,25.9,0.155949583,0.706564531,-0.132969146,0.677266762
662,1659538,2030440,1.031,0.083,-0.196,1.9,-1.2,0,-35.2,5.1,25.9,0.155919065,0.70659505,-0.132938627,0.677266762
663,1661777,2030440,1.012,0.075,-0.144,1.5,0.1,0,-35.2,5.1,25.9,0.155888546,0.70659505,-0.132908109,0.677266762
664,1665157,2030440,1.004,0.071,-0.129,1.1,1.2,0.1,-35,4.5,26.1,0.155888546,0.70659505,-0.13287759,0.677297281
665,1667435,2030440,0.996,0.075,-0.109,0.7,2.1,0.1,-35,4.5,26.1,0.155888546,0.706564531,-0.13287759,0.677327799
666,1669529,2030450,0.988,0.068,-0.073,0.4,2.7,0.1,-35,4.5,26.1,0.155888546,0.706503494,-0.132847072,0.677388836
667,1671946,2030450,0.988,0.06,-0.046,0.1,3.1,0,-35,4.5,26.1,0.155888546,0.706472976,-0.132847072,0.677419355
668,1675370,2030450,0.985,0.064,-0.026,-0.2,3.3,0,-35.5,3.7,26.1,0.155888546,0.706411939,-0.132847072,0.677480392
669,1676596,2030450,0.981,0.056,-0.014,-0.6,3.3,0,-35.5,3.7,26.1,0.155919065,0.70638142,-0.132847072,0.67751091
670,1679803,2030460,0.981,0.048,0.008,-0.9,3.3,0.1,-35.5,3.7,26.1,0.155919065,0.706320383,-0.132847072,0.677571947
671,1682119,2030460,0.981,0.048,0.02,-1.2,3.2,0.1,-35.5,3.7,26.1,0.155949583,0.706259346,-0.132847072,0.677632984
672,1684273,2030460,0.981,0.04,0.02,-1.3,3,0,-35,3.8,26.1,0.155980102,0.706198309,-0.13287759,0.677663503
673,1687070,2030460,0.973,0.041,0.028,-1.5,2.9,0,-35,3.8,26.1,0.15601062,0.706167791,-0.13287759,0.677694021
674,1690348,2030470,0.969,0.029,0.028,-1.6,3,0,-35,3.8,26.1,0.156041139,0.706106754,-0.13287759,0.677755058
675,1692823,2030470,0.961,0.029,0.029,-1.7,3.2,0.2,-35,3.8,26.1,0.156071657,0.706045717,-0.132908109,0.677785577
676,1695171,2030470,0.957,0.029,0.029,-1.7,3.2,0.3,-35.2,7.6,27.9,0.156102176,0.706015198,-0.132938627,0.677846614
677,1697432,2030470,0.95,0.021,0.037,-1.6,2.9,0.2,-35.2,7.6,27.9,0.156132694,0.705954161,-0.132938627,0.677877132
678,1699387,2030480,0.95,0.017,0.033,-1.5,2.2,0.2,-35.2,7.6,27.9,0.156163213,0.705923643,-0.132969146,0.677907651
679,1701862,2030480,0.946,0.017,0.037,-1.2,1.6,0.1,-35.2,7.6,27.9,0.156193731,0.705893124,-0.132969146,0.677938169
680,1704385,2030480,0.946,0.017,0.037,-1.2,1.6,0.1,-35.2,7.6,27.9,0.156193731,0.705893124,-0.132969146,0.677938169
681,1706663,2030480,0.965,0.025,0.032,-0.6,0.5,0.2,-35.3,5.1,26.7,0.15622425,0.70577105,-0.132999664,0.678029725
682,1709263,2030490,0.973,0.029,0.028,-0.3,0,0.2,-35.3,5.1,26.7,0.15622425,0.70577105,-0.132999664,0.678029725
683,1713375,2030490,0.981,0.029,0.024,0,-0.6,0.2,-35.3,5.1,26.7,0.156193731,0.70577105,-0.133030183,0.678029725
684,1714135,2030490,0.992,0.032,0.024,0.4,-1.1,0,-35.2,5.2,26.4,0.156193731,0.705801569,-0.133030183,0.678029725
685,1716664,2030490,0.992,0.04,0.024,0.6,-1.6,0,-35.2,5.2,26.4,0.156193731,0.705832087,-0.132999664,0.677999207
686,1720939,2030500,0.992,0.048,0.02,0.9,-1.8,0,-35.2,5.2,26.4,0.156163213,0.705862606,-0.132999664,0.677968688
687,1723221,2030500,0.989,0.044,0.016,1,-1.9,0,-35.2,5.2,26.4,0.156132694,0.705893124,-0.132999664,0.677938169
688,1724316,2030500,0.977,0.052,-0.002,0.9,-1.8,0,-35,5.8,26.3,0.156132694,0.705923643,-0.132999664,0.677907651
689,1726717,2030500,0.973,0.048,-0.01,0.9,-1.7,0,-35,5.8,26.3,0.156102176,0.705954161,-0.132969146,0.677877132
690,1729853,2030510,0.969,0.044,-0.022,0.7,-1.7,0,-35,5.8,26.3,0.156102176,0.70598468,-0.132969146,0.677877132
691,1732103,2030510,0.969,0.04,-0.029,0.6,-1.6,0,-35,5.8,26.3,0.156071657,0.706015198,-0.132969146,0.677846614
692,1734171,2030510,0.965,0.033,-0.041,0.5,-1.7,0,-35.3,6.5,26.2,0.156071657,0.706045717,-0.132969146,0.677816095
693,1736806,2030510,0.965,0.037,-0.053,0.4,-1.9,0.1,-35.3,6.5,26.2,0.156041139,0.706076235,-0.132969146,0.677785577
694,1739220,2030520,0.977,0.032,-0.045,0.2,-2.2,0,-35.3,6.5,26.2,0.156041139,0.706106754,-0.132969146,0.677755058
695,1743283,2030520,0.977,0.032,-0.045,0.2,-2.2,0,-35.3,6.5,26.2,0.156041139,0.706106754,-0.132969146,0.677755058
696,1745576,2030520,0.977,0.032,-0.045,0.2,-2.2,0,-35.3,6.5,26.2,0.156041139,0.706106754,-0.132969146,0.677755058
697,1746717,2030520,1,0.04,-0.074,0.2,-3.6,0,-35.2,6.1,27,0.155980102,0.706228828,-0.132999664,0.677602466
698,1750336,2030530,1.012,0.04,-0.082,0.2,-3.7,0,-35.2,6.1,27,0.155980102,0.706289865,-0.132999664,0.677541429
699,1752666,2030530,1.012,0.04,-0.078,0.3,-3.4,0,-35.2,6.1,27,0.155949583,0.706350902,-0.133030183,0.67751091
700,1754916,2030530,1.012,0.044,-0.078,0.4,-2.7,0,-35.2,6.2,26.6,0.155919065,0.706503494,-0.133030183,0.677327799
701,1757267,2030530,1.012,0.044,-0.078,0.4,-2.7,0,-35.2,6.2,26.6,0.155888546,0.706564531,-0.133030183,0.677297281
702,1760226,2030540,1.004,0.048,-0.074,0.4,-2.1,0,-35.2,6.2,26.6,0.155888546,0.70659505,-0.133030183,0.677266762
703,1762406,2030540,1.004,0.044,-0.078,0.4,-1.7,0,-35.2,6.2,26.6,0.155888546,0.706625568,-0.133030183,0.677236244
704,1764592,2030540,0.992,0.048,-0.081,0.4,-1,0,-35,6.2,26.9,0.155858028,0.706625568,-0.133030183,0.677205725
705,1766983,2030540,0.984,0.04,-0.077,0.3,-0.6,0,-35,6.2,26.9,0.155858028,0.706656087,-0.133030183,0.677205725
706,1769233,2030550,0.981,0.04,-0.077,0.2,-0.1,0,-35,6.2,26.9,0.155858028,0.706656087,-0.133030183,0.677205725
707,1771839,2030550,0.977,0.04,-0.069,0.1,0.2,0,-35,6.2,26.9,0.155858028,0.706656087,-0.133030183,0.677205725
708,1775078,2030550,0.981,0.036,-0.065,0.1,0.2,0,-35.3,6.3,26.7,0.155858028,0.706656087,-0.133030183,0.677205725
709,1777345,2030550,0.988,0.04,-0.057,0,0.1,0,-35.3,6.3,26.7,0.155858028,0.706625568,-0.133030183,0.677205725
710,1779317,2030560,0.985,0.04,-0.05,0,0,0,-35.3,6.3,26.7,0.155858028,0.706625568,-0.133030183,0.677205725
711,1783020,2030560,0.988,0.048,-0.05,0,-0.1,0,-35.3,6.3,26.7,0.155858028,0.706656087,-0.133030183,0.677205725
712,1784276,2030560,1,0.048,-0.046,0,-0.1,0,-34.9,6.1,27,0.155858028,0.706656087,-0.133030183,0.677205725
713,1788176,2030560,0.996,0.052,-0.038,0,-0.1,-0.1,-34.9,6.1,27,0.155858028,0.706656087,-0.133030183,0.677205725
714,1790446,2030570,1,0.048,-0.034,0,0,-0.1,-34.9,6.1,27,0.155858028,0.706656087,-0.133030183,0.677205725
715,1791540,2030570,0.996,0.044,-0.026,0,0.1,-0.1,-34.9,6.1,27,0.155858028,0.706656087,-0.133030183,0.677205725
716,1793974,2030570,0.992,0.036,-0.022,0,0.2,0,-34.7,4.8,27.1,0.155858028,0.706656087,-0.133030183,0.677205725
717,1796569,2030570,0.988,0.04,-0.026,-0.2,0.3,0,-34.7,4.8,27.1,0.155858028,0.706625568,-0.133030183,0.677236244
718,1800747,2030580,0.985,0.04,-0.022,-0.3,0.5,0,-34.7,4.8,27.1,0.155858028,0.706625568,-0.133030183,0.677236244
719,1802874,2030580,0.973,0.037,-0.022,-0.3,0.7,0.1,-34.7,4.8,27.1,0.155858028,0.706625568,-0.133030183,0.677236244
720,1805189,2030580,0.973,0.037,-0.022,-0.3,0.7,0.1,-34.7,4.8,27.1,0.155858028,0.706625568,-0.133030183,0.677236244
721,1808146,2030580,0.969,0.029,-0.018,-0.2,0.9,0.1,-35.8,7.1,26.7,0.155888546,0.706534013,-0.133030183,0.677327799
722,1810398,2030590,0.969,0.037,-0.014,-0.2,0.7,0.1,-35.8,7.1,26.7,0.155888546,0.706534013,-0.133030183,0.677327799
723,1812670,2030590,0.977,0.036,-0.018,-0.2,0.4,0.1,-35.8,7.1,26.7,0.155888546,0.706503494,-0.133030183,0.677327799
724,1815649,2030590,0.985,0.032,-0.014,-0.1,0.1,0.1,-36.1,7.1,26.7,0.155888546,0.706503494,-0.133030183,0.677327799
725,1817859,2030590,0.988,0.036,-0.014,-0.1,-0.1,0.2,-36.1,7.1,26.7,0.155888546,0.706503494,-0.133030183,0.677327799
726,1820238,2030600,0.992,0.04,-0.011,0,-0.3,0,-36.1,7.1,26.7,0.155888546,0.706503494,-0.133030183,0.677327799
727,1823281,2030600,0.996,0.036,-0.019,0,-0.5,0,-36.1,7.1,26.7,0.155888546,0.706534013,-0.133030183,0.677327799
728,1825491,2030600,0.996,0.032,-0.022,0,-0.6,-0.1,-37,6.6,27,0.155888546,0.706534013,-0.133030183,0.677297281
729,1827035,2030600,0.988,0.044,-0.022,0.1,-0.6,0,-37,6.6,27,0.155888546,0.706534013,-0.133030183,0.677297281
730,1829083,2030610,0.988,0.04,-0.022,0.1,-0.4,0,-37,6.6,27,0.155888546,0.706564531,-0.133030183,0.677297281
731,1831788,2030610,0.985,0.04,-0.022,0.1,-0.1,0,-37,6.6,27,0.155888546,0.706564531,-0.133030183,0.677297281
732,1835070,2030610,0.973,0.04,-0.026,0.2,0,0,-37.3,6.9,27.2,0.155888546,0.706564531,-0.133030183,0.677297281
733,1837629,2030610,0.977,0.044,-0.034,0.1,0.1,0,-37.3,6.9,27.2,0.155888546,0.706564531,-0.133030183,0.677297281
734,1840745,2030620,0.977,0.044,-0.03,0.1,0,-0.1,-37.3,6.9,27.2,0.155888546,0.706564531,-0.133030183,0.677297281
735,1843060,2030620,0.977,0.044,-0.038,0.1,-0.1,-0.1,-37.3,6.9,27.2,0.155888546,0.706564531,-0.133030183,0.677297281
736,1844003,2030620,0.977,0.04,-0.026,0,-0.3,0,-33.8,5.1,27.1,0.155888546,0.706564531,-0.133030183,0.677297281
737,1848170,2030620,0.985,0.04,-0.038,0,-0.4,0,-33.8,5.1,27.1,0.155858028,0.706564531,-0.133030183,0.677297281
738,1850361,2030630,0.985,0.04,-0.038,0,-0.6,0,-33.8,5.1,27.1,0.155858028,0.706564531,-0.133030183,0.677266762
739,1852621,2030630,0.988,0.036,-0.042,0,-0.9,0,-33.8,5.1,27.1,0.155858028,0.70659505,-0.133030183,0.677266762
740,1854877,2030630,0.996,0.044,-0.038,0,-1,0.1,-35.9,6.8,27,0.155858028,0.706625568,-0.133030183,0.677236244
741,1857270,2030630,0.996,0.04,-0.042,0,-1,0.1,-35.9,6.8,27,0.155858028,0.706625568,-0.133030183,0.677205725
742,1860131,2030640,1,0.04,-0.034,0.1,-0.9,0.1,-35.9,6.8,27,0.155858028,0.706656087,-0.133030183,0.677205725
743,1862108,2030640,0.996,0.044,-0.042,0.1,-0.7,0,-35.9,6.8,27,0.155827509,0.706656087,-0.133030183,0.677175207
744,1864431,2030640,0.988,0.04,-0.046,0.1,-0.5,0,-35.7,6.5,27.2,0.155827509,0.706686605,-0.133030183,0.677175207
745,1866678,2030640,0.985,0.04,-0.042,0.1,-0.4,0,-35.7,6.5,27.2,0.155827509,0.706686605,-0.133030183,0.677175207
746,1869215,2030650,0.981,0.036,-0.038,0.1,-0.2,0,-35.7,6.5,27.2,0.155827509,0.706686605,-0.133030183,0.677175207
747,1871894,2030650,0.977,0.04,-0.034,0.1,-0.1,0,-35.7,6.5,27.2,0.155827509,0.706686605,-0.133030183,0.677175207
748,1875851,2030650,0.981,0.04,-0.042,0,0,0,-35.5,6.7,26.8,0.155827509,0.706686605,-0.133030183,0.677175207
749,1878108,2030650,0.981,0.04,-0.038,0,0,0,-35.5,6.7,26.8,0.155827509,0.706686605,-0.133030183,0.677175207
750,1880319,2030660,0.981,0.04,-0.038,0,-0.1,0,-35.5,6.7,26.8,0.155827509,0.706686605,-0.133030183,0.677175207
751,1882632,2030660,0.985,0.04,-0.042,0,-0.3,0,-35.5,6.7,26.8,0.155827509,0.706686605,-0.133030183,0.677175207
752,1884839,2030660,0.985,0.036,-0.042,0,-0.3,0,-34.9,6.7,26.7,0.155827509,0.706686605,-0.133030183,0.677144688
753,1887007,2030660,0.985,0.04,-0.038,0.1,-0.4,0,-34.9,6.7,26.7,0.155827509,0.706717124,-0.133030183,0.677144688
754,1889258,2030670,0.992,0.04,-0.042,0.1,-0.5,0,-34.9,6.7,26.7,0.155796991,0.706717124,-0.133030183,0.677144688
755,1892172,2030670,0.992,0.044,-0.038,0.1,-0.6,0,-34.9,6.7,26.7,0.155796991,0.706717124,-0.133030183,0.677144688
756,1895296,2030670,0.992,0.048,-0.034,0.1,-0.6,0,-34.8,5.9,27,0.155796991,0.706747642,-0.133030183,0.67711417
757,1897573,2030670,0.992,0.04,-0.034,0.2,-0.4,0,-34.8,5.9,27,0.155796991,0.706747642,-0.133030183,0.67711417
758,1899724,2030680,0.985,0.04,-0.034,0.1,-0.3,0,-34.8,5.9,27,0.155796991,0.706747642,-0.133030183,0.67711417
759,1901984,2030680,0.985,0.04,-0.042,0.1,-0.1,0,-34.8,5.9,27,0.155796991,0.706747642,-0.133030183,0.67711417
760,1904191,2030680,0.985,0.04,-0.042,0.1,-0.1,0,-34.8,5.9,27,0.155796991,0.706747642,-0.133030183,0.67711417
761,1906824,2030680,0.981,0.04,-0.038,-0.1,0.2,0,-34.9,6.1,26.7,0.155796991,0.706747642,-0.133030183,0.677083651
762,1909149,2030690,0.977,0.04,-0.038,-0.1,0.2,0,-34.9,6.1,26.7,0.155827509,0.706747642,-0.133030183,0.677083651
763,1913404,2030690,0.977,0.036,-0.026,-0.1,0.1,-0.1,-34.9,6.1,26.7,0.155827509,0.706747642,-0.133030183,0.67711417
764,1914194,2030690,0.981,0.036,-0.03,0,0,0,-34.5,6.2,26.6,0.155827509,0.706747642,-0.133030183,0.67711417
765,1916958,2030690,0.981,0.036,-0.03,-0.1,-0.1,0,-34.5,6.2,26.6,0.155827509,0.706747642,-0.133030183,0.677083651
766,1919078,2030700,0.981,0.04,-0.026,-0.1,-0.3,0.1,-34.5,6.2,26.6,0.155827509,0.706747642,-0.133030183,0.677083651
767,1922152,2030700,0.988,0.04,-0.026,-0.1,-0.4,0.2,-34.5,6.2,26.6,0.155827509,0.706778161,-0.133030183,0.677083651
768,1924480,2030700,0.988,0.04,-0.034,0,-0.4,0.2,-34.7,5.5,26.9,0.155827509,0.706778161,-0.133030183,0.677083651
769,1926733,2030700,0.988,0.048,-0.038,0,-0.3,0,-34.7,5.5,26.9,0.155827509,0.706778161,-0.133030183,0.677083651
770,1929481,2030710,0.988,0.044,-0.034,0,-0.4,0,-34.7,5.5,26.9,0.155827509,0.706778161,-0.133030183,0.677083651
771,1931762,2030710,0.988,0.044,-0.03,0,-0.4,-0.1,-34.7,5.5,26.9,0.155827509,0.706778161,-0.133030183,0.677053133
772,1934163,2030710,0.988,0.044,-0.03,0,-0.3,0,-34.6,6.2,26.9,0.155827509,0.706808679,-0.133030183,0.677053133
773,1936792,2030710,0.985,0.04,-0.03,0,-0.2,0,-34.6,6.2,26.9,0.155796991,0.706808679,-0.133030183,0.677053133
774,1940853,2030720,0.988,0.036,-0.03,0,-0.1,0,-34.6,6.2,26.9,0.155796991,0.706808679,-0.133030183,0.677053133
775,1943071,2030720,0.981,0.04,-0.038,0,-0.1,0,-34.6,6.2,26.9,0.155796991,0.706808679,-0.133030183,0.677053133
776,1945343,2030720,0.977,0.036,-0.03,-0.1,-0.1,0,-36,5.9,27,0.155827509,0.706808679,-0.133030183,0.677053133
777,1947641,2030720,0.981,0.04,-0.038,-0.1,-0.1,0,-36,5.9,27,0.155827509,0.706808679,-0.13309122,0.677053133
778,1950706,2030730,0.985,0.036,-0.026,0,-0.1,0,-36,5.9,27,0.155827509,0.706808679,-0.13309122,0.677053133
779,1952843,2030730,0.985,0.04,-0.03,0,-0.1,0,-36,5.9,27,0.155827509,0.706808679,-0.13309122,0.677022614
780,1955136,2030730,0.985,0.04,-0.03,0,-0.1,0,-36,5.9,27,0.155827509,0.706808679,-0.13309122,0.677022614
781,1957364,2030730,0.988,0.04,-0.03,0,-0.4,0.1,-34.5,6,26.9,0.155796991,0.706808679,-0.13309122,0.677053133
782,1959541,2030740,0.985,0.044,-0.026,0,-0.5,0.1,-34.5,6,26.9,0.155796991,0.706808679,-0.13309122,0.677053133
783,1962235,2030740,0.992,0.044,-0.034,0,-0.6,0.1,-34.5,6,26.9,0.155796991,0.706808679,-0.13309122,0.677022614
784,1964328,2030740,0.985,0.04,-0.03,0,-0.4,0.1,-34.3,6,27.2,0.155796991,0.706808679,-0.13309122,0.677022614
785,1966681,2030740,0.985,0.04,-0.034,0.1,-0.3,0.1,-34.3,6,27.2,0.155796991,0.706839198,-0.13309122,0.677022614
786,1969308,2030750,0.985,0.04,-0.038,0.1,0,0,-34.3,6,27.2,0.155796991,0.706839198,-0.13309122,0.677022614
787,1971604,2030750,0.985,0.04,-0.038,0,0.1,0,-34.3,6,27.2,0.155796991,0.706808679,-0.13309122,0.677022614
788,1975023,2030750,0.985,0.04,-0.03,-0.1,0.1,0,-34.6,5.9,27,0.155796991,0.706808679,-0.13309122,0.677022614
789,1976912,2030750,0.985,0.04,-0.042,-0.1,0.1,0,-34.6,5.9,27,0.155796991,0.706808679,-0.13309122,0.677022614
790,1979142,2030760,0.985,0.036,-0.034,0,0,0,-34.6,5.9,27,0.155796991,0.706808679,-0.13309122,0.677022614
791,1981814,2030760,0.981,0.036,-0.034,0,0,0.1,-34.6,5.9,27,0.155796991,0.706808679,-0.133121738,0.677022614
792,1985909,2030760,0.985,0.036,-0.034,0,-0.1,0.1,-34.5,5.9,27.2,0.155796991,0.706808679,-0.133121738,0.677022614
793,1986668,2030760,0.988,0.04,-0.042,0,-0.2,0,-34.5,5.9,27.2,0.155796991,0.706808679,-0.133121738,0.677022614
794,1989309,2030770,0.985,0.04,-0.038,0,-0.1,0,-34.5,5.9,27.2,0.155796991,0.706808679,-0.133121738,0.677022614
795,1993351,2030770,0.988,0.04,-0.038,0,0,0,-34.5,5.9,27.2,0.155796991,0.706839198,-0.133121738,0.677022614
796,1994180,2030770,0.992,0.036,-0.03,0,0,0,-36.2,6,27,0.155796991,0.706839198,-0.133121738,0.677022614
797,1996739,2030770,0.988,0.044,-0.034,0,-0.1,0,-36.2,6,27,0.155796991,0.706839198,-0.133121738,0.677022614
798,2000029,2030780,0.988,0.044,-0.034,0,-0.1,0,-36.2,6,27,0.155796991,0.706839198,-0.133121738,0.677022614
799,2001693,2030780,0.985,0.04,-0.034,0,-0.1,0,-36.2,6,27,0.155796991,0.706839198,-0.133121738,0.677022614
800,2004668,2030780,0.985,0.04,-0.034,0,-0.1,0,-36.2,6,27,0.155796991,0.706839198,-0.133121738,0.677022614
801,2006867,2030780,0.985,0.036,-0.034,0,0.1,0,-34,5.9,26.7,0.155796991,0.706808679,-0.13309122,0.677022614
802,2009367,2030790,0.988,0.04,-0.034,0,0,0,-34,5.9,26.7,0.155796991,0.706808679,-0.13309122,0.677022614
803,2011664,2030790,0.981,0.036,-0.038,0,0,0,-34,5.9,26.7,0.155796991,0.706808679,-0.13309122,0.677022614
804,2015766,2030790,0.985,0.04,-0.034,0,-0.1,0,-34,6.2,26.8,0.155796991,0.706808679,-0.13309122,0.677022614
805,2016653,2030790,0.985,0.036,-0.038,0,-0.1,0,-34,6.2,26.8,0.155796991,0.706839198,-0.13309122,0.677022614
806,2019147,2030800,0.988,0.036,-0.038,0,-0.1,0,-34,6.2,26.8,0.155796991,0.706839198,-0.13309122,0.677022614
807,2022123,2030800,0.985,0.04,-0.034,0,-0.1,0,-34,6.2,26.8,0.155796991,0.706839198,-0.13309122,0.677022614
808,2024538,2030800,0.985,0.04,-0.038,0,-0.1,0,-33.9,6.2,26.9,0.155796991,0.706839198,-0.13309122,0.677022614
809,2026867,2030800,0.988,0.04,-0.034,0,-0.1,0,-33.9,6.2,26.9,0.155796991,0.706839198,-0.13309122,0.677022614
810,2029683,2030810,0.988,0.044,-0.03,0.1,-0.2,0,-33.9,6.2,26.9,0.155796991,0.706839198,-0.13309122,0.677022614
811,2032123,2030810,0.988,0.048,-0.038,0,-0.3,0,-33.9,6.2,26.9,0.155796991,0.706839198,-0.13309122,0.676992096
812,2034344,2030810,0.988,0.044,-0.034,0.1,-0.3,0,-34,6.2,27,0.155796991,0.706839198,-0.13309122,0.676992096
813,2038174,2030810,0.992,0.04,-0.034,0,-0.2,0,-34,6.2,27,0.155796991,0.706839198,-0.13309122,0.676992096
814,2039174,2030820,0.988,0.04,-0.038,0.1,0,0,-34,6.2,27,0.155796991,0.706839198,-0.13309122,0.676992096
815,2043460,2030820,0.981,0.04,-0.034,0,0.1,0,-34,6.2,27,0.155796991,0.706839198,-0.13309122,0.676992096
816,2044274,2030820,0.981,0.036,-0.034,0,0.1,0,-35.1,5.7,27,0.155796991,0.706839198,-0.13309122,0.676992096
817,2048205,2030820,0.981,0.044,-0.042,0,0.1,0.1,-35.1,5.7,27,0.155796991,0.706839198,-0.13309122,0.676992096
818,2050425,2030830,0.985,0.036,-0.034,-0.1,0,0.1,-35.1,5.7,27,0.155796991,0.706839198,-0.13309122,0.676992096
819,2053420,2030830,0.981,0.044,-0.042,-0.1,0,0.1,-35.1,5.7,27,0.155796991,0.706839198,-0.13309122,0.676992096
820,2054123,2030830,0.988,0.04,-0.038,-0.1,-0.1,0,-34.8,6.3,27.4,0.155796991,0.706900235,-0.13309122,0.676961577
821,2056780,2030830,0.988,0.04,-0.038,0,-0.1,0,-34.8,6.3,27.4,0.155796991,0.706900235,-0.13309122,0.676961577
822,2060872,2030840,0.988,0.044,-0.03,0,-0.1,0,-34.8,6.3,27.4,0.155796991,0.706900235,-0.13309122,0.676961577
823,2061547,2030840,0.992,0.044,-0.03,0,-0.3,0,-34.8,6.3,27.4,0.155796991,0.706900235,-0.13309122,0.676961577
824,2064731,2030840,0.988,0.044,-0.03,0,-0.3,0,-34.9,5.9,27.1,0.155796991,0.706900235,-0.13309122,0.676931059
825,2066961,2030840,0.992,0.04,-0.038,0,-0.3,0,-34.9,5.9,27.1,0.155796991,0.706900235,-0.13309122,0.676931059
826,2069427,2030850,0.985,0.04,-0.03,0,-0.1,0,-34.9,5.9,27.1,0.155796991,0.706900235,-0.13309122,0.676931059
827,2072710,2030850,0.988,0.04,-0.034,0,0,0,-34.9,5.9,27.1,0.155796991,0.706900235,-0.13309122,0.676931059
828,2075187,2030850,0.985,0.044,-0.034,0,0.1,0,-34.5,6,27.5,0.155796991,0.706900235,-0.13309122,0.676931059
829,2077449,2030850,0.985,0.036,-0.042,0,0.2,0,-34.5,6,27.5,0.155796991,0.706900235,-0.13309122,0.676931059
830,2079794,2030860,0.981,0.04,-0.038,0,0.2,0,-34.5,6,27.5,0.155796991,0.706900235,-0.13309122,0.676961577
831,2081961,2030860,0.981,0.036,-0.03,0,0.2,0.1,-34.5,6,27.5,0.155796991,0.706900235,-0.13309122,0.676961577
832,2084221,2030860,0.981,0.036,-0.034,0,0.1,0.1,-34.6,6,27.6,0.155796991,0.706900235,-0.133121738,0.676961577
833,2086859,2030860,0.981,0.04,-0.038,0,0,0,-34.6,6,27.6,0.155796991,0.706900235,-0.133121738,0.676961577
834,2089104,2030870,0.985,0.036,-0.038,0.1,-0.2,0,-34.6,6,27.6,0.155766472,0.706900235,-0.133121738,0.676961577
835,2092460,2030870,0.985,0.044,-0.03,0.1,-0.4,0,-34.6,6,27.6,0.155766472,0.706900235,-0.133121738,0.676931059
836,2094712,2030870,0.992,0.036,-0.03,0.1,-0.4,0,-35.2,6,26,0.155766472,0.706900235,-0.133121738,0.676931059
837,2096980,2030870,0.988,0.04,-0.034,0,-0.4,0,-35.2,6,26,0.155766472,0.706930754,-0.133121738,0.676931059
838,2099243,2030880,0.988,0.036,-0.03,0,-0.4,0,-35.2,6,26,0.155766472,0.706930754,-0.133121738,0.676931059
839,2101774,2030880,0.985,0.04,-0.038,0,-0.3,0,-35.2,6,26,0.155766472,0.706930754,-0.133121738,0.676931059
840,2104407,2030880,0.985,0.04,-0.038,0,-0.3,0,-35.2,6,26,0.155766472,0.706930754,-0.133121738,0.676931059
841,2106725,2030880,0.988,0.044,-0.03,0,-0.3,0,-35.1,6,27.7,0.155766472,0.706930754,-0.133121738,0.676931059
842,2110472,2030890,0.985,0.04,-0.038,0,-0.3,0,-35.1,6,27.7,0.155766472,0.706930754,-0.133121738,0.67690054
843,2112850,2030890,0.985,0.04,-0.034,0,-0.2,-0.1,-35.1,6,27.7,0.155766472,0.706930754,-0.133121738,0.67690054
844,2115116,2030890,0.985,0.036,-0.034,0,0,-0.1,-35,5.9,28,0.155766472,0.706930754,-0.133121738,0.67690054
845,2117281,2030890,0.985,0.04,-0.038,0,0,-0.1,-35,5.9,28,0.155766472,0.706930754,-0.133121738,0.67690054
846,2119267,2030900,0.985,0.04,-0.034,0,0,0,-35,5.9,28,0.155766472,0.706930754,-0.133121738,0.67690054
847,2122780,2030900,0.985,0.036,-0.042,0,-0.2,0.1,-35,5.9,28,0.155766472,0.706930754,-0.133121738,0.67690054
848,2125052,2030900,0.985,0.04,-0.03,0,-0.3,0.2,-35.1,6,28.4,0.155766472,0.706961272,-0.133121738,0.67690054
849,2127278,2030900,0.988,0.036,-0.03,0,-0.3,0.1,-35.1,6,28.4,0.155766472,0.706961272,-0.133121738,0.67690054
850,2130240,2030910,0.988,0.04,-0.034,0,-0.3,0.1,-35.1,6,28.4,0.155766472,0.706961272,-0.133121738,0.67690054
851,2132588,2030910,0.992,0.044,-0.034,-0.1,-0.3,0,-35.1,6,28.4,0.155766472,0.706961272,-0.133121738,0.67690054
852,2134680,2030910,0.988,0.04,-0.026,0,-0.3,0,-35.1,5.7,28.3,0.155735954,0.706961272,-0.133152257,0.676870022
853,2136961,2030910,0.988,0.04,-0.03,0,-0.3,0.1,-35.1,5.7,28.3,0.155735954,0.706961272,-0.133152257,0.676870022
854,2139193,2030920,0.985,0.044,-0.03,0.1,-0.1,0,-35.1,5.7,28.3,0.155735954,0.706961272,-0.133152257,0.676870022
855,2143725,2030920,0.985,0.04,-0.038,0.1,0.1,0,-35.1,5.7,28.3,0.155735954,0.706961272,-0.133152257,0.676870022
856,2144144,2030920,0.981,0.044,-0.034,0,0.1,0,-35.2,5.8,25.3,0.155735954,0.706961272,-0.133152257,0.676870022
857,2148370,2030920,0.981,0.04,-0.03,0,0.1,0,-35.2,5.8,25.3,0.155735954,0.706961272,-0.133152257,0.676870022
858,2150834,2030930,0.981,0.036,-0.03,0,0,0,-35.2,5.8,25.3,0.155735954,0.706961272,-0.133152257,0.676870022
859,2151900,2030930,0.981,0.04,-0.034,0,0,-0.1,-35.2,5.8,25.3,0.155735954,0.706961272,-0.133121738,0.676870022
860,2155328,2030930,0.981,0.04,-0.034,0,0,-0.1,-35.2,5.8,25.3,0.155735954,0.706961272,-0.133121738,0.676870022
861,2156647,2030930,0.985,0.04,-0.034,0,0,0,-35.2,5.8,27,0.155766472,0.706961272,-0.133121738,0.67690054
862,2159029,2030940,0.988,0.036,-0.03,0.1,0,0,-35.2,5.8,27,0.155766472,0.706930754,-0.133121738,0.67690054
863,2161798,2030940,0.988,0.036,-0.038,0.1,0,0,-35.2,5.8,27,0.155766472,0.706961272,-0.133121738,0.67690054
864,2164147,2030940,0.988,0.036,-0.038,0.1,0,0.1,-35,5.7,26.5,0.155766472,0.706961272,-0.133121738,0.67690054
865,2166755,2030940,0.988,0.036,-0.042,0,0,0.2,-35,5.7,26.5,0.155766472,0.706961272,-0.133121738,0.67690054
866,2169331,2030950,0.988,0.044,-0.03,0,-0.1,0.1,-35,5.7,26.5,0.155735954,0.706961272,-0.133121738,0.67690054
867,2172424,2030950,0.988,0.04,-0.038,0,-0.1,0,-35,5.7,26.5,0.155735954,0.706961272,-0.133121738,0.67690054
868,2174574,2030950,0.985,0.044,-0.03,0,0,0,-35.2,5.8,25.8,0.155735954,0.706961272,-0.133121738,0.67690054
869,2177264,2030950,0.985,0.04,-0.046,0,0,0,-35.2,5.8,25.8,0.155735954,0.706961272,-0.133121738,0.67690054
870,2179502,2030960,0.985,0.04,-0.034,0,0,0,-35.2,5.8,25.8,0.155735954,0.706961272,-0.133121738,0.67690054
871,2181559,2030960,0.985,0.044,-0.038,0,-0.1,0,-35.2,5.8,25.8,0.155735954,0.706961272,-0.133121738,0.67690054
872,2184084,2030960,0.985,0.036,-0.034,-0.1,0,0,-35.3,5.8,25.2,0.155735954,0.706961272,-0.133121738,0.67690054
873,2186392,2030960,0.985,0.036,-0.034,-0.1,0,0,-35.3,5.8,25.2,0.155766472,0.706961272,-0.133121738,0.67690054
874,2189813,2030970,0.981,0.036,-0.034,0,0,0,-35.3,5.8,25.2,0.155766472,0.706961272,-0.133121738,0.67690054
875,2192145,2030970,0.985,0.036,-0.038,0,0,0,-35.3,5.8,25.2,0.155735954,0.706961272,-0.133121738,0.67690054
876,2194295,2030970,0.985,0.036,-0.03,0,0,0,-35.2,5.9,26.9,0.155735954,0.706961272,-0.133121738,0.67690054
877,2196489,2030970,0.988,0.044,-0.03,0,0,0,-35.2,5.9,26.9,0.155735954,0.706961272,-0.133121738,0.67690054
878,2201150,2030980,0.985,0.04,-0.034,-0.1,0,0,-35.2,5.9,26.9,0.155735954,0.706961272,-0.133121738,0.67690054
879,2201880,2030980,0.988,0.04,-0.038,-0.1,-0.2,0,-35.2,5.9,26.9,0.155735954,0.706961272,-0.133121738,0.67690054
880,2204053,2030980,0.988,0.04,-0.038,-0.1,-0.2,0,-35.2,5.9,26.9,0.155735954,0.706961272,-0.133121738,0.67690054
881,2206610,2030980,0.985,0.04,-0.034,0.1,-0.3,0.1,-34.8,6.2,27.4,0.155766472,0.706961272,-0.133121738,0.67690054
882,2208923,2030990,0.981,0.04,-0.034,0,-0.3,0,-34.8,6.2,27.4,0.155766472,0.706961272,-0.133121738,0.67690054
883,2212336,2030990,0.985,0.04,-0.042,0,-0.2,0,-34.8,6.2,27.4,0.155766472,0.706961272,-0.133121738,0.676870022
884,2214576,2030990,0.985,0.036,-0.03,0,0,0,-34.8,6,26.9,0.155766472,0.706961272,-0.133121738,0.676870022
885,2216835,2030990,0.985,0.04,-0.038,0,0,0,-34.8,6,26.9,0.155766472,0.706961272,-0.133121738,0.676870022
886,2221226,2031000,0.985,0.036,-0.038,0,0,-0.1,-34.8,6,26.9,0.155766472,0.706961272,-0.133121738,0.676870022
887,2221825,2031000,0.985,0.036,-0.034,0,0,-0.2,-34.8,6,26.9,0.155766472,0.706961272,-0.133121738,0.676870022
888,2225779,2031000,0.992,0.036,-0.034,0,-0.2,-0.1,-34.9,6.1,27.1,0.155766472,0.706961272,-0.133121738,0.676870022
889,2226419,2031000,0.985,0.036,-0.038,0,-0.2,0,-34.9,6.1,27.1,0.155766472,0.706961272,-0.133121738,0.676870022
890,2229472,2031010,0.992,0.04,-0.038,0,-0.2,0,-34.9,6.1,27.1,0.155766472,0.706961272,-0.133121738,0.676870022
891,2232134,2031010,0.988,0.044,-0.038,-0.1,-0.1,0,-34.9,6.1,27.1,0.155766472,0.706961272,-0.133121738,0.676870022
892,2233977,2031010,0.988,0.04,-0.038,0,-0.1,0,-34.9,5.3,26.9,0.155766472,0.706991791,-0.133121738,0.676870022
893,2236570,2031010,0.988,0.044,-0.03,0,-0.1,-0.1,-34.9,5.3,26.9,0.155766472,0.706991791,-0.133121738,0.676870022
894,2240020,2031020,0.985,0.04,-0.034,0.1,-0.1,0,-34.9,5.3,26.9,0.155766472,0.706991791,-0.133121738,0.676870022
895,2242301,2031020,0.985,0.04,-0.038,0.1,-0.1,0,-34.9,5.3,26.9,0.155766472,0.706991791,-0.133121738,0.676839503
896,2244541,2031020,0.985,0.04,-0.034,0.1,0,0,-35,6.6,28,0.155766472,0.706991791,-0.133121738,0.676839503
897,2246715,2031020,0.981,0.04,-0.034,0.1,0,0,-35,6.6,28,0.155766472,0.706991791,-0.133121738,0.676839503
898,2249338,2031030,0.985,0.036,-0.034,0,0,0,-35,6.6,28,0.155766472,0.706991791,-0.133121738,0.676839503
899,2253521,2031030,0.981,0.04,-0.034,0,0,0,-35,6.6,28,0.155766472,0.706991791,-0.133121738,0.676839503
900,2254096,2031030,0.988,0.04,-0.034,0,0.1,0,-35.2,4.5,26.4,0.155766472,0.706991791,-0.133121738,0.676870022
901,2257218,2031030,0.981,0.04,-0.038,0,0,0,-35.2,4.5,26.4,0.155766472,0.706991791,-0.133121738,0.676870022
902,2259636,2031040,0.985,0.044,-0.038,0,-0.1,0,-35.2,4.5,26.4,0.155766472,0.706991791,-0.133121738,0.676870022
903,2261761,2031040,0.985,0.04,-0.034,0,-0.3,0,-35.2,4.5,26.4,0.155766472,0.706991791,-0.133121738,0.676839503
904,2266221,2031040,0.985,0.044,-0.034,0,-0.3,0,-35.4,4.3,26,0.155766472,0.706991791,-0.133121738,0.676839503
905,2266902,2031040,0.988,0.044,-0.034,0,-0.2,0,-35.4,4.3,26,0.155766472,0.706991791,-0.133121738,0.676839503
906,2269284,2031050,0.992,0.044,-0.034,0.1,0,0,-35.4,4.3,26,0.155766472,0.706991791,-0.133121738,0.676839503
907,2271442,2031050,0.988,0.044,-0.034,0.1,0,-0.1,-35.4,4.3,26,0.155766472,0.706991791,-0.133121738,0.676839503
908,2276035,2031050,0.988,0.044,-0.034,0.1,0.1,-0.1,-35.1,4.2,26,0.155766472,0.706991791,-0.133121738,0.676839503
909,2276447,2031050,0.988,0.044,-0.034,0.1,0.2,0,-35.1,4.2,26,0.155766472,0.706991791,-0.13309122,0.676839503
910,2281164,2031060,0.981,0.04,-0.038,0.1,0.2,0,-35.1,4.2,26,0.155766472,0.706991791,-0.13309122,0.676839503
911,2281590,2031060,0.985,0.036,-0.042,0,0.2,0,-35.1,4.2,26,0.155766472,0.706991791,-0.13309122,0.676870022
912,2283948,2031060,0.985,0.04,-0.034,0,0.1,0,-35.2,3.7,26.2,0.155766472,0.706991791,-0.13309122,0.676870022
913,2287192,2031060,0.981,0.036,-0.034,0,0.2,0,-35.2,3.7,26.2,0.155766472,0.706991791,-0.13309122,0.676870022
914,2289892,2031070,0.981,0.04,-0.034,0,0.1,0,-35.2,3.7,26.2,0.155766472,0.706991791,-0.13309122,0.676870022
915,2291705,2031070,0.985,0.04,-0.034,-0.1,0.1,0,-35.2,3.7,26.2,0.155766472,0.706991791,-0.13309122,0.676870022
916,2293937,2031070,0.985,0.036,-0.034,0,0,0,-35,7.7,27.4,0.155766472,0.706991791,-0.13309122,0.676870022
917,2296387,2031070,0.988,0.04,-0.034,0,0,0,-35,7.7,27.4,0.155766472,0.706991791,-0.13309122,0.676870022
918,2300160,2031080,0.988,0.04,-0.03,0,-0.1,0,-35,7.7,27.4,0.155766472,0.706991791,-0.13309122,0.676870022
919,2303192,2031080,0.988,0.036,-0.034,0,-0.3,0,-35,7.7,27.4,0.155766472,0.706991791,-0.13309122,0.676870022
920,2305573,2031080,0.988,0.036,-0.034,0,-0.3,0,-35,7.7,27.4,0.155766472,0.706991791,-0.13309122,0.676870022
921,2307688,2031080,0.988,0.044,-0.034,0.1,-0.4,0,-34.6,5.7,26.2,0.155766472,0.706991791,-0.133121738,0.676870022
922,2310135,2031090,0.988,0.04,-0.034,0,-0.3,0,-34.6,5.7,26.2,0.155766472,0.706991791,-0.133121738,0.676870022
923,2312376,2031090,0.988,0.044,-0.038,0,-0.1,0,-34.6,5.7,26.2,0.155766472,0.706991791,-0.133121738,0.676870022
924,2315182,2031090,0.985,0.044,-0.034,0,0,0,-35,6,26.4,0.155766472,0.706991791,-0.133121738,0.676870022
925,2317610,2031090,0.981,0.04,-0.038,0,0,0.1,-35,6,26.4,0.155766472,0.706991791,-0.133121738,0.676870022
926,2320674,2031100,0.985,0.04,-0.034,0,0.1,0.2,-35,6,26.4,0.155735954,0.706991791,-0.133121738,0.676870022
927,2321521,2031100,0.981,0.04,-0.038,0,0.2,0.2,-35,6,26.4,0.155735954,0.706991791,-0.133121738,0.676870022
928,2325614,2031100,0.981,0.04,-0.03,-0.1,0.2,0.1,-35,7.1,26.7,0.155735954,0.706991791,-0.133121738,0.676870022
929,2328509,2031100,0.985,0.036,-0.034,-0.1,0.1,0,-35,7.1,26.7,0.155766472,0.706961272,-0.133121738,0.676870022
930,2328970,2031110,0.985,0.04,-0.034,-0.1,0,0,-35,7.1,26.7,0.155766472,0.706961272,-0.133121738,0.676870022
931,2331889,2031110,0.988,0.04,-0.034,0,-0.3,0,-35,7.1,26.7,0.155766472,0.706991791,-0.133121738,0.676870022
932,2336172,2031110,0.988,0.04,-0.034,0,-0.4,0,-35.1,7.4,26.3,0.155735954,0.706991791,-0.133121738,0.676870022
933,2336852,2031110,0.985,0.036,-0.038,0,-0.4,0,-35.1,7.4,26.3,0.155735954,0.706991791,-0.133121738,0.676839503
934,2339196,2031120,0.988,0.04,-0.03,0.1,-0.4,0,-35.1,7.4,26.3,0.155735954,0.706991791,-0.133152257,0.676839503
935,2342961,2031120,0.988,0.04,-0.038,0.1,-0.3,0,-35.1,7.4,26.3,0.155735954,0.706991791,-0.133152257,0.676839503
936,2345213,2031120,0.988,0.04,-0.034,0.1,-0.1,0,-35,6,27,0.155735954,0.706991791,-0.133152257,0.676839503
937,2347329,2031120,0.985,0.048,-0.034,0,0,0,-35,6,27,0.155735954,0.707022309,-0.133121738,0.676839503
938,2349644,2031130,0.985,0.04,-0.034,0,0,0,-35,6,27,0.155735954,0.706991791,-0.133152257,0.676839503
939,2351965,2031130,0.985,0.04,-0.042,-0.1,0.1,-0.1,-35,6,27,0.155735954,0.706991791,-0.133121738,0.676839503
940,2354135,2031130,0.985,0.04,-0.042,-0.1,0.1,-0.1,-35,6,27,0.155735954,0.706991791,-0.133121738,0.676839503
941,2356788,2031130,0.985,0.04,-0.03,0,0,-0.1,-34.9,6.2,26.9,0.155766472,0.707022309,-0.13309122,0.676808985
942,2360013,2031140,0.985,0.036,-0.038,0,0,0,-34.9,6.2,26.9,0.155766472,0.707022309,-0.13309122,0.676808985
943,2362211,2031140,0.985,0.036,-0.038,0,0,0,-34.9,6.2,26.9,0.155766472,0.707022309,-0.13309122,0.676808985
944,2364450,2031140,0.985,0.04,-0.034,0,0,0,-35.1,6.4,26.9,0.155766472,0.707022309,-0.13309122,0.676808985
945,2367571,2031140,0.992,0.036,-0.038,0,0,0,-35.1,6.4,26.9,0.155766472,0.707022309,-0.13309122,0.676808985
946,2369139,2031150,0.992,0.04,-0.038,0,0,0,-35.1,6.4,26.9,0.155796991,0.707022309,-0.13309122,0.676808985
947,2371659,2031150,0.988,0.04,-0.038,0,0,0,-35.1,6.4,26.9,0.155796991,0.707022309,-0.13309122,0.676808985
948,2374969,2031150,0.988,0.04,-0.038,0,-0.1,0,-35.2,6.1,26.7,0.155796991,0.707022309,-0.13309122,0.676808985
949,2377180,2031150,0.988,0.044,-0.038,0,0,0,-35.2,6.1,26.7,0.155766472,0.707022309,-0.13309122,0.676808985
950,2379398,2031160,0.981,0.04,-0.034,0,0,0,-35.2,6.1,26.7,0.155766472,0.707022309,-0.13309122,0.676808985
951,2381679,2031160,0.985,0.036,-0.03,0,0,0,-35.2,6.1,26.7,0.155766472,0.707022309,-0.13309122,0.676808985
952,2386138,2031160,0.985,0.04,-0.03,0,0,0,-35,6.4,27,0.155796991,0.707022309,-0.13309122,0.676808985
953,2386756,2031160,0.985,0.036,-0.034,0,0,0,-35,6.4,27,0.155796991,0.707022309,-0.13309122,0.676808985
954,2389652,2031170,0.981,0.04,-0.042,-0.1,0.1,0,-35,6.4,27,0.155796991,0.707022309,-0.13309122,0.676808985
955,2392379,2031170,0.981,0.04,-0.03,0,0.1,0,-35,6.4,27,0.155796991,0.707022309,-0.13309122,0.676808985
956,2394211,2031170,0.985,0.036,-0.038,0,0.1,0,-34.6,4.6,27,0.155796991,0.707022309,-0.13309122,0.676808985
957,2396857,2031170,0.988,0.04,-0.034,0,0,0,-34.6,4.6,27,0.155796991,0.707022309,-0.13309122,0.676808985
958,2399097,2031180,0.985,0.036,-0.034,0,0,0,-34.6,4.6,27,0.155796991,0.707022309,-0.13309122,0.676808985
959,2403208,2031180,0.988,0.04,-0.03,0,0,0,-34.6,4.6,27,0.155796991,0.707022309,-0.13309122,0.676839503
960,2405454,2031180,0.988,0.04,-0.03,0,0,0,-34.6,4.6,27,0.155796991,0.707022309,-0.13309122,0.676839503
961,2407719,2031180,0.985,0.044,-0.038,0,0,0,-36.3,7.5,27.3,0.155766472,0.707022309,-0.133121738,0.676839503
962,2410035,2031190,0.988,0.04,-0.038,0,0,0,-36.3,7.5,27.3,0.155766472,0.707022309,-0.133121738,0.676839503
963,2412289,2031190,0.985,0.036,-0.034,0.1,0,0,-36.3,7.5,27.3,0.155766472,0.707022309,-0.133121738,0.676839503
964,2414544,2031190,0.985,0.036,-0.038,0.1,0.1,0,-36.7,7.1,26.9,0.155766472,0.707022309,-0.13309122,0.676839503
965,2416795,2031190,0.981,0.036,-0.034,0,0.1,0,-36.7,7.1,26.9,0.155766472,0.706991791,-0.13309122,0.676839503
966,2419403,2031200,0.981,0.044,-0.034,0,0.1,0,-36.7,7.1,26.9,0.155766472,0.706991791,-0.13309122,0.676839503
967,2421679,2031200,0.985,0.036,-0.03,0,0.1,0,-36.7,7.1,26.9,0.155766472,0.706991791,-0.133121738,0.676839503
968,2425864,2031200,0.985,0.036,-0.034,0,0.1,0,-36.9,7.3,26.9,0.155766472,0.706991791,-0.133121738,0.676839503
969,2428099,2031200,0.985,0.032,-0.03,0,0.1,0,-36.9,7.3,26.9,0.155766472,0.706991791,-0.133121738,0.676839503
970,2429193,2031210,0.985,0.04,-0.03,0,0,0,-36.9,7.3,26.9,0.155766472,0.706991791,-0.13309122,0.676839503
971,2432448,2031210,0.988,0.04,-0.034,0,-0.1,-0.1,-36.9,7.3,26.9,0.155766472,0.706991791,-0.13309122,0.676839503
972,2434640,2031210,0.988,0.036,-0.034,0,-0.1,0,-37.3,7.3,27,0.155796991,0.706991791,-0.13309122,0.676839503
973,2437366,2031210,0.985,0.04,-0.038,0,-0.1,0,-37.3,7.3,27,0.155766472,0.706991791,-0.13309122,0.676839503
974,2439612,2031220,0.988,0.036,-0.038,0.1,0,0,-37.3,7.3,27,0.155766472,0.706991791,-0.13309122,0.676839503
975,2442341,2031220,0.985,0.04,-0.038,0,0.1,0,-37.3,7.3,27,0.155766472,0.706991791,-0.13309122,0.676839503
976,2444059,2031220,0.988,0.04,-0.03,0,0.3,0,-33.9,5.2,26.8,0.155766472,0.706991791,-0.13309122,0.676839503
977,2446643,2031220,0.988,0.04,-0.03,0.1,0.3,0.1,-33.9,5.2,26.8,0.155766472,0.706991791,-0.13309122,0.676839503
978,2450903,2031230,0.985,0.04,-0.034,0.1,0.2,0.1,-33.9,5.2,26.8,0.155766472,0.706991791,-0.13309122,0.676870022
979,2453196,2031230,0.985,0.032,-0.038,0.1,0,0,-33.9,5.2,26.8,0.155766472,0.706991791,-0.13309122,0.676870022
980,2454091,2031230,0.985,0.032,-0.038,0.1,0,0,-33.9,5.2,26.8,0.155766472,0.706991791,-0.13309122,0.676870022
981,2457563,2031230,0.981,0.036,-0.034,0,-0.1,0,-36.7,6.7,27,0.155766472,0.706961272,-0.13309122,0.676870022
982,2459784,2031240,0.977,0.036,-0.037,0,0,0,-36.7,6.7,27,0.155766472,0.706961272,-0.13309122,0.676870022
983,2462135,2031240,0.985,0.036,-0.034,0,0,-0.1,-36.7,6.7,27,0.155766472,0.706991791,-0.13309122,0.676870022
984,2464371,2031240,0.988,0.04,-0.038,0,-0.1,-0.1,-35.7,6.5,26.7,0.155766472,0.706991791,-0.13309122,0.676870022
985,2466886,2031240,0.985,0.04,-0.038,0,-0.1,0,-35.7,6.5,26.7,0.155766472,0.706991791,-0.13309122,0.676870022
986,2470142,2031250,0.988,0.044,-0.038,0,-0.2,0,-35.7,6.5,26.7,0.155766472,0.706991791,-0.13309122,0.676870022
987,2471737,2031250,0.985,0.036,-0.03,0,-0.2,0,-35.7,6.5,26.7,0.155766472,0.706991791,-0.13309122,0.676870022
988,2474639,2031250,0.988,0.04,-0.038,0,-0.1,0.1,-35.7,6.4,26.6,0.155766472,0.706991791,-0.13309122,0.676839503
989,2477003,2031250,0.985,0.036,-0.034,0,-0.1,0.1,-35.7,6.4,26.6,0.155766472,0.706991791,-0.133121738,0.676839503
990,2479259,2031260,0.985,0.04,-0.042,0,0,0,-35.7,6.4,26.6,0.155766472,0.706991791,-0.133121738,0.676839503
991,2481970,2031260,0.985,0.04,-0.03,0,0,-0.1,-35.7,6.4,26.6,0.155766472,0.706991791,-0.133121738,0.676839503
992,2484145,2031260,0.988,0.04,-0.034,0.1,0,-0.1,-34.7,6.2,27.1,0.155766472,0.706991791,-0.13309122,0.676839503
993,2488496,2031260,0.985,0.04,-0.038,0.1,0.1,-0.1,-34.7,6.2,27.1,0.155766472,0.706991791,-0.13309122,0.676870022
994,2489250,2031270,0.988,0.04,-0.038,0,0.1,0,-34.7,6.2,27.1,0.155766472,0.706991791,-0.13309122,0.676870022
995,2492890,2031270,0.981,0.036,-0.034,0,0.1,0,-34.7,6.2,27.1,0.155766472,0.706991791,-0.13309122,0.676870022
996,2494388,2031270,0.988,0.04,-0.03,0,0,0,-35.1,5.7,26.9,0.155766472,0.706991791,-0.13309122,0.676870022
997,2496986,2031270,0.985,0.036,-0.034,0,0,0,-35.1,5.7,26.9,0.155766472,0.706991791,-0.13309122,0.676870022
998,2499207,2031280,0.988,0.044,-0.042,0,0,-0.1,-35.1,5.7,26.9,0.155766472,0.706991791,-0.13309122,0.676870022
999,2501872,2031280,0.988,0.036,-0.034,0.1,0,0,-35.1,5.7,26.9,0.155766472,0.706991791,-0.13309122,0.676870022
1000,2504480,2031280,0.988,0.036,-0.034,0.1,0,0,-35.1,5.7,26.9,0.155766472,0.706991791,-0.13309122,0.676870022
1001,2507757,2031280,0.985,0.04,-0.038,0,-0.1,0.1,-35,6,27,0.155766472,0.706991791,-0.13309122,0.676839503
1002,2510159,2031290,0.981,0.036,-0.038,0,-0.2,0.1,-35,6,27,0.155766472,0.706991791,-0.13309122,0.676839503
1003,2512503,2031290,0.988,0.036,-0.03,0,-0.2,0,-35,6,27,0.155766472,0.706991791,-0.13309122,0.676839503
1004,2514683,2031290,0.992,0.04,-0.034,0,-0.2,0,-35,6.3,26.7,0.155735954,0.706991791,-0.13309122,0.676839503
1005,2516913,2031290,0.985,0.04,-0.038,-0.1,-0.1,0,-35,6.3,26.7,0.155766472,0.707022309,-0.13309122,0.676839503
1006,2520201,2031300,0.985,0.044,-0.034,0,0,0,-35,6.3,26.7,0.155766472,0.706991791,-0.13309122,0.676839503
1007,2522621,2031300,0.985,0.04,-0.03,0,0,0,-35,6.3,26.7,0.155766472,0.706991791,-0.13309122,0.676839503
1008,2524797,2031300,0.985,0.036,-0.034,0,0.1,0,-35.1,6.2,26.8,0.155766472,0.706991791,-0.13309122,0.676839503
1009,2526967,2031300,0.985,0.04,-0.038,0,0.2,0,-35.1,6.2,26.8,0.155766472,0.706991791,-0.13309122,0.676839503
1010,2529229,2031310,0.985,0.036,-0.034,0,0.1,0,-35.1,6.2,26.8,0.155766472,0.706991791,-0.13309122,0.676839503
1011,2531715,2031310,0.981,0.04,-0.034,0.1,0,0,-35.1,6.2,26.8,0.155766472,0.706991791,-0.13309122,0.676839503
1012,2534220,2031310,0.988,0.04,-0.034,0.1,-0.1,0,-35,6.2,27,0.155766472,0.706991791,-0.13309122,0.676839503
1013,2537038,2031310,0.988,0.036,-0.038,0.1,-0.2,0,-35,6.2,27,0.155735954,0.706991791,-0.13309122,0.676839503
1014,2539354,2031320,0.985,0.04,-0.03,0,-0.1,0,-35,6.2,27,0.155735954,0.706991791,-0.13309122,0.676839503
1015,2543439,2031320,0.985,0.04,-0.038,0,0,0,-35,6.2,27,0.155735954,0.707022309,-0.13309122,0.676839503
1016,2544231,2031320,0.988,0.044,-0.038,0,0,0,-36.2,6.1,27,0.155735954,0.706991791,-0.13309122,0.676839503
1017,2546852,2031320,0.988,0.04,-0.042,0,0,0,-36.2,6.1,27,0.155735954,0.706991791,-0.133121738,0.676839503
1018,2549232,2031330,0.985,0.04,-0.042,0,0,0,-36.2,6.1,27,0.155735954,0.706991791,-0.133121738,0.676839503
1019,2552507,2031330,0.981,0.036,-0.038,0,0,0,-36.2,6.1,27,0.155735954,0.706991791,-0.133121738,0.676839503
1020,2554655,2031330,0.981,0.036,-0.038,0,0,0,-36.2,6.1,27,0.155735954,0.706991791,-0.133121738,0.676839503
1021,2556886,2031330,0.985,0.044,-0.038,0,0,0,-34.1,6.2,26.7,0.155735954,0.707083346,-0.133121738,0.676747948
1022,2559215,2031340,0.985,0.04,-0.034,0,0,0,-34.1,6.2,26.7,0.155735954,0.707083346,-0.133121738,0.676747948
1023,2561636,2031340,0.985,0.036,-0.038,0,0,0,-34.1,6.2,26.7,0.155735954,0.707083346,-0.133121738,0.676747948
1024,2564857,2031340,0.985,0.044,-0.034,-0.1,0,0,-34.2,6.1,26.7,0.155735954,0.707083346,-0.133121738,0.676747948
1025,2567117,2031340,0.988,0.044,-0.034,-0.1,0,0,-34.2,6.1,26.7,0.155735954,0.707083346,-0.133121738,0.676747948
1026,2569396,2031350,0.985,0.044,-0.038,0,-0.1,0,-34.2,6.1,26.7,0.155735954,0.707083346,-0.133121738,0.676747948
1027,2571734,2031350,0.988,0.036,-0.038,0,-0.2,0,-34.2,6.1,26.7,0.155735954,0.707083346,-0.133121738,0.676747948
1028,2574660,2031350,0.985,0.04,-0.034,0,-0.2,-0.1,-34.2,6.2,27.1,0.155735954,0.707083346,-0.133121738,0.676747948
1029,2577070,2031350,0.985,0.04,-0.034,0,-0.1,-0.1,-34.2,6.2,27.1,0.155735954,0.707083346,-0.133121738,0.676747948
1030,2579303,2031360,0.988,0.04,-0.03,0,-0.1,-0.1,-34.2,6.2,27.1,0.155735954,0.707083346,-0.133121738,0.676747948
1031,2581885,2031360,0.988,0.044,-0.038,0,0,0,-34.2,6.2,27.1,0.155735954,0.707083346,-0.133121738,0.676747948
1032,2584890,2031360,0.985,0.04,-0.038,0,0.1,0,-34.7,6,27.1,0.155735954,0.707083346,-0.133121738,0.676747948
1033,2587192,2031360,0.988,0.04,-0.038,0,0,0,-34.7,6,27.1,0.155735954,0.707083346,-0.133121738,0.676747948
1034,2589417,2031370,0.988,0.04,-0.034,0,0,0,-34.7,6,27.1,0.155735954,0.707083346,-0.133121738,0.676747948
1035,2592223,2031370,0.985,0.04,-0.034,0,-0.1,0,-34.7,6,27.1,0.155735954,0.707083346,-0.133121738,0.676747948
1036,2593972,2031370,0.985,0.032,-0.034,0,-0.1,0,-36.1,5.8,26.8,0.155735954,0.707083346,-0.133121738,0.676747948
1037,2598433,2031370,0.988,0.036,-0.038,0,-0.1,0,-36.1,5.8,26.8,0.155735954,0.707083346,-0.133121738,0.676747948
1038,2599351,2031380,0.985,0.036,-0.034,0,0,0,-36.1,5.8,26.8,0.155735954,0.707083346,-0.133121738,0.676747948
1039,2601917,2031380,0.988,0.04,-0.034,0,0,-0.1,-36.1,5.8,26.8,0.155735954,0.707083346,-0.133121738,0.676747948
1040,2604280,2031380,0.988,0.04,-0.034,0,0,-0.1,-36.1,5.8,26.8,0.155735954,0.707083346,-0.133121738,0.676747948
1041,2606925,2031380,0.988,0.04,-0.034,0,-0.1,0,-34.1,6,26.7,0.155705435,0.707083346,-0.133152257,0.676747948
1042,2609425,2031390,0.985,0.036,-0.034,0,0,0,-34.1,6,26.7,0.155705435,0.707083346,-0.133152257,0.676747948
1043,2612658,2031390,0.985,0.04,-0.038,0,0,0.1,-34.1,6,26.7,0.155705435,0.707083346,-0.133152257,0.676747948
1044,2615701,2031390,0.985,0.036,-0.034,0,0,0.1,-33.9,6.2,26.6,0.155705435,0.707083346,-0.133152257,0.676747948
1045,2617905,2031390,0.981,0.04,-0.034,0,-0.1,0,-33.9,6.2,26.6,0.155705435,0.707083346,-0.133152257,0.676747948
1046,2620123,2031400,0.985,0.04,-0.042,0,-0.1,0,-33.9,6.2,26.6,0.155705435,0.707113865,-0.133152257,0.676747948
1047,2622417,2031400,0.985,0.04,-0.034,0,0,0,-33.9,6.2,26.6,0.155705435,0.707113865,-0.133152257,0.676747948
1048,2624469,2031400,0.985,0.04,-0.034,0,0.1,0,-34.3,6.2,26.5,0.155705435,0.707113865,-0.133152257,0.676747948
1049,2626742,2031400,0.988,0.044,-0.034,0,0.1,0,-34.3,6.2,26.5,0.155705435,0.707083346,-0.133152257,0.676747948
1050,2629554,2031410,0.988,0.04,-0.026,0,0.1,0,-34.3,6.2,26.5,0.155705435,0.707083346,-0.133152257,0.676747948
1051,2631748,2031410,0.985,0.036,-0.034,0,0,0.1,-34.3,6.2,26.5,0.155705435,0.707083346,-0.133152257,0.676747948
1052,2634221,2031410,0.988,0.04,-0.03,0,0,0.1,-34.5,6.2,26.9,0.155705435,0.707083346,-0.133152257,0.676747948
1053,2637330,2031410,0.992,0.04,-0.03,0,0,0,-34.5,6.2,26.9,0.155705435,0.707083346,-0.133152257,0.676747948
1054,2639576,2031420,0.988,0.04,-0.038,0,0,0,-34.5,6.2,26.9,0.155705435,0.707083346,-0.133152257,0.676747948
1055,2642224,2031420,0.988,0.036,-0.034,0,0,0,-34.5,6.2,26.9,0.155705435,0.707083346,-0.133152257,0.676747948
1056,2644047,2031420,0.985,0.04,-0.034,0,0,0,-35.2,5.9,27,0.155705435,0.707083346,-0.133152257,0.676747948
1057,2646699,2031420,0.985,0.04,-0.03,0,0,-0.1,-35.2,5.9,27,0.155705435,0.707083346,-0.133152257,0.676747948
1058,2650126,2031430,0.985,0.04,-0.034,0,0,0,-35.2,5.9,27,0.155705435,0.707083346,-0.133152257,0.676747948
1059,2653095,2031430,0.985,0.04,-0.038,-0.1,-0.1,0,-35.2,5.9,27,0.155705435,0.707083346,-0.133152257,0.676747948
1060,2654795,2031430,0.985,0.04,-0.038,-0.1,-0.1,0,-35.2,5.9,27,0.155705435,0.707083346,-0.133152257,0.676747948
1061,2657575,2031430,0.988,0.036,-0.042,0,0,0,-34.6,5.8,27,0.155705435,0.707083346,-0.133152257,0.676747948
1062,2659627,2031440,0.985,0.036,-0.038,0,0,0,-34.6,5.8,27,0.155705435,0.707083346,-0.133152257,0.676747948
1063,2661899,2031440,0.988,0.04,-0.026,0,0,0,-34.6,5.8,27,0.155705435,0.707083346,-0.133152257,0.676747948
1064,2664158,2031440,0.985,0.036,-0.038,0,0,0,-35,5.7,27.2,0.155705435,0.707083346,-0.133152257,0.676747948
1065,2666702,2031440,0.985,0.044,-0.034,0,0,0,-35,5.7,27.2,0.155735954,0.707083346,-0.133152257,0.676747948
1066,2670536,2031450,0.988,0.036,-0.034,0,0.1,0,-35,5.7,27.2,0.155735954,0.707083346,-0.133152257,0.676747948
1067,2671687,2031450,0.988,0.04,-0.034,0,0.1,0,-35,5.7,27.2,0.155735954,0.707083346,-0.133152257,0.676747948
1068,2675019,2031450,0.985,0.04,-0.042,0,0.1,0,-35.1,6.3,27.7,0.155705435,0.707083346,-0.133152257,0.676747948
1069,2677215,2031450,0.988,0.04,-0.034,0,0,0,-35.1,6.3,27.7,0.155705435,0.707083346,-0.133152257,0.676747948
1070,2679390,2031460,0.988,0.04,-0.034,0,0,0,-35.1,6.3,27.7,0.155705435,0.707083346,-0.133152257,0.676747948
1071,2681697,2031460,0.985,0.032,-0.038,0,0,0,-35.1,6.3,27.7,0.155705435,0.707083346,-0.133152257,0.676747948
1072,2684297,2031460,0.985,0.036,-0.034,0,0,0.1,-34.9,6.1,28,0.155705435,0.707083346,-0.133152257,0.676747948
1073,2687348,2031460,0.985,0.04,-0.034,0,0,0.2,-34.9,6.1,28,0.155705435,0.707083346,-0.133152257,0.676747948
1074,2689496,2031470,0.988,0.044,-0.03,0,0,0.2,-34.9,6.1,28,0.155705435,0.707083346,-0.133152257,0.676747948
1075,2692272,2031470,0.985,0.044,-0.03,0,0,0.1,-34.9,6.1,28,0.155705435,0.707083346,-0.133182775,0.676747948
1076,2694498,2031470,0.985,0.04,-0.038,0.1,0,0,-35,6.1,25.7,0.155705435,0.707083346,-0.133152257,0.676747948
1077,2696764,2031470,0.988,0.044,-0.03,0.1,0,0,-35,6.1,25.7,0.155705435,0.707083346,-0.133152257,0.676747948
1078,2700480,2031480,0.985,0.04,-0.038,0.1,0,0,-35,6.1,25.7,0.155705435,0.707083346,-0.133152257,0.676747948
1079,2701709,2031480,0.985,0.04,-0.038,0.1,0,0.1,-35,6.1,25.7,0.155705435,0.707083346,-0.133152257,0.676747948
1080,2705945,2031480,0.985,0.04,-0.038,0.1,0,0.1,-35,6.1,25.7,0.155705435,0.707083346,-0.133152257,0.676747948
1081,2706680,2031480,0.988,0.04,-0.034,0,-0.1,0,-34.9,5.9,28,0.155705435,0.707113865,-0.133152257,0.676747948
1082,2709324,2031490,0.985,0.04,-0.034,0,-0.1,0,-34.9,5.9,28,0.155705435,0.707113865,-0.133152257,0.676747948
1083,2711692,2031490,0.985,0.036,-0.038,-0.1,-0.1,0,-34.9,5.9,28,0.155705435,0.707113865,-0.133152257,0.676747948
1084,2714853,2031490,0.988,0.036,-0.038,-0.1,0,0,-35,6.2,28.1,0.155705435,0.707113865,-0.133152257,0.676747948
1085,2717145,2031490,0.981,0.036,-0.042,0,0,0,-35,6.2,28.1,0.155735954,0.707113865,-0.133152257,0.676747948
1086,2719303,2031500,0.988,0.04,-0.042,0,0,0,-35,6.2,28.1,0.155705435,0.707113865,-0.133152257,0.676747948
1087,2721636,2031500,0.988,0.04,-0.034,0.1,0,0,-35,6.2,28.1,0.155705435,0.707113865,-0.133152257,0.676747948
1088,2724277,2031500,0.985,0.036,-0.034,0.1,0,0,-35.1,5.7,28,0.155705435,0.707113865,-0.133152257,0.676747948
1089,2727424,2031500,0.988,0.036,-0.034,0,0.1,0,-35.1,5.7,28,0.155705435,0.707113865,-0.133152257,0.676747948
1090,2729552,2031510,0.985,0.044,-0.03,0,0.1,0,-35.1,5.7,28,0.155705435,0.707113865,-0.133152257,0.676747948
1091,2731808,2031510,0.985,0.044,-0.03,0,0.1,0,-35.1,5.7,28,0.155705435,0.707113865,-0.133152257,0.676747948
