sample_index,elapsed_us,device_time_ms,acc_x_g,acc_y_g,acc_z_g,gyro_x_dps,gyro_y_dps,gyro_z_dps,mag_x_ut,mag_y_ut,mag_z_ut,quat_w,quat_x,quat_y,quat_z
0,5084,22340,0.953,0.334,-0.014,-2,-0.7,-0.7,-7,-36.5,7,0.594195379,-0.157170324,-0.690298166,-0.381603442
1,7019,22340,0.953,0.338,-0.014,-2.1,-0.8,-0.7,-7,-36.4,7,0.594195379,-0.157200842,-0.690298166,-0.38166448
2,9115,22340,0.949,0.334,-0.014,-2.2,-0.9,-0.5,-7,-36.4,7,0.594164861,-0.157231361,-0.690298166,-0.381694998
3,11300,22350,0.953,0.334,-0.011,-2.2,-1.1,-0.3,-7,-36.4,7,0.594134342,-0.157261879,-0.690298166,-0.381725517
4,13559,22350,0.945,0.338,-0.01,-2.1,-1.1,-0.1,-7,-36.4,7,0.594103824,-0.157292398,-0.690298166,-0.381756035
5,16037,22350,0.949,0.334,-0.007,-1.8,-1,0,-7,-36.1,6.6,0.594012268,-0.157414472,-0.690389721,-0.38166448
6,20511,22350,0.945,0.338,-0.01,-1.8,-1,0,-7,-36.1,6.6,0.59398175,-0.15744499,-0.690389721,-0.381694998
7,22770,22360,0.945,0.338,-0.01,-1.7,-0.9,0.1,-7,-36.1,6.6,0.59398175,-0.15744499,-0.690389721,-0.381694998
8,25048,22360,0.941,0.342,-0.01,-1.6,-0.8,0.1,-7,-36.1,6.6,0.593951231,-0.157506027,-0.690389721,-0.381725517
9,27325,22360,0.937,0.342,-0.006,-1.5,-0.7,0.1,-7.1,-36.4,6.8,0.593951231,-0.157536546,-0.690389721,-0.381725517
10,29569,22360,0.941,0.345,-0.01,-1.3,-0.7,0.3,-7.1,-36.4,6.8,0.593920713,-0.157567064,-0.690389721,-0.381756035
11,31537,22370,0.941,0.345,-0.006,-1,-0.6,0.4,-7.1,-36.4,6.8,0.593920713,-0.157597583,-0.690389721,-0.381756035
12,35513,22370,0.941,0.353,-0.01,-0.8,-0.7,0.4,-7.1,-36.4,6.8,0.593920713,-0.157628101,-0.690389721,-0.381756035
13,37898,22370,0.937,0.353,-0.01,-0.5,-0.6,0.4,-7.1,-36.3,6.8,0.593890194,-0.15765862,-0.690389721,-0.381756035
14,40061,22370,0.937,0.353,-0.01,-0.3,-0.6,0.4,-7.1,-36.3,6.8,0.593890194,-0.15765862,-0.690389721,-0.381756035
15,42032,22380,0.937,0.349,-0.01,-0.1,-0.7,0.4,-7.1,-36.3,6.8,0.593890194,-0.157689138,-0.690389721,-0.381756035
16,44669,22380,0.933,0.349,-0.006,0,-0.8,0.5,-7.1,-36.3,6.8,0.593890194,-0.157689138,-0.69042024,-0.381756035
17,46533,22380,0.933,0.353,-0.002,0.2,-0.8,0.7,-6.2,-36,6.9,0.593859676,-0.157719657,-0.69042024,-0.381725517
18,48819,22380,0.937,0.349,-0.006,0.4,-0.8,0.9,-6.2,-36,6.9,0.593859676,-0.157719657,-0.69042024,-0.381694998
19,51125,22390,0.937,0.357,-0.014,0.6,-0.7,1.1,-6.2,-36,6.9,0.593859676,-0.157750175,-0.690450758,-0.381694998
20,53707,22390,0.937,0.353,-0.006,0.8,-0.7,1.2,-6.2,-36,6.9,0.593859676,-0.157750175,-0.690450758,-0.38166448
21,55949,22390,0.941,0.349,-0.01,0.8,-0.7,1,-6.6,-36.5,7.1,0.593859676,-0.157750175,-0.690450758,-0.381633961
22,60492,22390,0.941,0.353,-0.01,1,-0.8,0.8,-6.6,-36.5,7.1,0.593859676,-0.157780694,-0.690481277,-0.381603442
23,62932,22400,0.945,0.349,-0.01,1.1,-0.9,0.8,-6.6,-36.5,7.1,0.593859676,-0.157780694,-0.690511795,-0.381572924
24,65661,22400,0.941,0.346,-0.014,1.1,-0.9,0.9,-6.6,-36.5,7.1,0.593859676,-0.157780694,-0.690511795,-0.381542405
25,68023,22400,0.949,0.349,-0.01,1,-0.8,1.1,-6.6,-36,7.2,0.593707083,-0.157719657,-0.690664388,-0.381511887
26,70158,22400,0.949,0.349,-0.01,1,-0.8,1.1,-6.6,-36,7.2,0.593707083,-0.157719657,-0.690664388,-0.381481368
27,72251,22410,0.953,0.349,-0.01,0.9,-0.8,0.9,-6.6,-36,7.2,0.593707083,-0.157750175,-0.690694906,-0.38145085
28,74244,22410,0.949,0.345,-0.006,0.8,-0.8,0.8,-6.6,-36,7.2,0.593707083,-0.157750175,-0.690694906,-0.381420331
29,77623,22410,0.953,0.345,-0.01,0.7,-0.9,0.6,-6.7,-36.5,6.7,0.593707083,-0.157750175,-0.690725425,-0.381420331
30,80841,22410,0.957,0.341,-0.007,0.6,-1,0.5,-6.7,-36.5,6.7,0.593707083,-0.157780694,-0.690725425,-0.381389813
31,81251,22420,0.96,0.345,-0.011,0.3,-1.1,0.5,-6.7,-36.5,6.7,0.593676565,-0.157780694,-0.690755943,-0.381328776
32,83967,22420,0.957,0.341,-0.014,0,-1.2,0.4,-6.7,-36.5,6.7,0.593676565,-0.157811213,-0.690755943,-0.381328776
33,87080,22420,0.957,0.337,-0.011,-0.3,-1.3,0.5,-7.2,-36.3,6.9,0.593646046,-0.157811213,-0.690786462,-0.381328776
34,89027,22420,0.957,0.341,-0.014,-0.7,-1.3,0.5,-7.2,-36.3,6.9,0.593646046,-0.157841731,-0.690786462,-0.381328776
35,91214,22430,0.957,0.338,-0.014,-1.2,-1.3,0.5,-7.2,-36.3,6.9,0.593615528,-0.157902768,-0.690786462,-0.381328776
36,93715,22430,0.957,0.334,-0.014,-1.6,-1.4,0.5,-7.2,-36.3,6.9,0.593585009,-0.157933287,-0.690786462,-0.381328776
37,96487,22430,0.961,0.338,-0.018,-2.2,-1.3,0.5,-6.7,-36.1,6.7,0.593585009,-0.157994324,-0.690786462,-0.381389813
38,98647,22430,0.961,0.33,-0.019,-2.7,-1.4,0.6,-6.7,-36.1,6.7,0.593554491,-0.158024842,-0.690786462,-0.381420331
39,101256,22440,0.957,0.33,-0.018,-3.1,-1.5,0.5,-6.7,-36.1,6.7,0.593523972,-0.158085879,-0.690786462,-0.38145085
40,103976,22440,0.957,0.33,-0.015,-3.5,-1.6,0.5,-6.7,-36.1,6.7,0.593493454,-0.158177435,-0.690786462,-0.381511887
41,107320,22440,0.957,0.33,-0.018,-3.8,-1.6,0.4,-6.7,-36.2,6.6,0.593432417,-0.158238472,-0.690755943,-0.381542405
42,109159,22440,0.953,0.33,-0.014,-4.1,-1.6,0.5,-6.7,-36.2,6.6,0.593401898,-0.158299509,-0.690755943,-0.381603442
43,111461,22450,0.957,0.334,-0.014,-4.4,-1.5,0.5,-6.7,-36.2,6.6,0.59337138,-0.158391064,-0.690725425,-0.381633961
44,115446,22450,0.953,0.338,-0.014,-4.6,-1.6,0.5,-6.7,-36.2,6.6,0.593340861,-0.15848262,-0.690694906,-0.381694998
45,117675,22450,0.945,0.33,-0.01,-4.8,-1.5,0.8,-6.5,-36.3,6.6,0.593249306,-0.158665731,-0.690786462,-0.381633961
46,119788,22450,0.945,0.33,-0.01,-4.8,-1.5,0.8,-6.5,-36.3,6.6,0.593218787,-0.158757286,-0.690755943,-0.38166448
47,121469,22460,0.949,0.334,-0.014,-4.9,-1.4,0.9,-6.5,-36.3,6.6,0.593188269,-0.158848842,-0.690725425,-0.381725517
48,123908,22460,0.949,0.338,-0.014,-5,-1.3,1,-6.5,-36.3,6.6,0.59315775,-0.158940397,-0.690694906,-0.381786554
49,126317,22460,0.945,0.342,-0.014,-5,-1.4,1.1,-6.5,-36.4,6.8,0.593127232,-0.159031953,-0.690664388,-0.381847591
50,129798,22460,0.941,0.334,-0.01,-4.9,-1.5,1.1,-6.5,-36.4,6.8,0.593096713,-0.159123508,-0.690664388,-0.381908628
51,132675,22470,0.945,0.346,-0.014,-4.7,-1.5,1.1,-6.5,-36.4,6.8,0.593066195,-0.159215064,-0.690633869,-0.381939146
52,134828,22470,0.941,0.338,-0.01,-4.5,-1.5,1.1,-6.5,-36.4,6.8,0.593035676,-0.159306619,-0.690603351,-0.382000183
53,136450,22470,0.945,0.342,-0.01,-4.3,-1.5,1.1,-7.6,-36.4,6.7,0.593005158,-0.159398175,-0.690572832,-0.38206122
54,138828,22470,0.941,0.342,-0.01,-4,-1.3,1.3,-7.6,-36.4,6.7,0.593005158,-0.159489731,-0.690572832,-0.382091739
55,141166,22480,0.941,0.342,-0.014,-3.7,-1.2,1.5,-7.6,-36.4,6.7,0.592974639,-0.159581286,-0.690542314,-0.382122257
56,143739,22480,0.941,0.349,-0.01,-3.5,-1.3,1.6,-7.6,-36.4,6.7,0.592944121,-0.159642323,-0.690542314,-0.382152776
57,146287,22480,0.941,0.345,-0.01,-3.2,-1.3,1.7,-6.3,-36.2,6.8,0.592944121,-0.159733879,-0.690511795,-0.382152776
58,148577,22480,0.941,0.346,-0.018,-2.9,-1.2,1.8,-6.3,-36.2,6.8,0.592913602,-0.159794916,-0.690481277,-0.382183294
59,151143,22490,0.945,0.342,-0.018,-2.6,-1,1.8,-6.3,-36.2,6.8,0.592913602,-0.159886471,-0.690481277,-0.382183294
60,153530,22490,0.945,0.342,-0.014,-2.2,-0.9,1.7,-6.3,-36.2,6.8,0.592913602,-0.159947508,-0.690481277,-0.382213813
61,157923,22490,0.949,0.342,-0.018,-1.8,-0.8,1.7,-6.6,-36,7,0.592913602,-0.160008545,-0.690450758,-0.382213813
62,160245,22490,0.949,0.338,-0.014,-1.5,-0.9,1.6,-6.6,-36,7,0.592883084,-0.160039064,-0.690450758,-0.382213813
63,162464,22500,0.949,0.342,-0.018,-1.3,-0.9,1.6,-6.6,-36,7,0.592883084,-0.160100101,-0.690450758,-0.382213813
64,164636,22500,0.953,0.341,-0.014,-1,-0.9,1.6,-6.6,-36,7,0.592883084,-0.160161138,-0.690450758,-0.382183294
65,166508,22500,0.953,0.338,-0.014,-0.4,-0.6,1.4,-6.5,-36.1,6.9,0.59276101,-0.160222175,-0.690572832,-0.382091739
66,168622,22500,0.953,0.338,-0.018,-0.4,-0.6,1.4,-6.5,-36.1,6.9,0.59276101,-0.160252693,-0.690572832,-0.382091739
67,172184,22510,0.957,0.338,-0.018,-0.3,-0.5,1.3,-6.5,-36.1,6.9,0.592791528,-0.160283212,-0.690572832,-0.382091739
68,174599,22510,0.957,0.334,-0.018,-0.2,-0.5,1.1,-6.5,-36.1,6.9,0.592791528,-0.16031373,-0.690572832,-0.38206122
69,178243,22510,0.953,0.33,-0.014,-0.3,-0.5,1,-6.2,-36.3,6.8,0.592791528,-0.16031373,-0.690572832,-0.38206122
70,178721,22510,0.957,0.334,-0.018,-0.4,-0.5,1,-6.2,-36.3,6.8,0.59276101,-0.160344249,-0.690572832,-0.38206122
71,181566,22520,0.957,0.33,-0.022,-0.6,-0.6,1.1,-6.2,-36.3,6.8,0.59276101,-0.160374767,-0.690572832,-0.382030702
72,183783,22520,0.957,0.33,-0.018,-0.9,-0.7,1.2,-6.2,-36.3,6.8,0.59276101,-0.160374767,-0.690572832,-0.382030702
73,186202,22520,0.957,0.33,-0.015,-1,-0.7,1.2,-7.9,-36.2,6.9,0.59276101,-0.160466323,-0.690572832,-0.382030702
74,188660,22520,0.961,0.33,-0.019,-1.3,-0.8,1.1,-7.9,-36.2,6.9,0.59276101,-0.160496841,-0.690572832,-0.382030702
75,191023,22530,0.961,0.326,-0.019,-1.6,-0.9,1.1,-7.9,-36.2,6.9,0.592730491,-0.160557878,-0.690542314,-0.382030702
76,193634,22530,0.957,0.326,-0.019,-1.9,-1,1.1,-7.9,-36.2,6.9,0.592730491,-0.160588397,-0.690542314,-0.38206122
77,197594,22530,0.961,0.322,-0.015,-2.3,-1.2,1.3,-6.2,-36.4,6.4,0.592730491,-0.160649434,-0.690542314,-0.38206122
78,199879,22530,0.961,0.322,-0.015,-2.3,-1.2,1.3,-6.2,-36.4,6.4,0.592730491,-0.160649434,-0.690542314,-0.38206122
79,201567,22540,0.953,0.326,-0.018,-2.9,-1.3,1.3,-6.2,-36.4,6.4,0.592669454,-0.160802026,-0.690511795,-0.382091739
80,203790,22540,0.953,0.326,-0.026,-3.2,-1.3,1.2,-6.2,-36.4,6.4,0.592669454,-0.160863063,-0.690511795,-0.382122257
81,206227,22540,0.957,0.322,-0.015,-3.6,-1.3,1.1,-5.9,-36.5,6.6,0.592638936,-0.160954619,-0.690481277,-0.382183294
82,209176,22540,0.953,0.318,-0.015,-3.9,-1.3,1,-5.9,-36.5,6.6,0.592608417,-0.161015656,-0.690481277,-0.382213813
83,211317,22550,0.945,0.322,-0.022,-4.1,-1.2,1,-5.9,-36.5,6.6,0.592577898,-0.161107212,-0.690450758,-0.382244331
84,213682,22550,0.949,0.326,-0.018,-4.3,-1.2,1.1,-5.9,-36.5,6.6,0.59254738,-0.161198767,-0.69042024,-0.382305368
85,216265,22550,0.949,0.322,-0.022,-4.4,-1.3,1.2,-6,-36.8,6,0.592486343,-0.161473434,-0.690511795,-0.382122257
86,218471,22550,0.945,0.326,-0.022,-4.4,-1.3,1.2,-6,-36.8,6,0.592486343,-0.161534471,-0.690481277,-0.382183294
87,223040,22560,0.949,0.322,-0.018,-4.4,-1.3,1.2,-6,-36.8,6,0.592455824,-0.161626026,-0.690450758,-0.382213813
88,225150,22560,0.941,0.326,-0.022,-4.3,-1.3,1.1,-6,-36.8,6,0.592425306,-0.161717582,-0.69042024,-0.38227485
89,227447,22560,0.941,0.33,-0.022,-4.3,-1.2,1.1,-6,-36.3,6.6,0.592394787,-0.161809137,-0.69042024,-0.382305368
90,229112,22560,0.941,0.326,-0.018,-4.1,-1.2,1.1,-6,-36.3,6.6,0.592364269,-0.161900693,-0.690389721,-0.382366405
91,232130,22570,0.937,0.33,-0.018,-4,-1.1,1.2,-6,-36.3,6.6,0.592364269,-0.16196173,-0.690359203,-0.382396924
92,233901,22570,0.941,0.334,-0.018,-3.8,-1.2,1.2,-6,-36.3,6.6,0.59233375,-0.162053285,-0.690328684,-0.382427442
93,236032,22570,0.937,0.338,-0.018,-3.7,-1.2,1.3,-7.9,-36.5,6.4,0.592303232,-0.162114322,-0.690328684,-0.382488479
94,238883,22570,0.937,0.334,-0.018,-3.5,-1.2,1.5,-7.9,-36.5,6.4,0.592303232,-0.162205878,-0.690298166,-0.382518998
95,241438,22580,0.937,0.338,-0.018,-3.3,-1.1,1.7,-7.9,-36.5,6.4,0.592272713,-0.162297433,-0.690267647,-0.382518998
96,244084,22580,0.937,0.334,-0.018,-3,-1,1.8,-7.9,-36.5,6.4,0.592272713,-0.162327952,-0.690267647,-0.382549516
97,246945,22580,0.937,0.338,-0.018,-2.6,-1,1.7,-5.8,-36,6.2,0.592242195,-0.162419507,-0.690237129,-0.382549516
98,248959,22580,0.937,0.338,-0.018,-2.3,-1,1.6,-5.8,-36,6.2,0.592242195,-0.162480544,-0.690237129,-0.382580035
99,251286,22590,0.937,0.338,-0.022,-1.9,-1,1.5,-5.8,-36,6.2,0.592242195,-0.162541581,-0.690237129,-0.382580035
100,255351,22590,0.937,0.338,-0.022,-1.7,-1.1,1.5,-5.8,-36,6.2,0.592211676,-0.162602618,-0.690237129,-0.382580035
101,257662,22590,0.941,0.334,-0.022,-1.5,-1.1,1.6,-6.2,-35.9,6.2,0.592211676,-0.162663656,-0.69020661,-0.382580035
102,259743,22590,0.941,0.334,-0.022,-1.3,-1.1,1.6,-6.2,-35.9,6.2,0.592211676,-0.162724693,-0.69020661,-0.382580035
103,261596,22600,0.937,0.334,-0.022,-1.2,-1,1.5,-6.2,-35.9,6.2,0.592211676,-0.162755211,-0.69020661,-0.382580035
104,263670,22600,0.945,0.33,-0.022,-1,-1,1.5,-6.2,-35.9,6.2,0.592181158,-0.162816248,-0.69020661,-0.382549516
105,266348,22600,0.945,0.334,-0.026,-0.5,-1.1,1.2,-5.9,-36.4,6,0.592028565,-0.162907804,-0.690389721,-0.382427442
106,270725,22600,0.945,0.334,-0.026,-0.5,-1.1,1.2,-5.9,-36.4,6,0.592028565,-0.162938322,-0.690389721,-0.382427442
107,271174,22610,0.945,0.334,-0.026,-0.5,-1.1,1,-5.9,-36.4,6,0.591998047,-0.162968841,-0.69042024,-0.382427442
108,273706,22610,0.945,0.334,-0.026,-0.5,-1.1,1,-5.9,-36.4,6,0.591998047,-0.162968841,-0.69042024,-0.382427442
109,276019,22610,0.953,0.326,-0.018,-0.3,-0.8,0.6,-6.2,-35.9,6.5,0.591998047,-0.163029878,-0.69042024,-0.382396924
110,278776,22610,0.953,0.322,-0.03,-0.2,-0.7,0.5,-6.2,-35.9,6.5,0.591998047,-0.163029878,-0.69042024,-0.382396924
111,282589,22620,0.957,0.322,-0.026,-0.2,-0.7,0.4,-6.2,-35.9,6.5,0.591967528,-0.163060396,-0.69042024,-0.382396924
112,284856,22620,0.957,0.326,-0.03,-0.4,-0.7,0.4,-6.2,-35.9,6.5,0.591967528,-0.163060396,-0.690450758,-0.382396924
113,287401,22620,0.957,0.318,-0.026,-0.5,-0.8,0.3,-7.9,-36.5,6.3,0.591967528,-0.163090915,-0.690450758,-0.382396924
114,290365,22620,0.961,0.322,-0.03,-0.7,-0.8,0.3,-7.9,-36.5,6.3,0.59193701,-0.163121433,-0.690450758,-0.382396924
115,293164,22630,0.961,0.322,-0.03,-0.9,-0.8,0.5,-7.9,-36.5,6.3,0.59193701,-0.163151952,-0.690450758,-0.382396924
116,293539,22630,0.961,0.318,-0.023,-1,-0.8,0.4,-7.9,-36.5,6.3,0.591906491,-0.16318247,-0.690450758,-0.382396924
117,297625,22630,0.961,0.322,-0.026,-1.3,-0.7,0.4,-5.9,-36.1,6.4,0.591906491,-0.16318247,-0.690450758,-0.382427442
118,299773,22630,0.961,0.326,-0.026,-1.6,-0.7,0.2,-5.9,-36.1,6.4,0.591906491,-0.163243507,-0.690450758,-0.382427442
119,302700,22640,0.964,0.314,-0.023,-1.9,-0.8,0.3,-5.9,-36.1,6.4,0.591875973,-0.163274026,-0.69042024,-0.382457961
120,304852,22640,0.961,0.314,-0.027,-2.2,-0.9,0.4,-5.9,-36.1,6.4,0.591845454,-0.163304544,-0.69042024,-0.382488479
121,306512,22640,0.961,0.318,-0.023,-2.4,-0.9,0.3,-5.4,-36.3,6.7,0.591845454,-0.163365581,-0.69042024,-0.382518998
122,308942,22640,0.961,0.318,-0.026,-2.6,-0.8,0.2,-5.4,-36.3,6.7,0.591814936,-0.1633961,-0.690389721,-0.382549516
123,311194,22650,0.961,0.318,-0.034,-2.7,-0.7,0,-5.4,-36.3,6.7,0.591784417,-0.163457137,-0.690389721,-0.382580035
124,315237,22650,0.961,0.318,-0.03,-2.8,-0.7,0,-5.4,-36.3,6.7,0.591784417,-0.163487655,-0.690389721,-0.382610553
125,318319,22650,0.961,0.318,-0.026,-3,-0.8,0.3,-5.9,-36.3,6.7,0.591692862,-0.163731803,-0.690511795,-0.382427442
126,318864,22650,0.961,0.322,-0.026,-3,-0.8,0.3,-5.9,-36.3,6.7,0.591662343,-0.16379284,-0.690481277,-0.382457961
127,321602,22660,0.957,0.314,-0.026,-3,-0.8,0.3,-5.9,-36.3,6.7,0.591631825,-0.163823359,-0.690481277,-0.382518998
128,323919,22660,0.957,0.322,-0.03,-2.9,-0.8,0.3,-5.9,-36.3,6.7,0.591631825,-0.163884396,-0.690450758,-0.382549516
129,326286,22660,0.957,0.322,-0.026,-2.8,-0.7,0.2,-5.9,-35.9,6.6,0.591601306,-0.163914914,-0.690450758,-0.382580035
130,328748,22660,0.957,0.322,-0.019,-2.7,-0.6,0.3,-5.9,-35.9,6.6,0.591570788,-0.163975951,-0.69042024,-0.382610553
131,333213,22670,0.953,0.322,-0.022,-2.6,-0.5,0.4,-5.9,-35.9,6.6,0.591570788,-0.16400647,-0.69042024,-0.382641072
132,333637,22670,0.957,0.326,-0.026,-2.5,-0.5,0.5,-5.9,-35.9,6.6,0.591570788,-0.164067507,-0.690389721,-0.38267159
133,337883,22670,0.953,0.33,-0.022,-2.3,-0.5,0.7,-7.9,-36.4,6.5,0.591540269,-0.164098025,-0.690389721,-0.382702109
134,340154,22670,0.953,0.33,-0.022,-1.9,-0.5,0.7,-7.9,-36.4,6.5,0.591540269,-0.164159062,-0.690359203,-0.382732627
135,342016,22680,0.949,0.33,-0.022,-1.6,-0.7,0.8,-7.9,-36.4,6.5,0.591540269,-0.164189581,-0.690359203,-0.382732627
136,344637,22680,0.949,0.334,-0.022,-1.2,-0.7,0.9,-7.9,-36.4,6.5,0.591509751,-0.164220099,-0.690359203,-0.382732627
137,346324,22680,0.949,0.334,-0.022,-0.9,-0.7,1,-6,-36.3,6.4,0.591509751,-0.164250618,-0.690359203,-0.382732627
138,348637,22680,0.949,0.334,-0.022,-0.4,-0.7,1.2,-6,-36.3,6.4,0.591509751,-0.164281137,-0.690359203,-0.382732627
139,352230,22690,0.949,0.338,-0.018,-0.1,-0.6,1.2,-6,-36.3,6.4,0.591509751,-0.164281137,-0.690359203,-0.382702109
140,354068,22690,0.945,0.342,-0.022,0,-0.7,1.2,-6,-36.3,6.4,0.591509751,-0.164342174,-0.690359203,-0.382702109
141,356383,22690,0.949,0.342,-0.014,0.1,-0.6,1.3,-6.2,-36,6.7,0.591509751,-0.164372692,-0.690359203,-0.38267159
142,358671,22690,0.945,0.342,-0.022,0.4,-0.6,1.3,-6.2,-36,6.7,0.591509751,-0.164403211,-0.690359203,-0.382641072
143,362964,22700,0.945,0.342,-0.018,0.8,-0.5,1.4,-6.2,-36,6.7,0.591540269,-0.164403211,-0.690389721,-0.382610553
144,363543,22700,0.945,0.342,-0.014,1.1,-0.4,1.6,-6.2,-36,6.7,0.591540269,-0.164433729,-0.690389721,-0.382580035
145,366335,22700,0.941,0.342,-0.018,1.5,-0.2,1.7,-6,-36.4,6.4,0.591418195,-0.164403211,-0.690542314,-0.382518998
146,368600,22700,0.941,0.342,-0.018,1.5,-0.2,1.7,-6,-36.4,6.4,0.591418195,-0.164403211,-0.690542314,-0.382457961
147,373276,22710,0.945,0.345,-0.01,1.7,-0.4,1.6,-6,-36.4,6.4,0.591448714,-0.164403211,-0.690572832,-0.382427442
148,373716,22710,0.945,0.342,-0.018,1.8,-0.5,1.6,-6,-36.4,6.4,0.591448714,-0.164403211,-0.690572832,-0.382366405
149,376298,22710,0.941,0.345,-0.01,2,-0.5,1.5,-6,-36.4,6.4,0.591448714,-0.164403211,-0.690603351,-0.382305368
150,379793,22710,0.949,0.342,-0.014,2,-0.5,1.3,-6,-36.4,6.4,0.591479232,-0.164403211,-0.690603351,-0.38227485
151,382065,22720,0.949,0.345,-0.014,1.9,-0.4,1.3,-6,-36.4,6.4,0.591479232,-0.164403211,-0.690633869,-0.382213813
152,384118,22720,0.949,0.341,-0.01,1.9,-0.4,1.1,-6,-36.4,6.4,0.591509751,-0.164403211,-0.690633869,-0.382183294
153,386345,22720,0.945,0.338,-0.014,1.9,-0.3,1.1,-7.8,-36.4,6.6,0.591509751,-0.164403211,-0.690664388,-0.382122257
154,388592,22720,0.953,0.342,-0.018,1.9,-0.3,0.9,-7.8,-36.4,6.6,0.591509751,-0.164403211,-0.690694906,-0.382091739
155,391108,22730,0.953,0.338,-0.018,1.8,-0.2,0.9,-7.8,-36.4,6.6,0.591540269,-0.164372692,-0.690694906,-0.382030702
156,395736,22730,0.953,0.334,-0.014,1.5,-0.2,0.8,-7.8,-36.4,6.6,0.591540269,-0.164372692,-0.690725425,-0.382000183
157,396063,22730,0.957,0.334,-0.018,1.3,-0.2,0.8,-6.6,-36.3,6.2,0.591540269,-0.164372692,-0.690725425,-0.381969665
158,400028,22730,0.957,0.334,-0.014,0.9,-0.2,0.7,-6.6,-36.3,6.2,0.591540269,-0.164372692,-0.690725425,-0.381939146
159,402293,22740,0.957,0.33,-0.022,0.7,-0.2,0.6,-6.6,-36.3,6.2,0.591540269,-0.164372692,-0.690725425,-0.381939146
160,403926,22740,0.961,0.33,-0.022,0.4,-0.2,0.4,-6.6,-36.3,6.2,0.591570788,-0.164372692,-0.690755943,-0.381908628
161,406125,22740,0.961,0.33,-0.022,0.1,-0.2,0.3,-6.8,-36.2,6.3,0.591540269,-0.164372692,-0.690755943,-0.381908628
162,408644,22740,0.964,0.33,-0.015,-0.1,-0.2,0.1,-6.8,-36.2,6.3,0.591540269,-0.164403211,-0.690755943,-0.381908628
163,413058,22750,0.96,0.326,-0.011,-0.5,-0.1,0.1,-6.8,-36.2,6.3,0.591540269,-0.164403211,-0.690755943,-0.381908628
164,415342,22750,0.961,0.326,-0.019,-0.9,0,0.1,-6.8,-36.2,6.3,0.591540269,-0.164403211,-0.690725425,-0.381939146
165,417673,22750,0.957,0.322,-0.015,-1.3,-0.3,0.4,-6.4,-36.4,6.3,0.591509751,-0.164555803,-0.690786462,-0.381817072
166,419821,22750,0.957,0.322,-0.015,-1.3,-0.3,0.4,-6.4,-36.4,6.3,0.591509751,-0.164586322,-0.690786462,-0.381817072
167,422047,22760,0.961,0.322,-0.015,-1.6,-0.5,0.4,-6.4,-36.4,6.3,0.591479232,-0.16461684,-0.690786462,-0.381847591
168,424507,22760,0.957,0.326,-0.019,-1.8,-0.5,0.4,-6.4,-36.4,6.3,0.591479232,-0.164647359,-0.690786462,-0.381878109
169,426396,22760,0.953,0.326,-0.018,-2.1,-0.5,0.2,-6.9,-36.4,6.4,0.591448714,-0.164677877,-0.690755943,-0.381908628
170,428661,22760,0.953,0.326,-0.018,-2.4,-0.5,0.3,-6.9,-36.4,6.4,0.591448714,-0.164708396,-0.690755943,-0.381939146
171,432997,22770,0.953,0.322,-0.018,-2.6,-0.5,0.4,-6.9,-36.4,6.4,0.591448714,-0.164769433,-0.690725425,-0.381969665
172,433465,22770,0.957,0.326,-0.011,-2.8,-0.5,0.5,-6.9,-36.4,6.4,0.591418195,-0.164799951,-0.690725425,-0.382000183
173,438149,22770,0.949,0.326,-0.018,-2.9,-0.5,0.5,-7.5,-36.4,6.2,0.591418195,-0.164860988,-0.690694906,-0.382030702
174,438515,22770,0.953,0.33,-0.011,-3,-0.5,0.6,-7.5,-36.4,6.2,0.591387677,-0.164922025,-0.690664388,-0.38206122
175,441081,22780,0.949,0.33,-0.014,-3,-0.6,0.7,-7.5,-36.4,6.2,0.591387677,-0.164983062,-0.690664388,-0.382091739
176,443504,22780,0.945,0.334,-0.014,-3,-0.7,0.7,-7.5,-36.4,6.2,0.591357158,-0.165044099,-0.690633869,-0.382122257
177,447878,22780,0.941,0.33,-0.014,-3,-0.7,0.8,-6.5,-36.2,6.7,0.591357158,-0.165074618,-0.690603351,-0.382152776
178,450026,22780,0.945,0.33,-0.01,-2.9,-0.5,0.8,-6.5,-36.2,6.7,0.59132664,-0.165135655,-0.690603351,-0.382183294
179,452249,22790,0.941,0.334,-0.01,-2.7,-0.4,0.9,-6.5,-36.2,6.7,0.59132664,-0.165196692,-0.690572832,-0.382213813
180,454481,22790,0.945,0.338,-0.006,-2.6,-0.3,0.9,-6.5,-36.2,6.7,0.59132664,-0.165257729,-0.690542314,-0.382244331
181,456153,22790,0.945,0.338,-0.01,-2.4,-0.3,0.9,-6.4,-36.1,6.5,0.59132664,-0.165257729,-0.690542314,-0.38227485
182,458932,22790,0.945,0.338,-0.006,-2,-0.2,1,-6.4,-36.1,6.5,0.59132664,-0.165349284,-0.690511795,-0.38227485
183,461492,22800,0.941,0.338,-0.006,-1.7,-0.2,1.1,-6.4,-36.1,6.5,0.59132664,-0.165379803,-0.690511795,-0.382305368
184,463734,22800,0.945,0.338,-0.006,-1.4,-0.2,1.1,-6.4,-36.1,6.5,0.59132664,-0.165410321,-0.690481277,-0.382305368
185,466179,22800,0.945,0.338,-0.006,-1,-0.2,0.9,-6.6,-36.4,6.5,0.591265603,-0.165410321,-0.690511795,-0.382335887
186,470018,22800,0.941,0.342,-0.006,-1,-0.2,0.9,-6.6,-36.4,6.5,0.591265603,-0.16544084,-0.690481277,-0.382335887
187,472330,22810,0.945,0.341,-0.002,-0.7,0,0.9,-6.6,-36.4,6.5,0.591265603,-0.165471358,-0.690481277,-0.382335887
188,474718,22810,0.941,0.341,-0.002,-0.5,0,0.8,-6.6,-36.4,6.5,0.591296121,-0.165501877,-0.690481277,-0.382335887
189,476572,22810,0.945,0.345,-0.002,-0.2,0.1,0.8,-6.3,-36.3,6.9,0.591296121,-0.165501877,-0.690481277,-0.382335887
190,478705,22810,0.945,0.345,0.001,-0.1,0,0.8,-6.3,-36.3,6.9,0.591296121,-0.165532395,-0.690481277,-0.382305368
191,481020,22820,0.945,0.345,0.001,0,0,0.8,-6.3,-36.3,6.9,0.591296121,-0.165532395,-0.690450758,-0.382305368
192,483478,22820,0.945,0.341,-0.006,0,-0.2,0.8,-6.3,-36.3,6.9,0.591296121,-0.165562914,-0.690450758,-0.382305368
193,488182,22820,0.937,0.341,0.001,0,-0.3,0.6,-7.3,-36.5,6.4,0.591296121,-0.165562914,-0.690481277,-0.38227485
194,488597,22820,0.941,0.334,0,0,-0.3,0.5,-7.3,-36.5,6.4,0.591296121,-0.165562914,-0.690481277,-0.38227485
195,491292,22830,0.941,0.337,0,0,-0.3,0.3,-7.3,-36.5,6.4,0.591296121,-0.165593432,-0.690481277,-0.38227485
196,493533,22830,0.937,0.337,0.004,-0.1,-0.5,0.4,-7.3,-36.5,6.4,0.591296121,-0.165593432,-0.690481277,-0.38227485
197,496081,22830,0.937,0.341,0.005,-0.4,-0.6,0.2,-6.6,-36.4,6.3,0.591296121,-0.165623951,-0.690481277,-0.38227485
198,498655,22830,0.937,0.341,0.005,-0.5,-0.8,0.4,-6.6,-36.4,6.3,0.591296121,-0.165623951,-0.690481277,-0.38227485
199,501070,22840,0.933,0.341,0.009,-0.7,-0.8,0.3,-6.6,-36.4,6.3,0.591265603,-0.165654469,-0.690481277,-0.38227485
200,505484,22840,0.941,0.333,0.004,-0.9,-1,0.3,-6.6,-36.4,6.3,0.591265603,-0.165684988,-0.690481277,-0.38227485
201,507652,22840,0.937,0.338,0.001,-1.2,-1.1,0.2,-6.6,-36.5,6.4,0.591235084,-0.165715506,-0.690511795,-0.38227485
202,509782,22840,0.937,0.334,0.004,-1.6,-1.2,0,-6.6,-36.5,6.4,0.591204566,-0.165746025,-0.690511795,-0.382305368
203,511541,22850,0.941,0.33,0.004,-1.9,-1.3,-0.1,-6.6,-36.5,6.4,0.591174047,-0.165776543,-0.690511795,-0.382335887
204,513833,22850,0.937,0.33,0,-2.1,-1.3,-0.3,-6.6,-36.5,6.4,0.591143529,-0.165807062,-0.690511795,-0.382366405
205,516180,22850,0.941,0.333,0.004,-2.5,-1.5,-0.3,-6.9,-36.4,6.1,0.591174047,-0.165807062,-0.69042024,-0.382457961
206,518805,22850,0.941,0.333,0.004,-2.5,-1.5,-0.3,-6.9,-36.4,6.1,0.591143529,-0.16583758,-0.69042024,-0.382488479
207,521369,22860,0.949,0.329,0.004,-2.7,-1.6,-0.3,-6.9,-36.4,6.1,0.591082492,-0.165898618,-0.69042024,-0.382549516
208,523515,22860,0.945,0.333,0.004,-2.9,-1.7,-0.3,-6.9,-36.4,6.1,0.591051973,-0.165929136,-0.69042024,-0.382580035
209,526064,22860,0.941,0.334,0,-2.9,-1.8,-0.3,-6.9,-36.4,6.2,0.591021455,-0.165990173,-0.69042024,-0.382610553
210,530568,22860,0.949,0.341,0,-3,-1.9,-0.4,-6.9,-36.4,6.2,0.590960417,-0.166020692,-0.69042024,-0.38267159
211,532862,22870,0.945,0.341,-0.002,-3,-1.9,-0.5,-6.9,-36.4,6.2,0.590929899,-0.166081729,-0.69042024,-0.382702109
212,534996,22870,0.949,0.337,0.004,-3,-2,-0.7,-6.9,-36.4,6.2,0.590868862,-0.166112247,-0.690450758,-0.382763146
213,536986,22870,0.945,0.337,0,-3,-2.2,-0.8,-7,-36.5,6.1,0.590807825,-0.166173284,-0.690450758,-0.382824183
214,539032,22870,0.945,0.337,0.004,-3.2,-2.3,-0.7,-7,-36.5,6.1,0.590777306,-0.166234321,-0.690450758,-0.382854701
215,543168,22880,0.945,0.345,0.001,-3.1,-2.4,-0.7,-7,-36.5,6.1,0.590716269,-0.166234321,-0.690450758,-0.382915738
216,543534,22880,0.945,0.341,0.004,-3.1,-2.5,-0.8,-7,-36.5,6.1,0.590655232,-0.166325877,-0.690481277,-0.382946257
217,547555,22880,0.941,0.341,0.008,-3,-2.7,-0.8,-6.7,-36.1,6.3,0.590594195,-0.166386914,-0.690481277,-0.383007294
218,549884,22880,0.933,0.341,0.012,-3,-2.8,-0.9,-6.7,-36.1,6.3,0.590533158,-0.166417432,-0.690511795,-0.383068331
219,552180,22890,0.937,0.341,0.012,-2.9,-3,-0.9,-6.7,-36.1,6.3,0.590472121,-0.166478469,-0.690511795,-0.383098849
220,554793,22890,0.933,0.341,0.009,-2.9,-3.1,-1,-6.7,-36.1,6.3,0.590411084,-0.166508988,-0.690542314,-0.383159886
221,556631,22890,0.929,0.337,0.012,-2.9,-3.4,-1.1,-6.8,-36.5,6.4,0.590319529,-0.166570025,-0.690572832,-0.383190405
222,559124,22890,0.929,0.349,0.02,-2.8,-3.7,-1.2,-6.8,-36.5,6.4,0.590258492,-0.166631062,-0.690603351,-0.383251442
223,561272,22900,0.925,0.341,0.016,-2.7,-4,-1.2,-6.8,-36.5,6.4,0.590166936,-0.16666158,-0.690633869,-0.383281961
224,563626,22900,0.925,0.345,0.024,-2.7,-4.2,-1.2,-6.8,-36.5,6.4,0.590075381,-0.166722617,-0.690664388,-0.383281961
225,566239,22900,0.925,0.345,0.024,-2.6,-4.4,-1.3,-7.2,-36.3,6.1,0.590105899,-0.166600543,-0.690542314,-0.383556627
226,568490,22900,0.921,0.345,0.02,-2.7,-4.5,-1.2,-7.2,-36.3,6.1,0.590014344,-0.16666158,-0.690572832,-0.383617664
227,571212,22910,0.921,0.345,0.024,-2.7,-4.7,-1.3,-7.2,-36.3,6.1,0.589922788,-0.166722617,-0.690633869,-0.383648183
228,573810,22910,0.921,0.341,0.024,-2.7,-4.9,-1.4,-7.2,-36.3,6.1,0.589800714,-0.166783654,-0.690664388,-0.383678701
229,576143,22910,0.917,0.345,0.028,-2.6,-5,-1.7,-6.8,-36.4,6.5,0.589709159,-0.166814173,-0.690725425,-0.383739738
230,578636,22910,0.921,0.341,0.028,-2.5,-5.1,-1.9,-6.8,-36.4,6.5,0.589617603,-0.16687521,-0.690786462,-0.383770257
231,583065,22920,0.921,0.341,0.024,-2.5,-5.1,-2.2,-6.8,-36.4,6.5,0.589495529,-0.166905728,-0.69081698,-0.383831294
232,585338,22920,0.925,0.341,0.032,-2.5,-5.2,-2.5,-6.8,-36.4,6.5,0.589403974,-0.166966765,-0.690878018,-0.383892331
233,587868,22920,0.929,0.337,0.032,-2.7,-5.3,-2.7,-6.8,-36.5,6.1,0.589281899,-0.166997284,-0.690939055,-0.383922849
234,590085,22920,0.929,0.341,0.028,-2.8,-5.3,-2.9,-6.8,-36.5,6.1,0.589159825,-0.167027802,-0.691000092,-0.383983886
235,592002,22930,0.929,0.337,0.028,-2.9,-5.3,-3.1,-6.8,-36.5,6.1,0.589037751,-0.167058321,-0.691061129,-0.384075442
236,594655,22930,0.933,0.341,0.028,-3,-5.3,-3.2,-6.8,-36.5,6.1,0.588915677,-0.167119358,-0.691122166,-0.384136479
237,596551,22930,0.933,0.337,0.028,-3.2,-5.3,-3.3,-6.5,-36.8,6.4,0.588793603,-0.167149876,-0.691152684,-0.384197516
238,598642,22930,0.941,0.337,0.024,-3.3,-5.3,-3.6,-6.5,-36.8,6.4,0.588671529,-0.167180395,-0.691213721,-0.384289071
239,601410,22940,0.941,0.345,0.024,-3.5,-5.4,-3.8,-6.5,-36.8,6.4,0.588549455,-0.167210913,-0.691274758,-0.384380627
240,603947,22940,0.941,0.345,0.02,-3.7,-5.5,-4,-6.5,-36.8,6.4,0.588427381,-0.167210913,-0.691335795,-0.384441664
241,606258,22940,0.945,0.341,0.02,-4,-5.5,-3.9,-6.9,-36.4,6.4,0.588305307,-0.16727195,-0.691366314,-0.384533219
242,608595,22940,0.949,0.345,0.02,-4.3,-5.7,-3.7,-6.9,-36.4,6.4,0.588152715,-0.167332987,-0.691427351,-0.384624775
243,611101,22950,0.949,0.349,0.016,-4.5,-5.7,-3.9,-6.9,-36.4,6.4,0.588030641,-0.167363506,-0.691488388,-0.384746849
244,613742,22950,0.953,0.353,0.016,-4.7,-5.8,-4,-6.9,-36.4,6.4,0.587878048,-0.167424543,-0.691518906,-0.384838404
245,616408,22950,0.956,0.361,0.012,-5,-5.9,-4.3,-7.2,-37,6.3,0.587817011,-0.167394024,-0.691457869,-0.385082553
246,618615,22950,0.953,0.357,0.016,-5.3,-6,-4.6,-7.2,-37,6.3,0.587664418,-0.167424543,-0.691488388,-0.385204627
247,620991,22960,0.956,0.361,0.016,-5.5,-6,-4.8,-7.2,-37,6.3,0.587511826,-0.16748558,-0.691549425,-0.385326701
248,625563,22960,0.956,0.365,0.008,-5.8,-6,-4.9,-7.2,-37,6.3,0.587359233,-0.167546617,-0.691610462,-0.385448775
249,627985,22960,0.953,0.368,0.016,-6.1,-6.1,-5,-6.7,-36.9,6.2,0.587206641,-0.167607654,-0.69164098,-0.385570849
250,630060,22960,0.956,0.369,0.012,-6.4,-6.1,-5,-6.7,-36.9,6.2,0.587054048,-0.167638173,-0.691671499,-0.385723441
251,632273,22970,0.956,0.376,0.012,-6.7,-6.3,-5,-6.7,-36.9,6.2,0.586901456,-0.167729728,-0.691732536,-0.385876034
252,634323,22970,0.956,0.376,0.016,-6.9,-6.4,-5,-6.7,-36.9,6.2,0.586718345,-0.167790765,-0.691763054,-0.385998108
253,636213,22970,0.956,0.38,0.02,-7.2,-6.6,-5.2,-6.5,-36.6,6.4,0.586565752,-0.167851802,-0.691824091,-0.3861507
254,638617,22970,0.956,0.384,0.02,-7.4,-6.7,-5.3,-6.5,-36.6,6.4,0.586382641,-0.167912839,-0.69185461,-0.386303293
255,641144,22980,0.956,0.384,0.016,-7.6,-6.9,-5.3,-6.5,-36.6,6.4,0.58619953,-0.168004395,-0.691915647,-0.386486404
256,645304,22980,0.956,0.384,0.013,-8,-7,-5.3,-6.5,-36.6,6.4,0.586016419,-0.16809595,-0.691946165,-0.386638997
257,647526,22980,0.956,0.388,0.013,-8.3,-7.1,-5.2,-6.8,-36.8,6.5,0.585833308,-0.168156987,-0.691976684,-0.386791589
258,649778,22980,0.952,0.388,0.02,-8.6,-7.1,-5.3,-6.8,-36.8,6.5,0.585650197,-0.168248543,-0.692007202,-0.3869747
259,652033,22990,0.956,0.388,0.016,-8.9,-7.2,-5.3,-6.8,-36.8,6.5,0.585467086,-0.168340098,-0.692068239,-0.387157811
260,654095,22990,0.945,0.388,0.028,-9.1,-7.2,-5.1,-6.8,-36.8,6.5,0.585283975,-0.168462172,-0.692098758,-0.387340922
261,657311,22990,0.941,0.392,0.025,-9.4,-7.4,-4.9,-7,-36.7,6.4,0.585100864,-0.168553728,-0.692129276,-0.387524033
262,659553,22990,0.945,0.392,0.025,-9.7,-7.5,-4.9,-7,-36.7,6.4,0.584887234,-0.168675802,-0.692159795,-0.387707144
263,661211,23000,0.937,0.396,0.029,-9.8,-7.6,-4.9,-7,-36.7,6.4,0.584704123,-0.168797876,-0.692190313,-0.387890255
264,663540,23000,0.937,0.392,0.033,-10.1,-7.6,-5,-7,-36.7,6.4,0.584521012,-0.16891995,-0.692220832,-0.388073366
265,666997,23000,0.937,0.396,0.036,-10.4,-7.5,-5,-7.3,-36.4,6.6,0.584337901,-0.168645283,-0.692068239,-0.388683737
266,668627,23000,0.937,0.396,0.036,-10.8,-7.6,-5.1,-7.3,-36.4,6.6,0.58415479,-0.168767357,-0.692098758,-0.388866848
267,672472,23010,0.933,0.396,0.04,-10.9,-7.8,-5.1,-7.3,-36.4,6.6,0.58394116,-0.16891995,-0.692129276,-0.389080477
268,674585,23010,0.933,0.392,0.04,-11.2,-8.1,-5.2,-7.3,-36.4,6.6,0.583758049,-0.169042024,-0.692159795,-0.389294107
269,676474,23010,0.929,0.392,0.048,-11.4,-8.3,-5.2,-7.1,-37,6.2,0.58354442,-0.169164098,-0.692190313,-0.389507736
270,678697,23010,0.925,0.392,0.044,-11.9,-8.3,-5.2,-7.1,-37,6.2,0.583300272,-0.169316691,-0.692190313,-0.389721366
271,681508,23020,0.933,0.4,0.044,-12.3,-8.3,-5.2,-7.1,-37,6.2,0.583086642,-0.169469283,-0.692220832,-0.389934996
272,683940,23020,0.929,0.396,0.044,-12.8,-8.3,-5.1,-7.1,-37,6.2,0.582873012,-0.169621876,-0.69225135,-0.390148625
273,686247,23020,0.933,0.396,0.044,-13.1,-8.3,-5,-6.1,-36.7,5.8,0.582659383,-0.169804987,-0.69225135,-0.390392773
274,688703,23020,0.929,0.4,0.037,-13.2,-8.2,-4.9,-6.1,-36.7,5.8,0.582445753,-0.169957579,-0.69225135,-0.390636921
275,691428,23030,0.941,0.4,0.036,-13.4,-8.1,-4.6,-6.1,-36.7,5.8,0.582232124,-0.17014069,-0.69225135,-0.390850551
276,694023,23030,0.941,0.4,0.033,-13.7,-8.1,-4.3,-6.1,-36.7,5.8,0.582018494,-0.170293283,-0.692281869,-0.391094699
277,696021,23030,0.937,0.396,0.033,-14,-8,-4.1,-7.2,-36.9,6.5,0.581804865,-0.170476394,-0.69225135,-0.391338847
278,699939,23030,0.945,0.404,0.029,-14.5,-7.9,-4,-7.2,-36.9,6.5,0.581621754,-0.170690023,-0.69225135,-0.391582995
279,702364,23040,0.945,0.4,0.029,-14.9,-7.8,-4,-7.2,-36.9,6.5,0.581408124,-0.170873135,-0.69225135,-0.391827143
280,704552,23040,0.949,0.404,0.021,-15.4,-7.8,-4.1,-7.2,-36.9,6.5,0.581194494,-0.171086764,-0.692220832,-0.392071291
281,706332,23040,0.949,0.4,0.021,-16,-7.9,-4,-7.2,-36.8,6.1,0.580980865,-0.171300394,-0.692220832,-0.392345958
282,708649,23040,0.952,0.408,0.017,-16.5,-8.1,-3.9,-7.2,-36.8,6.1,0.580736717,-0.171514023,-0.692190313,-0.392620624
283,711348,23050,0.953,0.412,0.009,-16.9,-8.1,-3.8,-7.2,-36.8,6.1,0.580523087,-0.171727653,-0.692159795,-0.392895291
284,713928,23050,0.952,0.408,0.013,-17.3,-8.1,-3.6,-7.2,-36.8,6.1,0.580309458,-0.171971801,-0.692129276,-0.393169958
285,716236,23050,0.952,0.416,0.013,-17.8,-8.2,-3.5,-7,-36.8,6.2,0.58006531,-0.171880245,-0.692007202,-0.393810846
286,719185,23050,0.952,0.42,0.013,-18.3,-8.3,-3.4,-7,-36.8,6.2,0.579821162,-0.172093875,-0.691946165,-0.394085513
287,721369,23060,0.956,0.423,0.013,-18.9,-8.4,-3.3,-7,-36.8,6.2,0.579607532,-0.17239906,-0.691915647,-0.394390698
288,723733,23060,0.949,0.423,0.017,-19.5,-8.5,-3.1,-7,-36.8,6.2,0.579363384,-0.172673727,-0.69185461,-0.394695883
289,726007,23060,0.949,0.427,0.017,-20.1,-8.6,-2.7,-7.3,-36.9,6.1,0.579149754,-0.172948393,-0.691824091,-0.395001068
290,728544,23060,0.945,0.431,0.013,-20.7,-8.6,-2.4,-7.3,-36.9,6.1,0.578905606,-0.173253578,-0.691763054,-0.395306253
291,733243,23070,0.945,0.431,0.017,-21.2,-8.5,-2.3,-7.3,-36.9,6.1,0.578691977,-0.173558763,-0.691671499,-0.395611438
292,733698,23070,0.945,0.435,0.013,-21.6,-8.5,-2.1,-7.3,-36.9,6.1,0.578447829,-0.173863948,-0.691610462,-0.395947142
293,736759,23070,0.949,0.443,0.017,-22,-8.5,-2,-5.8,-36.7,5.3,0.578234199,-0.174199652,-0.691549425,-0.396282846
294,740079,23070,0.945,0.443,0.013,-22.3,-8.7,-1.8,-5.8,-36.7,5.3,0.577990051,-0.174504837,-0.691457869,-0.396588031
295,741919,23080,0.941,0.447,0.014,-22.4,-8.9,-1.6,-5.8,-36.7,5.3,0.577745903,-0.174840541,-0.691396832,-0.396923734
296,744514,23080,0.945,0.447,0.017,-22.6,-9.1,-1.6,-5.8,-36.7,5.3,0.577532273,-0.175206763,-0.691305277,-0.397259438
297,746194,23080,0.945,0.451,0.014,-22.6,-9.1,-1.5,-7.2,-36.5,5.6,0.577288125,-0.175542467,-0.69124424,-0.397564623
298,748874,23080,0.952,0.455,0.017,-22.7,-9,-1.4,-7.2,-36.5,5.6,0.577043977,-0.17587817,-0.691152684,-0.397900327
299,751129,23090,0.952,0.459,0.021,-22.9,-8.8,-1.4,-7.2,-36.5,5.6,0.576799829,-0.176213874,-0.691091647,-0.39823603
300,753815,23090,0.952,0.451,0.021,-23.2,-8.5,-1.3,-7.2,-36.5,5.6,0.5765862,-0.176580096,-0.691000092,-0.398571734
301,756076,23090,0.952,0.455,0.017,-23.6,-8.5,-1.3,-7.5,-36.8,5.5,0.576342051,-0.176915799,-0.690908536,-0.398907437
302,758609,23090,0.952,0.455,0.013,-23.9,-8.5,-1.3,-7.5,-36.8,5.5,0.576128422,-0.177282022,-0.690786462,-0.399243141
303,763141,23100,0.956,0.455,0.017,-24.1,-8.8,-1.2,-7.5,-36.8,5.5,0.575884274,-0.177648244,-0.690694906,-0.399609363
304,763545,23100,0.956,0.455,0.021,-24.4,-9,-1.2,-7.5,-36.8,5.5,0.575640126,-0.178014466,-0.690603351,-0.399945067
305,766227,23100,0.964,0.451,0.017,-24.8,-9.3,-1,-7.2,-36.7,5.5,0.575243385,-0.177831355,-0.690481277,-0.400860622
306,768579,23100,0.96,0.451,0.017,-25.2,-9.5,-0.8,-7.2,-36.7,5.5,0.574999237,-0.178228095,-0.690359203,-0.401196326
307,772935,23110,0.956,0.451,0.017,-25.8,-9.7,-0.5,-7.2,-36.7,5.5,0.57472457,-0.178624836,-0.690267647,-0.401562548
308,775177,23110,0.96,0.455,0.017,-26.4,-9.7,-0.3,-7.2,-36.7,5.5,0.574480422,-0.179021577,-0.690145573,-0.40192877
309,777365,23110,0.956,0.451,0.013,-27.1,-9.8,-0.2,-7.5,-36.6,5.5,0.574236274,-0.179448836,-0.690054018,-0.402294992
310,779778,23110,0.956,0.447,0.017,-27.7,-9.8,0,-7.5,-36.6,5.5,0.573961608,-0.179876095,-0.689931944,-0.402691733
311,781554,23120,0.956,0.451,0.017,-28.3,-9.9,0.2,-7.5,-36.6,5.5,0.57371746,-0.180333872,-0.68980987,-0.403057955
312,784929,23120,0.956,0.447,0.013,-28.9,-10,0.6,-7.5,-36.6,5.5,0.573442793,-0.18079165,-0.689657277,-0.403454695
313,787140,23120,0.956,0.455,0.017,-29.4,-10.2,1,-5.5,-37.2,4.9,0.573198645,-0.181279946,-0.689535203,-0.403851436
314,788921,23120,0.96,0.455,0.017,-29.8,-10.4,1.4,-5.5,-37.2,4.9,0.572923978,-0.181737724,-0.689382611,-0.404217658
315,793150,23130,0.96,0.455,0.013,-30.4,-10.5,1.8,-5.5,-37.2,4.9,0.57267983,-0.182256539,-0.689260537,-0.404614399
316,793562,23130,0.96,0.459,0.013,-31,-10.6,2.3,-5.5,-37.2,4.9,0.572405164,-0.182775353,-0.689107944,-0.405011139
317,797996,23130,0.956,0.455,0.021,-31.4,-10.7,2.7,-7.2,-36.6,4.8,0.572130497,-0.183294168,-0.688955351,-0.40540788
318,800208,23130,0.96,0.459,0.017,-31.9,-10.9,3.2,-7.2,-36.6,4.8,0.571886349,-0.183812983,-0.68877224,-0.405804621
319,802782,23140,0.956,0.463,0.013,-32.4,-11,3.6,-7.2,-36.6,4.8,0.571611682,-0.184392834,-0.688619648,-0.406201361
320,805623,23140,0.956,0.459,0.017,-32.9,-11,3.9,-7.2,-36.6,4.8,0.571337016,-0.184972686,-0.688436537,-0.406598102
321,806008,23140,0.956,0.459,0.013,-33.5,-10.9,4,-7,-36.9,4.8,0.571092868,-0.185552538,-0.688283944,-0.407025361
322,808573,23140,0.956,0.463,0.013,-34,-10.9,4.3,-7,-36.9,4.8,0.570818201,-0.186132389,-0.688100833,-0.407422102
323,811043,23150,0.956,0.467,0.01,-34.4,-10.9,4.5,-7,-36.9,4.8,0.570543535,-0.186742759,-0.687887204,-0.407849361
324,815189,23150,0.956,0.463,0.01,-34.8,-10.9,4.8,-7,-36.9,4.8,0.570299387,-0.187322611,-0.687704093,-0.40827662
325,817433,23150,0.956,0.463,0.013,-35.3,-10.9,5.1,-7,-37.1,4.7,0.569658498,-0.186925871,-0.687490463,-0.409680471
326,819613,23150,0.956,0.463,0.013,-35.7,-10.9,5.4,-7,-37.1,4.7,0.56941435,-0.187536241,-0.687307352,-0.41010773
327,823211,23160,0.952,0.471,0.01,-36.1,-10.9,5.7,-7,-37.1,4.7,0.569139683,-0.188177129,-0.687093722,-0.410504471
328,823646,23160,0.952,0.471,0.002,-36.3,-10.9,6.1,-7,-37.1,4.7,0.568895535,-0.188818018,-0.686880093,-0.41093173
329,826274,23160,0.949,0.467,0.002,-36.4,-10.9,6.5,-7.1,-36.6,4.5,0.568620869,-0.189458907,-0.686635945,-0.411358989
330,828812,23160,0.949,0.467,0.002,-36.7,-10.9,7,-7.1,-36.6,4.5,0.56837672,-0.190130314,-0.686422315,-0.411786248
331,831155,23170,0.945,0.475,-0.001,-37.1,-10.8,7.3,-7.1,-36.6,4.5,0.568132572,-0.190801721,-0.686208686,-0.412182989
332,833548,23170,0.945,0.475,0.002,-37.5,-10.6,7.4,-7.1,-36.6,4.5,0.567888424,-0.191473128,-0.685964537,-0.41257973
333,836059,23170,0.941,0.471,-0.001,-37.9,-10.4,7.3,-5.6,-37.7,3.9,0.567644276,-0.192144536,-0.685720389,-0.413068026
334,838746,23170,0.945,0.475,-0.001,-38.5,-10.3,7.4,-5.6,-37.7,3.9,0.56736961,-0.192815943,-0.685476241,-0.413495285
335,842185,23180,0.941,0.475,0.002,-38.9,-10.2,7.6,-5.6,-37.7,3.9,0.567125462,-0.193517869,-0.685201575,-0.413953063
336,843967,23180,0.933,0.471,-0.001,-39.5,-10.1,7.9,-5.6,-37.7,3.9,0.566881314,-0.194219794,-0.684957427,-0.414380322
337,846259,23180,0.933,0.475,-0.001,-40.1,-10.1,8,-7.4,-37.3,4,0.566637165,-0.19492172,-0.68468276,-0.414838099
338,849739,23180,0.929,0.475,0.002,-40.9,-10,8,-7.4,-37.3,4,0.566393017,-0.195623646,-0.684377575,-0.415326395
339,851498,23190,0.921,0.459,0.002,-41.9,-10,7.9,-7.4,-37.3,4,0.566118351,-0.19635609,-0.684102908,-0.415814692
340,854450,23190,0.925,0.463,0.002,-42.7,-10,8,-7.4,-37.3,4,0.565874203,-0.197088534,-0.683797723,-0.416302988
341,856101,23190,0.921,0.455,-0.001,-43.4,-10,8.2,-7.2,-36.7,3.6,0.565599536,-0.197851497,-0.683492538,-0.416791284
342,859817,23190,0.917,0.452,-0.001,-44,-10,8.6,-7.2,-36.7,3.6,0.565355388,-0.19861446,-0.683187353,-0.417310099
343,861428,23200,0.91,0.448,0.002,-44.7,-10.1,8.8,-7.2,-36.7,3.6,0.565080721,-0.199377422,-0.68285165,-0.417828913
344,863860,23200,0.913,0.44,-0.001,-45.2,-10.1,9,-7.2,-36.7,3.6,0.564806055,-0.200170904,-0.682546464,-0.418347728
345,867866,23200,0.906,0.428,-0.005,-45.9,-10.1,9.1,-6.8,-37.3,3.5,0.564348277,-0.200598163,-0.682271798,-0.419202246
346,870023,23200,0.91,0.42,-0.005,-46.6,-10.1,9.1,-6.8,-37.3,3.5,0.564073611,-0.201391644,-0.681936094,-0.419721061
347,872131,23210,0.902,0.417,-0.009,-47.5,-10.1,8.9,-6.8,-37.3,3.5,0.563798944,-0.202215644,-0.681600391,-0.420270394
348,874542,23210,0.902,0.409,-0.009,-48.5,-10.2,8.7,-6.8,-37.3,3.5,0.56346324,-0.203039644,-0.681234169,-0.420850246
349,876374,23210,0.906,0.401,-0.009,-49.4,-10.4,8.5,-7.4,-37.2,3.2,0.563219092,-0.203863643,-0.680867946,-0.421430097
350,878659,23210,0.906,0.393,-0.009,-50.1,-10.5,8.5,-7.4,-37.2,3.2,0.562913907,-0.204718162,-0.680501724,-0.422040468
351,883561,23220,0.906,0.389,-0.009,-50.7,-10.7,8.4,-7.4,-37.2,3.2,0.562578204,-0.205542161,-0.680135502,-0.422620319
352,883561,23220,0.91,0.385,-0.009,-51.2,-10.7,8.4,-7.4,-37.2,3.2,0.562273019,-0.20639668,-0.679738762,-0.423230689
353,886844,23220,0.91,0.389,-0.017,-51.6,-10.6,8.4,-5.5,-37.9,2.8,0.561967833,-0.207251198,-0.679342021,-0.42384106
354,888522,23220,0.917,0.389,-0.017,-51.9,-10.4,8.5,-5.5,-37.9,2.8,0.561662648,-0.208136235,-0.678975799,-0.424481948
355,891839,23230,0.91,0.393,-0.013,-52.3,-10.2,8.7,-5.5,-37.9,2.8,0.561357463,-0.208990753,-0.678579058,-0.425092318
356,894713,23230,0.918,0.385,-0.021,-52.6,-10.1,8.7,-5.5,-37.9,2.8,0.561052278,-0.209845271,-0.678151799,-0.425702689
357,897601,23230,0.918,0.381,-0.021,-53,-9.9,8.8,-7.2,-36.5,3.4,0.560716575,-0.210730308,-0.677755058,-0.426343577
358,899800,23230,0.921,0.373,-0.009,-53.2,-9.8,8.8,-7.2,-36.5,3.4,0.56041139,-0.211615345,-0.677327799,-0.426984466
359,901977,23240,0.925,0.377,-0.021,-53.4,-9.6,8.9,-7.2,-36.5,3.4,0.560106204,-0.212469863,-0.67690054,-0.427625355
360,905712,23240,0.925,0.377,-0.021,-53.3,-9.6,8.8,-7.2,-36.5,3.4,0.559801019,-0.2133549,-0.6765038,-0.428205206
361,906250,23240,0.929,0.377,-0.021,-53.2,-9.5,8.7,-7.1,-36.9,2.6,0.559495834,-0.214209418,-0.67607654,-0.428876614
362,909694,23240,0.929,0.373,-0.017,-53.1,-9.4,8.4,-7.1,-36.9,2.6,0.559190649,-0.215063936,-0.675649281,-0.429517502
363,912115,23250,0.933,0.365,-0.025,-53,-9.4,8.2,-7.1,-36.9,2.6,0.558885464,-0.215948973,-0.675222022,-0.430158391
364,915875,23250,0.933,0.361,-0.022,-52.9,-9.4,8,-7.1,-36.9,2.6,0.55854976,-0.216803491,-0.674794763,-0.43079928
365,916219,23250,0.937,0.361,-0.014,-52.8,-9.5,7.7,-7,-36.7,2.6,0.558061464,-0.217505417,-0.674550615,-0.431501205
366,918734,23250,0.937,0.361,-0.014,-52.5,-9.6,7.6,-7,-36.7,2.6,0.557725761,-0.218359935,-0.674123356,-0.432111576
367,923511,23260,0.941,0.35,-0.018,-52.2,-9.6,7.5,-7,-36.7,2.6,0.557420576,-0.219183935,-0.673726615,-0.432752464
368,923511,23260,0.941,0.349,-0.014,-51.8,-9.6,7.5,-7,-36.7,2.6,0.557084872,-0.220038453,-0.673299356,-0.433393353
369,926204,23260,0.941,0.346,-0.014,-51.3,-9.6,7.3,-6.9,-37.1,2.3,0.556779687,-0.220862453,-0.672902615,-0.434003723
370,928548,23260,0.941,0.342,-0.01,-50.8,-9.4,7,-6.9,-37.1,2.3,0.556474502,-0.221655934,-0.672505875,-0.434614093
371,931224,23270,0.941,0.342,-0.01,-50.8,-9.4,7,-6.9,-37.1,2.3,0.556474502,-0.221655934,-0.672505875,-0.434614093
372,935712,23270,0.945,0.337,-0.002,-49.6,-8.9,6.8,-6.9,-37.1,2.3,0.555833613,-0.223242897,-0.671712394,-0.435834834
373,936094,23270,0.941,0.342,-0.006,-48.9,-8.8,6.7,-5.7,-38.5,1.6,0.555528428,-0.224036378,-0.671315653,-0.436414686
374,938627,23270,0.945,0.334,-0.006,-48.2,-8.7,6.6,-5.7,-38.5,1.6,0.555223243,-0.224799341,-0.670918912,-0.436994537
375,943194,23280,0.941,0.334,-0.002,-47.5,-8.6,6.5,-5.7,-38.5,1.6,0.554948576,-0.225531785,-0.67055269,-0.437574389
376,943614,23280,0.945,0.334,0,-46.6,-8.5,6.5,-5.7,-38.5,1.6,0.554643391,-0.226294748,-0.670186468,-0.438154241
377,947677,23280,0.945,0.337,0.004,-45.6,-8.3,6.6,-7,-37.2,1.4,0.554368725,-0.227027192,-0.669820246,-0.438673055
378,949972,23280,0.945,0.33,0.004,-44.7,-8.1,6.8,-7,-37.2,1.4,0.554094058,-0.227729118,-0.669454024,-0.439222388
379,952286,23290,0.937,0.333,0.008,-43.7,-7.7,6.9,-7,-37.2,1.4,0.553819391,-0.228431043,-0.669087802,-0.439741203
380,954093,23290,0.941,0.337,0.008,-42.5,-7.2,6.9,-7,-37.2,1.4,0.553575243,-0.229132969,-0.66872158,-0.440229499
381,957589,23290,0.937,0.333,0.008,-41.5,-6.4,6.7,-7.2,-37.2,1.4,0.553331095,-0.229773858,-0.668355358,-0.440717795
382,959346,23290,0.941,0.337,0.012,-40.3,-5.6,6.5,-7.2,-37.2,1.4,0.553117466,-0.230414747,-0.668019654,-0.441206091
383,961964,23300,0.941,0.337,0.012,-39.2,-4.9,6.3,-7.2,-37.2,1.4,0.552903836,-0.231025117,-0.667653432,-0.441663869
384,963898,23300,0.941,0.345,0.016,-37.9,-4.3,6.1,-7.2,-37.2,1.4,0.552720725,-0.231635487,-0.667317728,-0.442121647
385,966132,23300,0.949,0.349,0.028,-34.9,-3.1,5.6,-6.9,-37,1.1,0.552568133,-0.232062746,-0.666920988,-0.44267098
386,970421,23300,0.949,0.349,0.028,-34.9,-3.1,5.6,-6.9,-37,1.1,0.55241554,-0.232612079,-0.666585284,-0.443098239
387,972780,23310,0.949,0.349,0.036,-33.1,-2.3,5.3,-6.9,-37,1.1,0.552262947,-0.233100375,-0.666280099,-0.44349498
388,975728,23310,0.952,0.349,0.028,-31,-1.4,4.9,-6.9,-37,1.1,0.552140873,-0.233558153,-0.665974914,-0.44389172
389,977979,23310,0.953,0.349,0.02,-28.7,-0.3,4.3,-6.8,-37.3,0.8,0.552018799,-0.233985412,-0.665669729,-0.444257942
390,980200,23310,0.956,0.353,0.008,-26.2,0.6,3.5,-6.8,-37.3,0.8,0.551927244,-0.234321116,-0.665395062,-0.444593646
391,982009,23320,0.945,0.369,0.001,-23.2,1.7,2.4,-6.8,-37.3,0.8,0.551866207,-0.234595782,-0.665120396,-0.444898831
392,984607,23320,0.941,0.365,-0.033,-20.1,2.6,1.2,-6.8,-37.3,0.8,0.55180517,-0.234870449,-0.664876247,-0.445204016
393,986586,23320,0.937,0.366,-0.053,-17.2,3.2,0,-5.8,-38.5,0.4,0.551744133,-0.23505356,-0.664693136,-0.445478683
394,989306,23320,0.929,0.366,-0.076,-15,3.3,-1,-5.8,-38.5,0.4,0.551744133,-0.235175634,-0.664510025,-0.445722831
395,992067,23330,0.93,0.359,-0.1,-13.7,2.8,-1.9,-5.8,-38.5,0.4,0.551683096,-0.235297708,-0.664326914,-0.445966979
396,994645,23330,0.922,0.367,-0.111,-13.3,1.4,-2.5,-5.8,-38.5,0.4,0.551622059,-0.235389264,-0.66420484,-0.446180609
397,998349,23330,0.91,0.359,-0.107,-13.3,-0.7,-2.6,-7.1,-37.5,0.6,0.551499985,-0.235511338,-0.664113285,-0.446394238
398,998761,23330,0.91,0.347,-0.104,-13.4,-3.3,-2.5,-7.1,-37.5,0.6,0.551377911,-0.235694449,-0.664021729,-0.446607868
399,1001871,23340,0.91,0.331,-0.096,-13.6,-6,-2.1,-7.1,-37.5,0.6,0.5511948,-0.23587756,-0.663960692,-0.446821497
400,1005670,23340,0.918,0.323,-0.088,-13.6,-8.6,-1.8,-7.1,-37.5,0.6,0.55098117,-0.236091189,-0.663960692,-0.44697409
401,1006157,23340,0.926,0.315,-0.092,-13.4,-10.8,-1.8,-6.9,-37.3,0.3,0.550737022,-0.236335337,-0.663960692,-0.447157201
402,1008883,23340,0.926,0.288,-0.093,-13.2,-12.4,-2.3,-6.9,-37.3,0.3,0.550462355,-0.236548967,-0.663991211,-0.447309793
403,1012904,23350,0.93,0.272,-0.101,-13.4,-13.3,-2.8,-6.9,-37.3,0.3,0.55015717,-0.236823634,-0.664052248,-0.447462386
404,1015093,23350,0.934,0.253,-0.113,-13.9,-13.8,-3.5,-6.9,-37.3,0.3,0.549851985,-0.2370983,-0.664082766,-0.447645497
405,1017411,23350,0.957,0.221,-0.125,-16.2,-14.6,-3.9,-6.3,-37.5,0.1,0.549302652,-0.237647633,-0.664479507,-0.447431867
406,1019531,23350,0.961,0.206,-0.134,-16.2,-14.6,-3.9,-6.3,-37.5,0.1,0.548966948,-0.237952818,-0.664510025,-0.447645497
407,1021893,23360,0.973,0.19,-0.146,-17.8,-15.6,-4,-6.3,-37.5,0.1,0.548600726,-0.238258003,-0.664540544,-0.447889645
408,1023772,23360,0.981,0.159,-0.146,-19.9,-17,-4.2,-6.3,-37.5,0.1,0.548203986,-0.238593707,-0.664571062,-0.448133793
409,1027808,23360,0.996,0.131,-0.151,-22.2,-19,-4.3,-6.4,-37.5,0.2,0.547776727,-0.238990448,-0.664632099,-0.44840846
410,1030112,23360,1.012,0.084,-0.159,-24.6,-21.3,-4.2,-6.4,-37.5,0.2,0.54728843,-0.239417707,-0.664662618,-0.448713645
411,1032200,23370,1.024,0.06,-0.148,-26.7,-23.5,-3.9,-6.4,-37.5,0.2,0.546769616,-0.239906003,-0.664693136,-0.44901883
412,1034403,23370,1.032,0.048,-0.152,-28.5,-25.4,-3.2,-6.4,-37.5,0.2,0.546220283,-0.240455336,-0.664723655,-0.449324015
413,1036122,23370,1.036,0.025,-0.149,-30,-26.6,-2.5,-6,-38.2,0.1,0.545640431,-0.241035188,-0.664784692,-0.449659719
414,1040207,23370,1.036,0.025,-0.161,-31.2,-27.3,-1.7,-6,-38.2,0.1,0.545060579,-0.241645558,-0.664784692,-0.449995422
415,1042509,23380,1.032,0.017,-0.164,-32.2,-27.6,-1,-6,-38.2,0.1,0.544480728,-0.242286447,-0.66481521,-0.450331126
416,1044738,23380,1.028,0.009,-0.172,-33.2,-27.9,-0.5,-6,-38.2,0.1,0.543900876,-0.242957854,-0.66481521,-0.450666829
417,1046885,23380,1.024,0.01,-0.192,-33.9,-28.3,-0.1,-6.1,-37.3,0.1,0.543321024,-0.243629261,-0.66481521,-0.451002533
418,1048857,23380,1.032,0.006,-0.208,-33.8,-29,0.1,-6.1,-37.3,0.1,0.542710654,-0.244331187,-0.664845729,-0.451338237
419,1052830,23390,1.028,0.006,-0.223,-32.6,-30,0.2,-6.1,-37.3,0.1,0.542100284,-0.245002594,-0.664876247,-0.451643422
420,1054938,23390,1.009,0.011,-0.254,-30.1,-30.8,0.2,-6.1,-37.3,0.1,0.541489914,-0.245674001,-0.664937284,-0.451918088
421,1057208,23390,1.001,0.019,-0.27,-26.2,-31.5,0.2,-5.8,-37.6,0.1,0.540910062,-0.24631489,-0.66502884,-0.452131718
422,1059414,23390,1.013,0.023,-0.293,-21.9,-32.1,0,-5.8,-37.6,0.1,0.540299692,-0.246894742,-0.665211951,-0.45228431
423,1061493,23400,1.013,0.015,-0.313,-17.5,-33,-0.4,-5.8,-37.6,0.1,0.53971984,-0.247413556,-0.665425581,-0.452345347
424,1064659,23400,1.009,0.012,-0.348,-13.3,-34.3,-1.4,-5.8,-37.6,0.1,0.539139988,-0.247871334,-0.665700247,-0.452375866
425,1066865,23400,0.994,-0.01,-0.372,-5.4,-37.4,-4.4,-5.8,-37.4,0,0.538438063,-0.249092074,-0.666493728,-0.451368755
426,1068810,23400,0.994,-0.01,-0.372,-5.4,-37.4,-4.4,-5.8,-37.4,0,0.537827692,-0.249458296,-0.666920988,-0.451307718
427,1072867,23410,0.998,-0.029,-0.399,-2,-39.3,-6.2,-5.8,-37.4,0,0.537186804,-0.249794,-0.667378765,-0.451185644
428,1075327,23410,1.006,-0.072,-0.412,0,-41.4,-8.1,-5.8,-37.4,0,0.536515397,-0.250068667,-0.667928098,-0.45106357
429,1077483,23410,1.017,-0.104,-0.416,0.5,-43.6,-10.1,-5.5,-37.4,0,0.535782952,-0.250343333,-0.668477432,-0.450910978
430,1079606,23410,1.025,-0.139,-0.425,0,-45.8,-12.1,-5.5,-37.4,0,0.534989471,-0.250618,-0.669087802,-0.450819422
431,1081908,23420,1.029,-0.21,-0.429,-0.4,-48.1,-13.7,-5.5,-37.4,0,0.534134953,-0.250892666,-0.66972869,-0.450727866
432,1085373,23420,1.021,-0.245,-0.434,-0.1,-50.2,-14.4,-5.5,-37.4,0,0.533249916,-0.251197851,-0.670400098,-0.450605792
433,1087614,23420,1.029,-0.272,-0.442,0.7,-52.2,-14.1,-5.7,-38.7,-0.2,0.532364879,-0.251503037,-0.671071505,-0.450483718
434,1089803,23420,1.033,-0.331,-0.447,1.4,-53.9,-13,-5.7,-38.7,-0.2,0.531449324,-0.251808222,-0.671803949,-0.450300607
435,1092923,23430,1.045,-0.339,-0.459,1.3,-55.4,-11.3,-5.7,-38.7,-0.2,0.530533769,-0.252174444,-0.672505875,-0.450117496
436,1095272,23430,1.037,-0.382,-0.471,0.5,-56.1,-9.4,-5.7,-38.7,-0.2,0.529618213,-0.252571184,-0.673207801,-0.449903867
437,1098412,23430,1.045,-0.413,-0.487,-1.1,-56,-7.8,-5.6,-37.2,0,0.528702658,-0.253028962,-0.673909726,-0.449690237
438,1098863,23430,1.045,-0.444,-0.495,-2.7,-54.7,-6.2,-5.6,-37.2,0,0.52784814,-0.253517258,-0.674520096,-0.449507126
439,1101375,23440,1.045,-0.464,-0.503,-3.2,-52.2,-4.6,-5.6,-37.2,0,0.526993622,-0.253975036,-0.675130467,-0.449324015
440,1105136,23440,1.049,-0.46,-0.519,-1.8,-48.9,-2.8,-5.6,-37.2,0,0.526230659,-0.254432814,-0.6756798,-0.449110385
441,1107841,23440,1.046,-0.467,-0.531,1.5,-45,-1.1,-5.6,-37.3,0.2,0.52558977,-0.254860073,-0.676229133,-0.448866237
442,1110365,23440,1.034,-0.463,-0.55,6.4,-40.7,0.3,-5.6,-37.3,0.2,0.525009919,-0.255195776,-0.676747948,-0.448530534
443,1113120,23450,1.034,-0.471,-0.566,12,-36.5,1.6,-5.6,-37.3,0.2,0.524552141,-0.255439924,-0.677297281,-0.448133793
444,1113514,23450,1.038,-0.466,-0.581,17.9,-32.5,2.6,-5.6,-37.3,0.2,0.524216437,-0.255592517,-0.677816095,-0.447645497
445,1116156,23450,1.038,-0.466,-0.605,24.1,-28.9,3.4,-5.6,-37.2,0.2,0.523941771,-0.255623035,-0.678365429,-0.447096164
446,1118744,23450,1.046,-0.47,-0.617,31.2,-26.1,4.1,-5.6,-37.2,0.2,0.52375866,-0.255592517,-0.67894528,-0.446455275
447,1121392,23460,1.05,-0.462,-0.625,39.4,-23.9,4.5,-5.6,-37.2,0.2,0.523667104,-0.255439924,-0.679586169,-0.445661794
448,1124210,23460,1.046,-0.458,-0.628,48.8,-21.9,4.6,-5.6,-37.2,0.2,0.523667104,-0.255165258,-0.680288095,-0.444776757
449,1126950,23460,1.058,-0.43,-0.652,59.2,-19.5,4.4,-5.8,-37.2,0.4,0.52375866,-0.254737999,-0.681051057,-0.443739128
450,1129562,23460,1.062,-0.426,-0.66,70.2,-16.6,4.1,-5.8,-37.2,0.4,0.523941771,-0.254158147,-0.681905576,-0.442548906
451,1131577,23470,1.066,-0.411,-0.671,81.3,-13.3,3.7,-5.8,-37.2,0.4,0.524216437,-0.253425703,-0.682821131,-0.44123661
452,1133968,23470,1.085,-0.383,-0.687,92,-9.4,3.5,-5.8,-37.2,0.4,0.524613178,-0.252510147,-0.683797723,-0.439771722
453,1135978,23470,1.081,-0.371,-0.687,102.5,-5.1,3.1,-5.3,-38,1,0.525131993,-0.251442,-0.684804834,-0.438154241
454,1138475,23470,1.085,-0.36,-0.687,113.4,-0.3,2.8,-5.3,-38,1,0.525772881,-0.250190741,-0.685872982,-0.436445204
455,1143175,23480,1.085,-0.34,-0.694,124.7,4.9,2.5,-5.3,-38,1,0.526566362,-0.248756371,-0.687002167,-0.434553056
456,1143532,23480,1.07,-0.3,-0.701,136.4,10.9,2.2,-5.3,-38,1,0.527481918,-0.247108371,-0.688131352,-0.432538835
457,1146011,23480,1.066,-0.28,-0.713,148.3,17.6,1.9,-5.5,-37.4,1.3,0.528580584,-0.245246742,-0.689321574,-0.430402539
458,1148608,23480,1.054,-0.257,-0.712,160.3,25,1.5,-5.5,-37.4,1.3,0.529801325,-0.243202002,-0.690542314,-0.428083132
459,1151037,23490,1.034,-0.201,-0.723,172.3,32.3,1.2,-5.5,-37.4,1.3,0.531235694,-0.240913114,-0.691763054,-0.425641652
460,1155451,23490,1.023,-0.174,-0.73,184.4,39.5,0.6,-5.5,-37.4,1.3,0.532792138,-0.238410596,-0.693014313,-0.423078097
461,1157670,23490,1.011,-0.154,-0.73,196.5,45.9,0.1,-5.6,-37,2.4,0.534501175,-0.235694449,-0.694265572,-0.420331431
462,1159901,23490,0.999,-0.126,-0.729,208.5,51.3,0,-5.6,-37,2.4,0.536362804,-0.23279519,-0.695577868,-0.417432173
463,1161492,23500,0.972,-0.079,-0.736,220.3,55.4,0.1,-5.6,-37,2.4,0.538315989,-0.229712821,-0.696920682,-0.414349803
464,1165606,23500,0.952,-0.051,-0.739,232.1,58.2,0.6,-5.6,-37,2.4,0.540360729,-0.226477859,-0.698324534,-0.411114841
465,1167910,23500,0.933,0,-0.742,243.8,60,1.2,-5.7,-36.9,3.2,0.542466506,-0.223059786,-0.699789422,-0.40766625
466,1170005,23500,0.925,0.015,-0.746,255.1,61.1,1.7,-5.7,-36.9,3.2,0.544663839,-0.219519639,-0.701315348,-0.404034547
467,1172280,23510,0.913,0.039,-0.749,265.8,61.8,2.1,-5.7,-36.9,3.2,0.54689169,-0.215857418,-0.70290231,-0.400250252
468,1174676,23510,0.901,0.055,-0.749,275.7,62.6,2.5,-5.7,-36.9,3.2,0.54915006,-0.212073122,-0.70455031,-0.396252327
469,1176486,23510,0.901,0.07,-0.749,284.8,63.3,3,-5.9,-36.6,4.7,0.551469466,-0.208136235,-0.706198309,-0.392132328
470,1178840,23510,0.905,0.117,-0.74,293.2,64,3.7,-5.9,-36.6,4.7,0.553819391,-0.204107791,-0.707907346,-0.387859737
471,1181074,23520,0.905,0.121,-0.744,300.7,64.3,4.6,-5.9,-36.6,4.7,0.556169317,-0.200018311,-0.709646901,-0.383434553
472,1183651,23520,0.913,0.129,-0.756,307.2,64.4,6.2,-5.9,-36.6,4.7,0.55854976,-0.195837275,-0.711386456,-0.378856777
473,1186092,23520,0.929,0.129,-0.768,312.2,64.2,8.2,-6.4,-36.3,6.3,0.560930204,-0.191625721,-0.713126011,-0.374187445
474,1188788,23520,0.937,0.141,-0.772,316.2,64.1,10.4,-6.4,-36.3,6.3,0.563310648,-0.187383648,-0.714865566,-0.369396039
475,1191405,23530,0.956,0.149,-0.78,319.6,64.3,12.5,-6.4,-36.3,6.3,0.56572161,-0.183111057,-0.716605121,-0.364513077
476,1194844,23530,0.964,0.157,-0.788,322.9,64.9,14.3,-6.4,-36.3,6.3,0.568132572,-0.178838466,-0.718283639,-0.35953856
477,1197746,23530,0.976,0.168,-0.807,326,65.7,16.2,-6.2,-36.1,7.4,0.570543535,-0.174535356,-0.719931639,-0.354472488
478,1199944,23530,0.991,0.172,-0.812,328.8,66.7,18.6,-6.2,-36.1,7.4,0.572954497,-0.170201727,-0.72154912,-0.349314859
479,1202236,23540,1.003,0.172,-0.82,330.9,67.6,21.3,-6.2,-36.1,7.4,0.575395978,-0.165898618,-0.723136082,-0.344096194
480,1204092,23540,1.015,0.176,-0.832,332.3,68.4,24.1,-6.2,-36.1,7.4,0.577867977,-0.161595508,-0.724662008,-0.338785974
481,1206328,23540,1.031,0.18,-0.851,333.1,69,26.2,-6.8,-35.2,9.4,0.580309458,-0.157292398,-0.726157414,-0.333414716
482,1208685,23540,1.046,0.184,-0.859,333.5,69.4,27.6,-6.8,-35.2,9.4,0.58272042,-0.152989288,-0.727591784,-0.32801294
483,1213048,23550,1.058,0.2,-0.863,334,69.8,28.5,-6.8,-35.2,9.4,0.585131382,-0.14865566,-0.728965117,-0.322580645
484,1215236,23550,1.066,0.196,-0.875,334.3,70.3,29,-6.8,-35.2,9.4,0.587542344,-0.144383068,-0.730307932,-0.317087313
485,1217509,23550,1.082,0.192,-0.883,334.6,71,29.4,-6.9,-34.2,11.6,0.589922788,-0.140079958,-0.731589709,-0.311593982
486,1219700,23550,1.078,0.2,-0.883,334.4,71.8,29.6,-6.9,-34.2,11.6,0.592272713,-0.13574633,-0.732840968,-0.30610065
487,1221934,23560,1.089,0.192,-0.891,333.8,72.7,30.1,-6.9,-34.2,11.6,0.59459212,-0.131412702,-0.734000671,-0.3005768
488,1223923,23560,1.117,0.203,-0.892,333.2,73.6,31.2,-6.9,-34.2,11.6,0.596911527,-0.127109592,-0.735129856,-0.29505295
489,1227888,23560,1.125,0.195,-0.896,333,74.2,33.2,-7.8,-33.1,12.9,0.599230934,-0.122837001,-0.736198004,-0.289468062
490,1230205,23560,1.144,0.203,-0.892,333.5,74.8,36.4,-7.8,-33.1,12.9,0.60155034,-0.118564409,-0.737205115,-0.283822138
491,1232225,23570,1.152,0.214,-0.881,334.4,75.5,40.1,-7.8,-33.1,12.9,0.603869747,-0.114352855,-0.738151189,-0.278115177
492,1234503,23570,1.156,0.23,-0.876,335.5,76.6,43.7,-7.8,-33.1,12.9,0.606189154,-0.110171819,-0.739066744,-0.27231666
493,1238151,23570,1.164,0.246,-0.876,336.3,78.6,46.5,-8.1,-31.9,14.8,0.60850856,-0.106021302,-0.739890744,-0.266457106
494,1238520,23570,1.16,0.257,-0.876,336.2,81.1,48.2,-8.1,-31.9,14.8,0.610858486,-0.101840266,-0.740623188,-0.260567034
495,1241292,23580,1.14,0.289,-0.872,334.5,84.3,48.8,-8.1,-31.9,14.8,0.613238929,-0.0976897488,-0.741264077,-0.254676962
496,1244103,23580,1.128,0.289,-0.867,331.5,87.7,48.6,-8.1,-31.9,14.8,0.615619373,-0.0935697501,-0.74181341,-0.248847926
497,1246611,23580,1.113,0.293,-0.871,327.4,91.1,47.8,-8,-30.7,16,0.617999817,-0.0894497513,-0.742240669,-0.243079928
498,1249923,23580,1.093,0.313,-0.894,323.6,93.6,47,-8,-30.7,16,0.620380261,-0.0853297525,-0.742606891,-0.237372967
499,1252108,23590,1.085,0.333,-0.897,321.5,95.2,46.7,-8,-30.7,16,0.622730186,-0.0812402722,-0.742881558,-0.231727042
500,1254150,23590,1.089,0.349,-0.905,322.8,95.4,47.7,-8,-30.7,16,0.625080111,-0.077150792,-0.743095187,-0.225989563
501,1256388,23590,1.105,0.392,-0.901,327.9,94.2,50.1,-8.8,-29.6,17.2,0.627399518,-0.0730307932,-0.743308817,-0.220160527
502,1258686,23590,1.113,0.474,-0.9,336.4,92,53.1,-8.8,-29.6,17.2,0.629657888,-0.0688497574,-0.743583483,-0.214087344
503,1261241,23600,1.109,0.518,-0.907,346.6,89.1,55.8,-8.8,-29.6,17.2,0.63185522,-0.0645466475,-0.74385815,-0.20783105
504,1263840,23600,1.109,0.549,-0.911,356.4,86.4,57.1,-8.8,-29.6,17.2,0.634022034,-0.0601825007,-0.744193854,-0.201391644
505,1266017,23600,1.101,0.639,-0.906,363.9,84.6,56.4,-9.8,-28.5,18.1,0.636097293,-0.0556962798,-0.744499039,-0.194799646
506,1269591,23600,1.081,0.663,-0.905,368.5,84.1,54,-9.8,-28.5,18.1,0.638111515,-0.0510574664,-0.744804224,-0.188146611
507,1271289,23610,1.085,0.687,-0.909,370.3,84.8,49.8,-9.8,-28.5,18.1,0.640095218,-0.0463881344,-0.74507889,-0.181524094
508,1273647,23610,1.089,0.722,-0.908,370.6,86.5,44.5,-9.8,-28.5,18.1,0.642017884,-0.0415967284,-0.745262001,-0.174962615
509,1278539,23610,1.093,0.82,-0.884,370.5,88.6,38.1,-10,-27.1,19.6,0.643910031,-0.0366527299,-0.745384075,-0.168492691
510,1278539,23610,1.085,0.847,-0.864,370.8,90.9,31.7,-10,-27.1,19.6,0.645802179,-0.0316476943,-0.745414594,-0.162083804
511,1283003,23620,1.069,0.87,-0.855,371.1,93.4,25.7,-10,-27.1,19.6,0.64763329,-0.0264900662,-0.745353557,-0.155735954
512,1285241,23620,1.061,0.882,-0.859,370.3,96.2,20.5,-10,-27.1,19.6,0.6494644,-0.0213019196,-0.745231483,-0.149479659
513,1287468,23620,1.01,0.91,-0.854,368.3,99.6,16.5,-10.8,-24.7,21.4,0.651295511,-0.015991699,-0.744987335,-0.143284402
514,1289740,23620,0.975,0.93,-0.826,366,103.8,13.6,-10.8,-24.7,21.4,0.653126621,-0.0107119968,-0.744621113,-0.1371807
515,1291661,23630,0.959,0.918,-0.802,363.8,108.9,12,-10.8,-24.7,21.4,0.65498825,-0.00540177618,-0.744132817,-0.131076998
516,1293933,23630,0.959,0.897,-0.724,361.9,114.4,11.8,-10.8,-24.7,21.4,0.656910916,-9.15555284e-05,-0.743491928,-0.125064852
517,1296336,23630,0.947,0.893,-0.693,359.4,120,12.3,-11.1,-23.7,22.4,0.658864101,0.0051576281,-0.742728965,-0.119083224
518,1298551,23630,0.947,0.889,-0.653,355.6,124.9,13.4,-11.1,-23.7,22.4,0.660847804,0.0103762932,-0.741843928,-0.113101596
519,1302700,23640,0.947,0.889,-0.653,355.6,124.9,13.4,-11.1,-23.7,22.4,0.660847804,0.0103762932,-0.741843928,-0.113101596
520,1304953,23640,0.97,0.794,-0.616,340.7,130.7,15.5,-11.1,-23.7,22.4,0.664876247,0.0204779199,-0.739707633,-0.101413007
521,1307197,23640,0.943,0.77,-0.612,329.1,131.4,15.9,-12.2,-22,23.2,0.666890469,0.0252693258,-0.738517411,-0.0957976012
522,1309504,23640,0.959,0.735,-0.605,316.6,131.6,16.3,-12.2,-22,23.2,0.668843654,0.0299081393,-0.737235633,-0.0903958251
523,1313234,23650,0.943,0.691,-0.574,305.1,132.6,17.3,-12.2,-22,23.2,0.670796838,0.0343333232,-0.735892819,-0.0851466414
524,1313560,23650,0.986,0.686,-0.543,295.3,135.4,19.4,-12.2,-22,23.2,0.672780541,0.0386059145,-0.734458449,-0.0800195318
525,1317780,23650,1.083,0.712,-0.521,286.6,140,21.8,-13,-20.7,23.8,0.674794763,0.0426953948,-0.732902005,-0.0749839778
526,1320582,23650,1.118,0.696,-0.49,277.2,145.6,24.1,-13,-20.7,23.8,0.676870022,0.0466322825,-0.731223487,-0.0700399792
527,1321009,23660,1.029,0.602,-0.47,265.4,150.8,27.7,-13,-20.7,23.8,0.679036836,0.0503250221,-0.729422895,-0.0652485733
528,1325891,23660,0.989,0.548,-0.447,251.2,154.7,34.4,-13,-20.7,23.8,0.681264687,0.0537430952,-0.727500229,-0.0605792413
529,1326330,23660,1.083,0.508,-0.496,235.9,156.2,43.9,-13.4,-19.1,24.2,0.683523057,0.0567644276,-0.725547044,-0.0559404279
530,1328548,23660,1.115,0.441,-0.537,222.1,154.5,54.4,-13.4,-19.1,24.2,0.685750908,0.0593585009,-0.723563341,-0.051454207
531,1331037,23670,0.916,0.372,-0.467,211.5,150.7,63.8,-13.4,-19.1,24.2,0.687917722,0.0617084262,-0.721610157,-0.0469679861
532,1335617,23670,0.853,0.337,-0.431,205.3,146.8,71.4,-13.4,-19.1,24.2,0.689992981,0.0638142033,-0.71968749,-0.0424817652
533,1335987,23670,0.908,0.31,-0.476,202.9,143,76,-13.9,-17.3,24.9,0.692037721,0.0658284249,-0.717825861,-0.0379345073
534,1340302,23670,0.947,0.282,-0.5,203,137.3,75.9,-13.9,-17.3,24.9,0.693929868,0.0678121281,-0.716025269,-0.0334177679
535,1342611,23680,0.982,0.297,-0.512,205.1,128.5,70.6,-13.9,-17.3,24.9,0.695699942,0.0698873867,-0.714316233,-0.028931547
536,1344655,23680,1.064,0.328,-0.537,209.4,117.4,61.6,-13.9,-17.3,24.9,0.697225867,0.0721762749,-0.712759789,-0.0245368816
537,1347013,23680,1.076,0.355,-0.521,216.8,105.8,52.2,-15,-17.2,24.9,0.698538163,0.0747398297,-0.711325419,-0.0202337718
538,1348664,23680,1.052,0.347,-0.497,227.2,95.1,45.3,-15,-17.2,24.9,0.699667348,0.0775475326,-0.710043641,-0.0158696249
539,1351278,23690,1.052,0.347,-0.466,239.7,86.3,43.7,-15,-17.2,24.9,0.700613422,0.0805383465,-0.708883938,-0.011322367
540,1353942,23690,1.033,0.327,-0.439,252.1,79.6,47.2,-15,-17.2,24.9,0.701376385,0.083681753,-0.707785272,-0.00656147954
541,1356299,23690,1.017,0.299,-0.372,262.6,75.1,53.4,-15.5,-16.1,25.6,0.70207831,0.0868861965,-0.706747642,-0.00155644398
542,1358478,23690,1.024,0.31,-0.321,270.1,72.6,59,-15.5,-16.1,25.6,0.702658162,0.0901211585,-0.705740532,0.00363170263
543,1360973,23700,1.04,0.336,-0.251,274.9,71.8,61.8,-15.5,-16.1,25.6,0.703207495,0.0933561205,-0.704733421,0.00894192328
544,1365486,23700,1.054,0.396,-0.055,278.4,72.1,60.9,-15.5,-16.1,25.6,0.70372631,0.096682638,-0.703695791,0.0143131809
545,1367811,23700,1.062,0.438,0.027,282.1,72.3,57.2,-15.6,-14.7,25.6,0.704214606,0.10013123,-0.702597125,0.0196539201
546,1370515,23700,1.054,0.487,0.114,287.9,71.4,51.9,-15.6,-14.7,25.6,0.704641865,0.103701895,-0.70146794,0.0250251778
547,1373012,23710,1.061,0.545,0.197,296.5,69.6,45.5,-15.6,-14.7,25.6,0.704977569,0.107516709,-0.700338755,0.0303964354
548,1373497,23710,1.263,0.647,0.327,308.8,67.9,39,-15.6,-14.7,25.6,0.705252235,0.111636708,-0.699148534,0.0359202857
549,1378038,23710,1.314,0.695,0.46,326,68.7,33,-16.2,-12.8,26.1,0.705465865,0.11609241,-0.697897275,0.0415356914
550,1380356,23710,1.419,0.708,0.552,349.8,74.9,28.9,-16.2,-12.8,26.1,0.705679495,0.120975372,-0.696462905,0.0475173193
551,1382664,23720,1.571,0.757,0.589,382.6,89.4,27.6,-16.2,-12.8,26.1,0.70598468,0.126346629,-0.694753868,0.0539872433
552,1384785,23720,1.511,0.889,0.749,425.2,114.1,29,-16.2,-12.8,26.1,0.706472976,0.132297739,-0.692526017,0.0611896115
553,1387053,23720,1.449,1.007,0.728,476.3,147.7,32.2,-16.2,-10.3,26.5,0.707235939,0.138950774,-0.689687796,0.069307535
554,1388940,23720,1.187,1.116,0.753,532,187,37,-16.2,-10.3,26.5,0.708334605,0.146305734,-0.686056093,0.0784630879
555,1390971,23730,1.023,1.509,0.624,587.7,226.8,42.7,-16.2,-10.3,26.5,0.709707938,0.154362621,-0.681600391,0.0886257515
556,1393617,23730,0.816,1.77,0.599,640,263,48.6,-16.2,-10.3,26.5,0.7112949,0.163029878,-0.676381726,0.0997650075
557,1396198,23730,0.456,2.048,0.691,687.4,293.4,54.7,-17,-8.2,26.6,0.7129429,0.172215949,-0.670430616,0.1117893
558,1398854,23730,0.456,2.175,0.626,727.6,316.4,61.8,-17,-8.2,26.6,0.714590899,0.181829279,-0.663869137,0.124576556
559,1402740,23740,0.061,2.583,0.697,757.5,332.6,68.6,-17,-8.2,26.6,0.716086306,0.191717277,-0.656788842,0.137913144
560,1404976,23740,-0.165,2.731,0.711,774.4,345,72.7,-17,-8.2,26.6,0.717459639,0.201696829,-0.649250771,0.151554918
561,1407279,23740,-0.29,2.72,0.752,774.8,357.5,71.3,-17.8,-4.4,26,0.718741417,0.211584826,-0.641315958,0.165196692
562,1409059,23740,-0.655,2.737,0.982,755.4,372.2,63.9,-17.8,-4.4,26,0.72011475,0.221167638,-0.632923368,0.178472243
563,1411397,23750,-0.671,2.617,1.106,712.3,386.7,50,-17.8,-4.4,26,0.721732231,0.23014008,-0.624225593,0.190923795
564,1413674,23750,-0.518,2.442,1.156,644.2,394.9,29.9,-17.8,-4.4,26,0.723624378,0.238196966,-0.615375225,0.202124088
565,1416227,23750,-0.346,1.9,1.267,553.3,389.4,6.4,-19.3,-1.3,24.5,0.725882748,0.24509415,-0.606769005,0.211676382
566,1418499,23750,-0.279,1.626,1.189,446.8,365.7,-13.9,-19.3,-1.3,24.5,0.728354747,0.250648518,-0.598773156,0.219306009
567,1422992,23760,-0.302,1.318,1.091,333.5,325.9,-25.2,-19.3,-1.3,24.5,0.730857265,0.25470748,-0.591845454,0.22501297
568,1424968,23760,-0.149,1.105,1.019,222,275.2,-25.3,-19.3,-1.3,24.5,0.733298746,0.257209998,-0.58619953,0.229010895
569,1427114,23760,0.152,0.833,0.882,118.1,217.7,-18.2,-20.7,0.3,23.7,0.735496078,0.258247627,-0.582018494,0.231452376
570,1429120,23760,0.16,0.548,0.757,24.6,156.5,-9.6,-20.7,0.3,23.7,0.737388226,0.257972961,-0.579332865,0.232490005
571,1431192,23770,0.274,0.41,0.667,-57.8,95.1,-3.8,-20.7,0.3,23.7,0.738914151,0.256599628,-0.578051088,0.232215339
572,1433798,23770,0.391,0.39,0.645,-128,37.8,-1.3,-20.7,0.3,23.7,0.740134892,0.254371776,-0.578081606,0.230811487
573,1436359,23770,0.376,0.334,0.676,-182.4,-13,-0.3,-20.6,0.6,23.2,0.740958892,0.251472518,-0.579210791,0.228431043
574,1438686,23770,0.465,0.356,0.71,-218.7,-57,1.3,-20.6,0.6,23.2,0.741416669,0.248207038,-0.581225013,0.225348674
575,1441261,23780,0.559,0.378,0.732,-238.6,-96.1,4.6,-20.6,0.6,23.2,0.741477706,0.244758446,-0.583971679,0.221900082
576,1443558,23780,0.727,0.424,0.706,-246,-132.6,9.9,-20.6,0.6,23.2,0.741019929,0.241309854,-0.587359233,0.218207343
577,1447229,23780,0.77,0.451,0.682,-244.5,-167.2,17.1,-20.4,-1.2,23.6,0.740073855,0.2379223,-0.591296121,0.214453566
578,1449644,23780,0.813,0.502,0.647,-236.7,-196.8,25.4,-20.4,-1.2,23.6,0.738639485,0.234687338,-0.595690786,0.210791345
579,1451420,23790,0.825,0.538,0.596,-224.9,-215.9,33.4,-20.4,-1.2,23.6,0.736808374,0.231604968,-0.600390637,0.207251198
580,1453737,23790,0.845,0.601,0.542,-210.7,-220.3,39,-20.4,-1.2,23.6,0.734794153,0.22870571,-0.605059969,0.204046754
581,1456099,23790,0.813,0.606,0.503,-195,-209.1,40.8,-20.2,-1.8,24.3,0.73281045,0.225959044,-0.609454634,0.201086459
582,1458768,23790,0.739,0.604,0.461,-179,-185.2,38.2,-20.2,-1.8,24.3,0.731040376,0.223395489,-0.613391522,0.19840083
583,1461273,23800,0.677,0.617,0.42,-164.4,-154.6,31.7,-20.2,-1.8,24.3,0.729636525,0.221015046,-0.616718039,0.195928831
584,1463530,23800,0.634,0.689,0.347,-152.3,-123.4,21.8,-20.2,-1.8,24.3,0.728598895,0.218817713,-0.619434187,0.193639943
585,1466034,23800,0.631,0.718,0.3,-136.2,-79.4,-3.9,-19.4,-2.6,24.5,0.728202155,0.217017121,-0.621265297,0.191351054
586,1470475,23800,0.627,0.73,0.269,-136.2,-79.4,-3.9,-19.4,-2.6,24.5,0.727774895,0.215277566,-0.623065889,0.189062166
587,1472841,23810,0.658,0.726,0.202,-132.2,-70.1,-17.3,-19.4,-2.6,24.5,0.727500229,0.213690603,-0.624622333,0.186651204
588,1474650,23810,0.744,0.753,0.189,-131,-67,-29.9,-19.4,-2.6,24.5,0.727317118,0.212286752,-0.626087222,0.184087649
589,1476980,23810,0.854,0.795,0.18,-132.8,-67.6,-42.1,-19.1,-3.1,24.9,0.727195044,0.211035493,-0.627491073,0.181279946
590,1478893,23810,0.889,0.787,0.167,-137.2,-69.3,-53.5,-19.1,-3.1,24.9,0.72707297,0.209845271,-0.628894925,0.178228095
591,1481245,23820,0.893,0.658,0.154,-144.7,-69.8,-63.2,-19.1,-3.1,24.9,0.727011933,0.208685568,-0.630268258,0.174932096
592,1484586,23820,0.936,0.633,0.172,-154.6,-67.5,-71.2,-19.1,-3.1,24.9,0.72707297,0.207464827,-0.631611072,0.171361431
593,1487462,23820,0.963,0.621,0.195,-165.7,-62.2,-79,-18.9,-2.7,26.2,0.727256081,0.20618305,-0.632831812,0.167546617
594,1489810,23820,1.03,0.561,0.217,-175.9,-55.6,-88.1,-18.9,-2.7,26.2,0.727591784,0.204809717,-0.633960997,0.163457137
595,1491647,23830,1.069,0.54,0.243,-184.2,-49.6,-98.6,-18.9,-2.7,26.2,0.728049562,0.203405866,-0.634968108,0.159123508
596,1493855,23830,1.1,0.52,0.25,-190.4,-45.7,-108.6,-18.9,-2.7,26.2,0.728629414,0.202063051,-0.635853145,0.154515213
597,1496109,23830,1.112,0.485,0.25,-194.6,-43.8,-116.2,-19,-5.2,25,0.729270302,0.200720237,-0.636707663,0.149815363
598,1498676,23830,1.104,0.418,0.257,-197.3,-43.2,-120.3,-19,-5.2,25,0.729911191,0.199377422,-0.637501144,0.14496292
599,1500997,23840,1.108,0.383,0.268,-198.2,-42.9,-121.1,-19,-5.2,25,0.73055208,0.198034608,-0.638264107,0.140079958
600,1505522,23840,1.112,0.347,0.287,-197.5,-42.1,-119.9,-19,-5.2,25,0.731192969,0.196691794,-0.63902707,0.135227515
601,1507867,23840,1.147,0.303,0.298,-195.3,-41.2,-118.2,-19,-5.2,25,0.73177282,0.195348979,-0.639728996,0.130466628
602,1509889,23840,1.182,0.302,0.313,-192.2,-41,-117,-19,-5.2,25,0.732352672,0.194036683,-0.640430921,0.125736259
603,1511526,23850,1.201,0.302,0.312,-189.2,-41.8,-116.3,-19,-5.2,25,0.732871487,0.192724387,-0.641102329,0.121036409
604,1513743,23850,1.209,0.298,0.304,-186.9,-44,-115.9,-19,-5.2,25,0.733359783,0.191473128,-0.641804254,0.116397595
605,1517069,23850,1.197,0.314,0.297,-185.5,-49.7,-112.7,-19,-5.2,25,0.733695486,0.19022187,-0.642597736,0.1117893
606,1519013,23850,1.178,0.315,0.282,-185.5,-49.7,-112.7,-19,-5.2,25,0.734061708,0.188940092,-0.643391217,0.107150487
607,1521210,23860,1.17,0.311,0.262,-187.2,-52.6,-109.1,-19,-5.2,25,0.734336375,0.187597278,-0.644215217,0.10257271
608,1523535,23860,1.135,0.32,0.239,-190.3,-56,-104.3,-19,-5.2,25,0.734550005,0.186132389,-0.645100253,0.0979949339
609,1526052,23860,1.135,0.316,0.208,-194.2,-59.9,-98.9,-19,-5.2,25,0.734702597,0.184545427,-0.646046327,0.0934171575
610,1530516,23860,1.139,0.313,0.169,-198.1,-64.5,-93.8,-19,-5.2,25,0.734763634,0.18283639,-0.647114475,0.0888698996
611,1532801,23870,1.151,0.298,0.133,-201.4,-69.5,-89.4,-19,-5.2,25,0.734733116,0.18100528,-0.64824366,0.0842921232
612,1535166,23870,1.179,0.282,0.074,-203.6,-74.3,-85.7,-19,-5.2,25,0.73464156,0.179082614,-0.6494644,0.0797448653
613,1537331,23870,1.218,0.24,0.006,-204.1,-77.7,-82.4,-18.1,-9,26.2,0.734488968,0.17709891,-0.650746178,0.0752281259
614,1539069,23870,1.218,0.193,-0.017,-201.8,-77.8,-79.3,-18.1,-9,26.2,0.734275338,0.175115207,-0.651997436,0.070802942
615,1541368,23880,1.148,0.151,-0.012,-195.6,-72.6,-76.6,-18.1,-9,26.2,0.734092227,0.173192541,-0.65315714,0.0664998321
616,1543938,23880,1.121,0.158,0.023,-184.3,-60.8,-74.6,-18.1,-9,26.2,0.73403119,0.171391949,-0.654133732,0.0624408704
617,1546591,23880,1.117,0.177,0.066,-168.5,-43.4,-73.6,-18.1,-9,26.2,0.734122745,0.169804987,-0.654774621,0.0587176122
618,1548836,23880,1.116,0.2,0.105,-150.4,-24.2,-73.2,-18.1,-9,26.2,0.734427931,0.168462172,-0.655079806,0.0552995392
619,1551179,23890,1.077,0.212,0.122,-133.6,-7.5,-72.6,-18.1,-9,26.2,0.734885708,0.167363506,-0.655079806,0.0521866512
620,1553724,23890,1.054,0.209,0.107,-121.1,3.6,-71.5,-18.1,-9,26.2,0.73546556,0.166447951,-0.654896695,0.0493179113
621,1556406,23890,1.03,0.221,0.088,-114.6,8.8,-69.2,-18.1,-9,26.2,0.73607593,0.165593432,-0.654622028,0.046601764
622,1558663,23890,1.003,0.23,0.08,-113.7,8.7,-66,-18.1,-9,26.2,0.7366863,0.164677877,-0.65437788,0.0439466536
623,1560954,23900,0.964,0.258,0.062,-116.8,5.3,-62.1,-18.1,-9,26.2,0.737235633,0.163701285,-0.654164251,0.0412915433
624,1565127,23900,0.949,0.27,0.054,-122.1,0,-58,-18.1,-9,26.2,0.73772393,0.162541581,-0.654072695,0.0386059145
625,1567110,23900,0.929,0.286,0.031,-133.6,-12.1,-49.7,-18.1,-9,26.2,0.737846004,0.161229286,-0.654408399,0.0358287301
626,1569140,23900,0.925,0.286,0.016,-133.6,-12.1,-49.7,-18.1,-9,26.2,0.738181707,0.159794916,-0.654530473,0.0330820643
627,1571390,23910,0.921,0.298,0.016,-138.3,-18.2,-45.6,-18.1,-9,26.2,0.738425855,0.158207953,-0.654774621,0.0302743614
628,1574642,23910,0.921,0.302,0.012,-141.6,-23.9,-41.9,-18.1,-9,26.2,0.738608966,0.156559954,-0.655110324,0.0275276955
629,1576393,23910,0.925,0.306,0.02,-143.6,-28.5,-38.9,-18.1,-9,26.2,0.738700522,0.154820399,-0.655507065,0.0247505112
630,1578676,23910,0.925,0.345,0.028,-144.1,-31.8,-36.9,-18.1,-9,26.2,0.73873104,0.153019807,-0.655964843,0.0219733268
631,1581179,23920,0.925,0.365,0.04,-143.4,-33.4,-35.7,-18.1,-9,26.2,0.738761559,0.151249733,-0.656453139,0.019226661
632,1585810,23920,0.917,0.376,0.052,-142,-33.5,-35.3,-18.1,-9,26.2,0.738761559,0.149479659,-0.656941435,0.0164799951
633,1586174,23920,0.905,0.392,0.049,-140.7,-32.6,-35.1,-17.4,-13.5,25.9,0.738761559,0.147679067,-0.657399213,0.0138248848
634,1590582,23920,0.905,0.408,0.053,-139.9,-31.4,-34.9,-17.4,-13.5,25.9,0.738761559,0.145970031,-0.657826472,0.0111697745
635,1592602,23930,0.913,0.423,0.049,-139.6,-30.2,-34.9,-17.4,-13.5,25.9,0.738792077,0.144230476,-0.658223212,0.00848414563
636,1595325,23930,0.913,0.443,0.049,-139.7,-29.2,-35.2,-17.4,-13.5,25.9,0.738792077,0.142490921,-0.658619953,0.00582903531
637,1597696,23930,0.925,0.478,0.038,-140.2,-28.3,-35.8,-17.4,-13.5,25.9,0.738822596,0.140751366,-0.658986175,0.00314340648
638,1599840,23930,0.921,0.498,0.038,-141.2,-27.7,-36.1,-17.4,-13.5,25.9,0.738853114,0.138981292,-0.659321879,0.000457777642
639,1602156,23940,0.913,0.506,0.027,-143,-27.6,-36,-17.4,-13.5,25.9,0.738914151,0.137211219,-0.659657582,-0.0022583697
640,1604014,23940,0.902,0.515,-0.003,-145.8,-28.2,-35.1,-17.4,-13.5,25.9,0.738914151,0.13534959,-0.659993286,-0.00500503555
641,1606339,23940,0.913,0.515,-0.019,-149.4,-29.6,-33.8,-17.4,-13.5,25.9,0.73894467,0.133426923,-0.660359508,-0.00778221992
642,1609101,23940,0.917,0.515,-0.023,-153.5,-31.6,-32.5,-17.4,-13.5,25.9,0.738914151,0.131412702,-0.660756249,-0.0106204413
643,1611372,23950,0.921,0.515,-0.039,-157.2,-34,-31.9,-17.4,-13.5,25.9,0.738853114,0.129337443,-0.661122471,-0.0134891812
644,1613668,23950,0.921,0.499,-0.051,-160.2,-35.7,-32.5,-17.4,-13.5,25.9,0.738792077,0.127170629,-0.661580248,-0.0164189581
645,1617943,23950,0.929,0.511,-0.039,-163.1,-35.4,-37.2,-17.4,-13.5,25.9,0.738364818,0.125980407,-0.662190619,-0.0202337718
646,1620154,23950,0.929,0.511,-0.039,-163.1,-35.4,-37.2,-17.4,-13.5,25.9,0.738273263,0.12387463,-0.662587359,-0.0232856227
647,1622366,23960,0.929,0.53,-0.019,-163.2,-33.3,-41.2,-17.4,-13.5,25.9,0.738212226,0.12182989,-0.662923063,-0.0263679922
648,1624579,23960,0.937,0.542,-0.016,-163.1,-30.7,-45.3,-17.4,-13.5,25.9,0.738181707,0.119846187,-0.663197729,-0.0295419172
649,1628098,23960,0.945,0.549,-0.008,-163.3,-28.3,-49.1,-17.4,-13.5,25.9,0.738151189,0.117923521,-0.663411359,-0.0328073977
650,1628733,23960,0.956,0.542,-0.008,-164.1,-26.9,-51.5,-17.4,-13.5,25.9,0.738151189,0.116000855,-0.66359447,-0.0360728782
651,1632002,23970,0.956,0.522,-0.004,-165.8,-26.4,-52.2,-17.4,-13.5,25.9,0.73812067,0.11404767,-0.663747063,-0.0393993957
652,1633785,23970,0.948,0.522,0.01,-167.5,-26.4,-51.5,-17.4,-13.5,25.9,0.73812067,0.112063967,-0.663899655,-0.0427259133
653,1637748,23970,0.945,0.514,0.01,-168.7,-26.4,-50.3,-16.8,-17.9,24.5,0.738090152,0.110049745,-0.664021729,-0.0460219123
654,1639936,23970,0.933,0.518,0.026,-168.8,-25.8,-49.4,-16.8,-17.9,24.5,0.738059633,0.108005005,-0.664143803,-0.0493484298
655,1641904,23980,0.913,0.518,0.046,-168,-24.6,-49.4,-16.8,-17.9,24.5,0.738059633,0.106021302,-0.664265877,-0.0526139103
656,1644343,23980,0.909,0.526,0.042,-166.5,-23.3,-50.2,-16.8,-17.9,24.5,0.738029115,0.104037599,-0.664326914,-0.0559099094
657,1646377,23980,0.901,0.533,0.054,-164.9,-22.5,-51.3,-16.8,-17.9,24.5,0.737998596,0.102084414,-0.664357433,-0.0591753899
658,1650487,23980,0.894,0.545,0.07,-163.4,-22.2,-52.2,-16.8,-17.9,24.5,0.737968078,0.100192267,-0.664387951,-0.0624103519
659,1652666,23990,0.886,0.553,0.067,-161.8,-22.4,-52.6,-16.8,-17.9,24.5,0.737937559,0.0983306375,-0.664387951,-0.0656758324
660,1654907,23990,0.878,0.557,0.075,-157.6,-23.2,-51.5,-16.8,-17.9,24.5,0.737846004,0.096499527,-0.664448988,-0.0688192389
661,1657167,23990,0.866,0.569,0.087,-155,-23.4,-50.6,-16.8,-17.9,24.5,0.737754448,0.0946989349,-0.664479507,-0.0719321268
662,1659173,23990,0.835,0.585,0.095,-152.2,-23.1,-49.5,-16.8,-17.9,24.5,0.737662893,0.0929288614,-0.664510025,-0.0749839778
663,1661448,24000,0.819,0.593,0.096,-149.9,-22.7,-48.7,-16.8,-17.9,24.5,0.737540819,0.0911893063,-0.664510025,-0.0780053102
664,1665543,24000,0.807,0.601,0.092,-148.8,-22.4,-48.1,-16.8,-17.9,24.5,0.737418744,0.0894497513,-0.664510025,-0.0809656056
665,1667856,24000,0.792,0.613,0.085,-149.2,-22.7,-47.5,-16.8,-17.9,24.5,0.737144078,0.0890530107,-0.664357433,-0.0851771599
666,1669915,24000,0.788,0.609,0.085,-151.5,-23.6,-46.6,-16.8,-17.9,24.5,0.737022004,0.0872524186,-0.664357433,-0.0881679739
667,1671540,24010,0.788,0.613,0.081,-154.8,-24.9,-45.8,-16.8,-17.9,24.5,0.736838893,0.085360271,-0.664387951,-0.0911893063
668,1675791,24010,0.788,0.609,0.065,-158.5,-26.2,-44.9,-16.8,-17.9,24.5,0.736655782,0.0834376049,-0.664387951,-0.0942716758
669,1676211,24010,0.815,0.597,0.053,-161.9,-27.2,-44.4,-16.8,-17.9,24.5,0.736472671,0.0814233833,-0.66441847,-0.0973845637
670,1680161,24010,0.808,0.585,0.061,-164.5,-27.6,-44.2,-16.8,-17.9,24.5,0.736259041,0.0793481246,-0.66441847,-0.10052797
671,1682476,24020,0.804,0.586,0.057,-166.2,-27.5,-44.5,-16.8,-17.9,24.5,0.736045412,0.0772423475,-0.66441847,-0.103701895
672,1684824,24020,0.796,0.566,0.033,-167.3,-26.8,-45,-16.8,-17.9,24.5,0.735831782,0.0751670888,-0.664387951,-0.10687582
673,1686631,24020,0.792,0.555,0.021,-168,-25.8,-45.6,-15.9,-22.1,22.7,0.735618152,0.0730613117,-0.664326914,-0.110110782
674,1690734,24020,0.8,0.547,0.013,-169.2,-25.1,-46.1,-15.9,-22.1,22.7,0.735404523,0.0709555345,-0.664265877,-0.113345744
675,1691154,24030,0.804,0.535,0.001,-171,-24.8,-46.5,-15.9,-22.1,22.7,0.735190893,0.0688192389,-0.664143803,-0.116611225
676,1695594,24030,0.808,0.524,-0.021,-173.6,-25,-46.8,-15.9,-22.1,22.7,0.734977264,0.0666524247,-0.664052248,-0.119907224
677,1697795,24030,0.8,0.516,-0.033,-176.6,-25.3,-47,-15.9,-22.1,22.7,0.734733116,0.0644245735,-0.663899655,-0.12326426
678,1699779,24030,0.793,0.501,-0.053,-179.8,-25.7,-47.2,-15.9,-22.1,22.7,0.734488968,0.0621662038,-0.663777581,-0.126651814
679,1702264,24040,0.8,0.49,-0.084,-182.9,-26,-47.4,-15.9,-22.1,22.7,0.734214301,0.0598467971,-0.663624989,-0.130100406
680,1704031,24040,0.801,0.474,-0.096,-185.9,-26.4,-47.8,-15.9,-22.1,22.7,0.733939634,0.0574968719,-0.663441877,-0.133579516
681,1707086,24040,0.793,0.463,-0.112,-188.5,-26.9,-48.6,-15.9,-22.1,22.7,0.733634449,0.0550859096,-0.663258766,-0.137119663
682,1708870,24040,0.809,0.447,-0.128,-191.3,-27.3,-49.9,-15.9,-22.1,22.7,0.733298746,0.0526749474,-0.663045137,-0.140720847
683,1711207,24050,0.828,0.431,-0.152,-194.1,-27.8,-51.6,-15.9,-22.1,22.7,0.732963042,0.0502334666,-0.662831507,-0.144383068
684,1713763,24050,0.832,0.428,-0.164,-196.9,-28.1,-53.9,-15.9,-22.1,22.7,0.73259682,0.0477614673,-0.662617878,-0.148136845
685,1717047,24050,0.836,0.408,-0.18,-199.5,-28.4,-56.1,-15.9,-22.1,22.7,0.731437117,0.0459303568,-0.663014618,-0.152348399
686,1718685,24050,0.828,0.397,-0.184,-202.2,-28.9,-58.4,-15.9,-22.1,22.7,0.731040376,0.043488876,-0.662739952,-0.15622425
687,1723634,24060,0.828,0.377,-0.196,-205.5,-29.8,-60.7,-15.9,-22.1,22.7,0.730582598,0.0409863582,-0.662465285,-0.160191656
688,1723634,24060,0.828,0.369,-0.2,-209.3,-31.3,-63.5,-15.9,-22.1,22.7,0.730094302,0.0384533219,-0.6621601,-0.164250618
689,1726328,24060,0.832,0.354,-0.208,-213.7,-33.8,-67,-15.9,-22.1,22.7,0.729544969,0.0358897671,-0.661885434,-0.168431654
690,1730186,24060,0.84,0.358,-0.216,-218.4,-37.4,-71.3,-15.9,-22.1,22.7,0.72890408,0.0332956938,-0.661610767,-0.172765282
691,1732462,24070,0.828,0.361,-0.192,-223.3,-42,-76,-15.9,-22.1,22.7,0.728141118,0.0307016205,-0.661366619,-0.177220985
692,1734605,24070,0.84,0.346,-0.22,-229,-47.9,-80.7,-15.9,-22.1,22.7,0.727286599,0.0280465102,-0.661183508,-0.181829279
693,1736457,24070,0.868,0.338,-0.248,-235.3,-55.3,-84.8,-14.3,-26.4,19,0.726279489,0.0252693258,-0.661061434,-0.186620685
694,1738752,24070,0.958,0.381,-0.272,-241.8,-63.8,-87.7,-14.3,-26.4,19,0.725119785,0.022461623,-0.661030915,-0.191534165
695,1741134,24080,0.926,0.365,-0.276,-247.7,-72,-88.6,-14.3,-26.4,19,0.723838008,0.0195318461,-0.661061434,-0.196508683
696,1746026,24080,0.946,0.342,-0.304,-252.4,-79.3,-86.9,-14.3,-26.4,19,0.722403638,0.0164799951,-0.661183508,-0.201574755
697,1746399,24080,0.97,0.342,-0.308,-255.9,-85.6,-82.8,-14.3,-26.4,19,0.720877712,0.0132450331,-0.661366619,-0.206610309
698,1748723,24080,0.985,0.33,-0.305,-257.8,-91.1,-78,-14.3,-26.4,19,0.71929075,0.00991851558,-0.661610767,-0.211584826
699,1753085,24090,1.052,0.314,-0.349,-258.2,-96.4,-73.6,-14.3,-26.4,19,0.717581713,0.00646992401,-0.661915952,-0.216467788
700,1755405,24090,1.056,0.322,-0.345,-257,-100.7,-70.3,-14.3,-26.4,19,0.71581164,0.00299081393,-0.662251656,-0.221289712
701,1757734,24090,1.044,0.321,-0.278,-254.9,-103.8,-68.2,-14.3,-26.4,19,0.713980529,-0.000488296152,-0.662617878,-0.2260506
702,1760602,24090,1.083,0.301,-0.291,-252.7,-106.1,-67.3,-14.3,-26.4,19,0.7121189,-0.00396740623,-0.663014618,-0.23075045
703,1762789,24100,1.106,0.316,-0.272,-251.6,-108.2,-67.8,-14.3,-26.4,19,0.710165716,-0.00744651631,-0.663411359,-0.235419782
704,1765003,24100,1.223,0.307,-0.266,-252,-110.7,-69.2,-14.3,-26.4,19,0.708151494,-0.0108951079,-0.663838618,-0.240119633
705,1767357,24100,1.274,0.287,-0.303,-253,-112.3,-70.7,-14.3,-26.4,19,0.706076235,-0.014374218,-0.664265877,-0.244850002
706,1769580,24100,1.286,0.283,-0.291,-253,-111.3,-71.5,-14.3,-26.4,19,0.704000977,-0.0178228095,-0.664632099,-0.24958037
707,1771514,24110,1.301,0.286,-0.268,-250.6,-106.5,-71,-14.3,-26.4,19,0.701956236,-0.0212408826,-0.664906766,-0.254249702
708,1775403,24110,1.348,0.285,-0.249,-245.6,-98,-69.3,-14.3,-26.4,19,0.700003052,-0.0245368816,-0.665089877,-0.258827479
709,1777675,24110,1.411,0.273,-0.278,-239.2,-87.4,-67,-14.3,-26.4,19,0.698232978,-0.0277108066,-0.665089877,-0.263283181
710,1779670,24110,1.438,0.292,-0.266,-232.5,-75.3,-64.6,-14.3,-26.4,19,0.696615497,-0.0307626576,-0.664937284,-0.267586291
711,1783474,24120,1.399,0.28,-0.234,-225.8,-62,-62.4,-14.3,-26.4,19,0.695181127,-0.0336313974,-0.664571062,-0.271767327
712,1783898,24120,1.297,0.261,-0.178,-219.3,-47.2,-60.4,-14.3,-26.4,19,0.693960387,-0.0363780633,-0.664021729,-0.275826289
713,1786088,24120,1.25,0.25,-0.146,-213.5,-32.5,-59.2,-11.5,-31.5,14.5,0.692953276,-0.0389416181,-0.663289285,-0.279763176
714,1790837,24120,1.238,0.269,-0.126,-208.8,-20.5,-59.6,-11.5,-31.5,14.5,0.692129276,-0.0413525803,-0.66237373,-0.283669546
715,1791214,24130,1.195,0.289,-0.133,-205,-12.7,-61.5,-11.5,-31.5,14.5,0.691366314,-0.0436414686,-0.6613361,-0.287575915
716,1794390,24130,1.168,0.294,-0.14,-201.4,-9.2,-64.1,-11.5,-31.5,14.5,0.690633869,-0.0458082827,-0.660267953,-0.291421247
717,1796219,24130,1.137,0.294,-0.147,-197.3,-8.5,-65.9,-11.5,-31.5,14.5,0.689870907,-0.0478835414,-0.659199805,-0.295266579
718,1798484,24130,1.075,0.319,-0.185,-192.1,-9.2,-66.6,-11.5,-31.5,14.5,0.689107944,-0.049897763,-0.658162175,-0.299020356
719,1801131,24140,1.059,0.323,-0.196,-185.8,-10,-66.6,-11.5,-31.5,14.5,0.688314463,-0.0517899106,-0.657155065,-0.302682577
720,1805582,24140,1.047,0.335,-0.216,-178.7,-10.7,-66.4,-11.5,-31.5,14.5,0.687520981,-0.0535905026,-0.656208991,-0.306222724
721,1805975,24140,1.024,0.344,-0.231,-171.4,-11,-66.2,-11.5,-31.5,14.5,0.6867275,-0.0552995392,-0.655323954,-0.309640797
722,1808547,24140,0.997,0.36,-0.261,-164.7,-10.9,-66,-11.5,-31.5,14.5,0.6859035,-0.0568865017,-0.654438917,-0.312967315
723,1813070,24150,1.001,0.36,-0.265,-159.4,-10.6,-66.1,-11.5,-31.5,14.5,0.685110019,-0.0583819086,-0.653584399,-0.316232795
724,1813457,24150,1.001,0.345,-0.281,-156.5,-10.3,-66.7,-11.5,-31.5,14.5,0.684286019,-0.0598467971,-0.652729881,-0.319437239
725,1816030,24150,1.009,0.321,-0.293,-155.9,-10.2,-68.1,-10.2,-34.2,9.8,0.68346202,-0.061281167,-0.651905881,-0.322672201
726,1820642,24150,1.009,0.314,-0.294,-157.3,-10.9,-69.9,-10.2,-34.2,9.8,0.682607501,-0.062715537,-0.651020844,-0.325937681
727,1821079,24160,1.028,0.282,-0.302,-160.4,-12.7,-71.7,-10.2,-34.2,9.8,0.681691946,-0.0641804254,-0.650166326,-0.329264199
728,1823663,24160,1.048,0.25,-0.299,-164.8,-16,-73.4,-10.2,-34.2,9.8,0.680654317,-0.0657063509,-0.649342326,-0.332651753
729,1827381,24160,1.052,0.179,-0.28,-169.8,-20.3,-74.8,-10.2,-34.2,9.8,0.679616688,-0.0672933134,-0.648487808,-0.336161382
730,1829476,24160,1.059,0.152,-0.269,-174.1,-25.1,-75.5,-10.2,-34.2,9.8,0.678426466,-0.0690023499,-0.647694327,-0.339701529
731,1831361,24170,1.071,0.12,-0.262,-176.8,-29.8,-75.1,-10.2,-34.2,9.8,0.677175207,-0.0707724235,-0.646931364,-0.343241676
732,1835467,24170,1.083,0.108,-0.246,-177.2,-34.1,-73.5,-10.2,-34.2,9.8,0.675862911,-0.0726340526,-0.646229438,-0.346781823
733,1838073,24170,1.126,0.072,-0.22,-176.1,-38.5,-70.8,-9.1,-35.1,8.7,0.674520096,-0.0744956816,-0.645558031,-0.350260933
734,1838524,24170,1.137,0.044,-0.209,-174.3,-43.3,-67.1,-9.1,-35.1,8.7,0.673085726,-0.0764488662,-0.644978179,-0.353617969
735,1841188,24180,1.149,0.028,-0.19,-172.6,-48.4,-62.5,-9.1,-35.1,8.7,0.671620838,-0.0784936064,-0.644459365,-0.35688345
736,1843554,24180,1.172,0.015,-0.155,-171.4,-53.4,-57.4,-9.1,-35.1,8.7,0.670125431,-0.0805993835,-0.644001587,-0.360057375
737,1846085,24180,1.188,0.019,-0.132,-170.6,-58,-52,-8.4,-35.2,7.9,0.668599506,-0.0828272347,-0.643604846,-0.363109226
738,1848575,24180,1.192,0.03,-0.112,-170,-61.8,-46.6,-8.4,-35.2,7.9,0.667043062,-0.0851466414,-0.643238624,-0.366039003
739,1852984,24190,1.18,0.03,-0.097,-169.4,-64.9,-41.2,-8.4,-35.2,7.9,0.665486618,-0.0875576037,-0.642902921,-0.368907743
740,1855293,24190,1.176,0.053,-0.081,-168.9,-66.9,-36,-8.4,-35.2,7.9,0.663930174,-0.090029603,-0.642567217,-0.371654408
741,1857871,24190,1.164,0.061,-0.072,-168.4,-68.2,-31.2,-8.6,-35.7,7.2,0.66237373,-0.0925931578,-0.642231513,-0.374340037
742,1860516,24190,1.16,0.081,-0.076,-167.9,-68.5,-27,-8.6,-35.7,7.2,0.660847804,-0.0951872311,-0.641926328,-0.376934111
743,1862532,24200,1.125,0.116,-0.067,-167.1,-67.7,-23.8,-8.6,-35.7,7.2,0.659352397,-0.0978118229,-0.641560106,-0.379497665
744,1864837,24200,1.117,0.132,-0.075,-165.6,-66.1,-21.5,-8.6,-35.7,7.2,0.657887509,-0.100466933,-0.641193884,-0.381969665
745,1867008,24200,1.102,0.16,-0.086,-162.9,-63.9,-20.2,-7.8,-36,6.8,0.656483657,-0.103030488,-0.640797143,-0.384411145
746,1869561,24200,1.086,0.176,-0.093,-159.4,-61.4,-19.7,-7.8,-36,6.8,0.655079806,-0.105563524,-0.640369884,-0.386761071
747,1871579,24210,1.051,0.204,-0.112,-155,-58.7,-20,-7.8,-36,6.8,0.653736991,-0.108005005,-0.639942625,-0.389080477
748,1873577,24210,1.043,0.228,-0.115,-150.2,-55.7,-21.1,-7.8,-36,6.8,0.652424696,-0.110324412,-0.639515366,-0.391338847
749,1876199,24210,1.043,0.228,-0.115,-150.2,-55.7,-21.1,-7.8,-36,6.8,0.652424696,-0.110324412,-0.639515366,-0.391338847
750,1878480,24210,1.004,0.26,-0.13,-139.2,-49.5,-24.6,-7.8,-36,6.8,0.649891659,-0.114566485,-0.638630329,-0.395733512
751,1883033,24220,0.977,0.26,-0.129,-133.4,-46.7,-26.9,-7.8,-36,6.8,0.648670919,-0.116489151,-0.63820307,-0.397869808
752,1885184,24220,0.981,0.268,-0.129,-127.7,-44,-29.4,-7.8,-36,6.8,0.647480697,-0.118259224,-0.63780633,-0.399945067
753,1887354,24220,0.977,0.28,-0.125,-122,-41.8,-31.8,-7.6,-36.8,5.3,0.646290475,-0.119907224,-0.637409589,-0.401989807
754,1889635,24220,0.973,0.284,-0.129,-116.5,-39.9,-34,-7.6,-36.8,5.3,0.645130772,-0.121433149,-0.637012848,-0.40397351
755,1891857,24230,0.965,0.276,-0.121,-111.5,-38.6,-35.7,-7.6,-36.8,5.3,0.644001587,-0.122837001,-0.636677145,-0.405926695
756,1895650,24230,0.965,0.272,-0.129,-107.1,-37.6,-37.2,-7.6,-36.8,5.3,0.642841884,-0.124179815,-0.63637196,-0.407818842
757,1896010,24230,0.965,0.268,-0.113,-103.6,-36.8,-38.4,-7.1,-36.5,4.7,0.641712699,-0.125400555,-0.636066774,-0.40971099
758,1900129,24230,0.961,0.26,-0.105,-100.6,-36.2,-39.6,-7.1,-36.5,4.7,0.640583514,-0.126590777,-0.635761589,-0.411572619
759,1902419,24240,0.961,0.252,-0.098,-98.3,-35.9,-40.7,-7.1,-36.5,4.7,0.639423811,-0.127719962,-0.635486923,-0.413403729
760,1904543,24240,0.965,0.244,-0.098,-96.6,-36,-41.9,-7.1,-36.5,4.7,0.638294626,-0.128818628,-0.635242775,-0.415204321
761,1906526,24240,0.969,0.221,-0.087,-95.5,-36.4,-42.7,-7.1,-36.7,4.6,0.637134922,-0.129886776,-0.634998627,-0.417035432
762,1908826,24240,0.965,0.213,-0.075,-94.6,-37.2,-43.2,-7.1,-36.7,4.6,0.6359447,-0.130954924,-0.634784997,-0.418836024
763,1911184,24250,0.969,0.205,-0.071,-93.8,-38.3,-43.1,-7.1,-36.7,4.6,0.634754479,-0.131992553,-0.634571368,-0.420636616
764,1913805,24250,0.976,0.197,-0.06,-93,-39.6,-42.2,-7.1,-36.7,4.6,0.633533738,-0.133030183,-0.634388256,-0.422345653
765,1916603,24250,0.969,0.185,-0.032,-91.9,-41.1,-40.7,-6.5,-37.1,3.8,0.632099368,-0.134495071,-0.634662923,-0.423688467
766,1918760,24250,0.969,0.185,-0.032,-90.7,-42.5,-38.5,-6.5,-37.1,3.8,0.630878628,-0.135593738,-0.634510331,-0.425366985
767,1922493,24260,0.972,0.181,-0.028,-89.4,-43.9,-35.6,-6.5,-37.1,3.8,0.629688406,-0.136753441,-0.634388256,-0.426953948
768,1924816,24260,0.98,0.184,-0.021,-88.1,-45.2,-32,-6.5,-37.1,3.8,0.628498184,-0.137913144,-0.634296701,-0.428479873
769,1927061,24260,0.976,0.18,-0.017,-87.1,-46.5,-28.1,-6.5,-37.1,3.8,0.627307962,-0.139164403,-0.634205145,-0.429944761
770,1929118,24260,0.976,0.184,-0.021,-86.6,-47.6,-24.3,-6.5,-37.1,3.8,0.626148259,-0.140476699,-0.63411359,-0.431318094
771,1931339,24270,0.98,0.184,-0.021,-86.5,-48.7,-20.8,-6.5,-37.1,3.8,0.625019074,-0.141819514,-0.634022034,-0.432660909
772,1934554,24270,0.976,0.176,-0.021,-86.6,-49.6,-17.8,-6.5,-37.1,3.8,0.623889889,-0.143223365,-0.633930479,-0.433942686
773,1936425,24270,0.98,0.173,-0.029,-86.6,-50.3,-15.3,-5.9,-37.3,2.4,0.622791223,-0.144657735,-0.633838923,-0.435193945
774,1938701,24270,0.976,0.173,-0.029,-86.2,-50.9,-13.2,-5.9,-37.3,2.4,0.621692557,-0.146153142,-0.633777886,-0.436384167
775,1941232,24280,0.98,0.169,-0.033,-85.5,-51.3,-11.2,-5.9,-37.3,2.4,0.62059389,-0.14761803,-0.633686331,-0.437574389
776,1943461,24280,0.976,0.169,-0.04,-84.5,-51.6,-9.6,-5.9,-37.3,2.4,0.619495224,-0.149143956,-0.633594775,-0.438703574
777,1948126,24280,0.98,0.161,-0.04,-83.3,-52,-8.2,-5.9,-37.5,2,0.618427076,-0.150608844,-0.633533738,-0.43980224
778,1948596,24280,0.976,0.161,-0.048,-81.9,-52.2,-7.1,-5.9,-37.5,2,0.617389447,-0.152165288,-0.633472701,-0.440839869
779,1951135,24290,0.98,0.157,-0.048,-80.3,-52.1,-6.1,-5.9,-37.5,2,0.616321299,-0.153660695,-0.633411664,-0.441877499
780,1955522,24290,0.976,0.146,-0.052,-78.3,-51.6,-5.1,-5.9,-37.5,2,0.615314188,-0.155125584,-0.633381146,-0.442854091
781,1957731,24290,0.976,0.145,-0.045,-75.9,-51,-4.1,-5.7,-37.3,2.1,0.614307077,-0.156590472,-0.633350627,-0.443769646
782,1959893,24290,0.98,0.149,-0.052,-73.1,-50.2,-3,-5.7,-37.3,2.1,0.613330485,-0.158024842,-0.633320109,-0.444654683
783,1962635,24300,0.988,0.149,-0.049,-69.8,-49.4,-2,-5.7,-37.3,2.1,0.612384411,-0.159398175,-0.633320109,-0.445478683
784,1964744,24300,0.988,0.149,-0.049,-66.3,-48.6,-1,-5.7,-37.3,2.1,0.611468856,-0.160740989,-0.633320109,-0.446241646
785,1967028,24300,0.992,0.153,-0.049,-62.6,-48,0,-5.7,-37.7,1.8,0.610248115,-0.166295358,-0.635425886,-0.442854091
786,1968997,24300,1.004,0.157,-0.045,-59.1,-47.5,0.7,-5.7,-37.7,1.8,0.609393597,-0.167546617,-0.635486923,-0.443464461
787,1971294,24310,0.996,0.153,-0.045,-55.7,-47,1,-5.7,-37.7,1.8,0.608539079,-0.168767357,-0.635578478,-0.444074831
788,1973461,24310,0.996,0.153,-0.045,-52.6,-46.2,0.6,-5.7,-37.7,1.8,0.607715079,-0.169927061,-0.635670034,-0.444624165
789,1976578,24310,0.992,0.157,-0.037,-49.5,-45.1,0,-5.7,-37.7,1.8,0.606891079,-0.171025727,-0.635792108,-0.445142979
790,1978819,24310,0.988,0.153,-0.033,-46.2,-43.8,-0.5,-5.7,-37.7,1.8,0.606097598,-0.172063356,-0.635914182,-0.445631275
791,1981487,24320,0.992,0.153,-0.037,-42.5,-42.4,-0.5,-5.7,-37.7,1.8,0.605365154,-0.17300943,-0.636066774,-0.446058535
792,1983644,24320,0.988,0.165,-0.037,-38.6,-41.2,0,-5.7,-37.7,1.8,0.60463271,-0.173924986,-0.636249886,-0.446424757
793,1986303,24320,1,0.18,-0.025,-34.4,-40.4,1.3,-5.3,-37.9,1.2,0.603961303,-0.174810022,-0.636432997,-0.446729942
794,1988918,24320,1.008,0.184,-0.017,-30.3,-40,3,-5.3,-37.9,1.2,0.603320414,-0.175634022,-0.636646626,-0.44697409
795,1991148,24330,1.008,0.192,-0.013,-26.7,-40.1,4.6,-5.3,-37.9,1.2,0.602710044,-0.176427503,-0.636890774,-0.447126682
796,1993772,24330,1.008,0.196,-0.013,-23.9,-40.3,5.8,-5.3,-37.9,1.2,0.602099673,-0.177220985,-0.637165441,-0.447218238
797,1996358,24330,1.007,0.207,-0.005,-22.1,-40.4,6.5,-5.8,-37.6,1.1,0.601519822,-0.178014466,-0.637470626,-0.447309793
798,1998476,24330,1.011,0.211,-0.005,-21.1,-40.6,6.6,-5.8,-37.6,1.1,0.60093997,-0.178777429,-0.637775811,-0.447340312
799,2002101,24340,1.007,0.203,-0.005,-20.5,-40.6,6.2,-5.8,-37.6,1.1,0.600360118,-0.179509873,-0.638080996,-0.447401349
800,2005004,24340,1,0.211,0.002,-20,-40.5,5.7,-5.8,-37.6,1.1,0.599749748,-0.180272835,-0.638386181,-0.447431867
801,2007259,24340,1.004,0.219,0.002,-19.4,-40.2,5.2,-5.4,-37.5,1.3,0.599169897,-0.180974761,-0.638691366,-0.447462386
802,2008998,24340,1,0.223,0.002,-18.6,-40,5.1,-5.4,-37.5,1.3,0.598590045,-0.181676687,-0.63902707,-0.447523423
803,2011250,24350,1,0.215,0.006,-17.7,-39.8,5.5,-5.4,-37.5,1.3,0.598010193,-0.182378613,-0.639332255,-0.447523423
804,2013564,24350,0.988,0.223,0.01,-16.9,-39.9,6.4,-5.4,-37.5,1.3,0.59746086,-0.183080538,-0.639667959,-0.447523423
805,2016203,24350,1,0.223,0.014,-16.2,-40.2,7.5,-5.2,-37.9,1.6,0.596881008,-0.18488113,-0.640430921,-0.446455275
806,2018756,24350,1,0.223,0.014,-15.5,-40.6,8.5,-5.2,-37.9,1.6,0.596331675,-0.185583056,-0.640797143,-0.446394238
807,2021657,24360,1.003,0.223,0.01,-15,-40.8,9.4,-5.2,-37.9,1.6,0.59581286,-0.1863155,-0.641132847,-0.446333201
808,2024948,24360,1.003,0.223,0.006,-14.6,-40.9,10.2,-5.2,-37.9,1.6,0.595263527,-0.187047945,-0.641468551,-0.446241646
809,2027309,24360,1.007,0.223,0.002,-14.2,-40.7,11.2,-5.2,-37.9,1.6,0.594714194,-0.187780389,-0.641834773,-0.446119572
810,2029262,24360,1.011,0.227,0.006,-13.8,-40.6,12.1,-5.2,-37.9,1.6,0.594225898,-0.188512833,-0.642170476,-0.445997497
811,2032526,24370,1.019,0.226,0.009,-13.2,-40.3,12.8,-5.2,-37.9,1.6,0.593737602,-0.189275796,-0.64250618,-0.445844905
812,2034729,24370,1.023,0.227,0.006,-12.4,-39.9,13.3,-5.2,-37.9,1.6,0.593249306,-0.19000824,-0.642841884,-0.445661794
813,2038550,24370,1.031,0.23,0.005,-11.7,-39.4,13.9,-5.5,-37.6,1,0.592791528,-0.190740684,-0.643177587,-0.445478683
814,2038550,24370,1.039,0.238,0.005,-11.1,-39,14.5,-5.5,-37.6,1,0.59233375,-0.191473128,-0.643513291,-0.445295572
815,2041196,24380,1.046,0.238,0.009,-10.5,-38.5,15,-5.5,-37.6,1,0.591906491,-0.192175054,-0.643848994,-0.445081942
816,2043884,24380,1.054,0.242,0.001,-10,-38.1,15.4,-5.5,-37.6,1,0.591479232,-0.192907498,-0.644184698,-0.444868313
817,2046005,24380,1.062,0.242,0.005,-9.5,-37.4,15.9,-5.3,-37.9,0.7,0.591051973,-0.193578906,-0.644520402,-0.444654683
818,2050799,24380,1.062,0.242,0.005,-9.1,-36.8,16.4,-5.3,-37.9,0.7,0.590655232,-0.19431135,-0.644825587,-0.444410535
819,2051164,24390,1.066,0.246,0.005,-8.6,-36.1,16.8,-5.3,-37.9,0.7,0.59028901,-0.195013276,-0.645130772,-0.444166387
820,2053795,24390,1.07,0.25,0.001,-8.3,-35.6,17.3,-5.3,-37.9,0.7,0.589922788,-0.195715201,-0.645435957,-0.44389172
821,2056442,24390,1.082,0.245,0.005,-7.9,-35.2,17.6,-5.4,-37.8,0.8,0.589556566,-0.196417127,-0.645741142,-0.443617054
822,2058692,24390,1.078,0.249,0.005,-7.5,-35,18.1,-5.4,-37.8,0.8,0.589220862,-0.197088534,-0.646046327,-0.443342387
823,2061223,24400,1.082,0.249,0.013,-6.9,-34.7,18.4,-5.4,-37.8,0.8,0.58885464,-0.19779046,-0.646351512,-0.443067721
824,2065131,24400,1.082,0.257,0.009,-6.4,-34.3,18.8,-5.4,-37.8,0.8,0.588549455,-0.198461867,-0.646626179,-0.442762535
825,2067338,24400,1.074,0.253,0.001,-5.8,-33.9,19.2,-5.6,-37.5,1.2,0.588213752,-0.199133274,-0.646931364,-0.44245735
826,2069084,24400,1.074,0.253,0.001,-5.8,-33.9,19.2,-5.6,-37.5,1.2,0.588213752,-0.199133274,-0.646931364,-0.44245735
827,2073163,24410,1.07,0.257,-0.002,-5.3,-33.1,20,-5.6,-37.5,1.2,0.587603381,-0.200476089,-0.647511216,-0.441816462
828,2073588,24410,1.062,0.25,-0.002,-5.1,-32.8,20.1,-5.6,-37.5,1.2,0.587328715,-0.201147496,-0.647785882,-0.441480758
829,2077866,24410,1.058,0.258,0.001,-4.7,-32.6,20.2,-5.6,-37.5,1.2,0.58702353,-0.201818903,-0.648060549,-0.441145054
830,2080188,24410,1.054,0.262,0.001,-4.1,-32.4,20.6,-5.6,-37.5,1.2,0.586748863,-0.202459792,-0.648365734,-0.440809351
831,2082393,24420,1.05,0.266,-0.001,-3.7,-32.2,21,-5.6,-37.5,1.2,0.586474197,-0.203131199,-0.6486404,-0.440443129
832,2084706,24420,1.035,0.262,-0.005,-3.4,-32.1,21.4,-5.6,-37.5,1.2,0.586230049,-0.203772088,-0.648915067,-0.440076907
833,2086489,24420,1.035,0.27,-0.001,-3,-31.8,21.6,-5.9,-37.8,1.2,0.585955382,-0.204443495,-0.649220252,-0.439680166
834,2088722,24420,1.031,0.274,0.006,-2.5,-31.4,21.7,-5.9,-37.8,1.2,0.585711234,-0.205084384,-0.649494919,-0.439313944
835,2092858,24430,1.027,0.278,0.002,-1.9,-30.8,21.9,-5.9,-37.8,1.2,0.585467086,-0.205694754,-0.649769585,-0.438917203
836,2095054,24430,1.019,0.278,0.006,-1.2,-30.1,22,-5.9,-37.8,1.2,0.585253456,-0.206335643,-0.650044252,-0.438520463
837,2097330,24430,1.011,0.286,0.006,-0.6,-29.2,22.2,-5.4,-37.6,1,0.585039827,-0.206915494,-0.650318918,-0.438123722
838,2099579,24430,1,0.282,0.007,0.1,-28.1,22.2,-5.4,-37.6,1,0.584856716,-0.207525864,-0.650563066,-0.437696463
839,2102172,24440,1,0.286,-0.004,0.7,-26.9,22,-5.4,-37.6,1,0.584704123,-0.208075198,-0.650807215,-0.437299722
840,2104834,24440,1,0.29,-0.004,1.3,-25.9,21.7,-5.4,-37.6,1,0.584551531,-0.208624531,-0.651051363,-0.436872463
841,2107147,24440,1,0.29,-0.004,1.3,-25.9,21.7,-5.4,-37.6,1,0.584551531,-0.208624531,-0.651051363,-0.436872463
842,2110870,24440,0.996,0.294,-0.004,2.1,-24.1,20.6,-6.4,-37.7,1.3,0.584246345,-0.209631642,-0.651539659,-0.436017945
843,2111219,24450,0.992,0.302,-0.008,2.4,-23.3,20.1,-6.4,-37.7,1.3,0.584124271,-0.210089419,-0.651753288,-0.435651723
844,2115478,24450,0.996,0.305,-0.004,2.5,-22.6,19.6,-6.4,-37.7,1.3,0.584002197,-0.210577715,-0.651997436,-0.435254982
845,2117649,24450,0.988,0.302,0,2,-21.4,18.9,-6.1,-37.4,1.8,0.583758049,-0.211157567,-0.652424696,-0.43467513
846,2119619,24450,0.98,0.298,0,2,-21.4,18.9,-6.1,-37.4,1.8,0.583635975,-0.211645863,-0.652607807,-0.434308908
847,2121204,24460,0.98,0.298,0.003,1.7,-20.5,18.4,-6.1,-37.4,1.8,0.583513901,-0.212073122,-0.652821436,-0.433942686
848,2125481,24460,0.988,0.294,0.007,1.2,-19.8,17.7,-6.1,-37.4,1.8,0.583422346,-0.212500381,-0.653004547,-0.433606983
849,2127774,24460,0.984,0.301,0.011,0.9,-19.2,16.9,-6.1,-37.4,1.8,0.583300272,-0.212897122,-0.65315714,-0.433271279
850,2128579,24460,0.984,0.29,0.015,1.1,-18.5,16.1,-6.1,-37.4,1.8,0.583208716,-0.213293863,-0.653309732,-0.432966094
851,2132998,24470,0.98,0.298,0.015,1.8,-17.8,15.2,-6.1,-37.4,1.8,0.583086642,-0.213660085,-0.653523362,-0.432660909
852,2135033,24470,0.988,0.289,0.023,2.9,-16.9,14.1,-6.1,-37.4,1.8,0.582995087,-0.213995788,-0.653706473,-0.432355724
853,2137338,24470,0.984,0.293,0.027,4.3,-15.6,12.8,-6.3,-37.5,1.9,0.58293405,-0.214270455,-0.653859066,-0.432081057
854,2139564,24470,0.988,0.293,0.03,5.7,-14.1,11.2,-6.3,-37.5,1.9,0.582842494,-0.214484085,-0.654042177,-0.431775872
855,2141589,24480,0.98,0.293,0.031,7.1,-12.5,9.7,-6.3,-37.5,1.9,0.582811975,-0.214636677,-0.654225288,-0.431501205
856,2144466,24480,0.98,0.293,0.034,8.2,-10.8,8.3,-6.3,-37.5,1.9,0.582750938,-0.214758751,-0.654408399,-0.431226539
857,2146132,24480,0.984,0.293,0.034,9,-9.3,7.3,-6.7,-37.8,2,0.582750938,-0.214850307,-0.65459151,-0.430951872
858,2151247,24480,0.984,0.297,0.034,9.6,-7.9,6.4,-6.7,-37.8,2,0.58272042,-0.214880825,-0.654744102,-0.430707724
859,2151247,24490,0.98,0.301,0.035,10.2,-6.6,5.6,-6.7,-37.8,2,0.582750938,-0.214911344,-0.654896695,-0.430463576
860,2155754,24490,0.976,0.293,0.031,10.5,-5.4,5.2,-6.7,-37.8,2,0.582750938,-0.214880825,-0.655049287,-0.430219428
861,2156231,24490,0.988,0.301,0.031,10.7,-4.3,4.9,-6.3,-37.9,1.9,0.582781457,-0.214880825,-0.655171361,-0.42997528
862,2159409,24490,0.992,0.305,0.042,10.6,-3,4.7,-6.3,-37.9,1.9,0.582842494,-0.214819788,-0.655293435,-0.429731132
863,2161376,24500,0.988,0.309,0.038,10.6,-1.8,4.3,-6.3,-37.9,1.9,0.582903531,-0.21478927,-0.655384991,-0.429517502
864,2164584,24500,0.992,0.321,0.039,10.7,-0.5,4,-6.3,-37.9,1.9,0.582995087,-0.214697714,-0.655476547,-0.429303873
865,2166417,24500,0.992,0.329,0.035,10.5,1.9,2.9,-6.7,-37.9,2,0.583056124,-0.21478927,-0.655629139,-0.428937651
866,2168956,24500,0.992,0.329,0.035,10.5,1.9,2.9,-6.7,-37.9,2,0.583178198,-0.214667196,-0.655690176,-0.42875454
867,2172873,24510,0.992,0.336,0.035,10.1,3.2,2.3,-6.7,-37.9,2,0.583300272,-0.214545122,-0.655751213,-0.428601947
868,2174965,24510,0.999,0.344,0.027,9.7,4.5,1.8,-6.7,-37.9,2,0.583422346,-0.214392529,-0.655751213,-0.428449355
869,2177763,24510,0.999,0.348,0.031,9.2,5.8,1.3,-6.7,-37.9,2,0.58354442,-0.214239937,-0.655751213,-0.42832728
870,2179854,24510,0.999,0.348,0.027,8.8,7,0.9,-6.7,-37.9,2,0.583697012,-0.214087344,-0.655751213,-0.428205206
871,2181894,24520,0.999,0.36,0.031,8.4,8.1,0.6,-6.7,-37.9,2,0.583880123,-0.213904233,-0.655720695,-0.428144169
872,2183761,24520,0.995,0.372,0.027,8,9,0.3,-6.7,-37.9,2,0.584032716,-0.213721122,-0.655690176,-0.428052614
873,2186050,24520,0.992,0.376,0.024,7.6,9.8,0,-6.5,-37.6,2,0.584215827,-0.213538011,-0.655629139,-0.427991577
874,2190188,24520,0.992,0.376,0.024,7.6,9.8,0,-6.5,-37.6,2,0.584215827,-0.213538011,-0.655629139,-0.427991577
875,2192580,24530,0.995,0.384,0.024,6.4,11.3,-0.5,-6.5,-37.6,2,0.584582049,-0.213110752,-0.655476547,-0.42793054
876,2194672,24530,0.999,0.387,0.031,5.7,11.7,-0.8,-6.5,-37.6,2,0.58476516,-0.212958159,-0.655384991,-0.427900021
877,2196833,24530,0.999,0.387,0.031,5.7,11.7,-0.8,-6.5,-37.6,2,0.58476516,-0.212958159,-0.655384991,-0.427900021
878,2198842,24530,0.995,0.403,0.032,4.2,12.6,-1.4,-6.4,-37.6,2.3,0.585161901,-0.212561419,-0.655171361,-0.427900021
879,2201532,24540,0.991,0.407,0.036,3.2,13,-1.5,-6.4,-37.6,2.3,0.585345012,-0.212378307,-0.655049287,-0.427961058
880,2204429,24540,0.991,0.411,0.036,2.1,13.4,-1.7,-6.4,-37.6,2.3,0.585528123,-0.212195196,-0.654896695,-0.427991577
881,2206267,24540,0.984,0.415,0.032,0.9,13.8,-1.7,-6.5,-37.2,2.3,0.585711234,-0.212042604,-0.654744102,-0.428083132
882,2208591,24540,0.984,0.419,0.036,-0.3,14.1,-1.8,-6.5,-37.2,2.3,0.585894345,-0.211890011,-0.654560991,-0.428174688
883,2212696,24550,0.98,0.415,0.032,-1.4,14.4,-1.7,-6.5,-37.2,2.3,0.586077456,-0.211737419,-0.65437788,-0.428266243
884,2214946,24550,0.976,0.415,0.032,-2.4,14.7,-1.6,-6.5,-37.2,2.3,0.586260567,-0.211615345,-0.654164251,-0.428388318
885,2217244,24550,0.968,0.415,0.04,-4.1,15,-1.8,-6.5,-37.7,2.5,0.586046937,-0.21109653,-0.654255806,-0.428846095
886,2219036,24550,0.964,0.407,0.032,-4.1,15,-1.8,-6.5,-37.7,2.5,0.586230049,-0.210974456,-0.654011658,-0.428998688
887,2221543,24560,0.964,0.415,0.04,-4.8,14.9,-2.1,-6.5,-37.7,2.5,0.586382641,-0.210852382,-0.653798029,-0.42915128
888,2223587,24560,0.96,0.411,0.04,-5.5,14.9,-2.6,-6.5,-37.7,2.5,0.586535234,-0.210760826,-0.65355388,-0.429334391
889,2226125,24560,0.948,0.411,0.04,-6.1,14.9,-2.8,-6.5,-37.7,2.5,0.586718345,-0.210669271,-0.653309732,-0.429517502
890,2229789,24560,0.948,0.415,0.037,-6.6,15.1,-3,-6.5,-37.7,2.5,0.586870937,-0.210547197,-0.653096103,-0.429731132
891,2231753,24570,0.948,0.415,0.044,-7.3,15.3,-3.1,-6.5,-37.7,2.5,0.58702353,-0.210455641,-0.652851955,-0.429944761
892,2234285,24570,0.944,0.407,0.056,-7.9,15.6,-3.3,-6.5,-37.7,2.5,0.587176122,-0.210364086,-0.652577288,-0.430158391
893,2236286,24570,0.945,0.411,0.052,-8.5,15.7,-3.4,-6.1,-37.6,2.6,0.587328715,-0.21027253,-0.652302622,-0.430402539
894,2240337,24570,0.945,0.407,0.052,-9.1,15.9,-3.6,-6.1,-37.6,2.6,0.587481307,-0.210180975,-0.652027955,-0.430677206
895,2242630,24580,0.945,0.399,0.052,-9.8,16.1,-3.7,-6.1,-37.6,2.6,0.5876339,-0.210119938,-0.651753288,-0.430921354
896,2244885,24580,0.941,0.396,0.052,-10.3,16.3,-4,-6.1,-37.6,2.6,0.587786493,-0.210028382,-0.651478622,-0.43119602
897,2247017,24580,0.945,0.392,0.048,-10.7,16.5,-4.2,-6.2,-37.5,1.6,0.587908567,-0.209967345,-0.651173437,-0.431501205
898,2249058,24580,0.945,0.388,0.052,-11,16.7,-4.6,-6.2,-37.5,1.6,0.588061159,-0.20987579,-0.650868252,-0.431775872
899,2251342,24590,0.941,0.38,0.052,-11.1,17,-4.8,-6.2,-37.5,1.6,0.588213752,-0.209784234,-0.650563066,-0.432081057
900,2253814,24590,0.941,0.376,0.044,-11.1,17.3,-5.2,-6.2,-37.5,1.6,0.588366344,-0.209692679,-0.650257881,-0.432386242
901,2257518,24590,0.937,0.372,0.044,-11.1,17.6,-5.6,-6.3,-37.3,2.6,0.588488418,-0.209601123,-0.649952696,-0.432691427
902,2259992,24590,0.937,0.368,0.048,-11,17.9,-6.2,-6.3,-37.3,2.6,0.588641011,-0.209479049,-0.649647511,-0.433027131
903,2262105,24600,0.933,0.36,0.044,-10.8,18.2,-6.6,-6.3,-37.3,2.6,0.588793603,-0.209356975,-0.649342326,-0.433332316
904,2264040,24600,0.933,0.361,0.04,-10.6,18.3,-6.8,-6.3,-37.3,2.6,0.588946196,-0.209204382,-0.649037141,-0.43366802
905,2266581,24600,0.933,0.353,0.04,-10.2,18.7,-7.3,-6.3,-37.7,2,0.588885159,-0.208899197,-0.648945585,-0.43406476
906,2269658,24600,0.933,0.345,0.04,-10.2,18.7,-7.3,-6.3,-37.7,2,0.589007233,-0.208746605,-0.6486404,-0.434400464
907,2271807,24610,0.929,0.341,0.04,-10,19,-7.7,-6.3,-37.7,2,0.589159825,-0.208594012,-0.648335215,-0.434736167
908,2273804,24610,0.937,0.341,0.04,-9.8,19.4,-8,-6.3,-37.7,2,0.589312418,-0.208410901,-0.64803003,-0.435041353
909,2276772,24610,0.937,0.337,0.04,-9.7,19.6,-8.4,-6.3,-37.7,2,0.589465011,-0.20822779,-0.647724845,-0.435377056
910,2279064,24610,0.941,0.329,0.04,-9.6,19.7,-8.6,-6.3,-37.7,2,0.589617603,-0.208044679,-0.64741966,-0.43571276
911,2281904,24620,0.941,0.317,0.032,-9.5,19.8,-8.9,-6.3,-37.7,2,0.589770196,-0.207861568,-0.647114475,-0.436078982
912,2283586,24620,0.945,0.317,0.043,-9.3,19.9,-9.3,-6.3,-37.7,2,0.589922788,-0.207678457,-0.64680929,-0.436414686
913,2287551,24620,0.945,0.317,0.035,-9.1,20.1,-9.8,-6.2,-37.6,1.9,0.590075381,-0.207464827,-0.646504105,-0.436750389
914,2289554,24620,0.941,0.313,0.035,-8.8,20.2,-10.2,-6.2,-37.6,1.9,0.590227973,-0.207220679,-0.64619892,-0.437116611
915,2292046,24630,0.945,0.309,0.039,-8.6,20.5,-10.5,-6.2,-37.6,1.9,0.590380566,-0.20700705,-0.645893735,-0.437452315
916,2294281,24630,0.949,0.305,0.035,-8.4,20.7,-10.8,-6.2,-37.6,1.9,0.590533158,-0.206762902,-0.645588549,-0.437818537
917,2296736,24630,0.945,0.298,0.035,-8.2,20.8,-11,-6,-37.7,1.8,0.590685751,-0.206488235,-0.645313883,-0.438154241
918,2300593,24630,0.949,0.294,0.027,-8,20.9,-11.1,-6,-37.7,1.8,0.590807825,-0.206244087,-0.645008698,-0.438520463
919,2300987,24640,0.945,0.294,0.027,-7.9,20.8,-11.1,-6,-37.7,1.8,0.590990936,-0.205999939,-0.644703513,-0.438856166
920,2303637,24640,0.941,0.298,0.031,-7.8,20.7,-11.3,-6,-37.7,1.8,0.591143529,-0.205725272,-0.644428846,-0.439222388
921,2308073,24640,0.941,0.298,0.031,-7.7,20.6,-11.2,-6.1,-37.6,1.6,0.591265603,-0.205481124,-0.644123661,-0.439558092
922,2310578,24640,0.941,0.298,0.031,-7.5,20.5,-11.3,-6.1,-37.6,1.6,0.591418195,-0.205236976,-0.643848994,-0.439893796
923,2312896,24650,0.937,0.294,0.024,-7.3,20.3,-11.3,-6.1,-37.6,1.6,0.591570788,-0.20496231,-0.643543809,-0.440229499
924,2313543,24650,0.933,0.298,0.039,-7.1,20,-11.3,-6.1,-37.6,1.6,0.59172338,-0.204718162,-0.643269143,-0.440565203
925,2318135,24650,0.925,0.298,0.036,-6.8,19.2,-11.3,-5.7,-37.1,1.8,0.591540269,-0.204840236,-0.643482772,-0.440443129
926,2318615,24650,0.925,0.298,0.036,-6.8,19.2,-11.3,-5.7,-37.1,1.8,0.591692862,-0.204596088,-0.643208106,-0.440748314
927,2321135,24660,0.925,0.298,0.036,-6.7,18.9,-11.3,-5.7,-37.1,1.8,0.591814936,-0.204321421,-0.642963958,-0.441084017
928,2326108,24660,0.925,0.302,0.036,-6.6,18.5,-11.2,-5.7,-37.1,1.8,0.59193701,-0.204077273,-0.64271981,-0.441419721
929,2326578,24660,0.921,0.302,0.043,-6.4,18.1,-11.2,-5.7,-37.1,1.8,0.592059084,-0.203833125,-0.642445143,-0.441724906
930,2329308,24660,0.91,0.298,0.04,-6.3,17.8,-11.2,-5.7,-37.1,1.8,0.592150639,-0.203588977,-0.642231513,-0.442030091
931,2331559,24670,0.913,0.302,0.04,-6.1,17.5,-11.3,-5.7,-37.1,1.8,0.592272713,-0.203344829,-0.641987365,-0.442335276
932,2333882,24670,0.906,0.306,0.04,-5.8,17.2,-11.3,-5.7,-37.1,1.8,0.592364269,-0.203100681,-0.641743217,-0.442640461
933,2336532,24670,0.906,0.306,0.048,-5.5,16.9,-11.3,-6.3,-37.8,1.7,0.592486343,-0.202826014,-0.641529588,-0.442945647
934,2339580,24670,0.902,0.306,0.044,-5.3,16.7,-11.2,-6.3,-37.8,1.7,0.592577898,-0.202581866,-0.641315958,-0.443250832
935,2343284,24680,0.902,0.314,0.052,-5,16.4,-11.1,-6.3,-37.8,1.7,0.592669454,-0.202337718,-0.641102329,-0.443525498
936,2343609,24680,0.898,0.314,0.052,-4.6,16.2,-11.1,-6.3,-37.8,1.7,0.592791528,-0.20209357,-0.640888699,-0.443800165
937,2347657,24680,0.898,0.314,0.048,-4.1,16,-11,-6.3,-37.8,1.4,0.592883084,-0.201818903,-0.640705588,-0.444074831
938,2349996,24680,0.898,0.318,0.052,-3.6,15.9,-11,-6.3,-37.8,1.4,0.592974639,-0.201574755,-0.640491958,-0.444349498
939,2352429,24690,0.894,0.326,0.048,-3.2,15.7,-10.9,-6.3,-37.8,1.4,0.593066195,-0.201300089,-0.640308847,-0.444593646
940,2354505,24690,0.89,0.318,0.06,-2.7,15.5,-10.8,-6.3,-37.8,1.4,0.593188269,-0.201025422,-0.640125736,-0.444868313
941,2356444,24690,0.894,0.325,0.056,-2.1,15.3,-10.8,-6.2,-37.8,1.9,0.593279824,-0.200750755,-0.639973144,-0.445081942
942,2360359,24690,0.89,0.329,0.056,-1.4,14.9,-10.7,-6.2,-37.8,1.9,0.59337138,-0.200476089,-0.639790033,-0.44532609
943,2362604,24700,0.894,0.329,0.064,-0.7,14.6,-10.6,-6.2,-37.8,1.9,0.593462935,-0.200201422,-0.63963744,-0.44553972
944,2364907,24700,0.89,0.337,0.064,0,14.1,-10.3,-6.2,-37.8,1.9,0.593585009,-0.199926756,-0.639515366,-0.445722831
945,2368074,24700,0.89,0.341,0.064,1.6,13.3,-10.1,-6,-37.6,1,0.593432417,-0.19962157,-0.639667959,-0.445783868
946,2368664,24700,0.894,0.345,0.068,1.6,13.3,-10.1,-6,-37.6,1,0.593523972,-0.199316385,-0.639576403,-0.445966979
947,2371310,24710,0.89,0.341,0.068,2.5,13.1,-10.1,-6,-37.6,1,0.593615528,-0.199041719,-0.639454329,-0.446119572
948,2375305,24710,0.898,0.345,0.068,3.3,12.9,-9.9,-6,-37.6,1,0.593707083,-0.198736534,-0.639362774,-0.446272164
949,2377513,24710,0.898,0.345,0.068,4,12.6,-9.8,-6,-37.6,1,0.593829157,-0.19840083,-0.639301737,-0.446394238
950,2379824,24710,0.902,0.345,0.072,4.8,12.3,-9.5,-6,-37.6,1,0.593920713,-0.198095645,-0.639210181,-0.446516312
951,2382007,24720,0.902,0.349,0.076,5.4,11.9,-9.5,-6,-37.6,1,0.594012268,-0.197759941,-0.639149144,-0.446607868
952,2383974,24720,0.902,0.345,0.068,6.1,11.5,-9.4,-6,-37.6,1,0.594103824,-0.197454756,-0.639118625,-0.446699423
953,2386461,24720,0.901,0.356,0.076,6.6,11.1,-9.3,-5.6,-38.1,1.2,0.594195379,-0.197119053,-0.639057588,-0.44676046
954,2389972,24720,0.902,0.349,0.072,7.1,10.7,-9.1,-5.6,-38.1,1.2,0.594286935,-0.196783349,-0.63902707,-0.446821497
955,2392047,24730,0.905,0.353,0.064,7.6,10.5,-8.8,-5.6,-38.1,1.2,0.594378491,-0.196478164,-0.63902707,-0.446882534
956,2394531,24730,0.909,0.352,0.076,7.9,10.3,-8.8,-5.6,-38.1,1.2,0.594470046,-0.19614246,-0.638996551,-0.446943571
957,2396532,24730,0.909,0.353,0.064,8.2,10.1,-8.7,-6.3,-37.7,1,0.594561602,-0.195806757,-0.638966033,-0.44697409
958,2398777,24730,0.909,0.353,0.068,8.6,9.8,-8.7,-6.3,-37.7,1,0.594653157,-0.195501572,-0.638966033,-0.447004608
959,2401131,24740,0.913,0.352,0.072,9,9.6,-8.4,-6.3,-37.7,1,0.594714194,-0.195165868,-0.638966033,-0.447035127
960,2403612,24740,0.917,0.352,0.068,9.3,9.3,-8.2,-6.3,-37.7,1,0.594836268,-0.194830164,-0.638966033,-0.447065645
961,2408047,24740,0.913,0.353,0.068,9.8,9,-8,-5.8,-38.2,1,0.594927824,-0.194494461,-0.638996551,-0.447065645
962,2410360,24740,0.917,0.353,0.064,10.3,8.6,-7.9,-5.8,-38.2,1,0.595019379,-0.194158757,-0.63902707,-0.447065645
963,2412614,24750,0.921,0.357,0.056,10.7,8.3,-7.8,-5.8,-38.2,1,0.595110935,-0.193853572,-0.639057588,-0.447035127
964,2414871,24750,0.921,0.352,0.071,11.2,7.9,-7.7,-5.8,-38.2,1,0.595171972,-0.193517869,-0.639088107,-0.447004608
965,2417117,24750,0.929,0.348,0.071,12.2,7.3,-7.2,-6.1,-37.6,1.3,0.594988861,-0.193151646,-0.639454329,-0.446882534
966,2419062,24750,0.929,0.348,0.071,12.2,7.3,-7.2,-6.1,-37.6,1.3,0.595080416,-0.192815943,-0.639515366,-0.446852016
967,2421370,24760,0.929,0.356,0.071,12.6,7,-7,-6.1,-37.6,1.3,0.595171972,-0.192480239,-0.639576403,-0.446790979
968,2423674,24760,0.929,0.356,0.071,13,6.6,-6.8,-6.1,-37.6,1.3,0.595233009,-0.192175054,-0.63963744,-0.446729942
969,2428476,24760,0.929,0.356,0.079,13.3,6.2,-6.5,-6.1,-37.6,1.3,0.595324564,-0.191839351,-0.639728996,-0.446638386
970,2428846,24760,0.925,0.356,0.071,13.5,5.7,-6.3,-6.1,-37.6,1.3,0.595385601,-0.191503647,-0.639790033,-0.446577349
971,2432855,24770,0.929,0.36,0.075,13.8,5.1,-6.1,-6.1,-37.6,1.3,0.595477157,-0.191198462,-0.639881588,-0.446485794
972,2435006,24770,0.925,0.356,0.079,14.1,4.6,-6,-6.1,-37.6,1.3,0.595538194,-0.190893277,-0.640003662,-0.44636372
973,2437734,24770,0.925,0.356,0.075,14.6,4.3,-5.9,-5.4,-38.2,1.1,0.595599231,-0.190557573,-0.640095218,-0.446272164
974,2440048,24770,0.925,0.36,0.079,15,3.9,-5.7,-5.4,-38.2,1.1,0.595660268,-0.190252388,-0.640217292,-0.44615009
975,2441961,24780,0.921,0.36,0.079,15.3,3.6,-5.5,-5.4,-38.2,1.1,0.595721305,-0.189947203,-0.640339366,-0.446028016
976,2444432,24780,0.921,0.36,0.079,15.5,3.3,-5.2,-5.4,-38.2,1.1,0.595782342,-0.189642018,-0.640491958,-0.445875423
977,2446311,24780,0.921,0.36,0.083,15.9,2.8,-4.9,-5.9,-37.6,1.7,0.595843379,-0.189336833,-0.640614032,-0.445722831
978,2448664,24780,0.921,0.364,0.079,16.2,2.5,-4.7,-5.9,-37.6,1.7,0.595904416,-0.189031648,-0.640766625,-0.445570238
979,2453539,24790,0.917,0.364,0.083,16.5,2.1,-4.5,-5.9,-37.6,1.7,0.595934935,-0.188695944,-0.640919218,-0.445417646
980,2453539,24790,0.913,0.368,0.084,16.7,1.8,-4.3,-5.9,-37.6,1.7,0.595995972,-0.188421278,-0.64107181,-0.445234535
981,2457921,24790,0.917,0.368,0.091,16.9,1.5,-4.1,-5.8,-37.6,1.6,0.596057009,-0.188146611,-0.641224403,-0.445081942
982,2460114,24790,0.913,0.368,0.087,17.1,1.2,-3.9,-5.8,-37.6,1.6,0.596087527,-0.187841426,-0.641407514,-0.444898831
983,2462473,24800,0.917,0.368,0.091,17.4,0.9,-3.5,-5.8,-37.6,1.6,0.596148564,-0.187566759,-0.641590625,-0.444685202
984,2464740,24800,0.909,0.364,0.087,17.5,0.5,-3.1,-5.8,-37.6,1.6,0.596209601,-0.187292093,-0.641743217,-0.444502091
985,2466536,24800,0.905,0.368,0.092,17.8,-0.1,-2.2,-5.9,-38.3,1.5,0.595934935,-0.186803797,-0.642231513,-0.444380016
986,2468630,24800,0.905,0.368,0.092,17.8,-0.1,-2.2,-5.9,-38.3,1.5,0.595965453,-0.18652913,-0.642414624,-0.444166387
987,2472103,24810,0.905,0.372,0.092,17.9,-0.3,-1.7,-5.9,-38.3,1.5,0.59602649,-0.186284982,-0.642597736,-0.443922239
988,2474210,24810,0.901,0.372,0.099,17.9,-0.5,-1.2,-5.9,-38.3,1.5,0.596087527,-0.186040834,-0.642780847,-0.443678091
989,2477396,24810,0.901,0.376,0.092,18,-0.5,-0.8,-5.9,-38.3,1.5,0.596148564,-0.185766167,-0.642963958,-0.443433943
990,2479635,24810,0.901,0.376,0.096,18.2,-0.7,-0.5,-5.9,-38.3,1.5,0.596179083,-0.185552538,-0.643147069,-0.443189795
991,2481584,24820,0.905,0.376,0.096,18.5,-0.9,-0.3,-5.9,-38.3,1.5,0.59624012,-0.18530839,-0.643360698,-0.442915128
992,2483811,24820,0.901,0.38,0.096,18.9,-1,-0.2,-5.9,-38.3,1.5,0.596301157,-0.185064241,-0.643543809,-0.44267098
993,2486177,24820,0.901,0.38,0.1,19.2,-1.2,0,-5.6,-37.6,1.6,0.596362194,-0.184850612,-0.643757439,-0.442396313
994,2488886,24820,0.901,0.38,0.096,19.7,-1.2,0.2,-5.6,-37.6,1.6,0.596423231,-0.184606464,-0.643971068,-0.442091128
995,2493398,24830,0.901,0.38,0.1,20,-1.4,0.5,-5.6,-37.6,1.6,0.596514786,-0.184362316,-0.64415418,-0.441816462
996,2493909,24830,0.905,0.388,0.096,20.2,-1.4,0.8,-5.6,-37.6,1.6,0.596575823,-0.184118168,-0.644367809,-0.441511277
997,2497443,24830,0.901,0.384,0.1,20.3,-1.6,1,-5.7,-37.8,1.8,0.59663686,-0.18387402,-0.644581439,-0.441206091
998,2499582,24830,0.901,0.387,0.104,20.5,-1.7,1.2,-5.7,-37.8,1.8,0.596697897,-0.18366039,-0.644795068,-0.440870388
999,2502239,24840,0.909,0.383,0.103,20.8,-1.8,1.5,-5.7,-37.8,1.8,0.596789453,-0.183416242,-0.645039216,-0.440565203
1000,2504102,24840,0.905,0.388,0.096,21,-1.9,1.5,-5.7,-37.8,1.8,0.59685049,-0.183202612,-0.645252846,-0.440229499
1001,2508120,24840,0.913,0.391,0.099,21.2,-1.9,1.6,-5.6,-37.4,2.2,0.596911527,-0.182958464,-0.645466475,-0.439924314
1002,2508461,24840,0.917,0.387,0.095,21.4,-2,1.7,-5.6,-37.4,2.2,0.597003082,-0.182714316,-0.645680105,-0.43958861
1003,2512900,24850,0.917,0.391,0.099,21.5,-2,2,-5.6,-37.4,2.2,0.597064119,-0.182500687,-0.645924253,-0.439252907
1004,2515096,24850,0.921,0.395,0.099,21.5,-2,2.1,-5.6,-37.4,2.2,0.597155675,-0.182256539,-0.646137883,-0.438886685
1005,2517263,24850,0.925,0.391,0.095,21.7,-1.7,2.2,-5.5,-37.3,2.1,0.597003082,-0.181646168,-0.646504105,-0.438825648
1006,2520569,24850,0.925,0.391,0.103,21.7,-1.7,2.2,-5.5,-37.3,2.1,0.597094638,-0.181432539,-0.646717734,-0.438489944
1007,2523018,24860,0.929,0.387,0.103,21.9,-1.4,2.3,-5.5,-37.3,2.1,0.597186193,-0.181188391,-0.646931364,-0.438123722
1008,2525136,24860,0.933,0.395,0.103,22,-1.3,2.3,-5.5,-37.3,2.1,0.597277749,-0.180944243,-0.647144993,-0.437788018
1009,2527401,24860,0.936,0.391,0.103,22.1,-1.2,2.4,-5.5,-37.3,2.1,0.597369304,-0.180700095,-0.647389142,-0.437452315
1010,2529550,24860,0.94,0.387,0.095,22,-1.2,2.4,-5.5,-37.3,2.1,0.59746086,-0.180455947,-0.647602771,-0.437086093
1011,2532107,24870,0.944,0.383,0.095,21.8,-1.1,2.4,-5.5,-37.3,2.1,0.597552416,-0.180211798,-0.647816401,-0.436750389
1012,2533876,24870,0.944,0.387,0.095,21.6,-1,2.4,-5.5,-37.3,2.1,0.597643971,-0.17996765,-0.64803003,-0.436414686
1013,2536635,24870,0.944,0.383,0.095,21.3,-0.8,2.5,-5.9,-37.6,2.2,0.597735527,-0.179754021,-0.648213141,-0.436078982
1014,2538869,24870,0.948,0.379,0.087,20.9,-0.7,2.6,-5.9,-37.6,2.2,0.597827082,-0.179509873,-0.648426771,-0.435743278
1015,2541320,24880,0.948,0.379,0.087,20.5,-0.6,2.7,-5.9,-37.6,2.2,0.597918638,-0.179296243,-0.648609882,-0.435407575
1016,2543864,24880,0.952,0.379,0.083,20.1,-0.5,2.8,-5.9,-37.6,2.2,0.598040712,-0.179082614,-0.648792993,-0.435071871
1017,2546508,24880,0.952,0.375,0.095,19.7,-0.5,3,-5.7,-37.7,2.3,0.598132267,-0.178868984,-0.648976104,-0.434766686
1018,2548876,24880,0.948,0.375,0.091,19.5,-0.5,3.1,-5.7,-37.7,2.3,0.598223823,-0.178655354,-0.649159215,-0.434430982
1019,2552914,24890,0.952,0.375,0.091,19.2,-0.5,3.1,-5.7,-37.7,2.3,0.598315378,-0.178472243,-0.649342326,-0.434125797
1020,2555045,24890,0.956,0.375,0.091,19,-0.5,3.2,-5.7,-37.7,2.3,0.598406934,-0.178258614,-0.649525437,-0.433790094
1021,2557292,24890,0.952,0.375,0.091,18.7,-0.5,3.3,-6,-37.5,2.2,0.598529008,-0.178075503,-0.64967803,-0.433484909
1022,2559563,24890,0.956,0.379,0.091,18.5,-0.4,3.4,-6,-37.5,2.2,0.598620563,-0.177892392,-0.649861141,-0.433179724
1023,2561245,24900,0.948,0.379,0.095,18.3,-0.2,3.4,-6,-37.5,2.2,0.598712119,-0.177709281,-0.650013733,-0.432874538
1024,2565216,24900,0.956,0.383,0.095,18.1,-0.2,3.4,-6,-37.5,2.2,0.598803674,-0.17752617,-0.650166326,-0.432569353
1025,2567464,24900,0.952,0.383,0.091,17.4,-0.3,3.5,-5.9,-37.7,2.8,0.598803674,-0.177220985,-0.650410474,-0.432355724
1026,2569902,24900,0.952,0.383,0.091,17.4,-0.3,3.5,-5.9,-37.7,2.8,0.59889523,-0.177037873,-0.650563066,-0.432081057
1027,2572139,24910,0.944,0.383,0.091,16.7,-0.3,3.6,-5.9,-37.7,2.8,0.598986785,-0.176885281,-0.650715659,-0.431775872
1028,2574257,24910,0.944,0.387,0.095,16.1,-0.2,3.6,-5.9,-37.7,2.8,0.599078341,-0.176732688,-0.650837733,-0.431501205
1029,2577402,24910,0.948,0.383,0.087,15.6,-0.3,3.7,-5.9,-37.7,2.8,0.599169897,-0.176580096,-0.650990326,-0.431226539
1030,2579637,24910,0.94,0.383,0.095,15,-0.3,3.7,-5.9,-37.7,2.8,0.599261452,-0.176427503,-0.6511124,-0.430951872
