sample_index,elapsed_us,device_time_ms,acc_x_g,acc_y_g,acc_z_g,gyro_x_dps,gyro_y_dps,gyro_z_dps,mag_x_ut,mag_y_ut,mag_z_ut,quat_w,quat_x,quat_y,quat_z
0,4607,2090130,-0.566,-0.623,0.571,4.4,3.6,-4.7,6.7,-5.4,-25.1,0.531662954,0.0415967284,0.475753044,-0.6994232
1,7494,2090140,-0.566,-0.623,0.571,4.5,3.3,-4.6,6.7,-5.4,-25.1,0.53132725,0.041749321,0.475692007,-0.699728385
2,7998,2090140,-0.566,-0.627,0.575,4.5,3.4,-4.6,6.7,-5.4,-25.1,0.531205176,0.0417798395,0.475661489,-0.699819941
3,10565,2090140,-0.566,-0.627,0.575,4.5,3.4,-4.6,6.7,-5.4,-25.1,0.531205176,0.0417798395,0.475661489,-0.699819941
4,13078,2090140,-0.566,-0.627,0.575,4.5,3.4,-4.6,6.7,-5.4,-25.1,0.531205176,0.0417798395,0.475661489,-0.699819941
5,15413,2090150,-0.566,-0.627,0.575,4.5,3.4,-4.6,6.7,-5.4,-25.1,0.531205176,0.0417798395,0.475661489,-0.699819941
6,18755,2090150,-0.566,-0.627,0.575,4.5,3.4,-4.6,6.7,-5.4,-25.1,0.531205176,0.0417798395,0.475661489,-0.699819941
7,20977,2090150,-0.566,-0.631,0.56,4.1,3.6,-5,4.8,-5.6,-24.8,0.53071688,0.0420850246,0.475295267,-0.700430311
8,23210,2090150,-0.57,-0.631,0.568,4.3,3.6,-4.9,4.8,-5.6,-24.8,0.530625324,0.0421155431,0.475264748,-0.700521867
9,26055,2090160,-0.566,-0.627,0.56,4.5,3.4,-4.9,4.3,-5.5,-24.6,0.53050325,0.0421765801,0.475264748,-0.700613422
10,28075,2090160,-0.566,-0.623,0.56,4.7,3.3,-4.9,4.3,-5.5,-24.6,0.530381176,0.0422376171,0.47523423,-0.700735496
11,30382,2090160,-0.566,-0.623,0.56,4.7,3.3,-4.9,4.3,-5.5,-24.6,0.530381176,0.0422376171,0.47523423,-0.700735496
12,34487,2090160,-0.566,-0.623,0.56,4.7,3.3,-4.9,4.3,-5.5,-24.6,0.530381176,0.0422376171,0.47523423,-0.700735496
13,36772,2090170,-0.566,-0.627,0.556,5,3.2,-5.2,5.5,-5.7,-24.5,0.530014954,0.0423902097,0.475081637,-0.7010712
14,38920,2090170,-0.566,-0.627,0.556,5,3.2,-5.2,5.5,-5.7,-24.5,0.530014954,0.0423902097,0.475081637,-0.7010712
15,41236,2090170,-0.562,-0.619,0.564,5,3.1,-5.3,5.5,-5.7,-24.5,0.529801325,0.0424817652,0.475051119,-0.701284829
16,43478,2090170,-0.566,-0.615,0.564,5,3,-5.3,5.5,-5.7,-24.5,0.52967925,0.0425122837,0.4750206,-0.701376385
17,46087,2090180,-0.566,-0.615,0.568,4.9,3.1,-5.3,3,-5.8,-24.5,0.529557176,0.0426038392,0.474990081,-0.701498459
18,47957,2090180,-0.562,-0.608,0.56,4.9,3.1,-5.2,3,-5.8,-24.5,0.529435102,0.0426343577,0.474929044,-0.701620533
19,50309,2090180,-0.562,-0.608,0.56,4.9,3.1,-5.2,3,-5.8,-24.5,0.529435102,0.0426343577,0.474929044,-0.701620533
20,54714,2090180,-0.562,-0.608,0.56,4.9,3.1,-5.2,3,-5.8,-24.5,0.529435102,0.0426343577,0.474929044,-0.701620533
21,55338,2090190,-0.566,-0.615,0.56,4.5,3.2,-5.2,3,-5.8,-24.5,0.52906888,0.0427564318,0.474837489,-0.701925718
22,58169,2090190,-0.566,-0.615,0.56,4.5,3.2,-5.2,3,-5.8,-24.5,0.52906888,0.0427564318,0.474837489,-0.701925718
23,62364,2090190,-0.566,-0.615,0.56,4.5,3.2,-5.2,3,-5.8,-24.5,0.52906888,0.0427564318,0.474837489,-0.701925718
24,64467,2090190,-0.562,-0.619,0.567,4,2.9,-5.5,3,-5.8,-24.5,0.528733177,0.0429090243,0.474776452,-0.702230903
25,66734,2090200,-0.562,-0.619,0.567,4,2.9,-5.5,3,-5.8,-24.5,0.528733177,0.0429090243,0.474776452,-0.702230903
26,68917,2090200,-0.562,-0.619,0.567,4,2.9,-5.5,3,-5.8,-24.5,0.528733177,0.0429090243,0.474776452,-0.702230903
27,71166,2090200,-0.562,-0.615,0.556,3.6,2.9,-5.3,5.3,-5.7,-24.7,0.52845851,0.0430005799,0.474562822,-0.702597125
28,73545,2090200,-0.562,-0.623,0.56,3.6,2.9,-5.4,5.3,-5.7,-24.7,0.528305918,0.0430616169,0.474532304,-0.702688681
29,75751,2090210,-0.562,-0.623,0.564,3.6,2.8,-5.2,2,-6.1,-24.5,0.528214362,0.0430921354,0.474532304,-0.702780236
30,78136,2090210,-0.558,-0.623,0.56,3.7,2.9,-5.1,2,-6.1,-24.5,0.528092288,0.0431226539,0.474501785,-0.702871792
31,81966,2090210,-0.562,-0.623,0.556,3.9,3,-5.1,2,-6.1,-24.5,0.528000732,0.0431836909,0.474501785,-0.702963347
32,83272,2090210,-0.558,-0.619,0.556,4,3,-5.1,2,-6.1,-24.5,0.527878658,0.0432142094,0.474471267,-0.703085421
33,85504,2090220,-0.558,-0.619,0.556,4,3,-5.1,2,-6.1,-24.5,0.527878658,0.0432142094,0.474471267,-0.703085421
34,88610,2090220,-0.562,-0.619,0.564,4,3,-5,2.7,-5.8,-24.6,0.52763451,0.0433057649,0.47441023,-0.703268532
35,90976,2090220,-0.562,-0.615,0.567,3.9,3,-5,2.7,-5.8,-24.6,0.527542955,0.0433362835,0.47441023,-0.703360088
36,93129,2090220,-0.562,-0.615,0.567,3.9,3,-5,2.7,-5.8,-24.6,0.527542955,0.0433362835,0.47441023,-0.703360088
37,95343,2090230,-0.562,-0.615,0.567,3.9,3,-5,2.7,-5.8,-24.6,0.527542955,0.0433362835,0.47441023,-0.703360088
38,99234,2090230,-0.562,-0.615,0.567,3.9,3,-5,2.7,-5.8,-24.6,0.527542955,0.0433362835,0.47441023,-0.703360088
39,101709,2090230,-0.562,-0.619,0.56,3.8,2.9,-4.9,3.5,-6,-24.6,0.527085177,0.043488876,0.474318674,-0.703756829
40,103196,2090230,-0.562,-0.619,0.56,3.8,2.9,-4.9,3.5,-6,-24.6,0.527085177,0.043488876,0.474318674,-0.703756829
41,105377,2090240,-0.562,-0.619,0.56,3.8,2.9,-4.9,3.5,-6,-24.6,0.527085177,0.043488876,0.474318674,-0.703756829
42,107965,2090240,-0.562,-0.619,0.56,3.8,2.9,-4.9,3.5,-6,-24.6,0.527085177,0.043488876,0.474318674,-0.703756829
43,112231,2090240,-0.562,-0.619,0.56,3.8,2.9,-4.9,3.5,-6,-24.6,0.527085177,0.043488876,0.474318674,-0.703756829
44,113159,2090240,-0.562,-0.604,0.556,3.3,2.9,-5,3.5,-6,-24.6,0.526535844,0.0436719871,0.474227119,-0.704214606
45,116689,2090250,-0.562,-0.604,0.556,3.3,2.9,-5,3.5,-6,-24.6,0.526535844,0.0436719871,0.474227119,-0.704214606
46,117786,2090250,-0.562,-0.608,0.556,2.8,2.9,-4.7,6.2,-5.9,-24.3,0.526444288,0.0438550981,0.473982971,-0.704428236
47,121932,2090250,-0.562,-0.608,0.556,2.8,2.9,-4.7,6.2,-5.9,-24.3,0.526444288,0.0438550981,0.473982971,-0.704428236
48,124195,2090250,-0.57,-0.607,0.556,2.5,2.9,-4.8,6.2,-5.9,-24.3,0.526230659,0.0438856166,0.473982971,-0.704580828
49,126496,2090260,-0.566,-0.607,0.552,2.5,2.9,-4.8,6,-5.8,-24.5,0.526108585,0.0439161351,0.473982971,-0.704672384
50,129537,2090260,-0.57,-0.611,0.56,2.5,2.8,-4.8,6,-5.8,-24.5,0.526017029,0.0439466536,0.473982971,-0.704733421
51,131811,2090260,-0.57,-0.611,0.552,2.5,2.7,-4.9,6,-5.8,-24.5,0.525894955,0.0439771722,0.473982971,-0.704824976
52,133162,2090260,-0.57,-0.611,0.552,2.6,2.6,-5,6,-5.8,-24.5,0.5258034,0.0439771722,0.473982971,-0.704916532
53,135577,2090270,-0.57,-0.611,0.552,2.6,2.6,-5,6,-5.8,-24.5,0.5258034,0.0439771722,0.473982971,-0.704916532
54,138565,2090270,-0.57,-0.611,0.548,2.8,2.6,-5.3,6.3,-5.3,-24,0.525559252,0.0439771722,0.473982971,-0.705069124
55,140846,2090270,-0.57,-0.607,0.556,2.8,2.5,-5.4,6.3,-5.3,-24,0.525467696,0.0440382092,0.473952452,-0.70516068
56,143093,2090270,-0.57,-0.607,0.556,2.8,2.5,-5.4,6.3,-5.3,-24,0.525467696,0.0440382092,0.473952452,-0.70516068
57,146972,2090280,-0.57,-0.611,0.556,3.1,2.2,-5.6,6.1,-5.9,-24.3,0.525223548,0.0440687277,0.473921934,-0.70537431
58,149179,2090280,-0.566,-0.611,0.556,3.2,2.2,-5.7,6.1,-5.9,-24.3,0.525101474,0.0440687277,0.473921934,-0.705465865
59,150899,2090280,-0.57,-0.611,0.556,3.3,2.3,-5.7,6.1,-5.9,-24.3,0.525009919,0.0440992462,0.473891415,-0.705557421
60,153571,2090280,-0.57,-0.611,0.556,3.3,2.3,-5.7,6.1,-5.9,-24.3,0.525009919,0.0440992462,0.473891415,-0.705557421
61,155414,2090290,-0.566,-0.611,0.556,3.3,2.5,-5.9,6.1,-5.9,-24.3,0.52476577,0.0441297647,0.473860897,-0.705740532
62,158503,2090290,-0.566,-0.611,0.556,3.3,2.5,-5.9,6.1,-5.9,-24.3,0.52476577,0.0441297647,0.473860897,-0.705740532
63,160640,2090290,-0.562,-0.615,0.564,3.4,2.4,-6.2,6.1,-5.9,-24.3,0.524521622,0.0441602832,0.473830378,-0.705954161
64,163019,2090290,-0.566,-0.615,0.568,3.5,2.3,-6.2,6.1,-5.9,-24.3,0.524399548,0.0441602832,0.47379986,-0.706076235
65,166547,2090300,-0.566,-0.615,0.568,3.5,2.3,-6.2,6.1,-5.9,-24.3,0.524399548,0.0441602832,0.47379986,-0.706076235
66,169622,2090300,-0.566,-0.619,0.556,3.6,2.2,-6.4,5.4,-6.7,-24.5,0.524246956,0.0443128758,0.473555712,-0.706320383
67,171860,2090300,-0.562,-0.623,0.564,3.7,2.2,-6.6,5.4,-6.7,-24.5,0.524124882,0.0443128758,0.473525193,-0.706442457
68,174064,2090300,-0.566,-0.619,0.56,3.8,2.2,-6.6,5.4,-6.7,-24.5,0.524002808,0.0443128758,0.473494675,-0.706534013
69,176439,2090310,-0.566,-0.623,0.556,3.8,2.2,-6.7,5.7,-7.6,-24.3,0.523880734,0.0443433943,0.473464156,-0.706656087
70,178573,2090310,-0.566,-0.627,0.56,3.7,2.2,-6.7,5.7,-7.6,-24.3,0.523728141,0.0443433943,0.473433638,-0.706778161
71,181408,2090310,-0.566,-0.619,0.556,3.7,2.2,-6.8,5.7,-7.6,-24.3,0.523606067,0.0443433943,0.473403119,-0.706900235
72,183370,2090310,-0.566,-0.623,0.56,3.7,2,-6.8,5.7,-7.6,-24.3,0.523483993,0.0443433943,0.473403119,-0.706991791
73,186417,2090320,-0.566,-0.623,0.56,3.7,2,-6.8,5.7,-7.6,-24.3,0.523483993,0.0443433943,0.473403119,-0.706991791
74,188676,2090320,-0.566,-0.623,0.56,3.7,2,-6.8,5.7,-7.6,-24.3,0.523483993,0.0443433943,0.473403119,-0.706991791
75,190925,2090320,-0.562,-0.619,0.552,3.8,1.6,-6.5,5.6,-8.2,-24.3,0.523117771,0.0443739128,0.473281045,-0.707358013
76,193203,2090320,-0.558,-0.612,0.556,3.8,1.6,-6.3,5.6,-8.2,-24.3,0.522995697,0.0443739128,0.473250526,-0.707449568
77,197716,2090330,-0.558,-0.619,0.563,3.8,1.6,-6.1,5.6,-8.9,-24.1,0.522873623,0.0443739128,0.473220008,-0.707571642
78,198371,2090330,-0.558,-0.619,0.56,3.7,1.6,-6,5.6,-8.9,-24.1,0.522751549,0.0443739128,0.473189489,-0.707663198
79,202235,2090330,-0.558,-0.619,0.56,3.7,1.6,-6,5.6,-8.9,-24.1,0.522751549,0.0443739128,0.473189489,-0.707663198
80,202951,2090330,-0.558,-0.623,0.563,3.6,1.7,-5.7,5.6,-8.9,-24.1,0.522537919,0.0444044313,0.473128452,-0.707876827
81,205983,2090340,-0.558,-0.623,0.563,3.6,1.7,-5.7,5.6,-8.9,-24.1,0.522537919,0.0444044313,0.473128452,-0.707876827
82,208601,2090340,-0.554,-0.631,0.563,3.5,1.6,-5.5,5.6,-8.9,-24.1,0.52232429,0.0444044313,0.473067415,-0.708059938
83,210887,2090340,-0.558,-0.627,0.567,3.6,1.6,-5.2,5.6,-8.9,-24.1,0.522232734,0.0444349498,0.473036897,-0.708182012
84,213115,2090340,-0.558,-0.627,0.567,3.6,1.6,-5.2,5.6,-8.9,-24.1,0.522232734,0.0444349498,0.473036897,-0.708182012
85,215791,2090350,-0.554,-0.623,0.563,3.5,1.6,-5,5.6,-8.9,-24.1,0.52211066,0.0444349498,0.473006378,-0.708273568
86,219197,2090350,-0.558,-0.623,0.56,3.1,1.6,-4.9,5.9,-8.5,-25.6,0.521988586,0.0444349498,0.47276223,-0.708517716
87,222035,2090350,-0.562,-0.627,0.556,2.7,1.6,-4.9,5.9,-8.5,-25.6,0.521866512,0.0444349498,0.47276223,-0.708609272
88,223631,2090350,-0.562,-0.623,0.556,2.4,1.7,-4.9,5.9,-8.5,-25.6,0.521774957,0.0444349498,0.472731712,-0.708670309
89,225843,2090360,-0.562,-0.623,0.56,2.3,1.8,-4.9,5.3,-7.8,-25.4,0.521683401,0.0444349498,0.472731712,-0.708761864
90,228106,2090360,-0.562,-0.619,0.556,2.3,1.9,-4.9,5.3,-7.8,-25.4,0.521591845,0.0444654683,0.472731712,-0.708822901
91,231672,2090360,-0.562,-0.623,0.552,2.5,1.9,-4.8,5.3,-7.8,-25.4,0.52150029,0.0444654683,0.472701193,-0.708914457
92,233968,2090360,-0.562,-0.623,0.56,2.6,1.9,-4.7,5.3,-7.8,-25.4,0.521378216,0.0444654683,0.472701193,-0.709006012
93,235561,2090370,-0.562,-0.623,0.556,2.6,1.9,-4.5,5.6,-6.8,-25.2,0.52128666,0.0444654683,0.472670675,-0.709067049
94,240070,2090370,-0.558,-0.619,0.563,2.5,2,-4.5,5.6,-6.8,-25.2,0.521195105,0.0444654683,0.472670675,-0.709158605
95,241140,2090370,-0.562,-0.619,0.556,2.3,2.1,-4.5,5.6,-6.8,-25.2,0.521103549,0.0444654683,0.472670675,-0.709219642
96,243063,2090370,-0.562,-0.619,0.556,2.3,2.1,-4.5,5.6,-6.8,-25.2,0.521103549,0.0444654683,0.472670675,-0.709219642
97,245793,2090380,-0.566,-0.619,0.552,2.3,2.2,-4.4,5.6,-6.4,-25.4,0.520920438,0.0445570238,0.472640156,-0.709372234
98,248442,2090380,-0.562,-0.615,0.556,2.5,2.2,-4.3,5.6,-6.4,-25.4,0.520828883,0.0445570238,0.472640156,-0.709433271
99,250690,2090380,-0.558,-0.619,0.56,2.6,2,-4.2,5.6,-6.4,-25.4,0.520737327,0.0445875423,0.472640156,-0.709524827
100,254160,2090380,-0.562,-0.615,0.556,2.6,1.9,-4.2,5.6,-6.4,-25.4,0.520645772,0.0445875423,0.472609638,-0.709585864
101,256645,2090390,-0.562,-0.615,0.56,2.5,1.9,-4.1,5.6,-5.7,-23.8,0.520554216,0.0446180609,0.472609638,-0.709646901
102,258820,2090390,-0.562,-0.619,0.556,2.3,2,-4.1,5.6,-5.7,-23.8,0.520462661,0.0446180609,0.472579119,-0.709738456
103,261058,2090390,-0.562,-0.611,0.556,2,2.1,-4,5.6,-5.7,-23.8,0.520401624,0.0446485794,0.472579119,-0.709799493
104,263289,2090390,-0.57,-0.615,0.556,1.8,2.2,-3.9,5.6,-5.7,-23.8,0.520310068,0.0446485794,0.472579119,-0.70986053
105,266037,2090400,-0.57,-0.615,0.556,1.8,2.2,-3.9,5.6,-5.7,-23.8,0.520310068,0.0446485794,0.472579119,-0.70986053
106,267827,2090400,-0.562,-0.611,0.548,1.7,2.3,-3.8,5.5,-5.7,-24.6,0.520249031,0.0448622089,0.472457045,-0.709952086
107,270496,2090400,-0.562,-0.611,0.548,1.7,2.3,-3.8,5.5,-5.7,-24.6,0.520249031,0.0448622089,0.472457045,-0.709952086
108,273780,2090400,-0.558,-0.615,0.556,1.8,1.9,-3.9,5.5,-5.7,-24.6,0.520096438,0.0448927274,0.472457045,-0.71007416
109,276038,2090410,-0.558,-0.619,0.552,1.9,1.7,-4,5.4,-5.9,-24.5,0.520004883,0.0448927274,0.472457045,-0.710165716
110,278238,2090410,-0.562,-0.615,0.556,1.9,1.6,-4,5.4,-5.9,-24.5,0.519913327,0.0448927274,0.472457045,-0.710226753
111,280578,2090410,-0.558,-0.623,0.556,2,1.5,-4,5.4,-5.9,-24.5,0.51985229,0.0449232459,0.472426527,-0.71028779
112,282927,2090410,-0.558,-0.623,0.56,2.1,1.5,-3.9,5.4,-5.9,-24.5,0.519760735,0.0449232459,0.472426527,-0.710348827
113,285593,2090420,-0.562,-0.627,0.548,2.2,1.5,-3.9,5.7,-5.7,-24.1,0.519669179,0.0449232459,0.472426527,-0.710409864
114,289503,2090420,-0.558,-0.631,0.552,2.3,1.3,-4,5.7,-5.7,-24.1,0.519608142,0.0449232459,0.472396008,-0.710470901
115,290459,2090420,-0.558,-0.627,0.552,2.4,1.1,-3.9,5.7,-5.7,-24.1,0.519516587,0.0449537645,0.47236549,-0.710562456
116,294719,2090420,-0.562,-0.631,0.56,2.5,1,-3.8,5.7,-5.7,-24.1,0.51945555,0.0449537645,0.472334971,-0.710623493
117,295546,2090430,-0.562,-0.627,0.56,2.6,0.9,-3.8,5.6,-5.7,-23.6,0.519394513,0.0449537645,0.472334971,-0.71068453
118,298116,2090430,-0.558,-0.623,0.556,2.5,0.8,-3.7,5.6,-5.7,-23.6,0.519302957,0.0449537645,0.472304453,-0.710745567
119,300958,2090430,-0.558,-0.623,0.552,2.5,0.9,-3.7,5.6,-5.7,-23.6,0.51924192,0.0449537645,0.472273934,-0.710837123
120,303001,2090430,-0.554,-0.619,0.555,2.5,1,-3.8,5.6,-5.7,-23.6,0.519180883,0.0449537645,0.472243416,-0.71089816
121,305286,2090440,-0.554,-0.619,0.555,2.5,1,-3.8,5.6,-5.7,-23.6,0.519180883,0.0449537645,0.472243416,-0.71089816
122,309135,2090440,-0.554,-0.619,0.555,2.5,1,-3.8,5.6,-5.7,-23.6,0.519180883,0.0449537645,0.472243416,-0.71089816
123,312310,2090440,-0.558,-0.619,0.556,2.7,1,-3.8,5.9,-5.9,-25.6,0.518936735,0.0449537645,0.472182379,-0.711111789
124,313083,2090440,-0.558,-0.615,0.552,2.8,0.9,-3.7,5.9,-5.9,-25.6,0.518875698,0.0449537645,0.47215186,-0.711172826
125,315464,2090450,-0.558,-0.615,0.552,2.8,0.9,-3.7,5.9,-5.9,-25.6,0.518875698,0.0449537645,0.47215186,-0.711172826
126,318131,2090450,-0.558,-0.623,0.548,3,0.5,-3.4,5.4,-6,-22.6,0.518814661,0.0451368755,0.471999268,-0.7112949
127,321142,2090450,-0.554,-0.627,0.552,2.9,0.5,-3.3,5.4,-6,-22.6,0.518753624,0.0451368755,0.471938231,-0.711386456
128,323456,2090450,-0.55,-0.62,0.555,2.9,0.6,-3.3,5.4,-6,-22.6,0.518692587,0.0451368755,0.471907712,-0.711447493
129,325661,2090460,-0.55,-0.62,0.555,2.9,0.6,-3.3,5.4,-6,-22.6,0.518692587,0.0451368755,0.471907712,-0.711447493
130,328002,2090460,-0.558,-0.619,0.56,3,0.8,-3.3,5.8,-6.1,-22.4,0.518570513,0.045167394,0.471846675,-0.711569567
131,330616,2090460,-0.554,-0.619,0.559,3,0.8,-3.2,5.8,-6.1,-22.4,0.518509476,0.0451979125,0.471816156,-0.711630604
132,333896,2090460,-0.558,-0.623,0.552,3,0.8,-3,5.8,-6.1,-22.4,0.518448439,0.0451979125,0.471785638,-0.711722159
133,336220,2090470,-0.554,-0.619,0.559,3,1,-2.9,5.4,-5.9,-22.3,0.518387402,0.0451979125,0.471755119,-0.711783197
134,338360,2090470,-0.554,-0.619,0.559,3,1,-2.9,5.4,-5.9,-22.3,0.518387402,0.0451979125,0.471755119,-0.711783197
135,340570,2090470,-0.554,-0.627,0.559,3,1.2,-2.7,5.4,-5.9,-22.3,0.518265328,0.0452589496,0.471694082,-0.711905271
136,343387,2090470,-0.558,-0.627,0.563,3,1.2,-2.5,5.4,-5.9,-22.3,0.518234809,0.0452894681,0.471663564,-0.711966308
137,345917,2090480,-0.554,-0.623,0.563,2.9,1.2,-2.3,5.7,-5.9,-22.8,0.518173772,0.0453199866,0.471633045,-0.712027345
138,348126,2090480,-0.554,-0.627,0.563,2.7,1.1,-2.2,5.7,-5.9,-22.8,0.518112735,0.0453505051,0.471602527,-0.712057863
139,350744,2090480,-0.562,-0.627,0.571,2.5,1.2,-2.3,5.7,-5.9,-22.8,0.518082217,0.0453810236,0.471572008,-0.7121189
140,354186,2090480,-0.558,-0.623,0.563,2.5,1.2,-2.3,5.7,-5.9,-22.8,0.51802118,0.0454115421,0.47154149,-0.712179937
141,357171,2090490,-0.562,-0.623,0.56,2.4,1.3,-2.3,5.8,-5.7,-25.6,0.517960143,0.0454115421,0.47154149,-0.712210456
142,359445,2090490,-0.558,-0.627,0.567,2.4,1.5,-2.2,5.8,-5.7,-25.6,0.517899106,0.0454420606,0.471510971,-0.712271493
143,361708,2090490,-0.558,-0.627,0.563,2.2,1.4,-2.1,5.8,-5.7,-25.6,0.517868587,0.0454420606,0.471480453,-0.712302011
144,364014,2090490,-0.562,-0.623,0.564,1.9,1.5,-2.1,5.8,-5.7,-25.6,0.51780755,0.0455030976,0.471480453,-0.712363048
145,366254,2090500,-0.562,-0.623,0.564,1.9,1.5,-2.1,5.8,-5.7,-25.6,0.51780755,0.0455030976,0.471480453,-0.712363048
146,368464,2090500,-0.558,-0.623,0.563,1.6,1.6,-2.2,5.7,-5.6,-23.9,0.517777032,0.0455946532,0.471358379,-0.712454604
147,370511,2090500,-0.562,-0.623,0.564,1.6,1.7,-2.1,5.7,-5.6,-23.9,0.517715995,0.0456251717,0.471358379,-0.712515641
148,373381,2090500,-0.558,-0.623,0.567,1.5,1.8,-2,5.7,-5.6,-23.9,0.517654958,0.0456556902,0.471358379,-0.712546159
149,376603,2090510,-0.558,-0.615,0.563,1.4,1.8,-1.8,5.9,-6.1,-24.9,0.517624439,0.0456862087,0.471358379,-0.712576678
150,379578,2090510,-0.558,-0.619,0.567,1.3,1.9,-1.8,5.9,-6.1,-24.9,0.517563402,0.0456862087,0.471358379,-0.712607196
151,381487,2090510,-0.554,-0.619,0.563,1.3,2,-1.8,5.9,-6.1,-24.9,0.517502365,0.0456862087,0.471358379,-0.712637715
152,383300,2090510,-0.562,-0.615,0.564,1.1,2,-1.8,5.9,-6.1,-24.9,0.517441328,0.0457472457,0.471388897,-0.712668233
153,385952,2090520,-0.558,-0.619,0.563,1,2,-1.8,5.9,-5.9,-25.2,0.51741081,0.0457777642,0.471388897,-0.712698752
154,387779,2090520,-0.558,-0.623,0.56,1,2.1,-1.7,5.9,-5.9,-25.2,0.517349773,0.0458082827,0.471388897,-0.71272927
155,390469,2090520,-0.558,-0.623,0.56,1,2.1,-1.7,5.9,-5.9,-25.2,0.517349773,0.0458082827,0.471388897,-0.71272927
156,394597,2090520,-0.554,-0.627,0.559,1.3,2.2,-1.7,5.9,-5.9,-25.2,0.517258217,0.0458693197,0.471419416,-0.712790307
157,396899,2090530,-0.558,-0.631,0.567,1.5,2.3,-1.5,5.8,-6,-25.4,0.51719718,0.0458998383,0.471419416,-0.712820826
158,399205,2090530,-0.554,-0.627,0.563,1.5,2.4,-1.3,5.8,-6,-25.4,0.517166662,0.0459303568,0.471419416,-0.712851344
159,401555,2090530,-0.554,-0.627,0.559,1.6,2.5,-1.1,5.8,-6,-25.4,0.517105625,0.0459913938,0.471419416,-0.712881863
160,404528,2090530,-0.554,-0.627,0.559,1.8,2.4,-0.9,5.8,-6,-25.4,0.517075106,0.0460524308,0.471419416,-0.712912381
161,405500,2090540,-0.554,-0.627,0.556,1.9,2.5,-0.8,6,-6.1,-24.3,0.517014069,0.0461134678,0.471419416,-0.7129429
162,409006,2090540,-0.554,-0.627,0.552,1.8,2.5,-0.7,6,-6.1,-24.3,0.516983551,0.0461439863,0.471419416,-0.7129429
163,412037,2090540,-0.554,-0.623,0.548,1.8,2.5,-0.6,6,-6.1,-24.3,0.516953032,0.0461745048,0.471419416,-0.712973418
164,414301,2090540,-0.554,-0.619,0.552,1.9,2.5,-0.4,6,-6.1,-24.3,0.516922514,0.0462660604,0.471419416,-0.713003937
165,416586,2090550,-0.554,-0.619,0.552,1.9,2.5,-0.4,6,-6.1,-24.3,0.516922514,0.0462660604,0.471419416,-0.713003937
166,419606,2090550,-0.558,-0.619,0.552,2.2,2.4,-0.3,6.2,-5.7,-24,0.516891995,0.0463576159,0.471388897,-0.713034455
167,421759,2090550,-0.554,-0.608,0.559,2.5,2.4,-0.3,6.2,-5.7,-24,0.516830958,0.0464796899,0.471358379,-0.713095492
168,424078,2090550,-0.558,-0.615,0.556,2.4,2.6,-0.3,6.2,-5.7,-24,0.516800439,0.046540727,0.471358379,-0.713126011
169,426361,2090560,-0.554,-0.608,0.552,2.3,2.6,-0.2,6,-5.7,-24.2,0.516769921,0.046601764,0.471358379,-0.713126011
170,428491,2090560,-0.554,-0.608,0.555,2.2,2.6,-0.1,6,-5.7,-24.2,0.516739402,0.046662801,0.471358379,-0.713156529
171,430541,2090560,-0.554,-0.608,0.552,2,2.5,0,6,-5.7,-24.2,0.516708884,0.046723838,0.47132786,-0.713187048
172,432949,2090560,-0.562,-0.604,0.548,1.8,2.6,0,6,-5.7,-24.2,0.516678365,0.046784875,0.47132786,-0.713187048
173,435459,2090570,-0.562,-0.6,0.544,1.6,2.6,0.1,6,-5.2,-24.3,0.516647847,0.046845912,0.471358379,-0.713217566
174,438920,2090570,-0.562,-0.604,0.54,1.5,2.6,0.2,6,-5.2,-24.3,0.51658681,0.0469069491,0.471358379,-0.713217566
175,441214,2090570,-0.562,-0.604,0.548,1.5,2.6,0.2,6,-5.2,-24.3,0.51658681,0.0469679861,0.471358379,-0.713217566
176,443392,2090570,-0.562,-0.6,0.544,1.5,2.5,0.1,6,-5.2,-24.3,0.516556291,0.0470290231,0.471358379,-0.713248085
177,445638,2090580,-0.565,-0.6,0.552,1.5,2.5,0,6.4,-5.4,-24.4,0.516525773,0.0470900601,0.471358379,-0.713248085
178,448476,2090580,-0.558,-0.608,0.548,1.6,2.6,-0.1,6.4,-5.4,-24.4,0.516495254,0.0471510971,0.471358379,-0.713278603
179,450563,2090580,-0.558,-0.608,0.552,1.7,2.7,-0.2,6.4,-5.4,-24.4,0.516464736,0.0472121342,0.471358379,-0.713278603
180,454694,2090580,-0.558,-0.608,0.552,1.7,2.7,-0.2,6.4,-5.4,-24.4,0.516464736,0.0472121342,0.471358379,-0.713278603
181,455531,2090590,-0.562,-0.611,0.556,1.8,2.7,-0.4,4.3,-6,-24.3,0.516403699,0.0473342082,0.471388897,-0.71333964
182,458369,2090590,-0.554,-0.616,0.552,1.9,2.6,-0.6,4.3,-6,-24.3,0.51637318,0.0473952452,0.471388897,-0.71333964
183,461726,2090590,-0.554,-0.619,0.552,2.1,2.6,-0.8,4.3,-6,-24.3,0.516312143,0.0473952452,0.471388897,-0.713370159
184,462793,2090590,-0.554,-0.619,0.552,2.4,2.6,-0.9,4.3,-6,-24.3,0.516281625,0.0474868007,0.471358379,-0.713431196
185,465939,2090600,-0.554,-0.619,0.552,2.4,2.6,-0.9,4.3,-6,-24.3,0.516281625,0.0474868007,0.471358379,-0.713431196
186,468256,2090600,-0.554,-0.619,0.552,2.4,2.6,-0.9,4.3,-6,-24.3,0.516281625,0.0474868007,0.471358379,-0.713431196
187,470496,2090600,-0.554,-0.619,0.548,2.6,2.7,-1.3,7.1,-6,-24.1,0.516190069,0.0477309488,0.471266823,-0.713522752
188,473179,2090600,-0.558,-0.619,0.552,2.6,2.8,-1.4,7.1,-6,-24.1,0.516129032,0.0477919858,0.471266823,-0.713583789
189,477304,2090610,-0.558,-0.615,0.556,2.7,2.7,-1.3,7.3,-5.8,-24,0.516067995,0.0478530229,0.471266823,-0.713614307
190,478051,2090610,-0.554,-0.616,0.555,2.8,2.6,-1.4,7.3,-5.8,-24,0.516006958,0.0478835414,0.471236305,-0.713644826
191,481360,2090610,-0.558,-0.615,0.548,2.9,2.6,-1.5,7.3,-5.8,-24,0.51597644,0.0479750969,0.471236305,-0.713705863
192,483619,2090610,-0.554,-0.619,0.552,2.8,2.6,-1.6,7.3,-5.8,-24,0.515915403,0.0480361339,0.471175268,-0.713736381
193,485814,2090620,-0.55,-0.62,0.551,2.7,2.6,-1.6,7.8,-5.6,-24.1,0.515854366,0.0480971709,0.471175268,-0.713797418
194,488016,2090620,-0.55,-0.62,0.551,2.7,2.6,-1.6,7.8,-5.6,-24.1,0.515854366,0.0480971709,0.471175268,-0.713797418
195,491058,2090620,-0.554,-0.627,0.552,2.4,2.6,-1.7,7.8,-5.6,-24.1,0.515732292,0.0481887265,0.471175268,-0.713858455
196,493284,2090620,-0.554,-0.623,0.556,2.4,2.6,-1.7,7.8,-5.6,-24.1,0.515671255,0.0482497635,0.471175268,-0.713919492
197,495512,2090630,-0.554,-0.623,0.556,2.4,2.6,-1.7,7.4,-6.2,-24.2,0.515640736,0.048280282,0.471175268,-0.713950011
198,500002,2090630,-0.558,-0.627,0.552,2.5,2.7,-1.7,7.4,-6.2,-24.2,0.515579699,0.048341319,0.471175268,-0.714011048
199,500466,2090630,-0.554,-0.627,0.556,2.5,2.9,-1.7,7.4,-6.2,-24.2,0.515518662,0.0483718375,0.471175268,-0.714041566
200,503014,2090630,-0.554,-0.627,0.556,2.5,2.9,-1.7,7.4,-6.2,-24.2,0.515518662,0.0483718375,0.471175268,-0.714041566
201,505915,2090640,-0.554,-0.627,0.559,2.4,3.3,-1.8,5.6,-6.2,-23.7,0.51536607,0.0485244301,0.471175268,-0.714133122
202,508319,2090640,-0.554,-0.627,0.556,2.3,3.3,-1.9,5.6,-6.2,-23.7,0.515305033,0.0485854671,0.471175268,-0.71416364
203,510671,2090640,-0.554,-0.627,0.556,2.3,3.3,-1.9,5.6,-6.2,-23.7,0.515305033,0.0485854671,0.471175268,-0.71416364
204,513621,2090640,-0.554,-0.627,0.556,2.3,3.3,-1.9,5.6,-6.2,-23.7,0.515305033,0.0485854671,0.471175268,-0.71416364
205,516602,2090650,-0.554,-0.623,0.552,2.3,3.4,-2.1,5.6,-6.2,-23.7,0.515182958,0.0487075411,0.471175268,-0.714255196
206,518560,2090650,-0.554,-0.631,0.556,2.7,3.4,-2.2,6,-5.9,-24.2,0.515030366,0.0487685781,0.471114231,-0.71437727
207,520416,2090650,-0.55,-0.631,0.559,3,3.4,-2,6,-5.9,-24.2,0.514969329,0.0488296152,0.471114231,-0.714438307
208,523341,2090650,-0.55,-0.631,0.559,3,3.4,-2,6,-5.9,-24.2,0.514969329,0.0488296152,0.471114231,-0.714438307
209,525612,2090660,-0.55,-0.627,0.559,3.3,3.7,-1.9,5.8,-6.1,-23.9,0.514816736,0.0489822077,0.471114231,-0.714560381
210,528580,2090660,-0.546,-0.635,0.559,3.2,3.8,-1.8,5.8,-6.1,-23.9,0.514725181,0.0490737632,0.471083712,-0.714590899
211,531270,2090660,-0.542,-0.628,0.555,3.1,3.8,-1.8,5.8,-6.1,-23.9,0.514664144,0.0491042817,0.471083712,-0.714651936
212,533066,2090660,-0.546,-0.628,0.559,3,3.9,-1.8,5.8,-6.1,-23.9,0.514603107,0.0492263558,0.471083712,-0.714682455
213,535773,2090670,-0.546,-0.628,0.559,3,3.9,-1.8,5.8,-6.1,-23.9,0.514603107,0.0492263558,0.471083712,-0.714682455
214,539030,2090670,-0.546,-0.631,0.563,2.9,4.3,-1.8,5,-5.8,-24.1,0.514450514,0.0493484298,0.471114231,-0.71477401
215,541999,2090670,-0.546,-0.635,0.559,2.8,4.5,-1.7,5,-5.8,-24.1,0.514358959,0.0494705039,0.471114231,-0.714835047
216,544305,2090670,-0.546,-0.631,0.563,2.7,4.6,-1.7,5,-5.8,-24.1,0.514297922,0.0495620594,0.471114231,-0.714865566
217,546515,2090680,-0.546,-0.628,0.559,2.6,4.7,-1.7,4.1,-6.1,-23.8,0.514206366,0.0495925779,0.471144749,-0.714926603
218,549557,2090680,-0.546,-0.628,0.559,2.6,4.7,-1.7,4.1,-6.1,-23.8,0.514206366,0.0495925779,0.471144749,-0.714926603
219,551769,2090680,-0.546,-0.631,0.555,2.4,4.9,-1.5,4.1,-6.1,-23.8,0.514053774,0.0498062075,0.471175268,-0.71498764
220,554035,2090680,-0.546,-0.631,0.559,2.3,5.1,-1.4,4.1,-6.1,-23.8,0.513962218,0.049897763,0.471175268,-0.715018159
221,556365,2090690,-0.55,-0.627,0.559,2.1,5.2,-1.2,5.8,-6.9,-24,0.513901181,0.0499893185,0.471175268,-0.715048677
222,558480,2090690,-0.55,-0.627,0.559,2.1,5.3,-1.2,5.8,-6.9,-24,0.513809626,0.0500808741,0.471236305,-0.715079196
223,560711,2090690,-0.554,-0.627,0.556,2,5.4,-1.2,5.8,-6.9,-24,0.513748589,0.0502029481,0.471266823,-0.715109714
224,563164,2090690,-0.554,-0.627,0.556,2,5.4,-1.2,5.8,-6.9,-24,0.513748589,0.0502029481,0.471266823,-0.715109714
225,565236,2090700,-0.554,-0.627,0.556,2,5.4,-1.2,5.8,-6.9,-24,0.513748589,0.0502029481,0.471266823,-0.715109714
226,567909,2090700,-0.554,-0.627,0.556,2,5.4,-1.2,5.8,-6.9,-24,0.513748589,0.0502029481,0.471266823,-0.715109714
227,571991,2090700,-0.55,-0.624,0.548,1.5,5.8,-0.9,3.1,-5.4,-24.4,0.513443403,0.0504776147,0.471297342,-0.715292825
228,574308,2090700,-0.55,-0.62,0.555,1.5,5.9,-0.9,3.1,-5.4,-24.4,0.513382366,0.0505691702,0.47132786,-0.715323344
229,576545,2090710,-0.55,-0.62,0.555,1.5,5.9,-0.9,3.1,-5.4,-24.4,0.513382366,0.0505691702,0.47132786,-0.715323344
230,578749,2090710,-0.554,-0.619,0.559,1.3,6.2,-1.1,6.2,-5.5,-23.8,0.513199255,0.0507827998,0.471419416,-0.715353862
231,580966,2090710,-0.554,-0.619,0.559,1.3,6.2,-1.1,6.2,-5.5,-23.8,0.513199255,0.0507827998,0.471419416,-0.715353862
232,583543,2090710,-0.554,-0.616,0.555,1,6.3,-1.1,6.2,-5.5,-23.8,0.513046663,0.0509964293,0.47154149,-0.715384381
233,585466,2090720,-0.554,-0.616,0.555,0.9,6.3,-1.2,3.4,-5.3,-23.6,0.512955107,0.0510574664,0.471602527,-0.715414899
234,588068,2090720,-0.554,-0.616,0.555,0.9,6.3,-1.2,3.4,-5.3,-23.6,0.512955107,0.0510574664,0.471602527,-0.715414899
235,591466,2090720,-0.554,-0.627,0.552,0.9,6.5,-1.2,3.4,-5.3,-23.6,0.512771996,0.0512710959,0.471724601,-0.715445418
236,592976,2090720,-0.558,-0.619,0.556,0.9,6.7,-1.3,3.4,-5.3,-23.6,0.512680441,0.05139317,0.471785638,-0.715445418
237,597469,2090730,-0.558,-0.623,0.56,0.9,6.8,-1.5,6.4,-5.5,-24,0.512588885,0.0514847255,0.471846675,-0.715475936
238,598003,2090730,-0.55,-0.624,0.551,1,6.8,-1.7,6.4,-5.5,-24,0.51249733,0.0515457625,0.471907712,-0.715506455
239,601223,2090730,-0.55,-0.624,0.551,1,6.8,-1.7,6.4,-5.5,-24,0.51249733,0.0515457625,0.471907712,-0.715506455
240,603172,2090730,-0.55,-0.624,0.551,1,6.8,-1.7,6.4,-5.5,-24,0.51249733,0.0515457625,0.471907712,-0.715506455
241,606291,2090740,-0.554,-0.631,0.559,1.2,6.8,-2,6.9,-5.8,-23.9,0.512192145,0.0518814661,0.472090823,-0.715567492
242,609359,2090740,-0.554,-0.627,0.556,1.2,6.8,-2.2,6.9,-5.8,-23.9,0.51207007,0.0519730216,0.47215186,-0.71559801
243,610580,2090740,-0.55,-0.627,0.559,1.1,6.9,-2.2,6.9,-5.8,-23.9,0.511978515,0.0520340587,0.472212897,-0.715628529
244,613787,2090740,-0.554,-0.623,0.559,0.9,7,-2.4,6.9,-5.8,-23.9,0.511856441,0.0521561327,0.472273934,-0.715659047
245,616085,2090750,-0.554,-0.623,0.559,0.9,7,-2.4,6.9,-5.8,-23.9,0.511856441,0.0521561327,0.472273934,-0.715659047
246,618263,2090750,-0.554,-0.623,0.556,0.6,7.2,-2.5,6.1,-6,-24.4,0.511764885,0.0521866512,0.472243416,-0.715781121
247,620995,2090750,-0.554,-0.619,0.559,0,7.3,-2.6,6.1,-6,-24.4,0.511520737,0.0523697623,0.472396008,-0.71581164
248,622840,2090750,-0.554,-0.623,0.548,-0.1,7.3,-2.5,6.1,-6,-24.4,0.511398663,0.0524307993,0.472487564,-0.71581164
249,626543,2090760,-0.554,-0.623,0.548,-0.1,7.3,-2.5,6.1,-6,-24.4,0.511398663,0.0524307993,0.472487564,-0.71581164
250,628855,2090760,-0.558,-0.631,0.56,-0.3,7.4,-2.5,7.1,-6.2,-24.1,0.511185034,0.0526139103,0.472670675,-0.715872677
251,631062,2090760,-0.558,-0.635,0.56,-0.4,7.3,-2.6,7.1,-6.2,-24.1,0.51106296,0.0527054659,0.47276223,-0.715872677
252,633772,2090760,-0.554,-0.635,0.559,-0.6,7.2,-2.8,7.1,-6.2,-24.1,0.510940886,0.0527665029,0.472853786,-0.715903195
253,635590,2090770,-0.554,-0.635,0.556,-0.7,7,-2.8,6.6,-5.9,-24.3,0.510818812,0.0528580584,0.472945341,-0.715903195
254,637827,2090770,-0.554,-0.635,0.556,-0.7,7,-2.8,6.6,-5.9,-24.3,0.510818812,0.0528580584,0.472945341,-0.715903195
255,640412,2090770,-0.554,-0.635,0.556,-0.7,7,-2.8,6.6,-5.9,-24.3,0.510818812,0.0528580584,0.472945341,-0.715903195
256,643290,2090770,-0.558,-0.631,0.556,-1.4,7.4,-2.6,6.6,-5.9,-24.3,0.510483108,0.053071688,0.473250526,-0.715933714
257,646814,2090780,-0.558,-0.627,0.548,-1.5,7.3,-2.8,7,-5.7,-24.1,0.510361034,0.053132725,0.4733726,-0.715964232
258,649064,2090780,-0.566,-0.627,0.556,-1.5,7.2,-2.8,7,-5.7,-24.1,0.51023896,0.053193762,0.473464156,-0.715964232
259,650603,2090780,-0.566,-0.627,0.556,-1.5,7.2,-2.8,7,-5.7,-24.1,0.51023896,0.053193762,0.473464156,-0.715964232
260,653226,2090780,-0.566,-0.627,0.556,-1.5,7.2,-2.8,7,-5.7,-24.1,0.51023896,0.053193762,0.473464156,-0.715964232
261,656529,2090790,-0.562,-0.623,0.556,-1.4,6.8,-2.8,6.5,-5.7,-23.9,0.509903256,0.0533768731,0.47379986,-0.715994751
262,658918,2090790,-0.566,-0.623,0.552,-1.4,6.8,-2.7,6.5,-5.7,-23.9,0.509781182,0.0534379101,0.473891415,-0.715994751
263,661071,2090790,-0.562,-0.627,0.556,-1.3,6.7,-2.5,6.5,-5.7,-23.9,0.509659108,0.0534989471,0.473982971,-0.715994751
264,663348,2090790,-0.566,-0.623,0.556,-1.2,6.6,-2.5,6.5,-5.7,-23.9,0.509567553,0.0535905026,0.474074526,-0.715994751
265,667072,2090800,-0.566,-0.623,0.556,-1.2,6.6,-2.5,6.5,-5.7,-23.9,0.509567553,0.0535905026,0.474074526,-0.715994751
266,669316,2090800,-0.558,-0.627,0.556,-1.1,6.3,-2.6,6.6,-6.9,-23.9,0.50941496,0.0537430952,0.474166082,-0.716055788
267,670837,2090800,-0.558,-0.627,0.556,-1.1,6.3,-2.6,6.6,-6.9,-23.9,0.50941496,0.0537430952,0.474166082,-0.716055788
268,673126,2090800,-0.562,-0.623,0.556,-1.2,6.1,-2.5,6.6,-6.9,-23.9,0.509201331,0.0538651692,0.474349193,-0.716055788
269,675422,2090810,-0.558,-0.623,0.56,-1.4,5.9,-2.5,6.2,-7.8,-24,0.509109775,0.0538956877,0.474440748,-0.716086306
270,678075,2090810,-0.558,-0.623,0.56,-1.4,5.8,-2.6,6.2,-7.8,-24,0.50901822,0.0539567248,0.474532304,-0.716086306
271,682157,2090810,-0.558,-0.619,0.552,-1.5,5.7,-2.6,6.2,-7.8,-24,0.508896146,0.0539872433,0.474623859,-0.716086306
272,682885,2090810,-0.558,-0.623,0.556,-1.5,5.6,-2.5,6.2,-7.8,-24,0.508774071,0.0540482803,0.474715415,-0.716086306
273,686135,2090820,-0.558,-0.623,0.556,-1.5,5.6,-2.5,6.2,-7.8,-24,0.508774071,0.0540482803,0.474715415,-0.716086306
274,688875,2090820,-0.558,-0.619,0.552,-1.4,5.5,-2.3,6.5,-8.5,-23.7,0.508621479,0.0541398358,0.474898526,-0.716116825
275,691261,2090820,-0.562,-0.611,0.556,-1.1,5.5,-2.2,6.5,-8.5,-23.7,0.508529923,0.0541703543,0.474959563,-0.716116825
276,696454,2090820,-0.558,-0.615,0.556,-0.8,5.4,-2.3,6.5,-8.5,-23.7,0.508438368,0.0542313913,0.475051119,-0.716116825
277,696454,2090830,-0.558,-0.608,0.556,-0.6,5.4,-2.3,6.4,-8.5,-24,0.508346812,0.0542924284,0.475081637,-0.716147343
278,698781,2090830,-0.562,-0.615,0.556,-0.3,5.2,-2.3,6.4,-8.5,-24,0.508255257,0.0543534654,0.475173193,-0.716147343
279,700880,2090830,-0.554,-0.612,0.548,-0.1,5.1,-2.4,6.4,-8.5,-24,0.508163701,0.0543839839,0.47523423,-0.716177862
280,703205,2090830,-0.558,-0.612,0.552,0.1,4.9,-2.4,6.4,-8.5,-24,0.508072146,0.0544450209,0.475295267,-0.71620838
281,706049,2090840,-0.554,-0.612,0.548,0.4,4.8,-2.5,6.4,-4.3,-22.9,0.50798059,0.0544755394,0.475356304,-0.71620838
282,708330,2090840,-0.554,-0.612,0.552,0.5,4.6,-2.6,6.4,-4.3,-22.9,0.507889035,0.0545670949,0.475386822,-0.716238899
283,710565,2090840,-0.558,-0.608,0.548,0.6,4.6,-2.6,6.4,-4.3,-22.9,0.507797479,0.0545976135,0.475447859,-0.716269417
284,713386,2090840,-0.558,-0.608,0.552,0.7,4.5,-2.7,6.4,-4.3,-22.9,0.507705924,0.0546586505,0.475478378,-0.716299936
285,715584,2090850,-0.558,-0.608,0.552,0.7,4.5,-2.7,6.4,-4.3,-22.9,0.507705924,0.0546586505,0.475478378,-0.716299936
286,719601,2090850,-0.562,-0.604,0.552,0.9,4.5,-2.6,6.4,-6.8,-25.5,0.507614368,0.054811243,0.475417341,-0.71642201
287,721909,2090850,-0.558,-0.6,0.548,0.8,4.6,-2.6,6.4,-6.8,-25.5,0.507522813,0.05487228,0.475447859,-0.716452528
288,722990,2090850,-0.562,-0.6,0.544,0.7,4.6,-2.7,6.4,-6.8,-25.5,0.507431257,0.0549333171,0.475478378,-0.716483047
289,726413,2090860,-0.561,-0.596,0.544,0.6,4.5,-2.8,6.8,-6,-25.2,0.507339702,0.0549638356,0.475539415,-0.716513565
290,728600,2090860,-0.565,-0.596,0.54,0.4,4.3,-2.9,6.8,-6,-25.2,0.507248146,0.0550248726,0.475569933,-0.716544084
291,731546,2090860,-0.565,-0.596,0.54,0.1,4.3,-2.9,6.8,-6,-25.2,0.50715659,0.0550553911,0.47563097,-0.716574602
292,733144,2090860,-0.565,-0.596,0.54,0,4.3,-3.1,6.8,-6,-25.2,0.507065035,0.0550859096,0.475692007,-0.716605121
293,735848,2090870,-0.565,-0.596,0.54,0,4.3,-3.1,6.8,-6,-25.2,0.507065035,0.0550859096,0.475692007,-0.716605121
294,737935,2090870,-0.573,-0.595,0.544,-0.1,4.3,-3.3,6.8,-4.8,-25.4,0.506851405,0.0551469466,0.475783563,-0.716666158
295,742025,2090870,-0.577,-0.603,0.54,-0.1,4.2,-3.3,6.8,-4.8,-25.4,0.50675985,0.0551774651,0.4758446,-0.716696677
296,744311,2090870,-0.577,-0.603,0.548,-0.2,4.1,-3.5,6.8,-4.8,-25.4,0.506668294,0.0552079836,0.475905637,-0.716727195
297,746537,2090880,-0.582,-0.607,0.541,-0.2,4,-3.6,6.4,-4.3,-25.5,0.506576739,0.0552079836,0.475936155,-0.716757714
298,748791,2090880,-0.582,-0.607,0.537,-0.5,3.9,-3.7,6.4,-4.3,-25.5,0.506485183,0.0552690207,0.475997192,-0.716788232
299,750590,2090880,-0.582,-0.607,0.541,-0.6,4,-3.9,6.4,-4.3,-25.5,0.506363109,0.0552690207,0.476058229,-0.716818751
300,752968,2090880,-0.582,-0.607,0.541,-0.6,4,-3.9,6.4,-4.3,-25.5,0.506363109,0.0552690207,0.476058229,-0.716818751
301,755460,2090890,-0.586,-0.611,0.541,-0.7,4.1,-4.4,6.7,-6.2,-23.4,0.50614948,0.0552995392,0.476180303,-0.716910306
302,759447,2090890,-0.586,-0.611,0.541,-0.7,4,-4.5,6.7,-6.2,-23.4,0.506027406,0.0552995392,0.47624134,-0.716940825
303,760303,2090890,-0.59,-0.615,0.545,-0.6,3.7,-4.7,6.7,-6.2,-23.4,0.50593585,0.0552995392,0.476302377,-0.716971343
304,762783,2090890,-0.59,-0.615,0.545,-0.6,3.7,-4.7,6.7,-6.2,-23.4,0.50593585,0.0552995392,0.476302377,-0.716971343
305,766138,2090900,-0.59,-0.615,0.545,-0.6,3.7,-4.7,6.7,-6.2,-23.4,0.50593585,0.0552995392,0.476302377,-0.716971343
306,768370,2090900,-0.59,-0.615,0.545,-0.6,3.7,-4.7,6.7,-6.2,-23.4,0.50593585,0.0552995392,0.476302377,-0.716971343
307,770658,2090900,-0.59,-0.619,0.549,0.3,3.1,-5.3,6.6,-6.1,-24.2,0.505569628,0.0555131687,0.47645497,-0.717123936
308,772932,2090900,-0.594,-0.626,0.549,0.6,3.1,-5.5,6.6,-6.1,-24.2,0.505447554,0.0555131687,0.476485488,-0.717184973
309,776681,2090910,-0.59,-0.627,0.545,0.8,3,-5.5,6.8,-5.7,-24.5,0.50532548,0.0555131687,0.476516007,-0.71724601
310,778957,2090910,-0.59,-0.627,0.553,1.1,2.9,-5.5,6.8,-5.7,-24.5,0.505203406,0.0555131687,0.476516007,-0.717337565
311,781231,2090910,-0.59,-0.63,0.545,1.2,2.8,-5.5,6.8,-5.7,-24.5,0.505081332,0.0555131687,0.476546525,-0.717398602
312,783431,2090910,-0.59,-0.63,0.545,1.2,2.8,-5.5,6.8,-5.7,-24.5,0.505081332,0.0555131687,0.476546525,-0.717398602
313,785660,2090920,-0.594,-0.63,0.549,1.4,2.6,-5.6,6.8,-6,-24.3,0.504837184,0.0555131687,0.476577044,-0.717551195
314,787945,2090920,-0.594,-0.63,0.549,1.5,2.5,-5.8,6.8,-6,-24.3,0.50471511,0.0555131687,0.476577044,-0.717612232
315,792384,2090920,-0.59,-0.63,0.549,1.4,2.4,-5.8,6.8,-6,-24.3,0.504623554,0.0555131687,0.476607562,-0.717703787
316,792896,2090920,-0.59,-0.634,0.545,1.5,2.2,-5.6,6.8,-6,-24.3,0.50450148,0.0554521317,0.476607562,-0.717764824
317,796182,2090930,-0.59,-0.634,0.545,1.5,2.2,-5.6,6.8,-6,-24.3,0.50450148,0.0554521317,0.476607562,-0.717764824
318,798406,2090930,-0.59,-0.623,0.541,1.8,2.1,-5.4,7,-5.6,-23.3,0.504287851,0.0554521317,0.476607562,-0.717917417
319,800642,2090930,-0.586,-0.634,0.541,1.9,2.1,-5.3,7,-5.6,-23.3,0.504165777,0.0554521317,0.476607562,-0.718008972
320,802936,2090930,-0.586,-0.634,0.541,1.9,2.1,-5.3,7,-5.6,-23.3,0.504165777,0.0554521317,0.476607562,-0.718008972
321,805800,2090940,-0.586,-0.627,0.541,1.8,2.4,-5,7,-6.1,-25.1,0.503952147,0.0554521317,0.476607562,-0.718161565
322,809727,2090940,-0.582,-0.627,0.537,1.7,2.6,-5,7,-6.1,-25.1,0.503830073,0.0555131687,0.476607562,-0.718222602
323,811906,2090940,-0.582,-0.623,0.537,1.6,2.5,-5,7,-6.1,-25.1,0.503738517,0.0555131687,0.476638081,-0.718283639
324,813379,2090940,-0.586,-0.623,0.537,1.6,2.4,-4.9,7,-6.1,-25.1,0.503616443,0.0555131687,0.476638081,-0.718375195
325,815839,2090950,-0.586,-0.623,0.537,1.6,2.4,-4.9,7,-6.1,-25.1,0.503616443,0.0555131687,0.476638081,-0.718375195
326,817966,2090950,-0.578,-0.623,0.533,1.4,2.3,-4.7,6.8,-5.8,-23.3,0.503494369,0.0556962798,0.4766686,-0.718405713
327,821669,2090950,-0.582,-0.627,0.541,1.4,2.4,-4.5,6.8,-5.8,-23.3,0.503402814,0.0556962798,0.476699118,-0.71846675
328,823248,2090950,-0.582,-0.627,0.545,1.4,2.4,-4.3,6.8,-5.8,-23.3,0.503311258,0.0556962798,0.476699118,-0.718527787
329,825499,2090960,-0.582,-0.627,0.545,1.4,2.4,-4.3,6.8,-5.8,-23.3,0.503311258,0.0556962798,0.476699118,-0.718527787
330,829992,2090960,-0.578,-0.623,0.537,1.1,2.8,-3.9,6.9,-6.1,-22.6,0.503128147,0.0557573168,0.476729637,-0.718649861
331,830574,2090960,-0.582,-0.627,0.537,1,2.9,-3.7,6.9,-6.1,-22.6,0.503036592,0.0557878353,0.476760155,-0.71868038
332,834518,2090960,-0.582,-0.627,0.537,1,2.9,-3.7,6.9,-6.1,-22.6,0.503036592,0.0557878353,0.476760155,-0.71868038
333,836725,2090970,-0.578,-0.623,0.537,1,2.9,-3.4,7.5,-6,-22.3,0.502853481,0.0558183538,0.476790674,-0.718771935
334,838956,2090970,-0.578,-0.627,0.541,1,2.8,-3.3,7.5,-6,-22.3,0.502761925,0.0558488723,0.476821192,-0.718832972
335,841363,2090970,-0.574,-0.623,0.533,1,2.7,-3.1,7.5,-6,-22.3,0.50267037,0.0558793909,0.476821192,-0.718863491
336,843489,2090970,-0.578,-0.631,0.541,1,2.6,-3.1,7.5,-6,-22.3,0.502609333,0.0558793909,0.476851711,-0.718894009
337,845780,2090980,-0.574,-0.635,0.544,1.2,2.5,-3.1,7.3,-6.1,-22.7,0.502517777,0.0559099094,0.476851711,-0.718955046
338,850259,2090980,-0.574,-0.635,0.544,1.4,2.5,-3,7.3,-6.1,-22.7,0.50245674,0.0559404279,0.476882229,-0.718985565
339,850813,2090980,-0.578,-0.643,0.544,1.6,2.6,-2.8,7.3,-6.1,-22.7,0.502365184,0.0559404279,0.476882229,-0.719046602
340,853984,2090980,-0.578,-0.643,0.544,1.6,2.6,-2.8,7.3,-6.1,-22.7,0.502365184,0.0559404279,0.476882229,-0.719046602
341,856278,2090990,-0.574,-0.65,0.544,1.8,2.7,-2.8,7,-6,-25.4,0.50224311,0.0560319834,0.476882229,-0.719138157
342,858589,2090990,-0.578,-0.654,0.545,1.9,2.7,-2.8,7,-6,-25.4,0.502151555,0.0560625019,0.476882229,-0.719168676
343,860986,2090990,-0.578,-0.654,0.548,2.1,2.7,-2.8,7,-6,-25.4,0.502090518,0.0560930204,0.476882229,-0.719229713
344,863613,2090990,-0.582,-0.65,0.552,2.5,2.7,-2.7,7,-6,-25.4,0.501998962,0.0561540574,0.476882229,-0.71929075
345,865511,2091000,-0.582,-0.65,0.552,2.5,2.7,-2.7,7,-6,-25.4,0.501998962,0.0561540574,0.476882229,-0.71929075
346,868111,2091000,-0.582,-0.65,0.552,2.5,2.7,-2.7,7,-6,-25.4,0.501998962,0.0561540574,0.476882229,-0.71929075
347,870488,2091000,-0.574,-0.65,0.552,3.6,2.8,-2.7,6.8,-6,-24,0.501754814,0.0563371685,0.476851711,-0.719443342
348,874466,2091000,-0.574,-0.65,0.552,3.9,2.7,-2.7,6.8,-6,-24,0.501693777,0.056367687,0.476821192,-0.719504379
349,876777,2091010,-0.578,-0.646,0.552,4.1,2.7,-2.7,7,-6.2,-25.4,0.501602222,0.056428724,0.476790674,-0.719595935
350,878963,2091010,-0.57,-0.639,0.544,4.2,2.7,-2.6,7,-6.2,-25.4,0.501541185,0.0565202795,0.476760155,-0.719656972
351,880476,2091010,-0.574,-0.639,0.548,4.3,2.8,-2.5,7,-6.2,-25.4,0.501449629,0.0565813166,0.476729637,-0.719718009
352,884182,2091010,-0.574,-0.639,0.548,4.4,2.8,-2.5,7,-6.2,-25.4,0.501388592,0.0566423536,0.476699118,-0.719809565
353,886433,2091020,-0.574,-0.639,0.548,4.4,2.8,-2.5,6.9,-6.2,-25.2,0.501327555,0.0566728721,0.4766686,-0.719870602
354,888688,2091020,-0.578,-0.635,0.544,4.5,2.8,-2.6,6.9,-6.2,-25.2,0.501236,0.0567644276,0.476638081,-0.719931639
355,890977,2091020,-0.578,-0.635,0.548,4.4,2.9,-2.7,6.9,-6.2,-25.2,0.501144444,0.0568254646,0.476577044,-0.720023194
356,893405,2091020,-0.578,-0.635,0.548,4.4,2.9,-2.7,6.9,-6.2,-25.2,0.501144444,0.0568254646,0.476577044,-0.720023194
357,895427,2091030,-0.578,-0.627,0.552,4.2,2.9,-2.6,7,-5.9,-25.1,0.500961333,0.0569780572,0.476516007,-0.720145268
358,898086,2091030,-0.578,-0.627,0.552,4.2,2.9,-2.6,7,-5.9,-25.1,0.500961333,0.0569780572,0.476516007,-0.720145268
359,902276,2091030,-0.574,-0.627,0.548,3.5,3.1,-2.5,7,-5.9,-25.1,0.500839259,0.0571001312,0.476485488,-0.720267342
360,902875,2091030,-0.578,-0.623,0.548,3,3.2,-2.4,7,-5.9,-25.1,0.500778222,0.0571611682,0.476485488,-0.720328379
361,905862,2091040,-0.582,-0.619,0.548,2.6,3.3,-2.3,7,-6.2,-23.8,0.500686666,0.0572222053,0.476485488,-0.720389416
362,909729,2091040,-0.578,-0.619,0.552,2.2,3.4,-2.3,7,-6.2,-23.8,0.500625629,0.0572527238,0.476485488,-0.720419935
363,911936,2091040,-0.582,-0.615,0.552,2,3.5,-2.4,7,-6.2,-23.8,0.500534074,0.0573137608,0.476485488,-0.720480972
364,912889,2091040,-0.582,-0.615,0.556,1.8,3.5,-2.5,7,-6.2,-23.8,0.500473037,0.0573747978,0.476485488,-0.72051149
365,915443,2091050,-0.582,-0.615,0.556,1.8,3.5,-2.5,7,-6.2,-23.8,0.500473037,0.0573747978,0.476485488,-0.72051149
366,918692,2091050,-0.582,-0.619,0.552,1.4,3.4,-2.6,7.5,-6.1,-24.2,0.500503555,0.0575884274,0.476393933,-0.720542009
367,920991,2091050,-0.578,-0.619,0.548,1.1,3.3,-2.8,7.5,-6.1,-24.2,0.500350963,0.0576494644,0.47645497,-0.720603046
368,923276,2091050,-0.578,-0.619,0.548,1.1,3.3,-2.8,7.5,-6.1,-24.2,0.500350963,0.0576494644,0.47645497,-0.720603046
369,926084,2091060,-0.578,-0.619,0.552,1,3.4,-3,7,-5.9,-24.1,0.500167852,0.0577410199,0.476485488,-0.720694601
370,927957,2091060,-0.582,-0.623,0.556,1.1,3.4,-3.2,7,-5.9,-24.1,0.500076296,0.0577715384,0.476516007,-0.72072512
371,931552,2091060,-0.578,-0.623,0.56,1.3,3.3,-3.4,7,-5.9,-24.1,0.499984741,0.0578020569,0.476546525,-0.720786157
372,933051,2091060,-0.582,-0.627,0.56,1.7,3.1,-3.6,7,-5.9,-24.1,0.499893185,0.0578325755,0.476546525,-0.720847194
373,935536,2091070,-0.578,-0.631,0.56,2.2,2.9,-3.7,7.2,-5.8,-23.9,0.49980163,0.057863094,0.476546525,-0.720908231
374,938942,2091070,-0.582,-0.635,0.56,2.7,2.9,-3.9,7.2,-5.8,-23.9,0.499710074,0.0578936125,0.476546525,-0.720969268
375,941251,2091070,-0.578,-0.635,0.56,2.7,2.9,-3.9,7.2,-5.8,-23.9,0.499618519,0.0579546495,0.476546525,-0.721030305
376,943496,2091070,-0.582,-0.638,0.564,3.3,2.9,-4.1,7.2,-5.8,-23.9,0.499526963,0.057985168,0.476516007,-0.721091342
377,946525,2091080,-0.578,-0.639,0.564,4.4,2.8,-4.4,7,-6,-23.9,0.499404889,0.0580156865,0.476485488,-0.721182897
378,948059,2091080,-0.582,-0.642,0.568,4.4,2.8,-4.4,7,-6,-23.9,0.499313334,0.0580767235,0.47645497,-0.721274453
379,952546,2091080,-0.582,-0.638,0.572,4.8,2.7,-4.5,7,-6,-23.9,0.499191259,0.058107242,0.476424451,-0.721396527
380,952879,2091080,-0.582,-0.635,0.568,5.3,2.7,-4.6,7,-6,-23.9,0.499099704,0.0581377606,0.476363414,-0.721488083
381,956294,2091090,-0.582,-0.635,0.568,5.3,2.7,-4.6,7,-6,-23.9,0.499099704,0.0581377606,0.476363414,-0.721488083
382,958446,2091090,-0.582,-0.635,0.568,5.3,2.7,-4.6,7,-6,-23.9,0.499099704,0.0581377606,0.476363414,-0.721488083
383,960516,2091090,-0.574,-0.639,0.572,6.9,2.7,-4.8,5.5,-6.2,-23.6,0.498764,0.0583513901,0.476180303,-0.721823786
384,965060,2091090,-0.574,-0.639,0.572,6.9,2.7,-4.8,5.5,-6.2,-23.6,0.498764,0.0583513901,0.476180303,-0.721823786
385,965533,2091100,-0.582,-0.631,0.568,7.3,2.6,-4.9,5.5,-6.2,-23.6,0.498641926,0.0584429456,0.476088748,-0.72194586
386,967841,2091100,-0.582,-0.631,0.568,7.3,2.6,-4.9,5.5,-6.2,-23.6,0.498641926,0.0584429456,0.476088748,-0.72194586
387,971113,2091100,-0.582,-0.631,0.568,7.3,2.6,-4.9,5.5,-6.2,-23.6,0.498641926,0.0584429456,0.476088748,-0.72194586
388,973607,2091100,-0.582,-0.627,0.568,8.4,2,-4.9,8.6,-6.4,-23.8,0.498245186,0.0587786493,0.475569933,-0.722525712
389,975724,2091110,-0.585,-0.615,0.576,8.4,2,-4.8,8.9,-6.3,-23.3,0.49815363,0.0588702048,0.475478378,-0.722678304
390,979451,2091110,-0.585,-0.615,0.576,8.4,2,-4.8,8.9,-6.3,-23.3,0.49815363,0.0588702048,0.475478378,-0.722678304
391,980382,2091110,-0.578,-0.619,0.576,8.5,2,-4.8,8.9,-6.3,-23.3,0.497940001,0.0590227973,0.475264748,-0.722952971
392,984617,2091110,-0.578,-0.619,0.576,8.5,2,-4.8,8.9,-6.3,-23.3,0.497940001,0.0590227973,0.475264748,-0.722952971
393,987015,2091120,-0.578,-0.619,0.576,8.5,2,-4.8,8.9,-6.3,-23.3,0.497940001,0.0590227973,0.475264748,-0.722952971
394,988984,2091120,-0.581,-0.607,0.584,8.7,2.2,-4.4,8.9,-6,-23.5,0.497604297,0.0592669454,0.474929044,-0.723349712
395,991402,2091120,-0.581,-0.607,0.584,8.7,2.2,-4.4,8.9,-6,-23.5,0.497604297,0.0592669454,0.474929044,-0.723349712
396,993423,2091120,-0.581,-0.607,0.584,8.7,2.2,-4.4,8.9,-6,-23.5,0.497604297,0.0592669454,0.474929044,-0.723349712
397,995846,2091130,-0.581,-0.607,0.584,8.7,2.2,-4.4,8.9,-6,-23.5,0.497604297,0.0592669454,0.474929044,-0.723349712
398,999576,2091130,-0.581,-0.607,0.584,8.7,2.2,-4.4,8.9,-6,-23.5,0.497604297,0.0592669454,0.474929044,-0.723349712
399,1001731,2091130,-0.569,-0.588,0.587,8.6,2.7,-4.4,9,-6.2,-23.5,0.497054964,0.0596942045,0.47441023,-0.724051637
400,1004068,2091130,-0.569,-0.588,0.587,8.6,2.7,-4.4,9,-6.2,-23.5,0.497054964,0.0596942045,0.47441023,-0.724051637
401,1006301,2091140,-0.577,-0.587,0.595,9.1,3,-4.6,7.5,-6.3,-23.5,0.496841334,0.0598467971,0.4741966,-0.724326304
402,1008505,2091140,-0.573,-0.584,0.587,9.4,3.2,-4.8,7.5,-6.3,-23.5,0.49671926,0.0599993896,0.474105045,-0.724478896
403,1010781,2091140,-0.573,-0.584,0.587,9.4,3.2,-4.8,7.5,-6.3,-23.5,0.49671926,0.0599993896,0.474105045,-0.724478896
404,1014543,2091140,-0.573,-0.584,0.587,9.4,3.2,-4.8,7.5,-6.3,-23.5,0.49671926,0.0599993896,0.474105045,-0.724478896
405,1015952,2091150,-0.585,-0.575,0.595,10.2,3.4,-5.2,7.5,-6.3,-23.5,0.496444594,0.0602130192,0.473860897,-0.724784082
406,1017736,2091150,-0.585,-0.575,0.595,10.2,3.4,-5.2,7.5,-6.3,-23.5,0.496444594,0.0602130192,0.473860897,-0.724784082
407,1021380,2091150,-0.585,-0.575,0.595,10.2,3.4,-5.2,7.5,-6.3,-23.5,0.496444594,0.0602130192,0.473860897,-0.724784082
408,1023527,2091150,-0.6,-0.552,0.596,11.1,3.9,-6.7,7.4,-6.5,-23.2,0.496169927,0.0609759819,0.472884304,-0.725547044
409,1025871,2091160,-0.6,-0.544,0.592,11.1,4,-7.2,6.9,-6.1,-23.6,0.495986816,0.0610675375,0.47276223,-0.725760674
410,1028789,2091160,-0.604,-0.544,0.592,11,4,-7.8,6.9,-6.1,-23.6,0.495803705,0.0611896115,0.472640156,-0.725943785
411,1030347,2091160,-0.604,-0.544,0.592,11,4,-7.8,6.9,-6.1,-23.6,0.495803705,0.0611896115,0.472640156,-0.725943785
412,1034058,2091160,-0.604,-0.544,0.592,11,4,-7.8,6.9,-6.1,-23.6,0.495803705,0.0611896115,0.472640156,-0.725943785
413,1036280,2091170,-0.616,-0.543,0.58,10.2,4,-9.4,6.6,-6.3,-23.1,0.495223853,0.0614642781,0.472304453,-0.726554155
414,1038549,2091170,-0.616,-0.543,0.58,10.2,4,-9.4,6.6,-6.3,-23.1,0.495223853,0.0614642781,0.472304453,-0.726554155
415,1040794,2091170,-0.628,-0.543,0.592,9.9,4.3,-10.5,6.6,-6.3,-23.1,0.494766076,0.0615558336,0.472121342,-0.726950896
416,1043373,2091170,-0.632,-0.551,0.596,9.9,4.4,-11,6.6,-6.3,-23.1,0.494552446,0.0616473891,0.471999268,-0.727164525
417,1045335,2091180,-0.652,-0.546,0.609,9.9,4.9,-11.5,5.6,-6.7,-23.6,0.494277779,0.0617389447,0.471907712,-0.727408673
418,1047777,2091180,-0.652,-0.546,0.609,9.9,4.9,-11.5,5.6,-6.7,-23.6,0.494277779,0.0617389447,0.471907712,-0.727408673
419,1051339,2091180,-0.652,-0.546,0.609,9.9,4.9,-11.5,5.6,-6.7,-23.6,0.494277779,0.0617389447,0.471907712,-0.727408673
420,1052953,2091180,-0.652,-0.546,0.609,9.9,4.9,-11.5,5.6,-6.7,-23.6,0.494277779,0.0617389447,0.471907712,-0.727408673
421,1055740,2091190,-0.652,-0.546,0.609,9.9,4.9,-11.5,5.6,-6.7,-23.6,0.494277779,0.0617389447,0.471907712,-0.727408673
422,1058142,2091190,-0.652,-0.546,0.609,9.9,4.9,-11.5,5.6,-6.7,-23.6,0.494277779,0.0617389447,0.471907712,-0.727408673
423,1062194,2091190,-0.687,-0.526,0.594,8.9,5.6,-11.8,8.7,-6.9,-23.6,0.492751854,0.0621356853,0.471480453,-0.728690451
424,1064549,2091190,-0.691,-0.526,0.598,9,5.2,-12.2,8.7,-6.9,-23.6,0.492507706,0.0621967223,0.471388897,-0.72890408
425,1066744,2091200,-0.691,-0.526,0.598,9,5.2,-12.2,8.7,-6.9,-23.6,0.492507706,0.0621967223,0.471388897,-0.72890408
426,1068135,2091200,-0.691,-0.526,0.598,9,5.2,-12.2,8.7,-6.9,-23.6,0.492507706,0.0621967223,0.471388897,-0.72890408
427,1071136,2091200,-0.691,-0.526,0.598,9,5.2,-12.2,8.7,-6.9,-23.6,0.492507706,0.0621967223,0.471388897,-0.72890408
428,1072720,2091200,-0.691,-0.526,0.598,9,5.2,-12.2,8.7,-6.9,-23.6,0.492507706,0.0621967223,0.471388897,-0.72890408
429,1075244,2091210,-0.691,-0.526,0.598,9,5.2,-12.2,8.7,-6.9,-23.6,0.492507706,0.0621967223,0.471388897,-0.72890408
430,1079537,2091210,-0.691,-0.526,0.598,9,5.2,-12.2,8.7,-6.9,-23.6,0.492507706,0.0621967223,0.471388897,-0.72890408
431,1081727,2091210,-0.691,-0.526,0.598,9,5.2,-12.2,8.7,-6.9,-23.6,0.492507706,0.0621967223,0.471388897,-0.72890408
432,1083383,2091210,-0.691,-0.526,0.598,9,5.2,-12.2,8.7,-6.9,-23.6,0.492507706,0.0621967223,0.471388897,-0.72890408
433,1086221,2091220,-0.691,-0.526,0.598,9,5.2,-12.2,8.7,-6.9,-23.6,0.492507706,0.0621967223,0.471388897,-0.72890408
434,1088651,2091220,-0.698,-0.498,0.68,13.6,3.8,-12.7,9.3,-6.1,-23.2,0.490249336,0.0634174627,0.469924009,-0.731254006
435,1090887,2091220,-0.698,-0.498,0.68,13.6,3.8,-12.7,9.3,-6.1,-23.2,0.490249336,0.0634174627,0.469924009,-0.731254006
436,1092816,2091220,-0.69,-0.483,0.699,15.5,3.6,-12.5,9.3,-6.1,-23.2,0.489730522,0.0635700552,0.469557787,-0.731833857
437,1095354,2091230,-0.69,-0.483,0.699,15.5,3.6,-12.5,9.3,-6.1,-23.2,0.489730522,0.0635700552,0.469557787,-0.731833857
438,1098942,2091230,-0.69,-0.483,0.699,15.5,3.6,-12.5,9.3,-6.1,-23.2,0.489730522,0.0635700552,0.469557787,-0.731833857
439,1100640,2091230,-0.694,-0.467,0.684,19.8,2.7,-11.6,8.6,-6.2,-23.1,0.488998077,0.0639667959,0.468825343,-0.732749413
440,1102894,2091230,-0.702,-0.467,0.688,20.6,2.6,-11.4,8.6,-6.2,-23.1,0.488753929,0.0641193884,0.468550676,-0.733085116
441,1106575,2091240,-0.705,-0.455,0.688,21.3,2.8,-11.2,7.7,-6.8,-23.3,0.488509781,0.064271981,0.468245491,-0.73342082
442,1109244,2091240,-0.717,-0.454,0.688,22,3,-11,7.7,-6.8,-23.3,0.488265633,0.064455092,0.467940306,-0.733756523
443,1110928,2091240,-0.725,-0.442,0.681,22.9,3.4,-10.9,7.7,-6.8,-23.3,0.488021485,0.0646382031,0.467635121,-0.734122745
444,1113168,2091240,-0.725,-0.442,0.681,22.9,3.4,-10.9,7.7,-6.8,-23.3,0.488021485,0.0646382031,0.467635121,-0.734122745
445,1115584,2091250,-0.745,-0.43,0.681,23.7,3.8,-10.8,7.7,-6.8,-23.3,0.487777337,0.0648518326,0.467268899,-0.734458449
446,1117878,2091250,-0.753,-0.414,0.662,24.8,4.5,-10.4,6.4,-7.2,-23.2,0.487899411,0.0662862026,0.465987121,-0.735099338
447,1120438,2091250,-0.764,-0.394,0.654,25,4.6,-10,6.4,-7.2,-23.2,0.487655263,0.0664998321,0.465651418,-0.735435041
448,1123736,2091250,-0.772,-0.382,0.65,24.9,4.6,-9.6,6.4,-7.2,-23.2,0.487411115,0.0667439802,0.465315714,-0.735801263
449,1125413,2091260,-0.784,-0.374,0.655,24.6,4.5,-9.4,7.3,-7.3,-22.9,0.487197485,0.0669881283,0.46498001,-0.736136967
450,1128300,2091260,-0.807,-0.362,0.651,24.1,4.2,-9.1,7.3,-7.3,-22.9,0.486953337,0.0672322764,0.464644307,-0.736472671
451,1130803,2091260,-0.823,-0.354,0.652,23.5,4,-9,7.3,-7.3,-22.9,0.486739708,0.0674459059,0.464308603,-0.736808374
452,1133066,2091260,-0.835,-0.342,0.652,22.9,4,-8.8,7.3,-7.3,-22.9,0.486526078,0.0676595355,0.464003418,-0.737113559
453,1135466,2091270,-0.847,-0.334,0.652,22.1,4.1,-8.3,7.6,-7.2,-22.7,0.486312449,0.0678731651,0.463698233,-0.737418744
454,1138477,2091270,-0.867,-0.341,0.653,21.2,4.1,-7.7,7.6,-7.2,-22.7,0.486129337,0.0680867946,0.463423566,-0.73772393
455,1140879,2091270,-0.87,-0.333,0.661,20.3,3.8,-7,7.6,-7.2,-22.7,0.485946226,0.0683004242,0.4631489,-0.737998596
456,1143143,2091270,-0.874,-0.333,0.673,19.3,3.1,-6.4,7.6,-7.2,-22.7,0.485763115,0.0684530168,0.462874233,-0.738242744
457,1145501,2091280,-0.878,-0.329,0.7,18.5,2.4,-5.6,7.5,-7.4,-23.1,0.485641041,0.0686666463,0.462599567,-0.738486892
458,1148113,2091280,-0.89,-0.325,0.72,17.9,1.8,-5.1,7.5,-7.4,-23.1,0.485488449,0.0688497574,0.462355419,-0.73873104
459,1150435,2091280,-0.894,-0.34,0.724,17.4,1.2,-4.5,7.5,-7.4,-23.1,0.485396893,0.0690023499,0.462080752,-0.73894467
460,1152885,2091280,-0.905,-0.301,0.767,17.2,0.8,-4.1,7.5,-7.4,-23.1,0.485274819,0.0691549425,0.461836604,-0.7391583
461,1155681,2091290,-0.874,-0.345,0.727,16.8,0.2,-3.6,7.7,-7.2,-23.1,0.485213782,0.069307535,0.461561937,-0.739371929
462,1158017,2091290,-0.898,-0.34,0.759,16.4,-0.5,-2.9,7.7,-7.2,-23.1,0.485122227,0.0694296091,0.461287271,-0.739585559
463,1162101,2091290,-0.89,-0.34,0.794,16.3,-1.1,-2.1,7.7,-7.2,-23.1,0.485091708,0.0695822016,0.461012604,-0.73976867
464,1164309,2091290,-0.905,-0.332,0.798,16.7,-1.5,-1.3,7.7,-7.2,-23.1,0.48506119,0.0697042756,0.460737938,-0.739951781
465,1166625,2091300,-0.905,-0.332,0.798,16.7,-1.5,-1.3,7.7,-7.2,-23.1,0.48506119,0.0697042756,0.460737938,-0.739951781
466,1168848,2091300,-0.893,-0.324,0.849,19.1,-2.1,-0.2,8.1,-7.7,-22.9,0.485030671,0.0700399792,0.46006653,-0.740348521
467,1171038,2091300,-0.909,-0.312,0.861,20.7,-2.4,0.3,8.1,-7.7,-22.9,0.485030671,0.0702230903,0.459700308,-0.740562151
468,1173349,2091300,-0.901,-0.305,0.872,22.3,-2.5,1,8.1,-7.7,-22.9,0.485030671,0.0704062014,0.459334086,-0.740775781
469,1175620,2091310,-0.892,-0.277,0.892,23.9,-2.5,1.7,7.1,-8.5,-23,0.48506119,0.0706503494,0.458906827,-0.74098941
470,1178233,2091310,-0.896,-0.265,0.903,25.6,-2.5,2.5,7.1,-8.5,-23,0.485091708,0.0708944975,0.458449049,-0.741233558
471,1181476,2091310,-0.9,-0.253,0.903,27.5,-2.3,3.1,7.1,-8.5,-23,0.485122227,0.0711996826,0.457991272,-0.741477706
472,1183838,2091310,-0.903,-0.238,0.9,29.5,-2.1,3.5,7.1,-8.5,-23,0.485152745,0.0715048677,0.457472457,-0.741752373
473,1186026,2091320,-0.911,-0.218,0.88,31.7,-2,3.8,7.4,-9.5,-22.7,0.485183264,0.0718710898,0.456953642,-0.742027039
474,1188938,2091320,-0.915,-0.202,0.872,33.6,-2.2,4,7.4,-9.5,-22.7,0.485213782,0.0722067934,0.456373791,-0.742301706
475,1191304,2091320,-0.911,-0.198,0.865,35.1,-2.6,4.1,7.4,-9.5,-22.7,0.485244301,0.0725730155,0.455763421,-0.74263741
476,1193594,2091320,-0.919,-0.194,0.853,36.5,-3,4.1,7.4,-9.5,-22.7,0.485305338,0.0729697562,0.455122532,-0.742942595
477,1195816,2091330,-0.93,-0.166,0.838,37.7,-3.3,4.3,7.4,-10.2,-23.2,0.485335856,0.0733359783,0.454481643,-0.743278298
478,1198154,2091330,-0.934,-0.154,0.822,38.7,-3.5,4.4,7.4,-10.2,-23.2,0.485396893,0.0737632374,0.453810236,-0.743614002
479,1200475,2091330,-0.942,-0.15,0.803,39.5,-3.5,4.6,7.4,-10.2,-23.2,0.485427412,0.074159978,0.45310831,-0.743980224
480,1204735,2091330,-0.954,-0.123,0.764,39.9,-3.6,4.8,7.4,-10.2,-23.2,0.485488449,0.0745567186,0.452406384,-0.744315928
481,1205387,2091340,-0.97,-0.111,0.753,39.9,-3.8,4.9,7.8,-6.3,-21.6,0.485518967,0.0749839778,0.451704459,-0.74468215
482,1208012,2091340,-0.974,-0.099,0.733,39.5,-4.1,5.1,7.8,-6.3,-21.6,0.485580004,0.0753807184,0.451033052,-0.745017853
483,1212195,2091340,-0.986,-0.094,0.718,38.7,-4.4,5.3,7.8,-6.3,-21.6,0.48567156,0.075777459,0.450331126,-0.745353557
484,1212974,2091340,-1.009,-0.055,0.687,37.4,-4.4,5.6,7.8,-6.3,-21.6,0.485732597,0.0761436811,0.449659719,-0.745658742
485,1215439,2091350,-1.009,-0.055,0.687,37.4,-4.4,5.6,7.8,-6.3,-21.6,0.485732597,0.0761436811,0.449659719,-0.745658742
486,1218134,2091350,-1.024,-0.003,0.648,33.1,-4.5,6,7.3,-9.3,-23.7,0.485915708,0.0768150884,0.448469497,-0.746208075
487,1221921,2091350,-1.036,0.02,0.629,29.7,-4.8,5.9,7.3,-9.3,-23.7,0.486007263,0.0771202734,0.447920164,-0.746421705
488,1224037,2091350,-1.051,0.059,0.594,25.8,-5.4,5.8,7.3,-9.3,-23.7,0.486098819,0.0773644215,0.447431867,-0.746635334
489,1226412,2091360,-1.055,0.079,0.594,22.1,-6.3,5.6,7.6,-9,-23.5,0.486220893,0.0775475326,0.447004608,-0.746787927
490,1229461,2091360,-1.055,0.079,0.602,19.2,-7.3,5.4,7.6,-9,-23.5,0.486342967,0.0777001251,0.446607868,-0.746940519
491,1230409,2091360,-1.059,0.075,0.614,17.5,-8.6,5.4,7.6,-9,-23.5,0.48649556,0.0777916807,0.446211127,-0.747062593
492,1233910,2091360,-1.047,0.039,0.637,17.2,-10,5.8,7.6,-9,-23.5,0.486648152,0.0778527177,0.445783868,-0.747184668
493,1236304,2091370,-1.048,0.012,0.664,17.9,-11.5,6.6,7.5,-8.2,-23.2,0.486800745,0.0779442732,0.445387127,-0.747306742
494,1238650,2091370,-1.04,-0.019,0.68,19.2,-12.8,7.6,7.5,-8.2,-23.2,0.487075411,0.0780053102,0.44492935,-0.747428816
495,1240566,2091370,-1.033,-0.086,0.711,20.7,-13.9,8.6,7.5,-8.2,-23.2,0.487289041,0.0780663472,0.444441053,-0.747581408
496,1242944,2091370,-1.017,-0.102,0.73,22.3,-14.8,9.6,7.5,-8.2,-23.2,0.487563707,0.0781579028,0.44389172,-0.747703482
497,1247279,2091380,-1.014,-0.129,0.754,23.7,-15.6,10.2,7.2,-7.2,-23.2,0.487838374,0.0782799768,0.443311869,-0.747856075
498,1247959,2091380,-1.006,-0.145,0.781,24.9,-16.1,10.5,7.2,-7.2,-23.2,0.488143559,0.0783715323,0.442732017,-0.748008667
499,1250253,2091380,-1.006,-0.145,0.781,24.9,-16.1,10.5,7.2,-7.2,-23.2,0.488143559,0.0783715323,0.442732017,-0.748008667
500,1253868,2091380,-1.006,-0.145,0.781,24.9,-16.1,10.5,7.2,-7.2,-23.2,0.488143559,0.0783715323,0.442732017,-0.748008667
501,1256045,2091390,-1.006,-0.188,0.812,28.7,-15.3,9.5,7,-8.8,-21.3,0.48893704,0.078768273,0.440809351,-0.748588519
502,1257955,2091390,-1.01,-0.196,0.813,30.2,-14.7,8.8,7,-8.8,-21.3,0.489181188,0.0789208655,0.440168462,-0.748802149
503,1260537,2091390,-1.01,-0.196,0.813,30.2,-14.7,8.8,7,-8.8,-21.3,0.489181188,0.0789208655,0.440168462,-0.748802149
504,1262984,2091390,-1.01,-0.196,0.813,30.2,-14.7,8.8,7,-8.8,-21.3,0.489181188,0.0789208655,0.440168462,-0.748802149
505,1265670,2091400,-1.01,-0.196,0.813,30.2,-14.7,8.8,7,-8.8,-21.3,0.489181188,0.0789208655,0.440168462,-0.748802149
506,1267859,2091400,-1.009,-0.141,0.828,38.9,-13,5.7,7.3,-8.7,-23.2,0.489883114,0.0798364208,0.437208167,-0.749961852
507,1271973,2091400,-1.013,-0.129,0.836,41.4,-12.9,4.8,7.3,-8.7,-23.2,0.490035707,0.0801110874,0.436384167,-0.750328074
508,1273779,2091400,-1.009,-0.117,0.836,43.7,-12.5,4,7.3,-8.7,-23.2,0.490127262,0.0804162725,0.435529649,-0.750694296
509,1275451,2091410,-1.021,-0.097,0.836,45.2,-12,3.3,6.9,-9,-23.3,0.490218818,0.0807214576,0.434644612,-0.751121555
510,1277857,2091410,-1.032,-0.081,0.828,45.7,-11.2,2.6,6.9,-9,-23.3,0.490310373,0.0810571612,0.433759575,-0.751548814
511,1282091,2091410,-1.036,-0.062,0.828,45.1,-10.4,1.6,6.9,-9,-23.3,0.490340892,0.0813928648,0.432905057,-0.751976073
512,1284095,2091410,-1.036,-0.046,0.828,43.5,-9.5,0.3,6.9,-9,-23.3,0.49037141,0.0816980499,0.432111576,-0.752403333
513,1285713,2091420,-1.04,-0.026,0.825,40.9,-8.6,-1.2,7,-9.3,-22.8,0.490340892,0.0819727165,0.431348613,-0.752830592
514,1287990,2091420,-1.055,0.016,0.837,37.5,-7.8,-2.8,7,-9.3,-22.8,0.490310373,0.0822168645,0.430646687,-0.753227332
515,1290721,2091420,-1.058,0.032,0.837,33.1,-6.9,-4.4,7,-9.3,-22.8,0.490249336,0.0824304941,0.430036317,-0.753593554
516,1292869,2091420,-1.07,0.04,0.825,27.8,-5.8,-6,7,-9.3,-22.8,0.490157781,0.0825830866,0.429517502,-0.753929258
517,1295934,2091430,-1.082,0.048,0.825,21.6,-4.6,-7.5,6.8,-9.6,-21.8,0.490035707,0.0826746422,0.429120762,-0.754203925
518,1298193,2091430,-1.054,0.044,0.848,14.9,-3.6,-9,6.8,-9.6,-21.8,0.489883114,0.0826746422,0.428846095,-0.754448073
519,1300449,2091430,-1.062,0.056,0.844,7.7,-2.9,-10.8,6.8,-9.6,-21.8,0.489730522,0.0826136052,0.428724021,-0.754661702
520,1302936,2091430,-1.078,0.048,0.868,1.1,-2.7,-13.5,6.8,-9.6,-21.8,0.489516892,0.0824610126,0.428693503,-0.754814295
521,1305606,2091440,-1.066,0.009,0.884,-4.4,-2.6,-16.6,6.7,-9.6,-22.9,0.489272744,0.082186346,0.428785058,-0.754966887
522,1307893,2091440,-1.071,-0.006,0.864,-8.8,-2.2,-20.2,6.7,-9.6,-22.9,0.488967559,0.0818811609,0.428937651,-0.755088961
523,1312041,2091440,-1.071,-0.018,0.841,-13,-1.5,-23.5,6.7,-9.6,-22.9,0.488631855,0.0814844203,0.429181799,-0.755211035
524,1314420,2091440,-1.079,-0.033,0.806,-17.5,-0.9,-26.7,6.7,-9.6,-22.9,0.488235115,0.0810266427,0.429486984,-0.75533311
525,1316690,2091450,-1.079,-0.033,0.806,-17.5,-0.9,-26.7,6.7,-9.6,-22.9,0.488235115,0.0810266427,0.429486984,-0.75533311
526,1318505,2091450,-1.06,-0.042,0.669,-29.4,-1,-34.1,6.7,-9.5,-20.4,0.487228004,0.0797448653,0.430555132,-0.755516221
527,1320670,2091450,-1.049,-0.034,0.622,-36,-1.5,-38.6,6.7,-9.5,-20.4,0.486678671,0.078951384,0.43119602,-0.755607776
528,1323019,2091450,-1.041,-0.034,0.575,-41.6,-2.3,-43.4,6.7,-9.5,-20.4,0.486037782,0.0780663472,0.431958983,-0.755668813
529,1326971,2091460,-1.03,-0.058,0.5,-45.1,-3.1,-48.1,6.5,-9.3,-19.8,0.485366375,0.0770897549,0.432721946,-0.755760369
530,1328365,2091460,-1.007,-0.087,0.472,-45.9,-4.2,-52.2,6.5,-9.3,-19.8,0.484603412,0.0760521256,0.433545946,-0.755882443
531,1330929,2091460,-1.007,-0.087,0.472,-45.9,-4.2,-52.2,6.5,-9.3,-19.8,0.484603412,0.0760521256,0.433545946,-0.755882443
532,1332794,2091460,-0.972,-0.115,0.421,-40.3,-6.3,-58.1,6.5,-9.3,-19.8,0.482985931,0.0738853114,0.434980316,-0.756309702
533,1335343,2091470,-0.972,-0.115,0.421,-40.3,-6.3,-58.1,6.5,-9.3,-19.8,0.482985931,0.0738853114,0.434980316,-0.756309702
534,1338797,2091470,-0.972,-0.115,0.421,-40.3,-6.3,-58.1,6.5,-9.3,-19.8,0.482985931,0.0738853114,0.434980316,-0.756309702
535,1340907,2091470,-0.972,-0.115,0.421,-40.3,-6.3,-58.1,6.5,-9.3,-19.8,0.482985931,0.0738853114,0.434980316,-0.756309702
536,1343316,2091470,-0.972,-0.115,0.421,-40.3,-6.3,-58.1,6.5,-9.3,-19.8,0.482985931,0.0738853114,0.434980316,-0.756309702
537,1345587,2091480,-0.922,-0.222,0.349,-17.3,-1.8,-64.6,6.7,-8.9,-22.7,0.478286081,0.0691549425,0.437391278,-0.758354442
538,1347889,2091480,-0.914,-0.218,0.357,-13.9,-0.1,-66.1,6.7,-8.9,-22.7,0.477187414,0.0683919797,0.437726981,-0.758903775
539,1350717,2091480,-0.91,-0.219,0.369,-10.7,1.6,-67.5,6.7,-8.9,-22.7,0.476088748,0.0676595355,0.437971129,-0.759514145
540,1354673,2091480,-0.886,-0.203,0.419,-7.5,3.5,-68.9,6.7,-8.9,-22.7,0.474929044,0.0669576098,0.438276315,-0.760155034
541,1355513,2091490,-0.905,-0.175,0.474,-4.1,5.2,-70,7.3,-9,-23.9,0.473708304,0.0663472396,0.438489944,-0.760826441
542,1358704,2091490,-0.889,-0.18,0.45,0,6.9,-71,7.3,-9,-23.9,0.472457045,0.0657673879,0.438673055,-0.761558885
543,1360907,2091490,-0.881,-0.188,0.493,3.7,8.6,-72.1,7.3,-9,-23.9,0.471175268,0.0652790918,0.438795129,-0.762321848
544,1363171,2091490,-0.861,-0.176,0.555,6.7,10,-73.5,7.3,-9,-23.9,0.469862972,0.0647907956,0.438886685,-0.763115329
545,1365651,2091500,-0.861,-0.176,0.555,6.7,10,-73.5,7.3,-9,-23.9,0.469862972,0.0647907956,0.438886685,-0.763115329
546,1368417,2091500,-0.832,-0.173,0.636,9.8,12,-77.5,7.4,-8.9,-22,0.466994232,0.0639057588,0.439039277,-0.764854884
547,1370659,2091500,-0.816,-0.169,0.674,10.8,12.9,-79.6,7.4,-8.9,-22,0.465529344,0.0634784997,0.439100314,-0.76577044
548,1375147,2091500,-0.8,-0.177,0.752,11.9,14,-81.7,7.4,-8.9,-22,0.464003418,0.0630512406,0.439161351,-0.766685995
549,1375941,2091510,-0.796,-0.185,0.787,13,15.2,-83.5,7.6,-8.6,-22.5,0.462446974,0.0626545,0.43919187,-0.767632069
550,1378178,2091510,-0.796,-0.185,0.787,13,15.2,-83.5,7.6,-8.6,-22.5,0.462446974,0.0626545,0.43919187,-0.767632069
551,1381200,2091510,-0.793,-0.244,0.803,13.8,17,-86.8,7.6,-8.6,-22.5,0.459212012,0.0617999817,0.439313944,-0.769585253
552,1383443,2091510,-0.801,-0.279,0.795,12.4,17.1,-88.8,7.6,-8.6,-22.5,0.457502976,0.0614032411,0.439374981,-0.770561846
553,1385643,2091520,-0.81,-0.315,0.784,9.7,16.7,-91.4,7.9,-9,-22.9,0.455824458,0.0608844264,0.439497055,-0.771538438
554,1388010,2091520,-0.803,-0.35,0.784,6.4,15.8,-94.7,7.9,-9,-22.9,0.454084902,0.0603045747,0.439680166,-0.772545549
555,1390963,2091520,-0.792,-0.413,0.772,3.3,15,-98.4,7.9,-9,-22.9,0.452253792,0.059663686,0.439893796,-0.773522141
556,1393079,2091520,-0.788,-0.437,0.76,1.1,14.2,-102.3,7.9,-9,-22.9,0.450392163,0.0589312418,0.440168462,-0.774529252
557,1395756,2091530,-0.789,-0.464,0.753,-0.1,13.7,-106,8.1,-8.8,-22.9,0.448469497,0.0581377606,0.440443129,-0.775536363
558,1397995,2091530,-0.789,-0.48,0.729,-0.7,13.6,-109.7,8.1,-8.8,-22.9,0.446485794,0.0573137608,0.440717795,-0.776573992
559,1401034,2091530,-0.793,-0.5,0.714,-0.6,14,-113.3,8.1,-8.8,-22.9,0.444441053,0.056428724,0.440992462,-0.777672658
560,1403075,2091530,-0.805,-0.484,0.687,-0.1,14.6,-117.1,8.1,-8.8,-22.9,0.442304758,0.0555742058,0.441297647,-0.778771325
561,1405833,2091540,-0.837,-0.452,0.648,0.7,15.6,-121,8.6,-8.9,-21.5,0.440076907,0.054689169,0.441572314,-0.779931028
562,1409219,2091540,-0.879,-0.329,0.501,1.7,16.7,-124.8,8.6,-8.9,-21.5,0.437788018,0.0537430952,0.44184698,-0.78112125
563,1410434,2091540,-0.882,-0.247,0.419,2.5,17.5,-129,8.6,-8.9,-21.5,0.435407575,0.0528580584,0.442121647,-0.782372509
564,1413506,2091540,-0.882,-0.247,0.419,2.5,17.5,-129,8.6,-8.9,-21.5,0.435407575,0.0528580584,0.442121647,-0.782372509
565,1415673,2091550,-0.882,-0.247,0.419,2.5,17.5,-129,8.6,-8.9,-21.5,0.435407575,0.0528580584,0.442121647,-0.782372509
566,1417957,2091550,-0.9,-0.015,0.227,4.7,11.5,-146.9,8.8,-8.8,-21.5,0.428113651,0.0504776147,0.442640461,-0.78624836
567,1422015,2091550,-0.859,0.074,0.183,9.5,6.4,-153.3,8.8,-8.8,-21.5,0.425397504,0.0491958373,0.442701498,-0.787774285
568,1424297,2091550,-0.835,0.101,0.162,19.2,0.6,-159.6,8.8,-8.8,-21.5,0.422650838,0.0478530229,0.442548906,-0.789422285
569,1426555,2091560,-0.811,0.1,0.185,33.5,-5.3,-165,9.2,-8.1,-21.2,0.419812616,0.0464796899,0.442091128,-0.791253395
570,1428932,2091560,-0.78,0.029,0.247,49.7,-10,-168.3,9.2,-8.1,-21.2,0.416943876,0.0451368755,0.441297647,-0.793298135
571,1431200,2091560,-0.76,0.017,0.305,64.6,-12.4,-168.2,9.2,-8.1,-21.2,0.414075137,0.0438856166,0.440229499,-0.795464949
572,1433922,2091560,-0.744,-0.01,0.367,76.2,-12.6,-165.5,9.2,-8.1,-21.2,0.411267434,0.0427564318,0.438947722,-0.797692801
573,1435776,2091570,-0.724,-0.034,0.441,83.9,-11.5,-162.9,9.5,-8.3,-21,0.408459731,0.041749321,0.43754387,-0.79995117
574,1438056,2091570,-0.684,-0.074,0.589,87.8,-9.8,-163.1,9.5,-8.3,-21,0.405621509,0.0408032472,0.436017945,-0.802240059
575,1440730,2091570,-0.664,-0.102,0.674,88.6,-8.1,-166.6,9.5,-8.3,-21,0.402691733,0.0398266549,0.434583575,-0.804559465
576,1443051,2091570,-0.624,-0.103,0.786,87.7,-6.3,-172.8,9.5,-8.3,-21,0.399639882,0.0388500626,0.433149205,-0.806909391
577,1447126,2091580,-0.561,-0.159,0.945,86.5,-4.3,-180,9.4,-8.7,-21,0.396435438,0.0378429518,0.431714835,-0.809289834
578,1449435,2091580,-0.537,-0.183,1.015,86.6,-2.2,-187.3,9.4,-8.7,-21,0.393047884,0.0368053224,0.430310984,-0.811731315
579,1450305,2091580,-0.493,-0.204,1.06,88.2,0,-193.8,9.4,-8.7,-21,0.389568773,0.0357371746,0.428907132,-0.814203314
580,1454701,2091580,-0.493,-0.204,1.06,88.2,0,-193.8,9.4,-8.7,-21,0.389568773,0.0357371746,0.428907132,-0.814203314
581,1455512,2091590,-0.299,-0.251,1.196,92.1,3.9,-205.6,9.5,-9,-20.6,0.382152776,0.0336008789,0.426007874,-0.819330424
582,1459551,2091590,-0.231,-0.237,1.229,91.4,5.5,-211.8,9.5,-9,-20.6,0.378246406,0.0325022126,0.424573504,-0.821924497
583,1461863,2091590,-0.151,-0.227,1.243,88.1,7.4,-218.8,9.5,-9,-20.6,0.374156926,0.0312814722,0.423200171,-0.824549089
584,1464187,2091590,-0.071,-0.213,1.248,82.4,9.8,-226.8,9.5,-9,-20.6,0.369945372,0.0300912503,0.421948912,-0.827143162
585,1466417,2091600,-0.071,-0.213,1.248,82.4,9.8,-226.8,9.5,-9,-20.6,0.369945372,0.0300912503,0.421948912,-0.827143162
586,1468331,2091600,0.147,-0.124,1.164,65.4,14.9,-244.2,12.2,-8.5,-20.7,0.360728782,0.0271919919,0.420117801,-0.832209235
587,1470987,2091600,0.214,-0.11,1.104,54.3,17.4,-253.3,12.2,-8.5,-20.7,0.355937376,0.0256050295,0.419415876,-0.834681234
588,1473218,2091600,0.27,-0.08,1.051,41.7,19.7,-262.6,12.2,-8.5,-20.7,0.350962859,0.0238654744,0.418958098,-0.837092196
589,1475466,2091610,0.373,-0.062,0.943,28.2,21.7,-271.7,13.5,-8.4,-20.3,0.345774712,0.0219733268,0.418744469,-0.839381085
590,1478161,2091610,0.416,-0.087,0.872,14.7,23.5,-280.3,13.5,-8.4,-20.3,0.340403455,0.0199896237,0.418774987,-0.841608936
591,1480564,2091610,0.451,-0.112,0.797,1.1,25.2,-288.7,13.5,-8.4,-20.3,0.334849086,0.0178228095,0.419049654,-0.843745231
592,1483900,2091610,0.523,-0.231,0.572,-12,26.4,-296.8,13.5,-8.4,-20.3,0.329142125,0.0155034028,0.419568468,-0.845759453
593,1486081,2091620,0.572,-0.335,0.442,-25.1,26.7,-304.3,14.7,-7.8,-20.2,0.323282571,0.0130314035,0.420331431,-0.847682119
594,1488346,2091620,0.613,-0.458,0.27,-37.3,26,-311.6,14.7,-7.8,-20.2,0.317300943,0.0104068117,0.421277505,-0.84951323
595,1490654,2091620,0.442,-0.849,-0.86,-47.4,24.8,-318.9,14.7,-7.8,-20.2,0.311166723,0.00759910886,0.42240669,-0.851283303
596,1493494,2091620,0.528,-4.338,-4.481,-51.5,20.4,-325.9,14.7,-7.8,-20.2,0.304910428,0.00460829493,0.423535875,-0.85299234
597,1495855,2091630,0.885,-8.046,-5.717,-25.3,-3.4,-327.2,15.3,-7,-20.1,0.298867763,0.00137333293,0.423993652,-0.854915006
598,1498826,2091630,2.055,-8.14,-2.792,99.2,-64.4,-304.4,15.3,-7,-20.1,0.293771172,-0.00198370312,0.421735282,-0.857783746
599,1501070,2091630,6.461,-8.227,-1.108,354.9,-144.1,-221.3,15.3,-7,-20.1,0.290932951,-0.00442518387,0.414136174,-0.862422559
600,1503258,2091630,7.937,-8.274,-2.679,618.7,-236.9,-73.2,15.3,-7,-20.1,0.291726432,-0.00561540574,0.400952177,-0.868373669
601,1505470,2091640,7.937,-8.274,-2.679,618.7,-236.9,-73.2,15.3,-7,-20.1,0.291726432,-0.00561540574,0.400952177,-0.868373669
602,1510025,2091640,8.083,-0.82,-1.037,524.6,-387.9,160.3,13.5,-9.1,-19.5,0.302529984,-0.0093386639,0.373180334,-0.876979888
603,1510807,2091640,8.166,3.587,1.833,235,-363.4,117.4,13.5,-9.1,-19.5,0.307779168,-0.0137638478,0.366283151,-0.877986999
604,1513080,2091640,8.166,3.587,1.833,235,-363.4,117.4,13.5,-9.1,-19.5,0.307779168,-0.0137638478,0.366283151,-0.877986999
605,1515613,2091650,8.166,3.587,1.833,235,-363.4,117.4,13.5,-9.1,-19.5,0.307779168,-0.0137638478,0.366283151,-0.877986999
606,1518030,2091650,8.166,3.587,1.833,235,-363.4,117.4,13.5,-9.1,-19.5,0.307779168,-0.0137638478,0.366283151,-0.877986999
607,1522037,2091650,-0.23,7.213,3.02,-20.2,346.7,-599.2,13.6,-9.1,-20.2,0.272682882,-0.019287698,0.373516037,-0.886410108
608,1524927,2091650,-0.697,6.392,1.269,77.1,423.7,-525.2,13.6,-9.1,-20.2,0.259071627,-0.0149235511,0.374309519,-0.890224921
609,1525924,2091660,-1.246,5.487,0.001,112.7,392.6,-295.9,15.4,-8,-19.3,0.250160222,-0.00906399731,0.374217963,-0.89291055
610,1528319,2091660,-1.914,4.377,-0.707,76.4,288.7,-26.8,15.4,-8,-19.3,0.247291482,-0.003234962,0.374279,-0.893704031
611,1530580,2091660,-2.497,2.2,-1.169,5.2,173.1,182.6,15.4,-8,-19.3,0.249427778,0.001617481,0.375133518,-0.892757958
612,1532913,2091660,-2.193,1.159,-1.358,-59.2,87.6,288.7,15.4,-8,-19.3,0.254310739,0.00537125767,0.376720481,-0.890682699
613,1536222,2091670,-1.942,0.399,-1.378,-96.6,37.5,303.5,15,-8.1,-18.9,0.259926145,0.0080568865,0.378765221,-0.888180181
614,1538431,2091670,-1.317,-0.586,-1.935,-98.1,5,269.1,15,-8.1,-18.9,0.265114292,0.00982696005,0.380657369,-0.885830256
615,1540669,2091670,0.261,-1.213,-0.35,-54.6,-22,222.9,15,-8.1,-18.9,0.269600513,0.0109256264,0.381511887,-0.884060183
616,1542978,2091670,0.082,-3.465,0.016,41.4,-39.5,187.9,15,-8.1,-18.9,0.2735374,0.0119937742,0.380443739,-0.883327738
617,1545636,2091680,-0.175,-4.155,2.028,154.3,-36.4,179.3,13.9,-8.6,-18.8,0.277260659,0.0137028108,0.377208777,-0.883510849
618,1549812,2091680,-0.193,-3.908,1.716,235.2,-14.4,181.5,13.9,-8.6,-18.8,0.280800806,0.0163274026,0.372508927,-0.884334849
619,1550555,2091680,-0.523,-3.665,1.681,247.6,13.6,169.5,13.9,-8.6,-18.8,0.283883175,0.0195013276,0.367748039,-0.885280923
620,1553200,2091680,-1.052,-3.248,1.729,204,37.9,124,13.9,-8.6,-18.8,0.285866878,0.022461623,0.363994263,-0.886135441
621,1557192,2091690,-1.441,-2.747,1.847,138.3,56,62.5,15.6,-10.4,-18.4,0.286568804,0.0249031037,0.361644337,-0.886806848
622,1557910,2091690,-1.722,-1.734,2.012,78.7,66.5,10.4,15.6,-10.4,-18.4,0.286202582,0.0267952513,0.360515152,-0.887325663
623,1561951,2091690,-1.733,-1.326,1.835,43.3,64.7,-22,15.6,-10.4,-18.4,0.28522599,0.0281380657,0.360087893,-0.887783441
624,1564264,2091690,-1.63,-1.03,1.664,33.8,50.4,-36.7,15.6,-10.4,-18.4,0.284096805,0.0290231025,0.359782708,-0.888241218
625,1566562,2091700,-1.63,-1.03,1.664,33.8,50.4,-36.7,15.6,-10.4,-18.4,0.284096805,0.0290231025,0.359782708,-0.888241218
626,1569594,2091700,-1.025,-0.725,1.721,53.5,7.4,-36.2,13.1,-10.4,-18.2,0.282509842,0.0294198431,0.357829524,-0.889522996
627,1571787,2091700,-0.749,-0.845,1.745,63.8,-9.5,-30.7,13.1,-10.4,-18.2,0.281960509,0.0293893246,0.356547746,-0.890194403
628,1574094,2091700,-0.538,-1.015,1.72,68.5,-19,-25.2,13.1,-10.4,-18.2,0.281563768,0.0292367321,0.355113376,-0.890896329
629,1576268,2091710,-0.378,-1.204,1.642,66.3,-20.9,-20.4,12.6,-10.5,-17.6,0.281289102,0.029053621,0.353709525,-0.891567736
630,1578505,2091710,-0.205,-1.518,1.502,57.4,-16.8,-16.7,12.6,-10.5,-17.6,0.281044954,0.028992584,0.352519303,-0.892117069
631,1580754,2091710,-0.175,-1.602,1.443,44.1,-9.9,-14.8,12.6,-10.5,-17.6,0.280800806,0.028931547,0.351603748,-0.892544328
632,1583042,2091710,-0.148,-1.634,1.395,30.4,-3.4,-15.1,12.6,-10.5,-17.6,0.280526139,0.028931547,0.350993377,-0.892880032
633,1586000,2091720,-0.02,-1.57,1.302,19.8,0.2,-16.9,12.9,-10.5,-18,0.280190435,0.028931547,0.350627155,-0.89312418
634,1588257,2091720,0.06,-1.458,1.268,13.9,0,-19.8,12.9,-10.5,-18,0.279763176,0.02887051,0.350352489,-0.893368328
635,1590537,2091720,0.113,-1.314,1.227,11.2,-2.6,-22.7,12.9,-10.5,-18,0.279366436,0.0286873989,0.350138859,-0.893581957
636,1593232,2091720,0.155,-1.142,1.167,8,-5.5,-25.1,12.9,-10.5,-18,0.278908658,0.0284432508,0.349955748,-0.893795587
637,1595476,2091730,0.116,-0.787,1.003,1.2,-6.3,-26.5,12.7,-10.6,-17.8,0.278420362,0.0281380657,0.34992523,-0.893978698
638,1598973,2091730,0.066,-0.649,0.914,-10.1,-3.9,-26.8,12.7,-10.6,-17.8,0.277932066,0.0278023621,0.350077822,-0.894070254
639,1601390,2091730,-0.015,-0.549,0.849,-23.7,0.2,-26.8,12.7,-10.6,-17.8,0.27744377,0.0274666585,0.350596637,-0.894039735
640,1604334,2091730,-0.09,-0.516,0.824,-35.4,4.1,-27.1,12.7,-10.6,-17.8,0.276894436,0.0271004364,0.351329081,-0.89394818
641,1605481,2091740,-0.182,-0.553,0.87,-41.9,5.9,-27.8,15.6,-12.1,-18.2,0.276314585,0.0267342143,0.352183599,-0.893765069
642,1609529,2091740,-0.199,-0.635,0.925,-42.1,5,-28.5,15.6,-12.1,-18.2,0.275765252,0.0263679922,0.353068636,-0.893612476
643,1611794,2091740,-0.184,-0.722,0.983,-37.6,1.6,-28.5,15.6,-12.1,-18.2,0.275215918,0.0259712516,0.353831599,-0.893490402
644,1613961,2091740,-0.157,-0.801,1.038,-31.1,-3,-28.1,15.6,-12.1,-18.2,0.274697104,0.0255134739,0.354411451,-0.893429365
645,1616283,2091750,-0.157,-0.801,1.038,-31.1,-3,-28.1,15.6,-12.1,-18.2,0.274697104,0.0255134739,0.354411451,-0.893429365
646,1618532,2091750,-0.071,-0.909,1.094,-22.9,-12.5,-29.2,15,-9.4,-18.3,0.273781549,0.0242927335,0.355204932,-0.893429365
647,1620775,2091750,-0.035,-0.91,1.097,-23.4,-16.1,-31.6,15,-9.4,-18.3,0.273293252,0.0235602893,0.355571154,-0.893459883
648,1623043,2091750,0.017,-0.824,1.088,-26.3,-18.6,-34.9,15,-9.4,-18.3,0.272774438,0.0227973266,0.355998413,-0.893459883
649,1625613,2091760,0.029,-0.774,1.068,-30.8,-20.2,-38.3,15.6,-8.6,-18,0.272194586,0.0219428083,0.356486709,-0.893459883
650,1627886,2091760,0.026,-0.703,1.032,-35.9,-21,-41,15.6,-8.6,-18,0.271584216,0.0209967345,0.357097079,-0.893429365
651,1631351,2091760,0.003,-0.632,0.994,-41.3,-20.9,-42.7,15.6,-8.6,-18,0.270943327,0.0199896237,0.357799005,-0.893368328
652,1633443,2091760,-0.058,-0.493,0.909,-46.5,-20.2,-43.3,15.6,-8.6,-18,0.27027192,0.0189825129,0.358592486,-0.893276772
653,1635809,2091770,-0.101,-0.441,0.867,-51,-19.4,-43.1,16,-8.6,-18.4,0.269600513,0.0179448836,0.359508042,-0.893154698
654,1638025,2091770,-0.14,-0.405,0.817,-54.4,-19,-42.3,16,-8.6,-18.4,0.268929106,0.0169377728,0.360454115,-0.892971587
655,1640852,2091770,-0.164,-0.388,0.767,-55.9,-19.1,-41.2,16,-8.6,-18.4,0.268318735,0.0159306619,0.361461226,-0.892788476
656,1642949,2091770,-0.177,-0.408,0.697,-55.4,-20,-39.9,16,-8.6,-18.4,0.267708365,0.0148930326,0.362437819,-0.892574847
657,1647033,2091780,-0.165,-0.443,0.681,-52.5,-21.6,-38.9,16.1,-8.2,-18.6,0.267128513,0.0138554033,0.363353374,-0.892391736
658,1648879,2091780,-0.13,-0.476,0.68,-47.5,-24,-38.2,16.1,-8.2,-18.6,0.266609699,0.012817774,0.364146855,-0.892269662
659,1651149,2091780,-0.091,-0.528,0.68,-40.8,-26.9,-38,16.1,-8.2,-18.6,0.266090884,0.0117496261,0.364787744,-0.892147588
660,1653448,2091780,0.006,-0.612,0.689,-33.5,-29.8,-37.9,16.1,-8.2,-18.6,0.265602588,0.0106814783,0.36527604,-0.892117069
661,1655630,2091790,0.045,-0.653,0.684,-26.8,-32.4,-38,15,-9.3,-18.8,0.265114292,0.00958281198,0.365611744,-0.892117069
662,1657984,2091790,0.076,-0.677,0.668,-21.3,-34.2,-38.1,15,-9.3,-18.8,0.264656514,0.00848414563,0.365855892,-0.892178106
663,1660555,2091790,0.087,-0.717,0.636,-17.5,-35.3,-38.3,15,-9.3,-18.8,0.264198737,0.00738547929,0.365977966,-0.892269662
664,1663912,2091790,0.095,-0.733,0.624,-14.7,-35.8,-38.1,15,-9.3,-18.8,0.263740959,0.00631733146,0.366069521,-0.892391736
665,1665773,2091800,0.095,-0.733,0.624,-14.7,-35.8,-38.1,15,-9.3,-18.8,0.263740959,0.00631733146,0.366069521,-0.892391736
666,1668480,2091800,0.11,-0.772,0.601,-9,-36.6,-36.8,15.1,-9.5,-19,0.262855922,0.0041810358,0.366069521,-0.892635884
667,1670766,2091800,0.118,-0.796,0.604,-5.2,-36.9,-36.2,15.1,-9.5,-19,0.262459181,0.00311288797,0.365977966,-0.892818995
668,1673025,2091800,0.117,-0.804,0.601,-0.8,-37.4,-35.5,15.1,-9.5,-19,0.262062441,0.00210577715,0.365764336,-0.893032624
669,1675387,2091810,0.125,-0.8,0.596,3.8,-37.8,-35,15.5,-9.8,-19.2,0.261696219,0.00112918485,0.365489669,-0.893246254
670,1679612,2091810,0.13,-0.792,0.608,7.9,-38.1,-34.6,15.5,-9.8,-19.2,0.261299478,0.000152592547,0.365123447,-0.89352092
671,1681755,2091810,0.134,-0.773,0.623,11.4,-38.2,-34.4,15.5,-9.8,-19.2,0.260933256,-0.000793481246,0.36466567,-0.893795587
672,1684123,2091810,0.134,-0.765,0.592,14.6,-38.1,-34.7,15.5,-9.8,-19.2,0.260567034,-0.00170903653,0.364177374,-0.894100772
673,1686388,2091820,0.142,-0.749,0.572,18,-37.8,-35.1,15.2,-10.7,-18.9,0.260200812,-0.00262459181,0.363597522,-0.894466994
674,1688523,2091820,0.175,-0.703,0.603,22,-37.9,-35.4,15.2,-10.7,-18.9,0.259804071,-0.0035401471,0.362956633,-0.894833216
675,1690805,2091820,0.187,-0.664,0.633,26.5,-38.1,-35.9,15.2,-10.7,-18.9,0.259407331,-0.00439466536,0.362224189,-0.895229957
676,1693129,2091820,0.2,-0.637,0.672,31.5,-38.4,-36.3,15.2,-10.7,-18.9,0.25901059,-0.00527970214,0.361369671,-0.895687735
677,1695576,2091830,0.22,-0.617,0.695,36.6,-38.6,-36.7,15,-11.2,-19.3,0.258583331,-0.0061037019,0.360423597,-0.896176031
678,1699924,2091830,0.296,-0.595,0.759,41.3,-38.4,-36.5,15,-11.2,-19.3,0.25818659,-0.00689718314,0.359416486,-0.896694845
679,1700639,2091830,0.344,-0.593,0.781,44.9,-37.7,-35.8,15,-11.2,-19.3,0.25778985,-0.00769066439,0.35831782,-0.897244179
680,1702931,2091830,0.371,-0.621,0.792,47.9,-36.4,-34.3,15,-11.2,-19.3,0.257393109,-0.00839259011,0.357158116,-0.89782403
681,1706923,2091840,0.399,-0.657,0.811,51.1,-34.7,-32.4,15,-7,-17.9,0.257057405,-0.0090334788,0.355937376,-0.898373363
682,1709231,2091840,0.403,-0.649,0.893,55.8,-32.9,-30.4,15,-7,-17.9,0.256721702,-0.00961333048,0.354655599,-0.898983734
683,1711524,2091840,0.419,-0.61,0.822,62,-31.1,-29.2,15,-7,-17.9,0.256385998,-0.0101016266,0.353282266,-0.899624622
684,1713768,2091840,0.443,-0.56,0.716,68.2,-29.7,-29.2,15,-7,-17.9,0.256050295,-0.0105288858,0.35175634,-0.90029603
685,1716031,2091850,0.443,-0.56,0.716,68.2,-29.7,-29.2,15,-7,-17.9,0.256050295,-0.0105288858,0.35175634,-0.90029603
686,1718253,2091850,0.512,-0.385,0.456,70.9,-28.3,-31.1,15.1,-10.8,-19.7,0.25531785,-0.011322367,0.348612934,-0.901730399
687,1720561,2091850,0.537,-0.334,0.463,68.4,-27.8,-30.6,15.1,-10.8,-19.7,0.254951628,-0.0117191076,0.347117527,-0.902401807
688,1723096,2091850,0.58,-0.331,0.485,67.2,-27.6,-28.8,15.1,-10.8,-19.7,0.254615925,-0.0121158483,0.34562212,-0.903073214
689,1727274,2091860,0.802,-0.423,0.515,68.8,-27.7,-26.2,15,-10.3,-19.5,0.254310739,-0.0124820704,0.344096194,-0.903714103
690,1729153,2091860,0.892,-0.519,0.595,71.3,-27.7,-22.1,15,-10.3,-19.5,0.254127628,-0.0127872555,0.34253975,-0.904354991
691,1731548,2091860,0.93,-0.642,0.664,73.2,-26.8,-15.3,15,-10.3,-19.5,0.254036073,-0.0130314035,0.340952788,-0.90499588
692,1734020,2091860,0.996,-0.757,0.733,74.3,-24.9,-5.2,15,-10.3,-19.5,0.254127628,-0.0131534776,0.339335307,-0.905575732
693,1736301,2091870,1.062,-0.892,0.798,74.5,-21.9,6.2,14.9,-10.4,-19.5,0.254432814,-0.0131229591,0.337748344,-0.906064028
694,1738529,2091870,1.045,-0.955,0.783,72.5,-18.6,16.6,14.9,-10.4,-19.5,0.25492111,-0.0129703665,0.3361919,-0.906521805
695,1740810,2091870,1.032,-0.997,0.749,66.6,-14.9,24.7,14.9,-10.4,-19.5,0.25553148,-0.0126956999,0.334818567,-0.906857509
696,1743082,2091870,1.02,-1.017,0.698,56.4,-10.9,31.7,14.9,-10.4,-19.5,0.256263924,-0.0123599963,0.333628346,-0.907101657
697,1745746,2091880,1.019,-1.021,0.624,43.1,-6.8,38.8,14.5,-9.2,-19.2,0.257087924,-0.0119937742,0.332743309,-0.907193213
698,1747981,2091880,0.999,-1.013,0.597,28.9,-2.9,47.2,14.5,-9.2,-19.2,0.258064516,-0.0115359966,0.332193976,-0.907132176
699,1752199,2091880,0.98,-1.004,0.57,15.5,0.4,56.6,14.5,-9.2,-19.2,0.259193701,-0.0110171819,0.331888791,-0.906918546
700,1754401,2091880,0.96,-0.988,0.543,4.2,3.4,66.2,14.5,-9.2,-19.2,0.260475478,-0.0104678488,0.331827754,-0.906582842
701,1756596,2091890,0.916,-0.968,0.502,-4.8,6.1,75.1,14.2,-9.8,-17.7,0.261909848,-0.00982696005,0.331980346,-0.906125065
702,1758912,2091890,0.885,-0.955,0.483,-12.4,8.7,82.7,14.2,-9.8,-17.7,0.263496811,-0.00912503433,0.33231605,-0.905545213
703,1760906,2091890,0.857,-0.951,0.456,-18.9,11.2,89.1,14.2,-9.8,-17.7,0.26514481,-0.0083620716,0.332743309,-0.904904324
704,1763458,2091890,0.813,-0.946,0.422,-24.6,13.4,94.7,14.2,-9.8,-17.7,0.266914884,-0.00753807184,0.33332316,-0.90417188
705,1765714,2091900,0.813,-0.946,0.422,-24.6,13.4,94.7,14.2,-9.8,-17.7,0.266914884,-0.00753807184,0.33332316,-0.90417188
706,1767985,2091900,0.769,-0.957,0.373,-33.3,16.5,104.6,14.1,-10.3,-19.6,0.270729698,-0.0057985168,0.334788049,-0.902523881
707,1770429,2091900,0.745,-0.972,0.346,-35.9,17.2,109.3,14.1,-10.3,-19.6,0.272743919,-0.00488296152,0.335612049,-0.901608325
708,1774706,2091900,0.712,-1.006,0.331,-37.2,17.4,113.7,14.1,-10.3,-19.6,0.274849696,-0.00390636921,0.336466567,-0.900662252
709,1777088,2091910,0.696,-1.03,0.324,-37,17.3,117.6,13.6,-10.4,-19.4,0.277016511,-0.00292977691,0.337321085,-0.899685659
710,1778413,2091910,0.672,-1.045,0.329,-35.2,17,121,13.6,-10.4,-19.4,0.27927488,-0.0019226661,0.338114566,-0.898678549
711,1780752,2091910,0.648,-1.072,0.329,-31.9,16.4,123.8,13.6,-10.4,-19.4,0.281563768,-0.000885036775,0.338847011,-0.897701956
712,1783026,2091910,0.616,-1.099,0.346,-27.3,15.9,126.5,13.6,-10.4,-19.4,0.283944212,0.000152592547,0.339487899,-0.896725364
713,1785763,2091920,0.604,-1.11,0.354,-21.7,15.4,129.3,13.6,-10.4,-19.4,0.286355174,0.0012817774,0.340006714,-0.895748772
714,1788055,2091920,0.584,-1.117,0.355,-15.4,15,132.2,13.6,-10.4,-19.4,0.288827174,0.00247199927,0.340372936,-0.894802698
715,1792032,2091920,0.564,-1.129,0.367,-8.5,14.5,134.9,13.6,-10.4,-19.4,0.291329691,0.00369273965,0.340617084,-0.893887143
716,1794238,2091920,0.556,-1.125,0.371,-1.3,13.6,137.4,13.6,-10.4,-19.4,0.293923765,0.00497451704,0.340739158,-0.893002106
717,1796487,2091930,0.552,-1.117,0.371,5.8,12.5,139.7,13.6,-10.4,-19.4,0.296548357,0.00631733146,0.340678121,-0.892147588
718,1798796,2091930,0.548,-1.101,0.379,12.5,11,141.6,13.6,-10.4,-19.4,0.299233985,0.00766014588,0.34049501,-0.891293069
719,1801046,2091930,0.553,-1.077,0.387,18.7,9.5,143.5,13.6,-10.4,-19.4,0.301950133,0.0090334788,0.340159307,-0.890499588
720,1803215,2091930,0.557,-1.062,0.394,24.3,7.9,145.2,13.6,-10.4,-19.4,0.304696799,0.0104068117,0.339701529,-0.889706107
721,1805525,2091940,0.557,-1.046,0.406,29.2,6.6,147,12.6,-11,-19.2,0.307504501,0.0118411817,0.339152196,-0.888943144
722,1808200,2091940,0.558,-1.026,0.421,33.2,5.7,148.9,12.6,-11,-19.2,0.310312204,0.0132755516,0.338511307,-0.888180181
723,1811313,2091940,0.559,-0.971,0.433,36.2,5,150.8,12.6,-11,-19.2,0.313211463,0.0147404401,0.337809381,-0.887417219
724,1813666,2091940,0.551,-0.944,0.437,37.9,4.6,152.9,12.6,-11,-19.2,0.316110721,0.0162053285,0.337046419,-0.886654256
725,1815917,2091950,0.551,-0.944,0.437,37.9,4.6,152.9,12.6,-11,-19.2,0.316110721,0.0162053285,0.337046419,-0.886654256
726,1818124,2091950,0.54,-0.884,0.433,37.2,4.7,156.6,12.6,-11,-19.2,0.322031312,0.019165624,0.335520493,-0.885036775
727,1820411,2091950,0.513,-0.821,0.43,35.1,4.8,158,12.6,-11,-19.2,0.325022126,0.0206915494,0.334818567,-0.884182257
728,1823089,2091950,0.502,-0.789,0.426,32.3,4.9,159.1,12.6,-11,-19.2,0.328043458,0.0221869564,0.33414716,-0.883266701
729,1825369,2091960,0.482,-0.761,0.434,28.7,5,159.8,12.6,-11,-19.2,0.331064791,0.0236518448,0.333567309,-0.882351146
730,1828463,2091960,0.428,-0.701,0.44,24.5,5.1,160.2,12.6,-11,-19.2,0.334116642,0.0250862148,0.333048494,-0.881344035
731,1830734,2091960,0.404,-0.673,0.444,19.4,5.4,160.6,12.6,-11,-19.2,0.337137974,0.0264900662,0.332621235,-0.880306406
732,1832973,2091960,0.381,-0.645,0.437,13.6,6,160.9,12.6,-11,-19.2,0.340189825,0.0278939177,0.332285531,-0.879207739
733,1835365,2091970,0.353,-0.625,0.437,7.1,6.7,161.3,12.6,-11,-19.2,0.343211158,0.0292367321,0.33210242,-0.878078555
734,1837928,2091970,0.287,-0.588,0.435,0,7.5,161.4,12.6,-11,-19.2,0.346263009,0.0305185095,0.332071902,-0.876857814
735,1841207,2091970,0.247,-0.575,0.44,-7.3,8.3,161.3,12.6,-11,-19.2,0.349284341,0.0318308054,0.332163457,-0.875576037
736,1843460,2091970,0.212,-0.563,0.445,-14.3,8.9,160.9,12.6,-11,-19.2,0.352305673,0.0330515458,0.332377087,-0.874233222
737,1845719,2091980,0.18,-0.558,0.454,-20.7,9.3,160.2,12.6,-11,-19.2,0.355296487,0.0342112491,0.332743309,-0.872829371
738,1847976,2091980,0.097,-0.556,0.46,-26.5,9.5,159.5,12.6,-11,-19.2,0.358287301,0.0353709525,0.333201086,-0.871395001
739,1850606,2091980,0.073,-0.551,0.472,-31.8,9.6,158.7,12.6,-11,-19.2,0.361278115,0.0364696188,0.33375042,-0.869899594
740,1853952,2091980,0.033,-0.554,0.473,-37.1,9.9,157.8,12.6,-11,-19.2,0.364207892,0.0375072481,0.334391308,-0.868373669
741,1855496,2091990,-0.013,-0.553,0.49,-42,10.2,156.6,9.8,-12.9,-20.1,0.367137669,0.038514359,0.335154271,-0.866817225
742,1858174,2091990,-0.089,-0.563,0.516,-46.5,10.4,155.4,9.8,-12.9,-20.1,0.370036927,0.0394604328,0.335978271,-0.865199744
743,1861470,2091990,-0.132,-0.57,0.528,-50,10.5,154,9.8,-12.9,-20.1,0.372905667,0.0404065065,0.336893826,-0.863582263
744,1863075,2091990,-0.168,-0.577,0.549,-52.2,10.6,152.4,9.8,-12.9,-20.1,0.375743889,0.0412915433,0.337809381,-0.861934263
745,1865428,2092000,-0.168,-0.577,0.549,-52.2,10.6,152.4,9.8,-12.9,-20.1,0.375743889,0.0412915433,0.337809381,-0.861934263
746,1869158,2092000,-0.248,-0.615,0.598,-53.2,10.3,148.9,9.8,-12.9,-20.1,0.381328776,0.0430005799,0.339701529,-0.858668783
747,1871414,2092000,-0.268,-0.634,0.606,-52.6,9.9,147.1,9.8,-12.9,-20.1,0.384044923,0.0438550981,0.340647603,-0.857020783
748,1873636,2092000,-0.288,-0.649,0.611,-51.7,9.2,145.3,9.8,-12.9,-20.1,0.386761071,0.0446790979,0.34153264,-0.855403302
749,1875940,2092010,-0.316,-0.68,0.639,-50.2,8.5,143.3,9.8,-12.9,-20.1,0.389416181,0.0454420606,0.342417676,-0.85381634
750,1878193,2092010,-0.336,-0.695,0.636,-48.1,7.9,141.2,9.8,-12.9,-20.1,0.392010254,0.0462660604,0.343241676,-0.852229377
751,1880433,2092010,-0.344,-0.699,0.644,-45.3,7.6,138.9,9.8,-12.9,-20.1,0.394604328,0.0470595416,0.344004639,-0.850703452
752,1883099,2092010,-0.352,-0.703,0.644,-42.1,7.4,136.5,9.8,-12.9,-20.1,0.397106845,0.0478835414,0.344706565,-0.849208045
753,1886541,2092020,-0.372,-0.706,0.66,-38.7,7.1,133.8,9.8,-12.9,-20.1,0.399578845,0.0486770226,0.345347453,-0.847743156
754,1888690,2092020,-0.376,-0.706,0.668,-35.1,6.9,130.7,9.8,-12.9,-20.1,0.401989807,0.0494705039,0.345927305,-0.846308786
755,1890835,2092020,-0.384,-0.702,0.684,-31.3,6.8,127.5,9.8,-12.9,-20.1,0.404309214,0.0502945036,0.346415601,-0.844965972
756,1893071,2092020,-0.387,-0.694,0.704,-27.1,6.8,124.2,9.8,-12.9,-20.1,0.406598102,0.0511185034,0.34684286,-0.843653676
757,1895796,2092030,-0.387,-0.682,0.727,-22.7,6.9,121,9.8,-12.9,-20.1,0.408795434,0.0519730216,0.347178564,-0.842371899
758,1897971,2092030,-0.383,-0.67,0.746,-18.2,7,117.9,9.8,-12.9,-20.1,0.41093173,0.0528275399,0.34745323,-0.841181677
759,1902000,2092030,-0.382,-0.651,0.762,-14.5,7,115,9.8,-12.9,-20.1,0.413006989,0.0536820582,0.347636341,-0.840021973
760,1904309,2092030,-0.382,-0.611,0.781,-11.9,7.2,112.4,9.8,-12.9,-20.1,0.41502121,0.0545670949,0.347788934,-0.838923307
761,1906574,2092040,-0.382,-0.611,0.781,-11.9,7.2,112.4,9.8,-12.9,-20.1,0.41502121,0.0545670949,0.347788934,-0.838923307
762,1908871,2092040,-0.393,-0.56,0.797,-10.7,8.5,107.2,7.7,-12.8,-19.6,0.418866543,0.05630665,0.348063601,-0.836756493
763,1911055,2092040,-0.393,-0.56,0.797,-10.7,8.5,107.2,7.7,-12.8,-19.6,0.418866543,0.05630665,0.348063601,-0.836756493
764,1913346,2092040,-0.435,-0.469,0.829,-13.1,11.4,101.6,7.7,-12.8,-19.6,0.422498245,0.058046205,0.348460341,-0.834650716
765,1915607,2092050,-0.435,-0.469,0.829,-13.1,11.4,101.6,7.7,-12.8,-19.6,0.422498245,0.058046205,0.348460341,-0.834650716
766,1917921,2092050,-0.481,-0.408,0.873,-16.4,14.8,95.7,7.4,-12.6,-19.7,0.4258858,0.0597552416,0.349040193,-0.832575457
767,1920654,2092050,-0.509,-0.38,0.889,-18,16.3,92.9,7.4,-12.6,-19.7,0.427472762,0.0605792413,0.349406415,-0.831568346
768,1923133,2092050,-0.555,-0.328,0.934,-19.9,17.7,90.4,7.4,-12.6,-19.7,0.428998688,0.0614032411,0.349803156,-0.830530717
769,1926718,2092060,-0.591,-0.308,0.958,-22.4,19.2,88.3,6.9,-12.7,-19.4,0.430463576,0.0622272408,0.350260933,-0.829493088
770,1927827,2092060,-0.626,-0.287,0.97,-25.5,20.4,86.6,6.9,-12.7,-19.4,0.431928465,0.0630207221,0.350810266,-0.828455458
771,1931083,2092060,-0.626,-0.287,0.97,-25.5,20.4,86.6,6.9,-12.7,-19.4,0.431928465,0.0630207221,0.350810266,-0.828455458
772,1933245,2092060,-0.626,-0.287,0.97,-25.5,20.4,86.6,6.9,-12.7,-19.4,0.431928465,0.0630207221,0.350810266,-0.828455458
773,1935570,2092070,-0.767,-0.209,1.013,-35,25.4,83.3,6.9,-12.7,-19.4,0.436078982,0.0653401288,0.352855007,-0.825189978
774,1938013,2092070,-0.795,-0.185,1.018,-37.6,27,82,6.9,-12.7,-19.4,0.437391278,0.0661030915,0.353679006,-0.82412183
775,1940525,2092070,-0.87,-0.156,1.008,-40.2,28.1,80.4,6.9,-12.7,-19.4,0.438673055,0.0668355358,0.354564043,-0.822992645
776,1942985,2092070,-0.893,-0.139,1.005,-42.9,29.2,78.6,6.9,-12.7,-19.4,0.439924314,0.06756798,0.355479598,-0.82186346
777,1945953,2092080,-0.921,-0.139,1.005,-45.3,30.3,76.6,6.9,-12.7,-19.4,0.441114536,0.0682699057,0.356486709,-0.820734275
778,1948224,2092080,-0.953,-0.134,1.002,-46.6,31.2,74.4,6.9,-12.7,-19.4,0.442274239,0.0689413129,0.35749382,-0.81960509
779,1950576,2092080,-0.953,-0.134,1.002,-46.6,31.2,74.4,6.9,-12.7,-19.4,0.442274239,0.0689413129,0.35749382,-0.81960509
780,1954056,2092080,-0.953,-0.134,1.002,-46.6,31.2,74.4,6.9,-12.7,-19.4,0.442274239,0.0689413129,0.35749382,-0.81960509
781,1956263,2092090,-1.001,-0.168,1,-43.8,31.3,67.4,5.2,-12.7,-19.9,0.445478683,0.0709555345,0.360545671,-0.816370128
782,1958462,2092090,-1.017,-0.188,1,-41.6,30.5,65.5,5.2,-12.7,-19.9,0.446485794,0.0716269417,0.361461226,-0.815363018
783,1960799,2092090,-1.017,-0.188,1,-41.6,30.5,65.5,5.2,-12.7,-19.9,0.446485794,0.0716269417,0.361461226,-0.815363018
784,1963011,2092090,-1.03,-0.266,0.985,-37.2,29.3,62.4,5.2,-12.7,-19.9,0.448377941,0.0729087191,0.363200781,-0.813440352
785,1965681,2092100,-1.03,-0.266,0.985,-37.2,29.3,62.4,5.2,-12.7,-19.9,0.448377941,0.0729087191,0.363200781,-0.813440352
786,1967995,2092100,-1.02,-0.345,0.958,-33.4,28.7,59.8,8.2,-12.3,-19.8,0.450178533,0.074221015,0.364787744,-0.811609241
787,1971448,2092100,-1.004,-0.373,0.946,-32.1,28.3,58.1,8.2,-12.3,-19.8,0.451033052,0.0748924223,0.365550707,-0.810724204
788,1974236,2092100,-0.989,-0.389,0.914,-31.8,27.8,56.1,8.2,-12.3,-19.8,0.451857051,0.0755027924,0.366313669,-0.809869686
789,1976481,2092110,-0.985,-0.397,0.906,-32.4,27.6,53.7,8.5,-12.1,-20.3,0.452650533,0.0761131626,0.367046113,-0.809045686
790,1978724,2092110,-0.974,-0.409,0.875,-33.8,27.9,51.2,8.5,-12.1,-20.3,0.453382977,0.0766624958,0.367839595,-0.808221686
791,1981007,2092110,-0.977,-0.401,0.871,-35.4,28.6,48.8,8.5,-12.1,-20.3,0.454054384,0.077211829,0.368663594,-0.807397687
792,1983206,2092110,-0.974,-0.397,0.855,-36.9,29.3,46.3,8.5,-12.1,-20.3,0.454695273,0.0777306436,0.369518113,-0.806604205
793,1985475,2092120,-0.974,-0.393,0.851,-38.6,30.1,43.8,8.1,-12,-20.1,0.455305643,0.0782189398,0.370433668,-0.805780206
794,1987926,2092120,-0.993,-0.361,0.832,-40.9,30.9,41.1,8.1,-12,-20.1,0.455854976,0.0787072359,0.371379742,-0.804986724
795,1991407,2092120,-1.005,-0.349,0.828,-43.6,32,38.5,8.1,-12,-20.1,0.456343272,0.0791650136,0.372417371,-0.804193243
796,1993001,2092120,-1.008,-0.33,0.825,-46.7,33.4,36.1,8.1,-12,-20.1,0.456770531,0.0795617542,0.373516037,-0.803399762
797,1995547,2092130,-1.016,-0.31,0.817,-49.7,34.9,34.3,8.1,-12,-20.1,0.457167272,0.0799584948,0.374675741,-0.802606281
798,1998308,2092130,-1.024,-0.278,0.821,-52.7,36.2,32.8,8.1,-12,-20.1,0.457564013,0.0803552355,0.375896481,-0.801751762
799,2000605,2092130,-1.023,-0.262,0.825,-55.3,37.1,31.4,8.1,-12,-20.1,0.457899716,0.0806604205,0.377178259,-0.800927763
800,2003182,2092130,-1.023,-0.251,0.833,-57.2,37.7,30,8.1,-12,-20.1,0.458204901,0.0810266427,0.378490555,-0.800103763
801,2005767,2092140,-1.019,-0.223,0.844,-58.7,38,28.5,7.9,-11.9,-20.9,0.458510086,0.0813318278,0.379863887,-0.799249245
802,2007971,2092140,-1.019,-0.219,0.848,-60,37.9,27,7.9,-11.9,-20.9,0.458754234,0.0816370128,0.38123722,-0.798425245
803,2011987,2092140,-1.01,-0.208,0.856,-61.4,37.7,25,7.9,-11.9,-20.9,0.458998383,0.0818811609,0.382641072,-0.797601245
804,2014221,2092140,-1.022,-0.2,0.864,-62.8,37.3,22.9,7.9,-11.9,-20.9,0.459181494,0.0820947905,0.384075442,-0.796777245
805,2015854,2092150,-1.022,-0.2,0.864,-62.8,37.3,22.9,7.9,-11.9,-20.9,0.459181494,0.0820947905,0.384075442,-0.796777245
806,2018067,2092150,-1.034,-0.187,0.891,-65.7,36.8,18.8,7.3,-11.5,-20.9,0.45945616,0.0823999756,0.387005219,-0.795159764
807,2020442,2092150,-1.038,-0.187,0.903,-66.2,36.7,16.7,7.3,-11.5,-20.9,0.459578234,0.0825220496,0.388470107,-0.794366283
808,2024469,2092150,-1.03,-0.191,0.907,-66,36.6,14.6,7.3,-11.5,-20.9,0.459639271,0.0826136052,0.389965514,-0.793572802
809,2026727,2092160,-1.006,-0.212,0.93,-64.7,36.3,12.3,7.7,-11.6,-21.3,0.45966979,0.0827051607,0.391430403,-0.792840358
810,2028405,2092160,-0.998,-0.228,0.937,-62.7,35.6,10.1,7.7,-11.6,-21.3,0.459639271,0.0827661977,0.392864772,-0.792138432
811,2030681,2092160,-0.994,-0.235,0.941,-60.2,34.7,8.2,7.7,-11.6,-21.3,0.459608753,0.0828577532,0.394238105,-0.791467025
812,2032938,2092160,-0.991,-0.251,0.941,-57.8,33.5,6.7,7.7,-11.6,-21.3,0.459547716,0.0828882717,0.395550401,-0.790856655
813,2037270,2092170,-0.975,-0.271,0.937,-55.9,32.5,5.6,7.3,-11.2,-21.3,0.45945616,0.0829493088,0.396832179,-0.790246284
814,2038085,2092170,-0.967,-0.283,0.925,-54.8,31.9,4.7,7.3,-11.2,-21.3,0.459364605,0.0829798273,0.398083438,-0.789666433
815,2040697,2092170,-0.968,-0.287,0.921,-54.4,31.6,3.8,7.3,-11.2,-21.3,0.459242531,0.0830103458,0.399334696,-0.789086581
816,2043040,2092170,-0.972,-0.295,0.902,-54.4,31.4,2.9,7.3,-11.2,-21.3,0.459120457,0.0830408643,0.400585955,-0.788537248
817,2047007,2092180,-0.964,-0.299,0.894,-54.6,31.5,2.2,7.3,-11.2,-21.3,0.458998383,0.0830713828,0.401837214,-0.787987915
818,2047827,2092180,-0.964,-0.303,0.886,-54.2,31.7,1.8,7.3,-11.2,-21.3,0.45884579,0.0830713828,0.403088473,-0.787438581
819,2052267,2092180,-0.964,-0.303,0.886,-54.2,31.7,1.8,7.3,-11.2,-21.3,0.45884579,0.0830713828,0.403088473,-0.787438581
820,2053078,2092180,-0.96,-0.307,0.866,-51.6,32.2,1.8,7.3,-11.2,-21.3,0.458510086,0.0831629383,0.405529954,-0.786339915
821,2055680,2092190,-0.952,-0.311,0.854,-50.2,32.2,2.1,8.5,-10.3,-21.4,0.458357494,0.0832239753,0.406689657,-0.7858211
822,2059102,2092190,-0.944,-0.304,0.846,-49.3,31.8,2.5,8.5,-10.3,-21.4,0.458204901,0.0833155309,0.407849361,-0.785302286
823,2061385,2092190,-0.944,-0.296,0.842,-49.4,31.5,2.9,8.5,-10.3,-21.4,0.458082827,0.0833765679,0.409009064,-0.784783471
824,2063540,2092190,-0.94,-0.276,0.827,-50.1,31.5,3.3,8.5,-10.3,-21.4,0.457930235,0.0834681234,0.410199286,-0.784234138
825,2065850,2092200,-0.94,-0.276,0.827,-50.1,31.5,3.3,8.5,-10.3,-21.4,0.457930235,0.0834681234,0.410199286,-0.784234138
826,2068174,2092200,-0.932,-0.249,0.811,-51.8,32.5,4.4,5.8,-10,-21.5,0.457686087,0.0835901975,0.41257973,-0.783104953
827,2070835,2092200,-0.924,-0.225,0.806,-52.2,32.8,4.9,5.8,-10,-21.5,0.457564013,0.083681753,0.41380047,-0.782525101
828,2073079,2092200,-0.919,-0.21,0.798,-52.4,32.8,5.6,5.8,-10,-21.5,0.457472457,0.0837733085,0.414990692,-0.78194525
829,2076431,2092210,-0.919,-0.194,0.791,-52.7,32.6,6.1,5.6,-10,-21.7,0.457380902,0.083864864,0.416211432,-0.78133488
830,2079547,2092210,-0.919,-0.182,0.787,-53.1,32.4,6.7,5.6,-10,-21.7,0.457289346,0.0839564196,0.417432173,-0.780724509
831,2081731,2092210,-0.911,-0.155,0.775,-54.1,32.2,7.2,5.6,-10,-21.7,0.457228309,0.0840174566,0.418652913,-0.780114139
832,2083119,2092210,-0.903,-0.14,0.77,-55.1,32.2,7.7,5.6,-10,-21.7,0.457167272,0.0840784936,0.419904172,-0.779473251
833,2085578,2092220,-0.899,-0.136,0.778,-56.1,32.3,8.1,5.8,-9.6,-21.8,0.457106235,0.0841700491,0.421155431,-0.778801843
834,2088399,2092220,-0.891,-0.136,0.778,-56.7,32.1,8.5,5.8,-9.6,-21.8,0.457045198,0.0842005676,0.422437208,-0.778130436
835,2090596,2092220,-0.875,-0.144,0.781,-56.7,31.7,8.6,5.8,-9.6,-21.8,0.457014679,0.0842616047,0.423688467,-0.777459029
836,2092905,2092220,-0.875,-0.144,0.781,-56.7,31.7,8.6,5.8,-9.6,-21.8,0.457014679,0.0842616047,0.423688467,-0.777459029
837,2095467,2092230,-0.863,-0.172,0.781,-55.9,30.5,8.6,5.8,-9.6,-21.8,0.456953642,0.0843531602,0.426190985,-0.776146733
838,2098705,2092230,-0.852,-0.184,0.781,-55.5,30,8.6,5.8,-9.6,-21.8,0.456923124,0.0843836787,0.427411725,-0.775475326
839,2100996,2092230,-0.844,-0.216,0.781,-55.1,29.5,8.6,5.8,-9.6,-21.8,0.456892605,0.0844141972,0.428632466,-0.774834437
840,2103238,2092230,-0.828,-0.224,0.776,-54.8,29.2,8.6,5.8,-9.6,-21.8,0.456862087,0.0844447157,0.429822687,-0.77416303
841,2105582,2092240,-0.833,-0.239,0.781,-54.6,29.1,8.8,8,-9.2,-22,0.456831568,0.0844752342,0.431012909,-0.773522141
842,2109346,2092240,-0.829,-0.267,0.784,-54.3,29,9.1,8,-9.2,-22,0.45680105,0.0845057527,0.432203131,-0.772850734
843,2110717,2092240,-0.829,-0.275,0.777,-53.6,28.9,9.5,8,-9.2,-22,0.45680105,0.0845667898,0.433393353,-0.772209845
844,2113043,2092240,-0.825,-0.283,0.78,-52.5,28.7,10,8,-9.2,-22,0.45680105,0.0846278268,0.434553056,-0.771568957
845,2115938,2092250,-0.825,-0.283,0.78,-52.5,28.7,10,8,-9.2,-22,0.45680105,0.0846278268,0.434553056,-0.771568957
846,2118240,2092250,-0.83,-0.295,0.773,-49.2,28.1,11.2,9.2,-9.2,-22.2,0.45680105,0.0847804193,0.436750389,-0.770287179
847,2120470,2092250,-0.826,-0.299,0.777,-47.3,27.8,11.9,9.2,-9.2,-22.2,0.456831568,0.0848719749,0.437818537,-0.76964629
848,2123072,2092250,-0.822,-0.303,0.773,-45.4,27.5,12.8,9.2,-9.2,-22.2,0.456862087,0.0850245674,0.438825648,-0.76903592
849,2125558,2092260,-0.818,-0.299,0.776,-43.4,27.2,13.6,10.3,-8.2,-22.2,0.456923124,0.0851771599,0.43980224,-0.768456069
850,2129201,2092260,-0.826,-0.299,0.777,-41.2,26.8,14.5,10.3,-8.2,-22.2,0.456984161,0.085360271,0.440717795,-0.767845698
851,2131471,2092260,-0.822,-0.295,0.765,-38.7,26.3,15.4,10.3,-8.2,-22.2,0.457045198,0.0855433821,0.441602832,-0.767265847
852,2133737,2092260,-0.814,-0.291,0.772,-36,25.7,16.3,10.3,-8.2,-22.2,0.457136753,0.0857875301,0.442426832,-0.766716514
853,2135923,2092270,-0.81,-0.287,0.768,-33.2,24.9,17.1,10.3,-8.5,-22.2,0.457258827,0.0860316782,0.443220313,-0.76616718
854,2138181,2092270,-0.806,-0.283,0.764,-30.5,24,17.8,10.3,-8.5,-22.2,0.457380902,0.0863063448,0.443922239,-0.765648366
855,2140438,2092270,-0.798,-0.276,0.756,-28.3,23.1,18.5,10.3,-8.5,-22.2,0.457502976,0.0865810114,0.444593646,-0.76516007
856,2143101,2092270,-0.798,-0.272,0.756,-26.4,22.5,19.1,10.3,-8.5,-22.2,0.457655568,0.0868861965,0.445234535,-0.764671773
857,2145381,2092280,-0.794,-0.272,0.741,-24.7,21.9,19.7,10.3,-8.5,-22.2,0.457838679,0.0871913816,0.445783868,-0.764183477
858,2149478,2092280,-0.794,-0.268,0.733,-22.9,21.3,20.2,10.3,-8.5,-22.2,0.457991272,0.0874965667,0.44636372,-0.7637257
859,2151680,2092280,-0.786,-0.272,0.729,-21.1,20.8,20.9,10.3,-8.5,-22.2,0.458204901,0.0878627888,0.446882534,-0.763267922
860,2153919,2092280,-0.782,-0.272,0.732,-18.9,20.1,21.7,10.3,-8.5,-22.2,0.458388012,0.0882290109,0.44737083,-0.762810144
861,2156198,2092290,-0.778,-0.28,0.717,-16.9,19.3,22.6,9.2,-8,-22.4,0.458601642,0.088595233,0.44779809,-0.762382885
862,2158432,2092290,-0.774,-0.288,0.713,-14.9,18.4,23.4,9.2,-8,-22.4,0.45884579,0.0889614551,0.44819483,-0.761986145
863,2160689,2092290,-0.77,-0.288,0.709,-13.1,17.6,24.1,9.2,-8,-22.4,0.459120457,0.0893887143,0.448530534,-0.761558885
864,2162925,2092290,-0.77,-0.284,0.701,-11.6,16.9,24.7,9.2,-8,-22.4,0.459364605,0.0897854549,0.448866237,-0.761192663
865,2165604,2092300,-0.77,-0.284,0.701,-11.6,16.9,24.7,9.2,-8,-22.4,0.459364605,0.0897854549,0.448866237,-0.761192663
866,2169750,2092300,-0.754,-0.285,0.685,-9.4,15.8,25.7,9.3,-8.3,-22.1,0.460860012,0.091891232,0.448225349,-0.760399182
867,2170408,2092300,-0.751,-0.289,0.689,-8.1,15.3,26.3,9.3,-8.3,-22.1,0.461165197,0.0923490097,0.448469497,-0.76003296
868,2173292,2092300,-0.75,-0.285,0.689,-6.6,14.6,26.9,9.3,-8.3,-22.1,0.461470382,0.0928067873,0.448652608,-0.759666738
869,2175591,2092310,-0.735,-0.289,0.684,-4.9,13.8,27.6,9.6,-9.1,-22.3,0.461806085,0.093264565,0.448835719,-0.759300516
870,2177888,2092310,-0.735,-0.289,0.677,-3.3,13.1,28.2,9.6,-9.1,-22.3,0.462141789,0.0937223426,0.448957793,-0.758964812
871,2180528,2092310,-0.731,-0.297,0.676,-2,12.4,28.8,9.6,-9.1,-22.3,0.462508011,0.0941801202,0.449049348,-0.758629109
872,2183773,2092310,-0.723,-0.305,0.672,-0.7,11.7,29.2,9.6,-9.1,-22.3,0.462874233,0.0946684164,0.449140904,-0.758293405
873,2185543,2092320,-0.723,-0.305,0.672,0.3,11,29.5,9.2,-9.9,-22.3,0.463270974,0.095126194,0.449171422,-0.75798822
874,2188433,2092320,-0.719,-0.313,0.676,1.5,10.3,29.9,9.2,-9.9,-22.3,0.463637196,0.0956144902,0.449201941,-0.757652516
875,2190842,2092320,-0.715,-0.329,0.676,2.9,9.8,30.1,9.2,-9.9,-22.3,0.464033937,0.0961027863,0.449171422,-0.75737785
876,2193099,2092320,-0.7,-0.353,0.684,4.6,9.1,30.4,9.2,-9.9,-22.3,0.464461196,0.0965910825,0.449140904,-0.757072665
877,2195840,2092330,-0.696,-0.372,0.695,6.7,8.4,30.5,9.2,-9.9,-22.3,0.464857936,0.0971098972,0.449049348,-0.756828516
878,2198087,2092330,-0.692,-0.384,0.695,8.9,7.8,30.6,9.2,-9.9,-22.3,0.465254677,0.0976287118,0.448896756,-0.756584368
879,2200714,2092330,-0.681,-0.4,0.703,11.2,7.2,30.5,9.2,-9.9,-22.3,0.465681936,0.0981475265,0.448744163,-0.756370739
880,2202957,2092330,-0.673,-0.428,0.71,13.2,6.7,30.5,9.2,-9.9,-22.3,0.466078677,0.0986968596,0.448530534,-0.756187628
881,2207123,2092340,-0.669,-0.444,0.71,15,6.3,30.5,9.5,-9.6,-22.4,0.466505936,0.0992156743,0.448255867,-0.756004517
882,2207978,2092340,-0.67,-0.455,0.714,16.6,5.9,30.6,9.5,-9.6,-22.4,0.466902676,0.0998260445,0.447981201,-0.755821406
883,2210511,2092340,-0.67,-0.471,0.722,18.2,5.8,30.8,9.5,-9.6,-22.4,0.467329936,0.100405896,0.447676016,-0.755699332
884,2213314,2092340,-0.67,-0.479,0.714,19.4,5.8,30.9,9.5,-9.6,-22.4,0.467726676,0.101016266,0.447340312,-0.755546739
885,2215601,2092350,-0.67,-0.479,0.714,19.4,5.8,30.9,9.5,-9.6,-22.4,0.467726676,0.101016266,0.447340312,-0.755546739
886,2219595,2092350,-0.678,-0.491,0.703,21.3,5.7,31.1,8.8,-10.4,-22.5,0.469100009,0.102908414,0.445783868,-0.755363628
887,2221918,2092350,-0.678,-0.499,0.703,22.8,5.7,31.3,8.8,-10.4,-22.5,0.46949675,0.103549303,0.445417646,-0.755241554
888,2224127,2092350,-0.678,-0.502,0.703,24.7,5.6,31.7,8.8,-10.4,-22.5,0.469924009,0.104190191,0.444990387,-0.755149998
889,2226389,2092360,-0.674,-0.514,0.699,27,5.3,32.1,8.7,-10,-22.6,0.47032075,0.104861599,0.444532609,-0.755058443
890,2228604,2092360,-0.671,-0.518,0.695,29.4,4.8,32.6,8.7,-10,-22.6,0.470748009,0.105563524,0.444013794,-0.754997406
891,2230827,2092360,-0.671,-0.538,0.691,31.7,4.2,33,8.7,-10,-22.6,0.471175268,0.106295969,0.443464461,-0.754966887
892,2233061,2092360,-0.667,-0.538,0.683,33.9,3.9,33.3,8.7,-10,-22.6,0.471602527,0.107028413,0.44288461,-0.754936369
893,2235681,2092370,-0.659,-0.546,0.683,35.6,3.6,33.6,8.8,-9.8,-22.4,0.472029786,0.107760857,0.442243721,-0.754936369
894,2239702,2092370,-0.659,-0.55,0.683,37.2,3.5,33.9,8.8,-9.8,-22.4,0.472487564,0.108554338,0.441572314,-0.754936369
895,2240482,2092370,-0.659,-0.55,0.664,38.4,3.3,34.1,8.8,-9.8,-22.4,0.472914823,0.109317301,0.440900906,-0.754936369
896,2244448,2092370,-0.663,-0.55,0.66,39.6,3.2,34.4,8.8,-9.8,-22.4,0.4733726,0.110110782,0.440198981,-0.754966887
897,2246637,2092380,-0.659,-0.542,0.656,40.7,3.3,34.8,8.8,-8.8,-20.6,0.47379986,0.110934782,0.439497055,-0.754997406
898,2248945,2092380,-0.659,-0.534,0.644,41.6,3.5,35.1,8.8,-8.8,-20.6,0.474257637,0.111758782,0.438764611,-0.755027924
899,2251922,2092380,-0.659,-0.519,0.636,42.3,3.7,35.4,8.8,-8.8,-20.6,0.474684896,0.112582781,0.437971129,-0.755027924
900,2254114,2092380,-0.659,-0.507,0.64,42.8,3.7,35.7,8.8,-8.8,-20.6,0.475142674,0.1134373,0.437238685,-0.755058443
901,2256406,2092390,-0.651,-0.495,0.632,43,3.8,36.2,9.3,-9.2,-22.6,0.475600452,0.114291818,0.436475723,-0.755088961
902,2258383,2092390,-0.654,-0.476,0.62,43.1,3.8,36.7,9.3,-9.2,-22.6,0.476058229,0.115146336,0.43571276,-0.75511948
903,2260635,2092390,-0.654,-0.46,0.616,42.8,3.8,37,9.3,-9.2,-22.6,0.476516007,0.116000855,0.434980316,-0.75511948
904,2262967,2092390,-0.65,-0.456,0.612,42.4,3.7,37.3,9.3,-9.2,-22.6,0.477004303,0.116885891,0.434217353,-0.75511948
905,2265638,2092400,-0.65,-0.456,0.612,42.4,3.7,37.3,9.3,-9.2,-22.6,0.477004303,0.116885891,0.434217353,-0.75511948
906,2269700,2092400,-0.638,-0.441,0.608,40.5,3.1,37.8,9,-9.3,-22.8,0.478164006,0.118900113,0.432538835,-0.755027924
907,2270438,2092400,-0.634,-0.437,0.608,39.2,2.9,38,9,-9.3,-22.8,0.478682821,0.119724113,0.431806391,-0.754997406
908,2273152,2092400,-0.634,-0.433,0.604,37.7,2.8,38.2,9,-9.3,-22.8,0.479171117,0.120517594,0.431104465,-0.754936369
909,2277303,2092410,-0.63,-0.433,0.608,35.7,2.8,38.4,8.6,-9.3,-22.7,0.479689932,0.121311075,0.430463576,-0.754875332
910,2277952,2092410,-0.622,-0.437,0.596,33.4,3.2,38.5,8.6,-9.3,-22.7,0.480208747,0.122074038,0.429853206,-0.754783776
911,2280677,2092410,-0.622,-0.437,0.596,33.4,3.2,38.5,8.6,-9.3,-22.7,0.480208747,0.122074038,0.429853206,-0.754783776
912,2282893,2092410,-0.618,-0.441,0.588,28.2,3.5,38.4,8.6,-9.3,-22.7,0.481246376,0.123538926,0.428724021,-0.75450911
913,2287004,2092420,-0.614,-0.441,0.588,25.6,3.6,38.3,8.8,-9.4,-22.5,0.481765191,0.124210334,0.428205206,-0.754325999
914,2289024,2092420,-0.614,-0.441,0.58,22.9,3.7,38.1,8.8,-9.4,-22.5,0.482314524,0.124881741,0.427808466,-0.754142888
915,2290717,2092420,-0.611,-0.441,0.576,20.1,3.8,37.9,8.8,-9.4,-22.5,0.482833338,0.125492111,0.427411725,-0.75389874
916,2293460,2092420,-0.611,-0.445,0.584,17.3,4,37.6,8.8,-9.4,-22.5,0.483382672,0.126102481,0.427045503,-0.753654592
917,2295669,2092430,-0.61,-0.433,0.576,14.6,4.1,37.3,8.4,-10.2,-21.6,0.483901486,0.126682333,0.426770837,-0.753379925
918,2297943,2092430,-0.611,-0.437,0.572,12,4.3,36.9,8.4,-10.2,-21.6,0.484450819,0.127231666,0.42649617,-0.753105258
919,2300825,2092430,-0.606,-0.434,0.572,9.6,4.4,36.5,8.4,-10.2,-21.6,0.484969634,0.127750481,0.426252022,-0.752800073
920,2303240,2092430,-0.607,-0.437,0.568,7.5,4.8,36,8.4,-10.2,-21.6,0.485518967,0.128238777,0.426129948,-0.75246437
921,2305441,2092440,-0.603,-0.434,0.572,5.8,5,35.4,7.9,-10.1,-21.2,0.486037782,0.128696554,0.425977355,-0.752128666
922,2308095,2092440,-0.607,-0.437,0.564,4.5,5.2,34.8,7.9,-10.1,-21.2,0.486526078,0.129123814,0.425855281,-0.751792962
923,2312222,2092440,-0.603,-0.441,0.572,3.6,5.2,34,7.9,-10.1,-21.2,0.487044893,0.12961211,0.425763726,-0.751457259
924,2312923,2092440,-0.591,-0.45,0.583,3.1,5.2,33.2,7.9,-10.1,-21.2,0.487533189,0.130039369,0.42567217,-0.751121555
925,2315869,2092450,-0.591,-0.45,0.583,3.1,5.2,33.2,7.9,-10.1,-21.2,0.487533189,0.130039369,0.42567217,-0.751121555
926,2318018,2092450,-0.579,-0.466,0.587,2.9,5.2,31.9,7.6,-10,-20.1,0.488570818,0.131076998,0.425366985,-0.75041963
927,2321019,2092450,-0.575,-0.477,0.591,3.4,5.1,31.3,7.6,-10,-20.1,0.489028596,0.131504257,0.42527543,-0.750083926
928,2323356,2092450,-0.564,-0.501,0.594,4,5,30.5,7.6,-10,-20.1,0.489486373,0.131900998,0.425183874,-0.749778741
929,2325565,2092460,-0.56,-0.513,0.602,4.9,4.9,29.7,7.8,-10.5,-19.2,0.489913633,0.132328257,0.4250618,-0.749504074
930,2329658,2092460,-0.556,-0.521,0.602,5.8,4.8,28.9,7.8,-10.5,-19.2,0.490310373,0.132724998,0.424939726,-0.749229408
931,2330625,2092460,-0.56,-0.529,0.614,6.4,4.8,28,7.8,-10.5,-19.2,0.490707114,0.133152257,0.424787133,-0.74898526
932,2333231,2092460,-0.56,-0.529,0.614,6.4,4.8,28,7.8,-10.5,-19.2,0.490707114,0.133152257,0.424787133,-0.74898526
933,2335439,2092470,-0.56,-0.541,0.598,7.5,5.8,26.5,8.2,-10.4,-19,0.491439558,0.133976257,0.424512467,-0.748496963
934,2339564,2092470,-0.564,-0.533,0.602,8.3,6.5,25.8,8.2,-10.4,-19,0.491775262,0.134403516,0.424359874,-0.748283334
935,2341715,2092470,-0.564,-0.529,0.598,9.2,6.9,25.1,8.2,-10.4,-19,0.492110965,0.134861293,0.4242378,-0.748069704
936,2344078,2092470,-0.568,-0.525,0.587,10.5,7.4,24.6,8.2,-10.4,-19,0.49241615,0.135319071,0.424054689,-0.747886593
937,2346354,2092480,-0.568,-0.525,0.583,12,7.7,24.1,7.9,-10.7,-23.3,0.492660298,0.135807367,0.423871578,-0.747734001
938,2349328,2092480,-0.568,-0.525,0.583,12,7.7,24.1,7.9,-10.7,-23.3,0.492660298,0.135807367,0.423871578,-0.747734001
939,2350613,2092480,-0.564,-0.517,0.583,15.5,8,23.1,7.9,-10.7,-23.3,0.493209632,0.136814478,0.4234138,-0.747428816
940,2353014,2092480,-0.564,-0.517,0.583,15.5,8,23.1,7.9,-10.7,-23.3,0.493209632,0.136814478,0.4234138,-0.747428816
941,2356819,2092490,-0.564,-0.517,0.583,15.5,8,23.1,7.9,-10.7,-23.3,0.493209632,0.136814478,0.4234138,-0.747428816
942,2358951,2092490,-0.564,-0.505,0.579,20.5,7.7,21.2,8.5,-10.3,-20.6,0.493911557,0.138431959,0.422559282,-0.747184668
943,2361207,2092490,-0.564,-0.505,0.579,20.5,7.7,21.2,8.5,-10.3,-20.6,0.493911557,0.138431959,0.422559282,-0.747184668
944,2363544,2092490,-0.564,-0.497,0.575,22.2,8,19.9,8.5,-10.3,-20.6,0.494277779,0.139530625,0.421887875,-0.747062593
945,2365910,2092500,-0.564,-0.497,0.575,22.2,8,19.9,8.5,-10.3,-20.6,0.494277779,0.139530625,0.421887875,-0.747062593
946,2368291,2092500,-0.568,-0.486,0.563,22.1,8.7,18.6,7.9,-10.7,-22.8,0.494491409,0.140293588,0.421277505,-0.747184668
947,2370419,2092500,-0.559,-0.454,0.571,21.4,8.9,18.1,7.9,-10.7,-22.8,0.494613483,0.140842921,0.42097232,-0.747154149
948,2372965,2092500,-0.571,-0.442,0.563,20.4,9.1,17.7,7.9,-10.7,-22.8,0.494766076,0.141361736,0.420697653,-0.74712363
949,2375623,2092510,-0.583,-0.438,0.54,19.1,9.4,17.2,7.8,-11,-21.6,0.494918668,0.141880551,0.420392468,-0.747062593
950,2379773,2092510,-0.591,-0.446,0.533,17.5,9.6,16.8,7.8,-11,-21.6,0.495040742,0.142399365,0.420178838,-0.747032075
951,2381938,2092510,-0.583,-0.418,0.532,15.7,9.9,16.4,7.8,-11,-21.6,0.495162816,0.142857143,0.419995727,-0.746971038
952,2384190,2092510,-0.583,-0.414,0.536,13.9,10.3,16.2,7.8,-11,-21.6,0.49528489,0.143345439,0.419812616,-0.746879482
953,2385241,2092520,-0.583,-0.414,0.536,13.9,10.3,16.2,7.8,-11,-21.6,0.49528489,0.143345439,0.419812616,-0.746879482
954,2388701,2092520,-0.583,-0.414,0.536,13.9,10.3,16.2,7.8,-11,-21.6,0.49528489,0.143345439,0.419812616,-0.746879482
955,2391003,2092520,-0.586,-0.41,0.536,10.1,10.1,15,8.2,-10.9,-22.4,0.495651112,0.144627216,0.419446394,-0.746604816
956,2393101,2092520,-0.586,-0.41,0.536,10.1,10.1,15,8.2,-10.9,-22.4,0.495651112,0.144627216,0.419446394,-0.746604816
957,2395510,2092530,-0.586,-0.41,0.536,10.1,10.1,15,8.2,-10.9,-22.4,0.495651112,0.144627216,0.419446394,-0.746604816
958,2398230,2092530,-0.583,-0.43,0.528,4.9,10,13.1,8,-11,-21,0.495986816,0.145725883,0.41932432,-0.746238594
959,2400531,2092530,-0.583,-0.434,0.536,3.1,10.2,12.4,8,-11,-21,0.49610889,0.146031068,0.41932432,-0.746086001
960,2403724,2092530,-0.583,-0.442,0.54,1.4,10.3,11.6,8,-11,-21,0.496200446,0.146336253,0.419385357,-0.745963927
961,2406519,2092540,-0.583,-0.45,0.536,0,10.2,10.8,8,-10.9,-21.2,0.496261483,0.14661092,0.419476913,-0.745811335
962,2408194,2092540,-0.587,-0.454,0.532,-1.5,9.9,10.2,8,-10.9,-21.2,0.496353038,0.146824549,0.419568468,-0.745658742
963,2410441,2092540,-0.587,-0.454,0.532,-1.5,9.9,10.2,8,-10.9,-21.2,0.496353038,0.146824549,0.419568468,-0.745658742
964,2413095,2092540,-0.591,-0.465,0.54,-4.3,9.8,8.9,8,-10.9,-21.2,0.496505631,0.147251808,0.419843135,-0.745323038
965,2415451,2092550,-0.591,-0.465,0.54,-4.3,9.8,8.9,8,-10.9,-21.2,0.496505631,0.147251808,0.419843135,-0.745323038
966,2417993,2092550,-0.591,-0.461,0.54,-6.4,10,7.6,8.1,-10.6,-21,0.496566668,0.147556993,0.420331431,-0.744926298
967,2420483,2092550,-0.595,-0.461,0.537,-7.1,10,7.2,8.1,-10.6,-21,0.496566668,0.147679067,0.420545061,-0.744773705
968,2423862,2092550,-0.595,-0.465,0.544,-7.5,9.8,6.9,8.1,-10.6,-21,0.496658223,0.147862178,0.420728172,-0.744590594
969,2426052,2092560,-0.595,-0.457,0.544,-7.7,9.6,6.5,7.9,-10.9,-20.9,0.496688742,0.147984252,0.420941801,-0.744407483
970,2428070,2092560,-0.595,-0.473,0.544,-7.7,9.5,6,7.9,-10.9,-20.9,0.49671926,0.148106326,0.421155431,-0.744254891
971,2431580,2092560,-0.599,-0.465,0.556,-7.6,9.3,5.4,7.9,-10.9,-20.9,0.496749779,0.148228401,0.42136906,-0.74407178
972,2434614,2092560,-0.599,-0.469,0.548,-7.3,8.9,4.8,7.9,-10.9,-20.9,0.496780297,0.148350475,0.421552171,-0.743919187
973,2437066,2092570,-0.587,-0.477,0.564,-7,8.5,4.3,7.9,-10.6,-20.7,0.496780297,0.14844203,0.421765801,-0.743797113
974,2439356,2092570,-0.587,-0.485,0.568,-6.7,8.2,3.9,7.9,-10.6,-20.7,0.496810816,0.148533586,0.421948912,-0.743675039
975,2441485,2092570,-0.592,-0.493,0.568,-6.3,8,3.5,7.9,-10.6,-20.7,0.496810816,0.148625141,0.422132023,-0.743552965
976,2443867,2092570,-0.592,-0.493,0.568,-6.3,8,3.5,7.9,-10.6,-20.7,0.496810816,0.148625141,0.422132023,-0.743552965
977,2446005,2092580,-0.584,-0.505,0.579,-5.4,7.6,2.8,7.1,-10.9,-21,0.496810816,0.148838771,0.422467727,-0.743308817
978,2448294,2092580,-0.592,-0.509,0.576,-5,7.5,2.3,7.1,-10.9,-21,0.496780297,0.148899808,0.422620319,-0.743217261
979,2450537,2092580,-0.596,-0.516,0.576,-4.4,7.5,1.9,7.1,-10.9,-21,0.496749779,0.149021882,0.422772912,-0.743125706
980,2453566,2092580,-0.592,-0.52,0.584,-3.9,7.5,1.7,7.1,-10.9,-21,0.49671926,0.149113437,0.422894986,-0.743064669
981,2455814,2092590,-0.596,-0.508,0.58,-3.4,7.4,1.4,8.8,-11.2,-21.1,0.496688742,0.149204993,0.42301706,-0.742973113
982,2458072,2092590,-0.596,-0.508,0.58,-3.4,7.4,1.4,8.8,-11.2,-21.1,0.496688742,0.149204993,0.42301706,-0.742973113
983,2460740,2092590,-0.6,-0.52,0.58,-2.6,7,1.1,8.8,-11.2,-21.1,0.496627705,0.149388104,0.423261208,-0.742851039
984,2462915,2092590,-0.604,-0.512,0.572,-2.1,7,0.9,8.8,-11.2,-21.1,0.496566668,0.149479659,0.423383282,-0.742790002
985,2466478,2092600,-0.604,-0.512,0.572,-2.1,7,0.9,8.8,-11.2,-21.1,0.496566668,0.149479659,0.423383282,-0.742790002
986,2468867,2092600,-0.608,-0.504,0.572,-0.5,6.5,0.4,9,-10.9,-20.8,0.496383557,0.149479659,0.42362743,-0.742790002
987,2470536,2092600,-0.608,-0.508,0.576,0.3,6.1,0.1,9,-10.9,-20.8,0.49632252,0.149571215,0.423688467,-0.742790002
988,2473389,2092600,-0.611,-0.504,0.58,1,5.7,0,9,-10.9,-20.8,0.496261483,0.149693289,0.423718986,-0.742790002
989,2475443,2092610,-0.615,-0.504,0.576,1.7,5.6,-0.2,9,-10.6,-20.8,0.496200446,0.149784845,0.423780023,-0.742790002
990,2478626,2092610,-0.615,-0.5,0.576,2.1,5.4,-0.5,9,-10.6,-20.8,0.496139409,0.149906919,0.423780023,-0.742790002
991,2481529,2092610,-0.615,-0.496,0.58,2.6,5.1,-0.6,9,-10.6,-20.8,0.496047853,0.149998474,0.423810541,-0.742790002
992,2484521,2092610,-0.619,-0.492,0.584,2.9,4.9,-0.8,9,-10.6,-20.8,0.495986816,0.150120548,0.423810541,-0.742820521
993,2486693,2092620,-0.619,-0.492,0.584,3,4.9,-0.8,9.3,-10.8,-20.8,0.495925779,0.150212104,0.423810541,-0.742851039
994,2488984,2092620,-0.619,-0.484,0.58,3.1,5,-0.9,9.3,-10.8,-20.8,0.495864742,0.150334178,0.42384106,-0.742851039
995,2491174,2092620,-0.623,-0.484,0.588,3,4.9,-0.9,9.3,-10.8,-20.8,0.495773186,0.150425733,0.42384106,-0.742881558
996,2493427,2092620,-0.623,-0.476,0.588,2.7,4.8,-1,9.3,-10.8,-20.8,0.495712149,0.150517289,0.42384106,-0.742912076
997,2495642,2092630,-0.627,-0.472,0.584,2.1,4.5,-1,7.2,-11,-20.9,0.495651112,0.150608844,0.423871578,-0.742912076
998,2498011,2092630,-0.627,-0.472,0.584,1.4,4.5,-1.1,7.2,-11,-20.9,0.495590075,0.1507004,0.423902097,-0.742942595
999,2500677,2092630,-0.627,-0.468,0.58,0.5,4.4,-1,7.2,-11,-20.9,0.495529038,0.150761437,0.423932615,-0.742942595
1000,2504746,2092630,-0.635,-0.468,0.588,-0.3,4.5,-0.9,7.2,-11,-20.9,0.495468001,0.150822474,0.423993652,-0.742942595
1001,2505516,2092640,-0.631,-0.464,0.588,-1.2,4.5,-1,9.3,-10.6,-20.8,0.495406964,0.150883511,0.424054689,-0.742912076
1002,2508076,2092640,-0.631,-0.46,0.588,-2.2,4.5,-1,9.3,-10.6,-20.8,0.495345927,0.150914029,0.424146245,-0.742881558
1003,2511339,2092640,-0.639,-0.468,0.589,-2.9,4.5,-1.1,9.3,-10.6,-20.8,0.495315409,0.150944548,0.424268319,-0.742851039
1004,2513694,2092640,-0.639,-0.472,0.596,-3.6,4.4,-1.1,9.3,-10.6,-20.8,0.495254372,0.150975066,0.424359874,-0.742820521
1005,2515695,2092650,-0.639,-0.472,0.596,-3.6,4.4,-1.1,9.3,-10.6,-20.8,0.495254372,0.150975066,0.424359874,-0.742820521
1006,2518020,2092650,-0.643,-0.476,0.597,-5.1,4.1,-1.1,9.2,-10.8,-20.9,0.49528489,0.151036103,0.424420911,-0.742759484
1007,2521466,2092650,-0.643,-0.476,0.604,-6.1,4,-1.2,9.2,-10.8,-20.9,0.495254372,0.151036103,0.424573504,-0.742698447
1008,2523882,2092650,-0.647,-0.48,0.604,-6.8,4,-1.4,9.2,-10.8,-20.9,0.495193335,0.151005585,0.424726096,-0.74263741
1009,2526002,2092660,-0.643,-0.476,0.597,-7.5,4,-1.5,9.1,-10.5,-20.9,0.495162816,0.150975066,0.424909207,-0.742576373
1010,2528331,2092660,-0.655,-0.48,0.605,-8.1,4,-1.6,9.1,-10.5,-20.9,0.495132298,0.150944548,0.425092318,-0.742515336
1011,2530765,2092660,-0.651,-0.476,0.605,-8.6,4,-1.6,9.1,-10.5,-20.9,0.495101779,0.150914029,0.42527543,-0.74242378
1012,2532973,2092660,-0.651,-0.48,0.605,-8.9,4,-1.6,9.1,-10.5,-20.9,0.495071261,0.150852992,0.425458541,-0.742332224
1013,2536514,2092670,-0.651,-0.484,0.601,-9.2,3.8,-1.7,9.2,-10.4,-20.7,0.495010224,0.150791955,0.42567217,-0.742271187
1014,2539560,2092670,-0.659,-0.479,0.609,-9.4,3.7,-1.7,9.2,-10.4,-20.7,0.494979705,0.150730918,0.425855281,-0.742179632
1015,2540389,2092670,-0.659,-0.476,0.609,-9.5,3.5,-1.7,9.2,-10.4,-20.7,0.494949187,0.150669881,0.426068911,-0.742118595
1016,2544600,2092670,-0.659,-0.479,0.613,-9.5,3.4,-1.8,9.2,-10.4,-20.7,0.494918668,0.150608844,0.426252022,-0.742027039
1017,2545589,2092680,-0.663,-0.479,0.613,-9.6,3.3,-1.8,9,-10.6,-21.1,0.49488815,0.150547807,0.426465651,-0.741935484
1018,2548015,2092680,-0.663,-0.479,0.613,-9.6,3.3,-1.9,9,-10.6,-21.1,0.494857631,0.15048677,0.426648762,-0.741874447
1019,2552075,2092680,-0.667,-0.479,0.609,-9.6,3.1,-1.8,9,-10.6,-21.1,0.494857631,0.150425733,0.426862392,-0.741782891
1020,2554252,2092680,-0.663,-0.479,0.609,-9.4,2.9,-1.8,9,-10.6,-21.1,0.494827113,0.150334178,0.427045503,-0.741691336
1021,2556523,2092690,-0.667,-0.483,0.617,-9.1,2.6,-1.9,6.4,-10.9,-20.9,0.494796594,0.150273141,0.427228614,-0.741630299
1022,2558854,2092690,-0.663,-0.483,0.613,-8.7,2.4,-2,6.4,-10.9,-20.9,0.494766076,0.150181585,0.427411725,-0.741569262
