sample_index,elapsed_us,device_time_ms,acc_x_g,acc_y_g,acc_z_g,gyro_x_dps,gyro_y_dps,gyro_z_dps,mag_x_ut,mag_y_ut,mag_z_ut,quat_w,quat_x,quat_y,quat_z
0,5194,83690,0.894,0.466,0.077,-3,-4.2,0.2,-5.2,-35.8,9.1,0.631122776,-0.046784875,-0.675496689,-0.378337962
1,8314,83700,0.897,0.466,0.077,-3.1,-4.1,0.1,-5.2,-35.8,9.1,0.631061739,-0.0468764306,-0.675527207,-0.378398999
2,10975,83700,0.897,0.462,0.077,-3.3,-4.1,0,-5.2,-35.8,9.1,0.631000702,-0.0469679861,-0.675557726,-0.378429518
3,12726,83700,0.898,0.467,0.069,-3.6,-3.9,0,-5.1,-35.8,9.4,0.630848109,-0.0469679861,-0.675618763,-0.378521073
4,15084,83700,0.898,0.467,0.069,-3.8,-3.8,0,-5.1,-35.8,9.4,0.630787072,-0.0470595416,-0.675649281,-0.37858211
5,19089,83710,0.897,0.466,0.077,-4.1,-3.6,0,-5.1,-35.8,9.4,0.630756554,-0.0471510971,-0.6756798,-0.378643147
6,21313,83710,0.905,0.466,0.081,-4.2,-3.5,0,-5.1,-35.8,9.4,0.630695517,-0.0472426527,-0.6756798,-0.378673666
7,23533,83710,0.905,0.462,0.077,-4.3,-3.5,-0.1,-5.1,-36,7.7,0.63063448,-0.0473342082,-0.675710318,-0.378765221
8,25530,83710,0.905,0.459,0.073,-4.3,-3.6,-0.2,-5.1,-36,7.7,0.630573443,-0.0473952452,-0.675710318,-0.378826258
9,27724,83720,0.909,0.458,0.073,-4.4,-3.6,-0.3,-5.1,-36,7.7,0.630512406,-0.0474868007,-0.675740837,-0.378887295
10,30044,83720,0.909,0.454,0.077,-4.5,-3.7,-0.4,-5.1,-36,7.7,0.630451369,-0.0475783563,-0.675740837,-0.378948332
11,32328,83720,0.909,0.454,0.081,-4.6,-3.8,-0.4,-5.2,-35.3,9.1,0.630359813,-0.0476393933,-0.675771355,-0.379009369
12,37116,83720,0.909,0.451,0.073,-4.7,-3.9,-0.5,-5.2,-35.3,9.1,0.630298776,-0.0477614673,-0.675771355,-0.379100925
13,39262,83730,0.913,0.451,0.073,-4.6,-4.1,-0.6,-5.2,-35.3,9.1,0.630237739,-0.0478530229,-0.675801874,-0.379161962
14,41618,83730,0.909,0.454,0.081,-4.7,-4.4,-0.5,-5.2,-35.3,9.1,0.630146184,-0.0479445784,-0.675801874,-0.379253517
15,43826,83730,0.905,0.451,0.069,-4.7,-4.6,-0.4,-5,-35.7,9.1,0.630085147,-0.0480361339,-0.675832392,-0.379314554
16,45749,83730,0.905,0.447,0.081,-4.8,-4.8,-0.2,-5,-35.7,9.1,0.629993591,-0.0481276894,-0.675862911,-0.379375591
17,48278,83740,0.909,0.447,0.081,-4.9,-5,0,-5,-35.7,9.1,0.629932554,-0.0482497635,-0.675893429,-0.379436628
18,50629,83740,0.909,0.45,0.081,-5,-5.1,0.1,-5,-35.7,9.1,0.629840999,-0.0483718375,-0.675923948,-0.379528184
19,52563,83740,0.909,0.447,0.069,-5,-5.2,0.4,-5.2,-35.4,9.4,0.629749443,-0.0484939116,-0.675954466,-0.379589221
20,55040,83740,0.905,0.451,0.073,-5,-5.4,0.5,-5.2,-35.4,9.4,0.629688406,-0.0486159856,-0.675984985,-0.379650258
21,57844,83750,0.905,0.443,0.077,-5,-5.4,0.5,-5.2,-35.4,9.4,0.62959685,-0.0487380596,-0.676015503,-0.379711295
22,60040,83750,0.905,0.447,0.081,-5,-5.6,0.5,-5.2,-35.4,9.4,0.629505295,-0.0488601337,-0.676046022,-0.379772332
23,62699,83750,0.901,0.447,0.077,-5,-5.7,0.6,-5.2,-35.8,9.3,0.629413739,-0.0491042817,-0.676168096,-0.379680776
24,64790,83750,0.901,0.451,0.077,-4.9,-5.8,0.6,-5.2,-35.8,9.3,0.629352702,-0.0492568743,-0.676198614,-0.379711295
25,69245,83760,0.901,0.451,0.077,-4.6,-5.8,0.6,-5.2,-35.8,9.3,0.629261147,-0.0493484298,-0.676259651,-0.379772332
26,71489,83760,0.897,0.447,0.077,-4.4,-5.9,0.6,-5.2,-35.8,9.3,0.629169591,-0.0495010224,-0.67629017,-0.379833369
27,73911,83760,0.901,0.447,0.077,-4.3,-5.9,0.7,-5.2,-35.8,7.6,0.629078036,-0.0495925779,-0.676351207,-0.379863887
28,76164,83760,0.897,0.447,0.085,-4.2,-5.8,0.7,-5.2,-35.8,7.6,0.62898648,-0.0497146519,-0.676381726,-0.379924924
29,78597,83770,0.897,0.455,0.077,-4.1,-5.7,0.6,-5.2,-35.8,7.6,0.628925443,-0.049836726,-0.676442763,-0.379955443
30,82419,83770,0.897,0.451,0.077,-3.8,-5.5,0.5,-5.2,-35.8,7.6,0.628833888,-0.0499588,-0.676473281,-0.38001648
31,82419,83770,0.894,0.451,0.073,-3.8,-5.4,0.5,-5.2,-36,8.9,0.628742332,-0.0500503555,-0.6765038,-0.380046999
32,85076,83770,0.894,0.451,0.081,-3.7,-5.2,0.6,-5.2,-36,8.9,0.628681295,-0.0501724296,-0.676564837,-0.380108036
33,88968,83780,0.894,0.455,0.077,-3.7,-5.1,0.6,-5.2,-36,8.9,0.62858974,-0.0502639851,-0.676595355,-0.380138554
34,91353,83780,0.897,0.455,0.085,-3.7,-4.9,0.6,-5.2,-36,8.9,0.628528703,-0.0503250221,-0.676625874,-0.380169073
35,93486,83780,0.89,0.455,0.077,-3.7,-4.9,0.6,-5.2,-36.2,8.9,0.628467666,-0.0504776147,-0.676656392,-0.38023011
36,95693,83780,0.897,0.455,0.081,-3.6,-4.9,0.6,-5.2,-36.2,8.9,0.62837611,-0.0505691702,-0.676717429,-0.380260628
37,97640,83790,0.894,0.459,0.073,-3.6,-5,0.7,-5.2,-36.2,8.9,0.628315073,-0.0506607257,-0.676747948,-0.380291147
38,102241,83790,0.894,0.459,0.081,-3.6,-4.9,0.7,-5.2,-36.2,8.9,0.628254036,-0.0507827998,-0.676747948,-0.380321665
39,102724,83790,0.898,0.459,0.069,-3.6,-4.8,0.6,-5,-35.9,9.2,0.628162481,-0.0508743553,-0.676808985,-0.380382702
40,105905,83790,0.897,0.462,0.081,-3.8,-4.7,0.8,-5,-35.9,9.2,0.628101444,-0.0509659108,-0.676839503,-0.380413221
41,107569,83800,0.897,0.466,0.077,-4,-4.7,0.8,-5,-35.9,9.2,0.628040407,-0.0510574664,-0.676870022,-0.380443739
42,109921,83800,0.901,0.466,0.073,-4.2,-4.7,0.9,-5,-35.9,9.2,0.627979369,-0.0512100589,-0.67690054,-0.380504776
43,112682,83800,0.897,0.466,0.077,-4.4,-4.6,0.9,-5.4,-36.1,9.4,0.627826777,-0.0512100589,-0.676992096,-0.380596332
44,117069,83800,0.897,0.466,0.077,-4.5,-4.4,0.7,-5.4,-36.1,9.4,0.62776574,-0.0513016144,-0.677022614,-0.380657369
45,117439,83810,0.901,0.458,0.081,-4.7,-4.1,0.6,-5.4,-36.1,9.4,0.627704703,-0.0514236885,-0.677022614,-0.380718406
46,119781,83810,0.901,0.463,0.069,-4.9,-4.1,0.5,-5.4,-36.1,9.4,0.627643666,-0.0515457625,-0.677053133,-0.380779443
47,122276,83810,0.905,0.459,0.073,-5.1,-4,0.4,-5,-36.1,7,0.627582629,-0.0516678365,-0.677053133,-0.38084048
48,126956,83810,0.909,0.455,0.073,-5.5,-4,0.4,-5,-36.1,7,0.627491073,-0.0517593921,-0.677053133,-0.380901517
49,127406,83820,0.913,0.458,0.073,-5.8,-3.8,0.2,-5,-36.1,7,0.627430036,-0.0518814661,-0.677053133,-0.380993072
50,132299,83820,0.909,0.458,0.077,-6,-3.7,0.1,-5,-36.1,7,0.627368999,-0.0520035401,-0.677083651,-0.381054109
51,132733,83820,0.913,0.454,0.073,-6.1,-3.6,0.1,-5,-36,9.1,0.627338481,-0.0521256142,-0.677053133,-0.381145665
52,136006,83820,0.917,0.451,0.073,-6.3,-3.6,0.1,-5,-36,9.1,0.627277444,-0.0522476882,-0.677053133,-0.38123722
53,137881,83830,0.913,0.451,0.073,-6.3,-3.7,0.2,-5,-36,9.1,0.627216407,-0.0523697623,-0.677053133,-0.381328776
54,141281,83830,0.913,0.447,0.073,-6.3,-3.8,0.2,-5,-36,9.1,0.62715537,-0.0524918363,-0.677053133,-0.381420331
55,143484,83830,0.921,0.447,0.073,-6.3,-4,0.2,-4.9,-35.7,9.2,0.627063814,-0.0526139103,-0.677053133,-0.381481368
56,147356,83830,0.913,0.447,0.077,-6.4,-4.2,0.2,-4.9,-35.7,9.2,0.627002777,-0.0527359844,-0.677083651,-0.381572924
57,147356,83840,0.921,0.443,0.076,-6.3,-4.4,0.2,-4.9,-35.7,9.2,0.62694174,-0.0528580584,-0.677083651,-0.38166448
58,151311,83840,0.921,0.443,0.08,-6.2,-4.6,0.2,-4.9,-35.7,9.2,0.626850185,-0.053010651,-0.677083651,-0.381756035
59,153199,83840,0.921,0.443,0.073,-6.1,-4.7,0.3,-5.2,-36,8.9,0.626789148,-0.053132725,-0.67711417,-0.381817072
60,155943,83840,0.917,0.435,0.076,-6.1,-4.8,0.5,-5.2,-36,8.9,0.626728111,-0.053254799,-0.67711417,-0.381908628
61,158957,83850,0.917,0.435,0.076,-6,-5,0.7,-5.2,-36,8.9,0.626636555,-0.0534073916,-0.677144688,-0.381969665
62,161036,83850,0.917,0.439,0.077,-5.8,-5.2,0.7,-5.2,-36,8.9,0.626545,-0.0534989471,-0.677144688,-0.38206122
63,163453,83850,0.917,0.435,0.073,-5.6,-5.3,0.6,-4.9,-35.7,9,0.626575518,-0.0538956877,-0.677205725,-0.381908628
64,166975,83850,0.917,0.435,0.073,-5.4,-5.6,0.7,-4.9,-35.7,9,0.626483963,-0.0539872433,-0.677236244,-0.381969665
65,167439,83860,0.913,0.427,0.073,-5.2,-5.6,0.7,-4.9,-35.7,9,0.626392407,-0.0541703543,-0.677266762,-0.382030702
66,172184,83860,0.913,0.435,0.073,-5,-5.7,0.7,-4.9,-35.7,9,0.626300851,-0.0542924284,-0.677297281,-0.382091739
67,172493,83860,0.909,0.427,0.073,-4.9,-5.7,0.7,-5,-36.2,6.6,0.626239814,-0.0544145024,-0.677327799,-0.382152776
68,176811,83860,0.905,0.431,0.073,-4.9,-5.7,0.7,-5,-36.2,6.6,0.626148259,-0.0545365764,-0.677358318,-0.382213813
69,178947,83870,0.901,0.427,0.073,-4.7,-5.8,0.8,-5,-36.2,6.6,0.626056703,-0.0546586505,-0.677419355,-0.38227485
70,180971,83870,0.905,0.431,0.073,-4.6,-5.9,0.9,-5,-36.2,6.6,0.625965148,-0.0547807245,-0.677449873,-0.382305368
71,183774,83870,0.905,0.431,0.069,-4.4,-5.9,0.9,-5,-35.8,8.8,0.625873592,-0.0549027985,-0.677480392,-0.382366405
72,186771,83870,0.901,0.435,0.069,-4.1,-5.9,1,-5,-35.8,8.8,0.625812555,-0.0550248726,-0.677541429,-0.382396924
73,188992,83880,0.901,0.431,0.069,-3.9,-5.7,1,-5,-35.8,8.8,0.625721,-0.0551469466,-0.677571947,-0.382427442
74,191578,83880,0.901,0.435,0.069,-3.8,-5.6,1,-5,-35.8,8.8,0.625629444,-0.0552690207,-0.677632984,-0.382457961
75,193531,83880,0.898,0.435,0.069,-3.6,-5.4,1.1,-4.6,-36,8.8,0.625568407,-0.0553910947,-0.677663503,-0.382488479
76,195430,83880,0.898,0.435,0.073,-3.6,-5.3,1.1,-4.6,-36,8.8,0.62550737,-0.0554521317,-0.67772454,-0.382518998
77,198062,83890,0.901,0.435,0.077,-3.5,-5.3,1.1,-4.6,-36,8.8,0.625415815,-0.0556047243,-0.677755058,-0.382549516
78,200084,83890,0.898,0.439,0.069,-3.5,-5.2,1.1,-4.6,-36,8.8,0.625354778,-0.0556962798,-0.677785577,-0.382580035
79,202616,83890,0.898,0.439,0.073,-3.3,-5.1,1.1,-4.9,-36,8.7,0.625263222,-0.0558183538,-0.677846614,-0.382610553
80,206323,83890,0.898,0.443,0.069,-3.2,-5.1,1.2,-4.9,-36,8.7,0.625202185,-0.0559099094,-0.677877132,-0.382641072
81,208252,83900,0.898,0.443,0.069,-3,-5.1,1.1,-4.9,-36,8.7,0.625141148,-0.0560319834,-0.677907651,-0.38267159
82,211380,83900,0.898,0.439,0.069,-3,-5.1,1,-4.9,-36,8.7,0.625080111,-0.0561235389,-0.677968688,-0.382702109
83,213508,83900,0.901,0.443,0.065,-2.9,-4.9,1,-4.9,-35.8,8.2,0.624988556,-0.0562761315,-0.678029725,-0.382641072
84,215424,83900,0.901,0.447,0.065,-2.9,-4.9,1,-4.9,-35.8,8.2,0.624927519,-0.0563982055,-0.678090762,-0.38267159
85,219604,83910,0.901,0.443,0.069,-2.9,-4.9,1,-4.9,-35.8,8.2,0.624866482,-0.056489761,-0.678121281,-0.382702109
86,219976,83910,0.901,0.443,0.069,-3,-4.8,0.9,-4.9,-35.8,8.2,0.624774926,-0.0565813166,-0.678151799,-0.382732627
87,224009,83910,0.901,0.447,0.077,-3,-4.8,0.8,-5.1,-36.4,6.9,0.624713889,-0.0566728721,-0.678212836,-0.382763146
88,226213,83910,0.905,0.447,0.073,-3.2,-4.6,0.7,-5.1,-36.4,6.9,0.624652852,-0.0567644276,-0.678243355,-0.382793664
89,228479,83920,0.905,0.447,0.073,-3.3,-4.4,0.6,-5.1,-36.4,6.9,0.624591815,-0.0568559832,-0.678273873,-0.382824183
90,232017,83920,0.905,0.447,0.069,-3.5,-4.3,0.5,-5.1,-36.4,6.9,0.624530778,-0.0569170202,-0.678304392,-0.382854701
91,232378,83920,0.909,0.447,0.061,-3.6,-4.1,0.5,-5.2,-35.9,8.6,0.624469741,-0.0570390942,-0.67833491,-0.38288522
92,235955,83920,0.905,0.447,0.069,-3.7,-4.1,0.4,-5.2,-35.9,8.6,0.624408704,-0.0571306497,-0.678365429,-0.382946257
93,237777,83930,0.905,0.443,0.061,-3.8,-4.1,0.4,-5.2,-35.9,8.6,0.624347667,-0.0572222053,-0.678365429,-0.382976775
94,240634,83930,0.905,0.447,0.065,-4,-4,0.4,-5.2,-35.9,8.6,0.62428663,-0.0573137608,-0.678395947,-0.383037812
95,243519,83930,0.909,0.439,0.065,-4.1,-3.9,0.6,-4.9,-36.3,8.4,0.624225593,-0.0574053163,-0.678426466,-0.383098849
96,245387,83930,0.917,0.451,0.069,-4.2,-3.9,0.7,-4.9,-36.3,8.4,0.624164556,-0.0575273904,-0.678426466,-0.383129368
97,248828,83940,0.913,0.447,0.061,-4.3,-3.9,0.7,-4.9,-36.3,8.4,0.624103519,-0.0576189459,-0.678456984,-0.383190405
98,251019,83940,0.913,0.439,0.061,-4.3,-4,0.6,-4.9,-36.3,8.4,0.624042482,-0.0577410199,-0.678456984,-0.383220923
99,254510,83940,0.913,0.443,0.065,-4.3,-3.9,0.5,-5,-36.6,8.5,0.623981445,-0.0578325755,-0.678487503,-0.383281961
100,254884,83940,0.913,0.435,0.065,-4.3,-3.8,0.4,-5,-36.6,8.5,0.623920408,-0.0578936125,-0.678487503,-0.383342998
101,259158,83950,0.917,0.439,0.061,-4.2,-3.8,0.4,-5,-36.6,8.5,0.623859371,-0.0580156865,-0.678518021,-0.383373516
102,261417,83950,0.913,0.435,0.065,-4.1,-3.8,0.4,-5,-36.6,8.5,0.623798334,-0.058107242,-0.678518021,-0.383434553
103,263782,83950,0.921,0.439,0.069,-3.9,-3.9,0.5,-5.1,-36.4,8.3,0.623767815,-0.0583819086,-0.678640095,-0.383281961
104,265540,83950,0.921,0.439,0.069,-3.9,-3.9,0.5,-5.1,-36.4,8.3,0.623706778,-0.0584734642,-0.678640095,-0.383373516
105,268230,83960,0.917,0.431,0.069,-3.7,-4,0.6,-5.1,-36.4,8.3,0.623645741,-0.0585650197,-0.678670614,-0.383404035
106,270104,83960,0.913,0.431,0.069,-3.7,-4,0.7,-5.1,-36.4,8.3,0.623584704,-0.0586260567,-0.678701132,-0.383434553
107,274145,83960,0.917,0.427,0.065,-3.6,-3.9,0.7,-5,-36,6.9,0.623523667,-0.0587481307,-0.678731651,-0.38349559
108,276420,83960,0.913,0.431,0.069,-3.6,-3.9,0.5,-5,-36,6.9,0.62346263,-0.0588396863,-0.678731651,-0.383526109
109,278676,83970,0.917,0.427,0.057,-3.5,-3.9,0.4,-5,-36,6.9,0.623401593,-0.0589312418,-0.678762169,-0.383556627
110,280980,83970,0.917,0.427,0.065,-3.5,-3.8,0.4,-5,-36,6.9,0.623340556,-0.0590227973,-0.678792688,-0.383617664
111,283289,83970,0.913,0.431,0.069,-3.3,-3.8,0.4,-4.8,-36.1,8.6,0.623279519,-0.0591143529,-0.678823206,-0.383648183
112,285230,83970,0.913,0.427,0.073,-3.2,-3.8,0.3,-4.8,-36.1,8.6,0.623218482,-0.0591753899,-0.678823206,-0.383678701
113,287270,83980,0.913,0.423,0.065,-2.9,-3.8,0.3,-4.8,-36.1,8.6,0.623157445,-0.0592669454,-0.678853725,-0.38370922
114,290034,83980,0.909,0.427,0.065,-2.7,-3.9,0.3,-4.8,-36.1,8.6,0.623126926,-0.0593279824,-0.678884243,-0.383739738
115,292508,83980,0.913,0.419,0.065,-2.6,-3.9,0.3,-4.9,-36.1,8.7,0.623065889,-0.0594195379,-0.678914762,-0.383770257
116,295128,83980,0.909,0.419,0.065,-2.5,-3.9,0.2,-4.9,-36.1,8.7,0.623004852,-0.059480575,-0.67894528,-0.383800775
117,297750,83990,0.909,0.419,0.061,-2.4,-3.8,0.2,-4.9,-36.1,8.7,0.622943815,-0.0595721305,-0.678975799,-0.383831294
118,300501,83990,0.909,0.419,0.061,-2.2,-3.8,0.2,-4.9,-36.1,8.7,0.622882778,-0.059602649,-0.679006317,-0.383861812
119,302635,83990,0.905,0.419,0.061,-2.1,-3.9,0.3,-4.7,-36.2,8.2,0.622821741,-0.0596942045,-0.679067354,-0.383892331
120,304918,83990,0.909,0.419,0.061,-2,-3.9,0.4,-4.7,-36.2,8.2,0.622760704,-0.0597552416,-0.679097873,-0.383892331
121,309550,84000,0.909,0.427,0.065,-1.9,-4,0.6,-4.7,-36.2,8.2,0.622699667,-0.0598162786,-0.679128391,-0.383922849
122,309994,84000,0.905,0.423,0.069,-1.8,-3.9,0.9,-4.7,-36.2,8.2,0.62263863,-0.0599078341,-0.67915891,-0.383922849
123,312722,84000,0.905,0.427,0.061,-1.8,-3.7,1,-4.6,-36.3,7.9,0.622669149,-0.0602130192,-0.679250465,-0.38370922
124,315133,84000,0.905,0.431,0.057,-1.8,-3.7,1,-4.6,-36.3,7.9,0.622608112,-0.0602740562,-0.679280984,-0.383739738
125,317556,84010,0.909,0.427,0.061,-1.8,-3.5,0.9,-4.6,-36.3,7.9,0.622577593,-0.0603350932,-0.679311502,-0.383739738
126,320547,84010,0.901,0.431,0.061,-1.7,-3.3,0.9,-4.6,-36.3,7.9,0.622516556,-0.0603961303,-0.679342021,-0.383739738
127,323856,84010,0.905,0.435,0.057,-1.6,-3.2,0.8,-5,-36.2,7.4,0.622486038,-0.0604571673,-0.679372539,-0.383770257
128,326030,84010,0.905,0.439,0.065,-1.5,-2.9,0.6,-5,-36.2,7.4,0.622425001,-0.0605182043,-0.679403058,-0.383770257
129,328425,84020,0.905,0.439,0.057,-1.5,-2.7,0.6,-5,-36.2,7.4,0.622394482,-0.0605792413,-0.679403058,-0.383770257
130,330195,84020,0.905,0.447,0.065,-1.3,-2.6,0.7,-5,-36.2,7.4,0.622363964,-0.0606402783,-0.679433576,-0.383770257
131,334276,84020,0.902,0.443,0.053,-1.3,-2.4,0.8,-5.1,-36,8.7,0.622333445,-0.0606707968,-0.679464095,-0.383800775
132,336647,84020,0.909,0.447,0.057,-1.3,-2.4,0.7,-5.1,-36,8.7,0.622302927,-0.0607318339,-0.679494613,-0.383800775
133,338795,84030,0.905,0.447,0.053,-1.3,-2.2,0.5,-5.1,-36,8.7,0.622272408,-0.0607928709,-0.679494613,-0.383800775
134,340940,84030,0.909,0.451,0.053,-1.2,-2.1,0.3,-5.1,-36,8.7,0.62224189,-0.0608233894,-0.679525132,-0.383831294
135,342998,84030,0.913,0.451,0.057,-1.2,-1.9,0.3,-5,-36,8.2,0.622211371,-0.0608233894,-0.679525132,-0.383831294
136,346271,84030,0.917,0.451,0.061,-1.2,-1.8,0.1,-5,-36,8.2,0.622180853,-0.0608844264,-0.679555651,-0.383831294
137,348524,84040,0.913,0.459,0.057,-1.3,-1.7,0.1,-5,-36,8.2,0.622150334,-0.0609149449,-0.679555651,-0.383861812
138,350395,84040,0.917,0.451,0.053,-1.3,-1.6,0,-5,-36,8.2,0.622119816,-0.0609759819,-0.679586169,-0.383861812
139,354552,84040,0.925,0.447,0.057,-1.3,-1.6,0,-4.7,-36.1,7.9,0.622119816,-0.0610065004,-0.679586169,-0.383892331
140,354966,84040,0.921,0.451,0.061,-1.2,-1.6,0,-4.7,-36.1,7.9,0.622058779,-0.061037019,-0.679586169,-0.383922849
141,357491,84050,0.921,0.447,0.053,-1.2,-1.6,0,-4.7,-36.1,7.9,0.622058779,-0.061037019,-0.679616688,-0.383922849
142,362266,84050,0.921,0.447,0.061,-1.3,-1.5,-0.2,-4.7,-36.1,7.9,0.62202826,-0.0610675375,-0.679616688,-0.383953368
143,364388,84050,0.925,0.451,0.057,-1.5,-1.5,-0.4,-4.9,-36.1,7.9,0.621967223,-0.061159093,-0.679708243,-0.383892331
144,366587,84050,0.925,0.451,0.057,-1.5,-1.5,-0.4,-4.9,-36.1,7.9,0.621936705,-0.0611896115,-0.679708243,-0.383922849
145,368839,84060,0.921,0.443,0.061,-1.4,-1.5,-0.5,-4.9,-36.1,7.9,0.621906186,-0.06122013,-0.679708243,-0.383953368
146,370851,84060,0.925,0.443,0.057,-1.4,-1.5,-0.4,-4.9,-36.1,7.9,0.621875668,-0.0612506485,-0.679738762,-0.383983886
147,372980,84060,0.925,0.439,0.057,-1.3,-1.5,-0.4,-4.9,-36,7.8,0.621845149,-0.061281167,-0.679738762,-0.383983886
148,376993,84060,0.925,0.439,0.057,-1.3,-1.5,-0.4,-4.9,-36,7.8,0.621845149,-0.061281167,-0.679738762,-0.383983886
149,377365,84070,0.925,0.439,0.053,-1.2,-1.7,-0.3,-4.9,-36,7.8,0.621784112,-0.0613116855,-0.67976928,-0.384044923
150,379976,84070,0.925,0.439,0.061,-1.2,-1.7,-0.3,-4.9,-36,7.8,0.621753594,-0.0613116855,-0.67976928,-0.384075442
151,383642,84070,0.925,0.431,0.061,-1.1,-1.8,-0.4,-5.2,-36.2,7.9,0.621723075,-0.0613727226,-0.679799799,-0.384075442
152,385626,84070,0.925,0.435,0.065,-1.2,-1.9,-0.4,-5.2,-36.2,7.9,0.621692557,-0.0614032411,-0.679799799,-0.38410596
153,388092,84080,0.921,0.431,0.061,-1.3,-1.9,-0.4,-5.2,-36.2,7.9,0.621662038,-0.0614337596,-0.679830317,-0.384136479
154,390141,84080,0.921,0.431,0.065,-1.5,-1.9,-0.4,-5.2,-36.2,7.9,0.62163152,-0.0614642781,-0.679830317,-0.384166997
155,392415,84080,0.921,0.427,0.061,-1.5,-1.8,-0.3,-4.5,-36,8,0.621601001,-0.0614947966,-0.679860836,-0.384166997
156,395018,84080,0.921,0.427,0.061,-1.5,-1.8,-0.3,-4.5,-36,8,0.621601001,-0.0614947966,-0.679860836,-0.384166997
157,397295,84090,0.921,0.431,0.065,-1.3,-1.9,0.1,-4.5,-36,8,0.621539964,-0.0615558336,-0.679891354,-0.384228034
158,402014,84090,0.913,0.431,0.065,-1.2,-2.1,0.2,-4.5,-36,8,0.621509445,-0.0615558336,-0.679891354,-0.384228034
159,402472,84090,0.913,0.435,0.069,-1.2,-2.1,0.3,-5.1,-36.4,7.7,0.621478927,-0.0616473891,-0.679921873,-0.384228034
160,405083,84090,0.913,0.435,0.073,-1,-2.2,0.5,-5.1,-36.4,7.7,0.621448408,-0.0616779077,-0.679952391,-0.384228034
161,409442,84100,0.913,0.435,0.065,-0.9,-2.4,0.8,-5.1,-36.4,7.7,0.62141789,-0.0617389447,-0.679952391,-0.384228034
162,409873,84100,0.909,0.431,0.065,-0.7,-2.4,0.9,-5.1,-36.4,7.7,0.621387371,-0.0617694632,-0.67998291,-0.384228034
163,412426,84100,0.913,0.435,0.073,-0.4,-2.3,1,-4.6,-36.1,8.1,0.62141789,-0.0619525742,-0.680013428,-0.38410596
164,416926,84100,0.913,0.435,0.073,-0.4,-2.3,1,-4.6,-36.1,8.1,0.621387371,-0.0619830927,-0.680043947,-0.38410596
165,417439,84110,0.909,0.443,0.069,-0.2,-2.2,0.9,-4.6,-36.1,8.1,0.621356853,-0.0620441298,-0.680074465,-0.384075442
166,419953,84110,0.909,0.443,0.073,-0.2,-2.1,0.8,-4.6,-36.1,8.1,0.621326334,-0.0620441298,-0.680104984,-0.384075442
167,422277,84110,0.913,0.451,0.073,-0.1,-1.8,0.8,-5,-35.9,8.1,0.621326334,-0.0621051668,-0.680104984,-0.384044923
168,426784,84110,0.913,0.451,0.077,0,-1.6,0.8,-5,-35.9,8.1,0.621295816,-0.0621356853,-0.680135502,-0.384044923
169,428873,84120,0.909,0.447,0.077,0.1,-1.4,0.9,-5,-35.9,8.1,0.621295816,-0.0621356853,-0.680166021,-0.384014405
170,430887,84120,0.909,0.447,0.081,0.2,-1.4,1.1,-5,-35.9,8.1,0.621265297,-0.0621662038,-0.680166021,-0.384014405
171,433279,84120,0.909,0.455,0.073,0.3,-1.3,1.1,-5,-36.3,8.4,0.621265297,-0.0621967223,-0.680196539,-0.383983886
172,435115,84120,0.905,0.455,0.073,0.6,-1.3,0.9,-5,-36.3,8.4,0.621234779,-0.0622272408,-0.680227058,-0.383953368
173,439302,84130,0.909,0.455,0.073,0.8,-1.2,0.9,-5,-36.3,8.4,0.621234779,-0.0622272408,-0.680257576,-0.383922849
174,441557,84130,0.913,0.458,0.077,0.9,-1.1,0.8,-5,-36.3,8.4,0.621234779,-0.0622272408,-0.680257576,-0.383892331
175,443747,84130,0.909,0.458,0.073,0.9,-1.2,0.9,-5.3,-36.1,7.8,0.62120426,-0.0622577593,-0.680288095,-0.383892331
176,446008,84130,0.901,0.462,0.073,0.9,-1.2,0.9,-5.3,-36.1,7.8,0.62120426,-0.0622577593,-0.680318613,-0.383861812
177,448086,84140,0.909,0.458,0.073,0.9,-1.3,1,-5.3,-36.1,7.8,0.62120426,-0.0622882778,-0.680349132,-0.383831294
178,450179,84140,0.905,0.458,0.077,0.8,-1.2,1,-5.3,-36.1,7.8,0.62120426,-0.0622882778,-0.680349132,-0.383800775
179,452505,84140,0.905,0.459,0.073,0.6,-1.1,0.9,-5.1,-36.1,8.2,0.621173742,-0.0622882778,-0.68037965,-0.383770257
180,455126,84140,0.905,0.459,0.069,0.4,-1.1,0.9,-5.1,-36.1,8.2,0.621173742,-0.0622882778,-0.680410169,-0.383739738
181,457951,84150,0.901,0.459,0.073,0.3,-1.2,1,-5.1,-36.1,8.2,0.621173742,-0.0623493149,-0.680410169,-0.38370922
182,462111,84150,0.905,0.459,0.073,0,-1.3,1.2,-5.1,-36.1,8.2,0.621143223,-0.0623798334,-0.680440687,-0.38370922
183,462479,84150,0.901,0.459,0.073,-0.3,-1.2,1.5,-5.3,-35.9,7.8,0.621143223,-0.0622882778,-0.680410169,-0.383800775
184,466255,84150,0.901,0.455,0.069,-0.3,-1.2,1.5,-5.3,-35.9,7.8,0.621143223,-0.0623493149,-0.680410169,-0.383770257
185,468615,84160,0.905,0.455,0.077,-0.4,-1.1,1.5,-5.3,-35.9,7.8,0.621143223,-0.0623798334,-0.680440687,-0.383739738
186,470829,84160,0.905,0.458,0.077,-0.5,-1.1,1.4,-5.3,-35.9,7.8,0.621112705,-0.0624103519,-0.680440687,-0.383739738
187,472841,84160,0.901,0.455,0.073,-0.7,-1.1,1.3,-5,-35.9,8.3,0.621112705,-0.0624713889,-0.680440687,-0.383739738
188,475042,84160,0.905,0.458,0.077,-0.9,-1,1.2,-5,-35.9,8.3,0.621112705,-0.0625019074,-0.680440687,-0.383739738
189,477682,84170,0.909,0.458,0.081,-1.1,-0.9,1.1,-5,-35.9,8.3,0.621112705,-0.0625324259,-0.680440687,-0.383739738
190,479803,84170,0.901,0.458,0.081,-1.2,-0.8,1,-5,-35.9,8.3,0.621112705,-0.0625934629,-0.680440687,-0.383739738
191,484074,84170,0.905,0.458,0.085,-1.4,-0.8,0.9,-4.7,-36.2,8.2,0.621082186,-0.0625934629,-0.680440687,-0.383739738
192,486227,84170,0.905,0.458,0.081,-1.5,-0.8,0.9,-4.7,-36.2,8.2,0.621082186,-0.0626545,-0.680440687,-0.383739738
193,488424,84180,0.909,0.454,0.081,-1.7,-0.6,0.9,-4.7,-36.2,8.2,0.621082186,-0.062715537,-0.680440687,-0.383770257
194,491431,84180,0.909,0.454,0.081,-1.9,-0.4,0.8,-4.7,-36.2,8.2,0.621082186,-0.0627460555,-0.680440687,-0.383770257
195,493615,84180,0.909,0.454,0.077,-2,-0.2,0.6,-4.2,-36,8.1,0.621082186,-0.0628070925,-0.680410169,-0.383800775
196,495835,84180,0.909,0.451,0.077,-2.1,-0.2,0.5,-4.2,-36,8.1,0.621082186,-0.062837611,-0.680410169,-0.383831294
197,497816,84190,0.909,0.45,0.081,-2.2,-0.3,0.3,-4.2,-36,8.1,0.621082186,-0.0628681295,-0.68037965,-0.383861812
198,500920,84190,0.909,0.451,0.073,-2.3,-0.3,0.2,-4.2,-36,8.1,0.621082186,-0.062898648,-0.68037965,-0.383892331
199,503364,84190,0.905,0.443,0.073,-2.4,-0.3,0.1,-4.6,-35.9,8.1,0.621051668,-0.062959685,-0.680349132,-0.383922849
200,505541,84190,0.909,0.447,0.081,-2.5,-0.2,0.1,-4.6,-35.9,8.1,0.621051668,-0.0629902036,-0.680318613,-0.383953368
201,508747,84200,0.913,0.447,0.077,-2.6,-0.2,0,-4.6,-35.9,8.1,0.621051668,-0.0630207221,-0.680318613,-0.383983886
202,511160,84200,0.913,0.443,0.077,-2.7,0,0,-4.6,-35.9,8.1,0.621051668,-0.0630512406,-0.680288095,-0.384044923
203,514179,84200,0.909,0.447,0.069,-2.9,0,0.1,-4.4,-36.3,8.4,0.621173742,-0.0631733146,-0.680135502,-0.384075442
204,517091,84200,0.909,0.447,0.069,-2.9,0,0.1,-4.4,-36.3,8.4,0.621173742,-0.0632038331,-0.680104984,-0.38410596
205,517547,84210,0.913,0.443,0.077,-2.8,0,0.2,-4.4,-36.3,8.4,0.621173742,-0.0632648701,-0.680074465,-0.384136479
206,520940,84210,0.909,0.439,0.073,-2.7,-0.1,0.3,-4.4,-36.3,8.4,0.621173742,-0.0632953887,-0.680074465,-0.384197516
207,523784,84210,0.917,0.443,0.073,-2.6,-0.1,0.3,-4.9,-36.1,8.2,0.621173742,-0.0633564257,-0.680043947,-0.384228034
208,526190,84210,0.913,0.451,0.069,-2.6,-0.1,0.4,-4.9,-36.1,8.2,0.621173742,-0.0633869442,-0.680013428,-0.384258553
209,529014,84220,0.913,0.451,0.077,-2.6,0,0.4,-4.9,-36.1,8.2,0.621173742,-0.0634174627,-0.680013428,-0.384289071
210,530849,84220,0.909,0.443,0.073,-2.6,0,0.4,-4.9,-36.1,8.2,0.621173742,-0.0634784997,-0.67998291,-0.38431959
211,533495,84220,0.913,0.447,0.065,-2.7,0,0.4,-4.7,-36,8.3,0.621173742,-0.0635090182,-0.679952391,-0.384350108
212,535350,84220,0.909,0.451,0.069,-2.8,0,0.5,-4.7,-36,8.3,0.621173742,-0.0635700552,-0.679921873,-0.384380627
213,539409,84230,0.913,0.451,0.069,-2.8,0,0.7,-4.7,-36,8.3,0.621173742,-0.0635700552,-0.679891354,-0.384411145
214,539869,84230,0.909,0.451,0.065,-2.7,0,0.7,-4.7,-36,8.3,0.621173742,-0.0636616108,-0.679891354,-0.384441664
215,542408,84230,0.909,0.455,0.073,-2.6,-0.1,0.7,-4.6,-36,7.9,0.621173742,-0.0637226478,-0.679860836,-0.384472182
216,546941,84230,0.905,0.459,0.069,-2.4,-0.3,0.5,-4.6,-36,7.9,0.621173742,-0.0637531663,-0.679830317,-0.384502701
217,547471,84240,0.905,0.47,0.073,-2.3,-0.5,0.5,-4.6,-36,7.9,0.621173742,-0.0637836848,-0.679830317,-0.384533219
218,549871,84240,0.901,0.47,0.065,-2.3,-0.6,0.6,-4.6,-36,7.9,0.621143223,-0.0638447218,-0.679830317,-0.384563738
219,554355,84240,0.901,0.466,0.077,-2.2,-0.7,0.7,-4.8,-35.7,8.2,0.621143223,-0.0639057588,-0.679799799,-0.384594256
220,556661,84240,0.897,0.466,0.073,-2.2,-0.7,0.7,-4.8,-35.7,8.2,0.621143223,-0.0639362774,-0.679799799,-0.384594256
221,558774,84250,0.897,0.466,0.073,-2.3,-0.7,0.7,-4.8,-35.7,8.2,0.621143223,-0.0639973144,-0.679799799,-0.384624775
222,560974,84250,0.901,0.466,0.073,-2.4,-0.6,0.7,-4.8,-35.7,8.2,0.621112705,-0.0640278329,-0.67976928,-0.384655293
223,563482,84250,0.898,0.467,0.069,-2.9,-0.3,0.9,-5,-35.8,8.2,0.621051668,-0.0638447218,-0.679708243,-0.384899442
224,565533,84250,0.898,0.467,0.069,-2.9,-0.3,0.9,-5,-35.8,8.2,0.621051668,-0.0639057588,-0.679677725,-0.38492996
225,567571,84260,0.894,0.471,0.066,-3.1,-0.2,0.9,-5,-35.8,8.2,0.621051668,-0.0639667959,-0.679677725,-0.384960479
226,569849,84260,0.897,0.474,0.073,-3.3,0,0.7,-5,-35.8,8.2,0.621051668,-0.0640278329,-0.679647206,-0.385021516
227,572384,84260,0.894,0.467,0.069,-3.6,0,0.5,-5.1,-36.2,8.1,0.621051668,-0.0640583514,-0.679616688,-0.385052034
228,576895,84260,0.897,0.474,0.073,-3.8,0.2,0.6,-5.1,-36.2,8.1,0.621051668,-0.0641499069,-0.679555651,-0.385113071
229,579093,84270,0.898,0.467,0.069,-4,0.3,0.7,-5.1,-36.2,8.1,0.621051668,-0.0642109439,-0.679525132,-0.385174108
230,581258,84270,0.89,0.467,0.073,-4.2,0.2,0.9,-5.1,-36.2,8.1,0.621082186,-0.064271981,-0.679494613,-0.385204627
231,583254,84270,0.894,0.466,0.077,-4.4,0.2,1,-5.1,-36.2,8,0.621082186,-0.064333018,-0.679433576,-0.385235145
232,585747,84270,0.894,0.466,0.073,-4.6,0.2,1.1,-5.1,-36.2,8,0.621082186,-0.0644245735,-0.679403058,-0.385326701
233,587794,84280,0.89,0.462,0.081,-4.8,0.3,1,-5.1,-36.2,8,0.621082186,-0.0644856105,-0.679342021,-0.385387738
234,590036,84280,0.89,0.463,0.073,-5,0.3,0.9,-5.1,-36.2,8,0.621082186,-0.0645466475,-0.679311502,-0.385448775
235,593263,84280,0.894,0.463,0.073,-5.2,0.3,0.7,-5,-36,8.2,0.621112705,-0.0646687216,-0.679250465,-0.385509812
236,595293,84280,0.894,0.463,0.073,-5.4,0.4,0.7,-5,-36,8.2,0.621112705,-0.0647297586,-0.679189428,-0.385570849
237,597755,84290,0.898,0.463,0.065,-5.5,0.4,0.7,-5,-36,8.2,0.621112705,-0.0648213141,-0.67915891,-0.385662404
238,599788,84290,0.898,0.459,0.069,-5.7,0.4,0.6,-5,-36,8.2,0.621112705,-0.0649128697,-0.679097873,-0.385723441
239,602867,84290,0.898,0.459,0.065,-5.8,0.5,0.5,-5.1,-35.9,7.9,0.621112705,-0.0649739067,-0.679036836,-0.385814997
240,606642,84290,0.901,0.459,0.069,-6,0.6,0.3,-5.1,-35.9,7.9,0.621112705,-0.0650349437,-0.678975799,-0.385876034
241,607371,84300,0.901,0.462,0.073,-6.1,0.8,0.3,-5.1,-35.9,7.9,0.621143223,-0.0651570177,-0.678914762,-0.385967589
242,610135,84300,0.905,0.459,0.069,-6.2,1,0.3,-5.1,-35.9,7.9,0.621143223,-0.0652180548,-0.678853725,-0.386059145
243,614075,84300,0.901,0.459,0.065,-6.6,1.2,0.5,-5.3,-35.7,8.2,0.621082186,-0.0651875362,-0.678792688,-0.386272774
244,616374,84300,0.901,0.459,0.065,-6.6,1.2,0.5,-5.3,-35.7,8.2,0.621082186,-0.0652790918,-0.678731651,-0.38636433
245,618527,84310,0.905,0.459,0.069,-6.8,1.2,0.5,-5.3,-35.7,8.2,0.621082186,-0.0653706473,-0.678670614,-0.386455885
246,620706,84310,0.905,0.455,0.069,-6.9,1.2,0.5,-5.3,-35.7,8.2,0.621112705,-0.0654622028,-0.678579058,-0.386547441
247,623127,84310,0.909,0.462,0.065,-7.1,1.3,0.4,-5.1,-36.1,7.8,0.621112705,-0.0655232398,-0.678487503,-0.386638997
248,626843,84310,0.909,0.459,0.065,-7.2,1.2,0.3,-5.1,-36.1,7.8,0.621143223,-0.0656453139,-0.678426466,-0.386761071
249,629239,84320,0.909,0.459,0.065,-7.2,1.1,0.1,-5.1,-36.1,7.8,0.621143223,-0.0657368694,-0.67833491,-0.386852626
250,631557,84320,0.909,0.455,0.061,-7.2,1.1,0,-5.1,-36.1,7.8,0.621143223,-0.0658284249,-0.678273873,-0.3869747
251,633359,84320,0.913,0.455,0.061,-7.4,1.1,0,-5,-36.4,7.9,0.621143223,-0.0659199805,-0.678182318,-0.387066256
252,635909,84320,0.913,0.451,0.065,-7.4,1.1,-0.1,-5,-36.4,7.9,0.621173742,-0.0659810175,-0.678121281,-0.38718833
253,638115,84330,0.913,0.451,0.065,-7.5,1.1,-0.1,-5,-36.4,7.9,0.621173742,-0.066072573,-0.678029725,-0.387310404
254,640099,84330,0.917,0.451,0.065,-7.5,1.1,-0.1,-5,-36.4,7.9,0.621173742,-0.0661641285,-0.677938169,-0.387432478
255,642369,84330,0.913,0.447,0.061,-7.6,0.9,0,-4.8,-36.4,8.1,0.621173742,-0.0662862026,-0.677877132,-0.387524033
256,645262,84330,0.913,0.443,0.065,-7.7,0.9,0,-4.8,-36.4,8.1,0.621173742,-0.0663777581,-0.677785577,-0.387646107
257,647214,84340,0.913,0.439,0.057,-7.7,0.9,0.1,-4.8,-36.4,8.1,0.621173742,-0.0664693136,-0.67772454,-0.387768181
258,650909,84340,0.913,0.443,0.061,-7.7,1,0,-4.8,-36.4,8.1,0.621173742,-0.0665608692,-0.677632984,-0.387890255
259,652907,84340,0.917,0.435,0.061,-7.7,1,-0.1,-4.9,-36.1,7.9,0.621173742,-0.0666524247,-0.677571947,-0.388012329
260,655089,84340,0.921,0.431,0.061,-7.8,0.9,-0.3,-4.9,-36.1,7.9,0.621173742,-0.0667439802,-0.677480392,-0.388134404
261,659262,84350,0.917,0.435,0.061,-7.8,0.8,-0.5,-4.9,-36.1,7.9,0.621173742,-0.0668355358,-0.677388836,-0.388256478
262,661370,84350,0.913,0.427,0.069,-7.8,0.7,-0.7,-4.9,-36.1,7.9,0.621173742,-0.0669270913,-0.677327799,-0.388378552
263,663671,84350,0.913,0.427,0.065,-7.7,0.7,-0.5,-5.1,-36.5,8.2,0.621173742,-0.0672322764,-0.677358318,-0.388286996
264,665543,84350,0.913,0.427,0.065,-7.7,0.7,-0.5,-5.1,-36.5,8.2,0.621143223,-0.0673238319,-0.677297281,-0.38840907
265,667388,84360,0.909,0.427,0.061,-7.6,0.5,-0.4,-5.1,-36.5,8.2,0.621143223,-0.0674153874,-0.677205725,-0.388531144
266,671192,84360,0.909,0.431,0.065,-7.5,0.4,-0.4,-5.1,-36.5,8.2,0.621143223,-0.0674764245,-0.677144688,-0.388653218
267,673507,84360,0.909,0.435,0.065,-7.4,0.4,-0.4,-5.4,-36.2,7.7,0.621143223,-0.0675984985,-0.677083651,-0.388744774
268,675767,84360,0.909,0.431,0.069,-7.3,0.3,-0.3,-5.4,-36.2,7.7,0.621112705,-0.067690054,-0.677022614,-0.388866848
269,677722,84370,0.905,0.431,0.069,-7.2,0.2,-0.1,-5.4,-36.2,7.7,0.621112705,-0.0677816095,-0.676961577,-0.388988922
270,679899,84370,0.901,0.435,0.069,-7,0,0,-5.4,-36.2,7.7,0.621112705,-0.0678731651,-0.67690054,-0.389080477
271,682512,84370,0.898,0.435,0.069,-6.8,0,0,-4.4,-36.3,8,0.621082186,-0.0679647206,-0.676839503,-0.389141514
272,685413,84370,0.898,0.439,0.073,-6.6,0,0,-4.4,-36.3,8,0.621082186,-0.0680562761,-0.676747948,-0.389294107
273,689199,84380,0.898,0.431,0.077,-6.4,0,0.1,-4.4,-36.3,8,0.621082186,-0.0681478317,-0.676717429,-0.389385662
274,691835,84380,0.894,0.431,0.077,-6.3,0,0.1,-4.4,-36.3,8,0.621082186,-0.0682393872,-0.676656392,-0.389477218
275,697488,84380,0.894,0.439,0.073,-6.2,0,0.2,-4.4,-36.1,7.7,0.621051668,-0.0683309427,-0.676625874,-0.389568773
276,697488,84380,0.897,0.439,0.077,-6,0,0.3,-4.4,-36.1,7.7,0.621051668,-0.0684224982,-0.676564837,-0.38962981
277,697488,84390,0.89,0.443,0.081,-5.7,-0.1,0.3,-4.4,-36.1,7.7,0.621051668,-0.0685140538,-0.6765038,-0.389721366
278,701221,84390,0.886,0.439,0.081,-5.4,0,0.1,-4.4,-36.1,7.7,0.621051668,-0.0685750908,-0.676473281,-0.389782403
279,703727,84390,0.886,0.439,0.081,-5.4,0,0.1,-4.4,-36.1,7.7,0.621051668,-0.0685750908,-0.676473281,-0.389782403
280,706392,84390,0.886,0.447,0.077,-4.9,0,0,-4.4,-36.1,7.8,0.621021149,-0.0687276833,-0.676381726,-0.389934996
281,708669,84400,0.89,0.443,0.081,-4.7,0,0,-4.4,-36.1,7.8,0.621021149,-0.0687887204,-0.676351207,-0.390026551
282,710906,84400,0.89,0.447,0.085,-4.4,0,0.1,-4.4,-36.1,7.8,0.621021149,-0.0688497574,-0.676320688,-0.390087588
283,712862,84400,0.89,0.447,0.085,-4.1,-0.3,0.3,-4.5,-36.3,7.6,0.621021149,-0.0688497574,-0.676229133,-0.390179144
284,715190,84400,0.886,0.443,0.089,-4.1,-0.3,0.3,-4.5,-36.3,7.6,0.620990631,-0.0689413129,-0.676198614,-0.390240181
285,717413,84410,0.89,0.443,0.089,-4,-0.5,0.2,-4.5,-36.3,7.6,0.620990631,-0.0690023499,-0.676198614,-0.390301218
286,722331,84410,0.89,0.447,0.093,-4,-0.7,0.3,-4.5,-36.3,7.6,0.620960112,-0.0690633869,-0.676168096,-0.390362255
287,722331,84410,0.886,0.443,0.093,-3.8,-1,0.4,-5.4,-36.6,7.3,0.620960112,-0.069124424,-0.676137577,-0.390392773
288,727354,84410,0.886,0.443,0.093,-3.7,-1,0.5,-5.4,-36.6,7.3,0.620929594,-0.069185461,-0.676137577,-0.39045381
289,727354,84420,0.89,0.447,0.089,-3.7,-1,0.7,-5.4,-36.6,7.3,0.620929594,-0.0692770165,-0.676107059,-0.390484329
290,731005,84420,0.89,0.443,0.093,-3.8,-0.9,0.7,-5.4,-36.6,7.3,0.620899075,-0.0693380535,-0.67607654,-0.390545366
291,733537,84420,0.89,0.443,0.101,-4,-0.9,0.8,-4.7,-36.4,7.5,0.620899075,-0.0693990905,-0.676046022,-0.390575884
292,735415,84420,0.89,0.443,0.097,-4.2,-1,0.8,-4.7,-36.4,7.5,0.620868557,-0.0694906461,-0.676046022,-0.390636921
293,737642,84430,0.886,0.439,0.097,-4.4,-1,0.9,-4.7,-36.4,7.5,0.620868557,-0.0695822016,-0.676015503,-0.390697958
294,739925,84430,0.89,0.435,0.097,-4.5,-1.2,1,-4.7,-36.4,7.5,0.620838038,-0.0696737571,-0.675984985,-0.390728477
295,742336,84430,0.89,0.435,0.093,-4.6,-1.3,1.1,-4.7,-36.9,7.5,0.620838038,-0.0697653127,-0.675954466,-0.390789514
296,746842,84430,0.894,0.435,0.089,-4.7,-1.5,1.1,-4.7,-36.9,7.5,0.62080752,-0.0698568682,-0.675954466,-0.390850551
297,749078,84440,0.893,0.435,0.1,-4.7,-1.7,1.2,-4.7,-36.9,7.5,0.620777001,-0.0699179052,-0.675923948,-0.390881069
298,750876,84440,0.894,0.431,0.1,-4.9,-1.9,1.3,-4.7,-36.9,7.5,0.620777001,-0.0700399792,-0.675893429,-0.390942106
299,753265,84440,0.894,0.427,0.096,-5,-2.1,1.6,-4.5,-36.4,7.8,0.620746483,-0.0701620533,-0.675893429,-0.391003143
300,755179,84440,0.894,0.427,0.1,-5.1,-2.2,1.7,-4.5,-36.4,7.8,0.620715964,-0.0702841273,-0.675862911,-0.391033662
301,757488,84450,0.897,0.427,0.096,-5.2,-2.3,1.8,-4.5,-36.4,7.8,0.620685446,-0.0704062014,-0.675862911,-0.391094699
302,760014,84450,0.897,0.423,0.1,-5.2,-2.4,1.9,-4.5,-36.4,7.8,0.620654927,-0.0705282754,-0.675832392,-0.391094699
303,762484,84450,0.897,0.427,0.096,-5.2,-2.6,2,-4.4,-36.3,7.8,0.620990631,-0.070802942,-0.67546617,-0.391186254
304,766434,84450,0.897,0.423,0.096,-5.2,-2.6,2,-4.4,-36.3,7.8,0.620960112,-0.0708944975,-0.67546617,-0.391247291
305,768634,84460,0.901,0.423,0.088,-5.2,-2.9,2.1,-4.4,-36.3,7.8,0.620929594,-0.0710470901,-0.67546617,-0.39127781
306,770927,84460,0.897,0.427,0.096,-5.2,-3.2,2.2,-4.4,-36.3,7.8,0.620899075,-0.0711996826,-0.675435652,-0.391308329
307,773219,84460,0.897,0.427,0.1,-5.2,-3.4,2.3,-5.7,-36.5,7.3,0.620868557,-0.0713217566,-0.675435652,-0.391369366
308,776985,84460,0.897,0.431,0.096,-5.2,-3.6,2.4,-5.7,-36.5,7.3,0.62080752,-0.0714743492,-0.675435652,-0.391399884
309,777258,84470,0.901,0.435,0.096,-5.1,-3.6,2.5,-5.7,-36.5,7.3,0.620777001,-0.0715964232,-0.67546617,-0.391430403
310,781534,84470,0.901,0.427,0.1,-4.8,-3.7,2.6,-5.7,-36.5,7.3,0.620746483,-0.0717490158,-0.67546617,-0.391460921
311,783759,84470,0.897,0.435,0.096,-4.6,-3.8,2.7,-4.1,-36.3,7.2,0.620685446,-0.0718710898,-0.67546617,-0.39149144
312,785930,84470,0.901,0.439,0.096,-4.3,-3.9,2.9,-4.1,-36.3,7.2,0.620654927,-0.0720236824,-0.67546617,-0.391521958
313,788242,84480,0.901,0.442,0.1,-4.1,-3.9,3.1,-4.1,-36.3,7.2,0.620624409,-0.0721457564,-0.675496689,-0.391521958
314,790292,84480,0.905,0.439,0.096,-3.8,-3.9,3.2,-4.1,-36.3,7.2,0.62059389,-0.0722678304,-0.675496689,-0.391521958
315,792652,84480,0.905,0.443,0.092,-3.5,-3.9,3.2,-4.4,-36.3,7.1,0.620532853,-0.072420423,-0.675527207,-0.391521958
316,794721,84480,0.909,0.446,0.092,-3.2,-3.9,3.2,-4.4,-36.3,7.1,0.620502335,-0.072542497,-0.675557726,-0.391521958
317,798718,84490,0.905,0.443,0.092,-2.9,-3.8,3.2,-4.4,-36.3,7.1,0.620471816,-0.0726645711,-0.675557726,-0.391521958
318,800938,84490,0.905,0.446,0.1,-2.6,-3.8,3.3,-4.4,-36.3,7.1,0.620441298,-0.0727866451,-0.675588244,-0.39149144
319,803252,84490,0.905,0.45,0.1,-2.4,-3.6,3.2,-4.2,-36.1,7.3,0.620410779,-0.0728476821,-0.675618763,-0.39149144
320,805469,84490,0.913,0.454,0.096,-2.2,-3.4,3.2,-4.2,-36.1,7.3,0.620380261,-0.0730002747,-0.675649281,-0.391460921
321,807491,84500,0.913,0.454,0.089,-2.1,-3.3,2.9,-4.2,-36.1,7.3,0.620349742,-0.0730918302,-0.675649281,-0.391460921
322,810069,84500,0.917,0.454,0.092,-2,-3,2.7,-4.2,-36.1,7.3,0.620349742,-0.0731833857,-0.6756798,-0.391460921
323,813690,84500,0.921,0.458,0.088,-1.9,-2.6,2.5,-4.5,-36.2,7.4,0.620349742,-0.0732139042,-0.675618763,-0.391521958
324,816181,84500,0.921,0.458,0.088,-1.9,-2.6,2.5,-4.5,-36.2,7.4,0.620349742,-0.0733054598,-0.675618763,-0.391521958
325,818318,84510,0.921,0.462,0.088,-2.1,-2.5,2.7,-4.5,-36.2,7.4,0.620319224,-0.0733970153,-0.675649281,-0.39149144
326,820239,84510,0.921,0.458,0.088,-2.2,-2.3,2.7,-4.5,-36.2,7.4,0.620319224,-0.0734885708,-0.675649281,-0.39149144
327,823570,84510,0.925,0.45,0.088,-2.4,-2.1,2.7,-6,-36.2,7.2,0.620288705,-0.0735801263,-0.675649281,-0.39149144
328,825785,84510,0.925,0.458,0.088,-2.6,-2,2.5,-6,-36.2,7.2,0.620288705,-0.0736716819,-0.675649281,-0.39149144
329,827896,84520,0.929,0.446,0.088,-2.7,-1.9,2.3,-6,-36.2,7.2,0.620258187,-0.0737632374,-0.675649281,-0.39149144
330,830307,84520,0.925,0.45,0.088,-3,-1.8,2.3,-6,-36.2,7.2,0.620258187,-0.0738242744,-0.675649281,-0.39149144
331,832410,84520,0.929,0.45,0.092,-3.4,-1.7,2.1,-4,-36.1,7.4,0.620258187,-0.0739463485,-0.675649281,-0.391521958
332,834821,84520,0.929,0.446,0.088,-3.7,-1.6,2.1,-4,-36.1,7.4,0.620227668,-0.074037904,-0.675618763,-0.391552477
333,839249,84530,0.929,0.435,0.084,-3.9,-1.7,2.1,-4,-36.1,7.4,0.620227668,-0.0741294595,-0.675618763,-0.391582995
334,841666,84530,0.929,0.434,0.088,-4.1,-1.8,2.2,-4,-36.1,7.4,0.62019715,-0.0742515336,-0.675588244,-0.391613514
335,843783,84530,0.925,0.434,0.088,-4.3,-2,2.3,-4.1,-36.2,7.4,0.62019715,-0.0743736076,-0.675588244,-0.391613514
336,846087,84530,0.925,0.427,0.088,-4.5,-2.2,2.3,-4.1,-36.2,7.4,0.620166631,-0.0744651631,-0.675557726,-0.391674551
337,848028,84540,0.925,0.423,0.092,-4.7,-2.3,2.3,-4.1,-36.2,7.4,0.620136113,-0.0745872372,-0.675557726,-0.391705069
338,850555,84540,0.917,0.423,0.092,-4.9,-2.4,2.3,-4.1,-36.2,7.4,0.620105594,-0.0747093112,-0.675557726,-0.391735588
339,852489,84540,0.921,0.423,0.092,-5.1,-2.5,2.4,-4,-36.4,7.5,0.620105594,-0.0748008667,-0.675527207,-0.391766106
340,856600,84540,0.913,0.419,0.088,-5.4,-2.7,2.5,-4,-36.4,7.5,0.620075076,-0.0749839778,-0.675527207,-0.391796625
341,858936,84550,0.905,0.419,0.096,-5.6,-2.8,2.6,-4,-36.4,7.5,0.620044557,-0.0751060518,-0.675496689,-0.391857662
342,861302,84550,0.901,0.419,0.096,-5.9,-3,2.7,-4,-36.4,7.5,0.620014039,-0.0752586444,-0.675496689,-0.39188818
343,863316,84550,0.897,0.419,0.092,-6.3,-3.1,2.8,-4,-36.1,7.6,0.620075076,-0.0755027924,-0.675374615,-0.391918699
344,865803,84550,0.89,0.419,0.088,-6.3,-3.3,2.7,-4,-36.1,7.6,0.620044557,-0.075655385,-0.675374615,-0.391979736
345,867813,84560,0.886,0.427,0.089,-6.3,-3.3,2.7,-4,-36.1,7.6,0.620014039,-0.075777459,-0.675344096,-0.392010254
346,870125,84560,0.886,0.427,0.081,-6.4,-3.5,2.6,-4,-36.1,7.6,0.61998352,-0.0759910886,-0.675344096,-0.392071291
347,872325,84560,0.878,0.423,0.089,-6.8,-3.9,2.7,-5.8,-36.8,7.3,0.619922483,-0.0761436811,-0.675313578,-0.392132328
348,877143,84560,0.878,0.423,0.089,-6.8,-3.9,2.7,-5.8,-36.8,7.3,0.619922483,-0.0761436811,-0.675313578,-0.392132328
349,877324,84570,0.878,0.427,0.093,-8.8,-4.5,2.7,-5.8,-36.8,7.3,0.619830927,-0.0765404218,-0.675313578,-0.392284921
350,880811,84570,0.874,0.431,0.093,-9.7,-4.5,2.3,-5.8,-36.8,7.3,0.61976989,-0.0767235328,-0.675283059,-0.392376476
351,884478,84570,0.874,0.427,0.101,-10.4,-4.2,1.8,-3.9,-36.4,6.8,0.619678335,-0.0769371624,-0.675252541,-0.39249855
352,886743,84570,0.874,0.423,0.104,-10.7,-4,1.2,-3.9,-36.4,6.8,0.619617298,-0.0771202734,-0.675191504,-0.392651143
353,889017,84580,0.87,0.419,0.108,-10.7,-3.8,0.8,-3.9,-36.4,6.8,0.619556261,-0.077333903,-0.675160985,-0.392773217
354,891167,84580,0.866,0.415,0.108,-10.3,-3.7,0.5,-3.9,-36.4,6.8,0.619495224,-0.0775170141,-0.675130467,-0.39292581
355,893223,84580,0.862,0.419,0.105,-9.7,-3.5,0.4,-3.9,-36.2,7.3,0.619434187,-0.0776696066,-0.67506943,-0.393047884
356,895713,84580,0.866,0.415,0.108,-8.8,-3.4,0.3,-3.9,-36.2,7.3,0.61937315,-0.0778221992,-0.675038911,-0.393169958
357,897800,84590,0.858,0.423,0.101,-7.5,-3.2,0.2,-3.9,-36.2,7.3,0.619312113,-0.0779747917,-0.675038911,-0.393261513
358,900015,84590,0.866,0.419,0.105,-6,-2.9,0.3,-3.9,-36.2,7.3,0.619251076,-0.0780663472,-0.675008393,-0.393353069
359,902600,84590,0.862,0.427,0.097,-4.4,-2.7,0.5,-3.8,-36.3,6.8,0.619220557,-0.0781579028,-0.675008393,-0.393414106
360,906061,84590,0.866,0.427,0.097,-3.2,-2.6,0.8,-3.8,-36.3,6.8,0.61915952,-0.0782189398,-0.675008393,-0.393444624
361,907569,84600,0.862,0.427,0.093,-2.2,-2.7,1,-3.8,-36.3,6.8,0.619129002,-0.0783104953,-0.675038911,-0.393444624
362,912286,84600,0.862,0.431,0.089,-1.7,-2.8,1.1,-3.8,-36.3,6.8,0.619098483,-0.0783715323,-0.67506943,-0.393444624
363,912286,84600,0.866,0.431,0.093,-1.8,-3.3,0.8,-3.8,-36,7.3,0.619098483,-0.0783715323,-0.675008393,-0.393566698
364,915146,84600,0.866,0.431,0.093,-2.1,-3.5,0.6,-3.8,-36,7.3,0.619037446,-0.0784325694,-0.675038911,-0.393566698
365,918995,84610,0.866,0.435,0.089,-2.4,-3.8,0.5,-3.8,-36,7.3,0.618976409,-0.0785241249,-0.67506943,-0.393597217
366,921327,84610,0.866,0.435,0.093,-2.7,-4,0.6,-3.8,-36,7.3,0.618915372,-0.0786156804,-0.675099948,-0.393627735
367,923462,84610,0.87,0.435,0.093,-2.9,-4.3,0.9,-5.9,-36.3,7.2,0.618854335,-0.0787072359,-0.675130467,-0.393627735
368,926282,84610,0.87,0.439,0.089,-2.9,-4.8,1.2,-5.9,-36.3,7.2,0.618793298,-0.0787987915,-0.675160985,-0.393658254
369,927775,84620,0.87,0.443,0.089,-2.7,-5,1.5,-5.9,-36.3,7.2,0.618732261,-0.078890347,-0.675222022,-0.393658254
370,930117,84620,0.87,0.443,0.097,-2.4,-5.3,1.5,-5.9,-36.3,7.2,0.618671224,-0.0789819025,-0.675252541,-0.393688772
371,933233,84620,0.866,0.443,0.089,-2.2,-5.5,1.3,-4.3,-36.5,7,0.618579669,-0.0791039766,-0.675313578,-0.393688772
372,935365,84620,0.874,0.443,0.093,-2.1,-5.7,1.1,-4.3,-36.5,7,0.618518632,-0.0791955321,-0.675374615,-0.393688772
373,939267,84630,0.874,0.447,0.089,-1.9,-5.9,1,-4.3,-36.5,7,0.618427076,-0.0792870876,-0.675435652,-0.393688772
374,941718,84630,0.874,0.451,0.089,-1.8,-6.2,0.9,-4.3,-36.5,7,0.61833552,-0.0793786431,-0.675496689,-0.393688772
375,943683,84630,0.874,0.451,0.085,-1.8,-6.3,0.8,-3.9,-36.5,7.1,0.618243965,-0.0794701987,-0.675557726,-0.393688772
376,945052,84630,0.878,0.451,0.081,-1.9,-6.5,0.7,-3.9,-36.5,7.1,0.618152409,-0.0795617542,-0.675649281,-0.393719291
377,948302,84640,0.882,0.455,0.085,-1.9,-6.7,0.7,-3.9,-36.5,7.1,0.618060854,-0.0796533097,-0.675710318,-0.393719291
378,950283,84640,0.878,0.455,0.089,-1.8,-6.8,0.9,-3.9,-36.5,7.1,0.617969298,-0.0797448653,-0.675801874,-0.393719291
379,952729,84640,0.882,0.455,0.089,-1.7,-7,1.1,-3.9,-36.6,6.9,0.617877743,-0.0798669393,-0.675862911,-0.393719291
380,956492,84640,0.882,0.455,0.089,-1.6,-7.3,1.2,-3.9,-36.6,6.9,0.617755669,-0.0799584948,-0.675954466,-0.393719291
381,958658,84650,0.882,0.463,0.085,-1.5,-7.6,1.3,-3.9,-36.6,6.9,0.617664113,-0.0800805689,-0.676046022,-0.393688772
382,960753,84650,0.882,0.459,0.089,-1.1,-7.9,1.1,-3.9,-36.6,6.9,0.617542039,-0.0801721244,-0.676137577,-0.393688772
383,962889,84650,0.886,0.459,0.089,-1,-8.1,1,-4.1,-36.4,7.4,0.617419965,-0.0800805689,-0.676168096,-0.393841365
384,965328,84650,0.886,0.459,0.089,-0.9,-8.1,0.8,-4.1,-36.4,7.4,0.617297891,-0.0801721244,-0.676259651,-0.393841365
385,967498,84660,0.882,0.462,0.089,-0.9,-8.2,0.6,-4.1,-36.4,7.4,0.617175817,-0.0802636799,-0.676381726,-0.393841365
386,971396,84660,0.886,0.459,0.085,-1,-8.4,0.7,-4.1,-36.4,7.4,0.617053743,-0.080385754,-0.676473281,-0.393810846
387,973332,84660,0.882,0.463,0.081,-1.1,-8.7,0.8,-5.5,-36.7,6.9,0.616931669,-0.0804773095,-0.676595355,-0.393810846
388,976010,84660,0.886,0.467,0.077,-1.4,-9.2,0.9,-5.5,-36.7,6.9,0.616809595,-0.0805993835,-0.676686911,-0.393810846
389,977760,84670,0.882,0.463,0.077,-1.8,-9.5,0.9,-5.5,-36.7,6.9,0.616687521,-0.0807214576,-0.676808985,-0.393810846
390,980073,84670,0.89,0.458,0.089,-2.1,-9.8,0.8,-5.5,-36.7,6.9,0.616534928,-0.0808435316,-0.676931059,-0.393810846
391,982377,84670,0.886,0.459,0.085,-2.3,-10.1,0.8,-3.9,-36,6.9,0.616382336,-0.0809656056,-0.677022614,-0.393810846
392,984932,84670,0.89,0.458,0.089,-2.4,-10.4,0.8,-3.9,-36,6.9,0.616229743,-0.0810876797,-0.677144688,-0.393810846
393,987356,84680,0.886,0.459,0.089,-2.5,-10.7,0.8,-3.9,-36,6.9,0.616077151,-0.0812402722,-0.677266762,-0.393810846
394,991803,84680,0.89,0.462,0.089,-2.5,-10.8,0.8,-3.9,-36,6.9,0.615924558,-0.0813928648,-0.677388836,-0.393841365
395,993777,84680,0.894,0.458,0.089,-2.7,-10.9,0.8,-3.9,-36.3,7.1,0.615771966,-0.0815149388,-0.67751091,-0.393841365
396,996093,84680,0.89,0.455,0.089,-2.7,-11,1,-3.9,-36.3,7.1,0.615588855,-0.0816370128,-0.677632984,-0.393841365
397,998059,84690,0.89,0.458,0.089,-2.7,-11.1,1,-3.9,-36.3,7.1,0.615436262,-0.0818201239,-0.677755058,-0.393841365
398,999789,84690,0.89,0.454,0.093,-2.5,-11.2,1.1,-3.9,-36.3,7.1,0.61528367,-0.0819727165,-0.677907651,-0.393841365
399,1004279,84690,0.894,0.459,0.081,-2.2,-11.3,1.2,-3.9,-36.2,6.9,0.615131077,-0.082125309,-0.678029725,-0.393841365
400,1006500,84690,0.894,0.451,0.085,-2,-11.5,1.5,-3.9,-36.2,6.9,0.614947966,-0.0822779015,-0.678151799,-0.393841365
401,1008690,84700,0.897,0.455,0.085,-1.8,-11.5,1.6,-3.9,-36.2,6.9,0.614795373,-0.0823999756,-0.678304392,-0.393810846
402,1010963,84700,0.901,0.451,0.085,-1.6,-11.5,1.8,-3.9,-36.2,6.9,0.614642781,-0.0825525681,-0.678426466,-0.393810846
403,1013035,84700,0.901,0.451,0.085,-1.6,-11.6,2,-3.9,-36.2,6.9,0.614520707,-0.0824915311,-0.678426466,-0.394024476
404,1016144,84700,0.905,0.45,0.085,-1.6,-11.8,2.3,-3.9,-36.2,6.9,0.614337596,-0.0826136052,-0.678579058,-0.393993957
405,1017550,84710,0.901,0.451,0.081,-1.6,-11.9,2.5,-3.9,-36.2,6.9,0.614185003,-0.0827967162,-0.678701132,-0.393963439
406,1021585,84710,0.909,0.454,0.085,-1.8,-12,2.6,-3.9,-36.2,6.9,0.614032411,-0.0829798273,-0.678853725,-0.39393292
407,1023707,84710,0.909,0.447,0.077,-1.9,-12.1,2.6,-5.3,-36.5,7.2,0.613879818,-0.0831019013,-0.678975799,-0.393902402
408,1025677,84710,0.909,0.447,0.081,-2.1,-12.2,2.7,-5.3,-36.5,7.2,0.613696707,-0.0833155309,-0.679128391,-0.393871883
409,1027235,84720,0.909,0.447,0.077,-2.2,-12.3,2.7,-5.3,-36.5,7.2,0.613544115,-0.0834986419,-0.679280984,-0.393841365
410,1030624,84720,0.913,0.446,0.084,-2.4,-12.5,2.7,-5.3,-36.5,7.2,0.613391522,-0.083681753,-0.679403058,-0.393841365
411,1032571,84720,0.917,0.447,0.077,-2.6,-12.7,2.7,-4.4,-37.1,7.2,0.613208411,-0.083864864,-0.679555651,-0.393810846
412,1036465,84720,0.913,0.447,0.073,-2.7,-12.9,2.9,-4.4,-37.1,7.2,0.6130253,-0.0840479751,-0.679708243,-0.393780328
413,1038733,84730,0.917,0.439,0.077,-2.6,-13,3,-4.4,-37.1,7.2,0.612872707,-0.0842310862,-0.679860836,-0.393749809
414,1040974,84730,0.921,0.439,0.076,-2.5,-13.2,3.1,-4.4,-37.1,7.2,0.612689596,-0.0844447157,-0.67998291,-0.393749809
415,1043068,84730,0.921,0.439,0.073,-2.2,-13.5,3.3,-4,-37.2,6.6,0.612506485,-0.0846278268,-0.680166021,-0.393688772
416,1045551,84730,0.921,0.443,0.073,-1.9,-14,3.6,-4,-37.2,6.6,0.612323374,-0.0848414563,-0.680318613,-0.393658254
417,1047560,84740,0.925,0.443,0.076,-1.3,-14.6,4.2,-4,-37.2,6.6,0.612140263,-0.0850245674,-0.680501724,-0.393597217
418,1049890,84740,0.929,0.443,0.069,-0.6,-15.2,4.9,-4,-37.2,6.6,0.611957152,-0.085238197,-0.680654317,-0.393505661
419,1052771,84740,0.929,0.439,0.068,0.2,-15.8,5.7,-4,-36.8,7.2,0.611774041,-0.085482345,-0.680898465,-0.393383587
420,1055928,84740,0.933,0.442,0.072,1.1,-16.5,6.7,-4,-36.8,7.2,0.61159093,-0.0856959746,-0.681112094,-0.393261513
421,1058365,84750,0.941,0.439,0.068,2,-17.3,8,-4,-36.8,7.2,0.611407819,-0.0859401227,-0.681325724,-0.393047884
422,1060474,84750,0.948,0.442,0.076,3,-18.4,9.4,-4,-36.8,7.2,0.611224708,-0.0861842708,-0.681600391,-0.392895291
423,1062374,84750,0.96,0.438,0.095,3.9,-19.4,10.6,-4.3,-36.7,7.2,0.611102634,-0.0864894559,-0.68181402,-0.392651143
424,1064741,84750,0.96,0.438,0.095,3.9,-19.4,10.6,-4.3,-36.7,7.2,0.611102634,-0.0864894559,-0.68181402,-0.392651143
425,1068323,84760,0.975,0.441,0.111,5.3,-20.8,12.4,-4.3,-36.7,7.2,0.610705893,-0.0870693075,-0.682393872,-0.39210181
426,1069796,84760,0.983,0.441,0.122,5.7,-20.6,12.8,-4.3,-36.7,7.2,0.610522782,-0.0873439741,-0.682699057,-0.391827143
427,1072907,84760,0.987,0.433,0.126,5.8,-19.9,13,-5.1,-36.6,7.1,0.610339671,-0.0876491592,-0.682973724,-0.391521958
428,1075050,84760,0.995,0.433,0.13,5.9,-18.6,12.8,-5.1,-36.6,7.1,0.610187078,-0.0878933073,-0.68324839,-0.391216773
429,1077351,84770,0.999,0.425,0.13,5.9,-16.7,12.2,-5.1,-36.6,7.1,0.610065004,-0.0881374554,-0.683492538,-0.390942106
430,1079841,84770,0.995,0.425,0.126,6.1,-14.3,11.2,-5.1,-36.6,7.1,0.60994293,-0.0883510849,-0.683736686,-0.39066744
431,1083704,84770,0.995,0.429,0.122,6.6,-11.8,9.9,-4.7,-36.6,7.4,0.609881893,-0.088534196,-0.683919797,-0.390423292
432,1085800,84770,0.979,0.426,0.099,7.6,-9.3,8.3,-4.7,-36.6,7.4,0.609820856,-0.0886257515,-0.684102908,-0.390179144
433,1088970,84780,0.972,0.43,0.079,9.1,-7.3,6.5,-4.7,-36.6,7.4,0.609790338,-0.08865627,-0.684255501,-0.389934996
434,1090526,84780,0.956,0.442,0.064,10.9,-5.9,5,-4.7,-36.6,7.4,0.609759819,-0.08865627,-0.684408094,-0.389690847
435,1093199,84780,0.944,0.443,0.053,13,-5.3,3.7,-4.3,-36,7.7,0.609729301,-0.0885647145,-0.684560686,-0.389416181
436,1095064,84780,0.929,0.455,0.018,15.4,-5.3,2.7,-4.3,-36,7.7,0.609698782,-0.0884426405,-0.684774316,-0.389141514
437,1097335,84790,0.917,0.459,0.01,17.9,-5.2,1.8,-4.3,-36,7.7,0.609668264,-0.0882900479,-0.685018464,-0.388836329
438,1100928,84790,0.91,0.467,0,20.4,-4.7,1,-4.3,-36,7.7,0.609668264,-0.0880764183,-0.685232093,-0.388531144
439,1103201,84790,0.898,0.456,-0.02,22.5,-3.5,0.3,-4.4,-36.1,7.9,0.609637745,-0.0878017518,-0.685476241,-0.388164922
440,1104964,84790,0.894,0.456,-0.039,23.9,-1.5,-0.3,-4.4,-36.1,7.9,0.609668264,-0.0874965667,-0.685689871,-0.387829218
441,1107276,84800,0.898,0.452,-0.039,24.4,1,-1.3,-4.4,-36.1,7.9,0.609729301,-0.0871303446,-0.6859035,-0.387462996
442,1111284,84800,0.906,0.433,-0.059,24.1,3.7,-2.8,-4.4,-36.1,7.9,0.609790338,-0.0867336039,-0.686056093,-0.387157811
443,1113662,84800,0.941,0.374,-0.069,23,6.2,-4.6,-4.1,-36,8,0.609698782,-0.0862758263,-0.686391797,-0.386822108
444,1115972,84800,0.941,0.374,-0.069,21.6,8.1,-6.5,-4.1,-36,8,0.609790338,-0.0858180486,-0.686483352,-0.386608478
445,1117517,84810,0.953,0.354,-0.073,19.9,9.3,-8.2,-4.1,-36,8,0.609912412,-0.085360271,-0.686544389,-0.386425367
446,1120037,84810,0.992,0.318,-0.047,18.1,9.7,-9.4,-4.1,-36,8,0.610003967,-0.0848719749,-0.686574908,-0.386303293
447,1124369,84810,1.004,0.294,-0.039,16.4,9.3,-10.1,-4.7,-36.2,7.7,0.610095523,-0.0844447157,-0.686605426,-0.386211737
448,1125047,84810,1.019,0.27,-0.024,14.8,8.2,-10.1,-4.7,-36.2,7.7,0.61015656,-0.0840174566,-0.686635945,-0.3861507
449,1127715,84820,1.023,0.25,-0.017,13.4,6.7,-9.4,-4.7,-36.2,7.7,0.610217597,-0.0836512345,-0.686696982,-0.386089663
450,1130400,84820,1.043,0.234,-0.009,11.8,4.8,-8,-4.7,-36.2,7.7,0.610217597,-0.0833155309,-0.6867275,-0.386028626
451,1132629,84820,1.054,0.218,-0.002,9.8,2.7,-6.1,-4.3,-36.2,7.7,0.610248115,-0.0830713828,-0.686788537,-0.385967589
452,1135162,84820,1.066,0.214,-0.006,7.1,0.5,-3.7,-4.3,-36.2,7.7,0.610217597,-0.0829187902,-0.686849574,-0.385906552
453,1139027,84830,1.058,0.207,-0.006,3.6,-1.4,-0.9,-4.3,-36.2,7.7,0.610187078,-0.0828577532,-0.686910611,-0.385845515
454,1141361,84830,1.05,0.171,-0.006,-0.2,-3.1,2.3,-4.3,-36.2,7.7,0.610187078,-0.0829187902,-0.68694113,-0.385814997
455,1143520,84830,1.047,0.175,-0.006,-3.8,-4.3,5.9,-4.5,-36,7.5,0.61015656,-0.0831019013,-0.686971648,-0.385784478
456,1145921,84830,1.05,0.164,-0.01,-6.4,-4.9,9,-4.5,-36,7.5,0.610126041,-0.0833765679,-0.686971648,-0.38575396
457,1147706,84840,1.047,0.152,-0.018,-7.3,-4.9,11.3,-4.5,-36,7.5,0.61015656,-0.083681753,-0.68694113,-0.385723441
458,1150042,84840,1.035,0.152,-0.014,-6.3,-4,12.6,-4.5,-36,7.5,0.610187078,-0.0839869381,-0.686910611,-0.385631886
459,1152467,84840,1.027,0.172,-0.01,-2.9,-2.5,13.1,-4.5,-36.3,7.7,0.610248115,-0.0842616047,-0.686910611,-0.385509812
460,1155289,84840,1.035,0.203,0.001,2.3,-0.5,13,-4.5,-36.3,7.7,0.610339671,-0.0844141972,-0.686910611,-0.385296182
461,1157676,84850,1.023,0.242,0.006,8.9,1.3,13,-4.5,-36.3,7.7,0.610492264,-0.0844752342,-0.68694113,-0.384990997
462,1159909,84850,1.015,0.258,-0.001,15.5,2.9,13.5,-4.5,-36.3,7.7,0.610675375,-0.0844447157,-0.687002167,-0.384563738
463,1162471,84850,1.007,0.286,-0.016,21.1,3.8,14.7,-4.7,-36.4,7.9,0.611133152,-0.0850245674,-0.687154759,-0.38349559
464,1167011,84850,1.004,0.294,-0.024,25.5,4.1,16,-4.7,-36.4,7.9,0.6113773,-0.0848719749,-0.687276833,-0.38288522
465,1167371,84860,1,0.302,-0.031,28.8,4.5,17.1,-4.7,-36.4,7.9,0.611651967,-0.0847193823,-0.687429426,-0.382244331
466,1171450,84860,1,0.306,-0.035,31.4,5.2,17.2,-4.7,-36.4,7.9,0.611926634,-0.0845057527,-0.687582018,-0.381542405
467,1173651,84860,1.004,0.31,-0.035,33.3,6.6,16.4,-4.8,-36.1,7.9,0.612231819,-0.0842616047,-0.687734611,-0.38084048
468,1176004,84860,1,0.306,-0.039,34.8,8.5,14.8,-4.8,-36.1,7.9,0.612537004,-0.0839259011,-0.687887204,-0.380138554
469,1177638,84870,1.004,0.298,-0.039,36.1,10.4,13,-4.8,-36.1,7.9,0.612872707,-0.0835596789,-0.688039796,-0.379436628
470,1179968,84870,1.008,0.29,-0.051,37.1,12.3,11.2,-4.8,-36.1,7.9,0.613208411,-0.0831019013,-0.68816187,-0.378765221
471,1184127,84870,1.008,0.282,-0.043,38.2,13.9,9.3,-4.8,-35.7,8.3,0.613574633,-0.0826136052,-0.688253426,-0.378093814
472,1186408,84870,1.008,0.271,-0.047,39.5,15.3,7.9,-4.8,-35.7,8.3,0.613940855,-0.0820947905,-0.6883755,-0.377391888
473,1189484,84880,1.008,0.263,-0.051,41.2,16.4,7,-4.8,-35.7,8.3,0.614307077,-0.0815149388,-0.688467055,-0.376720481
474,1189799,84880,1.011,0.259,-0.048,43.3,17.4,6.6,-4.8,-35.7,8.3,0.614703818,-0.0809045686,-0.688589129,-0.376018555
475,1193911,84880,1.012,0.243,-0.056,45.6,18,6.5,-4.6,-35.7,8.8,0.615100558,-0.0802331614,-0.688711203,-0.375255593
476,1196134,84880,1.008,0.236,-0.06,47.8,18.4,6.7,-4.6,-35.7,8.8,0.615527818,-0.0795617542,-0.688833277,-0.37449263
477,1198456,84890,1.008,0.236,-0.064,49.8,18.7,7.1,-4.6,-35.7,8.8,0.615955077,-0.07882931,-0.68898587,-0.37366863
478,1200104,84890,1,0.224,-0.064,51.6,19.1,7.5,-4.6,-35.7,8.8,0.616382336,-0.0780968657,-0.689138462,-0.37284463
479,1202463,84890,1,0.224,-0.067,53.3,19.6,8,-5.1,-35.4,8.8,0.616840114,-0.077333903,-0.689291055,-0.371959593
480,1205071,84890,1,0.22,-0.064,54.7,19.9,8.5,-5.1,-35.4,8.8,0.617297891,-0.0765709403,-0.689443648,-0.371044038
481,1207665,84900,1.004,0.224,-0.056,56.2,20.3,9.1,-5.1,-35.4,8.8,0.617786187,-0.075777459,-0.689626759,-0.370097964
482,1209961,84900,0.996,0.224,-0.056,57.6,20.7,9.7,-5.1,-35.4,8.8,0.618274483,-0.0749839778,-0.689779351,-0.369151891
483,1212652,84900,0.988,0.22,-0.052,59.1,21.2,10.4,-5,-35.6,8.9,0.618915372,-0.075533311,-0.69042024,-0.366771447
484,1215127,84900,0.988,0.22,-0.052,60.5,21.8,11,-5,-35.6,8.9,0.619434187,-0.0747093112,-0.690603351,-0.365703299
485,1217626,84910,0.984,0.232,-0.055,61.9,22.3,11.6,-5,-35.6,8.9,0.619953001,-0.0738853114,-0.690755943,-0.364696188
486,1219754,84910,0.984,0.236,-0.055,63.2,22.9,12.3,-5,-35.6,8.9,0.620502335,-0.0730307932,-0.690939055,-0.363597522
487,1222478,84910,0.98,0.24,-0.051,64.6,23.5,13.2,-5.5,-35.3,9.4,0.621051668,-0.0721457564,-0.691122166,-0.362498856
488,1227059,84910,0.976,0.248,-0.055,65.8,24.1,14.3,-5.5,-35.3,9.4,0.62163152,-0.0712912381,-0.691274758,-0.361339152
489,1227470,84920,0.976,0.252,-0.063,66.9,24.5,15.5,-5.5,-35.3,9.4,0.62224189,-0.0704062014,-0.691457869,-0.36014893
490,1230048,84920,0.972,0.259,-0.059,67.9,25.1,16.7,-5.5,-35.3,9.4,0.62285226,-0.0695516831,-0.691610462,-0.35892819
491,1234181,84920,0.976,0.263,-0.067,68.9,25.8,17.9,-5.4,-35.5,9.2,0.623493149,-0.0686971648,-0.691763054,-0.35770745
492,1236571,84920,0.976,0.267,-0.059,69.9,26.6,18.9,-5.4,-35.5,9.2,0.624134037,-0.0678121281,-0.691915647,-0.356425672
493,1239023,84930,0.973,0.275,-0.07,71,27.3,19.6,-5.4,-35.5,9.2,0.624805445,-0.0669270913,-0.692068239,-0.355113376
494,1240946,84930,0.972,0.283,-0.066,72.3,28,20.1,-5.4,-35.5,9.2,0.625476852,-0.066011536,-0.692220832,-0.35380108
495,1243255,84930,0.969,0.279,-0.07,73.7,28.6,20.2,-5.8,-35.2,9.9,0.626178777,-0.0651264992,-0.692373424,-0.352458266
496,1245158,84930,0.976,0.291,-0.07,75.1,29.3,20.3,-5.8,-35.2,9.9,0.626880703,-0.0641804254,-0.692526017,-0.351084933
497,1247585,84940,0.98,0.295,-0.078,76.6,30,20.4,-5.8,-35.2,9.9,0.627613147,-0.0632038331,-0.69267861,-0.349681082
498,1250579,84940,0.984,0.295,-0.078,78.1,30.7,20.7,-5.8,-35.2,9.9,0.628345592,-0.0621967223,-0.692800684,-0.348246712
499,1252392,84940,0.996,0.291,-0.082,79.5,31.7,20.9,-5.9,-35.1,9.9,0.629078036,-0.0611896115,-0.692953276,-0.346812342
500,1255597,84940,0.996,0.291,-0.09,80.8,32.7,21.1,-5.9,-35.1,9.9,0.629840999,-0.0601519822,-0.69307535,-0.345347453
501,1257685,84950,1,0.291,-0.098,82,33.9,21.3,-5.9,-35.1,9.9,0.63063448,-0.0590838343,-0.693197424,-0.343852046
502,1260102,84950,1.008,0.291,-0.106,83.1,34.9,21.6,-5.9,-35.1,9.9,0.631427961,-0.0580156865,-0.693319498,-0.342326121
503,1263355,84950,1.012,0.295,-0.11,84.2,35.5,22.1,-6.2,-34.8,10.9,0.632007813,-0.0575884274,-0.693960387,-0.340006714
504,1265338,84950,1.016,0.291,-0.114,85.4,35.9,22.6,-6.2,-34.8,10.9,0.632831812,-0.056489761,-0.694082461,-0.33845027
505,1267535,84960,1.012,0.287,-0.11,86.4,36.2,23.1,-6.2,-34.8,10.9,0.633655812,-0.0553605762,-0.694204535,-0.336863308
506,1269772,84960,1.012,0.287,-0.118,87.6,36.5,23.6,-6.2,-34.8,10.9,0.634479812,-0.0542313913,-0.694296091,-0.335245827
507,1272301,84960,1.016,0.295,-0.122,88.8,36.8,24.3,-6.6,-34.4,11.3,0.63533433,-0.0531022065,-0.694418165,-0.333597827
508,1275767,84960,1.008,0.291,-0.126,90.1,36.8,25.1,-6.6,-34.4,11.3,0.63615833,-0.0519730216,-0.69450972,-0.331919309
509,1278316,84970,1.012,0.295,-0.129,91.4,36.8,25.9,-6.6,-34.4,11.3,0.637012848,-0.0508133183,-0.694631794,-0.330210273
510,1279776,84970,1.008,0.299,-0.133,92.7,36.7,26.9,-6.6,-34.4,11.3,0.637867367,-0.0496841334,-0.694753868,-0.328470717
511,1282457,84970,1.004,0.303,-0.129,93.9,36.7,27.7,-6.7,-34.2,11.3,0.638721885,-0.0485244301,-0.694906461,-0.326700644
512,1286057,84970,1,0.311,-0.129,95,36.8,28.5,-6.7,-34.2,11.3,0.639576403,-0.0473952452,-0.695028535,-0.324900052
513,1287669,84980,1,0.307,-0.141,95.9,37.1,29.1,-6.7,-34.2,11.3,0.64046144,-0.0462355419,-0.695150609,-0.32309946
514,1290350,84980,0.996,0.311,-0.137,96.7,37.4,29.5,-6.7,-34.2,11.3,0.641315958,-0.04504532,-0.695272683,-0.321237831
515,1292554,84980,0.988,0.319,-0.137,97.3,37.8,29.7,-7.2,-33.7,11.8,0.642200995,-0.0438856166,-0.695394757,-0.319376202
516,1296227,84980,0.988,0.315,-0.137,97.9,38.1,30.1,-7.2,-33.7,11.8,0.643086032,-0.0426953948,-0.695516831,-0.317514573
517,1298493,84990,0.984,0.319,-0.133,98.4,38.7,30.4,-7.2,-33.7,11.8,0.643971068,-0.0415051729,-0.695638905,-0.315622425
518,1300717,84990,0.984,0.323,-0.14,98.8,39.3,30.9,-7.2,-33.7,11.8,0.644856105,-0.040314951,-0.695730461,-0.313730277
519,1303430,84990,0.984,0.319,-0.14,99.3,40.2,31.2,-7.5,-33.7,12.1,0.645771661,-0.0390942106,-0.695822016,-0.311807611
520,1305107,84990,0.984,0.319,-0.14,100,41.1,31.5,-7.5,-33.7,12.1,0.646717734,-0.0378734703,-0.695883053,-0.309884945
521,1307547,85000,0.988,0.319,-0.14,101,41.9,31.6,-7.5,-33.7,12.1,0.64763329,-0.0366527299,-0.69594409,-0.307931761
522,1309929,85000,0.988,0.319,-0.14,102.2,42.9,31.8,-7.5,-33.7,12.1,0.648579363,-0.0354319895,-0.696005127,-0.305978576
523,1312293,85000,0.996,0.319,-0.141,105,44.6,31.8,-8,-33,12.9,0.648731956,-0.0346995453,-0.697195349,-0.302987762
524,1314753,85000,0.992,0.323,-0.137,105,44.6,31.8,-8,-33,12.9,0.649708548,-0.0334482864,-0.697256386,-0.30097354
525,1318954,85010,0.992,0.315,-0.141,106.6,45.5,31.7,-8,-33,12.9,0.650685141,-0.032105472,-0.697256386,-0.2989288
526,1320969,85010,0.992,0.319,-0.133,108.1,46.5,31.7,-8,-33,12.9,0.651661733,-0.0307626576,-0.697286905,-0.296853542
527,1323412,85010,0.992,0.319,-0.141,109.4,47.6,31.9,-7.5,-32.8,13.5,0.652668844,-0.0293588061,-0.697286905,-0.294778283
528,1327572,85010,0.996,0.327,-0.141,110.4,48.8,32.1,-7.5,-32.8,13.5,0.653675954,-0.0279549547,-0.697286905,-0.292672506
529,1327572,85020,0.996,0.331,-0.14,111.1,50,32.3,-7.5,-32.8,13.5,0.654713584,-0.0265511032,-0.697256386,-0.29053621
530,1330415,85020,0.996,0.323,-0.141,111.7,51.3,32.3,-7.5,-32.8,13.5,0.655751213,-0.0251472518,-0.697225867,-0.288399915
531,1333084,85020,1,0.327,-0.141,112.2,52.5,32.4,-9.3,-32.3,13.8,0.656819361,-0.0236823634,-0.69716483,-0.286263619
532,1335005,85020,1.004,0.331,-0.152,112.6,53.6,32.2,-9.3,-32.3,13.8,0.657887509,-0.0222174749,-0.697073275,-0.284127323
533,1339241,85030,1.004,0.327,-0.152,113.2,54.6,31.9,-9.3,-32.3,13.8,0.658986175,-0.0207525864,-0.696951201,-0.281960509
534,1341229,85030,1.004,0.331,-0.148,113.7,55.6,31.6,-9.3,-32.3,13.8,0.660084841,-0.0192571795,-0.696859645,-0.279763176
535,1343605,85030,1.004,0.335,-0.152,114.4,56.4,31.5,-9.3,-31.9,14.4,0.661122471,-0.0177007355,-0.696707053,-0.277626881
536,1345858,85030,1.004,0.335,-0.156,115.3,56.9,31.6,-9.3,-31.9,14.4,0.662282174,-0.0162053285,-0.696584979,-0.275429548
537,1348209,85040,1.004,0.331,-0.16,116.3,57.3,31.8,-9.3,-31.9,14.4,0.66338084,-0.0146794031,-0.696432386,-0.273232215
538,1350311,85040,1.004,0.331,-0.16,117.5,57.4,31.9,-9.3,-31.9,14.4,0.664479507,-0.0131229591,-0.696279794,-0.271004364
539,1352390,85040,1.008,0.335,-0.156,118.8,57.4,31.9,-9.7,-31.5,15,0.665547655,-0.0115359966,-0.69615772,-0.268745994
540,1355031,85040,1.008,0.327,-0.16,120.2,57.4,31.8,-9.7,-31.5,15,0.666646321,-0.00994903409,-0.696005127,-0.266457106
541,1359145,85050,1.004,0.323,-0.164,121.5,57.4,31.7,-9.7,-31.5,15,0.667714469,-0.00833155309,-0.695883053,-0.2641377
542,1361279,85050,1.008,0.327,-0.168,122.7,57.4,31.7,-9.7,-31.5,15,0.668813135,-0.00668355358,-0.695730461,-0.261848811
543,1363536,85050,1.004,0.331,-0.16,124.4,57.8,31.9,-9.8,-31,14.9,0.668996246,-0.00531022065,-0.696676534,-0.258888516
544,1366075,85050,1.004,0.331,-0.16,124.4,57.8,31.9,-9.8,-31,14.9,0.670064394,-0.00363170263,-0.696523942,-0.256538591
545,1368782,85060,1.012,0.343,-0.168,124.7,58,32.2,-9.8,-31,14.9,0.671132542,-0.00198370312,-0.696371349,-0.254158147
546,1371253,85060,1.012,0.343,-0.168,124.7,58,32.2,-9.8,-31,14.9,0.671132542,-0.00198370312,-0.696371349,-0.254158147
547,1373013,85060,1.004,0.339,-0.176,124.1,58.1,33.1,-8.9,-30.8,16.1,0.673268838,0.0012817774,-0.696005127,-0.249427778
548,1375534,85060,1.004,0.339,-0.18,123.5,58,33.6,-8.9,-30.8,16.1,0.674336985,0.0028992584,-0.695822016,-0.247047334
549,1378771,85070,1.008,0.343,-0.176,122.9,57.8,33.8,-8.9,-30.8,16.1,0.675374615,0.00448622089,-0.695638905,-0.24466689
550,1381580,85070,1.008,0.343,-0.18,122.7,57.5,34,-8.9,-30.8,16.1,0.676412244,0.0061037019,-0.695455794,-0.242316965
551,1383815,85070,1.008,0.347,-0.184,122.9,57.1,34.2,-10.6,-30,16.7,0.677449873,0.00769066439,-0.695272683,-0.239936522
552,1386063,85070,1.012,0.347,-0.18,123.6,56.7,34.8,-10.6,-30,16.7,0.678456984,0.00927762688,-0.695059053,-0.237525559
553,1388494,85080,1.016,0.359,-0.172,124.9,56.3,35.7,-10.6,-30,16.7,0.679494613,0.0108951079,-0.694875942,-0.235084078
554,1391398,85080,1.024,0.363,-0.168,126.6,56,36.6,-10.6,-30,16.7,0.680471206,0.0124820704,-0.69472335,-0.232612079
555,1393484,85080,1.02,0.367,-0.172,128.1,55.6,37.5,-11.4,-29.3,16.9,0.681478317,0.0140995514,-0.694540239,-0.230109561
556,1395406,85080,1.031,0.386,-0.16,129.5,55.5,38.2,-11.4,-29.3,16.9,0.682485427,0.0157475509,-0.694387646,-0.227546007
557,1397644,85090,1.031,0.386,-0.168,130.7,55.3,38.9,-11.4,-29.3,16.9,0.68346202,0.0173345134,-0.694204535,-0.224982452
558,1401372,85090,1.027,0.398,-0.156,131.5,55.4,39.5,-11.4,-29.3,16.9,0.684438612,0.0190130314,-0.694051943,-0.22235786
559,1403423,85090,1.027,0.406,-0.16,132.3,55.5,40.1,-11.5,-28.8,17.5,0.685415204,0.0206305124,-0.693868831,-0.219733268
560,1405448,85090,1.023,0.421,-0.148,133.1,55.8,40.6,-11.5,-28.8,17.5,0.686391797,0.0222785119,-0.69368572,-0.217078158
561,1409633,85100,1.02,0.429,-0.148,133.9,56.1,41.2,-11.5,-28.8,17.5,0.687368389,0.0239265114,-0.693502609,-0.214423048
562,1410056,85100,1.02,0.429,-0.136,134.5,56.4,41.6,-11.5,-28.8,17.5,0.688344981,0.0255745109,-0.69328898,-0.2117069
563,1413889,85100,1.012,0.437,-0.12,135.1,56.9,42.1,-12,-28.6,17.9,0.689321574,0.0272225105,-0.69307535,-0.209021271
564,1416003,85100,1.008,0.44,-0.12,135.6,57.4,42.4,-12,-28.6,17.9,0.690298166,0.0289010285,-0.692861721,-0.206274606
565,1418290,85110,1.004,0.44,-0.116,136,58.1,42.5,-12,-28.6,17.9,0.691274758,0.0305795465,-0.692617573,-0.203558458
566,1419881,85110,1.015,0.456,-0.104,136.2,58.9,42.1,-12,-28.6,17.9,0.69225135,0.0322580645,-0.692373424,-0.200811792
567,1422405,85110,1.008,0.456,-0.096,136,59.6,41.6,-10.8,-28,18.3,0.693227943,0.0339365825,-0.692068239,-0.198095645
568,1424735,85110,0.996,0.448,-0.092,135.4,60.4,40.9,-10.8,-28,18.3,0.694235054,0.0356151006,-0.691763054,-0.195379498
569,1429286,85120,1,0.44,-0.092,134.2,61.2,40.2,-10.8,-28,18.3,0.695211646,0.0373241371,-0.691457869,-0.192693869
570,1431559,85120,0.984,0.421,-0.096,132.6,62,39.5,-10.8,-28,18.3,0.696218757,0.0390026551,-0.691091647,-0.190038759
571,1434256,85120,0.969,0.394,-0.1,131.2,62.7,38.4,-12.4,-27.4,19.2,0.697195349,0.0406506546,-0.690725425,-0.187414167
572,1436150,85120,0.98,0.393,-0.1,130.7,63.4,36.7,-12.4,-27.4,19.2,0.698171941,0.0423596912,-0.690328684,-0.184850612
573,1438548,85130,0.988,0.393,-0.1,131.6,64.1,34.2,-12.4,-27.4,19.2,0.699148534,0.0440992462,-0.689901425,-0.182287057
574,1440334,85130,1.004,0.389,-0.081,133.6,65.2,31.5,-12.4,-27.4,19.2,0.700125126,0.0459303568,-0.689443648,-0.179723502
575,1442686,85130,1.004,0.389,-0.077,136.1,66.6,29.4,-12.9,-26.8,19.8,0.701101718,0.0478225043,-0.68898587,-0.177159948
576,1444968,85130,1.004,0.389,-0.077,136.1,66.6,29.4,-12.9,-26.8,19.8,0.701101718,0.0478225043,-0.68898587,-0.177159948
577,1447509,85140,1.008,0.389,-0.085,138.7,69.4,29.2,-12.9,-26.8,19.8,0.703085421,0.0517288736,-0.688009278,-0.171971801
578,1449863,85140,1.019,0.381,-0.082,137.9,70.6,30.7,-12.9,-26.8,19.8,0.704092532,0.0536210211,-0.687459944,-0.169347209
579,1452474,85140,1.027,0.393,-0.085,135.7,71.5,32.6,-14,-26.5,19.7,0.70516068,0.0554521317,-0.686910611,-0.166722617
580,1455117,85140,1.012,0.373,-0.089,132.5,72.2,34.3,-14,-26.5,19.7,0.706198309,0.0572832423,-0.68633076,-0.164098025
581,1457297,85150,0.984,0.319,-0.105,128.7,72.8,36,-14,-26.5,19.7,0.707235939,0.0589922788,-0.685689871,-0.161534471
582,1459953,85150,0.969,0.303,-0.101,124.5,73.2,37.7,-14,-26.5,19.7,0.708304086,0.0605792413,-0.685048982,-0.159001434
583,1462289,85150,0.969,0.288,-0.109,118.1,73.2,38.8,-14,-25.7,20.7,0.708883938,0.0622577593,-0.684865871,-0.156529435
584,1466768,85150,0.969,0.288,-0.109,118.1,73.2,38.8,-14,-25.7,20.7,0.709952086,0.0637531663,-0.684194464,-0.154057436
585,1468663,85160,0.969,0.288,-0.109,118.1,73.2,38.8,-14,-25.7,20.7,0.709952086,0.0637531663,-0.684194464,-0.154057436
586,1471341,85160,0.992,0.323,-0.097,116.6,72,34.1,-14,-25.7,20.7,0.712027345,0.0667744987,-0.682821131,-0.14926603
587,1473557,85160,1,0.334,-0.101,116.2,71.4,32.3,-12.6,-25.7,20.4,0.713003937,0.0683309427,-0.682119205,-0.146916105
588,1475797,85160,0.973,0.335,-0.097,114.7,70.8,33,-12.6,-25.7,20.4,0.714011048,0.0698568682,-0.681447798,-0.144596698
589,1477828,85170,0.984,0.354,-0.101,111.8,70.1,36.2,-12.6,-25.7,20.4,0.71498764,0.0712912381,-0.680745872,-0.142246773
590,1480194,85170,1.015,0.389,-0.093,108,69.4,41.1,-12.6,-25.7,20.4,0.715964232,0.0725730155,-0.680074465,-0.139866329
591,1484285,85170,0.992,0.385,-0.093,104.1,69,47.1,-14.7,-24.2,20.8,0.716971343,0.0737022004,-0.679372539,-0.137516404
592,1486506,85170,0.867,0.332,-0.076,100.5,68.9,53.9,-14.7,-24.2,20.8,0.717978454,0.0746787927,-0.678701132,-0.135074923
593,1488847,85180,0.84,0.32,-0.067,97.2,68.5,60.8,-14.7,-24.2,20.8,0.719016083,0.0755027924,-0.677999207,-0.132572405
594,1491120,85180,0.809,0.286,-0.091,94.9,67.1,65.7,-14.7,-24.2,20.8,0.720053713,0.0762352367,-0.677327799,-0.13000885
595,1493944,85180,0.809,0.27,-0.107,94.3,63.8,66.2,-15.1,-24.2,20.6,0.721030305,0.0769066439,-0.676686911,-0.127475814
596,1496330,85180,0.898,0.32,-0.115,96.4,59.2,61.1,-15.1,-24.2,20.6,0.721915342,0.0777001251,-0.676137577,-0.124973296
597,1499209,85190,0.941,0.366,-0.1,101.9,54.8,51.4,-15.1,-24.2,20.6,0.722678304,0.0786767174,-0.675618763,-0.122562334
598,1501482,85190,0.937,0.378,-0.072,110.4,52.2,40.5,-15.1,-24.2,20.6,0.723349712,0.0799584948,-0.675160985,-0.120212409
599,1503624,85190,0.953,0.413,-0.053,119.9,51.5,32.4,-15.3,-23.2,21.4,0.7239906,0.0815149388,-0.674733726,-0.117862484
600,1505819,85190,0.968,0.432,-0.053,127.9,51.9,29.2,-15.3,-23.2,21.4,0.72460097,0.0832544939,-0.674275948,-0.115421003
601,1507960,85200,0.972,0.444,-0.045,133,52.2,29.8,-15.3,-23.2,21.4,0.725211341,0.0850245674,-0.673848689,-0.112887967
602,1510428,85200,0.98,0.444,-0.041,135.3,52.3,31.9,-15.3,-23.2,21.4,0.725791192,0.0868251595,-0.673390912,-0.110293893
603,1513465,85200,0.984,0.439,0.024,135,54.9,33.2,-15.6,-22.5,21.4,0.726187933,0.0888698996,-0.673085726,-0.107852412
604,1515249,85200,0.984,0.439,0.024,135,54.9,33.2,-15.6,-22.5,21.4,0.726828822,0.0906704917,-0.67259743,-0.105227821
605,1517669,85210,0.972,0.43,0.064,134.2,57.9,31.2,-15.6,-22.5,21.4,0.72746971,0.0924710837,-0.672048097,-0.102633747
606,1519955,85210,0.936,0.375,0.126,133.4,61.4,27.9,-15.6,-22.5,21.4,0.728171636,0.0943021943,-0.671407208,-0.10013123
607,1522473,85210,0.909,0.355,0.15,132.4,64.4,24,-14.3,-22.7,21.9,0.728873562,0.0961943419,-0.670735801,-0.0976897488
608,1525482,85210,0.881,0.339,0.189,131.3,66.3,19.9,-14.3,-22.7,21.9,0.729606006,0.0981475265,-0.670003357,-0.0953093051
609,1527776,85220,0.858,0.323,0.233,130.1,66.6,16.2,-14.3,-22.7,21.9,0.73033845,0.100100711,-0.669240394,-0.0929898984
610,1530138,85220,0.838,0.322,0.315,128.5,65.2,12.7,-14.3,-22.7,21.9,0.731040376,0.102114933,-0.668477432,-0.0907620472
611,1532502,85220,0.822,0.314,0.347,126,62.5,9.7,-16.2,-21.6,21.5,0.731681265,0.104098636,-0.667744987,-0.0886257515
612,1536599,85220,0.814,0.302,0.386,121.7,58.8,7.6,-16.2,-21.6,21.5,0.732291635,0.10605182,-0.66707358,-0.0866115299
613,1538815,85230,0.83,0.313,0.441,115.8,54.9,7.2,-16.2,-21.6,21.5,0.73281045,0.107882931,-0.666432691,-0.0846888638
614,1541021,85230,0.916,0.327,0.451,109.3,51.1,9.4,-16.2,-21.6,21.5,0.733329264,0.109591968,-0.665822321,-0.0828272347
615,1543413,85230,0.919,0.311,0.462,103.4,48.1,14.4,-16.5,-21.2,22.1,0.733787042,0.111117893,-0.665272988,-0.0809656056
616,1545255,85230,0.923,0.299,0.497,99.7,47.3,22.3,-16.5,-21.2,22.1,0.734275338,0.112491226,-0.664754173,-0.0790429395
617,1547528,85240,0.845,0.287,0.573,99.4,49.9,32.8,-16.5,-21.2,22.1,0.734824671,0.113681448,-0.66420484,-0.0769676809
618,1550200,85240,0.915,0.29,0.548,103.5,56.4,45.4,-16.5,-21.2,22.1,0.735435041,0.114780114,-0.663563952,-0.0745872372
619,1552792,85240,0.958,0.282,0.551,112.5,65,58.6,-16.8,-20.4,22.2,0.736198004,0.115817743,-0.662862026,-0.0718405713
620,1554996,85240,0.837,0.267,0.604,126.3,75.1,71,-16.8,-20.4,22.2,0.737083041,0.116977447,-0.662007508,-0.0686971648
621,1557550,85250,0.868,0.302,0.612,145.1,85.5,81,-16.8,-20.4,22.2,0.738059633,0.118259224,-0.661061434,-0.0650349437
622,1559769,85250,0.927,0.337,0.58,168.5,95.9,87.3,-16.8,-20.4,22.2,0.739127781,0.119846187,-0.659962767,-0.0609759819
623,1562450,85250,0.907,0.411,0.613,195.6,105.8,89.7,-17.3,-19.2,22.5,0.740256966,0.12182989,-0.658772546,-0.056428724
624,1566920,85250,0.872,0.455,0.625,225.1,115,89,-17.3,-19.2,22.5,0.741386151,0.124332408,-0.657399213,-0.051454207
625,1567267,85260,0.86,0.529,0.642,255.6,123.8,86.8,-17.3,-19.2,22.5,0.742545854,0.12735374,-0.655903806,-0.0460524308
626,1570018,85260,0.883,0.607,0.655,285.2,132.1,83.9,-17.3,-19.2,22.5,0.743736076,0.130924406,-0.654255806,-0.040253914
627,1572226,85260,0.871,0.756,0.66,312.6,139.1,80.1,-16.3,-18.6,23.2,0.744865261,0.134952849,-0.652485733,-0.0340891751
628,1576609,85260,0.84,0.831,0.67,335.8,144.1,75.3,-16.3,-18.6,23.2,0.745963927,0.13943907,-0.650593585,-0.0276497696
629,1578829,85270,0.871,0.941,0.682,353.8,147.3,69.8,-16.3,-18.6,23.2,0.747001556,0.144291513,-0.648609882,-0.0210577715
630,1581139,85270,0.875,1.03,0.703,366.5,149.7,64,-16.3,-18.6,23.2,0.74794763,0.149418622,-0.646504105,-0.0143436995
631,1583441,85270,0.812,1.204,0.726,373.8,152.2,58.1,-18.4,-16,23.7,0.748863186,0.154759362,-0.644306772,-0.00762962737
632,1586384,85270,0.859,1.231,0.702,375.1,154.6,52.1,-18.4,-16,23.7,0.749748222,0.160161138,-0.641987365,-0.000976592303
633,1588600,85280,0.777,1.279,0.727,369.7,156.8,46.4,-18.4,-16,23.7,0.750633259,0.165562914,-0.639576403,0.00549333171
634,1590892,85280,0.694,1.354,0.765,358.6,159.3,40.6,-18.4,-16,23.7,0.751518296,0.170842616,-0.637043367,0.0117191076
635,1592885,85280,0.679,1.444,0.758,342.9,162.7,34.3,-19.1,-14.3,24.1,0.75246437,0.175939207,-0.634388256,0.017670217
636,1595133,85280,0.581,1.48,0.815,323.1,167.7,26.8,-19.1,-14.3,24.1,0.753532517,0.18079165,-0.631611072,0.0231940672
637,1597332,85290,0.522,1.453,0.824,298.2,173.6,17.9,-19.1,-14.3,24.1,0.754722739,0.185369427,-0.628650777,0.0283211768
638,1601830,85290,0.522,1.421,0.827,266.6,179.5,8.2,-19.1,-14.3,24.1,0.756065554,0.189519944,-0.625537889,0.0328379162
639,1602278,85290,0.487,1.359,0.847,227.5,184.3,-1.4,-19.8,-13.1,23.7,0.757621998,0.193151646,-0.622333445,0.0366527299
640,1605075,85290,0.374,1.242,0.859,181.2,187.6,-10.1,-19.8,-13.1,23.7,0.75942259,0.19614246,-0.619037446,0.0397656178
641,1607368,85300,0.397,1.159,0.866,129.3,189.5,-17,-19.8,-13.1,23.7,0.761436811,0.198339793,-0.61568041,0.0420239875
642,1609893,85300,0.441,0.987,0.847,74.1,189.4,-22.3,-19.8,-13.1,23.7,0.763664663,0.199713126,-0.612384411,0.043488876
643,1614242,85300,0.421,0.881,0.811,17.5,185.6,-25.8,-20.5,-13.1,23.9,0.766075625,0.200170904,-0.609149449,0.0440992462
644,1616553,85300,0.41,0.772,0.771,-39,176.5,-26.6,-20.5,-13.1,23.9,0.768608661,0.199713126,-0.606097598,0.0438856166
645,1618800,85310,0.367,0.59,0.683,-93.8,161.4,-23.9,-20.5,-13.1,23.9,0.771172216,0.198278756,-0.603381451,0.0429395428
646,1621043,85310,0.348,0.512,0.635,-144.7,140.2,-17.7,-20.5,-13.1,23.9,0.773644215,0.195959349,-0.601092563,0.0413525803
647,1623358,85310,0.329,0.446,0.576,-189.6,113.2,-10,-19.8,-14.7,22.6,0.775963622,0.192785424,-0.599291971,0.0391857662
648,1625347,85310,0.306,0.381,0.513,-227.2,81.2,-2.5,-19.8,-14.7,22.6,0.777977844,0.188879055,-0.598101749,0.0365001373
649,1627622,85320,0.326,0.284,0.383,-257.2,45.6,2.6,-19.8,-14.7,22.6,0.779595325,0.184453871,-0.597521897,0.0333872494
650,1629832,85320,0.346,0.219,0.311,-279.5,8.5,4.6,-19.8,-14.7,22.6,0.780816065,0.179631947,-0.597582934,0.0298471023
651,1633712,85320,0.389,0.199,0.275,-294.6,-27.4,2.8,-21,-14.8,22.2,0.781609546,0.174596393,-0.598254341,0.0259407331
652,1636090,85320,0.471,0.175,0.234,-302.7,-59.8,-2.2,-21,-14.8,22.2,0.78194525,0.169469283,-0.599414045,0.0217291787
653,1638296,85330,0.514,0.167,0.206,-304.8,-87,-9.5,-21,-14.8,22.2,0.78194525,0.164433729,-0.601001007,0.0172734764
654,1640520,85330,0.534,0.163,0.193,-302.9,-108.7,-17.6,-21,-14.8,22.2,0.781579028,0.159550768,-0.602893155,0.0126041444
655,1642565,85330,0.554,0.179,0.185,-299.1,-125.5,-25.3,-20.5,-16.2,21.6,0.780968657,0.15478988,-0.604998932,0.00778221992
656,1644787,85330,0.608,0.171,0.149,-295.6,-138.4,-31.8,-20.5,-16.2,21.6,0.780114139,0.150212104,-0.60728782,0.00286873989
657,1647311,85340,0.616,0.159,0.141,-292.9,-147.9,-37.2,-20.5,-16.2,21.6,0.779107028,0.145725883,-0.609698782,-0.00207525864
658,1651431,85340,0.636,0.147,0.133,-291.1,-154.6,-41.2,-20.5,-16.2,21.6,0.777947325,0.141300699,-0.612170782,-0.00714133122
659,1653754,85340,0.667,0.127,0.112,-289.8,-158.4,-44.6,-19.8,-17.2,21.3,0.776696066,0.136936552,-0.614642781,-0.0122684408
660,1655962,85340,0.702,0.123,0.104,-288.5,-159.2,-48.2,-19.8,-17.2,21.3,0.77538377,0.132663961,-0.61711478,-0.0174260689
661,1658289,85350,0.71,0.119,0.08,-286.9,-156.7,-52.7,-19.8,-17.2,21.3,0.774071474,0.128452406,-0.619495224,-0.022644734
662,1660281,85350,0.73,0.127,0.084,-284.6,-150.9,-58.4,-19.8,-17.2,21.3,0.772789697,0.124362926,-0.621723075,-0.0278939177
663,1664193,85350,0.789,0.091,0.071,-281.3,-142.1,-65.4,-19.3,-18.9,21.2,0.771538438,0.120426038,-0.623737297,-0.0332041383
664,1666064,85350,0.824,0.091,0.062,-277.1,-131.6,-73.1,-19.3,-18.9,21.2,0.770409253,0.116641743,-0.625537889,-0.0385448775
665,1668916,85360,0.828,0.095,0.07,-271.9,-120.6,-80.9,-19.3,-18.9,21.2,0.769371624,0.113071078,-0.627124851,-0.0439161351
666,1671094,85360,0.843,0.086,0.074,-266.1,-110.1,-87.9,-19.3,-18.9,21.2,0.76842555,0.109714042,-0.628498184,-0.0493179113
667,1673328,85360,0.863,0.063,0.065,-260.2,-100.9,-93.8,-17.5,-21.6,20.7,0.767540513,0.106540117,-0.629657888,-0.054689169
668,1675073,85360,0.89,0.043,0.045,-255.4,-93.6,-98.4,-17.5,-21.6,20.7,0.766716514,0.103488266,-0.630695517,-0.0600604266
669,1677408,85370,0.972,0.007,0.012,-252.3,-88.9,-101.8,-17.5,-21.6,20.7,0.765923032,0.100558489,-0.631611072,-0.0654622028
670,1679986,85370,1.023,-0.043,-0.024,-251.1,-86.6,-104.6,-17.5,-21.6,20.7,0.765099033,0.0976592303,-0.63246559,-0.0708334605
671,1684557,85370,1.07,-0.032,-0.033,-251,-85.9,-107.1,-17.8,-21.3,20.5,0.764275033,0.0948210089,-0.633259072,-0.0762657552
672,1686738,85370,1.105,-0.063,-0.03,-251,-85.9,-109.1,-17.8,-21.3,20.5,0.763420515,0.0920133061,-0.634022034,-0.0817285684
673,1688907,85380,1.137,-0.064,-0.023,-249.6,-85.1,-110.6,-17.8,-21.3,20.5,0.762535478,0.0892056032,-0.634784997,-0.0872219001
674,1691128,85380,1.164,-0.013,-0.038,-245.4,-82.6,-112.1,-17.8,-21.3,20.5,0.761619922,0.0865199744,-0.635456404,-0.0926236763
675,1693538,85380,1.184,-0.001,-0.042,-238.2,-78.4,-113.9,-17.4,-22.2,20.1,0.760765404,0.0839869381,-0.636036256,-0.0979644154
676,1695247,85380,1.199,-0.002,-0.031,-228.8,-73.4,-115.5,-17.4,-22.2,20.1,0.759880367,0.0816370128,-0.636555071,-0.103213599
677,1697543,85390,1.238,-0.002,-0.039,-218.7,-68.9,-115.9,-17.4,-22.2,20.1,0.759056368,0.0794701987,-0.63698233,-0.108279672
678,1700313,85390,1.254,0.001,-0.032,-208.1,-65.7,-114.1,-17.4,-22.2,20.1,0.758201849,0.0774559771,-0.63737907,-0.113193152
679,1702529,85390,1.273,-0.003,-0.02,-196.5,-63.6,-110,-16.8,-23.8,19.5,0.75737785,0.0755638295,-0.637745293,-0.117831965
680,1704874,85390,1.281,0.016,-0.02,-182.9,-61.6,-104,-16.8,-23.8,19.5,0.75655385,0.0738242744,-0.638111515,-0.122165593
681,1707264,85400,1.269,0.074,0.007,-167.4,-59.1,-96.3,-16.8,-23.8,19.5,0.75572985,0.0722373119,-0.638477737,-0.126194037
682,1711821,85400,1.258,0.09,0.004,-150.8,-56,-87.2,-16.8,-23.8,19.5,0.754936369,0.0708334605,-0.638843959,-0.129856258
683,1714083,85400,1.226,0.145,0.032,-134.7,-52.9,-76.9,-16,-24.4,19.2,0.754203925,0.0695211646,-0.639210181,-0.133030183
684,1716341,85400,1.203,0.157,0.045,-120.3,-50.8,-65.6,-16,-24.4,19.2,0.75347148,0.0683004242,-0.639606922,-0.135898923
685,1718581,85410,1.175,0.181,0.061,-107.9,-50.3,-53.7,-16,-24.4,19.2,0.752769555,0.0671407208,-0.640034181,-0.138370922
686,1720871,85410,1.152,0.204,0.073,-97.3,-51.5,-41.8,-16,-24.4,19.2,0.752067629,0.0659810175,-0.640522477,-0.140507218
687,1722805,85410,1.12,0.201,0.086,-88.4,-54,-30.4,-15.4,-25.9,18.2,0.751335185,0.0647602771,-0.641102329,-0.14230781
688,1725025,85410,1.073,0.205,0.098,-81,-57.2,-20.1,-15.4,-25.9,18.2,0.750572222,0.0635395367,-0.641743217,-0.143864254
689,1727558,85420,1.058,0.209,0.106,-74.5,-60.4,-11.6,-15.4,-25.9,18.2,0.749809259,0.0622882778,-0.642475661,-0.14517655
690,1731849,85420,1.042,0.217,0.115,-67.9,-63,-5.6,-15.4,-25.9,18.2,0.74898526,0.0610675375,-0.643299661,-0.146305734
691,1734355,85420,1.03,0.26,0.131,-60.3,-64.5,-2.5,-15.4,-24.9,18.4,0.74816126,0.0599078341,-0.64415418,-0.147282327
692,1736709,85420,1.03,0.276,0.131,-51.7,-64.7,-1.9,-15.4,-24.9,18.4,0.747306742,0.0588702048,-0.645039216,-0.148136845
693,1738937,85430,1.011,0.291,0.14,-42.8,-63.5,-2.9,-15.4,-24.9,18.4,0.746452223,0.0580156865,-0.645924253,-0.148869289
694,1741248,85430,0.964,0.303,0.168,-34.4,-60.9,-4.5,-15.4,-24.9,18.4,0.745628224,0.0573442793,-0.64680929,-0.149479659
695,1743450,85430,0.928,0.347,0.197,-27.6,-57.2,-5.8,-15.8,-25.4,18.7,0.744834742,0.0567949461,-0.64763329,-0.150059511
696,1745369,85430,0.913,0.378,0.205,-22.6,-53.2,-7,-15.8,-25.4,18.7,0.74407178,0.0563371685,-0.648426771,-0.150547807
697,1747593,85440,0.885,0.382,0.206,-19.6,-50,-8.2,-15.8,-25.4,18.7,0.743369854,0.0559404279,-0.649159215,-0.151036103
698,1749969,85440,0.882,0.383,0.174,-19.5,-48.2,-9.2,-15.8,-25.4,18.7,0.742667928,0.0556352428,-0.649861141,-0.151493881
699,1752530,85440,0.882,0.367,0.162,-22.3,-47.8,-9.7,-15.2,-25.5,18.5,0.741996521,0.0552079836,-0.650563066,-0.152043214
700,1754772,85440,0.878,0.356,0.147,-27.8,-48.4,-9.8,-15.2,-25.5,18.5,0.741325114,0.0547807245,-0.651234474,-0.152653584
701,1759281,85450,0.878,0.379,0.147,-34.2,-49.3,-9.7,-15.2,-25.5,18.5,0.740623188,0.0542008728,-0.651905881,-0.15335551
702,1761329,85450,0.854,0.387,0.147,-40.1,-49.9,-9.5,-15.2,-25.5,18.5,0.739921262,0.0534989471,-0.652577288,-0.154148991
703,1763876,85450,0.835,0.368,0.144,-50.9,-49.6,-7.2,-14.8,-25.4,18.7,0.739249855,0.0526139103,-0.653187658,-0.155034028
704,1766062,85450,0.831,0.333,0.128,-50.9,-49.6,-7.2,-14.8,-25.4,18.7,0.738578448,0.0517288736,-0.653798029,-0.155949583
705,1768325,85460,0.847,0.302,0.115,-57.1,-49,-5.6,-14.8,-25.4,18.7,0.737907041,0.0507217627,-0.654408399,-0.156895657
706,1770101,85460,0.839,0.259,0.091,-62.8,-47.8,-5.3,-14.8,-25.4,18.7,0.73729667,0.0495925779,-0.654957732,-0.157933287
707,1772413,85460,0.812,0.239,0.103,-65.5,-45.4,-6.7,-14.5,-26.6,18.4,0.7366863,0.0485244301,-0.655446028,-0.159031953
708,1777619,85460,0.808,0.251,0.115,-63.1,-41.6,-9.4,-14.5,-26.6,18.4,0.736106449,0.0474868007,-0.655873287,-0.160130619
709,1777619,85470,0.757,0.295,0.14,-55.6,-37.5,-12.3,-14.5,-26.6,18.4,0.735587634,0.0466322825,-0.656270028,-0.161168249
710,1781227,85470,0.733,0.307,0.141,-44.7,-34.2,-14.7,-14.5,-26.6,18.4,0.735099338,0.0460219123,-0.656666768,-0.162083804
711,1783405,85470,0.706,0.322,0.153,-33.1,-32.9,-15.6,-14.6,-26.5,18.5,0.734611042,0.0455946532,-0.657032991,-0.162846767
712,1785331,85470,0.698,0.362,0.162,-23.3,-33.6,-15.1,-14.6,-26.5,18.5,0.734092227,0.0453199866,-0.657490768,-0.163457137
713,1787709,85480,0.694,0.409,0.158,-16.8,-36.2,-13.9,-14.6,-26.5,18.5,0.733542894,0.045106357,-0.658009583,-0.163945433
714,1789825,85480,0.71,0.428,0.143,-14.2,-39.6,-12.7,-14.6,-26.5,18.5,0.732932524,0.0449232459,-0.658558916,-0.164403211
715,1792408,85480,0.714,0.448,0.139,-14.7,-42.8,-12.2,-14.1,-26.3,18.3,0.732291635,0.0447096164,-0.659199805,-0.164860988
716,1796872,85480,0.702,0.48,0.14,-17.2,-44.9,-12.3,-14.1,-26.3,18.3,0.731620228,0.0444654683,-0.659840693,-0.165349284
717,1797263,85490,0.702,0.499,0.14,-20.5,-45.2,-13.1,-14.1,-26.3,18.3,0.73094882,0.0441602832,-0.660451064,-0.165898618
718,1801426,85490,0.702,0.499,0.14,-20.5,-45.2,-13.1,-14.1,-26.3,18.3,0.73094882,0.0441602832,-0.660451064,-0.165898618
719,1803624,85490,0.718,0.531,0.124,-26.3,-42.4,-16.7,-14.1,-26.6,18.9,0.729606006,0.043488876,-0.661641285,-0.167180395
720,1805877,85490,0.733,0.546,0.112,-29,-40.7,-19.4,-14.1,-26.6,18.9,0.728995636,0.0431531724,-0.6621601,-0.167943358
721,1807841,85500,0.749,0.55,0.108,-31.6,-39.5,-22.5,-14.1,-26.6,18.9,0.728354747,0.0428479873,-0.662648396,-0.168797876
722,1811708,85500,0.761,0.558,0.108,-34.2,-38.4,-25.4,-14.1,-26.6,18.9,0.727744377,0.0425122837,-0.663106174,-0.16974395
723,1814012,85500,0.757,0.531,0.1,-38.2,-37.5,-28.5,-13.6,-26.8,18.5,0.726981414,0.0428479873,-0.663502915,-0.171361431
724,1816247,85500,0.772,0.519,0.092,-38.2,-37.5,-28.5,-13.6,-26.8,18.5,0.726371044,0.0425122837,-0.663930174,-0.17239906
725,1818418,85510,0.776,0.503,0.088,-39.4,-37.9,-29.5,-13.6,-26.8,18.5,0.725730155,0.0421765801,-0.664357433,-0.173467208
726,1820831,85510,0.796,0.511,0.08,-39.5,-39.1,-31.2,-13.6,-26.8,18.5,0.725089267,0.0418408765,-0.66481521,-0.174565874
727,1822776,85510,0.819,0.491,0.071,-38.2,-40.8,-33.7,-13.5,-27.6,18.2,0.724387341,0.0415967284,-0.665272988,-0.175695059
728,1825023,85510,0.827,0.491,0.075,-35.8,-43,-36.7,-13.5,-27.6,18.2,0.723624378,0.0413830988,-0.665791803,-0.176854762
729,1828771,85520,0.843,0.495,0.078,-33.5,-45,-39.8,-13.5,-27.6,18.2,0.722891934,0.0412610248,-0.666341136,-0.177953429
730,1831072,85520,0.862,0.529,0.086,-31.7,-46.8,-42.7,-13.5,-27.6,18.2,0.722067934,0.0411999878,-0.666920988,-0.179174169
731,1833275,85520,0.89,0.545,0.086,-31.3,-48.4,-45.1,-13.3,-27.2,18.2,0.721213416,0.0411694693,-0.667500839,-0.18039491
732,1835659,85520,0.905,0.537,0.07,-32.4,-50.4,-46.5,-13.3,-27.2,18.2,0.720328379,0.0411389508,-0.668141728,-0.181646168
733,1837639,85530,0.894,0.522,0.058,-35.9,-52.9,-46.3,-13.3,-27.2,18.2,0.719412824,0.0410473952,-0.668782617,-0.182927946
734,1841527,85530,0.905,0.51,0.046,-41.7,-55.5,-44.3,-13.3,-27.2,18.2,0.718436232,0.0408032472,-0.669454024,-0.184301279
735,1843758,85530,0.917,0.494,0.038,-48.5,-58,-41.5,-12.8,-27.4,17.8,0.717459639,0.0404370251,-0.670125431,-0.18570513
736,1846014,85530,0.917,0.475,0.034,-55.1,-60.2,-38.7,-12.8,-27.4,17.8,0.716483047,0.0398876919,-0.670796838,-0.187170019
737,1848277,85540,0.917,0.463,0.03,-60.6,-62.1,-36.9,-12.8,-27.4,17.8,0.715475936,0.0392162847,-0.671498764,-0.188695944
738,1850306,85540,0.941,0.451,0.025,-64.8,-63.7,-36.4,-12.8,-27.4,17.8,0.714438307,0.0384838404,-0.67220069,-0.190252388
739,1852514,85540,0.948,0.447,0.025,-67.5,-64.9,-36.9,-12.3,-27.8,18.3,0.713400678,0.0376903592,-0.672902615,-0.191869869
740,1855819,85540,0.941,0.431,0.029,-68.8,-65.7,-38.2,-12.3,-27.8,18.3,0.71233253,0.036896878,-0.673604541,-0.193548387
741,1857901,85550,0.98,0.443,0.021,-69,-66.2,-39.9,-12.3,-27.8,18.3,0.711233863,0.0361644337,-0.674306467,-0.195226905
742,1860062,85550,0.992,0.439,0.016,-68.7,-66.6,-41.6,-12.3,-27.8,18.3,0.710135197,0.035401471,-0.675008393,-0.196935942
743,1863378,85550,1.011,0.442,0.02,-67.7,-67.1,-44,-12.2,-28.2,17.7,0.70885342,0.0349131748,-0.675832392,-0.198797571
744,1865859,85550,1.011,0.442,0.02,-67.7,-67.1,-44,-12.2,-28.2,17.7,0.707724235,0.0342112491,-0.676534318,-0.200537126
745,1869483,85560,1.058,0.45,0.008,-67.9,-66.8,-44.6,-12.2,-28.2,17.7,0.70659505,0.0335398419,-0.677236244,-0.202276681
746,1869799,85560,1.07,0.446,0,-68.8,-65.9,-44.8,-12.2,-28.2,17.7,0.705465865,0.0328684347,-0.677907651,-0.204046754
747,1873962,85560,1.081,0.442,-0.004,-70.5,-64.4,-44.6,-11.7,-29.1,17.5,0.704367199,0.0321359905,-0.67854854,-0.205816828
748,1876288,85560,1.093,0.43,-0.008,-72.6,-62.3,-44,-11.7,-29.1,17.5,0.703299051,0.0314035463,-0.67915891,-0.20761742
749,1878505,85570,1.101,0.418,-0.008,-74.8,-59.7,-42.8,-11.7,-29.1,17.5,0.702261422,0.030610065,-0.679708243,-0.209418012
750,1880790,85570,1.105,0.41,-0.016,-76.8,-57,-41.2,-11.7,-29.1,17.5,0.701284829,0.0297860652,-0.680196539,-0.211218604
751,1882771,85570,1.097,0.399,-0.012,-78.5,-54.7,-39.3,-11.6,-28.4,17.2,0.700338755,0.028931547,-0.680654317,-0.213019196
752,1884986,85570,1.113,0.383,-0.017,-79.9,-53.2,-37.4,-11.6,-28.4,17.2,0.6994232,0.0280159917,-0.681051057,-0.214819788
753,1889077,85580,1.117,0.367,-0.013,-81.1,-52.5,-35.8,-11.6,-28.4,17.2,0.698507645,0.0270699179,-0.681447798,-0.21662038
754,1891245,85580,1.128,0.359,-0.017,-82.4,-52.7,-34.4,-11.6,-28.4,17.2,0.697622608,0.0260628071,-0.681844539,-0.218390454
755,1893507,85580,1.136,0.343,-0.025,-83.7,-53.4,-33.3,-10.9,-29.2,17.3,0.696707053,0.0250251778,-0.682241279,-0.220160527
756,1895388,85580,1.148,0.339,-0.03,-85.1,-54.2,-32.5,-10.9,-29.2,17.3,0.695791498,0.0239265114,-0.68263802,-0.221961119
757,1897583,85590,1.156,0.328,-0.034,-86.4,-54.9,-31.7,-10.9,-29.2,17.3,0.694845424,0.0228278451,-0.683034761,-0.223761711
758,1899963,85590,1.16,0.324,-0.034,-87.9,-55.2,-30.8,-10.9,-29.2,17.3,0.693929868,0.0216986602,-0.683431501,-0.225562304
759,1904651,85590,1.164,0.312,-0.034,-89.5,-55.3,-29.8,-10.7,-29.4,16.4,0.692983795,0.0205084384,-0.683797723,-0.227362896
760,1905004,85590,1.148,0.304,-0.03,-91.2,-55,-28.4,-10.7,-29.4,16.4,0.692068239,0.019287698,-0.684163945,-0.229194006
761,1909286,85600,1.132,0.3,-0.03,-92.5,-54.6,-26.7,-10.7,-29.4,16.4,0.691152684,0.0180364391,-0.684530168,-0.230994598
762,1911406,85600,1.125,0.304,-0.026,-93.2,-54.2,-24.9,-10.7,-29.4,16.4,0.690237129,0.0167241432,-0.684865871,-0.23279519
763,1913716,85600,1.113,0.312,-0.033,-93.2,-55.1,-21.7,-10.3,-29.8,16.7,0.689352092,0.0153508103,-0.685201575,-0.234534745
764,1915973,85600,1.113,0.301,-0.033,-93.2,-55.1,-21.7,-10.3,-29.8,16.7,0.688436537,0.0140079958,-0.685537278,-0.2362743
765,1918344,85610,1.113,0.301,-0.029,-93.3,-56.6,-20.7,-10.3,-29.8,16.7,0.687520981,0.0126041444,-0.6859035,-0.237983337
766,1920191,85610,1.086,0.309,-0.029,-93.7,-58.3,-20.3,-10.3,-29.8,16.7,0.686574908,0.011200293,-0.686300241,-0.239722892
767,1923670,85610,1.09,0.309,-0.033,-94,-59.7,-19.7,-10.2,-30.4,16.1,0.685598315,0.00979644154,-0.686696982,-0.241431928
768,1927093,85610,1.086,0.313,-0.025,-94.1,-60.7,-19.1,-10.2,-30.4,16.1,0.684560686,0.00833155309,-0.687093722,-0.243140965
769,1927472,85620,1.078,0.32,-0.017,-93.7,-60.9,-18.2,-10.2,-30.4,16.1,0.683584094,0.00689718314,-0.687490463,-0.244819483
770,1931489,85620,1.07,0.332,-0.013,-92.1,-60.3,-17.2,-10.2,-30.4,16.1,0.682607501,0.0054628132,-0.687917722,-0.246467483
771,1933607,85620,1.074,0.348,-0.005,-89.6,-58.6,-16.3,-9.4,-30.6,15.9,0.681661428,0.00405896176,-0.688283944,-0.248084964
772,1935996,85620,1.066,0.363,0.002,-86.4,-56.3,-15.7,-9.4,-30.6,15.9,0.680715354,0.00268562883,-0.688650166,-0.249610889
773,1937645,85630,1.066,0.379,0.003,-83.4,-53.8,-15.4,-9.4,-30.6,15.9,0.679830317,0.00140385144,-0.689016388,-0.251106296
774,1940089,85630,1.07,0.387,0,-81,-51.5,-15.7,-9.4,-30.6,15.9,0.678975799,0.000152592547,-0.689321574,-0.252540666
775,1942492,85630,1.07,0.395,0.003,-79.6,-49.5,-16.2,-9.7,-31,15.4,0.678151799,-0.00103762932,-0.689626759,-0.253975036
776,1945404,85630,1.066,0.399,0.003,-78.8,-48,-16.7,-9.7,-31,15.4,0.677327799,-0.00219733268,-0.689901425,-0.255409406
777,1948608,85640,1.066,0.411,-0.004,-78.3,-46.9,-17,-9.7,-31,15.4,0.6765038,-0.00335703604,-0.690145573,-0.256843776
778,1950227,85640,1.066,0.415,-0.004,-77.9,-46,-16.9,-9.7,-31,15.4,0.675710318,-0.0045167394,-0.690389721,-0.258278146
779,1952491,85640,1.066,0.418,-0.008,-77.5,-45.3,-16.8,-9.4,-31.3,14.9,0.674916837,-0.00567644276,-0.690633869,-0.259681997
780,1956602,85640,1.081,0.438,-0.008,-77,-44.4,-17,-9.4,-31.3,14.9,0.674153874,-0.00680562761,-0.690847499,-0.261085849
781,1958795,85650,1.085,0.45,-0.004,-76.5,-43.6,-17.7,-9.4,-31.3,14.9,0.673390912,-0.00790429395,-0.69103061,-0.2624897
782,1961158,85650,1.081,0.438,-0.004,-75.9,-42.6,-18.5,-9.4,-31.3,14.9,0.672627949,-0.00897244179,-0.69124424,-0.263893551
783,1963388,85650,1.074,0.438,-0.004,-75.8,-40,-19.2,-9,-31.5,14.6,0.671895505,-0.0100405896,-0.691396832,-0.265327921
784,1965329,85650,1.062,0.434,-0.003,-75.8,-40,-19.2,-9,-31.5,14.6,0.67116306,-0.0111087374,-0.691549425,-0.266731773
785,1967616,85660,1.058,0.438,-0.003,-76.3,-38.2,-19.1,-9,-31.5,14.6,0.670430616,-0.0121463668,-0.691671499,-0.268166143
786,1971916,85660,1.054,0.438,-0.003,-76.9,-36.4,-19.3,-9,-31.5,14.6,0.669759209,-0.0131839961,-0.691763054,-0.269600513
787,1972456,85660,1.035,0.427,0.004,-77.5,-34.6,-19.7,-8.9,-31.8,14.6,0.669087802,-0.0142216254,-0.691793573,-0.271034883
788,1976866,85660,1.019,0.423,0.004,-77.7,-33.1,-20.1,-8.9,-31.8,14.6,0.668446913,-0.0152592547,-0.691824091,-0.272499771
789,1977235,85670,1.011,0.419,0.004,-77.9,-31.8,-20.3,-8.9,-31.8,14.6,0.667836543,-0.016235847,-0.69185461,-0.27396466
790,1981389,85670,1.003,0.415,0,-77.9,-30.9,-20.5,-8.9,-31.8,14.6,0.667195654,-0.0173039949,-0.691824091,-0.275429548
791,1983549,85670,0.984,0.404,0.001,-78.2,-30.3,-20.8,-8.8,-32.5,14.1,0.666585284,-0.0183111057,-0.691824091,-0.276894436
792,1985815,85670,0.98,0.404,0.001,-78.5,-29.8,-20.9,-8.8,-32.5,14.1,0.665974914,-0.019287698,-0.691763054,-0.278389843
793,1987524,85680,0.972,0.408,0.005,-78.8,-29.4,-21,-8.8,-32.5,14.1,0.665364544,-0.0203253273,-0.691732536,-0.279854732
794,1989909,85680,0.972,0.404,-0.002,-79.1,-29,-21,-8.8,-32.5,14.1,0.664754173,-0.0213324381,-0.691671499,-0.281350139
795,1993372,85680,0.964,0.4,0.005,-79.3,-28.6,-21,-8.5,-32.2,14.2,0.664174322,-0.0223395489,-0.691610462,-0.282845546
796,1995932,85680,0.956,0.412,0.001,-79.7,-28.1,-20.9,-8.5,-32.2,14.2,0.663563952,-0.0233161412,-0.691549425,-0.284340953
797,1997874,85690,0.956,0.408,0.005,-80.2,-27.5,-20.8,-8.5,-32.2,14.2,0.6629841,-0.0243537706,-0.691457869,-0.28583636
798,2000153,85690,0.941,0.408,0.005,-81.2,-26.8,-20.7,-8.5,-32.2,14.2,0.662404248,-0.0253913999,-0.691335795,-0.287331767
799,2002555,85690,0.937,0.416,0.002,-82.3,-26.1,-20.7,-8.5,-33,13.9,0.661854915,-0.0264290292,-0.691213721,-0.288857692
800,2005377,85690,0.933,0.412,0.002,-83.8,-25.3,-20.8,-8.5,-33,13.9,0.661275063,-0.0274666585,-0.691061129,-0.290414136
801,2007604,85700,0.921,0.401,-0.005,-85.4,-24.8,-21,-8.5,-33,13.9,0.66072573,-0.0285653249,-0.690878018,-0.292001099
802,2009900,85700,0.917,0.401,-0.005,-87.1,-24.3,-21.2,-8.5,-33,13.9,0.660145878,-0.0296639912,-0.690694906,-0.293588061
803,2012321,85700,0.914,0.393,-0.013,-90.2,-23.2,-22,-8.4,-33.2,13.2,0.659474471,-0.0306405835,-0.690572832,-0.295297098
804,2016189,85700,0.914,0.393,-0.013,-91.3,-22.7,-22.5,-8.4,-33.2,13.2,0.658925138,-0.0317697684,-0.690328684,-0.296975616
805,2018412,85710,0.906,0.381,-0.009,-91.3,-22.7,-22.5,-8.4,-33.2,13.2,0.658375805,-0.0328989532,-0.690084536,-0.298654134
806,2020054,85710,0.902,0.377,-0.013,-92.2,-22.2,-23,-8.4,-33.2,13.2,0.657826472,-0.0340281381,-0.68980987,-0.30036317
807,2022368,85710,0.906,0.369,-0.009,-93.1,-21.6,-23.7,-8,-33.2,12.4,0.657277139,-0.0351573229,-0.689535203,-0.302102725
808,2024889,85710,0.91,0.362,-0.017,-93.9,-21,-24.6,-8,-33.2,12.4,0.656697287,-0.0362559893,-0.689230018,-0.30384228
809,2028829,85720,0.914,0.358,-0.017,-94.7,-20.4,-25.5,-8,-33.2,12.4,0.656147954,-0.0373851741,-0.688924833,-0.305612354
810,2031069,85720,0.925,0.354,-0.018,-95.4,-19.9,-26.5,-8,-33.2,12.4,0.655598621,-0.0384838404,-0.688589129,-0.307412946
811,2033307,85720,0.925,0.342,-0.018,-96,-19.5,-27.4,-7.6,-33.8,12.6,0.655049287,-0.0395825068,-0.688253426,-0.309244057
812,2035003,85720,0.933,0.33,-0.022,-96.4,-19.1,-28.4,-7.6,-33.8,12.6,0.654469436,-0.0406506546,-0.687887204,-0.311075167
813,2037687,85730,0.937,0.326,-0.018,-96.7,-18.5,-29.3,-7.6,-33.8,12.6,0.653920103,-0.0417188025,-0.687520981,-0.312936796
814,2040341,85730,0.941,0.326,-0.018,-96.7,-17.9,-30.1,-7.6,-33.8,12.6,0.653309732,-0.0427564318,-0.687154759,-0.314798425
815,2042546,85730,0.945,0.318,-0.022,-96.5,-16.9,-30.5,-7.1,-33.5,12.2,0.652790918,-0.0437940611,-0.686758019,-0.316660054
816,2044842,85730,0.945,0.31,-0.015,-96.2,-16.9,-30,-7.1,-33.5,12.2,0.652241585,-0.0448316904,-0.686361278,-0.318521683
817,2047445,85740,0.949,0.306,-0.019,-95.9,-17.2,-29.2,-7.1,-33.5,12.2,0.651692251,-0.0458998383,-0.685964537,-0.320352794
818,2050012,85740,0.941,0.306,-0.015,-95.9,-17.7,-28.3,-7.1,-33.5,12.2,0.6511124,-0.0469069491,-0.685567797,-0.322153386
819,2052679,85740,0.941,0.295,-0.015,-96.1,-18.3,-27.2,-7.2,-34.6,11.4,0.650563066,-0.0480361339,-0.685171056,-0.323984497
820,2055316,85740,0.941,0.295,-0.015,-96.7,-19,-26.2,-7.2,-34.6,11.4,0.649983215,-0.0491653188,-0.684774316,-0.325785089
821,2057481,85750,0.945,0.283,-0.015,-97.3,-19.5,-25.4,-7.2,-34.6,11.4,0.649403363,-0.0502945036,-0.684408094,-0.327555162
822,2061769,85750,0.945,0.283,-0.011,-97.8,-20,-24.8,-7.2,-34.6,11.4,0.648823511,-0.051454207,-0.684011353,-0.329355754
823,2063894,85750,0.933,0.287,-0.022,-97.9,-20.3,-24.3,-7,-35,11.2,0.648060549,-0.0533158361,-0.68407239,-0.330362865
824,2066218,85750,0.933,0.287,-0.022,-97.9,-20.6,-24.1,-7,-35,11.2,0.647480697,-0.0544755394,-0.683706168,-0.332132939
825,2068562,85760,0.929,0.291,-0.026,-97.8,-20.9,-24,-7,-35,11.2,0.646870327,-0.0556657613,-0.683309427,-0.333903012
826,2070431,85760,0.949,0.271,-0.035,-98,-21.9,-23.9,-7,-35,11.2,0.646229438,-0.0568559832,-0.682943205,-0.335673086
827,2072674,85760,0.945,0.275,-0.035,-98.4,-23.5,-24,-6.6,-34.4,10,0.645588549,-0.058046205,-0.682576983,-0.337473678
828,2076869,85760,0.949,0.267,-0.035,-98.4,-25.1,-24,-6.6,-34.4,10,0.644917142,-0.0592669454,-0.682241279,-0.339243751
829,2077290,85770,0.957,0.267,-0.031,-97.6,-26.4,-24,-6.6,-34.4,10,0.644215217,-0.0604876858,-0.681905576,-0.340983306
830,2082202,85770,0.957,0.259,-0.031,-95.9,-26.8,-23.8,-6.6,-34.4,10,0.643513291,-0.0616779077,-0.681600391,-0.342722861
831,2082677,85770,0.953,0.255,-0.019,-93.6,-26.5,-23.1,-6.7,-35.1,9.6,0.642811365,-0.062837611,-0.681295206,-0.344401379
832,2085990,85770,0.949,0.255,-0.019,-90.8,-25.4,-22.2,-6.7,-35.1,9.6,0.642139958,-0.0639667959,-0.681020539,-0.34601886
833,2088769,85780,0.949,0.263,-0.015,-87.8,-24,-21.2,-6.7,-35.1,9.6,0.641499069,-0.0650349437,-0.680715354,-0.347605823
834,2090953,85780,0.949,0.263,-0.023,-85.1,-22.6,-20.4,-6.7,-35.1,9.6,0.640888699,-0.06613361,-0.680410169,-0.34910123
835,2093299,85780,0.945,0.267,-0.031,-82.9,-21.2,-20.3,-6.7,-35.2,9.2,0.640308847,-0.0671407208,-0.680104984,-0.350596637
836,2095011,85780,0.937,0.263,-0.031,-81,-19.9,-20.7,-6.7,-35.2,9.2,0.639728996,-0.0681173132,-0.679799799,-0.352031007
837,2099059,85790,0.941,0.267,-0.035,-79.6,-18.8,-21.4,-6.7,-35.2,9.2,0.639149144,-0.0690633869,-0.679464095,-0.353526414
838,2101395,85790,0.941,0.271,-0.031,-78.2,-18.1,-21.9,-6.7,-35.2,9.2,0.638599811,-0.0699789422,-0.67915891,-0.354960784
839,2103700,85790,0.941,0.275,-0.031,-76.8,-17.6,-22.2,-6.6,-35.4,8.7,0.638050478,-0.0708334605,-0.678853725,-0.356364635
840,2106024,85790,0.941,0.283,-0.03,-75.1,-17.2,-22.3,-6.6,-35.4,8.7,0.637501144,-0.0716879788,-0.678518021,-0.357768487
841,2109867,85800,0.945,0.283,-0.031,-73.2,-17,-22.3,-6.6,-35.4,8.7,0.636951811,-0.0725119785,-0.678243355,-0.35914182
842,2110335,85800,0.945,0.291,-0.027,-71.2,-16.8,-22.1,-6.6,-35.4,8.7,0.636432997,-0.0733054598,-0.677938169,-0.360484634
843,2113442,85800,0.949,0.295,-0.027,-69.3,-16.8,-22,-6.2,-36.1,8.4,0.63554796,-0.075533311,-0.678701132,-0.360118412
844,2116297,85800,0.953,0.295,-0.027,-67.7,-16.9,-22.1,-6.2,-36.1,8.4,0.634998627,-0.0762657552,-0.678426466,-0.361400189
845,2118652,85810,0.949,0.295,-0.027,-66.3,-17,-22.1,-6.2,-36.1,8.4,0.634449293,-0.0770287179,-0.678182318,-0.362681967
846,2120878,85810,0.949,0.295,-0.019,-65,-17,-22.2,-6.2,-36.1,8.4,0.633930479,-0.0777306436,-0.677938169,-0.363902707
847,2122611,85810,0.953,0.294,-0.019,-63.8,-16.8,-22.1,-5.9,-34.9,8.4,0.633381146,-0.0784020508,-0.67772454,-0.365123447
848,2125954,85810,0.957,0.302,-0.007,-62.6,-16.6,-22,-5.9,-34.9,8.4,0.632862331,-0.0790734581,-0.677480392,-0.366344188
849,2129542,85820,0.961,0.306,-0.015,-61.5,-16.3,-21.9,-5.9,-34.9,8.4,0.632343516,-0.0797448653,-0.677236244,-0.36753441
850,2129872,85820,0.964,0.306,-0.003,-60.5,-16,-21.9,-5.9,-34.9,8.4,0.631824702,-0.080385754,-0.677022614,-0.368694113
851,2134085,85820,0.964,0.306,-0.007,-59.7,-15.9,-21.9,-5.5,-36.1,7.9,0.631305887,-0.0809961241,-0.676808985,-0.369853816
852,2136249,85820,0.964,0.306,-0.011,-59,-15.7,-21.8,-5.5,-36.1,7.9,0.630787072,-0.0816370128,-0.676595355,-0.370983001
853,2138503,85830,0.968,0.306,-0.011,-58.3,-15.7,-21.6,-5.5,-36.1,7.9,0.630268258,-0.082247383,-0.676351207,-0.372112186
854,2140765,85830,0.968,0.302,-0.015,-57.7,-15.6,-21.5,-5.5,-36.1,7.9,0.629749443,-0.0828272347,-0.676137577,-0.373241371
855,2142772,85830,0.964,0.306,-0.007,-56.8,-15.4,-21.5,-5.5,-36.2,7.3,0.629261147,-0.0834376049,-0.675923948,-0.374340037
856,2145064,85830,0.964,0.302,-0.003,-55.7,-15.3,-21.5,-5.5,-36.2,7.3,0.628742332,-0.0839869381,-0.675740837,-0.375438704
857,2147260,85840,0.964,0.306,-0.007,-54.4,-15.4,-21.5,-5.5,-36.2,7.3,0.628254036,-0.0845667898,-0.675527207,-0.376506851
858,2149827,85840,0.968,0.306,0.004,-53,-15.7,-21.7,-5.5,-36.2,7.3,0.627735221,-0.0850550859,-0.675344096,-0.377544481
859,2154243,85840,0.964,0.302,0,-51.6,-16.2,-21.8,-5.5,-36.7,6.7,0.627216407,-0.0856044191,-0.675191504,-0.37858211
860,2156527,85840,0.968,0.31,0,-50.3,-16.8,-22.1,-5.5,-36.7,6.7,0.626697592,-0.0861232337,-0.675038911,-0.379589221
861,2158755,85850,0.964,0.306,0,-48.8,-17.5,-22.3,-5.5,-36.7,6.7,0.626148259,-0.0865810114,-0.674916837,-0.380596332
862,2161009,85850,0.972,0.317,0.008,-47.5,-18.2,-22.4,-5.5,-36.7,6.7,0.625598926,-0.0870693075,-0.674825282,-0.381572924
863,2163279,85850,0.98,0.321,0.007,-46.3,-18.8,-22.5,-5.1,-36.8,6.7,0.625019074,-0.0882595294,-0.675099948,-0.381756035
864,2165282,85850,0.98,0.321,0.007,-45.2,-19.4,-22.7,-5.1,-36.8,6.7,0.624469741,-0.088717307,-0.675038911,-0.382702109
865,2167505,85860,0.976,0.325,0.015,-44.2,-19.9,-22.7,-5.1,-36.8,6.7,0.623889889,-0.0891445662,-0.674977874,-0.383617664
866,2170074,85860,0.976,0.333,0.012,-43.3,-20.3,-22.8,-5.1,-36.8,6.7,0.623310038,-0.0895718253,-0.674947356,-0.384533219
867,2173707,85860,0.976,0.337,0.019,-42.4,-20.7,-22.8,-5.2,-35.6,6.9,0.622730186,-0.0899380474,-0.674916837,-0.385418256
868,2175913,85860,0.98,0.345,0.012,-41.5,-21.1,-22.8,-5.2,-35.6,6.9,0.622150334,-0.0903958251,-0.674886319,-0.386303293
869,2178216,85870,0.98,0.353,0.012,-40.6,-21.4,-22.7,-5.2,-35.6,6.9,0.621570482,-0.0907925657,-0.674886319,-0.387157811
870,2180196,85870,0.968,0.356,0.02,-39.7,-21.6,-22.6,-5.2,-35.6,6.9,0.620960112,-0.0911587878,-0.674886319,-0.388012329
871,2182238,85870,0.976,0.364,0.016,-38.8,-21.6,-22.4,-4.9,-36.6,5.8,0.620380261,-0.0915555284,-0.674886319,-0.388836329
872,2185912,85870,0.98,0.364,0.02,-38.1,-21.5,-22.2,-4.9,-36.6,5.8,0.619800409,-0.091891232,-0.674916837,-0.389660329
873,2187982,85880,0.98,0.368,0.016,-37.5,-21.3,-22,-4.9,-36.6,5.8,0.619220557,-0.0922879727,-0.674916837,-0.390484329
874,2191225,85880,0.976,0.372,0.024,-37,-21.1,-21.7,-4.9,-36.6,5.8,0.618640706,-0.0926541948,-0.674947356,-0.39127781
875,2193470,85880,0.976,0.368,0.028,-36.5,-20.8,-21.3,-4.9,-37.2,5.9,0.618091372,-0.0929898984,-0.674947356,-0.392040773
876,2196296,85880,0.972,0.372,0.02,-36.1,-20.4,-20.8,-4.9,-37.2,5.9,0.617542039,-0.0933561205,-0.674947356,-0.392834254
877,2198495,85890,0.976,0.372,0.02,-35.5,-19.9,-20.4,-4.9,-37.2,5.9,0.616992706,-0.0936918241,-0.674977874,-0.393597217
878,2200336,85890,0.98,0.38,0.024,-35,-19.7,-20.1,-4.9,-37.2,5.9,0.616443373,-0.0940580462,-0.674977874,-0.394329661
879,2202613,85890,0.98,0.376,0.024,-34.4,-19.5,-19.8,-4.7,-36.8,5.5,0.615924558,-0.0943937498,-0.674977874,-0.395062105
880,2204924,85890,0.984,0.384,0.028,-33.7,-19.2,-19.4,-4.7,-36.8,5.5,0.615405744,-0.0947294534,-0.674977874,-0.395794549
881,2207553,85900,0.984,0.376,0.028,-33.2,-18.6,-19.1,-4.7,-36.8,5.5,0.614886929,-0.0950346385,-0.674977874,-0.396496475
882,2210123,85900,0.976,0.38,0.032,-32.7,-17.9,-18.7,-4.7,-36.8,5.5,0.614398633,-0.0953703421,-0.674977874,-0.397198401
883,2212922,85900,0.98,0.376,0.032,-32.5,-17.2,-18.3,-4.6,-36.9,5.4,0.613879818,-0.0961027863,-0.675191504,-0.397442549
884,2215201,85900,0.984,0.376,0.028,-32.3,-16.4,-18,-4.6,-36.9,5.4,0.61342204,-0.0964079714,-0.675160985,-0.398113956
885,2217464,85910,0.98,0.376,0.032,-32.1,-15.8,-18,-4.6,-36.9,5.4,0.612964263,-0.0967131565,-0.675130467,-0.398815882
886,2219950,85910,0.984,0.372,0.035,-31.8,-15.1,-18.1,-4.6,-36.9,5.4,0.612506485,-0.0969878231,-0.675099948,-0.399487289
887,2222309,85910,0.98,0.368,0.028,-31.4,-14.6,-18.1,-4.3,-36,6.6,0.612079226,-0.0972624897,-0.67506943,-0.400158696
888,2226786,85910,0.984,0.364,0.027,-31,-14.1,-18,-4.3,-36,6.6,0.611651967,-0.0975371563,-0.675008393,-0.400830103
889,2228966,85920,0.98,0.364,0.028,-30.4,-13.7,-18,-4.3,-36,6.6,0.611224708,-0.0978118229,-0.674977874,-0.401501511
890,2231151,85920,0.992,0.368,0.031,-29.8,-13.4,-17.8,-4.3,-36,6.6,0.610797449,-0.0980559709,-0.674947356,-0.402142399
891,2233391,85920,0.984,0.364,0.031,-29.2,-13.3,-17.5,-4.5,-37.2,5,0.610400708,-0.098300119,-0.674886319,-0.402783288
892,2235349,85920,0.988,0.364,0.027,-28.5,-13.2,-17,-4.5,-37.2,5,0.609973449,-0.0985442671,-0.6748558,-0.403393658
893,2237396,85930,0.988,0.364,0.027,-28,-13.1,-16.4,-4.5,-37.2,5,0.609576708,-0.0987884152,-0.674825282,-0.404004028
894,2240108,85930,0.988,0.36,0.027,-27.6,-12.9,-15.9,-4.5,-37.2,5,0.609179968,-0.0990325632,-0.674794763,-0.40458388
895,2242251,85930,0.984,0.36,0.023,-27.2,-12.7,-15.6,-4.2,-37.3,4.8,0.608813746,-0.0992767113,-0.674733726,-0.405163732
896,2244858,85930,0.984,0.364,0.02,-26.8,-12.5,-15.2,-4.2,-37.3,4.8,0.608417005,-0.0995208594,-0.674703207,-0.405743583
897,2249355,85940,0.984,0.364,0.031,-26.5,-12.3,-14.9,-4.2,-37.3,4.8,0.608050783,-0.0997650075,-0.674672689,-0.406292917
898,2249743,85940,0.98,0.364,0.024,-26.1,-12,-14.4,-4.2,-37.3,4.8,0.607684561,-0.100009156,-0.674611652,-0.40684225
899,2252302,85940,0.976,0.372,0.02,-25.7,-11.7,-13.8,-3.9,-37.6,4.8,0.607348857,-0.100253304,-0.674581133,-0.407391583
900,2256797,85940,0.976,0.368,0.028,-25.3,-11.4,-13.1,-3.9,-37.6,4.8,0.607013153,-0.100497452,-0.674550615,-0.407910398
901,2258763,85950,0.972,0.368,0.02,-24.8,-11.3,-12.4,-3.9,-37.6,4.8,0.60667745,-0.1007416,-0.674489578,-0.408429212
902,2261004,85950,0.972,0.368,0.024,-24.5,-11.2,-11.8,-3.9,-37.6,4.8,0.606341746,-0.100985748,-0.674459059,-0.408917508
903,2263363,85950,0.968,0.36,0.024,-24.4,-11.1,-11.4,-3.8,-37.4,4.6,0.606097598,-0.102298044,-0.674825282,-0.408337657
904,2265241,85950,0.956,0.364,0.028,-24,-11,-11.2,-3.8,-37.4,4.6,0.605761895,-0.10257271,-0.674794763,-0.408825953
905,2267479,85960,0.956,0.368,0.028,-23.6,-10.7,-10.8,-3.8,-37.4,4.6,0.605456709,-0.102816858,-0.674733726,-0.409283731
906,2270082,85960,0.952,0.364,0.024,-23,-10.6,-10.5,-3.8,-37.4,4.6,0.605151524,-0.103061007,-0.674703207,-0.409741508
907,2272812,85960,0.952,0.364,0.028,-22.4,-10.5,-10.1,-4,-36,6.1,0.604876858,-0.103305155,-0.674672689,-0.410168767
908,2275103,85960,0.949,0.372,0.028,-21.7,-10.4,-9.7,-4,-36,6.1,0.604571673,-0.103518784,-0.67464217,-0.410596026
909,2277636,85970,0.945,0.372,0.036,-21.1,-10.3,-9.4,-4,-36,6.1,0.604297006,-0.103762932,-0.674611652,-0.411023286
910,2280346,85970,0.941,0.368,0.032,-20.4,-10,-9.1,-4,-36,6.1,0.60402234,-0.103976562,-0.674581133,-0.411420026
911,2282545,85970,0.945,0.376,0.032,-19.9,-9.8,-8.9,-3.6,-37.1,4,0.603747673,-0.10422071,-0.674550615,-0.411786248
912,2284940,85970,0.937,0.372,0.028,-19.3,-9.6,-8.6,-3.6,-37.1,4,0.603473006,-0.104434339,-0.674520096,-0.412182989
913,2287407,85980,0.933,0.372,0.032,-18.8,-9.4,-8.1,-3.6,-37.1,4,0.603228858,-0.104647969,-0.674489578,-0.412549211
914,2291112,85980,0.933,0.376,0.036,-18.3,-9.1,-7.7,-3.6,-37.1,4,0.60298471,-0.10483108,-0.674459059,-0.412884915
915,2293893,85980,0.933,0.38,0.04,-17.7,-8.7,-7.4,-3.7,-37.7,3.8,0.602740562,-0.10504471,-0.674428541,-0.413220618
916,2296069,85980,0.933,0.38,0.036,-17.1,-8.4,-7.4,-3.7,-37.7,3.8,0.602496414,-0.105227821,-0.674398022,-0.413556322
917,2298329,85990,0.921,0.388,0.037,-16.5,-8.1,-7.3,-3.7,-37.7,3.8,0.602282785,-0.105410932,-0.674367504,-0.413892026
918,2300384,85990,0.925,0.392,0.033,-16,-8,-7.1,-3.7,-37.7,3.8,0.602069155,-0.105563524,-0.674367504,-0.414197211
919,2303660,85990,0.921,0.388,0.033,-15.7,-7.8,-7.1,-3.9,-37.4,3.7,0.601855525,-0.105777154,-0.674336985,-0.414502396
920,2305811,85990,0.921,0.388,0.033,-15.4,-7.5,-7.2,-3.9,-37.4,3.7,0.601641896,-0.105929746,-0.674306467,-0.414807581
921,2307753,86000,0.929,0.396,0.033,-14.9,-7.3,-7.2,-3.9,-37.4,3.7,0.601428266,-0.106112857,-0.674275948,-0.415112766
922,2309999,86000,0.921,0.396,0.029,-14.4,-6.9,-7.3,-3.9,-37.4,3.7,0.601214637,-0.106234931,-0.674275948,-0.415387432
923,2312581,86000,0.917,0.392,0.037,-13.8,-6.4,-7.3,-3.9,-37.5,3.9,0.601001007,-0.106662191,-0.674398022,-0.415387432
924,2316273,86000,0.917,0.392,0.037,-13.4,-5.9,-7.5,-3.9,-37.5,3.9,0.600817896,-0.106784265,-0.674398022,-0.415662099
925,2318441,86010,0.909,0.392,0.037,-12.9,-5.4,-7.8,-3.9,-37.5,3.9,0.600634785,-0.10687582,-0.674367504,-0.415936766
926,2320473,86010,0.906,0.392,0.037,-12.5,-4.9,-7.9,-3.9,-37.5,3.9,0.600451674,-0.106967376,-0.674336985,-0.416211432
927,2323836,86010,0.906,0.392,0.037,-12.5,-4.9,-7.9,-3.9,-37.5,3.9,0.600451674,-0.106967376,-0.674336985,-0.416211432
928,2325964,86010,0.906,0.392,0.033,-11.9,-4.3,-8.1,-3.5,-36.6,5.8,0.60011597,-0.107119968,-0.674275948,-0.416760765
929,2327894,86020,0.902,0.396,0.033,-11.5,-4.3,-8.1,-3.5,-36.6,5.8,0.599963378,-0.107181005,-0.67424543,-0.417035432
930,2330073,86020,0.906,0.396,0.037,-11.2,-4.1,-8,-3.5,-36.6,5.8,0.599780267,-0.107272561,-0.674214911,-0.417310099
931,2332869,86020,0.894,0.4,0.029,-10.9,-4.1,-7.8,-3,-37.8,3.8,0.599627674,-0.107333598,-0.674184393,-0.417554247
932,2335095,86020,0.898,0.392,0.037,-10.7,-4,-7.8,-3,-37.8,3.8,0.599475082,-0.107394635,-0.674153874,-0.417798395
933,2337394,86030,0.898,0.404,0.033,-10.5,-3.8,-7.7,-3,-37.8,3.8,0.599322489,-0.107455672,-0.674123356,-0.418042543
934,2339968,86030,0.894,0.4,0.037,-10.3,-3.5,-7.6,-3,-37.8,3.8,0.599169897,-0.107516709,-0.674092837,-0.418286691
935,2342242,86030,0.894,0.4,0.041,-10,-3.2,-7.6,-3.4,-37.7,3.8,0.599047823,-0.107516709,-0.674062319,-0.418530839
936,2346877,86030,0.89,0.408,0.045,-9.7,-2.9,-7.5,-3.4,-37.7,3.8,0.59889523,-0.107608264,-0.6740318,-0.418774987
937,2349736,86040,0.894,0.404,0.041,-9.4,-2.5,-7.5,-3.4,-37.7,3.8,0.598773156,-0.107638783,-0.674001282,-0.418988617
938,2350118,86040,0.894,0.408,0.041,-9,-2.1,-7.4,-3.4,-37.7,3.8,0.598620563,-0.107669301,-0.673970763,-0.419232765
939,2353380,86040,0.894,0.408,0.045,-8.6,-1.8,-7.4,-3.3,-37.7,3.6,0.598529008,-0.107669301,-0.673909726,-0.419446394
940,2355235,86040,0.894,0.408,0.053,-8,-1.5,-7.4,-3.3,-37.7,3.6,0.598437452,-0.10769982,-0.673879208,-0.419660024
941,2359324,86050,0.898,0.408,0.053,-7.3,-1.2,-7.5,-3.3,-37.7,3.6,0.598315378,-0.10769982,-0.673848689,-0.419873653
942,2361576,86050,0.894,0.412,0.045,-6.7,-0.9,-7.5,-3.3,-37.7,3.6,0.598223823,-0.107669301,-0.673818171,-0.420056764
943,2363896,86050,0.898,0.412,0.057,-6.1,-0.6,-7.5,-3.4,-37.8,3.5,0.598101749,-0.107852412,-0.673909726,-0.420026246
944,2365576,86050,0.894,0.412,0.057,-5.6,-0.4,-7.5,-3.4,-37.8,3.5,0.598010193,-0.107821894,-0.673879208,-0.420209357
945,2367927,86060,0.894,0.412,0.057,-5,-0.2,-7.5,-3.4,-37.8,3.5,0.597918638,-0.107791375,-0.673879208,-0.42036195
946,2370006,86060,0.894,0.412,0.061,-4.4,0,-7.6,-3.4,-37.8,3.5,0.597857601,-0.107730338,-0.673848689,-0.420545061
947,2373372,86060,0.898,0.416,0.061,-3.7,0,-7.4,-3.7,-37,5.3,0.597766045,-0.107669301,-0.673818171,-0.420697653
948,2375237,86060,0.894,0.408,0.057,-3,0,-7.3,-3.7,-37,5.3,0.597705008,-0.107608264,-0.673818171,-0.420819727
949,2377478,86070,0.894,0.423,0.065,-2.4,0,-7,-3.7,-37,5.3,0.597613453,-0.107516709,-0.673818171,-0.420941801
950,2380189,86070,0.898,0.42,0.053,-1.9,0.1,-6.8,-3.7,-37,5.3,0.597552416,-0.107455672,-0.673818171,-0.421063875
951,2384541,86070,0.898,0.423,0.061,-1.4,0.2,-6.5,-3.2,-37.9,3.2,0.597491379,-0.107364116,-0.673818171,-0.421185949
952,2384907,86070,0.894,0.427,0.061,-1.1,0.2,-6.2,-3.2,-37.9,3.2,0.59746086,-0.107303079,-0.673818171,-0.421277505
953,2389129,86080,0.898,0.431,0.057,-0.7,0.1,-6.1,-3.2,-37.9,3.2,0.597399823,-0.107211524,-0.673818171,-0.42136906
954,2391384,86080,0.901,0.431,0.057,-0.3,0,-5.9,-3.2,-37.9,3.2,0.597338786,-0.107119968,-0.673818171,-0.421460616
955,2393441,86080,0.898,0.431,0.061,0,0,-5.7,-3,-37.8,3.2,0.597277749,-0.107028413,-0.673818171,-0.421521653
956,2395855,86080,0.898,0.431,0.061,0.4,0.1,-5.6,-3,-37.8,3.2,0.59724723,-0.106967376,-0.673848689,-0.42158269
957,2397837,86090,0.898,0.427,0.057,0.8,0.1,-5.4,-3,-37.8,3.2,0.597186193,-0.10687582,-0.673879208,-0.421643727
958,2400112,86090,0.898,0.431,0.053,1.2,0.2,-5.2,-3,-37.8,3.2,0.597155675,-0.106753746,-0.673879208,-0.421704764
959,2404144,86090,0.905,0.435,0.061,1.6,0.1,-5,-3,-37.6,3.1,0.597094638,-0.106662191,-0.673909726,-0.421735282
960,2406111,86090,0.901,0.435,0.061,1.9,0.1,-4.6,-3,-37.6,3.1,0.597064119,-0.106540117,-0.673940245,-0.421765801
961,2408556,86100,0.909,0.431,0.061,2.3,0,-4.6,-3,-37.6,3.1,0.597033601,-0.10647908,-0.673970763,-0.421796319
962,2410798,86100,0.909,0.439,0.065,2.8,-0.1,-4.4,-3,-37.6,3.1,0.597003082,-0.106387524,-0.674001282,-0.421826838
963,2412763,86100,0.909,0.439,0.057,3.3,-0.3,-4.2,-3.4,-37.6,3.9,0.596942045,-0.106357006,-0.674123356,-0.421735282
964,2415081,86100,0.905,0.443,0.057,3.7,-0.5,-4,-3.4,-37.6,3.9,0.596911527,-0.10626545,-0.674153874,-0.421735282
965,2418391,86110,0.905,0.447,0.057,4,-0.7,-3.7,-3.4,-37.6,3.9,0.596881008,-0.106143376,-0.674214911,-0.421704764
966,2420064,86110,0.901,0.443,0.061,4.4,-0.8,-3.5,-3.4,-37.6,3.9,0.59685049,-0.10605182,-0.674275948,-0.421674245
967,2424245,86110,0.901,0.451,0.065,4.8,-1,-3.2,-3.3,-37,5.6,0.596819971,-0.105960265,-0.674336985,-0.421643727
968,2426382,86110,0.901,0.451,0.065,5.2,-1.1,-3,-3.3,-37,5.6,0.596789453,-0.105838191,-0.674428541,-0.421613208
969,2428453,86120,0.898,0.459,0.061,5.6,-1.3,-2.8,-3.3,-37,5.6,0.596728416,-0.105746635,-0.674489578,-0.421552171
970,2431975,86120,0.898,0.463,0.069,5.7,-1.5,-2.6,-3.3,-37,5.6,0.596697897,-0.10565508,-0.674581133,-0.421521653
971,2432327,86120,0.901,0.463,0.065,5.9,-1.7,-2.5,-3.1,-37.6,3.5,0.596667379,-0.105563524,-0.67464217,-0.421460616
972,2434946,86120,0.898,0.47,0.065,5.9,-1.8,-2.3,-3.1,-37.6,3.5,0.59663686,-0.10544145,-0.674733726,-0.421399579
973,2437439,86130,0.897,0.47,0.069,6.1,-2,-1.9,-3.1,-37.6,3.5,0.596606342,-0.105349895,-0.674825282,-0.421308023
974,2441849,86130,0.894,0.471,0.066,6.2,-2,-1.7,-3.1,-37.6,3.5,0.596575823,-0.105288858,-0.674916837,-0.421246986
975,2444208,86130,0.886,0.478,0.074,6.4,-2,-1.6,-3.4,-37.4,3.1,0.596545305,-0.105197302,-0.675008393,-0.421185949
976,2446354,86130,0.89,0.478,0.077,6.6,-1.9,-1.8,-3.4,-37.4,3.1,0.596514786,-0.105075228,-0.675099948,-0.421094394
977,2448712,86140,0.886,0.482,0.074,6.9,-1.9,-2,-3.4,-37.4,3.1,0.596484268,-0.104983673,-0.675191504,-0.421002838
978,2450932,86140,0.886,0.478,0.074,7.2,-1.9,-2.1,-3.4,-37.4,3.1,0.596453749,-0.104892117,-0.675283059,-0.420941801
979,2453969,86140,0.886,0.478,0.074,7.4,-2.1,-2.1,-2.8,-37.5,3.5,0.596423231,-0.104770043,-0.675374615,-0.420850246
980,2456171,86140,0.886,0.486,0.074,7.6,-2.1,-2.1,-2.8,-37.5,3.5,0.596392712,-0.104647969,-0.675496689,-0.42075869
981,2458440,86150,0.882,0.482,0.074,7.7,-2.2,-2.1,-2.8,-37.5,3.5,0.596331675,-0.104556413,-0.675588244,-0.420667135
982,2460400,86150,0.882,0.486,0.082,7.8,-2.1,-2.2,-2.8,-37.5,3.5,0.596301157,-0.104434339,-0.675710318,-0.420575579
983,2462584,86150,0.882,0.49,0.078,7.9,-2.1,-2.1,-3.3,-37.2,3.2,0.596087527,-0.103762932,-0.675771355,-0.42097232
984,2466879,86150,0.882,0.49,0.078,7.9,-2.1,-2.1,-3.3,-37.2,3.2,0.59602649,-0.10361034,-0.675862911,-0.420880764
985,2467272,86160,0.878,0.49,0.078,8,-2.2,-1.8,-3.3,-37.2,3.2,0.595995972,-0.103518784,-0.675984985,-0.420789209
986,2470889,86160,0.882,0.494,0.078,8.1,-2.3,-1.6,-3.3,-37.2,3.2,0.595965453,-0.103427229,-0.67607654,-0.420667135
987,2472994,86160,0.886,0.49,0.078,8.1,-2.2,-1.6,-3.3,-37.1,5.4,0.595934935,-0.103305155,-0.676198614,-0.420575579
988,2475040,86160,0.878,0.494,0.082,8.1,-2.1,-1.6,-3.3,-37.1,5.4,0.595904416,-0.103183081,-0.67629017,-0.420453505
989,2479087,86170,0.882,0.49,0.078,8.1,-2.1,-1.8,-3.3,-37.1,5.4,0.595904416,-0.103091525,-0.676412244,-0.42036195
990,2481979,86170,0.882,0.494,0.082,8.1,-2,-1.8,-3.3,-37.1,5.4,0.595873898,-0.102969451,-0.6765038,-0.420270394
991,2482398,86170,0.882,0.494,0.086,8.1,-2,-1.9,-3.3,-37.2,3.9,0.595843379,-0.102847377,-0.676625874,-0.420178838
992,2484919,86170,0.878,0.494,0.09,8.2,-1.9,-2,-3.3,-37.2,3.9,0.59581286,-0.102725303,-0.676717429,-0.420056764
993,2489322,86180,0.882,0.494,0.093,8.3,-1.8,-1.9,-3.3,-37.2,3.9,0.595782342,-0.102603229,-0.676839503,-0.419965209
994,2491497,86180,0.882,0.494,0.09,8.4,-1.6,-1.8,-3.3,-37.2,3.9,0.595751823,-0.102481155,-0.676931059,-0.419873653
995,2493800,86180,0.878,0.494,0.094,8.4,-1.6,-1.6,-3.3,-37.2,4.3,0.595721305,-0.102359081,-0.677022614,-0.419751579
996,2496011,86180,0.882,0.494,0.09,8.4,-1.7,-1.5,-3.3,-37.2,4.3,0.595721305,-0.102237007,-0.677144688,-0.419629505
997,2498392,86190,0.878,0.494,0.094,8.3,-1.8,-1.4,-3.3,-37.2,4.3,0.595690786,-0.102145451,-0.677236244,-0.41953795
998,2500283,86190,0.878,0.498,0.097,8.2,-1.9,-1.4,-3.3,-37.2,4.3,0.595660268,-0.102023377,-0.677358318,-0.419415876
999,2502477,86190,0.878,0.498,0.094,8.1,-1.8,-1.4,-3.3,-37.1,4.1,0.595629749,-0.101931822,-0.677449873,-0.41932432
1000,2505150,86190,0.874,0.494,0.094,8,-1.8,-1.4,-3.3,-37.1,4.1,0.595629749,-0.101809748,-0.677541429,-0.419232765
1001,2507751,86200,0.878,0.498,0.097,7.9,-2,-1.3,-3.3,-37.1,4.1,0.595599231,-0.101718192,-0.677663503,-0.419110691
1002,2511707,86200,0.874,0.498,0.094,7.7,-2,-1.2,-3.3,-37.1,4.1,0.595568712,-0.101596118,-0.677755058,-0.419019135
1003,2514067,86200,0.882,0.502,0.094,7.1,-2.1,-1.1,-2.8,-36.7,4,0.595477157,-0.100650044,-0.677480392,-0.419812616
1004,2516081,86200,0.87,0.494,0.09,7.1,-2.1,-1.1,-2.8,-36.7,4,0.595446638,-0.100558489,-0.677571947,-0.419721061
1005,2518443,86210,0.874,0.498,0.094,6.8,-2.1,-1,-2.8,-36.7,4,0.595446638,-0.100466933,-0.677663503,-0.419629505
1006,2521845,86210,0.878,0.502,0.09,6.6,-2.1,-1,-2.8,-36.7,4,0.59541612,-0.100375378,-0.677755058,-0.41953795
1007,2524293,86210,0.874,0.494,0.09,6.3,-2.1,-0.8,-3.4,-37.5,5.4,0.595385601,-0.100314341,-0.677846614,-0.419446394
1008,2526398,86210,0.874,0.494,0.09,6.3,-2.1,-0.8,-3.4,-37.5,5.4,0.595385601,-0.100314341,-0.677846614,-0.419446394
1009,2528848,86220,0.87,0.498,0.09,5.6,-2.2,-0.5,-3.4,-37.5,5.4,0.595324564,-0.100161748,-0.677999207,-0.419293802
1010,2531168,86220,0.874,0.502,0.086,5.2,-2.3,-0.3,-3.4,-37.5,5.4,0.595294046,-0.10013123,-0.678090762,-0.419202246
1011,2533398,86220,0.874,0.498,0.086,4.8,-2.5,-0.1,-2.9,-36.9,4.6,0.595263527,-0.100070193,-0.678151799,-0.419141209
1012,2536875,86220,0.874,0.502,0.086,4.3,-2.7,0,-2.9,-36.9,4.6,0.595233009,-0.100039674,-0.678243355,-0.419049654
1013,2537416,86230,0.874,0.502,0.086,3.8,-2.8,0.2,-2.9,-36.9,4.6,0.59520249,-0.100039674,-0.678304392,-0.418988617
1014,2539996,86230,0.874,0.502,0.09,3.4,-3,0.3,-2.9,-36.9,4.6,0.595171972,-0.100009156,-0.678395947,-0.41892758
1015,2544970,86230,0.878,0.506,0.082,3,-3.1,0.3,-3.1,-37,4.3,0.595141453,-0.100009156,-0.678456984,-0.418866543
1016,2544970,86230,0.874,0.506,0.086,2.6,-3.2,0.4,-3.1,-37,4.3,0.595110935,-0.100009156,-0.678518021,-0.418805506
1017,2547623,86240,0.878,0.502,0.086,2.2,-3.3,0.4,-3.1,-37,4.3,0.595049898,-0.100009156,-0.678579058,-0.418774987
1018,2549921,86240,0.882,0.506,0.09,1.9,-3.2,0.3,-3.1,-37,4.3,0.595019379,-0.100039674,-0.678640095,-0.418744469
1019,2552477,86240,0.882,0.51,0.082,1.6,-3,0.3,-3.4,-36.9,4.2,0.594988861,-0.100039674,-0.678701132,-0.418683432
1020,2556902,86240,0.886,0.51,0.082,1.3,-2.9,0.3,-3.4,-36.9,4.2,0.594958342,-0.100039674,-0.678731651,-0.418652913
1021,2559277,86250,0.882,0.506,0.086,0.9,-2.9,0.3,-3.4,-36.9,4.2,0.594897305,-0.100070193,-0.678792688,-0.418652913
1022,2561557,86250,0.89,0.505,0.093,0.5,-2.8,0.1,-3.4,-36.9,4.2,0.594866787,-0.100100711,-0.678823206,-0.418622394
1023,2564540,86250,0.89,0.502,0.086,-0.1,-2.6,0,-3.2,-36.9,4.4,0.594714194,-0.0995818964,-0.678701132,-0.419141209
1024,2564895,86250,0.89,0.502,0.086,-0.1,-2.6,0,-3.2,-36.9,4.4,0.594683676,-0.0995818964,-0.678731651,-0.419141209
1025,2567372,86260,0.897,0.505,0.089,-0.4,-2.5,-0.2,-3.2,-36.9,4.4,0.594653157,-0.0996124149,-0.678762169,-0.419141209
1026,2571885,86260,0.893,0.502,0.086,-0.8,-2.4,-0.4,-3.2,-36.9,4.4,0.59459212,-0.0996429334,-0.678792688,-0.419171728
1027,2572234,86260,0.893,0.502,0.086,-1.3,-2.3,-0.6,-3.2,-37.1,5.3,0.594561602,-0.0996734519,-0.678823206,-0.419202246
1028,2576278,86260,0.897,0.502,0.085,-1.7,-2.2,-0.7,-3.2,-37.1,5.3,0.594500565,-0.0997039705,-0.678823206,-0.419232765
