sample_index,elapsed_us,device_time_ms,acc_x_g,acc_y_g,acc_z_g,gyro_x_dps,gyro_y_dps,gyro_z_dps,mag_x_ut,mag_y_ut,mag_z_ut,quat_w,quat_x,quat_y,quat_z
0,4880,1611790,0.97,-0.045,0.252,-1.3,0.6,0.7,-5.3,24.4,-19.5,0.134281442,-0.595263527,-0.0936002686,-0.786675619
1,7050,1611790,0.97,-0.041,0.256,-1.3,0.6,0.6,-5.3,24.4,-19.5,0.134281442,-0.595233009,-0.0935392315,-0.786675619
2,9137,1611790,0.974,-0.045,0.256,-1.4,0.4,0.4,-5.3,24.4,-19.5,0.134281442,-0.595233009,-0.093508713,-0.786675619
3,11408,1611800,0.97,-0.041,0.256,-1.5,0.4,0.4,-3.7,24.4,-19.4,0.134250923,-0.595233009,-0.0934781945,-0.786675619
4,14514,1611800,0.966,-0.049,0.256,-1.5,0.5,0.3,-3.7,24.4,-19.4,0.134250923,-0.595233009,-0.093447676,-0.786706137
5,16654,1611800,0.962,-0.045,0.256,-1.5,0.7,0.4,-3.7,24.4,-19.4,0.134250923,-0.595233009,-0.0934171575,-0.786706137
6,18936,1611800,0.962,-0.041,0.26,-1.7,0.8,0.4,-3.7,24.4,-19.4,0.134220405,-0.59520249,-0.0933561205,-0.786736656
7,22036,1611810,0.962,-0.049,0.26,-1.7,0.8,0.3,-3.9,24.8,-19.5,0.134220405,-0.59520249,-0.0933561205,-0.786736656
8,24122,1611810,0.962,-0.045,0.26,-1.7,0.7,0.3,-3.9,24.8,-19.5,0.134189886,-0.59520249,-0.0932950835,-0.786736656
9,26411,1611810,0.962,-0.041,0.26,-1.7,0.6,0.2,-3.9,24.8,-19.5,0.134189886,-0.59520249,-0.093264565,-0.786767174
10,29559,1611810,0.962,-0.049,0.256,-1.8,0.5,0.1,-3.9,24.8,-19.5,0.134159368,-0.59520249,-0.0932340464,-0.786767174
11,30956,1611820,0.962,-0.049,0.256,-1.8,0.4,0.1,-3.9,24.6,-19.5,0.134128849,-0.59520249,-0.0932035279,-0.786767174
12,33864,1611820,0.958,-0.045,0.26,-2,0.4,0,-3.9,24.6,-19.5,0.134098331,-0.59520249,-0.0931730094,-0.786797693
13,37030,1611820,0.954,-0.049,0.256,-2.1,0.5,0,-3.9,24.6,-19.5,0.134098331,-0.595171972,-0.0931119724,-0.786797693
14,39890,1611820,0.95,-0.049,0.26,-2.3,0.6,0,-3.9,24.6,-19.5,0.134067812,-0.595171972,-0.0930814539,-0.786828211
15,41355,1611830,0.954,-0.053,0.264,-2.3,0.7,0,-3.7,24.8,-19.6,0.134006775,-0.595171972,-0.0930509354,-0.786828211
16,44065,1611830,0.95,-0.049,0.256,-2.3,0.7,0,-3.7,24.8,-19.6,0.134006775,-0.595171972,-0.0929898984,-0.78685873
17,45999,1611830,0.95,-0.037,0.256,-2.4,0.6,0,-3.7,24.8,-19.6,0.133976257,-0.595171972,-0.0929593799,-0.78685873
18,49425,1611830,0.95,-0.041,0.264,-2.4,0.4,0,-3.7,24.8,-19.6,0.133945738,-0.595171972,-0.0928678243,-0.78685873
19,50909,1611840,0.95,-0.041,0.264,-2.4,0.4,0,-3.7,24.8,-19.6,0.133945738,-0.595171972,-0.0928678243,-0.78685873
20,53928,1611840,0.954,-0.045,0.264,-2.6,-0.1,-0.1,-5,24.3,-19.4,0.134006775,-0.595324564,-0.0925931578,-0.786767174
21,57022,1611840,0.946,-0.041,0.26,-2.7,0,-0.1,-5,24.3,-19.4,0.134006775,-0.595324564,-0.0925626392,-0.786767174
22,58454,1611840,0.95,-0.041,0.264,-2.8,0,-0.1,-5,24.3,-19.4,0.133945738,-0.595324564,-0.0925016022,-0.786797693
23,61379,1611850,0.95,-0.041,0.26,-2.8,0,-0.2,-4.8,24.7,-19.5,0.13391522,-0.595324564,-0.0924710837,-0.786797693
24,64566,1611850,0.946,-0.045,0.264,-2.8,0,-0.2,-4.8,24.7,-19.5,0.133884701,-0.595355083,-0.0923795282,-0.786797693
25,65909,1611850,0.946,-0.041,0.26,-2.9,0,-0.2,-4.8,24.7,-19.5,0.133823664,-0.595355083,-0.0923795282,-0.786797693
26,68896,1611850,0.95,-0.037,0.26,-2.9,0,-0.2,-4.8,24.7,-19.5,0.133793146,-0.595355083,-0.0923184912,-0.786828211
27,72481,1611860,0.95,-0.041,0.26,-3,0.1,-0.2,-4.9,24.7,-19.1,0.133732109,-0.595355083,-0.0922574541,-0.786828211
28,74042,1611860,0.954,-0.037,0.256,-3.2,0,-0.2,-4.9,24.7,-19.1,0.13370159,-0.595385601,-0.0922269356,-0.786828211
29,77092,1611860,0.954,-0.033,0.252,-3.2,0,-0.2,-4.9,24.7,-19.1,0.133640553,-0.595385601,-0.0921658986,-0.786828211
30,78492,1611860,0.954,-0.041,0.26,-3.3,0,-0.3,-4.9,24.7,-19.1,0.133610034,-0.595385601,-0.0921048616,-0.78685873
31,81540,1611870,0.954,-0.037,0.26,-3.2,0,-0.2,-4.9,24.7,-19.2,0.133548997,-0.59541612,-0.0920438246,-0.78685873
32,84697,1611870,0.958,-0.041,0.256,-3.2,-0.1,-0.3,-4.9,24.7,-19.2,0.133518479,-0.59541612,-0.0920133061,-0.78685873
33,86061,1611870,0.962,-0.033,0.26,-3.2,-0.2,-0.3,-4.9,24.7,-19.2,0.133457442,-0.59541612,-0.0919522691,-0.78685873
34,89032,1611870,0.958,-0.029,0.256,-3.1,-0.4,-0.4,-4.9,24.7,-19.2,0.133396405,-0.595446638,-0.091891232,-0.78685873
35,92138,1611880,0.966,-0.033,0.256,-3,-0.6,-0.5,-5,24.4,-18.8,0.133365886,-0.595446638,-0.0918607135,-0.78685873
36,93571,1611880,0.966,-0.037,0.256,-2.9,-0.7,-0.6,-5,24.4,-18.8,0.133304849,-0.595477157,-0.091830195,-0.78685873
37,96584,1611880,0.966,-0.025,0.256,-2.8,-0.7,-0.6,-5,24.4,-18.8,0.133243812,-0.595507675,-0.0917996765,-0.78685873
38,99531,1611880,0.97,-0.033,0.26,-2.8,-0.7,-0.5,-5,24.4,-18.8,0.133213294,-0.595538194,-0.0917386395,-0.78685873
39,101117,1611890,0.97,-0.033,0.26,-2.8,-0.7,-0.5,-5,24.4,-18.8,0.133213294,-0.595538194,-0.0917386395,-0.78685873
40,104170,1611890,0.966,-0.029,0.256,-2.7,-0.6,-0.3,-4.7,24.7,-19.8,0.133213294,-0.595751823,-0.0915250099,-0.786706137
41,107309,1611890,0.966,-0.041,0.26,-2.6,-0.4,-0.4,-4.7,24.7,-19.8,0.133182775,-0.595751823,-0.0914944914,-0.786706137
42,108714,1611890,0.97,-0.037,0.26,-2.6,-0.4,-0.5,-4.7,24.7,-19.8,0.133121738,-0.595782342,-0.0914639729,-0.786706137
43,112230,1611900,0.966,-0.041,0.264,-2.5,-0.3,-0.5,-4.5,24.3,-18.1,0.13309122,-0.595782342,-0.0914029359,-0.786706137
44,113712,1611900,0.97,-0.033,0.264,-2.4,-0.3,-0.5,-4.5,24.3,-18.1,0.133030183,-0.595782342,-0.0913724174,-0.786706137
45,116715,1611900,0.966,-0.041,0.26,-2.3,-0.3,-0.5,-4.5,24.3,-18.1,0.132999664,-0.59581286,-0.0913418989,-0.786706137
46,119713,1611900,0.966,-0.041,0.26,-2.3,-0.4,-0.6,-4.5,24.3,-18.1,0.132969146,-0.59581286,-0.0913113804,-0.786736656
47,121123,1611910,0.97,-0.037,0.256,-2.4,-0.3,-0.6,-4.5,24.5,-17.9,0.132908109,-0.595843379,-0.0912808618,-0.786736656
48,124093,1611910,0.97,-0.053,0.26,-2.6,-0.1,-0.7,-4.5,24.5,-17.9,0.13287759,-0.595843379,-0.0912503433,-0.786736656
49,127170,1611910,0.966,-0.049,0.264,-2.8,0,-0.8,-4.5,24.5,-17.9,0.132816553,-0.595843379,-0.0912198248,-0.786736656
50,128643,1611910,0.97,-0.049,0.264,-2.9,0,-0.7,-4.5,24.5,-17.9,0.132755516,-0.595843379,-0.0911893063,-0.786736656
51,131618,1611920,0.966,-0.045,0.26,-3.1,-0.1,-0.7,-4.7,24.6,-17.4,0.132694479,-0.595873898,-0.0911282693,-0.786736656
52,134730,1611920,0.97,-0.049,0.26,-3.3,-0.3,-0.6,-4.7,24.6,-17.4,0.132663961,-0.595873898,-0.0910977508,-0.786767174
53,136287,1611920,0.97,-0.053,0.264,-3.4,-0.3,-0.6,-4.7,24.6,-17.4,0.132602924,-0.595904416,-0.0910367138,-0.786767174
54,139159,1611920,0.966,-0.049,0.264,-3.5,-0.3,-0.6,-4.7,24.6,-17.4,0.132541887,-0.595904416,-0.0909756767,-0.786767174
55,142185,1611930,0.97,-0.053,0.268,-3.5,-0.1,-0.7,-4.3,24.7,-17.8,0.13248085,-0.595934935,-0.0909146397,-0.786767174
56,143551,1611930,0.97,-0.049,0.264,-3.5,-0.1,-0.7,-4.3,24.7,-17.8,0.132419813,-0.595934935,-0.0908841212,-0.786767174
57,146521,1611930,0.97,-0.053,0.268,-3.4,0,-1,-4.3,24.7,-17.8,0.132358776,-0.595934935,-0.0908536027,-0.786797693
58,149716,1611930,0.97,-0.053,0.264,-3.4,-0.1,-1.2,-4.3,24.7,-17.8,0.132297739,-0.595934935,-0.0907925657,-0.786797693
59,151099,1611940,0.97,-0.053,0.264,-3.4,-0.1,-1.2,-4.3,24.7,-17.8,0.132297739,-0.595934935,-0.0907925657,-0.786797693
60,154119,1611940,0.97,-0.049,0.268,-3.3,-0.3,-1.3,-4.9,24.6,-21,0.13248085,-0.596179083,-0.090273751,-0.7866451
61,156093,1611940,0.97,-0.049,0.264,-3.3,-0.3,-1.3,-4.9,24.6,-21,0.132419813,-0.596179083,-0.0902432325,-0.786675619
62,159198,1611940,0.97,-0.053,0.268,-3.3,-0.4,-1.4,-4.9,24.6,-21,0.132358776,-0.596209601,-0.090212714,-0.786675619
63,162377,1611950,0.97,-0.045,0.271,-3.3,-0.5,-1.5,-4.9,24.4,-18.9,0.13226722,-0.596209601,-0.0901821955,-0.786675619
64,164220,1611950,0.974,-0.045,0.271,-3.3,-0.6,-1.5,-4.9,24.4,-18.9,0.132206183,-0.59624012,-0.0901211585,-0.786675619
65,167376,1611950,0.974,-0.049,0.267,-3.3,-0.6,-1.5,-4.9,24.4,-18.9,0.132145146,-0.59624012,-0.09009064,-0.786675619
66,168934,1611950,0.978,-0.045,0.271,-3.3,-0.6,-1.5,-4.9,24.4,-18.9,0.132053591,-0.596270638,-0.0900601215,-0.786675619
67,171941,1611960,0.974,-0.045,0.267,-3.4,-0.6,-1.6,-4.9,24.4,-19.4,0.131992553,-0.596301157,-0.090029603,-0.786675619
68,174885,1611960,0.981,-0.041,0.271,-3.4,-0.6,-1.6,-4.9,24.4,-19.4,0.131900998,-0.596301157,-0.0899990844,-0.786675619
69,176300,1611960,0.978,-0.041,0.267,-3.3,-0.7,-1.7,-4.9,24.4,-19.4,0.131839961,-0.596331675,-0.0899380474,-0.786675619
70,179611,1611960,0.978,-0.041,0.263,-3.3,-0.8,-1.7,-4.9,24.4,-19.4,0.131778924,-0.596331675,-0.0899380474,-0.786675619
71,181486,1611970,0.978,-0.037,0.263,-3.3,-0.8,-1.7,-4.5,24.6,-19.9,0.131687368,-0.596362194,-0.0899075289,-0.786675619
72,183435,1611970,0.978,-0.037,0.267,-3.4,-0.6,-1.7,-4.5,24.6,-19.9,0.131626331,-0.596392712,-0.0898464919,-0.786706137
73,187902,1611970,0.981,-0.033,0.263,-3.4,-0.5,-1.8,-4.5,24.6,-19.9,0.131534776,-0.596392712,-0.0898159734,-0.786706137
74,190372,1611970,0.978,-0.033,0.263,-3.4,-0.5,-1.8,-4.5,24.6,-19.9,0.13144322,-0.596423231,-0.0897854549,-0.786706137
75,192386,1611980,0.974,-0.033,0.264,-3.3,-0.4,-1.7,-5,24.5,-19.8,0.131382183,-0.596423231,-0.0897549364,-0.786706137
76,194413,1611980,0.974,-0.037,0.264,-3,-0.4,-1.7,-5,24.5,-19.8,0.131321146,-0.596453749,-0.0897244179,-0.786706137
77,197445,1611980,0.974,-0.029,0.26,-2.8,-0.2,-1.6,-5,24.5,-19.8,0.131260109,-0.596453749,-0.0896938993,-0.786706137
78,199527,1611980,0.978,-0.033,0.263,-2.7,0,-1.7,-5,24.5,-19.8,0.131168554,-0.596453749,-0.0896938993,-0.786736656
79,201002,1611990,0.978,-0.033,0.263,-2.7,0,-1.7,-5,24.5,-19.8,0.131168554,-0.596453749,-0.0896938993,-0.786736656
80,204815,1611990,0.97,-0.029,0.252,-2.7,0.2,-1.7,-4.9,24.6,-19.4,0.131168554,-0.59663686,-0.0894497513,-0.786614582
81,206485,1611990,0.966,-0.029,0.252,-2.7,0.4,-1.7,-4.9,24.6,-19.4,0.131076998,-0.59663686,-0.0894192328,-0.7866451
82,208537,1611990,0.97,-0.029,0.252,-2.6,0.4,-1.7,-4.9,24.6,-19.4,0.13104648,-0.59663686,-0.0894192328,-0.7866451
83,211642,1612000,0.962,-0.041,0.252,-2.5,0.5,-1.6,-4.5,24.9,-19.3,0.130985443,-0.59663686,-0.0893887143,-0.786675619
84,213366,1612000,0.962,-0.037,0.252,-2.5,0.6,-1.6,-4.5,24.9,-19.3,0.130924406,-0.596606342,-0.0893581957,-0.786675619
85,216616,1612000,0.962,-0.029,0.252,-2.5,0.7,-1.6,-4.5,24.9,-19.3,0.130863369,-0.596606342,-0.0893276772,-0.786706137
86,218815,1612000,0.962,-0.033,0.248,-2.4,0.7,-1.7,-4.5,24.9,-19.3,0.130802332,-0.596606342,-0.0893276772,-0.786706137
87,221054,1612010,0.958,-0.029,0.248,-2.2,0.9,-1.7,-4.4,24.8,-19.4,0.130741295,-0.596575823,-0.0892971587,-0.786736656
88,224169,1612010,0.958,-0.025,0.256,-2.2,0.9,-1.8,-4.4,24.8,-19.4,0.130710776,-0.596575823,-0.0892666402,-0.786767174
89,226343,1612010,0.954,-0.025,0.256,-2.4,1,-1.8,-4.4,24.8,-19.4,0.130649739,-0.596545305,-0.0892666402,-0.786797693
90,228457,1612010,0.954,-0.029,0.256,-2.5,1.1,-1.8,-4.4,24.8,-19.4,0.130558184,-0.596545305,-0.0892361217,-0.786828211
91,232773,1612020,0.954,-0.029,0.252,-2.6,1.2,-1.7,-4.3,24.6,-19.4,0.130497147,-0.596514786,-0.0892056032,-0.786828211
92,234614,1612020,0.954,-0.029,0.248,-2.7,1.2,-1.6,-4.3,24.6,-19.4,0.13043611,-0.596514786,-0.0891750847,-0.78685873
93,235935,1612020,0.954,-0.029,0.252,-2.8,1.2,-1.6,-4.3,24.6,-19.4,0.130375072,-0.596484268,-0.0891445662,-0.786889248
94,240424,1612020,0.95,-0.029,0.256,-2.8,1.2,-1.6,-4.3,24.6,-19.4,0.130314035,-0.596484268,-0.0891140477,-0.786919767
95,242075,1612030,0.954,-0.029,0.256,-3,1.3,-1.7,-4.2,24.6,-19.5,0.130252998,-0.596453749,-0.0890835292,-0.786950285
96,243573,1612030,0.95,-0.029,0.248,-3,1.4,-1.6,-4.2,24.6,-19.5,0.130191961,-0.596423231,-0.0890530107,-0.786980804
97,246618,1612030,0.95,-0.029,0.252,-3,1.4,-1.7,-4.2,24.6,-19.5,0.130100406,-0.596423231,-0.0890224921,-0.787011322
98,250037,1612030,0.954,-0.037,0.252,-2.9,1.4,-1.7,-4.2,24.6,-19.5,0.130069887,-0.596392712,-0.0889614551,-0.787041841
99,251808,1612040,0.954,-0.037,0.252,-2.9,1.4,-1.7,-4.2,24.6,-19.5,0.130069887,-0.596392712,-0.0889614551,-0.787041841
100,254241,1612040,0.954,-0.037,0.252,-2.9,1.6,-1.6,-4.7,24.7,-18.7,0.13000885,-0.596484268,-0.0888088626,-0.786980804
101,256986,1612040,0.954,-0.033,0.244,-3,1.8,-1.6,-4.7,24.7,-18.7,0.129947813,-0.596453749,-0.0887783441,-0.787041841
102,259676,1612040,0.95,-0.045,0.252,-3.1,1.8,-1.6,-4.7,24.7,-18.7,0.129886776,-0.596423231,-0.0887478256,-0.787072359
103,261196,1612050,0.954,-0.037,0.256,-3.2,1.6,-1.6,-4.7,24.2,-19.8,0.129795221,-0.596423231,-0.088717307,-0.787102878
104,264628,1612050,0.95,-0.041,0.256,-3.3,1.3,-1.5,-4.7,24.2,-19.8,0.129734184,-0.596392712,-0.08865627,-0.787133396
105,266497,1612050,0.95,-0.041,0.256,-3.3,1.2,-1.5,-4.7,24.2,-19.8,0.129673147,-0.596392712,-0.0886257515,-0.787163915
106,268651,1612050,0.95,-0.045,0.26,-3.4,1,-1.5,-4.7,24.2,-19.8,0.12961211,-0.596362194,-0.088595233,-0.787163915
107,272554,1612060,0.954,-0.041,0.256,-3.5,0.9,-1.6,-5,23.9,-19.7,0.129520554,-0.596362194,-0.088534196,-0.787194433
108,274113,1612060,0.954,-0.049,0.252,-3.5,0.9,-1.5,-5,23.9,-19.7,0.129459517,-0.596362194,-0.088473159,-0.787224952
109,276049,1612060,0.95,-0.045,0.256,-3.5,0.9,-1.4,-5,23.9,-19.7,0.12939848,-0.596331675,-0.0884426405,-0.78725547
110,279742,1612060,0.954,-0.045,0.252,-3.6,1,-1.3,-5,23.9,-19.7,0.129306925,-0.596331675,-0.088412122,-0.787285989
111,282412,1612070,0.954,-0.041,0.252,-3.6,1,-1.3,-5.1,23.7,-19.6,0.129245888,-0.596331675,-0.0883510849,-0.787285989
112,283837,1612070,0.954,-0.045,0.252,-3.6,1,-1.3,-5.1,23.7,-19.6,0.129184851,-0.596301157,-0.0883205664,-0.787316507
113,285881,1612070,0.954,-0.045,0.256,-3.6,0.9,-1.5,-5.1,23.7,-19.6,0.129093295,-0.596301157,-0.0882595294,-0.787347026
114,290248,1612070,0.958,-0.041,0.256,-3.6,0.7,-1.5,-5.1,23.7,-19.6,0.129032258,-0.596301157,-0.0882290109,-0.787377544
115,291891,1612080,0.954,-0.041,0.256,-3.7,0.5,-1.5,-4.9,23.4,-19.9,0.128971221,-0.596301157,-0.0881679739,-0.787377544
116,293614,1612080,0.954,-0.041,0.256,-3.9,0.3,-1.4,-4.9,23.4,-19.9,0.128879666,-0.596301157,-0.0881374554,-0.787408063
117,297792,1612080,0.958,-0.045,0.26,-3.9,0.1,-1.2,-4.9,23.4,-19.9,0.128818628,-0.596301157,-0.0880764183,-0.787408063
118,300153,1612080,0.954,-0.045,0.256,-3.9,0.1,-1.1,-4.9,23.4,-19.9,0.128757591,-0.596301157,-0.0879848628,-0.787438581
119,303006,1612090,0.954,-0.045,0.256,-3.9,0.1,-1.1,-4.9,23.4,-19.9,0.128757591,-0.596301157,-0.0879848628,-0.787438581
120,305572,1612090,0.954,-0.045,0.256,-3.8,0,-0.9,-4.7,25.7,-18,0.128879666,-0.596575823,-0.0875576037,-0.78725547
121,307022,1612090,0.954,-0.041,0.26,-3.9,-0.1,-0.9,-4.7,25.7,-18,0.12878811,-0.596575823,-0.0874965667,-0.78725547
122,309172,1612090,0.958,-0.041,0.256,-3.9,-0.1,-0.9,-4.7,25.7,-18,0.128727073,-0.596606342,-0.0874660482,-0.78725547
123,311330,1612100,0.954,-0.049,0.264,-3.9,-0.3,-0.8,-4.6,24,-19.9,0.128666036,-0.596606342,-0.0874050111,-0.787285989
124,314087,1612100,0.958,-0.045,0.26,-3.8,-0.3,-0.8,-4.6,24,-19.9,0.128604999,-0.59663686,-0.0873439741,-0.787285989
125,317156,1612100,0.958,-0.045,0.26,-3.7,-0.4,-0.8,-4.6,24,-19.9,0.128543962,-0.59663686,-0.0873134556,-0.787285989
126,318857,1612100,0.954,-0.049,0.264,-3.5,-0.4,-0.7,-4.6,24,-19.9,0.128482925,-0.596667379,-0.0872524186,-0.787285989
127,320983,1612110,0.954,-0.045,0.26,-3.4,-0.5,-0.7,-4.9,24,-20,0.128421888,-0.596697897,-0.0871913816,-0.787285989
128,325396,1612110,0.958,-0.045,0.256,-3.3,-0.6,-0.7,-4.9,24,-20,0.128360851,-0.596697897,-0.0871608631,-0.787285989
129,327871,1612110,0.958,-0.049,0.26,-3.2,-0.6,-0.7,-4.9,24,-20,0.128299814,-0.596728416,-0.0871303446,-0.787285989
130,330021,1612110,0.958,-0.041,0.256,-3,-0.6,-0.7,-4.9,24,-20,0.128238777,-0.596728416,-0.0870693075,-0.787285989
131,331685,1612120,0.954,-0.041,0.256,-2.8,-0.5,-0.7,-4.8,24.3,-20.1,0.128208258,-0.596758934,-0.0870082705,-0.787285989
132,334216,1612120,0.954,-0.049,0.26,-2.6,-0.4,-0.7,-4.8,24.3,-20.1,0.128147221,-0.596758934,-0.0870082705,-0.787285989
133,336479,1612120,0.954,-0.049,0.26,-2.4,-0.4,-0.7,-4.8,24.3,-20.1,0.128086184,-0.596789453,-0.086977752,-0.787285989
134,338590,1612120,0.958,-0.041,0.26,-2.3,-0.4,-0.8,-4.8,24.3,-20.1,0.128055666,-0.596789453,-0.0869472335,-0.787285989
135,341138,1612130,0.954,-0.045,0.256,-2.2,-0.3,-0.8,-4.8,25.1,-20.2,0.127994629,-0.596819971,-0.086916715,-0.787285989
136,343434,1612130,0.958,-0.053,0.256,-2.2,-0.3,-0.8,-4.8,25.1,-20.2,0.12796411,-0.596819971,-0.0868861965,-0.787285989
137,346836,1612130,0.958,-0.049,0.256,-2.1,-0.3,-0.8,-4.8,25.1,-20.2,0.127933592,-0.596819971,-0.086855678,-0.787285989
138,348851,1612130,0.958,-0.049,0.26,-2,-0.4,-0.8,-4.8,25.1,-20.2,0.127872555,-0.59685049,-0.086855678,-0.787285989
139,352957,1612140,0.958,-0.049,0.26,-2,-0.4,-0.8,-4.8,25.1,-20.2,0.127872555,-0.59685049,-0.086855678,-0.787285989
140,354881,1612140,0.962,-0.049,0.256,-1.9,-0.6,-0.9,-4.7,24.9,-19.1,0.128116703,-0.597155675,-0.0863673818,-0.787072359
141,356617,1612140,0.958,-0.06,0.256,-1.9,-0.7,-0.8,-4.7,24.9,-19.1,0.128086184,-0.597155675,-0.0863368633,-0.787072359
142,358789,1612140,0.958,-0.053,0.256,-2,-0.9,-0.9,-4.7,24.9,-19.1,0.128055666,-0.597186193,-0.0863063448,-0.787072359
143,361146,1612150,0.962,-0.057,0.252,-2,-1,-0.9,-4.3,24.8,-19.1,0.127994629,-0.597216712,-0.0863063448,-0.787072359
144,363692,1612150,0.958,-0.057,0.256,-2,-1.1,-1,-4.3,24.8,-19.1,0.127933592,-0.597216712,-0.0862758263,-0.787041841
145,367271,1612150,0.958,-0.057,0.248,-2,-1.1,-0.9,-4.3,24.8,-19.1,0.127903073,-0.59724723,-0.0862758263,-0.787041841
146,369573,1612150,0.958,-0.057,0.264,-2.1,-1.2,-0.9,-4.3,24.8,-19.1,0.127842036,-0.597277749,-0.0862453078,-0.787041841
147,371586,1612160,0.958,-0.057,0.26,-2.2,-1.4,-0.7,-4.6,25.1,-19.4,0.127811518,-0.597308267,-0.0862147893,-0.787011322
148,373939,1612160,0.958,-0.057,0.252,-2.2,-1.5,-0.7,-4.6,25.1,-19.4,0.127780999,-0.597338786,-0.0861842708,-0.787011322
149,376314,1612160,0.958,-0.053,0.252,-2.1,-1.6,-0.8,-4.6,25.1,-19.4,0.127719962,-0.597369304,-0.0861842708,-0.787011322
150,378905,1612160,0.958,-0.057,0.26,-2,-1.6,-0.8,-4.6,25.1,-19.4,0.127689444,-0.597399823,-0.0861537523,-0.786980804
151,382480,1612170,0.954,-0.06,0.256,-1.8,-1.6,-0.8,-4.7,25,-19.3,0.127628407,-0.597430342,-0.0861232337,-0.786980804
152,384952,1612170,0.958,-0.057,0.252,-1.8,-1.6,-0.8,-4.7,25,-19.3,0.127597888,-0.59746086,-0.0861232337,-0.786950285
153,386930,1612170,0.954,-0.064,0.256,-1.7,-1.7,-0.8,-4.7,25,-19.3,0.127536851,-0.597491379,-0.0860927152,-0.786919767
154,389006,1612170,0.962,-0.057,0.256,-1.6,-1.8,-0.7,-4.7,25,-19.3,0.127506333,-0.597521897,-0.0860927152,-0.786919767
155,391099,1612180,0.958,-0.057,0.256,-1.5,-2,-0.7,-4.7,25.2,-19.3,0.127475814,-0.597582934,-0.0860316782,-0.786889248
156,395055,1612180,0.962,-0.049,0.256,-1.4,-2.1,-0.5,-4.7,25.2,-19.3,0.127445296,-0.597613453,-0.0860316782,-0.78685873
157,396751,1612180,0.958,-0.057,0.252,-1.2,-2.2,-0.5,-4.7,25.2,-19.3,0.127414777,-0.597643971,-0.0860316782,-0.78685873
158,398459,1612180,0.958,-0.057,0.256,-1,-2.3,-0.4,-4.7,25.2,-19.3,0.127384259,-0.597705008,-0.0860316782,-0.786828211
159,401806,1612190,0.958,-0.057,0.256,-1,-2.3,-0.4,-4.7,25.2,-19.3,0.127384259,-0.597705008,-0.0860316782,-0.786828211
160,404165,1612190,0.958,-0.053,0.256,-0.7,-2.3,-0.4,-4.8,24.4,-19.3,0.127750481,-0.59807123,-0.0855128636,-0.786523026
161,406340,1612190,0.958,-0.057,0.26,-0.7,-2.4,-0.3,-4.8,24.4,-19.3,0.127719962,-0.598132267,-0.0855128636,-0.786492508
162,410490,1612190,0.958,-0.045,0.256,-0.6,-2.4,-0.2,-4.8,24.4,-19.3,0.127719962,-0.598162786,-0.0855128636,-0.786461989
163,412802,1612200,0.954,-0.049,0.252,-0.5,-2.5,-0.1,-4.9,25.2,-19.5,0.127689444,-0.598223823,-0.0855128636,-0.786431471
164,414762,1612200,0.958,-0.041,0.256,-0.4,-2.6,-0.2,-4.9,25.2,-19.5,0.127689444,-0.598254341,-0.0855128636,-0.786400952
165,416920,1612200,0.954,-0.037,0.256,-0.3,-2.7,-0.2,-4.9,25.2,-19.5,0.127689444,-0.598315378,-0.0855128636,-0.786370434
166,419143,1612200,0.954,-0.037,0.26,-0.2,-2.8,-0.1,-4.9,25.2,-19.5,0.127658925,-0.598345897,-0.0855128636,-0.786309397
167,421421,1612210,0.958,-0.041,0.252,-0.2,-2.8,0,-5.1,25.2,-19.2,0.127658925,-0.598406934,-0.0855128636,-0.786278878
168,424677,1612210,0.954,-0.033,0.252,-0.2,-2.7,0.2,-5.1,25.2,-19.2,0.127658925,-0.598467971,-0.0855128636,-0.78624836
169,426143,1612210,0.958,-0.033,0.252,-0.2,-2.7,0.3,-5.1,25.2,-19.2,0.127658925,-0.598498489,-0.0855128636,-0.786217841
170,428408,1612210,0.954,-0.033,0.248,-0.1,-2.7,0.4,-5.1,25.2,-19.2,0.127658925,-0.598559526,-0.0855128636,-0.786187323
171,431763,1612220,0.958,-0.029,0.252,0,-2.9,0.4,-5.6,25.1,-19.2,0.127658925,-0.598620563,-0.0855128636,-0.786126286
172,434064,1612220,0.954,-0.029,0.248,0,-3,0.5,-5.6,25.1,-19.2,0.127658925,-0.598620563,-0.0855128636,-0.786095767
173,436327,1612220,0.958,-0.021,0.248,0.1,-2.9,0.6,-5.6,25.1,-19.2,0.127658925,-0.598712119,-0.0855128636,-0.786065249
174,438819,1612220,0.954,-0.025,0.248,0.1,-2.9,0.8,-5.6,25.1,-19.2,0.127658925,-0.598773156,-0.0855128636,-0.786004212
175,441054,1612230,0.962,-0.021,0.252,0.2,-2.8,0.9,-5.7,25.3,-19.1,0.127689444,-0.598803674,-0.0855128636,-0.785973693
176,444658,1612230,0.962,-0.018,0.244,0.3,-2.9,1.1,-5.7,25.3,-19.1,0.127689444,-0.598864711,-0.0855128636,-0.785943175
177,446892,1612230,0.962,-0.014,0.256,0.5,-3,1.2,-5.7,25.3,-19.1,0.127719962,-0.598925748,-0.0855128636,-0.785882138
178,449039,1612230,0.958,-0.018,0.256,0.6,-3.2,1.3,-5.7,25.3,-19.1,0.127750481,-0.598986785,-0.0855128636,-0.785851619
179,451296,1612240,0.958,-0.018,0.256,0.6,-3.2,1.3,-5.7,25.3,-19.1,0.127750481,-0.598986785,-0.0855128636,-0.785851619
180,454702,1612240,0.962,-0.006,0.252,0.6,-3.3,1.7,-4.2,24.1,-19.2,0.127780999,-0.599261452,-0.0855433821,-0.785607471
181,456123,1612240,0.962,-0.006,0.248,0.5,-3.3,1.9,-4.2,24.1,-19.2,0.127842036,-0.599322489,-0.0855433821,-0.785546434
182,460173,1612240,0.966,-0.006,0.244,0.2,-3.2,2,-4.2,24.1,-19.2,0.127872555,-0.599383526,-0.0855128636,-0.785515915
183,462356,1612250,0.966,-0.006,0.24,0,-3.2,1.9,-5.7,25.4,-18.8,0.127903073,-0.599444563,-0.0855128636,-0.785454878
184,463935,1612250,0.966,-0.006,0.244,-0.1,-3.2,1.9,-5.7,25.4,-18.8,0.127903073,-0.5995056,-0.085482345,-0.78542436
185,466149,1612250,0.966,-0.002,0.248,-0.2,-3.3,1.9,-5.7,25.4,-18.8,0.127933592,-0.599566637,-0.0854518265,-0.785363323
186,468701,1612250,0.962,0.001,0.244,-0.4,-3.3,2,-5.7,25.4,-18.8,0.12796411,-0.599627674,-0.0854518265,-0.785302286
187,472158,1612260,0.962,0.001,0.24,-0.6,-3.3,2,-6.2,25.2,-18.8,0.127994629,-0.599688711,-0.085421308,-0.785271767
188,473731,1612260,0.962,0.005,0.244,-0.8,-3.4,2.2,-6.2,25.2,-18.8,0.127994629,-0.599749748,-0.0853907895,-0.78521073
189,477536,1612260,0.966,0.005,0.236,-1,-3.4,2.2,-6.2,25.2,-18.8,0.128025147,-0.599841304,-0.0853297525,-0.785180212
190,479279,1612260,0.966,0.005,0.232,-1.2,-3.3,2.2,-6.2,25.2,-18.8,0.128025147,-0.599902341,-0.085299234,-0.785119175
191,481624,1612270,0.97,0.005,0.232,-1.3,-3.3,2.1,-5.9,25.8,-19.1,0.128055666,-0.599963378,-0.0852687155,-0.785058138
192,483437,1612270,0.97,0.001,0.236,-1.5,-3.2,2.1,-5.9,25.8,-19.1,0.128055666,-0.600024415,-0.0852076785,-0.785027619
193,486747,1612270,0.97,0.005,0.228,-1.7,-3.2,2,-5.9,25.8,-19.1,0.128055666,-0.600085452,-0.0851771599,-0.784966582
194,489219,1612270,0.977,0.004,0.228,-1.8,-3,1.7,-5.9,25.8,-19.1,0.128055666,-0.600146489,-0.0851161229,-0.784936064
195,491150,1612280,0.977,0.001,0.228,-2,-3,1.7,-5.7,25.5,-19.1,0.128055666,-0.600207526,-0.0850550859,-0.784905545
196,494238,1612280,0.977,0.001,0.224,-2.1,-2.9,1.6,-5.7,25.5,-19.1,0.128055666,-0.600268563,-0.0850245674,-0.784844508
197,496344,1612280,0.981,0.001,0.228,-2.2,-3,1.6,-5.7,25.5,-19.1,0.128055666,-0.6003296,-0.0849635304,-0.78481399
198,498578,1612280,0.985,0.004,0.228,-2.5,-3,1.4,-5.7,25.5,-19.1,0.128025147,-0.600390637,-0.0849024934,-0.784783471
199,502970,1612290,0.985,0.004,0.228,-2.5,-3,1.4,-5.7,25.5,-19.1,0.128025147,-0.600390637,-0.0849024934,-0.784783471
200,503419,1612290,0.989,0.008,0.232,-3.2,-3,1.1,-4.4,24.8,-18.9,0.127811518,-0.600848415,-0.0850245674,-0.784447768
201,505916,1612290,0.993,0.008,0.236,-3.6,-3.1,1.1,-4.4,24.8,-18.9,0.127780999,-0.600909452,-0.0849330119,-0.784417249
202,510508,1612290,0.989,0.012,0.232,-4.1,-3.2,1.2,-4.4,24.8,-18.9,0.127719962,-0.600970489,-0.0848719749,-0.784386731
203,512398,1612300,0.993,0.008,0.236,-4.6,-3.2,1.3,-5,24.5,-19.1,0.127689444,-0.601062044,-0.0847804193,-0.784356212
204,513985,1612300,0.997,0.012,0.236,-5.2,-3.1,1.4,-5,24.5,-19.1,0.127628407,-0.601123081,-0.0846583453,-0.784325694
205,516086,1612300,0.993,0.012,0.236,-5.8,-3.2,1.3,-5,24.5,-19.1,0.12756737,-0.601184118,-0.0845667898,-0.784264657
206,520567,1612300,0.989,0.012,0.232,-6.3,-3.4,1.3,-5,24.5,-19.1,0.127506333,-0.601275674,-0.0844447157,-0.784234138
207,520904,1612310,0.993,0.012,0.228,-6.9,-3.7,1.3,-5,24.8,-18.8,0.127445296,-0.601367229,-0.0843226417,-0.784203619
208,524667,1612310,0.993,0.016,0.232,-7.5,-3.9,1.3,-5,24.8,-18.8,0.12735374,-0.601458785,-0.0841700491,-0.784142582
209,527116,1612310,0.989,0.012,0.232,-8.2,-3.9,1.4,-5,24.8,-18.8,0.127262185,-0.60155034,-0.0840479751,-0.784112064
210,529251,1612310,0.985,0.016,0.232,-8.8,-3.8,1.4,-5,24.8,-18.8,0.127170629,-0.601641896,-0.083864864,-0.784081545
211,531612,1612320,0.981,0.016,0.224,-9.2,-3.8,1.5,-4.6,25,-18.6,0.127048555,-0.601733451,-0.0837122715,-0.784051027
212,533942,1612320,0.981,0.016,0.224,-9.7,-3.7,1.5,-4.6,25,-18.6,0.126956999,-0.601825007,-0.0835291604,-0.78398999
213,537345,1612320,0.977,0.016,0.216,-9.9,-3.7,1.3,-4.6,25,-18.6,0.126834925,-0.601916562,-0.0833460494,-0.783959471
214,539353,1612320,0.981,0.016,0.22,-9.9,-3.7,1.1,-4.6,25,-18.6,0.126712851,-0.602008118,-0.0831934568,-0.783928953
215,542276,1612330,0.974,0.02,0.213,-9.9,-3.7,1,-4.7,24.5,-18.6,0.126590777,-0.602099673,-0.0830103458,-0.783898434
216,544354,1612330,0.966,0.02,0.213,-10,-3.6,0.9,-4.7,24.5,-18.6,0.126468703,-0.602191229,-0.0828272347,-0.783867916
217,546397,1612330,0.962,0.024,0.213,-10,-3.5,0.9,-4.7,24.5,-18.6,0.126346629,-0.602282785,-0.0826136052,-0.783837397
218,549034,1612330,0.954,0.024,0.209,-10.2,-3.4,0.8,-4.7,24.5,-18.6,0.126194037,-0.60237434,-0.0824915311,-0.783806879
219,551198,1612340,0.954,0.024,0.209,-10.2,-3.4,0.8,-4.7,24.5,-18.6,0.126194037,-0.60237434,-0.0824915311,-0.783806879
220,553891,1612340,0.946,0.036,0.205,-10.5,-3.7,0.7,-5.1,24.9,-18.9,0.125766778,-0.602801599,-0.0823694571,-0.783562731
221,556005,1612340,0.942,0.036,0.197,-10.8,-3.9,0.7,-5.1,24.9,-18.9,0.125644704,-0.602893155,-0.082186346,-0.783532212
222,559723,1612340,0.938,0.044,0.197,-11.2,-4.2,0.8,-5.1,24.9,-18.9,0.125492111,-0.60298471,-0.0819727165,-0.783501694
223,561738,1612350,0.934,0.048,0.19,-11.6,-4.5,1,-4.8,25.2,-19,0.125339518,-0.603106784,-0.0817896054,-0.783471175
224,563901,1612350,0.938,0.056,0.194,-12.1,-4.6,1.1,-4.8,25.2,-19,0.125186926,-0.603228858,-0.0815759758,-0.783410138
225,567213,1612350,0.942,0.06,0.193,-12.7,-4.7,1.2,-4.8,25.2,-19,0.125034333,-0.603350932,-0.0813623463,-0.78337962
226,568842,1612350,0.95,0.091,0.185,-13.2,-4.5,1.4,-4.8,25.2,-19,0.124881741,-0.603442488,-0.0811181982,-0.783349101
227,572840,1612360,0.927,0.099,0.182,-13.9,-4.1,1.6,-4.6,25.1,-18.8,0.124729148,-0.603564562,-0.0808740501,-0.783288064
228,575070,1612360,0.911,0.099,0.182,-14.8,-3,1.9,-4.6,25.1,-18.8,0.124546037,-0.603656117,-0.0805993835,-0.783288064
229,577206,1612360,0.896,0.099,0.186,-15.9,-1.7,2.2,-4.6,25.1,-18.8,0.124393445,-0.603747673,-0.0802941984,-0.783288064
230,578637,1612360,0.911,0.099,0.182,-17,-0.6,2.8,-4.6,25.1,-18.8,0.124210334,-0.60380871,-0.0799890133,-0.783288064
231,582729,1612370,0.934,0.087,0.166,-17.9,-0.2,3.1,-4.8,25,-18.4,0.124027223,-0.603869747,-0.0796227912,-0.783318583
232,584914,1612370,0.946,0.114,0.166,-18.4,-0.4,3.2,-4.8,25,-18.4,0.123844111,-0.603930784,-0.0792565691,-0.783318583
233,587077,1612370,0.919,0.126,0.182,-18.6,-0.2,3.1,-4.8,25,-18.4,0.123630482,-0.603991821,-0.0789208655,-0.783349101
234,589312,1612370,0.915,0.134,0.186,-18.9,0.6,2.9,-4.8,25,-18.4,0.123447371,-0.60402234,-0.0785546434,-0.78337962
235,591455,1612380,0.911,0.142,0.178,-19.8,2.2,3.1,-4.5,25.7,-18.6,0.123233741,-0.604052858,-0.0781579028,-0.783440657
236,594663,1612380,0.919,0.154,0.182,-21,3.3,3.5,-4.5,25.7,-18.6,0.123020112,-0.604052858,-0.0777306436,-0.783501694
237,596767,1612380,0.845,0.163,0.176,-22.1,3.4,4.1,-4.5,25.7,-18.6,0.122806482,-0.604052858,-0.0773033845,-0.783593249
238,598944,1612380,0.743,0.145,0.154,-23,2.5,4.5,-4.5,25.7,-18.6,0.122592853,-0.604083377,-0.0768456069,-0.783654286
239,603030,1612390,0.743,0.145,0.154,-23,2.5,4.5,-4.5,25.7,-18.6,0.122592853,-0.604083377,-0.0768456069,-0.783654286
240,605264,1612390,0.782,0.128,0.114,-24.3,-3.6,5.6,-5.8,25,-18.4,0.122135075,-0.604297006,-0.0758995331,-0.783654286
241,607398,1612390,0.79,0.14,0.106,-24.8,-11.1,7.5,-5.8,25,-18.4,0.121921445,-0.604541154,-0.0753807184,-0.783532212
242,609704,1612390,0.844,0.147,0.109,-25.1,-21.4,9.8,-5.8,25,-18.4,0.121677297,-0.604998932,-0.0748924223,-0.783257546
243,611768,1612400,0.864,0.154,0.109,-25.7,-32.1,11.5,-3.8,25.5,-18.5,0.121524705,-0.605639821,-0.0743736076,-0.782860805
244,614016,1612400,0.903,0.173,0.116,-27.1,-41.4,11.7,-3.8,25.5,-18.5,0.121311075,-0.606433302,-0.0738853114,-0.782311472
245,616653,1612400,0.997,0.172,0.118,-29.4,-48.6,10.3,-3.8,25.5,-18.5,0.12100589,-0.607348857,-0.0733359783,-0.781701102
246,618882,1612400,1.032,0.187,0.125,-32.4,-54,7.8,-3.8,25.5,-18.5,0.120639668,-0.608386486,-0.0728476821,-0.780999176
247,621408,1612410,1.067,0.167,0.12,-35.3,-57.7,4.6,-4,25.6,-18.3,0.120151372,-0.609454634,-0.0723288675,-0.780266732
248,623521,1612410,1.091,0.182,0.14,-37.8,-59.6,1.2,-4,25.6,-18.3,0.11957152,-0.610583819,-0.0718405713,-0.779534288
249,625957,1612410,1.114,0.162,0.147,-39.4,-59.4,-2.3,-4,25.6,-18.3,0.118900113,-0.611682485,-0.0713522752,-0.778801843
250,630205,1612410,1.142,0.15,0.154,-40.2,-57.4,-5.5,-4,25.6,-18.3,0.118198187,-0.612750633,-0.0708944975,-0.778130436
251,632426,1612420,1.192,0.129,0.157,-40.3,-54.3,-7.6,-4.4,25.7,-17.9,0.117435224,-0.613788263,-0.0704062014,-0.777489547
252,634639,1612420,1.188,0.13,0.165,-40.2,-50.3,-9.3,-4.4,25.7,-17.9,0.116672262,-0.614734336,-0.0700094607,-0.776879177
253,635991,1612420,1.212,0.114,0.169,-39.6,-45.3,-11.3,-4.4,25.7,-17.9,0.11587878,-0.615558336,-0.0696127201,-0.776360363
254,638944,1612420,1.208,0.094,0.173,-38.4,-39.1,-13.8,-4.4,25.7,-17.9,0.115054781,-0.616321299,-0.069246498,-0.775933103
255,642094,1612430,1.208,0.051,0.177,-36.7,-31.9,-16,-4.3,25.9,-17.9,0.114230781,-0.616931669,-0.0689107944,-0.7755974
256,643504,1612430,1.212,0.028,0.173,-34.7,-24,-17.7,-4.3,25.9,-17.9,0.1134373,-0.617389447,-0.0686361278,-0.77538377
257,646477,1612430,1.2,0.008,0.169,-32.5,-15.9,-18.9,-4.3,25.9,-17.9,0.112643818,-0.617694632,-0.0683614612,-0.775261696
258,649700,1612430,1.161,0.009,0.186,-29.8,-8,-20.4,-4.3,25.9,-17.9,0.111880856,-0.617877743,-0.0681783502,-0.775231178
259,651775,1612440,1.161,0.009,0.186,-29.8,-8,-20.4,-4.3,25.9,-17.9,0.111880856,-0.617877743,-0.0681783502,-0.775231178
260,653973,1612440,1.067,-0.004,0.18,-22.8,5,-23.4,-5.6,25.6,-17.9,0.110446486,-0.617877743,-0.0679342021,-0.775475326
261,657223,1612440,1.055,-0.004,0.188,-19.7,8.9,-22.9,-5.6,25.6,-17.9,0.109836116,-0.61772515,-0.0679036836,-0.775688955
262,659233,1612440,1.028,0,0.2,-17.9,10.4,-20.9,-5.6,25.6,-17.9,0.109256264,-0.617572558,-0.0678426466,-0.775902585
263,661474,1612450,1.016,0.004,0.204,-18.4,9.7,-18.3,-5.3,25.7,-17.8,0.108706931,-0.617419965,-0.067751091,-0.776116214
264,664639,1612450,1.013,0,0.212,-21,7.7,-16.2,-5.3,25.7,-17.8,0.108157598,-0.617297891,-0.0675984985,-0.776268807
265,665965,1612450,1.013,-0.007,0.212,-25.4,4.9,-15.4,-5.3,25.7,-17.8,0.107516709,-0.617267373,-0.0673543504,-0.7764214
266,669040,1612450,0.993,-0.022,0.216,-30.9,2,-15.7,-5.3,25.7,-17.8,0.10687582,-0.617267373,-0.0670491653,-0.776543474
267,672124,1612460,0.993,-0.03,0.22,-36.9,-0.6,-16.5,-5.5,26.1,-17.5,0.10605182,-0.617358928,-0.0666524247,-0.776604511
268,673580,1612460,0.989,-0.049,0.22,-42.7,-2.8,-17.2,-5.5,26.1,-17.5,0.105227821,-0.617481002,-0.0661641285,-0.776665548
269,677235,1612460,0.985,-0.069,0.224,-47.7,-4.3,-17.6,-5.5,26.1,-17.5,0.104281747,-0.617633595,-0.0656147954,-0.776726585
270,678684,1612460,0.989,-0.073,0.224,-51.9,-5.4,-17.3,-5.5,26.1,-17.5,0.103274636,-0.617816706,-0.0649739067,-0.776757103
271,681480,1612470,0.989,-0.081,0.212,-55.2,-5.9,-16.3,-5.4,25.8,-17.4,0.102237007,-0.618030335,-0.064271981,-0.77681814
272,684606,1612470,0.985,-0.081,0.213,-57.8,-5.8,-14.6,-5.4,25.8,-17.4,0.101168859,-0.618213446,-0.0635090182,-0.776848659
273,686045,1612470,0.958,-0.061,0.197,-59.7,-5.1,-12.4,-5.4,25.8,-17.4,0.100161748,-0.618427076,-0.0626545,-0.776879177
274,688831,1612470,0.954,-0.045,0.186,-61.3,-3.9,-10,-5.4,25.8,-17.4,0.0991851558,-0.618610187,-0.0617694632,-0.776940214
275,692163,1612480,0.95,-0.033,0.178,-62.7,-2.8,-7.7,-5.8,25.8,-17.2,0.098178045,-0.618793298,-0.0608233894,-0.777001251
276,693545,1612480,0.958,-0.034,0.174,-64.5,-2.1,-6.1,-5.8,25.8,-17.2,0.0972014527,-0.618945891,-0.0598162786,-0.777062288
277,696680,1612480,0.957,-0.03,0.142,-66.5,-2,-5.3,-5.8,25.8,-17.2,0.0962248604,-0.619129002,-0.0587481307,-0.777123325
278,698927,1612480,0.957,-0.022,0.139,-68.5,-2.3,-5.2,-5.8,25.8,-17.2,0.0951872311,-0.619312113,-0.0576494644,-0.777184362
279,702102,1612490,0.957,-0.022,0.139,-68.5,-2.3,-5.2,-5.8,25.8,-17.2,0.0951872311,-0.619312113,-0.0576494644,-0.777184362
280,703537,1612490,0.965,-0.003,0.127,-71,-2.8,-5.4,-5.9,25.9,-17,0.0931119724,-0.619800409,-0.0553910947,-0.777214881
281,706069,1612490,0.961,-0.003,0.123,-71.3,-2.7,-5.4,-5.9,25.9,-17,0.0920438246,-0.61998352,-0.0542313913,-0.777275918
282,709642,1612490,0.961,-0.003,0.127,-70.9,-2.6,-5,-5.9,25.9,-17,0.0910061953,-0.620166631,-0.053132725,-0.777336955
283,711800,1612500,0.965,0,0.127,-70.3,-2.5,-4.8,-5.9,26.1,-16.6,0.0899380474,-0.620349742,-0.0520035401,-0.777397992
284,713975,1612500,0.969,0.004,0.123,-69.5,-2.3,-4.6,-5.9,26.1,-16.6,0.0889309366,-0.620502335,-0.0509048738,-0.77742851
285,717360,1612500,0.969,0.004,0.13,-68.7,-2.3,-4.5,-5.9,26.1,-16.6,0.0879238258,-0.620685446,-0.0498062075,-0.777489547
286,719431,1612500,0.977,0.008,0.13,-67.8,-2.1,-4.6,-5.9,26.1,-16.6,0.086916715,-0.620838038,-0.0487075411,-0.777550584
287,721231,1612510,0.977,0.008,0.138,-66.9,-1.8,-4.8,-5.9,26.1,-15.6,0.0859401227,-0.620990631,-0.0476393933,-0.777611621
288,725390,1612510,0.973,0.008,0.134,-66.1,-1.4,-5.1,-5.9,26.1,-15.6,0.0849330119,-0.621143223,-0.046601764,-0.777672658
289,728076,1612510,0.977,0.008,0.138,-65.2,-1,-5.4,-5.9,26.1,-15.6,0.0839564196,-0.621265297,-0.0455641346,-0.777733695
290,728629,1612510,0.977,0.012,0.138,-64.3,-0.5,-5.8,-5.9,26.1,-15.6,0.0830103458,-0.621387371,-0.0445570238,-0.777794733
291,730976,1612520,0.977,0.008,0.142,-63.3,-0.1,-6.3,-5.9,26.5,-14.8,0.0820337535,-0.621509445,-0.043549913,-0.77785577
292,734829,1612520,0.973,0.008,0.146,-62.6,0.1,-6.9,-5.9,26.5,-14.8,0.0810571612,-0.621601001,-0.0426038392,-0.777947325
293,736639,1612520,0.977,0.004,0.146,-62,0.4,-7.4,-5.9,26.5,-14.8,0.0801110874,-0.621692557,-0.0416272469,-0.778008362
294,739022,1612520,0.977,0,0.15,-61.6,0.5,-8,-5.9,26.5,-14.8,0.0791344951,-0.621784112,-0.0407116916,-0.778099918
295,743197,1612530,0.985,-0.007,0.146,-61.4,0.6,-8.6,-6.2,26.8,-14.2,0.0781579028,-0.621875668,-0.0397656178,-0.778160955
296,743489,1612530,0.989,-0.011,0.154,-61.3,0.8,-9.2,-6.2,26.8,-14.2,0.077150792,-0.621967223,-0.0388500626,-0.77825251
297,747481,1612530,0.993,-0.015,0.157,-61.3,1,-9.9,-6.2,26.8,-14.2,0.0761436811,-0.62202826,-0.0379345073,-0.778313547
298,749890,1612530,0.993,-0.019,0.157,-61.4,1.3,-10.5,-6.2,26.8,-14.2,0.0751365703,-0.622058779,-0.0370494705,-0.778405103
299,751807,1612540,0.993,-0.019,0.157,-61.4,1.3,-10.5,-6.2,26.8,-14.2,0.0751365703,-0.622058779,-0.0370494705,-0.778405103
300,754123,1612540,0.989,-0.026,0.165,-61.6,1.9,-11.7,-5.9,26.9,-17.2,0.0729697562,-0.622608112,-0.035401471,-0.778313547
301,756406,1612540,0.993,-0.034,0.173,-61.9,2.1,-12.3,-5.9,26.9,-17.2,0.0718710898,-0.62263863,-0.0345164342,-0.778405103
302,758897,1612540,0.989,-0.042,0.173,-62.3,2.2,-12.9,-5.9,26.9,-17.2,0.0708334605,-0.622699667,-0.0336313974,-0.778496658
303,761071,1612550,0.985,-0.05,0.177,-62.8,2,-13.4,-6.3,26.8,-14.5,0.0697653127,-0.622760704,-0.0327463607,-0.778588214
304,763587,1612550,0.981,-0.053,0.185,-63.4,1.6,-13.9,-6.3,26.8,-14.5,0.0686666463,-0.622791223,-0.0318308054,-0.778679769
305,767894,1612550,0.981,-0.061,0.181,-64,1.1,-14.3,-6.3,26.8,-14.5,0.06756798,-0.622882778,-0.0309457686,-0.778771325
306,769958,1612550,0.969,-0.057,0.185,-64.8,0.5,-14.7,-6.3,26.8,-14.5,0.0664082766,-0.622943815,-0.0300302133,-0.778832362
307,772330,1612560,0.961,-0.061,0.189,-65.6,-0.1,-14.9,-6.4,26.9,-14.4,0.0652790918,-0.623035371,-0.0291451765,-0.778893399
308,774827,1612560,0.958,-0.069,0.19,-66.4,-0.8,-15.2,-6.4,26.9,-14.4,0.0641193884,-0.623126926,-0.0281991028,-0.778954436
309,776690,1612560,0.95,-0.076,0.198,-67.4,-1.6,-15.3,-6.4,26.9,-14.4,0.0629291665,-0.623249001,-0.0272835475,-0.778984954
310,779045,1612560,0.942,-0.076,0.194,-68.4,-2.2,-15.5,-6.4,26.9,-14.4,0.0617389447,-0.623371075,-0.0263374737,-0.779015473
311,781244,1612570,0.942,-0.084,0.194,-69.3,-2.6,-15.7,-6.7,26.9,-14.6,0.0605182043,-0.623493149,-0.0253608814,-0.779045991
312,785278,1612570,0.938,-0.08,0.194,-70.2,-2.9,-15.7,-6.7,26.9,-14.6,0.0592974639,-0.623615223,-0.0243842891,-0.779045991
313,787367,1612570,0.934,-0.092,0.182,-70.9,-2.9,-15.9,-6.7,26.9,-14.6,0.0580767235,-0.623767815,-0.0234076968,-0.77907651
314,789697,1612570,0.934,-0.1,0.186,-71.4,-2.9,-16,-6.7,26.9,-14.6,0.0568254646,-0.623889889,-0.022400586,-0.77907651
315,791726,1612580,0.938,-0.096,0.174,-71.7,-2.7,-16.3,-6.3,27.1,-14.5,0.0555742058,-0.624011963,-0.0214239937,-0.779107028
316,794006,1612580,0.934,-0.1,0.178,-72,-2.5,-16.7,-6.3,27.1,-14.5,0.0542924284,-0.624134037,-0.0203863643,-0.779137547
317,796224,1612580,0.938,-0.108,0.163,-72.2,-2.1,-17,-6.3,27.1,-14.5,0.053010651,-0.624256111,-0.019409772,-0.779137547
318,799570,1612580,0.934,-0.115,0.167,-72.1,-1.6,-17.4,-6.3,27.1,-14.5,0.0517288736,-0.624347667,-0.0184331797,-0.779168065
319,801178,1612590,0.934,-0.115,0.167,-72.1,-1.6,-17.4,-6.3,27.1,-14.5,0.0517288736,-0.624347667,-0.0184331797,-0.779168065
320,804151,1612590,0.942,-0.131,0.159,-71.9,-0.4,-17.9,-6.5,27.7,-15.4,0.0493484298,-0.62468337,-0.016235847,-0.779107028
321,806606,1612590,0.941,-0.131,0.147,-71.8,0,-18.2,-6.5,27.7,-15.4,0.0480666524,-0.624744407,-0.0152592547,-0.779168065
322,808843,1612590,0.941,-0.131,0.151,-71.6,0.4,-18.4,-6.5,27.7,-15.4,0.046784875,-0.624805445,-0.0142826624,-0.779198584
323,811770,1612600,0.949,-0.143,0.147,-71.5,0.7,-18.8,-6.5,27.9,-14,0.0455030976,-0.624866482,-0.0133365886,-0.779259621
324,813805,1612600,0.949,-0.147,0.147,-71.4,0.8,-19.2,-6.5,27.9,-14,0.0441908017,-0.624927519,-0.0123905148,-0.779320658
325,817999,1612600,0.957,-0.159,0.139,-71.4,0.8,-19.7,-6.5,27.9,-14,0.0428785058,-0.624958037,-0.0114444411,-0.779351176
326,818419,1612600,0.961,-0.159,0.143,-71.4,0.9,-20.1,-6.5,27.9,-14,0.0415356914,-0.625019074,-0.0104983673,-0.779412214
327,821249,1612610,0.969,-0.175,0.135,-71.4,0.9,-20.4,-6.5,28.2,-14.5,0.040253914,-0.625049593,-0.00955229347,-0.779442732
328,824626,1612610,0.969,-0.178,0.139,-71.6,0.9,-20.7,-6.5,28.2,-14.5,0.0389110996,-0.62511063,-0.00863673818,-0.779503769
329,825946,1612610,0.969,-0.175,0.135,-71.9,0.8,-21,-6.5,28.2,-14.5,0.0375682852,-0.625141148,-0.00769066439,-0.779534288
330,829142,1612610,0.984,-0.183,0.13,-72.1,0.5,-21.3,-6.5,28.2,-14.5,0.0362254707,-0.625202185,-0.00674459059,-0.779564806
331,831325,1612620,0.992,-0.191,0.13,-72.3,0.1,-21.7,-6.7,27.9,-14,0.0348826563,-0.625232704,-0.00582903531,-0.779595325
332,834028,1612620,0.996,-0.195,0.13,-72.3,0,-21.9,-6.7,27.9,-14,0.0334788049,-0.625293741,-0.00488296152,-0.779625843
333,835945,1612620,1,-0.195,0.126,-72.3,-0.1,-21.9,-6.7,27.9,-14,0.0321359905,-0.625354778,-0.00396740623,-0.779656362
334,838475,1612620,0.996,-0.199,0.13,-72.3,-0.2,-21.8,-6.7,27.9,-14,0.0307626576,-0.625385296,-0.00302133244,-0.779656362
335,842997,1612630,1.004,-0.195,0.126,-72.3,-0.5,-21.4,-6.8,28.5,-14.6,0.0294198431,-0.625446333,-0.00207525864,-0.77968688
336,845324,1612630,1,-0.179,0.126,-72.4,-1,-21,-6.8,28.5,-14.6,0.0280770287,-0.62550737,-0.00112918485,-0.77968688
337,847504,1612630,1.004,-0.195,0.126,-72.6,-1.8,-20.6,-6.8,28.5,-14.6,0.0267342143,-0.625598926,-0.000183111057,-0.779656362
338,849692,1612630,1.011,-0.195,0.122,-73.1,-2.7,-20.1,-6.8,28.5,-14.6,0.0253913999,-0.625690481,0.000762962737,-0.779625843
339,851711,1612640,1.011,-0.195,0.122,-73.1,-2.7,-20.1,-6.8,28.5,-14.6,0.0253913999,-0.625690481,0.000762962737,-0.779625843
340,853998,1612640,1.035,-0.199,0.122,-74.7,-4.9,-19.8,-7.4,28.2,-12.5,0.0230109561,-0.626178777,0.00314340648,-0.779290139
341,856227,1612640,1.043,-0.199,0.118,-75.1,-5.7,-20,-7.4,28.2,-12.5,0.0216071047,-0.62633137,0.00415051729,-0.779229102
342,859194,1612640,1.035,-0.187,0.126,-74.7,-6,-20.1,-7.4,28.2,-12.5,0.0202642903,-0.626453444,0.00512710959,-0.779137547
343,861509,1612650,1.035,-0.18,0.122,-73.5,-5.7,-20.1,-7.2,28.2,-12.2,0.0189214759,-0.626606037,0.0061037019,-0.77907651
344,863802,1612650,1.039,-0.184,0.126,-72,-5.1,-19.7,-7.2,28.2,-12.2,0.0175786615,-0.626728111,0.00704977569,-0.778984954
345,866127,1612650,1.039,-0.184,0.126,-70.5,-4.4,-19.2,-7.2,28.2,-12.2,0.0163274026,-0.626819666,0.00799584948,-0.778923917
346,868400,1612650,1.035,-0.187,0.126,-69.4,-3.7,-19,-7.2,28.2,-12.2,0.0150456252,-0.626911222,0.00891140477,-0.77886288
347,872145,1612660,1.031,-0.187,0.13,-68.6,-3.1,-18.8,-7.9,28.3,-12.3,0.0137943663,-0.627002777,0.00982696005,-0.778801843
348,874246,1612660,1.027,-0.187,0.126,-68.1,-2.3,-18.9,-7.9,28.3,-12.3,0.0125431074,-0.627063814,0.0107119968,-0.778771325
349,876451,1612660,1.031,-0.187,0.13,-67.8,-1.5,-19.1,-7.9,28.3,-12.3,0.01126133,-0.627094333,0.0115970336,-0.778740806
350,879600,1612660,1.027,-0.191,0.13,-67.7,-0.8,-19.5,-7.9,28.3,-12.3,0.0100100711,-0.627124851,0.0124820704,-0.778710288
351,881679,1612670,1.027,-0.195,0.134,-67.6,-0.3,-19.9,-7.6,28.4,-11.9,0.00875881222,-0.62715537,0.0133671072,-0.778710288
352,883941,1612670,1.027,-0.199,0.134,-67.6,-0.1,-20.1,-7.6,28.4,-11.9,0.00747703482,-0.627185888,0.0142521439,-0.778679769
353,887892,1612670,1.027,-0.203,0.134,-67.8,-0.2,-20.4,-7.6,28.4,-11.9,0.00619525742,-0.627216407,0.0151066622,-0.778649251
354,890145,1612670,1.023,-0.203,0.138,-67.8,-0.3,-20.6,-7.6,28.4,-11.9,0.00491348003,-0.627216407,0.015991699,-0.778618732
355,892363,1612680,1.019,-0.211,0.134,-67.7,-0.3,-20.7,-8,27.9,-11.3,0.00366222114,-0.627246925,0.0168462172,-0.778588214
356,893682,1612680,1.019,-0.207,0.134,-67.5,-0.3,-20.8,-8,27.9,-11.3,0.00238044374,-0.627277444,0.0177007355,-0.778588214
357,896672,1612680,1.004,-0.195,0.142,-67.4,-0.1,-20.8,-8,27.9,-11.3,0.00109866634,-0.627277444,0.0185552538,-0.778557695
358,898870,1612680,0.988,-0.191,0.138,-67.3,0,-20.7,-8,27.9,-11.3,0.000152592547,0.627277444,-0.019409772,0.778527177
359,902062,1612690,0.988,-0.191,0.138,-67.3,0,-20.7,-8,27.9,-11.3,0.000152592547,0.627277444,-0.019409772,0.778527177
360,903420,1612690,0.984,-0.202,0.138,-69.1,-1.1,-19,-7.6,28.8,-10.1,0.00201422163,0.627735221,-0.0220954009,0.778099918
361,906442,1612690,0.976,-0.21,0.131,-71.7,-2.5,-17.4,-7.6,28.8,-10.1,0.00329599902,0.62776574,-0.0230719932,0.778008362
362,909583,1612690,0.98,-0.226,0.131,-74.8,-4.4,-16,-7.6,28.8,-10.1,0.00457777642,0.627857295,-0.024140141,0.777916807
363,911703,1612700,1.003,-0.249,0.126,-78,-6.6,-15.3,-7.8,28,-11.2,0.00589007233,0.627948851,-0.0252388073,0.777794733
364,913898,1612700,1.027,-0.262,0.134,-80.4,-8.6,-15.4,-7.8,28,-11.2,0.00726340526,0.628101444,-0.0263679922,0.777611621
365,917061,1612700,1.039,-0.266,0.126,-81.3,-10,-16.6,-7.8,28,-11.2,0.00866725669,0.628254036,-0.0275582141,0.77742851
366,919175,1612700,1.054,-0.282,0.133,-80.6,-10.3,-19,-7.8,28,-11.2,0.0100711081,0.628437147,-0.0286568804,0.777245399
367,921380,1612710,1.07,-0.297,0.133,-78.6,-9.3,-22,-7.6,28,-11.9,0.0115054781,0.62858974,-0.0296639912,0.777062288
368,925396,1612710,1.074,-0.305,0.137,-75.6,-7.1,-24.9,-7.6,28,-11.9,0.0129703665,0.628711814,-0.0306405835,0.776909696
369,927625,1612710,1.081,-0.321,0.137,-72.2,-4.3,-26.7,-7.6,28,-11.9,0.0144047365,0.628772851,-0.0314951018,0.776787622
370,929834,1612710,1.085,-0.333,0.141,-68.6,-1,-27.6,-7.6,28,-11.9,0.0158391064,0.628803369,-0.0322580645,0.776726585
371,932190,1612720,1.062,-0.321,0.137,-64.9,2.5,-27.5,-8.4,28.1,-11.1,0.0171819208,0.628742332,-0.0329905087,0.776696066
372,934195,1612720,1.054,-0.317,0.137,-61.2,6.1,-26.8,-8.4,28.1,-11.1,0.0184942167,0.628650777,-0.033661916,0.776726585
373,936388,1612720,1.054,-0.325,0.141,-58.2,9.4,-25.6,-8.4,28.1,-11.1,0.0197149571,0.628467666,-0.0343028047,0.776787622
374,939708,1612720,1.054,-0.328,0.137,-56.1,11.9,-24.6,-8.4,28.1,-11.1,0.0209356975,0.628254036,-0.0349131748,0.776909696
375,941681,1612730,1.058,-0.34,0.133,-55.3,13.5,-23.9,-8.2,28.1,-11.1,0.0220954009,0.628040407,-0.035523545,0.77703177
376,943880,1612730,1.066,-0.344,0.129,-55.5,14.3,-23.9,-8.2,28.1,-11.1,0.0232856227,0.62776574,-0.0361033967,0.777184362
377,947103,1612730,1.069,-0.356,0.125,-56.2,14.6,-24.3,-8.2,28.1,-11.1,0.0244758446,0.627521592,-0.0367137669,0.777336955
378,949176,1612730,1.077,-0.368,0.125,-57.1,14.9,-24.9,-8.2,28.1,-11.1,0.025696585,0.627246925,-0.0373546556,0.777459029
379,951441,1612740,1.077,-0.368,0.125,-57.1,14.9,-24.9,-8.2,28.1,-11.1,0.025696585,0.627246925,-0.0373546556,0.777459029
380,955406,1612740,1.109,-0.365,0.14,-57.9,16.2,-26.3,-8.5,29.8,-8.9,0.0281685842,0.626697592,-0.038575396,0.777764214
381,957661,1612740,1.105,-0.364,0.14,-57.9,17.5,-26.6,-8.5,29.8,-8.9,0.0294198431,0.626392407,-0.0391857662,0.777947325
382,959930,1612740,1.066,-0.34,0.149,-58.3,19.1,-26.7,-8.5,29.8,-8.9,0.0307016205,0.626026185,-0.0397961364,0.778130436
383,962179,1612750,1.046,-0.336,0.141,-59.7,20.3,-26.5,-8.4,28.4,-10.4,0.0319833979,0.625690481,-0.0404370251,0.778313547
384,964273,1612750,1.038,-0.344,0.13,-62.7,20.4,-25.5,-8.4,28.4,-10.4,0.0332956938,0.625293741,-0.0411389508,0.778557695
385,966527,1612750,1.038,-0.344,0.134,-68,18.9,-23.8,-8.4,28.4,-10.4,0.0346385083,0.624958037,-0.0419629505,0.778740806
386,968658,1612750,1.065,-0.383,0.125,-75.5,15.5,-21.3,-8.4,28.4,-10.4,0.0360423597,0.624652852,-0.0429395428,0.77886288
387,971564,1612760,1.081,-0.411,0.129,-84.8,11,-18.5,-8.7,29,-10.1,0.0375377667,0.624408704,-0.0440992462,0.778923917
388,974844,1612760,1.096,-0.462,0.113,-94.7,6.4,-15.8,-8.7,29,-10.1,0.0390942106,0.624256111,-0.0455030976,0.778893399
389,976298,1612760,1.135,-0.553,0.101,-103.8,2.8,-13.5,-8.7,29,-10.1,0.0407422102,0.624103519,-0.0470900601,0.778801843
390,979177,1612760,1.135,-0.584,0.105,-110.3,1,-12.3,-8.7,29,-10.1,0.0424512467,0.624011963,-0.0487990967,0.778710288
391,981469,1612770,1.143,-0.651,0.089,-113.1,1.4,-12.9,-8.9,29,-9.6,0.0442213202,0.623889889,-0.0505386517,0.778588214
392,984625,1612770,1.154,-0.721,0.089,-111.2,4.1,-15.5,-8.9,29,-9.6,0.0460219123,0.623737297,-0.0522171697,0.778496658
393,985959,1612770,1.17,-0.753,0.105,-104.4,8.4,-19.9,-8.9,29,-9.6,0.0477919858,0.623493149,-0.0537125767,0.77846614
394,989086,1612770,1.154,-0.744,0.124,-92.7,14.1,-25.8,-8.9,29,-9.6,0.0495010224,0.623187963,-0.0549027985,0.778527177
395,991288,1612780,1.127,-0.74,0.141,-77.1,20.9,-31.6,-8.4,29.3,-9,0.0511185034,0.622791223,-0.0557573168,0.778679769
396,994239,1612780,1.088,-0.72,0.157,-60,28,-34.7,-8.4,29.3,-9,0.0525223548,0.622302927,-0.0562761315,0.778954436
397,996387,1612780,1.006,-0.691,0.178,-44.4,34.8,-33.5,-8.4,29.3,-9,0.0537430952,0.621692557,-0.0565507981,0.779351176
398,999513,1612780,0.998,-0.702,0.174,-33.3,39.8,-28.8,-8.4,29.3,-9,0.0547196875,0.621021149,-0.0566728721,0.779808954
399,1000957,1612790,0.998,-0.702,0.174,-33.3,39.8,-28.8,-8.4,29.3,-9,0.0547196875,0.621021149,-0.0566728721,0.779808954
400,1003973,1612790,0.975,-0.722,0.171,-26.5,43.7,-20.1,-8.9,29.2,-8.3,0.0563371685,0.619525742,-0.0568865017,0.780846583
401,1007083,1612790,0.967,-0.729,0.171,-27,43.6,-18.4,-8.9,29.2,-8.3,0.0570696127,0.61876278,-0.0570390942,0.781395917
402,1008543,1612790,0.959,-0.737,0.171,-27.3,43.3,-18.1,-8.9,29.2,-8.3,0.0578020569,0.618030335,-0.0572222053,0.781914731
403,1011522,1612800,0.951,-0.741,0.175,-26.6,43.6,-18.5,-8.8,29,-8.3,0.0585345012,0.617267373,-0.0573747978,0.782433546
404,1014659,1612800,0.947,-0.772,0.168,-24.5,44.3,-19.3,-8.8,29,-8.3,0.0592669454,0.61650441,-0.0574663533,0.782982879
405,1016017,1612800,0.947,-0.784,0.16,-21.5,45.5,-20.2,-8.8,29,-8.3,0.0599383526,0.615710929,-0.0574968719,0.783532212
406,1019114,1612800,0.947,-0.799,0.156,-17.8,47,-21.2,-8.8,29,-8.3,0.0605792413,0.614917447,-0.0574663533,0.784142582
407,1021183,1612810,0.959,-0.831,0.156,-13.4,48.7,-22,-9.1,28.8,-8.2,0.06122013,0.614093448,-0.0573442793,0.784722434
408,1025051,1612810,0.967,-0.835,0.152,-8.6,50.3,-22.9,-9.1,28.8,-8.2,0.0617999817,0.613238929,-0.0571001312,0.785363323
409,1026356,1612810,0.978,-0.851,0.147,-3.5,51.9,-23.6,-9.1,28.8,-8.2,0.0622882778,0.612384411,-0.0567949461,0.78603473
410,1029573,1612810,0.99,-0.863,0.143,1.5,53.6,-24.4,-9.1,28.8,-8.2,0.062776574,0.611499374,-0.056367687,0.786706137
411,1031490,1612820,1.005,-0.89,0.147,6.3,55.2,-25.1,-9,28.9,-8.6,0.0632038331,0.610583819,-0.0558488723,0.787408063
412,1033357,1612820,1.025,-0.902,0.151,10.4,56.9,-25.6,-9,28.9,-8.6,0.0635700552,0.609637745,-0.0552079836,0.788140507
413,1036654,1612820,1.033,-0.926,0.147,14.1,58,-25.2,-9,28.9,-8.6,0.0639057588,0.608691671,-0.0545670949,0.78890347
414,1039626,1612820,1.04,-0.946,0.15,17.4,58.6,-24.2,-9,28.9,-8.6,0.0641499069,0.607745598,-0.0538651692,0.789666433
415,1041100,1612830,1.064,-1.001,0.15,20.5,59,-22.8,-9.2,28.6,-8.9,0.064333018,0.606769005,-0.053132725,0.790459914
416,1044105,1612830,1.071,-1.028,0.154,23.1,59.7,-21.7,-9.2,28.6,-8.9,0.0644856105,0.605822932,-0.0523697623,0.791222877
417,1047411,1612830,1.087,-1.064,0.146,25.4,60.6,-20.8,-9.2,28.6,-8.9,0.0645466475,0.604815821,-0.0515457625,0.792046876
418,1049774,1612830,1.098,-1.083,0.142,27.2,61.7,-20.2,-9.2,28.6,-8.9,0.0646382031,0.60380871,-0.0507522813,0.792840358
419,1051686,1612840,1.098,-1.083,0.142,27.2,61.7,-20.2,-9.2,28.6,-8.9,0.0646382031,0.60380871,-0.0507522813,0.792840358
420,1053935,1612840,1.129,-1.154,0.126,30.3,63.4,-18.3,-9.1,28.2,-8.9,0.0646382031,0.60176397,-0.0490432447,0.794518876
421,1056181,1612840,1.125,-1.162,0.114,31.7,63.7,-16.7,-9.1,28.2,-8.9,0.0645466475,0.600695822,-0.0481887265,0.795373394
422,1058680,1612840,1.152,-1.233,0.102,33.2,63.6,-14.9,-9.1,28.2,-8.9,0.0644856105,0.599658193,-0.0473036897,0.796227912
423,1063372,1612850,1.149,-1.241,0.098,35,63.2,-12.6,-9.6,29,-8.7,0.0643024995,0.598620563,-0.0464186529,0.797051912
424,1063695,1612850,1.133,-1.264,0.094,37.6,63,-9.7,-9.6,29,-8.7,0.0640278329,0.597582934,-0.0455946532,0.79790643
425,1067900,1612850,1.121,-1.283,0.079,41.7,62.9,-6,-9.6,29,-8.7,0.0636616108,0.596575823,-0.0446790979,0.798760949
426,1070033,1612850,1.074,-1.326,0.064,47.1,63.1,-1.3,-9.6,29,-8.7,0.0631427961,0.595538194,-0.0437330241,0.799615467
427,1072143,1612860,1.05,-1.345,0.065,53.7,63.4,3.8,-9.7,28.9,-9.1,0.0624408704,0.594500565,-0.0427564318,0.800500504
428,1073769,1612860,1.015,-1.356,0.054,61.3,63.9,9.5,-9.7,28.9,-9.1,0.0615253151,0.593462935,-0.041749321,0.801416059
429,1076303,1612860,0.952,-1.382,0.028,69.6,64,15.2,-9.7,28.9,-9.1,0.0604266488,0.592394787,-0.0406506546,0.802301096
430,1078524,1612860,0.925,-1.386,0.016,78.3,63.7,20.4,-9.7,28.9,-9.1,0.0591143529,0.591387677,-0.0394604328,0.803247169
431,1082159,1612870,0.905,-1.393,-0.002,87.2,62.8,24.9,-9.6,28.8,-9.8,0.0575884274,0.590350047,-0.0381176183,0.804162725
432,1083436,1612870,0.886,-1.401,-0.013,96,61.5,28.5,-9.6,28.8,-9.8,0.0559099094,0.589373455,-0.0367748039,0.805047761
433,1086530,1612870,0.843,-1.416,-0.024,105,60,31.8,-9.6,28.8,-9.8,0.0540482803,0.588427381,-0.0352488784,0.805932798
434,1089383,1612870,0.823,-1.408,-0.032,114.3,58.5,34.8,-9.6,28.8,-9.8,0.0520035401,0.587481307,-0.0336313974,0.806817835
435,1090891,1612880,0.811,-1.4,-0.043,123.8,57.1,38,-9.8,28.6,-10.6,0.0498062075,0.586596271,-0.0318613239,0.807702872
436,1093733,1612880,0.792,-1.4,-0.055,133.9,55.7,41.6,-9.8,28.6,-10.6,0.0473952452,0.585741752,-0.0299691763,0.808526872
437,1096980,1612880,0.788,-1.384,-0.094,144.5,54.3,45.2,-9.8,28.6,-10.6,0.0447706534,0.584887234,-0.0279549547,0.80938139
438,1098358,1612880,0.788,-1.372,-0.101,155.4,53.2,49,-9.8,28.6,-10.6,0.0419629505,0.584063234,-0.025757622,0.810174871
439,1101322,1612890,0.788,-1.372,-0.101,155.4,53.2,49,-9.8,28.6,-10.6,0.0419629505,0.584063234,-0.025757622,0.810174871
440,1103578,1612890,0.803,-1.283,-0.133,177.8,51.1,57,-7.4,27.5,-11.6,0.0356761376,0.582476272,-0.0209967345,0.811761834
441,1106547,1612890,0.815,-1.252,-0.153,188.8,50,61.3,-7.4,27.5,-11.6,0.032227546,0.581713309,-0.0184026612,0.812524796
442,1109698,1612890,0.831,-1.229,-0.173,199.1,48.4,66,-7.4,27.5,-11.6,0.0285348064,0.580950346,-0.0156254769,0.813257241
443,1111168,1612900,0.846,-1.198,-0.185,208.1,46.3,71,-9,28.6,-12.3,0.0246589557,0.580217902,-0.0128482925,0.813959166
444,1114829,1612900,0.893,-1.14,-0.217,215.9,43.4,76,-9,28.6,-12.3,0.0205694754,0.579546495,-0.00994903409,0.814600055
445,1116204,1612900,0.928,-1.118,-0.246,222.8,39.9,81,-9,28.6,-12.3,0.0163274026,0.578905606,-0.00698873867,0.815179907
446,1119154,1612900,0.96,-1.079,-0.258,229.1,36.3,85.9,-9,28.6,-12.3,0.0119022187,0.578325755,-0.00399792474,0.815698721
447,1122224,1612910,1.014,-1.025,-0.279,235.2,32.7,91.1,-7.7,28.5,-13.2,0.00732444227,0.577776421,-0.000946073794,0.81612598
448,1123672,1612910,1.046,-1.003,-0.283,241.6,29.5,96.7,-7.7,28.5,-13.2,0.0025635548,0.577288125,0.00210577715,0.816522721
449,1126942,1612910,1.065,-0.98,-0.299,248.3,26.1,103.2,-7.7,28.5,-13.2,0.00238044374,-0.576830348,-0.00521866512,-0.816827906
450,1129785,1612910,1.089,-0.949,-0.311,254.8,22.2,110.3,-7.7,28.5,-13.2,0.00753807184,-0.576403088,-0.00839259011,-0.817041536
451,1131298,1612920,1.124,-0.902,-0.324,261.3,17.9,117.5,-7.2,28.2,-14.2,0.012939848,-0.576067385,-0.0115665151,-0.817194128
452,1134546,1612920,1.132,-0.887,-0.336,268.2,13.7,124.3,-7.2,28.2,-14.2,0.0185247353,-0.5757622,-0.0147709586,-0.817255165
453,1136453,1612920,1.143,-0.848,-0.336,275.5,10.1,130.6,-7.2,28.2,-14.2,0.0242927335,-0.575487533,-0.0180364391,-0.817224647
454,1139586,1612920,1.151,-0.833,-0.348,283,7.8,136.7,-7.2,28.2,-14.2,0.0302743614,-0.575243385,-0.0213629566,-0.817102573
455,1141045,1612930,1.175,-0.798,-0.376,290.3,6.5,142.5,-5.9,27.8,-15.6,0.0365001373,-0.574999237,-0.0247505112,-0.81694998
456,1143945,1612930,1.182,-0.771,-0.4,296.9,6.6,148.3,-5.9,27.8,-15.6,0.0428785058,-0.574694052,-0.0281685842,-0.816736351
457,1147125,1612930,1.186,-0.736,-0.404,302.3,7.9,154.5,-5.9,27.8,-15.6,0.0494399854,-0.574358348,-0.0316171758,-0.816461684
458,1148594,1612930,1.194,-0.728,-0.42,306.2,9.8,161.5,-5.9,27.8,-15.6,0.0561540574,-0.573931089,-0.0350352489,-0.816187017
459,1151504,1612940,1.194,-0.728,-0.42,306.2,9.8,161.5,-5.9,27.8,-15.6,0.0561540574,-0.573931089,-0.0350352489,-0.816187017
460,1155210,1612940,1.198,-0.65,-0.439,308.7,13.7,177.1,-4.7,26.4,-16.7,0.0700399792,-0.572923978,-0.0416577654,-0.81551561
461,1156645,1612940,1.202,-0.635,-0.447,307.3,14.8,184.7,-4.7,26.4,-16.7,0.0771813105,-0.572344127,-0.0448011719,-0.81511887
462,1158997,1612940,1.198,-0.611,-0.455,304.5,14.8,191.9,-4.7,26.4,-16.7,0.0844141972,-0.571733757,-0.0477919858,-0.814661092
463,1162100,1612950,1.202,-0.611,-0.459,301,14,198.8,-4.2,25.9,-17.7,0.0917386395,-0.571123386,-0.0506302072,-0.814111759
464,1164205,1612950,1.21,-0.596,-0.463,297,12.6,205.9,-4.2,25.9,-17.7,0.0990936003,-0.570513016,-0.0533158361,-0.81347087
465,1166047,1612950,1.222,-0.592,-0.471,293.1,11,213.1,-4.2,25.9,-17.7,0.106540117,-0.569902646,-0.0558183538,-0.812829981
466,1169190,1612950,1.233,-0.561,-0.471,289.3,9.3,219.9,-4.2,25.9,-17.7,0.11404767,-0.569322794,-0.0581987976,-0.812067019
467,1171499,1612960,1.245,-0.546,-0.476,285.7,7.8,226.4,-2.9,25.4,-18.9,0.12161626,-0.568742943,-0.0604266488,-0.811181982
468,1173795,1612960,1.249,-0.53,-0.476,281.9,6.3,232.8,-2.9,25.4,-18.9,0.129245888,-0.568163091,-0.0625019074,-0.810266427
469,1177308,1612960,1.269,-0.488,-0.484,278.1,4.6,239.2,-2.9,25.4,-18.9,0.136906034,-0.567613758,-0.064455092,-0.809228797
470,1179374,1612960,1.288,-0.472,-0.488,274.2,2.3,245.9,-2.9,25.4,-18.9,0.144657735,-0.567094943,-0.0662251656,-0.808130131
471,1181099,1612970,1.312,-0.453,-0.493,270.5,-0.5,253.2,-1.8,24.8,-20,0.152470473,-0.566576128,-0.0678731651,-0.806909391
472,1184191,1612970,1.335,-0.422,-0.497,267.5,-4.2,261.4,-1.8,24.8,-20,0.160344249,-0.566148869,-0.069368572,-0.805566576
473,1186435,1612970,1.386,-0.373,-0.51,265.5,-8.5,270.5,-1.8,24.8,-20,0.168370617,-0.565752129,-0.0707113865,-0.804071169
474,1190279,1612970,1.413,-0.354,-0.522,264.9,-13.4,280.1,-1.8,24.8,-20,0.176519059,-0.565416425,-0.0719626453,-0.80242317
475,1192433,1612980,1.445,-0.315,-0.542,266,-18.8,289.9,-0.3,24.5,-20.7,0.184850612,-0.565172277,-0.0730918302,-0.800653096
476,1193729,1612980,1.484,-0.269,-0.559,269.1,-24.4,299.5,-0.3,24.5,-20.7,0.193365276,-0.564958647,-0.074221015,-0.798669393
477,1197016,1612980,1.562,-0.192,-0.588,274,-29.6,308.8,-0.3,24.5,-20.7,0.202063051,-0.564806055,-0.0752891629,-0.796533097
478,1199217,1612980,1.601,-0.158,-0.612,280.6,-34.1,317.8,-0.3,24.5,-20.7,0.210974456,-0.564653462,-0.0764183477,-0.794213691
479,1201498,1612990,1.601,-0.158,-0.612,280.6,-34.1,317.8,-0.3,24.5,-20.7,0.210974456,-0.564653462,-0.0764183477,-0.794213691
480,1203936,1612990,1.707,-0.015,-0.661,296.2,-40.7,334.5,0.3,22.9,-22.1,0.229468673,-0.564317759,-0.0787072359,-0.789086581
481,1206114,1612990,1.726,0.034,-0.681,304.8,-42.2,341.5,0.3,22.9,-22.1,0.238990448,-0.564073611,-0.0799890133,-0.786278878
482,1210143,1612990,1.707,0.132,-0.701,312,-41.7,347.6,0.3,22.9,-22.1,0.248725852,-0.563737907,-0.0812707907,-0.78337962
483,1212490,1613000,1.707,0.202,-0.74,313.9,-40.5,353.4,1.5,22,-22.6,0.258552812,-0.563341166,-0.0825220496,-0.780358287
484,1214978,1613000,1.941,0.144,-0.713,306.7,-40.6,358.9,1.5,22,-22.6,0.268318735,-0.562913907,-0.0835291604,-0.777245399
485,1216843,1613000,1.938,0.222,-0.662,291.5,-43.2,362.5,1.5,22,-22.6,0.277962584,-0.562578204,-0.0842921232,-0.774010437
486,1219117,1613000,1.872,0.262,-0.673,273.9,-46.8,363.4,1.5,22,-22.6,0.287362285,-0.562334056,-0.0847193823,-0.77068392
487,1221325,1613010,1.966,0.312,-0.592,258.7,-49.9,361.5,2.7,21.1,-23.3,0.296517838,-0.562211982,-0.0849635304,-0.767296365
488,1225380,1613010,1.982,0.335,-0.534,245.1,-53.2,357.9,2.7,21.1,-23.3,0.305398724,-0.562150945,-0.0849940489,-0.763847774
489,1227604,1613010,1.959,0.308,-0.51,230.4,-55.4,353.8,2.7,21.1,-23.3,0.314004944,-0.562150945,-0.0848719749,-0.760338145
490,1230080,1613010,1.951,0.317,-0.459,213.9,-53.2,350.8,2.7,21.1,-23.3,0.322336497,-0.562211982,-0.0844752342,-0.756859035
491,1233077,1613020,1.963,0.231,-0.404,197.8,-44.4,349.5,3.5,20.4,-24.1,0.330454421,-0.562181463,-0.0837733085,-0.753440962
492,1233525,1613020,1.881,0.232,-0.442,184.8,-30.4,348.6,3.5,20.4,-24.1,0.338358715,-0.561967833,-0.0827356792,-0.750206
493,1235989,1613020,1.853,0.377,-0.532,178.8,-13.7,346.2,3.5,20.4,-24.1,0.346171453,-0.561479537,-0.0815149388,-0.74712363
494,1238527,1613020,1.732,0.452,-0.62,182.4,4.2,342.8,3.5,20.4,-24.1,0.353984191,-0.560594501,-0.0802636799,-0.744224372
495,1242970,1613030,1.697,0.539,-0.588,194.4,20.8,340.2,4.6,19.2,-24.5,0.361949522,-0.559343242,-0.0791039766,-0.741508225
496,1245387,1613030,1.615,0.591,-0.594,212.6,31.9,341.3,4.6,19.2,-24.5,0.370097964,-0.557725761,-0.0781273843,-0.738792077
497,1247427,1613030,1.596,0.685,-0.59,236,33.6,346.9,4.6,19.2,-24.5,0.378612629,-0.555833613,-0.0774254585,-0.735984375
498,1249003,1613030,1.628,0.787,-0.513,263.5,26.9,355.9,4.6,19.2,-24.5,0.387554552,-0.553788873,-0.0771202734,-0.732871487
499,1252290,1613040,1.628,0.787,-0.513,263.5,26.9,355.9,4.6,19.2,-24.5,0.387554552,-0.553788873,-0.0771202734,-0.732871487
500,1254305,1613040,1.559,1.05,-0.449,318.7,17.9,380.5,5,17.6,-25.2,0.406872768,-0.549180578,-0.0775170141,-0.725821711
501,1256685,1613040,1.559,1.05,-0.449,318.7,17.9,380.5,5,17.6,-25.2,0.406872768,-0.549180578,-0.0775170141,-0.725821711
502,1258802,1613040,1.217,1.299,-0.341,342.2,56,412,5,17.6,-25.2,0.427838984,-0.542985321,-0.0777916807,-0.718344676
503,1262150,1613050,1.177,1.124,-0.356,331.8,82.8,424.9,7.9,16.8,-25.6,0.438520463,-0.539292581,-0.0771813105,-0.714743492
504,1264229,1613050,0.912,1.07,-0.218,310.4,100.4,429,7.9,16.8,-25.6,0.44901883,-0.53541673,-0.0760216071,-0.711233863
505,1266843,1613050,0.865,0.993,-0.143,285.4,101.7,419.2,7.9,16.8,-25.6,0.458998383,-0.531723991,-0.0745567186,-0.70781579
506,1268976,1613050,0.761,0.934,0.156,261,86.7,393.7,7.9,16.8,-25.6,0.468214972,-0.528366955,-0.0731223487,-0.704397717
507,1271245,1613060,0.777,0.817,0.266,234,62,356,8.7,14.5,-26.1,0.476485488,-0.525559252,-0.0719931639,-0.7010712
508,1273547,1613060,0.8,0.52,0.285,196.8,36.4,313.5,8.7,14.5,-26.1,0.483565783,-0.523453475,-0.0710165716,-0.697897275
509,1277408,1613060,0.923,-0.041,0.206,146.1,15.5,271.7,8.7,14.5,-26.1,0.489394818,-0.522080142,-0.0699789422,-0.694967498
510,1279733,1613060,0.902,-0.302,0.164,86.9,1.9,232.9,8.7,14.5,-26.1,0.493911557,-0.521469771,-0.0686361278,-0.692373424
511,1282295,1613070,0.877,-0.65,0.043,30.4,-3.7,197.1,9.6,14.3,-25.8,0.497207556,-0.521469771,-0.0668965728,-0.690145573
512,1284317,1613070,0.938,-0.894,-0.035,-12.8,-5.1,165.5,9.6,14.3,-25.8,0.499557482,-0.521927549,-0.0648518326,-0.688314463
513,1286486,1613070,0.885,-1.273,-0.194,-36.4,-8,140.9,9.6,14.3,-25.8,0.501236,-0.522659993,-0.0628070925,-0.6867275
514,1288715,1613070,0.885,-1.406,-0.213,-38.2,-17.3,127.5,9.6,14.3,-25.8,0.502700888,-0.523514512,-0.0609454634,-0.685171056
515,1292847,1613080,1.024,-1.273,0.175,-21.5,-34.4,129.1,9.3,14.1,-26.2,0.504318369,-0.524399548,-0.059541612,-0.683400983
516,1294885,1613080,1.438,-0.829,1.286,4.3,-59.3,146.2,9.3,14.1,-26.2,0.506485183,-0.525437178,-0.0585955382,-0.681112094
517,1296282,1613080,3.644,-0.097,2.771,25.5,-90.9,174.8,9.3,14.1,-26.2,0.509262368,-0.526749474,-0.0579546495,-0.678090762
518,1300246,1613080,4.728,0.222,2.433,32.1,-126.2,208,9.3,14.1,-26.2,0.512527848,-0.528489029,-0.0574053163,-0.674275948
519,1302716,1613090,4.728,0.222,2.433,32.1,-126.2,208,9.3,14.1,-26.2,0.512527848,-0.528489029,-0.0574053163,-0.674275948
520,1304915,1613090,5.542,1.501,-1.601,22.1,-195.1,273.9,8.1,13.6,-26.5,0.520157476,-0.533829768,-0.0561845759,-0.664265877
521,1307245,1613090,5.672,2.678,-3.986,58.6,-225.7,307.9,8.1,13.6,-26.5,0.525009919,-0.536790063,-0.0560319834,-0.65807062
522,1309358,1613090,4.948,4.621,-5.499,182.5,-258.9,332.2,8.1,13.6,-26.5,0.531571398,-0.538804285,-0.0577105014,-0.650959807
523,1311602,1613100,3.988,6.598,-5.63,426.1,-297,323.7,8.2,11.4,-27.5,0.540757469,-0.538438063,-0.0633869442,-0.64311655
524,1313556,1613100,1.093,7.93,-3.832,769.2,-324.6,256.5,8.2,11.4,-27.5,0.552842799,-0.534165471,-0.0749839778,-0.635090182
525,1316625,1613100,0.06,7.956,-2.121,1121.7,-310.9,118.3,8.2,11.4,-27.5,0.566850795,-0.5249794,-0.0928678243,-0.628009888
526,1318835,1613100,0.058,7.969,0.325,1352,-230.1,-83.9,8.2,11.4,-27.5,0.580492569,-0.511001923,-0.115176855,-0.623371075
527,1322159,1613110,0.753,7.889,3.037,1346.5,-87.4,-317.5,6.9,5.2,-28.6,0.590685751,-0.494094668,-0.138096255,-0.622760704
528,1324208,1613110,0.801,6.872,3.057,1078.9,76.1,-526.5,6.9,5.2,-28.6,0.595171972,-0.477401044,-0.157383953,-0.626911222
529,1326108,1613110,0.872,5.513,2.644,638.1,207.5,-656.1,6.9,5.2,-28.6,0.593432417,-0.463942381,-0.170232246,-0.635273293
530,1330268,1613110,0.585,3.95,1.794,176.7,272.3,-680.8,6.9,5.2,-28.6,0.586718345,-0.455275124,-0.176000244,-0.646107364
531,1332740,1613120,0.412,1.565,0.122,-176.3,275.4,-615.9,7.7,6.3,-28.4,0.577288125,-0.451246681,-0.1760918,-0.657307657
532,1334881,1613120,0.375,0.735,-0.34,-373.3,248.1,-498.4,7.7,6.3,-28.4,0.56736961,-0.450422681,-0.172490616,-0.667409284
533,1337165,1613120,0.531,0.583,-0.37,-435.8,218.6,-366.9,7.7,6.3,-28.4,0.558488723,-0.451216163,-0.167027802,-0.6756798
534,1339246,1613120,0.671,0.46,-0.318,-419.2,195.9,-248.5,7.7,6.3,-28.4,0.551377911,-0.45249794,-0.1609241,-0.682119205
535,1341491,1613130,0.582,0.143,-0.061,-379.4,174.9,-158.3,8.6,8.4,-28,0.545884579,-0.453871273,-0.154728843,-0.687032685
536,1343818,1613130,0.489,0.028,0.096,-356.3,149.1,-101.5,8.6,8.4,-28,0.541306803,-0.455519272,-0.148594623,-0.690908536
537,1346724,1613130,0.485,-0.052,0.257,-366.5,117,-77.9,8.6,8.4,-28,0.5368511,-0.457808161,-0.142460402,-0.694143498
538,1348992,1613130,0.302,-0.435,0.52,-408.5,79.2,-82.7,8.6,8.4,-28,0.531723991,-0.461134678,-0.136173589,-0.69716483
539,1352043,1613140,0.302,-0.435,0.52,-408.5,79.2,-82.7,8.6,8.4,-28,0.531723991,-0.461134678,-0.136173589,-0.69716483
540,1353481,1613140,0.3,-1.177,0.56,-542.1,-8.4,-149.9,8.8,11,-27.5,0.517563402,-0.471572008,-0.122959075,-0.703268532
541,1357470,1613140,0.418,-1.166,0.738,-602.9,-55,-200.1,8.8,11,-27.5,0.508072146,-0.478652303,-0.116397595,-0.706503494
542,1359040,1613140,0.592,-1.783,0.748,-646.2,-100.9,-251.7,8.8,11,-27.5,0.497146519,-0.486678671,-0.110171819,-0.709799493
543,1360882,1613150,0.727,-2.157,0.671,-673.1,-144.2,-296.4,7.5,13.9,-26.2,0.484969634,-0.495406964,-0.104434339,-0.713003937
544,1364586,1613150,0.877,-2.574,0.556,-690.3,-182.4,-326.9,7.5,13.9,-26.2,0.471938231,-0.504745628,-0.0991546373,-0.715964232
545,1366065,1613150,1.099,-2.887,0.529,-699.8,-210.7,-340.6,7.5,13.9,-26.2,0.458388012,-0.514419996,-0.0941190832,-0.718558306
546,1369942,1613150,1.665,-3.718,0.257,-701.6,-225.2,-334.8,7.5,13.9,-26.2,0.444746239,-0.524216437,-0.0891140477,-0.720694601
547,1371551,1613160,1.872,-4.204,-0.132,-693.8,-224.5,-306.3,6.6,17.2,-24.8,0.431470687,-0.533799249,-0.083864864,-0.722342601
548,1373958,1613160,2.095,-4.538,-0.527,-671.8,-210.8,-252.8,6.6,17.2,-24.8,0.419232765,-0.542924284,-0.0782189398,-0.723410749
549,1377030,1613160,2.074,-4.501,-0.824,-625.1,-188.4,-175.1,6.6,17.2,-24.8,0.40867336,-0.551255837,-0.0721152379,-0.723776971
550,1378518,1613160,1.794,-4.39,-0.772,-543.7,-163.6,-77.6,6.6,17.2,-24.8,0.400646992,-0.558519242,-0.0659199805,-0.723288675
551,1381622,1613170,1.499,-3.947,-0.631,-427.5,-142.8,29.1,6.3,19.2,-23.4,0.395672475,-0.564531388,-0.0600604266,-0.721884823
552,1383829,1613170,1.233,-3.382,-0.341,-290.1,-129.2,129.6,6.3,19.2,-23.4,0.393963439,-0.56920072,-0.0550248726,-0.719534898
553,1387165,1613170,0.957,-2.472,0.084,-153.9,-123,208.6,6.3,19.2,-23.4,0.395153661,-0.572710349,-0.0510574664,-0.716391491
554,1389270,1613170,0.947,-2.116,0.197,-40.9,-123.4,259.3,6.3,19.2,-23.4,0.398541215,-0.575273904,-0.0482497635,-0.712637715
555,1391196,1613180,0.968,-1.835,0.243,36.1,-130.5,285.7,6.3,18.8,-23.1,0.403302103,-0.577257607,-0.0463576159,-0.708456679
556,1393671,1613180,1.027,-1.57,0.261,79.7,-142.8,296.4,6.3,18.8,-23.1,0.408734397,-0.579058199,-0.045106357,-0.70393994
557,1397361,1613180,1.239,-1.156,0.233,102.7,-157.2,300.2,6.3,18.8,-23.1,0.414471877,-0.580828272,-0.0443128758,-0.699148534
558,1399675,1613180,1.282,-1.078,0.189,121.5,-169.3,303.6,6.3,18.8,-23.1,0.420484024,-0.582598346,-0.0438245796,-0.69411298
559,1401706,1613190,1.282,-1.078,0.189,121.5,-169.3,303.6,6.3,18.8,-23.1,0.420484024,-0.582598346,-0.0438245796,-0.69411298
560,1403918,1613190,1.499,-0.578,0.223,195.2,-175,315.9,6.2,18.3,-26.3,0.433942686,-0.585253456,-0.0443128758,-0.683492538
561,1406345,1613190,1.499,-0.578,0.223,195.2,-175,315.9,6.2,18.3,-26.3,0.433942686,-0.585253456,-0.0443128758,-0.683492538
562,1408668,1613190,1.622,-0.224,0.299,325.3,-157.6,320.3,6.2,18.3,-26.3,0.450514237,-0.585100864,-0.0478835414,-0.672566912
563,1411782,1613200,1.658,-0.021,0.38,388.6,-144.9,313.3,6.5,16.5,-25.3,0.459913938,-0.583697012,-0.0509964293,-0.667195654
564,1414021,1613200,1.691,0.326,0.477,435.7,-130.6,299.4,6.5,16.5,-25.3,0.469618824,-0.58149968,-0.0548417615,-0.661976989
565,1416239,1613200,1.649,0.526,0.512,461.5,-114.5,279.3,6.5,16.5,-25.3,0.479354228,-0.578722495,-0.0591143529,-0.657063509
566,1420296,1613200,1.598,0.66,0.509,465,-95.9,254.4,6.5,16.5,-25.3,0.488723411,-0.575518052,-0.0635700552,-0.65254677
567,1422609,1613210,1.498,0.97,0.503,449.4,-74.9,225.8,6.5,14.4,-25.6,0.497421186,-0.57206946,-0.0679647206,-0.648548845
568,1424719,1613210,1.416,1.007,0.488,419.5,-51.8,196,6.5,14.4,-25.6,0.505355998,-0.568529313,-0.0719931639,-0.645100253
569,1427102,1613210,1.307,1.087,0.502,380.7,-27.9,167.3,6.5,14.4,-25.6,0.512344737,-0.564958647,-0.075594348,-0.64229255
570,1429074,1613210,1.155,1.152,0.532,337,-5.9,140.8,6.5,14.4,-25.6,0.518448439,-0.561479537,-0.0786461989,-0.640064699
571,1431260,1613220,1.037,1.079,0.456,291.4,10.6,115.1,6.9,12.9,-26.1,0.523636586,-0.558214057,-0.0811487167,-0.638386181
572,1434642,1613220,0.955,1.131,0.458,246.7,19.5,87.7,6.9,12.9,-26.1,0.527909177,-0.55528428,-0.0833155309,-0.637165441
573,1436118,1613220,0.927,1.089,0.407,203.6,20.3,56.4,6.9,12.9,-26.1,0.531174657,-0.552751244,-0.085238197,-0.636402478
574,1438434,1613220,0.919,1.12,0.372,161.9,15.1,21.2,6.9,12.9,-26.1,0.533463546,-0.550706503,-0.0870082705,-0.636036256
575,1442200,1613230,0.856,1.066,0.311,119.9,6.7,-16,6.7,12.2,-26.3,0.534684286,-0.549180578,-0.0888393811,-0.636066774
576,1443593,1613230,0.841,1.031,0.288,78,-3.3,-53,6.7,12.2,-26.3,0.534867397,-0.548203986,-0.0905789361,-0.636494034
577,1446564,1613230,0.832,0.886,0.257,37.8,-14.2,-86.5,6.7,12.2,-26.3,0.534104434,-0.547807245,-0.0923184912,-0.637256996
578,1448759,1613230,0.905,0.584,0.228,2.8,-26.1,-113.3,6.7,12.2,-26.3,0.532486953,-0.547898801,-0.0940275277,-0.638264107
579,1451746,1613240,0.905,0.584,0.228,2.8,-26.1,-113.3,6.7,12.2,-26.3,0.532486953,-0.547898801,-0.0940275277,-0.638264107
580,1454100,1613240,1.057,0.426,0.312,-37.6,-50.5,-148.6,6.4,12.5,-29.2,0.527665029,-0.549241615,-0.0975676748,-0.640583514
581,1457530,1613240,1.12,0.366,0.354,-42.7,-60.6,-162.7,6.4,12.5,-29.2,0.524735252,-0.550248726,-0.0996124149,-0.641804254
582,1459121,1613240,1.257,0.235,0.418,-44.1,-67.4,-176.5,6.4,12.5,-29.2,0.521591845,-0.551316874,-0.101901303,-0.64311655
583,1461370,1613250,1.311,0.176,0.453,-48.4,-70.2,-188.9,5.8,12.7,-27.3,0.518173772,-0.55241554,-0.104281747,-0.644520402
584,1464617,1613250,1.362,0.101,0.46,-59.2,-68.8,-197.5,5.8,12.7,-27.3,0.51454207,-0.553605762,-0.106601154,-0.646046327
585,1466634,1613250,1.416,0.014,0.447,-77.3,-64,-200.9,5.8,12.7,-27.3,0.510605182,-0.554887539,-0.108645894,-0.647694327
586,1468818,1613250,1.482,-0.115,0.43,-99.9,-57.2,-198.2,5.8,12.7,-27.3,0.506454665,-0.556352428,-0.110293893,-0.649403363
587,1472930,1613260,1.525,-0.179,0.41,-123.8,-50,-189.6,5.6,13.1,-27.8,0.502151555,-0.55793939,-0.11139256,-0.651203955
588,1475070,1613260,1.505,-0.323,0.372,-123.8,-50,-189.6,5.6,13.1,-27.8,0.497817927,-0.559556871,-0.112491226,-0.652974029
589,1477227,1613260,1.5,-0.476,0.333,-145.9,-43,-174.8,5.6,13.1,-27.8,0.493423261,-0.561326945,-0.113010041,-0.654713584
590,1478610,1613260,1.5,-0.507,0.341,-164.6,-36.5,-154.5,5.6,13.1,-27.8,0.489089633,-0.563219092,-0.112887967,-0.656331065
591,1482536,1613270,1.417,-0.693,0.3,-178.8,-30.3,-129.7,5.1,14.1,-28.3,0.484969634,-0.565233314,-0.112277596,-0.657765435
592,1484661,1613270,1.393,-0.767,0.253,-189.9,-24.2,-100.6,5.1,14.1,-28.3,0.481124302,-0.567339091,-0.111056856,-0.658986175
593,1486142,1613270,1.251,-1.007,0.201,-199.1,-18.3,-67.6,5.1,14.1,-28.3,0.477614673,-0.569536424,-0.109225745,-0.659932249
594,1489163,1613270,1.192,-1.089,0.191,-206.9,-12,-32.3,5.1,14.1,-28.3,0.474562822,-0.571764275,-0.106784265,-0.660603656
595,1491353,1613280,1.13,-1.158,0.196,-210.9,-5.1,1.9,5,15.5,-27.6,0.471938231,-0.574022645,-0.103762932,-0.661030915
596,1494247,1613280,1.067,-1.2,0.201,-209,3,32.8,5,15.5,-27.6,0.469801935,-0.576219977,-0.100314341,-0.661183508
597,1496460,1613280,0.91,-1.432,0.162,-200.1,12.6,59.1,5,15.5,-27.6,0.468153935,-0.578203681,-0.0965300455,-0.661122471
598,1499713,1613280,0.852,-1.407,0.19,-184.3,23.2,80.3,5,15.5,-27.6,0.467024751,-0.579912717,-0.0926236763,-0.661030915
599,1501813,1613290,0.852,-1.407,0.19,-184.3,23.2,80.3,5,15.5,-27.6,0.467024751,-0.579912717,-0.0926236763,-0.661030915
600,1503960,1613290,0.736,-1.194,0.294,-130.1,44.5,104.3,5.2,15.6,-26.5,0.466902676,-0.581682791,-0.0853297525,-0.660542619
601,1507125,1613290,0.736,-1.194,0.294,-130.1,44.5,104.3,5.2,15.6,-26.5,0.466902676,-0.581682791,-0.0853297525,-0.660542619
602,1508545,1613290,0.765,-0.877,0.414,-55.3,63.7,101.8,5.2,15.6,-26.5,0.468245491,-0.581865902,-0.0793481246,-0.660176397
603,1510984,1613300,0.753,-0.814,0.414,-24.5,72.1,96.6,6,16.3,-26.6,0.469435713,-0.581255531,-0.0770287179,-0.660145878
604,1514674,1613300,0.742,-0.72,0.394,-7.5,79.3,95.2,6,16.3,-26.6,0.470839564,-0.580339976,-0.0748924223,-0.660176397
605,1516732,1613300,0.75,-0.662,0.386,-5.9,84.7,101.1,6,16.3,-26.6,0.47236549,-0.579332865,-0.0726645711,-0.660237434
606,1518932,1613300,0.746,-0.611,0.375,-13.9,87.7,113.8,6,16.3,-26.6,0.473952452,-0.578386792,-0.0701010163,-0.660176397
607,1522061,1613310,0.746,-0.525,0.355,-23.7,88.4,130.1,6.7,16.2,-26.4,0.475661489,-0.577562792,-0.0672017579,-0.659993286
608,1523427,1613310,0.738,-0.459,0.351,-29.6,87.1,146.6,6.7,16.2,-26.4,0.477523118,-0.576830348,-0.0640278329,-0.659596545
609,1526431,1613310,0.77,-0.362,0.35,-29.7,84,159.9,6.7,16.2,-26.4,0.479567858,-0.57615894,-0.0607013153,-0.659016694
610,1529524,1613310,0.77,-0.28,0.342,-24.3,78.9,168,6.7,16.2,-26.4,0.481795709,-0.575487533,-0.0574053163,-0.658284249
611,1530996,1613320,0.786,-0.221,0.314,-16,72.5,170.5,6.9,15.8,-26.6,0.484115116,-0.574816126,-0.0542924284,-0.657429731
612,1533904,1613320,0.766,-0.225,0.303,-7.7,65.3,168.5,6.9,15.8,-26.6,0.486526078,-0.574144719,-0.0513626514,-0.656483657
613,1537175,1613320,0.766,-0.221,0.299,-1.5,58.6,163.2,6.9,15.8,-26.6,0.488906522,-0.57350383,-0.0486770226,-0.655476547
614,1539242,1613320,0.782,-0.155,0.33,3.6,52.4,155.1,6.9,15.8,-26.6,0.491225929,-0.57289346,-0.0462355419,-0.654469436
615,1541476,1613330,0.869,0.015,0.387,10,46.2,143.6,7.7,15,-26.2,0.493423261,-0.572252571,-0.0440992462,-0.653492843
616,1544797,1613330,0.881,0.023,0.402,17.9,39.6,129.1,7.7,15,-26.2,0.495529038,-0.571611682,-0.0422681356,-0.652577288
617,1546965,1613330,0.881,0.042,0.441,23.8,33.3,113.4,7.7,15,-26.2,0.497482223,-0.571001312,-0.0408642842,-0.65172277
618,1548492,1613330,0.866,0.039,0.485,24.2,28.7,98.2,7.7,15,-26.2,0.499191259,-0.570421461,-0.0396740623,-0.650990326
619,1551497,1613340,0.866,0.039,0.485,24.2,28.7,98.2,7.7,15,-26.2,0.499191259,-0.570421461,-0.0396740623,-0.650990326
620,1554644,1613340,0.831,0.012,0.532,9,27.9,71.7,7.7,15,-26.2,0.501510666,-0.569536424,-0.0375377667,-0.650105289
621,1556075,1613340,0.839,-0.002,0.548,-1.5,30,60.2,7.7,15,-26.2,0.502365184,-0.569170202,-0.0364085818,-0.649830622
622,1559217,1613340,0.827,-0.045,0.568,-11,32.3,50.5,7.7,15,-26.2,0.502975555,-0.568895535,-0.0353099155,-0.64967803
623,1562632,1613350,0.823,-0.076,0.576,-18.9,34.6,43,8.1,14.8,-27.2,0.503372295,-0.568620869,-0.0341196936,-0.649647511
624,1564761,1613350,0.842,-0.104,0.568,-25,36.6,37.1,8.1,14.8,-27.2,0.503616443,-0.568407239,-0.0328989532,-0.649739067
625,1566623,1613350,0.846,-0.135,0.56,-29.8,38.5,32.2,8.1,14.8,-27.2,0.503738517,-0.568224128,-0.0316476943,-0.649861141
626,1568712,1613350,0.81,-0.178,0.494,-34.3,40,27.6,8.1,14.8,-27.2,0.503707999,-0.568041017,-0.0303659169,-0.65007477
627,1571785,1613360,0.814,-0.213,0.455,-38.6,41.5,22.1,8.1,14.9,-26.4,0.503585925,-0.567888424,-0.029114658,-0.650379955
628,1574845,1613360,0.837,-0.237,0.415,-43.1,43.3,15.2,8.1,14.9,-26.4,0.50328074,-0.56776635,-0.0278328806,-0.650776696
629,1576611,1613360,0.934,-0.251,0.351,-47.8,45.7,6.8,8.1,14.9,-26.4,0.502822962,-0.567644276,-0.0265511032,-0.651295511
630,1578969,1613360,0.965,-0.271,0.319,-52.5,48.6,-1.3,8.1,14.9,-26.4,0.502182073,-0.567522202,-0.0252693258,-0.651936399
631,1581271,1613370,0.973,-0.311,0.276,-57.5,51.9,-7.5,8.8,14.9,-27,0.501388592,-0.56736961,-0.0239875484,-0.652699362
632,1583813,1613370,0.965,-0.326,0.241,-63.5,56.1,-11,8.8,14.9,-27,0.500473037,-0.567308573,-0.022583697,-0.65355388
633,1586014,1613370,0.972,-0.35,0.178,-70.7,61.2,-12.3,8.8,14.9,-27,0.499465926,-0.567186499,-0.02108829,-0.654469436
634,1588706,1613370,0.96,-0.354,0.163,-78.1,66.5,-13.3,8.8,14.9,-27,0.498336741,-0.567094943,-0.019409772,-0.655476547
635,1591241,1613380,0.948,-0.377,0.143,-84.4,71.2,-14.9,8.3,15,-26.4,0.497085482,-0.566972869,-0.0175786615,-0.656544694
636,1593543,1613380,0.956,-0.385,0.147,-88.8,74.5,-17.3,8.3,15,-26.4,0.495773186,-0.566881314,-0.0157475509,-0.657704398
637,1597992,1613380,0.964,-0.35,0.186,-90.5,76.5,-19.5,8.3,15,-26.4,0.494399854,-0.566728721,-0.0138554033,-0.65889462
638,1599801,1613380,0.953,-0.315,0.21,-89.4,77.3,-20.8,8.3,15,-26.4,0.493026521,-0.566576128,-0.0119937742,-0.660084841
639,1601285,1613390,0.953,-0.315,0.21,-89.4,77.3,-20.8,8.3,15,-26.4,0.493026521,-0.566576128,-0.0119937742,-0.660084841
640,1603771,1613390,0.73,-0.299,0.229,-82.3,78.7,-18.6,8.3,15,-26.4,0.489700003,-0.566881314,-0.00921658986,-0.66237373
641,1606025,1613390,0.73,-0.299,0.229,-82.3,78.7,-18.6,8.3,15,-26.4,0.489700003,-0.566881314,-0.00921658986,-0.66237373
642,1610540,1613390,0.696,-0.248,0.253,-74.5,80.1,-13.4,8.3,15,-26.4,0.487411115,-0.566179388,-0.00567644276,-0.664662618
643,1612984,1613400,0.613,-0.289,0.228,-70.2,79.2,-12.9,9.6,17.1,-25.5,0.486342967,-0.565782647,-0.00396740623,-0.665791803
644,1615064,1613400,0.441,-0.369,0.18,-65.3,76.8,-15,9.6,17.1,-25.5,0.485335856,-0.565355388,-0.00238044374,-0.666920988
645,1617385,1613400,0.504,-0.276,0.222,-58.8,72.9,-20.1,9.6,17.1,-25.5,0.484328745,-0.564928129,-0.00100711081,-0.668019654
646,1619648,1613400,0.473,-0.252,0.222,-48.6,67.2,-28.9,9.6,17.1,-25.5,0.483291116,-0.564439833,3.05185095e-05,-0.669148839
647,1621742,1613410,0.468,-0.295,0.176,-35.3,59.6,-40.9,9.7,17.1,-25.4,0.482253487,-0.563951537,0.000671407208,-0.670339061
648,1623969,1613410,0.468,-0.322,0.176,-20.9,50.6,-54.8,9.7,17.1,-25.4,0.481215857,-0.563432722,0.000823999756,-0.671529283
649,1626429,1613410,0.5,-0.256,0.206,-7.5,40.7,-69.6,9.7,17.1,-25.4,0.480086673,-0.562913907,0.000518814661,-0.672750023
650,1630595,1613410,0.441,-0.306,0.176,5.4,30.6,-84.7,9.7,17.1,-25.4,0.478896451,-0.562395093,-0.000274666585,-0.6740318
651,1632869,1613420,0.594,-0.215,0.169,18.2,20.7,-99.4,9.3,17.4,-25.2,0.47767571,-0.561906796,-0.00152592547,-0.675313578
652,1634904,1613420,0.574,-0.203,0.162,30.5,10.9,-113.6,9.3,17.4,-25.2,0.476363414,-0.5614185,-0.00326548051,-0.676625874
653,1636443,1613420,0.613,-0.153,0.18,41.7,1,-126.9,9.3,17.4,-25.2,0.474990081,-0.560960723,-0.00543229469,-0.677938169
654,1638482,1613420,0.582,-0.184,0.15,50.9,-8.3,-138.7,9.3,17.4,-25.2,0.47358623,-0.560533464,-0.00796533097,-0.679280984
655,1641536,1613430,0.664,-0.154,0.132,57.2,-17.1,-148.8,9.2,17.7,-25.6,0.472060305,-0.560167241,-0.0108035524,-0.68059328
656,1643791,1613430,0.711,-0.127,0.116,60.8,-25.9,-157.7,9.2,17.7,-25.6,0.470442824,-0.559892575,-0.0139164403,-0.681875057
657,1647794,1613430,0.754,-0.026,0.142,62.4,-35.2,-166.1,9.2,17.7,-25.6,0.468733787,-0.559709464,-0.0172124393,-0.683126316
658,1650212,1613430,0.825,0.01,0.133,63.3,-45.1,-173.9,9.2,17.7,-25.6,0.466902676,-0.559648427,-0.0207525864,-0.684316538
659,1652540,1613440,0.825,0.01,0.133,63.3,-45.1,-173.9,9.2,17.7,-25.6,0.466902676,-0.559648427,-0.0207525864,-0.684316538
660,1654419,1613440,0.969,0.043,0.138,59.7,-64.6,-185.6,9.2,17.7,-25.6,0.462721641,-0.56019776,-0.0283822138,-0.686452834
661,1657719,1613440,0.969,0.043,0.138,59.7,-64.6,-185.6,9.2,17.7,-25.6,0.462721641,-0.56019776,-0.0283822138,-0.686452834
662,1659994,1613440,1.079,0.057,0.152,42.1,-80.1,-190.7,9.2,17.7,-25.6,0.458082827,-0.561265908,-0.0360118412,-0.688314463
663,1661757,1613450,1.075,0.088,0.164,28.4,-85.6,-191.5,7.6,17.7,-25.1,0.455488754,-0.562089908,-0.0395825068,-0.689168981
664,1664175,1613450,1.149,0.126,0.174,12.4,-89.3,-191.8,7.6,17.7,-25.1,0.452681051,-0.563158055,-0.0430616169,-0.689962462
665,1666320,1613450,1.196,0.079,0.177,-5,-91.2,-191.8,7.6,17.7,-25.1,0.4496292,-0.564378796,-0.0462355419,-0.690725425
666,1670611,1613450,1.22,0.082,0.184,-24.4,-90.9,-191.1,7.6,17.7,-25.1,0.44636372,-0.565813166,-0.0491042817,-0.691488388
667,1670982,1613460,1.266,0.089,0.176,-45.2,-88.3,-189.6,6.9,18.3,-25.3,0.442823572,-0.56736961,-0.051637318,-0.692312387
668,1673579,1613460,1.266,0.066,0.176,-67.1,-83.4,-187.1,6.9,18.3,-25.3,0.439069796,-0.569048128,-0.0537430952,-0.693136387
669,1675944,1613460,1.2,-0.022,0.158,-89.4,-76.2,-184,6.9,18.3,-25.3,0.43510239,-0.57084872,-0.0553910947,-0.694051943
670,1679138,1613460,1.215,-0.085,0.134,-111.5,-66.9,-180,6.9,18.3,-25.3,0.430890835,-0.57267983,-0.0565813166,-0.695059053
671,1681398,1613470,1.183,-0.12,0.123,-132.5,-56.2,-175.5,6.2,18.5,-25,0.42649617,-0.574571978,-0.0573137608,-0.69615772
672,1684523,1613470,1.137,-0.142,0.128,-150.6,-44.4,-171.8,6.2,18.5,-25,0.421918394,-0.576433607,-0.0575884274,-0.69737846
673,1685886,1613470,1.066,-0.219,0.113,-163.8,-32,-169.4,6.2,18.5,-25,0.417249062,-0.578203681,-0.0574968719,-0.698721274
674,1688809,1613470,1.015,-0.277,0.103,-172.1,-19.1,-168.1,6.2,18.5,-25,0.412488174,-0.57985168,-0.0571611682,-0.700186163
675,1692016,1613480,0.984,-0.292,0.107,-176.5,-6.2,-167.5,5.5,19.8,-24.3,0.40766625,-0.581316568,-0.0566728721,-0.701864681
676,1693398,1613480,0.96,-0.315,0.104,-178.3,6.5,-167.6,5.5,19.8,-24.3,0.402813807,-0.582567827,-0.0560014649,-0.703665273
677,1696367,1613480,0.894,-0.353,0.105,-178,18.3,-168.3,5.5,19.8,-24.3,0.398022401,-0.583635975,-0.0552079836,-0.705587939
678,1699529,1613480,0.874,-0.357,0.113,-175.8,28.4,-168.8,5.5,19.8,-24.3,0.393200476,-0.584521012,-0.0544450209,-0.707602161
679,1700892,1613490,0.874,-0.357,0.113,-175.8,28.4,-168.8,5.5,19.8,-24.3,0.393200476,-0.584521012,-0.0544450209,-0.707602161
680,1703856,1613490,0.804,-0.363,0.103,-168.4,42,-167.8,5.5,19.8,-24.3,0.383800775,-0.585680715,-0.0527665029,-0.711905271
681,1707019,1613490,0.804,-0.363,0.103,-168.4,42,-167.8,5.5,19.8,-24.3,0.383800775,-0.585680715,-0.0527665029,-0.711905271
682,1708406,1613490,0.8,-0.371,0.091,-161.4,45.4,-162.8,5.5,19.8,-24.3,0.374614704,-0.586596271,-0.0511795404,-0.716177862
683,1711388,1613500,0.811,-0.364,0.071,-158,42.9,-157.8,4.5,21.6,-23.3,0.370159001,-0.58702353,-0.0503250221,-0.718161565
684,1714528,1613500,0.78,-0.328,0.084,-154.1,38.2,-151.4,4.5,21.6,-23.3,0.365855892,-0.587511826,-0.0495925779,-0.720053713
685,1715896,1613500,0.792,-0.305,0.087,-149.4,32.1,-144.9,4.5,21.6,-23.3,0.361705374,-0.588030641,-0.0488296152,-0.721762749
686,1718762,1613500,0.804,-0.301,0.079,-144,25.6,-140,4.5,21.6,-23.3,0.357676931,-0.588610492,-0.0481276894,-0.723349712
687,1721818,1613510,0.851,-0.255,0.078,-138.5,19,-137.5,4.4,21.8,-23,0.353740043,-0.589251381,-0.0475783563,-0.7248146
688,1724958,1613510,0.863,-0.232,0.07,-133.5,12.7,-137.6,4.4,21.8,-23,0.349833674,-0.589922788,-0.0471510971,-0.726157414
689,1726336,1613510,0.886,-0.22,0.074,-129.1,7.4,-139.8,4.4,21.8,-23,0.345988342,-0.590655232,-0.046845912,-0.72746971
690,1729462,1613510,0.91,-0.197,0.077,-125.1,3.3,-143.9,4.4,21.8,-23,0.342081973,-0.591387677,-0.046662801,-0.728720969
691,1730966,1613520,0.972,-0.163,0.072,-121.8,0.5,-148.9,3.7,22.5,-22.6,0.338145085,-0.592120121,-0.046662801,-0.72994171
692,1733765,1613520,1.007,-0.133,0.083,-119.4,-1.2,-154.7,3.7,22.5,-22.6,0.334116642,-0.592852565,-0.046784875,-0.731192969
693,1737192,1613520,1.019,-0.121,0.091,-118.5,-1.8,-160.5,3.7,22.5,-22.6,0.330027161,-0.593585009,-0.0469679861,-0.732444227
694,1738720,1613520,1.039,-0.121,0.09,-119.9,-1.2,-165.8,3.7,22.5,-22.6,0.325815607,-0.594286935,-0.0472121342,-0.733756523
695,1741738,1613530,1.074,-0.126,0.093,-124,0.8,-170.1,2.6,22.8,-22.3,0.321481979,-0.594988861,-0.0473952452,-0.735099338
696,1745160,1613530,1.101,-0.111,0.093,-130.8,3.9,-173.5,2.6,22.8,-22.3,0.316995758,-0.595660268,-0.0475478378,-0.736472671
697,1746636,1613530,1.136,-0.111,0.092,-139.7,7.3,-176.1,2.6,22.8,-22.3,0.312356944,-0.596301157,-0.0475478378,-0.737937559
698,1748872,1613530,1.152,-0.131,0.088,-150.3,10.9,-177.8,2.6,22.8,-22.3,0.30753502,-0.596972564,-0.0473647267,-0.739432966
699,1752113,1613540,1.152,-0.131,0.088,-150.3,10.9,-177.8,2.6,22.8,-22.3,0.30753502,-0.596972564,-0.0473647267,-0.739432966
700,1754149,1613540,1.156,-0.17,0.072,-176.6,18.9,-177.1,2.6,22.8,-22.3,0.297402875,-0.59828486,-0.0462965789,-0.742576373
701,1756384,1613540,1.156,-0.17,0.072,-176.6,18.9,-177.1,2.6,22.8,-22.3,0.297402875,-0.59828486,-0.0462965789,-0.742576373
702,1759609,1613540,1.136,-0.283,0.03,-208,28.7,-171.3,2.6,22.8,-22.3,0.286599322,-0.599658193,-0.0439771722,-0.745841853
703,1761753,1613550,1.124,-0.326,0.03,-223.1,33.6,-167.9,1.4,24.8,-20.7,0.280983917,-0.6003296,-0.0423291726,-0.74755089
704,1763903,1613550,1.108,-0.365,0.011,-236.3,38.1,-165.3,1.4,24.8,-20.7,0.275215918,-0.601001007,-0.0404065065,-0.749259926
705,1766446,1613550,1.084,-0.451,-0.015,-246.6,42.2,-163.4,1.4,24.8,-20.7,0.269356365,-0.601611377,-0.0382702109,-0.750968963
706,1768745,1613550,1.068,-0.494,-0.018,-254.1,45.9,-162.3,1.4,24.8,-20.7,0.263374737,-0.602221747,-0.0359202857,-0.752739036
707,1772928,1613560,1.041,-0.528,-0.022,-258.5,49.8,-161.6,0.9,25.7,-20,0.25736259,-0.602740562,-0.0335398419,-0.75450911
708,1775031,1613560,1.002,-0.563,-0.021,-259.7,54.2,-161.8,0.9,25.7,-20,0.251319926,-0.603167821,-0.0310983612,-0.756309702
709,1777267,1613560,0.951,-0.628,-0.024,-257.4,59,-162.3,0.9,25.7,-20,0.245277261,-0.603473006,-0.0286568804,-0.758140812
710,1779301,1613560,0.939,-0.663,-0.019,-252.1,63.6,-162.4,0.9,25.7,-20,0.239326151,-0.603656117,-0.0263069552,-0.759971923
711,1781701,1613570,0.927,-0.671,-0.023,-243.9,67,-161.3,0.5,26.2,-19.3,0.233466597,-0.603717154,-0.024018067,-0.761833552
712,1783774,1613570,0.919,-0.686,-0.023,-233.1,68.6,-158.8,0.5,26.2,-19.3,0.227759636,-0.603686636,-0.0218512528,-0.763664663
713,1786352,1613570,0.919,-0.702,-0.023,-220,68.2,-155.5,0.5,26.2,-19.3,0.222327342,-0.603534043,-0.0198980682,-0.765404218
714,1790525,1613570,0.923,-0.698,-0.031,-205.6,66,-152.1,0.5,26.2,-19.3,0.217108676,-0.603381451,-0.0181890316,-0.767082736
715,1792773,1613580,0.927,-0.679,-0.023,-191,62.3,-148.4,-0.2,26.5,-18.6,0.212103641,-0.603167821,-0.0166020692,-0.768700217
716,1794987,1613580,0.935,-0.663,-0.015,-177.7,57.1,-144.4,-0.2,26.5,-18.6,0.207373272,-0.602954192,-0.0152897732,-0.770165105
717,1797126,1613580,0.97,-0.625,0.014,-167,49.9,-140,-0.2,26.5,-18.6,0.202826014,-0.602832118,-0.0140995514,-0.77150792
718,1799346,1613580,0.99,-0.601,0.029,-158.9,41.3,-135.2,-0.2,26.5,-18.6,0.198461867,-0.602801599,-0.0130314035,-0.772667623
719,1801488,1613590,0.99,-0.601,0.029,-158.9,41.3,-135.2,-0.2,26.5,-18.6,0.198461867,-0.602801599,-0.0130314035,-0.772667623
720,1803773,1613590,1.041,-0.571,0.079,-147.5,24,-126.2,-0.2,26.5,-18.6,0.19022187,-0.603045747,-0.0111087374,-0.774590289
721,1807674,1613590,1.041,-0.571,0.079,-147.5,24,-126.2,-0.2,26.5,-18.6,0.19022187,-0.603045747,-0.0111087374,-0.774590289
722,1809919,1613590,1.096,-0.568,0.098,-138.7,10.9,-119.6,-0.2,26.5,-18.6,0.182409131,-0.603656117,-0.00939970092,-0.77599414
723,1812241,1613600,1.127,-0.553,0.105,-133.8,6.7,-117,-0.8,26.7,-17.6,0.178655354,-0.604052858,-0.00866725669,-0.776573992
724,1814610,1613600,1.182,-0.538,0.143,-127.5,4.5,-114.7,-0.8,26.7,-17.6,0.175023652,-0.604449599,-0.00799584948,-0.777092807
725,1816565,1613600,1.206,-0.503,0.162,-119.3,4.7,-112.9,-0.8,26.7,-17.6,0.171544542,-0.604785302,-0.00744651631,-0.777611621
726,1818760,1613600,1.222,-0.464,0.177,-109.2,7.2,-111.4,-0.8,26.7,-17.6,0.168187506,-0.605059969,-0.00701925718,-0.778130436
727,1821329,1613610,1.218,-0.382,0.197,-98.1,10.8,-110.1,-0.5,27.3,-17.6,0.165044099,-0.605212561,-0.0067751091,-0.778710288
728,1823433,1613610,1.226,-0.351,0.201,-87.3,14.2,-108.6,-0.5,27.3,-17.6,0.162053285,-0.605273598,-0.00668355358,-0.779290139
729,1826757,1613610,1.234,-0.319,0.208,-78.3,16.2,-105.8,-0.5,27.3,-17.6,0.159215064,-0.60524308,-0.00668355358,-0.77990051
730,1829093,1613610,1.23,-0.288,0.212,-72,16.6,-101.4,-0.5,27.3,-17.6,0.156559954,-0.605212561,-0.00674459059,-0.780480361
731,1831402,1613620,1.211,-0.249,0.205,-67.9,16.1,-95.6,-0.9,27.3,-17.4,0.154026917,-0.605151524,-0.0067751091,-0.780999176
732,1835509,1613620,1.164,-0.232,0.202,-65.6,15.4,-89.2,-0.9,27.3,-17.4,0.151646474,-0.605090487,-0.00680562761,-0.781517991
733,1837774,1613620,1.113,-0.212,0.195,-64.4,15,-83.6,-0.9,27.3,-17.4,0.149357585,-0.60502945,-0.00674459059,-0.782006287
734,1840007,1613620,1.055,-0.191,0.18,-64,14.6,-79.7,-0.9,27.3,-17.4,0.147160253,-0.604968413,-0.00665303507,-0.782464064
735,1842149,1613630,0.945,-0.174,0.135,-64.4,13.2,-78.6,-1,27.2,-16.8,0.14496292,-0.604937895,-0.00656147954,-0.782891324
736,1844259,1613630,0.918,-0.201,0.112,-66.4,10.1,-80.3,-1,27.2,-16.8,0.14270455,-0.604968413,-0.0064394055,-0.783288064
737,1846405,1613630,0.91,-0.229,0.089,-70.2,5,-85.1,-1,27.2,-16.8,0.140324107,-0.605090487,-0.00634784997,-0.783623768
738,1848680,1613630,0.937,-0.21,0.018,-75.1,-0.9,-92.4,-1,27.2,-16.8,0.137760552,-0.605334635,-0.00628681295,-0.783928953
739,1851289,1613640,0.937,-0.21,0.018,-75.1,-0.9,-92.4,-1,27.2,-16.8,0.137760552,-0.605334635,-0.00628681295,-0.783928953
740,1853664,1613640,0.96,-0.179,-0.013,-80.3,-7.8,-111.3,-1,27.2,-16.8,0.132023072,-0.606006043,-0.00640888699,-0.784386731
741,1855888,1613640,0.96,-0.179,-0.013,-80.3,-7.8,-111.3,-1,27.2,-16.8,0.132023072,-0.606006043,-0.00640888699,-0.784386731
742,1860215,1613640,0.972,-0.179,0.002,-71.4,0,-123.7,-1,27.2,-16.8,0.125858333,-0.606494339,-0.00711081271,-0.784997101
743,1862442,1613650,0.956,-0.163,0.002,-63.2,8.2,-124.4,-2.5,27.6,-16,0.122898038,-0.606494339,-0.00762962737,-0.785454878
744,1864687,1613650,0.941,-0.143,0.018,-55.1,17.6,-122.3,-2.5,27.6,-16,0.120090335,-0.606311228,-0.00827051607,-0.78603473
745,1866713,1613650,0.945,-0.147,0.084,-49.8,26.4,-119.5,-2.5,27.6,-16,0.117374187,-0.605975524,-0.00891140477,-0.786706137
746,1868928,1613650,0.957,-0.163,0.115,-49.4,33.3,-117.3,-2.5,27.6,-16,0.114719077,-0.605487228,-0.00955229347,-0.787438581
747,1871086,1613660,0.961,-0.186,0.131,-54.7,36.9,-116.2,-2.9,27.4,-16.1,0.11200293,-0.604968413,-0.0100405896,-0.788232063
748,1873652,1613660,0.972,-0.226,0.127,-64.7,36.5,-116.1,-2.9,27.4,-16.1,0.109164708,-0.604480117,-0.0103762932,-0.789025544
749,1878189,1613660,0.995,-0.296,0.123,-77.5,32.8,-116.9,-2.9,27.4,-16.1,0.106143376,-0.604052858,-0.0104983673,-0.78972747
750,1878485,1613660,0.999,-0.328,0.119,-90.9,27.2,-118.2,-2.9,27.4,-16.1,0.102908414,-0.603778191,-0.0104373302,-0.790398877
751,1882630,1613670,1.007,-0.363,0.111,-103.1,21.7,-119.1,-3.3,27.6,-15.7,0.0994903409,-0.60359508,-0.0101626637,-0.79094821
752,1884900,1613670,1.015,-0.39,0.107,-113.6,17.8,-118.8,-3.3,27.6,-15.7,0.0959501938,-0.603503525,-0.00973540452,-0.791467025
753,1887147,1613670,1.015,-0.422,0.111,-121.7,16.4,-117,-3.3,27.6,-15.7,0.0923184912,-0.603442488,-0.00915555284,-0.791955321
754,1889178,1613670,0.999,-0.406,0.119,-127.1,17.5,-113.8,-3.3,27.6,-15.7,0.0886867885,-0.603381451,-0.00842310862,-0.792443617
755,1891333,1613680,0.995,-0.421,0.123,-130.1,20.3,-109.2,-4,27.4,-15.1,0.0850550859,-0.603259377,-0.00756859035,-0.792931913
756,1893866,1613680,0.991,-0.409,0.135,-131.9,23.4,-103.9,-4,27.4,-15.1,0.0815454573,-0.603076266,-0.00659199805,-0.793450728
757,1896107,1613680,0.972,-0.421,0.139,-133.8,25.7,-98.3,-4,27.4,-15.1,0.0780968657,-0.602832118,-0.00552385022,-0.793939024
758,1899592,1613680,0.929,-0.432,0.128,-136.3,26.2,-92.8,-4,27.4,-15.1,0.0747093112,-0.602618488,-0.00433362835,-0.794488357
759,1901694,1613690,0.929,-0.432,0.128,-136.3,26.2,-92.8,-4,27.4,-15.1,0.0747093112,-0.602618488,-0.00433362835,-0.794488357
760,1903938,1613690,0.894,-0.408,0.125,-140.5,23.3,-85.4,-4,27.4,-15.1,0.0685445723,-0.602618488,-0.000946073794,-0.795068209
761,1907270,1613690,0.945,-0.362,0.155,-139.3,21,-85.4,-4,27.4,-15.1,0.0652180548,-0.602465896,0.000366222114,-0.795464949
762,1909197,1613690,0.996,-0.355,0.174,-135.5,18.7,-87,-4,27.4,-15.1,0.0619525742,-0.602313303,0.00158696249,-0.795831172
763,1911425,1613700,1.039,-0.379,0.185,-130.5,16.6,-87.9,-4.2,28.6,-14.4,0.0586870937,-0.602191229,0.00271614734,-0.796136357
764,1914580,1613700,1.062,-0.383,0.192,-126,15.1,-85.7,-4.2,28.6,-14.4,0.0555436872,-0.602099673,0.00381481368,-0.796441542
765,1916763,1613700,1.05,-0.383,0.2,-123.3,14.4,-79.2,-4.2,28.6,-14.4,0.0525223548,-0.602008118,0.00491348003,-0.796716208
766,1919209,1613700,1.039,-0.406,0.2,-122.3,14.3,-69.3,-4.2,28.6,-14.4,0.0497451704,-0.601916562,0.00616473891,-0.796960356
767,1921239,1613710,1.019,-0.425,0.193,-122.5,14.2,-58.6,-4.6,28.5,-13.9,0.0471205786,-0.601794488,0.00753807184,-0.797204505
768,1925126,1613710,1.015,-0.425,0.189,-123.5,13.2,-49.9,-4.6,28.5,-13.9,0.0446180609,-0.601702933,0.0090334788,-0.797387616
769,1927451,1613710,1.027,-0.437,0.189,-124.1,11.3,-44.4,-4.6,28.5,-13.9,0.0422070986,-0.601611377,0.0106204413,-0.797570727
770,1929564,1613710,1.042,-0.433,0.2,-124,8.7,-42,-4.6,28.5,-13.9,0.0398266549,-0.601580859,0.0122379223,-0.797692801
771,1930938,1613720,1.042,-0.441,0.2,-123,5.7,-41.7,-4.4,29.1,-13.3,0.0375072481,-0.601611377,0.0138554033,-0.797753838
772,1933944,1613720,1.046,-0.449,0.204,-121.5,2.6,-42.4,-4.4,29.1,-13.3,0.0351573229,-0.601672414,0.0154118473,-0.797784356
773,1937193,1613720,1.042,-0.449,0.216,-119.4,0.2,-42.8,-4.4,29.1,-13.3,0.0328684347,-0.60176397,0.0169072542,-0.797784356
774,1938549,1613720,1.039,-0.453,0.228,-116.4,-1.2,-42.1,-4.4,29.1,-13.3,0.0305795465,-0.601886044,0.0184026612,-0.797753838
775,1941495,1613730,1.023,-0.452,0.236,-112.8,-1.3,-40.4,-4.5,28.7,-12.8,0.0284127323,-0.602008118,0.0198370312,-0.797723319
776,1944994,1613730,1.011,-0.46,0.236,-109.2,-0.4,-38,-4.5,28.7,-12.8,0.0263069552,-0.602099673,0.0212408826,-0.797692801
777,1946739,1613730,1.007,-0.468,0.248,-106,1.1,-35.5,-4.5,28.7,-12.8,0.0242927335,-0.60216071,0.022583697,-0.797662282
778,1948481,1613730,0.984,-0.452,0.248,-103.3,2.8,-32.8,-4.5,28.7,-12.8,0.0223395489,-0.60216071,0.0239875484,-0.797662282
779,1952114,1613740,0.984,-0.452,0.248,-103.3,2.8,-32.8,-4.5,28.7,-12.8,0.0223395489,-0.60216071,0.0239875484,-0.797662282
780,1953593,1613740,0.972,-0.455,0.241,-99,6.1,-28.1,-4.5,28.7,-12.8,0.0186773278,-0.602099673,0.0267036958,-0.797723319
781,1957240,1613740,0.972,-0.455,0.241,-97.3,7.3,-26.3,-4.5,28.7,-12.8,0.0169682913,-0.602038636,0.0280465102,-0.797784356
782,1958888,1613740,0.953,-0.451,0.237,-95.8,8.5,-24.8,-4.5,28.7,-12.8,0.0152897732,-0.601916562,0.0293893246,-0.797845393
783,1962777,1613750,0.953,-0.447,0.226,-94,9.5,-23.2,-5,28.8,-11.5,0.0136417737,-0.601794488,0.030732139,-0.79790643
784,1964866,1613750,0.949,-0.443,0.23,-91.7,10.4,-21.5,-5,28.8,-11.5,0.0120548112,-0.601672414,0.0320139164,-0.797997986
785,1967353,1613750,0.941,-0.428,0.226,-88.8,11.1,-19.8,-5,28.8,-11.5,0.0105288858,-0.601519822,0.0333262123,-0.798089541
786,1969243,1613750,0.933,-0.432,0.214,-85.2,11.8,-18,-5,28.8,-11.5,0.00909451582,-0.601336711,0.0345774712,-0.798181097
787,1971502,1613760,0.89,-0.384,0.195,-81.3,12.4,-15.9,-5.2,29.3,-11.3,0.0077211829,-0.6011536,0.0357982116,-0.798272652
788,1973760,1613760,0.847,-0.352,0.169,-77.1,13,-13.6,-5.2,29.3,-11.3,0.00646992401,-0.60093997,0.036957915,-0.798394726
789,1976373,1613760,0.839,-0.325,0.137,-73.3,12.5,-12.2,-5.2,29.3,-11.3,0.00527970214,-0.600726341,0.0380870998,-0.798486282
790,1978378,1613760,0.855,-0.329,0.129,-69.7,9.7,-13.2,-5.2,29.3,-11.3,0.00411999878,-0.600573748,0.0390942106,-0.798577837
791,1981398,1613770,0.874,-0.318,0.125,-66.1,4.3,-17.2,-5.4,29.1,-10.8,0.00296029542,-0.600543229,0.0400402844,-0.798577837
792,1984645,1613770,0.898,-0.326,0.121,-62.2,-3,-23.4,-5.4,29.1,-10.8,0.00173955504,-0.600604266,0.0408032472,-0.798486282
793,1986635,1613770,0.91,-0.318,0.136,-57.7,-10.5,-29.4,-5.4,29.1,-10.8,0.000488296152,-0.600817896,0.0414441359,-0.798272652
794,1989812,1613770,0.906,-0.306,0.144,-52.6,-16.4,-32.9,-5.4,29.1,-10.8,0.000732444227,0.601123081,-0.041932432,0.798028504
795,1991288,1613780,0.894,-0.291,0.148,-47.2,-20,-33.3,-5.5,29,-10.8,0.0019226661,0.601519822,-0.0422681356,0.797723319
796,1994386,1613780,0.886,-0.282,0.16,-42.1,-21.4,-31.5,-5.5,29,-10.8,0.00302133244,0.601916562,-0.0426343577,0.797387616
797,1997386,1613780,0.875,-0.263,0.156,-37.9,-21.5,-28.9,-5.5,29,-10.8,0.00399792474,0.602313303,-0.0429090243,0.79708243
798,1998896,1613780,0.867,-0.267,0.145,-34.8,-21.2,-26.5,-5.5,29,-10.8,0.00488296152,0.602710044,-0.0431836909,0.796746727
799,2001919,1613790,0.867,-0.267,0.145,-34.8,-21.2,-26.5,-5.5,29,-10.8,0.00488296152,0.602710044,-0.0431836909,0.796746727
800,2003524,1613790,0.902,-0.236,0.144,-31,-20.7,-24.5,-5.5,29,-10.8,0.00628681295,0.603625599,-0.0439771722,0.795983764
801,2006488,1613790,0.906,-0.213,0.148,-29.4,-20.9,-24.7,-5.5,29,-10.8,0.0070802942,0.60402234,-0.0441908017,0.795678579
802,2008666,1613790,0.918,-0.217,0.147,-27.9,-21.4,-24.9,-5.5,29,-10.8,0.00784325694,0.60441908,-0.0443433943,0.795373394
803,2011757,1613800,0.918,-0.193,0.151,-26.8,-21.8,-24.7,-6.7,29.2,-10.8,0.00860621967,0.604815821,-0.0444654683,0.795068209
804,2013966,1613800,0.914,-0.17,0.151,-26.2,-21.7,-23.7,-6.7,29.2,-10.8,0.00936918241,0.605212561,-0.0446485794,0.794732505
805,2016920,1613800,0.918,-0.158,0.151,-26.3,-21,-22,-6.7,29.2,-10.8,0.0100711081,0.605578784,-0.0448011719,0.79442732
806,2018554,1613800,0.926,-0.166,0.147,-27,-19.9,-20.3,-6.7,29.2,-10.8,0.0107425153,0.605945006,-0.0450148015,0.794122135
807,2021108,1613810,0.918,-0.15,0.143,-28.6,-18.5,-18.8,-6.9,28.9,-10.4,0.0114444411,0.606280709,-0.0452589496,0.793847468
808,2024935,1613810,0.918,-0.154,0.14,-30.3,-16.9,-17.6,-6.9,28.9,-10.4,0.0121463668,0.606585894,-0.0455641346,0.79360332
809,2026480,1613810,0.914,-0.158,0.136,-32,-15.4,-16.5,-6.9,28.9,-10.4,0.012817774,0.606860561,-0.0458998383,0.793359172
810,2030490,1613810,0.914,-0.162,0.136,-33.5,-14.2,-15.5,-6.9,28.9,-10.4,0.0135196997,0.607104709,-0.0462965789,0.793115024
811,2030882,1613820,0.914,-0.174,0.124,-34.9,-13.5,-14.5,-6.9,28.9,-10.4,0.0142216254,0.607348857,-0.046662801,0.792901395
812,2033856,1613820,0.918,-0.182,0.128,-36,-13.4,-13.7,-6.9,28.9,-10.4,0.0149235511,0.607593005,-0.0471510971,0.792687765
813,2037025,1613820,0.922,-0.178,0.132,-37,-13.6,-12.7,-6.9,28.9,-10.4,0.0156254769,0.607806635,-0.0476088748,0.792474136
814,2039894,1613820,0.922,-0.186,0.124,-37.8,-13.8,-11.4,-6.9,28.9,-10.4,0.0163274026,0.608050783,-0.0481276894,0.792229987
815,2041994,1613830,0.929,-0.19,0.132,-38.3,-14.1,-9.9,-6.9,28.9,-10.4,0.0169682913,0.608294931,-0.0486770226,0.792016358
816,2043571,1613830,0.933,-0.186,0.131,-38.8,-14.2,-8.3,-6.9,28.9,-10.4,0.0175786615,0.608539079,-0.0492263558,0.79177221
817,2046472,1613830,0.937,-0.198,0.127,-38.9,-14.4,-6.7,-6.9,28.9,-10.4,0.0182500687,0.608783227,-0.0498062075,0.791528062
818,2049669,1613830,0.945,-0.202,0.135,-38.9,-14.7,-5.2,-6.9,28.9,-10.4,0.0187994018,0.609027375,-0.0504165777,0.791283914
819,2051419,1613840,0.945,-0.202,0.135,-38.9,-14.7,-5.2,-6.9,28.9,-10.4,0.0187994018,0.609027375,-0.0504165777,0.791283914
820,2053343,1613840,0.953,-0.198,0.131,-38.6,-15.2,-2.1,-6.9,28.9,-10.4,0.0189214759,0.610431227,-0.053010651,0.790032655
821,2056980,1613840,0.949,-0.198,0.139,-38.6,-15.5,-0.6,-6.9,28.9,-10.4,0.019409772,0.610705893,-0.0537125767,0.789788507
822,2059858,1613840,0.961,-0.194,0.151,-38.5,-15.8,0.8,-6.9,28.9,-10.4,0.0198980682,0.610950041,-0.0543839839,0.78951384
823,2061381,1613850,0.957,-0.186,0.155,-38.4,-16.1,2.1,-6.8,29.2,-10.3,0.0203558458,0.611194189,-0.0550859096,0.789269692
824,2064621,1613850,0.961,-0.186,0.162,-38.4,-16.1,3.5,-6.8,29.2,-10.3,0.0207525864,0.611468856,-0.0558183538,0.788995025
825,2066540,1613850,0.961,-0.182,0.17,-38.6,-16.1,4.7,-6.8,29.2,-10.3,0.0212103641,0.611713004,-0.0565507981,0.788750877
826,2068357,1613850,0.969,-0.182,0.178,-38.8,-15.8,5.8,-6.8,29.2,-10.3,0.0216071047,0.611957152,-0.0572832423,0.788476211
827,2071663,1613860,0.965,-0.178,0.182,-39.3,-15.5,6.8,-6.8,29.2,-10.3,0.0219733268,0.6122013,-0.0580767235,0.788232063
828,2073375,1613860,0.969,-0.178,0.182,-39.9,-15.1,7.8,-6.8,29.2,-10.3,0.0223395489,0.612445448,-0.0588702048,0.787987915
829,2075843,1613860,0.969,-0.178,0.19,-40.3,-14.6,8.9,-6.8,29.2,-10.3,0.0227057711,0.612659078,-0.0596942045,0.787743767
830,2080194,1613860,0.965,-0.174,0.193,-40.9,-14.1,9.8,-6.8,29.2,-10.3,0.0230719932,0.612872707,-0.0605487228,0.787499619
831,2081693,1613870,0.969,-0.174,0.186,-41.2,-13.7,10.7,-6.8,29.2,-10.3,0.0234382153,0.613055818,-0.0614032411,0.78725547
832,2083930,1613870,0.969,-0.174,0.189,-41.6,-13.2,11.5,-6.8,29.2,-10.3,0.0237739189,0.613269448,-0.0622577593,0.787041841
833,2087134,1613870,0.973,-0.186,0.193,-41.8,-12.8,12.4,-6.8,29.2,-10.3,0.0241096225,0.613452559,-0.0631733146,0.786828211
834,2088527,1613870,0.973,-0.186,0.193,-41.8,-12.2,13.2,-6.8,29.2,-10.3,0.0244148076,0.613605152,-0.0640583514,0.786584063
835,2091528,1613880,0.977,-0.186,0.197,-41.8,-11.7,14,-6.8,29.2,-10.3,0.0247199927,0.613757744,-0.0649739067,0.786400952
836,2094828,1613880,0.977,-0.19,0.197,-41.6,-11.2,14.6,-6.8,29.2,-10.3,0.0250251778,0.613910337,-0.065889462,0.786187323
837,2096808,1613880,0.977,-0.194,0.193,-41.3,-11,15.2,-6.8,29.2,-10.3,0.0252693258,0.614062929,-0.0668050172,0.785973693
838,2099123,1613880,0.977,-0.202,0.201,-40.7,-10.9,15.7,-6.8,29.2,-10.3,0.0255745109,0.614215522,-0.0677205725,0.785790582
839,2101369,1613890,0.977,-0.202,0.201,-40.7,-10.9,15.7,-6.8,29.2,-10.3,0.0255745109,0.614215522,-0.0677205725,0.785790582
840,2103884,1613890,0.977,-0.21,0.201,-39.4,-10.6,16.7,-6.8,29.2,-10.3,0.0254829554,0.614673299,-0.0702536088,0.78521073
841,2105864,1613890,0.981,-0.214,0.201,-38.4,-10.3,17,-6.8,29.2,-10.3,0.025696585,0.614795373,-0.0711386456,0.785027619
842,2108414,1613890,0.984,-0.217,0.205,-37.5,-10.2,17.4,-6.8,29.2,-10.3,0.025879696,0.614917447,-0.0720236824,0.784844508
843,2112745,1613900,0.981,-0.225,0.205,-36.6,-9.9,17.8,-6.7,29.5,-10.3,0.0260628071,0.615039521,-0.0729087191,0.784661397
844,2115037,1613900,0.984,-0.233,0.201,-35.7,-9.5,18.1,-6.7,29.5,-10.3,0.0262153996,0.615161596,-0.0737632374,0.784478286
845,2117257,1613900,0.992,-0.237,0.205,-34.8,-9.1,18.2,-6.7,29.5,-10.3,0.0263374737,0.615253151,-0.0746177557,0.784325694
846,2119111,1613900,0.992,-0.245,0.205,-34,-8.7,18.4,-6.7,29.5,-10.3,0.0264900662,0.615344707,-0.0754417554,0.784142582
847,2121455,1613910,0.988,-0.257,0.205,-33.1,-8.4,18.4,-6.7,29.5,-10.3,0.0265816218,0.615466781,-0.0762657552,0.78398999
848,2123709,1613910,0.992,-0.261,0.213,-32,-8.2,18.4,-6.7,29.5,-10.3,0.0267036958,0.615558336,-0.0770592364,0.783837397
849,2126270,1613910,0.996,-0.261,0.217,-30.8,-8,18.3,-6.7,29.5,-10.3,0.0267342143,0.615619373,-0.0778527177,0.783684805
850,2128634,1613910,0.996,-0.261,0.22,-29.3,-7.8,18.3,-6.7,29.5,-10.3,0.0268562883,0.615710929,-0.0786156804,0.783562731
851,2132094,1613920,0.992,-0.268,0.217,-27.9,-7.5,18,-6.7,29.5,-10.3,0.0268562883,0.615802484,-0.0793176061,0.783410138
852,2133740,1613920,0.996,-0.276,0.201,-26.9,-7,17.9,-6.7,29.5,-10.3,0.0269478439,0.615863521,-0.0800195318,0.783288064
853,2137545,1613920,1,-0.284,0.197,-26.5,-6.5,17.5,-6.7,29.5,-10.3,0.0269783624,0.615924558,-0.0807214576,0.78316599
854,2139502,1613920,1.004,-0.284,0.197,-26.4,-6,17.4,-6.7,29.5,-10.3,0.0270393994,0.615985595,-0.0814233833,0.783043916
855,2141279,1613930,1.004,-0.292,0.201,-26.2,-6,17.1,-6.7,29.5,-10.3,0.0270699179,0.616046632,-0.0820947905,0.782921842
856,2143729,1613930,0.996,-0.292,0.201,-25.7,-6.2,16.9,-6.7,29.5,-10.3,0.0271004364,0.616107669,-0.0827661977,0.782799768
857,2147008,1613930,1.004,-0.292,0.205,-24.8,-6.5,16.7,-6.7,29.5,-10.3,0.0271614734,0.616168706,-0.0834376049,0.782677694
858,2148337,1613930,1.008,-0.292,0.209,-23.5,-6.6,16.4,-6.7,29.5,-10.3,0.0271919919,0.616260262,-0.0840479751,0.78255562
859,2151300,1613940,1.008,-0.292,0.209,-23.5,-6.6,16.4,-6.7,29.5,-10.3,0.0271919919,0.616260262,-0.0840479751,0.78255562
860,2154460,1613940,1.015,-0.292,0.205,-20.7,-6.8,15.7,-6.7,29.5,-10.3,0.0263679922,0.616443373,-0.0862147893,0.782189398
861,2156230,1613940,1.015,-0.288,0.208,-19.4,-7.2,15.3,-6.7,29.5,-10.3,0.0263679922,0.616534928,-0.0867641224,0.782067324
862,2159390,1613940,1.019,-0.285,0.208,-18.2,-7.5,15,-6.7,29.5,-10.3,0.0263679922,0.616626484,-0.0872829371,0.78194525
863,2160868,1613950,1.019,-0.277,0.2,-17.1,-7.8,14.6,-6.3,29.8,-8.5,0.0263374737,0.616718039,-0.0877712333,0.781792657
864,2163877,1613950,1.019,-0.281,0.208,-16.2,-8.2,14.1,-6.3,29.8,-8.5,0.0263069552,0.616809595,-0.0882290109,0.781670583
865,2167106,1613950,1.019,-0.269,0.212,-15.4,-8.5,13.7,-6.3,29.8,-8.5,0.0262459181,0.616931669,-0.0886867885,0.781517991
866,2168955,1613950,1.023,-0.265,0.212,-14.7,-8.7,13.3,-6.3,29.8,-8.5,0.0262153996,0.617053743,-0.0891445662,0.781395917
867,2170941,1613960,1.019,-0.261,0.204,-14,-8.8,13.1,-6.3,29.8,-8.5,0.0261238441,0.617175817,-0.0895413068,0.781243324
868,2174683,1613960,1.02,-0.257,0.208,-13.2,-8.9,12.9,-6.3,29.8,-8.5,0.0260933256,0.617297891,-0.0899380474,0.78112125
869,2176546,1613960,1.02,-0.245,0.204,-12.3,-8.8,12.6,-6.3,29.8,-8.5,0.0260017701,0.617419965,-0.090334788,0.780968657
870,2178945,1613960,1.02,-0.242,0.208,-11.3,-8.8,12.4,-6.3,29.8,-8.5,0.0259407331,0.617511521,-0.0907010102,0.780846583
871,2181004,1613970,1.02,-0.234,0.204,-10.2,-8.7,12.2,-6.3,29.8,-8.5,0.025879696,0.617633595,-0.0910367138,0.780724509
872,2183986,1613970,1.016,-0.23,0.204,-9.1,-8.7,11.9,-6.3,29.8,-8.5,0.025757622,0.617755669,-0.0913724174,0.780571917
873,2187091,1613970,1.016,-0.222,0.2,-7.8,-8.6,11.6,-6.3,29.8,-8.5,0.025635548,0.617877743,-0.0916776025,0.780449843
874,2188543,1613970,1.012,-0.214,0.201,-6.6,-8.4,11.3,-6.3,29.8,-8.5,0.0255134739,0.617999817,-0.0919522691,0.780327769
875,2192965,1613980,1.008,-0.214,0.201,-5.2,-7.9,11.1,-6.3,29.8,-8.5,0.0253913999,0.618121891,-0.0921964171,0.780236213
876,2193348,1613980,1.008,-0.202,0.189,-3.8,-7.3,10.9,-6.3,29.8,-8.5,0.0252388073,0.618213446,-0.0923795282,0.780114139
877,2197891,1613980,1.004,-0.202,0.185,-2.4,-6.7,10.7,-6.3,29.8,-8.5,0.0250862148,0.618305002,-0.0925931578,0.780022584
878,2200002,1613980,1,-0.198,0.189,-1,-6.1,10.4,-6.3,29.8,-8.5,0.0249031037,0.618396558,-0.0927457503,0.779961547
879,2202471,1613990,1,-0.198,0.189,-1,-6.1,10.4,-6.3,29.8,-8.5,0.0249031037,0.618396558,-0.0927457503,0.779961547
880,2204446,1613990,0.992,-0.187,0.177,1.4,-4.9,10,-6.1,29.5,-8,0.024018067,0.618701743,-0.0936613056,0.779625843
881,2205923,1613990,0.988,-0.183,0.177,2.6,-4.3,9.8,-6.1,29.5,-8,0.0238044374,0.61876278,-0.0937528611,0.779564806
882,2209119,1613990,0.988,-0.19,0.174,3.4,-3.7,9.6,-6.1,29.5,-8,0.0235602893,0.618793298,-0.0938138981,0.779534288
883,2212211,1614000,0.98,-0.19,0.174,3.9,-3.2,9.5,-6.2,30,-7.1,0.0233771783,0.618823817,-0.0938444166,0.779503769
884,2213589,1614000,0.977,-0.182,0.174,4,-2.8,9.2,-6.2,30,-7.1,0.0231330302,0.618884854,-0.0939359722,0.779473251
885,2216509,1614000,0.973,-0.182,0.17,4,-2.3,9.1,-6.2,30,-7.1,0.0229194006,0.618884854,-0.0939970092,0.779473251
886,2219866,1614000,0.961,-0.186,0.17,4.1,-1.8,8.8,-6.2,30,-7.1,0.0227057711,0.618915372,-0.0940580462,0.779442732
887,2221582,1614010,0.961,-0.186,0.17,4.1,-1.2,8.7,-6.1,29.7,-8.4,0.02252266,0.618915372,-0.0940885647,0.779442732
888,2223348,1614010,0.961,-0.186,0.166,4.2,-0.7,8.5,-6.1,29.7,-8.4,0.0223090304,0.618915372,-0.0941496017,0.779442732
889,2225926,1614010,0.957,-0.19,0.166,4.2,-0.3,8.3,-6.1,29.7,-8.4,0.0220954009,0.618884854,-0.0941801202,0.779473251
890,2228909,1614010,0.957,-0.186,0.166,4.1,0,8.1,-6.1,29.7,-8.4,0.0219122898,0.618884854,-0.0942106388,0.779473251
891,2231006,1614020,0.953,-0.19,0.166,3.9,0.3,7.9,-6.1,29.7,-8.9,0.0217291787,0.618854335,-0.0942716758,0.779503769
892,2234505,1614020,0.949,-0.19,0.17,3.7,0.5,7.8,-6.1,29.7,-8.9,0.0215460677,0.618854335,-0.0943021943,0.779503769
893,2235907,1614020,0.945,-0.194,0.17,3.6,0.6,7.5,-6.1,29.7,-8.9,0.0213629566,0.618823817,-0.0943327128,0.779534288
894,2238950,1614020,0.945,-0.197,0.17,3.4,0.5,7.3,-6.1,29.7,-8.9,0.0212103641,0.618793298,-0.0943937498,0.779534288
895,2240955,1614030,0.945,-0.194,0.174,3.3,0.5,7,-6,28.9,-8.4,0.0209967345,0.61876278,-0.0944242683,0.779564806
896,2244247,1614030,0.941,-0.19,0.17,3.1,0.6,6.9,-6,28.9,-8.4,0.0208746605,0.61876278,-0.0944547868,0.779595325
897,2245976,1614030,0.941,-0.19,0.178,2.9,0.5,6.6,-6,28.9,-8.4,0.0207220679,0.618732261,-0.0945158238,0.779595325
898,2249675,1614030,0.941,-0.19,0.178,2.8,0.5,6.4,-6,28.9,-8.4,0.0205694754,0.618701743,-0.0945463424,0.779625843
899,2251093,1614040,0.941,-0.19,0.178,2.8,0.5,6.4,-6,28.9,-8.4,0.0205694754,0.618701743,-0.0945463424,0.779625843
900,2254055,1614040,0.941,-0.19,0.182,2.6,0.2,6.1,-5.9,28.6,-8.4,0.0200201422,0.618793298,-0.0949736015,0.779503769
901,2257044,1614040,0.941,-0.186,0.182,2.6,0,6.2,-5.9,28.6,-8.4,0.0198675497,0.61876278,-0.09500412,0.779503769
902,2258698,1614040,0.945,-0.186,0.186,2.8,-0.1,6.1,-5.9,28.6,-8.4,0.0197454756,0.61876278,-0.095065157,0.779534288
903,2261881,1614050,0.949,-0.178,0.19,2.8,-0.3,6.2,-5.9,30.8,-6.8,0.0195928831,0.61876278,-0.0950956755,0.779534288
904,2264806,1614050,0.949,-0.182,0.186,3,-0.3,6.1,-5.9,30.8,-6.8,0.019409772,0.61876278,-0.095126194,0.779534288
905,2266353,1614050,0.953,-0.17,0.19,3.2,-0.4,6.2,-5.9,30.8,-6.8,0.019287698,0.61876278,-0.0951567125,0.779534288
906,2269394,1614050,0.949,-0.17,0.194,3.6,-0.5,6.2,-5.9,30.8,-6.8,0.0191351054,0.61876278,-0.0951567125,0.779534288
907,2271823,1614060,0.953,-0.17,0.194,4,-0.7,6.2,-5.6,29.5,-9.2,0.0189825129,0.61876278,-0.0951872311,0.779534288
908,2273853,1614060,0.949,-0.17,0.194,4.5,-0.7,6.2,-5.6,29.5,-9.2,0.0187994018,0.61876278,-0.0951872311,0.779534288
909,2276861,1614060,0.957,-0.162,0.198,4.9,-0.7,6.3,-5.6,29.5,-9.2,0.0186162908,0.61876278,-0.0951872311,0.779534288
910,2279697,1614060,0.957,-0.151,0.194,5.3,-0.7,6.2,-5.6,29.5,-9.2,0.0184331797,0.61876278,-0.0951872311,0.779534288
911,2281360,1614070,0.957,-0.151,0.197,5.7,-0.6,6.2,-5.5,29.8,-9.5,0.0182500687,0.61876278,-0.0951872311,0.779534288
912,2284359,1614070,0.961,-0.147,0.197,6,-0.4,6.2,-5.5,29.8,-9.5,0.0180669576,0.61876278,-0.0951567125,0.779564806
913,2287409,1614070,0.961,-0.147,0.197,6.4,0,6.3,-5.5,29.8,-9.5,0.0178838466,0.618732261,-0.095126194,0.779564806
914,2288935,1614070,0.965,-0.143,0.197,6.8,0.5,6.3,-5.5,29.8,-9.5,0.017670217,0.618732261,-0.0950956755,0.779595325
915,2291164,1614080,0.965,-0.139,0.193,7.3,0.9,6.4,-5.7,29.6,-9.2,0.0174565874,0.618701743,-0.095065157,0.779625843
916,2293549,1614080,0.969,-0.131,0.193,7.9,1.4,6.5,-5.7,29.6,-9.2,0.0172124393,0.618671224,-0.09500412,0.779656362
917,2298043,1614080,0.973,-0.131,0.193,8.5,1.8,6.5,-5.7,29.6,-9.2,0.0170293283,0.618610187,-0.094943083,0.779717399
918,2300272,1614080,0.977,-0.128,0.201,9,2.1,6.5,-5.7,29.6,-9.2,0.0168156987,0.618579669,-0.094882046,0.779778436
919,2302652,1614090,0.977,-0.128,0.201,9,2.1,6.5,-5.7,29.6,-9.2,0.0168156987,0.618579669,-0.094882046,0.779778436
920,2304644,1614090,0.981,-0.132,0.193,9.5,2.6,6.4,-5.7,30,-9,0.016235847,0.618671224,-0.0948210089,0.77968688
921,2306878,1614090,0.985,-0.132,0.201,9.3,2.9,6.5,-5.7,30,-9,0.016052736,0.618610187,-0.0947599719,0.779747917
922,2309272,1614090,0.985,-0.128,0.197,9,3.2,6.4,-5.7,30,-9,0.0158085879,0.61854915,-0.0946989349,0.779839473
923,2311358,1614100,0.985,-0.124,0.197,8.4,3.4,6.4,-5.8,30.5,-8.1,0.0155949583,0.618488113,-0.0946378979,0.77990051
924,2313806,1614100,0.993,-0.124,0.197,8,3.6,6.4,-5.8,30.5,-8.1,0.0153813288,0.618396558,-0.0946073794,0.779961547
925,2316001,1614100,0.989,-0.124,0.197,7.7,3.9,6.6,-5.8,30.5,-8.1,0.0151982177,0.61833552,-0.0945463424,0.780022584
926,2318590,1614100,0.989,-0.124,0.193,7.7,4.2,6.7,-5.8,30.5,-8.1,0.0149845882,0.618243965,-0.0945158238,0.780114139
927,2322741,1614110,0.989,-0.124,0.197,7.9,4.5,6.8,-5.7,30.1,-8.7,0.0147709586,0.618152409,-0.0944547868,0.780175176
928,2325535,1614110,0.989,-0.12,0.197,7.9,4.8,6.8,-5.7,30.1,-8.7,0.014557329,0.618060854,-0.0944242683,0.780266732
929,2325968,1614110,0.993,-0.124,0.197,8,5.1,6.9,-5.7,30.1,-8.7,0.0143436995,0.617969298,-0.0943327128,0.780358287
930,2328476,1614110,0.996,-0.124,0.193,8.2,5.3,6.8,-5.7,30.1,-8.7,0.0140995514,0.617877743,-0.0943327128,0.780449843
931,2331129,1614120,1,-0.128,0.197,8.2,5.4,6.7,-5.8,30.5,-8.5,0.0138859218,0.617755669,-0.0942716758,0.780541398
932,2333526,1614120,0.996,-0.132,0.201,8.1,5.5,6.7,-5.8,30.5,-8.5,0.0136722922,0.617664113,-0.0942106388,0.780632954
933,2336968,1614120,1,-0.128,0.197,7.9,5.4,6.7,-5.8,30.5,-8.5,0.0134586627,0.617542039,-0.0941801202,0.780724509
934,2339204,1614120,1,-0.132,0.193,7.5,4.9,6.9,-5.8,30.5,-8.5,0.0132755516,0.617450484,-0.0941496017,0.780816065
935,2341392,1614130,1,-0.132,0.193,7.1,4.3,6.9,-5.7,30.8,-8.7,0.0130619221,0.617358928,-0.0941190832,0.780877102
936,2344742,1614130,1.004,-0.132,0.193,6.8,3.7,7,-5.7,30.8,-8.7,0.0128482925,0.617297891,-0.0940885647,0.780968657
937,2346663,1614130,1.004,-0.136,0.189,6.5,3.4,7,-5.7,30.8,-8.7,0.0126651814,0.617206336,-0.0940885647,0.781029695
938,2348890,1614130,1,-0.14,0.189,6.1,2.9,7.2,-5.7,30.8,-8.7,0.0124515519,0.617145299,-0.0940580462,0.781060213
939,2351107,1614140,1,-0.14,0.189,6.1,2.9,7.2,-5.7,30.8,-8.7,0.0124515519,0.617145299,-0.0940580462,0.781060213
940,2353835,1614140,0.996,-0.143,0.197,5.4,2,7.3,-5.4,30.7,-8.7,0.0120548112,0.617358928,-0.0941190832,0.78090762
941,2356041,1614140,0.996,-0.144,0.193,5.1,1.5,7.2,-5.4,30.7,-8.7,0.0118411817,0.617297891,-0.0941496017,0.780938139
942,2360212,1614140,0.989,-0.143,0.189,4.8,1.2,7.1,-5.4,30.7,-8.7,0.0116580706,0.617267373,-0.0941496017,0.780968657
943,2362896,1614150,0.989,-0.143,0.197,4.8,0.9,7,-5.7,29.5,-8.4,0.0114749596,0.617236854,-0.0941496017,0.780999176
944,2364994,1614150,0.996,-0.144,0.189,4.8,0.8,7,-5.7,29.5,-8.4,0.0112918485,0.617206336,-0.0941801202,0.781029695
945,2367403,1614150,0.985,-0.143,0.197,4.7,0.8,6.9,-5.7,29.5,-8.4,0.0111087374,0.617175817,-0.0941801202,0.781060213
946,2369710,1614150,0.985,-0.151,0.201,4.5,0.6,6.8,-5.7,29.5,-8.4,0.0109561449,0.617145299,-0.0942106388,0.781060213
947,2371681,1614160,0.981,-0.155,0.201,4.2,0.4,6.6,-5.9,30.1,-8.7,0.0107730338,0.617145299,-0.0942106388,0.781090732
948,2373904,1614160,0.981,-0.151,0.201,3.8,0,6.5,-5.9,30.1,-8.7,0.0106204413,0.61711478,-0.0942411573,0.781090732
949,2376391,1614160,0.981,-0.159,0.209,3.5,-0.4,6.5,-5.9,30.1,-8.7,0.0104373302,0.61711478,-0.0942716758,0.781090732
950,2378804,1614160,0.977,-0.151,0.201,3.1,-0.7,6.5,-5.9,30.1,-8.7,0.0102847377,0.61711478,-0.0943021943,0.781090732
951,2380985,1614170,0.973,-0.155,0.205,2.8,-0.9,6.5,-6.1,30,-8.5,0.0101321451,0.61711478,-0.0943327128,0.781090732
952,2384705,1614170,0.973,-0.155,0.209,2.6,-1.2,6.4,-6.1,30,-8.5,0.0099795526,0.617145299,-0.0943937498,0.781090732
953,2386872,1614170,0.969,-0.155,0.213,2.4,-1.4,6.3,-6.1,30,-8.5,0.00985747856,0.617145299,-0.0944242683,0.781060213
954,2388995,1614170,0.969,-0.155,0.205,2.3,-1.7,6.1,-6.1,30,-8.5,0.00970488601,0.617175817,-0.0944853053,0.781060213
955,2391266,1614180,0.969,-0.151,0.209,2.3,-2.2,5.9,-6.1,30.3,-8.7,0.00958281198,0.617175817,-0.0945158238,0.781029695
956,2394512,1614180,0.965,-0.159,0.209,2.4,-2.5,5.7,-6.1,30.3,-8.7,0.00943021943,0.617236854,-0.0945463424,0.780999176
957,2395900,1614180,0.965,-0.151,0.213,2.5,-2.7,5.5,-6.1,30.3,-8.7,0.00930814539,0.617267373,-0.0945768609,0.780968657
958,2398962,1614180,0.965,-0.151,0.213,2.6,-2.7,5.3,-6.1,30.3,-8.7,0.00915555284,0.617297891,-0.0946073794,0.780938139
959,2402136,1614190,0.965,-0.151,0.213,2.6,-2.7,5.3,-6.1,30.3,-8.7,0.00915555284,0.617297891,-0.0946073794,0.780938139
960,2403603,1614190,0.965,-0.147,0.217,2.9,-2.6,5.3,-6.2,30.3,-8.6,0.00875881222,0.617419965,-0.0948210089,0.780816065
961,2406705,1614190,0.961,-0.147,0.213,3.1,-2.5,5.3,-6.2,30.3,-8.6,0.00863673818,0.617450484,-0.0948210089,0.780785546
962,2408951,1614190,0.965,-0.139,0.213,3.2,-2.4,5.3,-6.2,30.3,-8.6,0.00848414563,0.617481002,-0.0948210089,0.780755028
963,2412137,1614200,0.961,-0.139,0.209,3.2,-2.3,5.3,-5.1,29.4,-8.3,0.0083620716,0.617511521,-0.094882046,0.780724509
964,2414231,1614200,0.961,-0.139,0.205,3.3,-2.2,5.2,-5.1,29.4,-8.3,0.00820947905,0.617542039,-0.094882046,0.780724509
965,2416450,1614200,0.965,-0.135,0.209,3.4,-2.2,5,-5.1,29.4,-8.3,0.00808740501,0.617572558,-0.0949125645,0.780693991
966,2419640,1614200,0.969,-0.139,0.209,3.4,-2,4.9,-5.1,29.4,-8.3,0.00793481246,0.617603076,-0.0949125645,0.780663472
967,2421776,1614210,0.965,-0.143,0.217,3.4,-1.9,4.8,-6.5,30.6,-8.7,0.00781273843,0.617633595,-0.0949125645,0.780663472
968,2423993,1614210,0.965,-0.139,0.213,3.2,-1.6,4.7,-6.5,30.6,-8.7,0.00769066439,0.617633595,-0.0949125645,0.780632954
969,2427888,1614210,0.969,-0.143,0.213,3.1,-1.3,4.7,-6.5,30.6,-8.7,0.00756859035,0.617664113,-0.094943083,0.780632954
970,2430085,1614210,0.969,-0.139,0.209,2.8,-1,4.7,-6.5,30.6,-8.7,0.00744651631,0.617664113,-0.094943083,0.780632954
971,2432167,1614220,0.965,-0.147,0.213,2.5,-0.7,4.8,-6.7,31.1,-8.2,0.00732444227,0.617664113,-0.0949736015,0.780602435
972,2433575,1614220,0.965,-0.143,0.209,2.3,-0.5,5,-6.7,31.1,-8.2,0.00720236824,0.617664113,-0.09500412,0.780602435
973,2437501,1614220,0.969,-0.143,0.209,2,-0.3,5.2,-6.7,31.1,-8.2,0.0070802942,0.617664113,-0.0950346385,0.780602435
974,2439754,1614220,0.965,-0.143,0.213,1.9,-0.2,5.2,-6.7,31.1,-8.2,0.00695822016,0.617664113,-0.095065157,0.780602435
975,2442069,1614230,0.969,-0.143,0.213,1.8,-0.1,5.2,-6.7,31,-8.2,0.00683614612,0.617664113,-0.095126194,0.780632954
976,2444131,1614230,0.969,-0.139,0.209,1.6,0,5.2,-6.7,31,-8.2,0.00674459059,0.617633595,-0.0951567125,0.780632954
977,2447619,1614230,0.969,-0.143,0.209,1.5,0,5.3,-6.7,31,-8.2,0.00662251656,0.617633595,-0.0951872311,0.780632954
978,2449203,1614230,0.969,-0.151,0.213,1.5,0.1,5.5,-6.7,31,-8.2,0.00650044252,0.617603076,-0.0952482681,0.780632954
979,2450944,1614240,0.969,-0.151,0.213,1.5,0.1,5.5,-6.7,31,-8.2,0.00650044252,0.617603076,-0.0952482681,0.780632954
980,2453950,1614240,0.965,-0.143,0.197,1.4,0.2,5.7,-6.7,30.5,-8.8,0.00622577593,0.61772515,-0.0954618976,0.78051088
981,2457146,1614240,0.965,-0.143,0.197,1.4,0.2,5.7,-6.7,30.5,-8.8,0.00622577593,0.61772515,-0.0954618976,0.78051088
982,2459297,1614240,0.969,-0.151,0.201,1.4,0.2,5.7,-6.7,30.5,-8.8,0.00598162786,0.617694632,-0.0955534532,0.780541398
983,2461406,1614250,0.965,-0.147,0.201,1.5,0.1,5.7,-5,29.9,-8.3,0.00585955382,0.617694632,-0.0956144902,0.780541398
984,2464674,1614250,0.969,-0.147,0.205,1.5,0,5.9,-5,29.9,-8.3,0.00573747978,0.617664113,-0.0956450087,0.780541398
985,2466749,1614250,0.969,-0.151,0.197,1.6,-0.1,6,-5,29.9,-8.3,0.00561540574,0.617664113,-0.0957060457,0.780541398
986,2468944,1614250,0.965,-0.151,0.197,1.7,-0.3,6.3,-5,29.9,-8.3,0.00549333171,0.617664113,-0.0957670827,0.780541398
987,2472788,1614260,0.965,-0.151,0.197,1.7,-0.4,6.4,-5.9,30.1,-8.2,0.00534073916,0.617664113,-0.0957976012,0.780541398
988,2475136,1614260,0.961,-0.151,0.197,1.6,-0.3,6.4,-5.9,30.1,-8.2,0.00521866512,0.617633595,-0.0958891568,0.780541398
989,2476762,1614260,0.961,-0.155,0.197,1.5,-0.2,6.5,-5.9,30.1,-8.2,0.00509659108,0.617633595,-0.0959501938,0.780541398
990,2479071,1614260,0.965,-0.155,0.201,1.5,0,6.5,-5.9,30.1,-8.2,0.00494399854,0.617633595,-0.0960112308,0.780541398
991,2481313,1614270,0.965,-0.155,0.197,1.4,0.1,6.7,-6.1,30.3,-8.2,0.0048219245,0.617603076,-0.0960722678,0.780541398
992,2484638,1614270,0.961,-0.155,0.197,1.4,0.1,6.9,-6.1,30.3,-8.2,0.00469985046,0.617603076,-0.0961333048,0.780571917
993,2486680,1614270,0.969,-0.163,0.197,1.3,0,7,-6.1,30.3,-8.2,0.00454725791,0.617572558,-0.0962248604,0.780571917
994,2488870,1614270,0.969,-0.166,0.197,1.3,0,7.1,-6.1,30.3,-8.2,0.00439466536,0.617572558,-0.0962858974,0.780571917
995,2491394,1614280,0.965,-0.163,0.193,1.2,0,7,-5.4,30.2,-8.1,0.00427259133,0.617542039,-0.0963469344,0.780571917
996,2493756,1614280,0.969,-0.17,0.193,0.9,0,6.9,-5.4,30.2,-8.1,0.00415051729,0.617542039,-0.0964384899,0.780571917
997,2495931,1614280,0.969,-0.166,0.197,0.8,0.1,6.9,-5.4,30.2,-8.1,0.00399792474,0.617511521,-0.0965300455,0.780571917
998,2500447,1614280,0.969,-0.166,0.193,0.6,0.1,7,-5.4,30.2,-8.1,0.0038758507,0.617511521,-0.0965910825,0.780571917
