sample_index,elapsed_us,device_time_ms,acc_x_g,acc_y_g,acc_z_g,gyro_x_dps,gyro_y_dps,gyro_z_dps,mag_x_ut,mag_y_ut,mag_z_ut,quat_w,quat_x,quat_y,quat_z
0,3467,1491800,0.974,-0.01,0.224,-2.5,-1.5,-0.2,-5.8,23.6,-20.3,0.0955534532,-0.611133152,-0.0733970153,-0.782280953
1,5681,1491800,0.974,-0.006,0.22,-2.3,-1.5,-0.3,-6.9,24.1,-20,0.0955229347,-0.611163671,-0.0733359783,-0.782219916
2,9496,1491800,0.974,-0.006,0.224,-2.2,-1.5,-0.3,-6.9,24.1,-20,0.0954924162,-0.611194189,-0.0733359783,-0.782219916
3,11157,1491800,0.97,-0.01,0.224,-2.1,-1.4,-0.2,-6.9,24.1,-20,0.0954313791,-0.611224708,-0.0733054598,-0.782219916
4,13397,1491810,0.966,-0.018,0.225,-2,-1.2,-0.3,-6.9,24.1,-20,0.0954008606,-0.611255226,-0.0732749413,-0.782219916
5,16173,1491810,0.966,-0.018,0.228,-2,-1.1,-0.3,-5.8,24.1,-19.9,0.0953703421,-0.611285745,-0.0732749413,-0.782189398
6,19113,1491810,0.97,-0.01,0.221,-1.9,-1.2,-0.5,-5.8,24.1,-19.9,0.0953093051,-0.611285745,-0.0732444227,-0.782189398
7,22052,1491810,0.97,-0.022,0.224,-1.8,-1,-0.5,-5.8,24.1,-19.9,0.0953093051,-0.611316263,-0.0732139042,-0.782189398
8,23551,1491820,0.966,-0.018,0.225,-1.8,-1,-0.6,-5.8,24.1,-19.9,0.0952787866,-0.611346782,-0.0731833857,-0.782158879
9,26551,1491820,0.966,-0.022,0.225,-1.8,-0.9,-0.6,-6.3,23.6,-19.8,0.0952177496,-0.611346782,-0.0731833857,-0.782158879
10,29440,1491820,0.97,-0.026,0.221,-1.8,-0.9,-0.7,-6.3,23.6,-19.8,0.0951872311,-0.6113773,-0.0731528672,-0.782158879
11,30799,1491820,0.966,-0.026,0.228,-1.8,-0.9,-0.7,-6.3,23.6,-19.8,0.0951567125,-0.611407819,-0.0731223487,-0.782128361
12,33823,1491830,0.97,-0.03,0.224,-1.7,-1,-0.8,-6.3,23.6,-19.8,0.0950956755,-0.611407819,-0.0731223487,-0.782128361
13,37230,1491830,0.973,-0.034,0.232,-1.7,-1.2,-0.9,-6.1,24.3,-20.3,0.095065157,-0.611438337,-0.0730918302,-0.782128361
14,39240,1491830,0.973,-0.03,0.224,-1.7,-1.3,-1,-6.1,24.3,-20.3,0.0950346385,-0.611468856,-0.0730918302,-0.782097842
15,40724,1491830,0.97,-0.033,0.228,-1.8,-1.4,-1,-6.1,24.3,-20.3,0.0949736015,-0.611499374,-0.0730613117,-0.782097842
16,43713,1491840,0.973,-0.041,0.228,-1.8,-1.4,-1.1,-6.1,24.3,-20.3,0.094943083,-0.611529893,-0.0730613117,-0.782067324
17,46900,1491840,0.977,-0.041,0.232,-1.9,-1.4,-1.2,-6.4,23.8,-20.2,0.0951567125,-0.611713004,-0.0726950896,-0.781914731
18,48373,1491840,0.977,-0.037,0.232,-2.1,-1.5,-1.2,-6.4,23.8,-20.2,0.0950956755,-0.611743522,-0.0726950896,-0.781914731
19,52201,1491840,0.977,-0.034,0.232,-2.2,-1.5,-1.1,-6.4,23.8,-20.2,0.0950346385,-0.611774041,-0.0726645711,-0.781884213
20,53571,1491850,0.981,-0.03,0.228,-2.2,-1.7,-1,-6.4,23.8,-20.2,0.09500412,-0.611804559,-0.0726340526,-0.781884213
21,56547,1491850,0.977,-0.037,0.232,-2.1,-1.8,-0.9,-6.3,24.1,-20,0.094943083,-0.611835078,-0.0726340526,-0.781853694
22,58469,1491850,0.977,-0.034,0.232,-2.1,-1.9,-0.9,-6.3,24.1,-20,0.0949125645,-0.611896115,-0.072603534,-0.781853694
23,61161,1491850,0.981,-0.038,0.228,-2,-1.9,-0.7,-6.3,24.1,-20,0.0948210089,-0.611926634,-0.0725730155,-0.781823176
24,64384,1491860,0.981,-0.03,0.232,-2,-1.9,-0.7,-6.3,24.1,-20,0.0948210089,-0.611957152,-0.0725730155,-0.781792657
25,67413,1491860,0.981,-0.03,0.228,-1.8,-2,-0.8,-6.2,24.2,-20,0.0947599719,-0.611987671,-0.072542497,-0.781762139
26,69588,1491860,0.985,-0.026,0.236,-1.7,-2.1,-0.8,-6.2,24.2,-20,0.0947294534,-0.612018189,-0.072542497,-0.781762139
27,71025,1491860,0.989,-0.026,0.232,-1.5,-2.3,-0.8,-6.2,24.2,-20,0.0946989349,-0.612079226,-0.0725119785,-0.78173162
28,74066,1491870,0.981,-0.018,0.232,-1.4,-2.2,-0.7,-6.2,24.2,-20,0.0946684164,-0.612109745,-0.0725119785,-0.781701102
29,75871,1491870,0.989,-0.022,0.232,-1.2,-2.2,-0.6,-6.3,23.8,-20.2,0.0946378979,-0.612140263,-0.0725119785,-0.781670583
30,80008,1491870,0.989,-0.014,0.232,-1,-2.1,-0.5,-6.3,23.8,-20.2,0.0946073794,-0.6122013,-0.07248146,-0.781640065
31,82275,1491870,0.985,-0.01,0.228,-0.9,-2.1,-0.5,-6.3,23.8,-20.2,0.0945768609,-0.612231819,-0.07248146,-0.781609546
32,84640,1491880,0.989,-0.01,0.228,-0.7,-2,-0.4,-6.3,23.8,-20.2,0.0945463424,-0.612262337,-0.07248146,-0.781609546
33,86131,1491880,0.985,-0.006,0.232,-0.4,-1.9,-0.4,-6.6,24.1,-20.2,0.0945463424,-0.612292856,-0.07248146,-0.781579028
34,88205,1491880,0.985,-0.01,0.224,-0.3,-1.8,-0.4,-6.6,24.1,-20.2,0.0945158238,-0.612323374,-0.07248146,-0.781548509
35,91583,1491880,0.985,-0.006,0.224,-0.1,-1.8,-0.3,-6.6,24.1,-20.2,0.0945158238,-0.612353893,-0.0725119785,-0.781517991
36,93825,1491890,0.977,-0.006,0.228,-0.1,-1.9,-0.4,-6.6,24.1,-20.2,0.0944853053,-0.612384411,-0.0725119785,-0.781487472
37,96308,1491890,0.981,-0.006,0.224,0,-1.9,-0.4,-7.3,23.6,-20,0.0945463424,-0.612567522,-0.0724509415,-0.781365398
38,98464,1491890,0.981,-0.006,0.224,0,-1.8,-0.3,-7.3,23.6,-20,0.0945158238,-0.612598041,-0.0724509415,-0.78133488
39,102608,1491890,0.977,-0.002,0.228,0,-1.7,-0.2,-7.3,23.6,-20,0.0945158238,-0.612628559,-0.07248146,-0.78133488
40,104739,1491900,0.977,-0.006,0.224,0.1,-1.6,-0.2,-7.3,23.6,-20,0.0945158238,-0.612628559,-0.07248146,-0.781304361
41,107006,1491900,0.977,-0.006,0.224,0.1,-1.6,-0.2,-5.4,23.9,-19.8,0.0945158238,-0.612659078,-0.07248146,-0.781273843
42,109074,1491900,0.974,-0.002,0.224,0.1,-1.6,-0.2,-5.4,23.9,-19.8,0.0945158238,-0.612689596,-0.0725119785,-0.781273843
43,111224,1491900,0.977,-0.006,0.224,0.1,-1.5,-0.1,-5.4,23.9,-19.8,0.0945158238,-0.612720115,-0.0725119785,-0.781243324
44,113536,1491910,0.974,-0.006,0.224,0,-1.3,-0.2,-5.4,23.9,-19.8,0.0944853053,-0.612750633,-0.0725119785,-0.781212806
45,116069,1491910,0.97,-0.006,0.224,0,-1.2,-0.3,-5.4,24.2,-20.2,0.0944853053,-0.612781152,-0.0725119785,-0.781212806
46,119699,1491910,0.974,-0.006,0.224,0,-1.2,-0.5,-5.4,24.2,-20.2,0.0944853053,-0.612781152,-0.072542497,-0.781182287
47,121654,1491910,0.974,-0.006,0.224,0,-1.2,-0.5,-5.4,24.2,-20.2,0.0944547868,-0.61281167,-0.072542497,-0.781182287
48,123541,1491920,0.974,-0.01,0.224,0,-1.2,-0.6,-5.4,24.2,-20.2,0.0944547868,-0.61281167,-0.072542497,-0.781151769
49,127287,1491920,0.974,-0.014,0.228,-0.1,-1.2,-0.6,-5.6,23.9,-20,0.0944242683,-0.612842189,-0.0725730155,-0.781151769
50,129017,1491920,0.966,-0.01,0.224,0,-1.2,-0.5,-5.6,23.9,-20,0.0944242683,-0.612872707,-0.0725730155,-0.78112125
51,131352,1491920,0.97,-0.014,0.228,0,-1.3,-0.5,-5.6,23.9,-20,0.0944242683,-0.612903226,-0.0725730155,-0.78112125
52,133559,1491930,0.966,-0.018,0.228,0,-1.3,-0.6,-5.6,23.9,-20,0.0943937498,-0.612903226,-0.072603534,-0.781090732
53,136946,1491930,0.966,-0.018,0.228,0,-1.3,-0.7,-5.3,23.9,-20.1,0.0943937498,-0.612933744,-0.072603534,-0.781090732
54,139590,1491930,0.966,-0.018,0.228,-0.1,-1.3,-0.7,-5.3,23.9,-20.1,0.0943327128,-0.612964263,-0.072603534,-0.781060213
55,141198,1491930,0.966,-0.014,0.224,-0.1,-1.2,-0.7,-5.3,23.9,-20.1,0.0943327128,-0.612964263,-0.0726340526,-0.781060213
56,143640,1491940,0.97,-0.018,0.228,-0.3,-1.2,-0.7,-5.3,23.9,-20.1,0.0943327128,-0.612994781,-0.0726340526,-0.781029695
57,147271,1491940,0.966,-0.018,0.225,-0.3,-1.1,-0.8,-6.7,23.9,-19.9,0.0944242683,-0.613116855,-0.0725119785,-0.780938139
58,149173,1491940,0.966,-0.018,0.232,-0.4,-1,-0.8,-6.7,23.9,-19.9,0.0943937498,-0.613116855,-0.0725119785,-0.780938139
59,151122,1491940,0.966,-0.022,0.228,-0.5,-1,-0.9,-6.7,23.9,-19.9,0.0943327128,-0.613147374,-0.0725119785,-0.780938139
60,153588,1491950,0.97,-0.026,0.228,-0.7,-1,-1.1,-6.7,23.9,-19.9,0.0943327128,-0.613147374,-0.0725119785,-0.78090762
61,155896,1491950,0.966,-0.026,0.225,-0.8,-1,-1.1,-5.6,23.7,-19.4,0.0943021943,-0.613177892,-0.0725119785,-0.78090762
62,158373,1491950,0.97,-0.03,0.221,-0.9,-1,-1.2,-5.6,23.7,-19.4,0.0942716758,-0.613208411,-0.0725119785,-0.78090762
63,162890,1491950,0.966,-0.03,0.221,-0.9,-1,-1.2,-5.6,23.7,-19.4,0.0942411573,-0.613208411,-0.0725119785,-0.780877102
64,163187,1491960,0.973,-0.026,0.22,-0.8,-0.7,-1.1,-5.6,23.7,-19.4,0.0942106388,-0.613238929,-0.072542497,-0.780877102
65,167214,1491960,0.97,-0.026,0.224,-0.7,-0.7,-1.1,-5.8,24.2,-19.7,0.0941801202,-0.613238929,-0.072542497,-0.780877102
66,169109,1491960,0.974,-0.022,0.228,-0.6,-0.6,-1.1,-5.8,24.2,-19.7,0.0941496017,-0.613238929,-0.072542497,-0.780877102
67,171570,1491960,0.974,-0.014,0.228,-0.5,-0.8,-1.1,-5.8,24.2,-19.7,0.0941190832,-0.613269448,-0.072542497,-0.780846583
68,174998,1491970,0.977,-0.014,0.224,-0.5,-1,-1.1,-5.8,24.2,-19.7,0.0940885647,-0.613269448,-0.072542497,-0.780846583
69,175788,1491970,0.97,-0.014,0.221,-0.6,-1.2,-1,-5.5,23.8,-19.4,0.0940580462,-0.613299966,-0.072542497,-0.780846583
70,179929,1491970,0.974,-0.01,0.224,-0.8,-1.3,-0.8,-5.5,23.8,-19.4,0.0940275277,-0.613330485,-0.0725730155,-0.780816065
71,181670,1491970,0.974,-0.002,0.228,-0.9,-1.5,-0.8,-5.5,23.8,-19.4,0.0939970092,-0.613361003,-0.072542497,-0.780816065
72,184706,1491980,0.977,-0.006,0.228,-0.9,-1.6,-0.8,-5.5,23.8,-19.4,0.0939664907,-0.613391522,-0.072542497,-0.780785546
73,186960,1491980,0.977,-0.002,0.224,-1,-1.7,-0.7,-5.4,23.8,-19.7,0.0939359722,-0.61342204,-0.072542497,-0.780755028
74,189021,1491980,0.977,0.004,0.224,-1,-1.7,-0.6,-5.4,23.8,-19.7,0.0939054537,-0.613452559,-0.072542497,-0.780755028
75,191259,1491980,0.981,0.004,0.224,-1,-1.6,-0.6,-5.4,23.8,-19.7,0.0938444166,-0.613483077,-0.072542497,-0.780724509
76,193464,1491990,0.977,0.008,0.22,-1,-1.5,-0.5,-5.4,23.8,-19.7,0.0938444166,-0.613483077,-0.072542497,-0.780693991
77,197544,1491990,0.981,0.008,0.22,-0.9,-1.4,-0.6,-6.3,23.9,-19.9,0.0938138981,-0.613666189,-0.0725730155,-0.780602435
78,199659,1491990,0.981,0.008,0.22,-0.8,-1.3,-0.5,-6.3,23.9,-19.9,0.0937833796,-0.613666189,-0.072542497,-0.780571917
79,201960,1491990,0.981,0.012,0.224,-0.7,-1.3,-0.5,-6.3,23.9,-19.9,0.0937528611,-0.613696707,-0.072542497,-0.780541398
80,204081,1492000,0.977,0.012,0.216,-0.5,-1.3,-0.5,-6.3,23.9,-19.9,0.0937528611,-0.613727226,-0.072542497,-0.780541398
81,205914,1492000,0.981,0.012,0.216,-0.3,-1.2,-0.5,-6.2,24.4,-19.9,0.0937223426,-0.613757744,-0.0725730155,-0.78051088
82,209019,1492000,0.981,0.012,0.22,-0.1,-1.2,-0.5,-6.2,24.4,-19.9,0.0937223426,-0.613757744,-0.0725730155,-0.78051088
83,211224,1492000,0.977,0.012,0.216,-0.1,-1,-0.6,-6.2,24.4,-19.9,0.0936918241,-0.613788263,-0.0725730155,-0.78051088
84,214478,1492010,0.974,0.012,0.22,-0.1,-0.8,-0.8,-6.2,24.4,-19.9,0.0936918241,-0.613788263,-0.0725730155,-0.780480361
85,216632,1492010,0.977,0.012,0.22,-0.2,-0.6,-0.8,-6.5,23.9,-19.9,0.0936613056,-0.613818781,-0.072603534,-0.780480361
86,218782,1492010,0.977,0.012,0.22,-0.2,-0.6,-0.8,-6.5,23.9,-19.9,0.0936307871,-0.613818781,-0.072603534,-0.780480361
87,221974,1492010,0.974,0.012,0.213,-0.3,-0.6,-0.6,-6.5,23.9,-19.9,0.0936307871,-0.613818781,-0.072603534,-0.780480361
88,224089,1492020,0.977,0.012,0.216,-0.3,-0.7,-0.7,-6.5,23.9,-19.9,0.0936002686,-0.6138493,-0.072603534,-0.780449843
89,226220,1492020,0.974,0.012,0.224,-0.5,-0.6,-0.8,-6.4,23.9,-19.1,0.0935697501,-0.6138493,-0.072603534,-0.780449843
90,229212,1492020,0.974,0.012,0.216,-0.7,-0.7,-1,-6.4,23.9,-19.1,0.0935697501,-0.6138493,-0.072603534,-0.780449843
91,231575,1492020,0.974,0.012,0.216,-0.9,-0.8,-1,-6.4,23.9,-19.1,0.093508713,-0.613879818,-0.072603534,-0.780449843
92,233823,1492030,0.977,0.008,0.216,-1,-0.9,-1.1,-6.4,23.9,-19.1,0.0934781945,-0.613879818,-0.072603534,-0.780419324
93,235975,1492030,0.974,0.005,0.22,-1.2,-0.9,-1.3,-6.4,23.8,-18.6,0.093447676,-0.613910337,-0.072603534,-0.780419324
94,240012,1492030,0.974,0.008,0.216,-1.4,-0.8,-1.4,-6.4,23.8,-18.6,0.0934171575,-0.613910337,-0.072603534,-0.780419324
95,242194,1492030,0.966,0.009,0.221,-1.6,-0.7,-1.6,-6.4,23.8,-18.6,0.0933561205,-0.613940855,-0.072603534,-0.780419324
96,244498,1492040,0.966,0.009,0.221,-1.9,-0.6,-1.8,-6.4,23.8,-18.6,0.0932950835,-0.613940855,-0.072603534,-0.780419324
97,245911,1492040,0.97,0.005,0.217,-2.1,-0.6,-1.9,-6.3,23.9,-21.3,0.0931730094,-0.614093448,-0.0726645711,-0.78029725
98,250000,1492040,0.974,0.004,0.216,-2.3,-0.7,-2,-6.3,23.9,-21.3,0.0931119724,-0.614123966,-0.0726340526,-0.78029725
99,252070,1492040,0.974,-0.002,0.22,-2.5,-0.9,-2.1,-6.3,23.9,-21.3,0.0930509354,-0.614123966,-0.0726340526,-0.78029725
100,254292,1492050,0.966,0.001,0.224,-2.7,-1.1,-2.2,-6.3,23.9,-21.3,0.0929593799,-0.614154485,-0.0726340526,-0.78029725
101,255750,1492050,0.977,0.001,0.224,-3,-1.1,-2.2,-6.2,24.1,-19,0.0928678243,-0.614185003,-0.072603534,-0.78029725
102,258688,1492050,0.97,0.001,0.22,-3.3,-1.1,-2.3,-6.2,24.1,-19,0.0928067873,-0.614185003,-0.0725730155,-0.780266732
103,261930,1492050,0.97,0.001,0.224,-3.5,-1.2,-2.5,-6.2,24.1,-19,0.0927152318,-0.614215522,-0.072542497,-0.780266732
104,263995,1492060,0.97,0.001,0.217,-3.8,-1.2,-2.5,-6.2,24.1,-19,0.0925931578,-0.61424604,-0.0725119785,-0.780266732
105,266111,1492060,0.97,-0.002,0.228,-4,-1.3,-2.6,-6.7,23.9,-18.8,0.0925016022,-0.61424604,-0.07248146,-0.780266732
106,269427,1492060,0.966,0.001,0.221,-4.1,-1.4,-2.6,-6.7,23.9,-18.8,0.0923795282,-0.614307077,-0.0724509415,-0.780266732
107,271788,1492060,0.974,-0.002,0.228,-4.2,-1.6,-2.5,-6.7,23.9,-18.8,0.0922879727,-0.614337596,-0.072420423,-0.780236213
108,273977,1492070,0.97,-0.002,0.232,-4.3,-1.6,-2.5,-6.7,23.9,-18.8,0.0921964171,-0.614368114,-0.072359386,-0.780236213
109,276145,1492070,0.97,-0.006,0.22,-4.4,-1.7,-2.6,-6.5,24,-18.8,0.0920743431,-0.614398633,-0.072359386,-0.780236213
110,279030,1492070,0.97,-0.002,0.224,-4.6,-1.7,-2.6,-6.5,24,-18.8,0.0919827876,-0.614429151,-0.0723288675,-0.780205695
111,281198,1492070,0.966,-0.002,0.224,-4.7,-1.8,-2.7,-6.5,24,-18.8,0.0918607135,-0.61445967,-0.0722678304,-0.780205695
112,284415,1492080,0.97,0.001,0.224,-4.9,-1.8,-2.7,-6.5,24,-18.8,0.0917386395,-0.614520707,-0.0722373119,-0.780175176
113,286485,1492080,0.966,0.005,0.224,-4.9,-1.8,-2.7,-6.5,23.8,-18.8,0.0916165654,-0.614551225,-0.0721762749,-0.780175176
114,288652,1492080,0.966,-0.002,0.224,-4.9,-1.8,-2.7,-6.5,23.8,-18.8,0.0915250099,-0.614581744,-0.0721457564,-0.780175176
115,291942,1492080,0.966,0.005,0.217,-4.9,-1.7,-2.7,-6.5,23.8,-18.8,0.0914029359,-0.614612262,-0.0721152379,-0.780144658
116,293962,1492090,0.962,0.005,0.217,-4.9,-1.8,-2.8,-6.5,23.8,-18.8,0.0912808618,-0.614642781,-0.0720542009,-0.780144658
117,295844,1492090,0.966,0.009,0.221,-4.9,-1.8,-2.7,-6.3,24.2,-21.2,0.0911587878,-0.614825892,-0.0720236824,-0.780022584
118,299931,1492090,0.966,0.009,0.221,-4.9,-1.9,-2.7,-6.3,24.2,-21.2,0.0910367138,-0.61485641,-0.0719931639,-0.780022584
119,302411,1492090,0.97,0.008,0.217,-4.9,-2,-2.7,-6.3,24.2,-21.2,0.0909146397,-0.614886929,-0.0719321268,-0.779992065
120,304379,1492100,0.97,0.012,0.209,-4.9,-2,-2.7,-6.3,24.2,-21.2,0.0907925657,-0.614947966,-0.0718710898,-0.779992065
121,306494,1492100,0.97,0.012,0.213,-4.9,-2.1,-2.8,-6.7,23.8,-19.4,0.0907010102,-0.614978484,-0.0718710898,-0.779961547
122,308630,1492100,0.97,0.012,0.209,-4.9,-2,-2.7,-6.7,23.8,-19.4,0.0905789361,-0.615039521,-0.0718100528,-0.779961547
123,311892,1492100,0.97,0.012,0.209,-5,-2,-2.7,-6.7,23.8,-19.4,0.0904263436,-0.61507004,-0.0717795343,-0.779931028
124,313825,1492110,0.966,0.012,0.213,-5.1,-1.9,-2.5,-6.7,23.8,-19.4,0.090334788,-0.615100558,-0.0717184973,-0.779931028
125,316132,1492110,0.97,0.016,0.209,-5.3,-1.7,-2.5,-6.4,24,-20.1,0.090212714,-0.615131077,-0.0716574602,-0.779931028
126,319651,1492110,0.974,0.016,0.213,-5.5,-1.7,-2.4,-6.4,24,-20.1,0.09009064,-0.615192114,-0.0716269417,-0.77990051
127,321920,1492110,0.97,0.024,0.209,-5.5,-1.9,-2.2,-6.4,24,-20.1,0.0899990844,-0.615222633,-0.0715659047,-0.77990051
128,324317,1492120,0.966,0.024,0.213,-5.7,-1.9,-2,-6.4,24,-20.1,0.0898770104,-0.615253151,-0.0714743492,-0.779869991
129,325743,1492120,0.97,0.02,0.213,-5.8,-1.9,-1.9,-6.7,24.1,-20.4,0.0897549364,-0.615314188,-0.0713827937,-0.779869991
130,328835,1492120,0.962,0.028,0.209,-6,-1.7,-1.9,-6.7,24.1,-20.4,0.0896328623,-0.615344707,-0.0713522752,-0.779869991
131,331058,1492120,0.966,0.024,0.205,-6,-1.7,-1.9,-6.7,24.1,-20.4,0.0895107883,-0.615375225,-0.0712607196,-0.779839473
132,333544,1492130,0.974,0.024,0.213,-6.2,-1.6,-1.9,-6.7,24.1,-20.4,0.0893887143,-0.615405744,-0.0711996826,-0.779839473
133,337031,1492130,0.97,0.024,0.201,-6.5,-1.4,-1.7,-6.4,24,-20.9,0.0892666402,-0.615436262,-0.0711081271,-0.779839473
134,338401,1492130,0.97,0.028,0.205,-6.8,-1.3,-1.6,-6.4,24,-20.9,0.0891445662,-0.615497299,-0.0710165716,-0.779839473
135,341383,1492130,0.966,0.024,0.205,-7.1,-1.2,-1.5,-6.4,24,-20.9,0.0890224921,-0.615527818,-0.0708944975,-0.779839473
136,343561,1492140,0.97,0.02,0.201,-7.5,-1.1,-1.4,-6.4,24,-20.9,0.0889004181,-0.615558336,-0.070802942,-0.779839473
137,346826,1492140,0.97,0.024,0.201,-8.3,-1.1,-1.5,-6.3,24.1,-19.9,0.088473159,-0.615924558,-0.0710165716,-0.779564806
138,348904,1492140,0.97,0.024,0.201,-8.3,-1.1,-1.5,-6.3,24.1,-19.9,0.0883816034,-0.615955077,-0.0708944975,-0.779564806
139,351079,1492140,0.966,0.02,0.201,-8.6,-1,-1.5,-6.3,24.1,-19.9,0.0882290109,-0.615985595,-0.0707724235,-0.779564806
140,354319,1492150,0.973,0.012,0.197,-8.9,-0.9,-1.5,-6.3,24.1,-19.9,0.0880764183,-0.616016114,-0.0706503494,-0.779564806
141,355816,1492150,0.973,0.016,0.197,-9.1,-0.8,-1.6,-6.8,23.9,-19.9,0.0879238258,-0.616046632,-0.0704977569,-0.779564806
142,358834,1492150,0.973,0.012,0.201,-9.2,-0.7,-1.6,-6.8,23.9,-19.9,0.0877712333,-0.616077151,-0.0703756829,-0.779595325
143,361117,1492150,0.973,0.012,0.197,-9.5,-0.5,-1.7,-6.8,23.9,-19.9,0.0876186407,-0.616107669,-0.0702230903,-0.779595325
144,363410,1492160,0.977,0.012,0.201,-9.7,-0.3,-1.7,-6.8,23.9,-19.9,0.0874660482,-0.616107669,-0.0701010163,-0.779595325
145,366357,1492160,0.973,0.008,0.197,-10,-0.3,-1.8,-6.9,23.9,-20,0.0872829371,-0.616138188,-0.0699179052,-0.779625843
146,368663,1492160,0.977,0.012,0.201,-10.2,-0.3,-1.9,-6.9,23.9,-20,0.0871303446,-0.616168706,-0.0697958312,-0.779625843
147,371747,1492160,0.981,0.008,0.193,-10.4,-0.4,-1.9,-6.9,23.9,-20,0.0869472335,-0.616199225,-0.0696432386,-0.779656362
148,374770,1492170,0.981,0.012,0.193,-10.6,-0.4,-2,-6.9,23.9,-20,0.0867641224,-0.616199225,-0.0694906461,-0.779656362
149,377051,1492170,0.985,0.012,0.197,-10.8,-0.4,-1.9,-7.1,23.7,-19.9,0.0865810114,-0.616229743,-0.0693380535,-0.77968688
150,379099,1492170,0.989,0.008,0.201,-11.1,-0.3,-1.8,-7.1,23.7,-19.9,0.0863979003,-0.616260262,-0.069185461,-0.77968688
151,382212,1492170,0.993,0.008,0.193,-11.3,-0.1,-1.7,-7.1,23.7,-19.9,0.0862147893,-0.61629078,-0.0690023499,-0.779717399
152,383581,1492180,0.993,0.012,0.189,-11.7,0,-1.7,-7.1,23.7,-19.9,0.0860316782,-0.61629078,-0.0688192389,-0.779747917
153,386541,1492180,0.993,0.008,0.193,-12,0,-1.5,-6.4,24,-19.4,0.0858485672,-0.616321299,-0.0686361278,-0.779747917
154,389948,1492180,0.997,0.012,0.196,-12.4,-0.2,-1.4,-6.4,24,-19.4,0.0856654561,-0.616351817,-0.0684530168,-0.779778436
155,391974,1492180,1.001,0.012,0.196,-12.8,-0.5,-1,-6.4,24,-19.4,0.0854518265,-0.616382336,-0.0682699057,-0.779778436
156,393371,1492190,1.001,0.012,0.192,-13.1,-0.8,-0.6,-6.4,24,-19.4,0.0852687155,-0.616412854,-0.0680562761,-0.779808954
157,396332,1492190,1.005,0.023,0.196,-14,-1,0.5,-6.2,24.5,-18.6,0.0850550859,-0.616687521,-0.0678426466,-0.779625843
158,399442,1492190,1.005,0.023,0.196,-14,-1,0.5,-6.2,24.5,-18.6,0.0848719749,-0.616718039,-0.0675984985,-0.779625843
159,401347,1492190,1.005,0.035,0.192,-14.3,-1.1,1.1,-6.2,24.5,-18.6,0.0847193823,-0.616779077,-0.0673238319,-0.779656362
160,403622,1492200,1.009,0.031,0.184,-14.6,-1.2,1.7,-6.2,24.5,-18.6,0.0845362712,-0.616809595,-0.0670796838,-0.779656362
161,406721,1492200,1.009,0.043,0.184,-14.8,-1.3,2.4,-6.3,24.2,-20.5,0.0843836787,-0.616870632,-0.0667744987,-0.779656362
162,408487,1492200,1.009,0.055,0.184,-15,-1.3,3,-6.3,24.2,-20.5,0.0842310862,-0.616931669,-0.0664998321,-0.779625843
163,411532,1492200,1.009,0.066,0.177,-15.2,-1.4,3.6,-6.3,24.2,-20.5,0.0840784936,-0.616992706,-0.0661946471,-0.779625843
164,413765,1492210,1.005,0.066,0.181,-15.6,-1.4,4.3,-6.3,24.2,-20.5,0.0839259011,-0.617053743,-0.0658589434,-0.779625843
165,416739,1492210,1.009,0.074,0.169,-16.1,-1.3,5,-6.4,24.3,-20.3,0.083803827,-0.61711478,-0.0655232398,-0.779625843
166,420076,1492210,1.005,0.086,0.165,-16.5,-1.2,5.6,-6.4,24.3,-20.3,0.083681753,-0.617175817,-0.0651570177,-0.779625843
167,421891,1492210,1.001,0.09,0.161,-17,-0.8,6.1,-6.4,24.3,-20.3,0.0835596789,-0.617206336,-0.0647907956,-0.779625843
168,423332,1492220,1.005,0.09,0.161,-17.3,-0.4,6.5,-6.4,24.3,-20.3,0.0834376049,-0.617267373,-0.0644245735,-0.779625843
169,426354,1492220,0.997,0.098,0.157,-17.7,0,6.8,-6.5,23.4,-20.5,0.0833155309,-0.617297891,-0.0640278329,-0.779656362
170,428386,1492220,0.997,0.09,0.157,-18,0.4,7,-6.5,23.4,-20.5,0.0831934568,-0.61732841,-0.0636310923,-0.779656362
171,431474,1492220,1.001,0.09,0.157,-18.5,0.9,7.2,-6.5,23.4,-20.5,0.0830408643,-0.617358928,-0.0632038331,-0.77968688
172,433592,1492230,0.997,0.082,0.149,-19,1.4,7.3,-6.5,23.4,-20.5,0.0829187902,-0.617389447,-0.062776574,-0.779717399
173,437572,1492230,0.993,0.074,0.153,-19.5,1.8,7.4,-6.8,23.4,-20.2,0.0827967162,-0.617389447,-0.0623493149,-0.779747917
174,439869,1492230,0.989,0.074,0.15,-20,2.2,7.4,-6.8,23.4,-20.2,0.0826136052,-0.617419965,-0.0618915372,-0.779808954
175,441413,1492230,0.993,0.07,0.149,-20.5,2.6,7.3,-6.8,23.4,-20.2,0.0824915311,-0.617419965,-0.0614337596,-0.779839473
176,443520,1492240,0.989,0.066,0.15,-21,3,7.3,-6.8,23.4,-20.2,0.0823389386,-0.617419965,-0.0609759819,-0.77990051
177,446512,1492240,0.985,0.047,0.15,-22.3,3.8,7.2,-6.3,25.6,-18.4,0.0817590869,-0.617877743,-0.0610065004,-0.779595325
178,448406,1492240,0.985,0.047,0.15,-22.3,3.8,7.2,-6.3,25.6,-18.4,0.0816064943,-0.617847224,-0.0605182043,-0.779656362
179,452507,1492240,0.989,0.051,0.153,-23.2,4.1,7.1,-6.3,25.6,-18.4,0.0813928648,-0.617847224,-0.0600299081,-0.779747917
180,454364,1492250,0.985,0.039,0.154,-24.1,4.3,7.1,-6.3,25.6,-18.4,0.0812097537,-0.617816706,-0.0595110935,-0.779808954
181,456480,1492250,0.989,0.031,0.161,-25.3,4.5,7.1,-6.1,24.4,-20,0.0809961241,-0.617786187,-0.0589922788,-0.77990051
182,458708,1492250,0.989,0.027,0.154,-26.5,4.5,7.1,-6.1,24.4,-20,0.0807519761,-0.617786187,-0.0583819086,-0.779992065
183,460809,1492250,0.989,0.023,0.161,-27.8,4.6,7.2,-6.1,24.4,-20,0.080507828,-0.617755669,-0.0578325755,-0.780053102
184,464423,1492260,0.993,0.016,0.169,-29,4.5,7.2,-6.1,24.4,-20,0.0802636799,-0.61772515,-0.0572527238,-0.780144658
185,466521,1492260,0.989,0.012,0.169,-30,4.3,7.2,-6.8,24.7,-20.3,0.0799890133,-0.61772515,-0.0566118351,-0.780236213
186,468996,1492260,0.993,0.012,0.165,-30.9,4.1,7.2,-6.8,24.7,-20.3,0.0796838282,-0.61772515,-0.0560014649,-0.780327769
187,471053,1492260,0.997,0.012,0.169,-31.8,3.8,7.1,-6.8,24.7,-20.3,0.0793786431,-0.61772515,-0.0553605762,-0.780388806
188,475433,1492270,0.997,0.008,0.177,-32.6,3.5,6.9,-6.8,24.7,-20.3,0.0790734581,-0.61772515,-0.054689169,-0.780480361
189,477691,1492270,0.997,0.004,0.177,-33.5,3.1,6.6,-5.9,25.1,-19.9,0.0787072359,-0.61772515,-0.0539872433,-0.780541398
190,479653,1492270,1.001,0,0.181,-34.3,2.8,6.4,-5.9,25.1,-19.9,0.0783715323,-0.617755669,-0.0533463546,-0.780602435
191,481805,1492270,1.001,-0.011,0.185,-34.9,2.6,6.3,-5.9,25.1,-19.9,0.0780358287,-0.617755669,-0.0526749474,-0.780663472
192,483419,1492280,1.001,-0.011,0.189,-35.3,2.4,6.1,-5.9,25.1,-19.9,0.0776696066,-0.617786187,-0.0519730216,-0.780724509
193,485756,1492280,1.001,-0.011,0.189,-35.6,2.2,6,-6.2,25.1,-20,0.0772423475,-0.617816706,-0.0512710959,-0.780785546
194,488224,1492280,0.997,-0.015,0.189,-35.7,2.2,5.8,-6.2,25.1,-20,0.0769066439,-0.617847224,-0.0505691702,-0.780846583
195,491830,1492280,0.989,-0.018,0.193,-35.8,2.1,5.6,-6.2,25.1,-20,0.0765099033,-0.617877743,-0.049897763,-0.78090762
196,493385,1492290,0.989,-0.014,0.197,-35.9,1.9,5.5,-6.2,25.1,-20,0.0761436811,-0.617908261,-0.0491958373,-0.780968657
197,495933,1492290,0.989,-0.014,0.201,-36,1,5.3,-6,25.5,-18.6,0.075716422,-0.618274483,-0.0485244301,-0.780755028
198,498351,1492290,0.981,-0.022,0.201,-36,1,5.3,-6,25.5,-18.6,0.0752891629,-0.61833552,-0.0478530229,-0.780816065
199,502577,1492290,0.977,-0.014,0.201,-36.1,0.5,5.3,-6,25.5,-18.6,0.0749229408,-0.618396558,-0.0471510971,-0.780846583
200,504675,1492300,0.977,-0.014,0.193,-36.1,0.2,5.2,-6,25.5,-18.6,0.0745262001,-0.618457595,-0.0464796899,-0.780877102
201,506947,1492300,0.977,-0.014,0.193,-36,0,5.1,-6.3,25.6,-18.9,0.0741294595,-0.618518632,-0.0457777642,-0.78090762
202,508535,1492300,0.973,-0.006,0.193,-35.9,-0.3,5,-6.3,25.6,-18.9,0.0737327189,-0.618579669,-0.045106357,-0.780938139
203,510724,1492300,0.977,-0.006,0.193,-35.9,-0.7,4.9,-6.3,25.6,-18.9,0.0733359783,-0.618671224,-0.0444349498,-0.780938139
204,513946,1492310,0.973,-0.01,0.193,-35.8,-0.9,4.8,-6.3,25.6,-18.9,0.0729392376,-0.618732261,-0.0437330241,-0.780968657
205,516188,1492310,0.973,-0.002,0.185,-35.8,-1.1,4.6,-6.4,26,-18.5,0.0725119785,-0.618823817,-0.0430921354,-0.780968657
206,519605,1492310,0.969,0.004,0.189,-35.9,-1.4,4.4,-6.4,26,-18.5,0.0721152379,-0.618915372,-0.0424207282,-0.780968657
207,521639,1492310,0.969,0.004,0.189,-36,-1.6,4.2,-6.4,26,-18.5,0.0716879788,-0.618976409,-0.041749321,-0.780968657
208,524694,1492320,0.966,0.004,0.185,-36,-1.9,4,-6.4,26,-18.5,0.0712912381,-0.619098483,-0.0410473952,-0.780968657
209,527037,1492320,0.973,0.008,0.185,-35.9,-2.4,3.8,-6.4,25.7,-18.3,0.070863979,-0.619190039,-0.0404065065,-0.780968657
210,529191,1492320,0.969,0.008,0.189,-35.9,-2.7,3.5,-6.4,25.7,-18.3,0.0704062014,-0.619281594,-0.0397656178,-0.780968657
211,531317,1492320,0.977,0.008,0.185,-36,-2.9,3.4,-6.4,25.7,-18.3,0.0700094607,-0.619403668,-0.0390942106,-0.780938139
212,533575,1492330,0.969,0.008,0.185,-36.3,-2.9,3.3,-6.4,25.7,-18.3,0.0695516831,-0.619495224,-0.0384533219,-0.780938139
213,537878,1492330,0.969,0.012,0.185,-36.5,-2.9,3.3,-6.3,25.9,-18.1,0.069124424,-0.619617298,-0.0377819147,-0.78090762
214,538314,1492330,0.966,0.012,0.185,-36.8,-3,3.3,-6.3,25.9,-18.1,0.0686666463,-0.619708853,-0.0371105075,-0.78090762
215,540751,1492330,0.969,0.008,0.189,-37,-3.2,3.4,-6.3,25.9,-18.1,0.0682393872,-0.619830927,-0.0364085818,-0.780877102
216,544903,1492340,0.969,0.012,0.189,-37.3,-3.4,3.4,-6.3,25.9,-18.1,0.0677816095,-0.619953001,-0.0357676931,-0.780846583
217,546218,1492340,0.973,0.012,0.197,-38.1,-3.6,3.2,-6.3,25.3,-18,0.0671407208,-0.620288705,-0.035279397,-0.780663472
218,549292,1492340,0.973,0.012,0.197,-38.1,-3.6,3.2,-6.3,25.3,-18,0.0666829432,-0.620410779,-0.0345774712,-0.780632954
219,551300,1492340,0.97,0.012,0.193,-38.5,-3.6,3.2,-6.3,25.3,-18,0.0662251656,-0.620532853,-0.0338755455,-0.780602435
220,554432,1492350,0.97,0.008,0.201,-38.8,-3.5,3.1,-6.3,25.3,-18,0.0657368694,-0.620654927,-0.0332041383,-0.780602435
221,555854,1492350,0.966,0.012,0.197,-39.2,-3.4,3,-6.3,25.8,-18.1,0.0652790918,-0.620777001,-0.0325022126,-0.780571917
222,559662,1492350,0.962,0.012,0.201,-39.5,-3.2,2.9,-6.3,25.8,-18.1,0.0647907956,-0.620868557,-0.0317697684,-0.780541398
223,561892,1492350,0.962,0.012,0.205,-40,-3.2,2.9,-6.3,25.8,-18.1,0.064271981,-0.620990631,-0.0310678426,-0.78051088
224,563870,1492360,0.962,0.012,0.213,-40.4,-3.3,2.7,-6.3,25.8,-18.1,0.0637836848,-0.621112705,-0.0303353984,-0.78051088
225,567170,1492360,0.958,0.013,0.209,-41,-3.4,2.5,-6.7,25.9,-17.9,0.0632648701,-0.621234779,-0.0296029542,-0.780480361
226,569302,1492360,0.954,0.009,0.213,-41.5,-3.4,2.5,-6.7,25.9,-17.9,0.0627460555,-0.621356853,-0.02887051,-0.780449843
227,570874,1492360,0.954,0.009,0.213,-42.1,-3.2,2.6,-6.7,25.9,-17.9,0.0622272408,-0.621448408,-0.0280770287,-0.780419324
228,573711,1492370,0.95,0.013,0.213,-42.7,-2.9,2.5,-6.7,25.9,-17.9,0.0616779077,-0.621570482,-0.0273445845,-0.780419324
229,576897,1492370,0.95,0.009,0.209,-43.2,-2.6,2.5,-6.6,26.1,-17.8,0.0611285745,-0.621692557,-0.0265816218,-0.780388806
230,578235,1492370,0.95,0.009,0.209,-43.7,-2.5,2.4,-6.6,26.1,-17.8,0.0605792413,-0.621784112,-0.025818659,-0.780388806
231,581151,1492370,0.954,0.009,0.197,-44,-2.3,2.4,-6.6,26.1,-17.8,0.0600299081,-0.621875668,-0.0250251778,-0.780388806
232,583992,1492380,0.95,0.001,0.201,-44.5,-2.1,2.3,-6.6,26.1,-17.8,0.0594500565,-0.621967223,-0.024262215,-0.780358287
233,587098,1492380,0.95,-0.002,0.201,-44.8,-1.9,2.1,-7.3,26.3,-17.5,0.0588702048,-0.622058779,-0.0234382153,-0.780358287
234,588390,1492380,0.95,0.001,0.197,-45,-1.6,2,-7.3,26.3,-17.5,0.0583208716,-0.622150334,-0.0226752525,-0.780358287
235,591791,1492380,0.95,-0.01,0.19,-45,-1.4,2,-7.3,26.3,-17.5,0.0577410199,-0.62224189,-0.0218512528,-0.780358287
236,594682,1492390,0.954,-0.014,0.201,-45,-1.1,1.9,-7.3,26.3,-17.5,0.0571611682,-0.622302927,-0.02108829,-0.780358287
237,596249,1492390,0.958,-0.026,0.193,-44.8,-0.5,1.5,-5.6,25.5,-17,0.056428724,-0.622516556,-0.0204779199,-0.780266732
238,599277,1492390,0.958,-0.026,0.197,-44.8,-0.5,1.5,-5.6,25.5,-17,0.0558488723,-0.622577593,-0.0196539201,-0.780266732
239,602358,1492390,0.962,-0.03,0.197,-44.6,-0.2,1.4,-5.6,25.5,-17,0.0552690207,-0.62263863,-0.0189214759,-0.78029725
240,604609,1492400,0.965,-0.03,0.197,-44.4,0,1.3,-5.6,25.5,-17,0.054689169,-0.622699667,-0.0181279946,-0.780327769
241,606833,1492400,0.965,-0.03,0.193,-44.2,0,1.2,-7,26.8,-17.1,0.0541093173,-0.622760704,-0.0173345134,-0.780327769
242,608930,1492400,0.969,-0.037,0.205,-43.9,0,1,-7,26.8,-17.1,0.0534989471,-0.622791223,-0.0166020692,-0.780327769
243,612093,1492400,0.977,-0.045,0.205,-43.7,-0.2,0.9,-7,26.8,-17.1,0.0529496139,-0.62285226,-0.0158391064,-0.780358287
244,614384,1492410,0.973,-0.049,0.205,-43.5,-0.2,0.6,-7,26.8,-17.1,0.0523697623,-0.622913297,-0.0151066622,-0.780358287
245,616479,1492410,0.973,-0.049,0.209,-43.4,0,0.5,-7.4,27.2,-16.7,0.0517899106,-0.622974334,-0.0143436995,-0.780388806
246,618442,1492410,0.977,-0.065,0.209,-43.6,0.1,0.4,-7.4,27.2,-16.7,0.0511795404,-0.623004852,-0.0136112552,-0.780388806
247,622799,1492410,0.981,-0.065,0.213,-43.8,0.3,0.5,-7.4,27.2,-16.7,0.0505691702,-0.623035371,-0.0128482925,-0.780419324
248,624944,1492420,0.977,-0.069,0.217,-44.1,0.4,0.3,-7.4,27.2,-16.7,0.050019837,-0.623096408,-0.0120853298,-0.780419324
249,627158,1492420,0.977,-0.069,0.213,-44.4,0.4,0.2,-7.4,27.4,-16.8,0.0494094668,-0.623126926,-0.011322367,-0.780449843
250,629427,1492420,0.981,-0.081,0.22,-44.6,0.4,0,-7.4,27.4,-16.8,0.0487990967,-0.623157445,-0.0105594043,-0.780449843
251,631497,1492420,0.977,-0.077,0.217,-44.9,0.5,0,-7.4,27.4,-16.8,0.0481887265,-0.623218482,-0.00979644154,-0.780480361
252,633739,1492430,0.977,-0.084,0.213,-45.1,0.7,-0.1,-7.4,27.4,-16.8,0.0475783563,-0.623249001,-0.0090334788,-0.78051088
253,636203,1492430,0.977,-0.081,0.217,-45.4,0.8,-0.3,-7.5,27.4,-16.6,0.0469679861,-0.623279519,-0.00827051607,-0.78051088
254,638389,1492430,0.977,-0.092,0.217,-45.6,0.8,-0.4,-7.5,27.4,-16.6,0.0463270974,-0.623310038,-0.00747703482,-0.780541398
255,642976,1492430,0.973,-0.092,0.217,-45.8,0.9,-0.6,-7.5,27.4,-16.6,0.0456862087,-0.623340556,-0.00671407208,-0.780571917
256,643240,1492440,0.981,-0.096,0.22,-45.9,1,-0.8,-7.5,27.4,-16.6,0.04504532,-0.623371075,-0.00595110935,-0.780571917
257,647550,1492440,0.973,-0.096,0.221,-45.9,0.9,-1.5,-5.7,26.5,-16.1,0.0445875423,-0.623432112,-0.00494399854,-0.780571917
258,650047,1492440,0.973,-0.096,0.221,-45.9,0.9,-1.5,-5.7,26.5,-16.1,0.0439161351,-0.62346263,-0.0041810358,-0.780571917
259,652109,1492440,0.969,-0.096,0.221,-45.9,0.8,-1.9,-5.7,26.5,-16.1,0.0432447279,-0.623493149,-0.00344859157,-0.780602435
260,653982,1492450,0.969,-0.1,0.232,-45.7,0.6,-2.2,-5.7,26.5,-16.1,0.0426038392,-0.623523667,-0.00268562883,-0.780602435
261,656134,1492450,0.969,-0.1,0.225,-45.5,0.6,-2.5,-7.1,27.4,-16.3,0.041932432,-0.623554186,-0.00195318461,-0.780632954
262,658234,1492450,0.969,-0.104,0.225,-45.3,0.4,-2.9,-7.1,27.4,-16.3,0.0412915433,-0.623584704,-0.00122074038,-0.780632954
263,662563,1492450,0.969,-0.104,0.225,-45,0.3,-3.4,-7.1,27.4,-16.3,0.0406201361,-0.623615223,-0.000488296152,-0.780632954
264,664721,1492460,0.961,-0.108,0.225,-44.7,0.3,-4,-7.1,27.4,-16.3,0.0399182104,-0.623645741,0.000183111057,-0.780663472
265,667000,1492460,0.965,-0.104,0.229,-44.3,0.4,-4.4,-6.9,27.3,-16.1,0.0392468032,-0.62367626,0.000885036775,-0.780663472
266,668920,1492460,0.961,-0.108,0.217,-44,0.5,-4.9,-6.9,27.3,-16.1,0.038575396,-0.623706778,0.00155644398,-0.780663472
267,671108,1492460,0.958,-0.111,0.225,-43.7,0.5,-5.3,-6.9,27.3,-16.1,0.0378734703,-0.623737297,0.00222785119,-0.780693991
268,674418,1492470,0.958,-0.111,0.221,-43.4,0.6,-5.8,-6.9,27.3,-16.1,0.0372020631,-0.623767815,0.0028992584,-0.780693991
269,676387,1492470,0.954,-0.115,0.221,-43.1,0.9,-6.2,-6.9,27.8,-15.8,0.0365001373,-0.623798334,0.0035401471,-0.780693991
270,678694,1492470,0.954,-0.115,0.221,-42.7,1.1,-6.5,-6.9,27.8,-15.8,0.0357982116,-0.623798334,0.0041810358,-0.780724509
271,681905,1492470,0.954,-0.115,0.225,-42.3,1.4,-6.9,-6.9,27.8,-15.8,0.0350962859,-0.623798334,0.0048219245,-0.780755028
272,683923,1492480,0.95,-0.119,0.221,-41.7,1.4,-7.2,-6.9,27.8,-15.8,0.0344248787,-0.623828852,0.00543229469,-0.780755028
273,686164,1492480,0.95,-0.123,0.225,-41.2,1.2,-7.5,-5.9,27.4,-15.6,0.033722953,-0.623828852,0.00601214637,-0.780785546
274,689582,1492480,0.946,-0.123,0.229,-40.9,1.1,-7.8,-5.9,27.4,-15.6,0.0329905087,-0.623828852,0.00662251656,-0.780785546
275,691351,1492480,0.946,-0.123,0.225,-40.8,0.9,-8.1,-5.9,27.4,-15.6,0.03234962,-0.623859371,0.00720236824,-0.780816065
276,693214,1492490,0.946,-0.127,0.225,-40.6,0.8,-8.4,-5.9,27.4,-15.6,0.0316476943,-0.623859371,0.00778221992,-0.780816065
277,696305,1492490,0.95,-0.127,0.217,-40.6,0.6,-9,-6.6,27.5,-15.3,0.0312814722,-0.623828852,0.00881984924,-0.780846583
278,698725,1492490,0.946,-0.127,0.221,-40.6,0.6,-9,-6.6,27.5,-15.3,0.030610065,-0.623859371,0.00939970092,-0.780877102
279,701990,1492490,0.95,-0.131,0.225,-40.6,0.6,-9.2,-6.6,27.5,-15.3,0.0299081393,-0.623859371,0.0099795526,-0.780877102
280,704177,1492500,0.946,-0.131,0.221,-40.6,0.5,-9.2,-6.6,27.5,-15.3,0.0291756951,-0.623889889,0.0105288858,-0.780877102
281,706213,1492500,0.946,-0.131,0.221,-40.5,0.4,-9.3,-6.6,27.5,-15,0.0284432508,-0.623889889,0.0111087374,-0.780877102
282,710445,1492500,0.942,-0.131,0.213,-40.3,0.3,-9.4,-6.6,27.5,-15,0.0277718436,-0.623920408,0.0116580706,-0.780877102
283,710915,1492500,0.942,-0.127,0.213,-40.3,0.2,-9.5,-6.6,27.5,-15,0.0270393994,-0.623950926,0.0122074038,-0.780877102
284,715209,1492510,0.942,-0.127,0.217,-40.3,0.1,-9.5,-6.6,27.5,-15,0.0263374737,-0.623981445,0.012756737,-0.780877102
285,717208,1492510,0.942,-0.127,0.213,-40.2,0,-9.6,-6.6,27.3,-15.3,0.025635548,-0.624011963,0.0133365886,-0.780877102
286,719539,1492510,0.942,-0.123,0.209,-40,-0.2,-9.7,-6.6,27.3,-15.3,0.0249031037,-0.624011963,0.0138859218,-0.780846583
287,721750,1492510,0.942,-0.123,0.213,-39.7,-0.5,-9.9,-6.6,27.3,-15.3,0.0241706595,-0.624073,0.0144047365,-0.780846583
288,724734,1492520,0.942,-0.131,0.209,-39.4,-0.7,-9.9,-6.6,27.3,-15.3,0.0234992523,-0.624103519,0.0149540696,-0.780816065
289,726088,1492520,0.942,-0.123,0.209,-39.1,-0.7,-9.9,-6.7,27.5,-15,0.0227973266,-0.624134037,0.0154728843,-0.780816065
290,729243,1492520,0.946,-0.123,0.209,-38.6,-0.8,-10,-6.7,27.5,-15,0.0220954009,-0.624164556,0.015991699,-0.780785546
291,732254,1492520,0.946,-0.123,0.205,-38,-1,-10,-6.7,27.5,-15,0.0214239937,-0.624195074,0.0164799951,-0.780755028
292,734483,1492530,0.946,-0.119,0.205,-37.6,-1.3,-10,-6.7,27.5,-15,0.0207220679,-0.624256111,0.0170293283,-0.780724509
293,735889,1492530,0.946,-0.115,0.198,-37.2,-1.3,-9.9,-6.7,27.4,-14.4,0.0200201422,-0.62428663,0.0175176244,-0.780693991
294,738770,1492530,0.946,-0.119,0.198,-36.9,-1.4,-9.9,-6.7,27.4,-14.4,0.0193792535,-0.624347667,0.0180059206,-0.780663472
295,741079,1492530,0.95,-0.111,0.198,-36.6,-1.5,-9.9,-6.7,27.4,-14.4,0.0186773278,-0.624378185,0.0184942167,-0.780632954
296,743907,1492540,0.95,-0.111,0.198,-36.1,-1.5,-9.8,-6.7,27.4,-14.4,0.0180669576,-0.624439222,0.0189825129,-0.780602435
297,747207,1492540,0.95,-0.111,0.19,-35.4,-1.7,-9.8,-7.4,27.6,-14.7,0.0179448836,-0.624622333,0.0201422163,-0.780419324
298,749478,1492540,0.95,-0.111,0.19,-35.4,-1.7,-9.8,-7.4,27.6,-14.7,0.0173039949,-0.62468337,0.0205999939,-0.780388806
299,751467,1492540,0.95,-0.108,0.19,-35,-1.8,-9.7,-7.4,27.6,-14.7,0.0166631062,-0.624713889,0.0210577715,-0.780358287
300,753789,1492550,0.95,-0.104,0.19,-34.7,-1.9,-9.7,-7.4,27.6,-14.7,0.015991699,-0.624774926,0.0214850307,-0.780327769
301,755902,1492550,0.946,-0.108,0.182,-34.5,-1.9,-9.7,-6.2,27.5,-14.4,0.0153813288,-0.624835963,0.0219733268,-0.780266732
302,758972,1492550,0.946,-0.108,0.186,-34.2,-1.9,-9.7,-6.2,27.5,-14.4,0.0147404401,-0.624866482,0.0224311045,-0.780236213
303,761297,1492550,0.95,-0.108,0.186,-34,-1.7,-9.6,-6.2,27.5,-14.4,0.0141300699,-0.624927519,0.0228888821,-0.780205695
304,764441,1492560,0.95,-0.111,0.19,-33.8,-1.7,-9.6,-6.2,27.5,-14.4,0.0134891812,-0.624958037,0.0233161412,-0.780175176
305,765806,1492560,0.95,-0.111,0.19,-33.6,-1.9,-9.7,-6.2,27.6,-14.8,0.012878811,-0.625019074,0.0237434004,-0.780114139
306,768714,1492560,0.949,-0.112,0.178,-33.5,-2.1,-9.9,-6.2,27.6,-14.8,0.0122379223,-0.625049593,0.0241706595,-0.780083621
307,771832,1492560,0.946,-0.111,0.182,-33.4,-2.2,-10.1,-6.2,27.6,-14.8,0.0116275521,-0.62511063,0.0246284371,-0.780022584
308,773270,1492570,0.946,-0.111,0.182,-33.3,-2.4,-10.2,-6.2,27.6,-14.8,0.0109866634,-0.625171667,0.0250251778,-0.779992065
309,777379,1492570,0.946,-0.115,0.186,-33.1,-2.6,-10.3,-6.2,27.6,-14.4,0.0103457747,-0.625232704,0.0254829554,-0.779931028
310,779509,1492570,0.95,-0.119,0.186,-33,-2.9,-10.5,-6.2,27.6,-14.4,0.00973540452,-0.625293741,0.025879696,-0.779869991
311,781528,1492570,0.946,-0.123,0.186,-32.8,-3.3,-10.5,-6.2,27.6,-14.4,0.00909451582,-0.625354778,0.0263069552,-0.779808954
312,783798,1492580,0.942,-0.127,0.182,-32.7,-3.9,-10.6,-6.2,27.6,-14.4,0.00848414563,-0.625446333,0.0267036958,-0.779747917
313,786038,1492580,0.942,-0.127,0.186,-32.4,-4.7,-10.6,-6.5,27.5,-13.8,0.00787377544,-0.625537889,0.0271004364,-0.779656362
314,788965,1492580,0.942,-0.127,0.186,-32,-5.4,-10.7,-6.5,27.5,-13.8,0.00723288675,-0.625629444,0.0275276955,-0.779564806
315,791291,1492580,0.946,-0.127,0.194,-31.4,-6.3,-10.9,-6.5,27.5,-13.8,0.00662251656,-0.625751518,0.0278939177,-0.779473251
316,793554,1492590,0.946,-0.135,0.19,-30.8,-7,-11,-6.5,27.5,-13.8,0.00601214637,-0.625904111,0.0282601398,-0.779351176
317,796391,1492590,0.95,-0.127,0.19,-29.5,-8.9,-11.2,-7.8,27.8,-14.2,0.00628681295,-0.626270333,0.0296639912,-0.778984954
318,799658,1492590,0.953,-0.131,0.194,-29.5,-8.9,-11.2,-7.8,27.8,-14.2,0.00570696127,-0.626422926,0.0300302133,-0.77886288
319,801939,1492590,0.953,-0.131,0.19,-29,-9.9,-11.4,-7.8,27.8,-14.2,0.00512710959,-0.626606037,0.0303659169,-0.778710288
320,803336,1492600,0.953,-0.131,0.194,-28.7,-10.8,-11.6,-7.8,27.8,-14.2,0.0045167394,-0.626789148,0.0307016205,-0.778527177
321,806290,1492600,0.957,-0.135,0.19,-28.6,-11.4,-11.7,-6.5,28,-13.8,0.00393688772,-0.627002777,0.0310068056,-0.778374584
322,809366,1492600,0.957,-0.127,0.194,-28.6,-11.9,-11.7,-6.5,28,-13.8,0.00335703604,-0.627216407,0.0313425092,-0.778191473
323,812328,1492600,0.961,-0.12,0.186,-28.5,-12.3,-11.7,-6.5,28,-13.8,0.00277718436,-0.627430036,0.0316782128,-0.777977844
324,813761,1492610,0.961,-0.127,0.193,-28.4,-12.7,-11.8,-6.5,28,-13.8,0.00219733268,-0.627674184,0.0319833979,-0.777794733
325,816764,1492610,0.957,-0.123,0.19,-28.3,-13,-12,-6.4,28.3,-13.6,0.001617481,-0.627887814,0.0323191015,-0.777611621
326,818537,1492610,0.961,-0.123,0.186,-28.3,-13.1,-12.2,-6.4,28.3,-13.6,0.00103762932,-0.628131962,0.0326242866,-0.777397992
327,821721,1492610,0.961,-0.127,0.19,-28.3,-13.1,-12.2,-6.4,28.3,-13.6,0.000427259133,-0.628345592,0.0329294717,-0.777184362
328,824918,1492620,0.965,-0.124,0.182,-28.5,-13.1,-12.4,-6.4,28.3,-13.6,0.000122074038,0.62858974,-0.0332346568,0.777001251
329,827284,1492620,0.965,-0.127,0.182,-28.6,-13,-12.3,-6.7,28.3,-13.5,0.000701925718,0.628833888,-0.0335703604,0.776787622
330,829235,1492620,0.957,-0.123,0.186,-28.7,-12.9,-12.4,-6.7,28.3,-13.5,0.00131229591,0.629047517,-0.0338755455,0.776604511
331,832524,1492620,0.961,-0.123,0.178,-28.7,-12.8,-12.4,-6.7,28.3,-13.5,0.00189214759,0.629261147,-0.0341807306,0.776390881
332,834572,1492630,0.957,-0.119,0.178,-28.6,-12.8,-12.4,-6.7,28.3,-13.5,0.00250251778,0.629505295,-0.0345164342,0.77620777
333,836701,1492630,0.961,-0.12,0.174,-28.6,-12.7,-12.4,-6.6,28.1,-13.4,0.00308236946,0.629718925,-0.0348216193,0.77599414
334,838885,1492630,0.961,-0.116,0.174,-28.6,-12.6,-12.5,-6.6,28.1,-13.4,0.00369273965,0.629932554,-0.0351268044,0.775811029
335,841063,1492630,0.961,-0.12,0.174,-28.6,-12.6,-12.5,-6.6,28.1,-13.4,0.00427259133,0.630176702,-0.0354319895,0.7755974
336,844976,1492640,0.961,-0.116,0.174,-28.5,-12.5,-12.5,-6.6,28.1,-13.4,0.00488296152,0.630390332,-0.0357676931,0.775414289
337,846448,1492640,0.965,-0.112,0.166,-28.2,-12.3,-12.4,-7.4,28,-13.2,0.00500503555,0.630756554,-0.0366527299,0.775048067
338,848545,1492640,0.965,-0.112,0.166,-28.2,-12.3,-12.4,-7.4,28,-13.2,0.00558488723,0.630970183,-0.036957915,0.774864956
339,851534,1492640,0.969,-0.116,0.158,-28.1,-12.2,-12.3,-7.4,28,-13.2,0.00616473891,0.631183813,-0.0372631001,0.774681845
340,853964,1492650,0.969,-0.112,0.162,-28,-12,-12.2,-7.4,28,-13.2,0.0067751091,0.631397443,-0.0375682852,0.774498733
341,856070,1492650,0.969,-0.108,0.158,-27.9,-12,-12.2,-7.3,28.7,-13.1,0.00735496078,0.631611072,-0.0378734703,0.774285104
342,859211,1492650,0.969,-0.112,0.154,-27.7,-12,-12.3,-7.3,28.7,-13.1,0.00793481246,0.631824702,-0.0381786554,0.774101993
343,862202,1492650,0.973,-0.108,0.154,-27.4,-11.9,-12.2,-7.3,28.7,-13.1,0.00851466414,0.632038331,-0.0384838404,0.773918882
344,863575,1492660,0.969,-0.104,0.15,-27.1,-11.8,-12.1,-7.3,28.7,-13.1,0.00906399731,0.632221442,-0.038758507,0.773735771
345,866694,1492660,0.969,-0.104,0.146,-26.9,-11.6,-12.1,-7,28.3,-13.1,0.00964384899,0.632435072,-0.0390636921,0.77355266
346,868158,1492660,0.969,-0.096,0.146,-26.7,-11.5,-12.1,-7,28.3,-13.1,0.0101931822,0.632648701,-0.0393383587,0.77333903
347,871960,1492660,0.969,-0.1,0.142,-26.7,-11.4,-12,-7,28.3,-13.1,0.0107730338,0.632831812,-0.0396435438,0.773155919
348,873378,1492670,0.969,-0.1,0.142,-26.7,-11.4,-12,-7,28.3,-13.1,0.011322367,0.633014924,-0.0399182104,0.772972808
349,877484,1492670,0.973,-0.097,0.138,-26.7,-11.4,-12,-7.3,28.2,-12.6,0.0119022187,0.633228553,-0.040192877,0.772789697
350,879341,1492670,0.973,-0.096,0.142,-26.7,-11.1,-11.9,-7.3,28.2,-12.6,0.0124515519,0.633411664,-0.0404980621,0.772637104
351,880850,1492670,0.973,-0.097,0.138,-26.7,-10.9,-12,-7.3,28.2,-12.6,0.013000885,0.633594775,-0.0407727287,0.772453993
352,883908,1492680,0.981,-0.093,0.138,-26.9,-10.6,-11.9,-7.3,28.2,-12.6,0.0135807367,0.633777886,-0.0410473952,0.772270882
353,886072,1492680,0.977,-0.093,0.134,-27,-10.5,-11.7,-7.5,28.7,-12.6,0.0141300699,0.633960997,-0.0413830988,0.772087771
354,889039,1492680,0.977,-0.093,0.138,-27.2,-10.4,-11.5,-7.5,28.7,-12.6,0.0147099216,0.634144108,-0.0416577654,0.771935179
355,891511,1492680,0.98,-0.097,0.126,-27.4,-10.1,-11.5,-7.5,28.7,-12.6,0.0152592547,0.634327219,-0.0419629505,0.771752068
356,893652,1492690,0.988,-0.089,0.126,-27.7,-9.8,-11.4,-7.5,28.7,-12.6,0.0158391064,0.634479812,-0.0422681356,0.771599475
357,896054,1492690,0.992,-0.085,0.126,-28.3,-9.5,-11.4,-7.8,28.3,-13.4,0.015991699,0.635181738,-0.0431531724,0.770958586
358,898930,1492690,1,-0.085,0.126,-28.3,-9.5,-11.4,-7.8,28.3,-13.4,0.0165715506,0.635364849,-0.043488876,0.770775475
359,901108,1492690,1,-0.089,0.122,-28.6,-9.3,-11.3,-7.8,28.3,-13.4,0.0171514023,0.635517441,-0.0437940611,0.770622883
360,904197,1492700,1.004,-0.085,0.118,-28.8,-9,-11.2,-7.8,28.3,-13.4,0.0177007355,0.635670034,-0.0441297647,0.77047029
361,905706,1492700,1.004,-0.089,0.118,-29.2,-8.6,-11,-7.9,28.3,-10.7,0.0183111057,0.635792108,-0.0444654683,0.770317698
362,908540,1492700,1.012,-0.089,0.114,-29.5,-8.3,-11,-7.9,28.3,-10.7,0.0188909574,0.6359447,-0.0448316904,0.770165105
363,911898,1492700,1.016,-0.086,0.114,-29.8,-8.1,-10.9,-7.9,28.3,-10.7,0.0195013276,0.636066774,-0.045167394,0.770012513
364,913754,1492710,1.02,-0.082,0.118,-29.8,-7.8,-10.8,-7.9,28.3,-10.7,0.0200811792,0.636219367,-0.0455336161,0.769890439
365,916984,1492710,1.02,-0.086,0.118,-29.6,-7.6,-10.8,-7.6,28.7,-11,0.0206305124,0.636341441,-0.0458693197,0.769737846
366,918784,1492710,1.027,-0.086,0.118,-29.5,-7.3,-10.7,-7.6,28.7,-11,0.0212408826,0.636463515,-0.0462355419,0.769615772
367,921028,1492710,1.031,-0.086,0.118,-29.5,-7,-10.6,-7.6,28.7,-11,0.0218207343,0.636585589,-0.0465712455,0.769463179
368,923510,1492720,1.035,-0.086,0.11,-29.7,-6.6,-10.6,-7.6,28.7,-11,0.022400586,0.636677145,-0.0469069491,0.769341105
369,926321,1492720,1.035,-0.09,0.118,-30,-6.1,-10.4,-8,28.9,-10.8,0.0230109561,0.6367687,-0.0473036897,0.769219031
370,928575,1492720,1.031,-0.09,0.114,-30.2,-5.6,-10.3,-8,28.9,-10.8,0.0235602893,0.636860256,-0.0476393933,0.769096957
371,931792,1492720,1.039,-0.086,0.114,-30.3,-5.1,-10.1,-8,28.9,-10.8,0.0241706595,0.636951811,-0.0480361339,0.769005402
372,933303,1492730,1.035,-0.094,0.11,-30.4,-4.7,-10.2,-8,28.9,-10.8,0.0247505112,0.637012848,-0.0483718375,0.768883328
373,937270,1492730,1.039,-0.098,0.114,-30.5,-4.3,-10.1,-7.7,28.5,-10.4,0.0253608814,0.637104404,-0.0487685781,0.768791772
374,939529,1492730,1.043,-0.098,0.11,-30.5,-3.9,-10.1,-7.7,28.5,-10.4,0.0259407331,0.637134922,-0.0491653188,0.768700217
375,941454,1492730,1.039,-0.102,0.118,-30.6,-3.5,-10.2,-7.7,28.5,-10.4,0.0265511032,0.637195959,-0.0495315409,0.768608661
376,943715,1492740,1.043,-0.098,0.114,-30.8,-2.8,-10.4,-7.7,28.5,-10.4,0.0271004364,0.637256996,-0.049897763,0.768547624
377,945948,1492740,1.039,-0.113,0.114,-31.1,-1.1,-10.5,-8.2,28.5,-13.9,0.0275887326,0.637470626,-0.0505081332,0.768272958
378,948375,1492740,1.039,-0.113,0.114,-31.1,-1.1,-10.5,-8.2,28.5,-13.9,0.0281991028,0.637501144,-0.0508743553,0.768242439
379,952369,1492740,1.043,-0.113,0.118,-31.2,-0.2,-10.6,-8.2,28.5,-13.9,0.0288094729,0.637501144,-0.0512405774,0.768181402
380,953808,1492750,1.039,-0.129,0.11,-31.4,0.6,-10.9,-8.2,28.5,-13.9,0.0294198431,0.637470626,-0.0516067995,0.768150884
381,957076,1492750,1.039,-0.137,0.114,-31.5,1.4,-11.2,-8.2,28.2,-12.1,0.0300302133,0.637440107,-0.0520035401,0.768120365
382,959334,1492750,1.039,-0.141,0.114,-31.5,2.3,-11.4,-8.2,28.2,-12.1,0.0306405835,0.63737907,-0.0523697623,0.768120365
383,962256,1492750,1.039,-0.149,0.11,-31.4,3.3,-11.6,-8.2,28.2,-12.1,0.0312814722,0.637318033,-0.0527054659,0.768120365
384,964359,1492760,1.039,-0.16,0.106,-31.4,4.3,-12,-8.2,28.2,-12.1,0.0319528794,0.637256996,-0.053071688,0.768150884
385,965805,1492760,1.047,-0.172,0.106,-31.4,5.4,-12.4,-8.7,28.5,-11.8,0.0326242866,0.637134922,-0.0534379101,0.768181402
386,968751,1492760,1.046,-0.184,0.102,-31.4,6.5,-12.9,-8.7,28.5,-11.8,0.0332346568,0.637043367,-0.0537430952,0.768211921
387,972078,1492760,1.046,-0.203,0.102,-31.4,7.6,-13.4,-8.7,28.5,-11.8,0.0339365825,0.636890774,-0.0541093173,0.768272958
388,973946,1492770,1.046,-0.203,0.098,-31.4,8.7,-13.9,-8.7,28.5,-11.8,0.0346385083,0.636738182,-0.0544450209,0.768333995
389,977219,1492770,1.058,-0.219,0.094,-31.2,9.6,-14.1,-8.4,28.4,-12,0.0353099155,0.636585589,-0.0547196875,0.76842555
390,979551,1492770,1.062,-0.235,0.094,-31.1,10.5,-14.2,-8.4,28.4,-12,0.0360118412,0.63637196,-0.0550553911,0.768517106
391,981325,1492770,1.07,-0.247,0.098,-30.9,11.2,-14.2,-8.4,28.4,-12,0.0366527299,0.636188849,-0.0553910947,0.76863918
392,984463,1492780,1.07,-0.262,0.098,-30.7,12,-14.4,-8.4,28.4,-12,0.0373546556,0.635975219,-0.0556962798,0.768761254
393,985793,1492780,1.074,-0.266,0.102,-30.7,12.9,-14.8,-8.9,28.6,-12.5,0.0380565813,0.635761589,-0.0560014649,0.768883328
394,988779,1492780,1.074,-0.274,0.098,-31,14.2,-15.3,-8.9,28.6,-12.5,0.038758507,0.635517441,-0.0562761315,0.76903592
395,992070,1492780,1.077,-0.29,0.109,-31.6,15.3,-15.7,-8.9,28.6,-12.5,0.0394909513,0.635242775,-0.0565813166,0.769188513
396,993823,1492790,1.085,-0.302,0.101,-32.4,16.3,-15.9,-8.9,28.6,-12.5,0.0402233955,0.634968108,-0.0568865017,0.769371624
397,996972,1492790,1.085,-0.321,0.101,-33.7,16.9,-16,-8.4,28.6,-11.6,0.0409863582,0.634662923,-0.0572222053,0.769554735
398,999098,1492790,1.101,-0.353,0.101,-35.2,17.4,-16.1,-8.4,28.6,-11.6,0.041749321,0.634357738,-0.0575884274,0.769737846
399,1001365,1492790,1.108,-0.365,0.105,-36.8,17.9,-16.2,-8.4,28.6,-11.6,0.0425733207,0.634052553,-0.0579546495,0.769920957
400,1003620,1492800,1.108,-0.376,0.101,-37.9,18.6,-16.5,-8.4,28.6,-11.6,0.0433973205,0.633716849,-0.0583513901,0.770104068
401,1006501,1492800,1.112,-0.392,0.105,-38.5,19.8,-17,-8.3,28.6,-11.4,0.0442213202,0.633381146,-0.0587481307,0.770317698
402,1009514,1492800,1.112,-0.416,0.109,-38.5,21.4,-17.4,-8.3,28.6,-11.4,0.0450758385,0.632984405,-0.0591143529,0.770500809
403,1011037,1492800,1.112,-0.431,0.109,-38.3,23.4,-17.4,-8.3,28.6,-11.4,0.0459303568,0.632587664,-0.0595110935,0.770805994
404,1013391,1492810,1.108,-0.435,0.117,-37.9,25.4,-17.1,-8.3,28.6,-11.4,0.046784875,0.632129887,-0.0598467971,0.77108066
405,1016937,1492810,1.096,-0.454,0.117,-37.7,27.3,-16.9,-8.5,28.9,-11.6,0.0476393933,0.631672109,-0.0602435377,0.771385846
406,1018906,1492810,1.089,-0.466,0.121,-37.8,29.1,-16.5,-8.5,28.9,-11.6,0.048463393,0.631153294,-0.0606402783,0.771721549
407,1022326,1492810,1.081,-0.481,0.121,-38.3,30.6,-16,-8.5,28.9,-11.6,0.0493179113,0.63063448,-0.061037019,0.772087771
408,1024358,1492820,1.081,-0.505,0.114,-39.3,31.8,-15.6,-8.5,28.9,-11.6,0.0501419111,0.630054628,-0.0614337596,0.772453993
409,1025737,1492820,1.042,-0.492,0.13,-40.6,32.8,-15.4,-8.5,28.9,-11.4,0.0510269478,0.629474776,-0.0618610187,0.772820215
410,1029636,1492820,1.022,-0.492,0.13,-41.9,33.8,-15.2,-8.5,28.9,-11.4,0.0518814661,0.628894925,-0.0623493149,0.773216956
411,1031051,1492820,1.014,-0.504,0.134,-43.5,34.6,-14.8,-8.5,28.9,-11.4,0.0527665029,0.628284555,-0.062837611,0.773613697
412,1034349,1492830,1.026,-0.531,0.134,-46,34.6,-13.7,-8.5,28.9,-11.4,0.0537125767,0.627643666,-0.0633869442,0.774010437
413,1036012,1492830,1.022,-0.582,0.134,-50,33.9,-12,-8.6,28.9,-11,0.054628132,0.627033296,-0.0640278329,0.774407178
414,1039189,1492830,1.037,-0.621,0.134,-54.9,32.5,-10,-8.6,28.9,-11,0.0556047243,0.626422926,-0.0647602771,0.774742882
415,1042148,1492830,1.045,-0.672,0.13,-59.6,31.4,-8.6,-8.6,28.9,-11,0.0566118351,0.625843074,-0.0656147954,0.775078585
416,1043831,1492840,1.119,-0.842,0.106,-62.9,31.1,-8.5,-8.6,28.9,-11,0.0576494644,0.625263222,-0.0664998321,0.775414289
417,1045899,1492840,1.119,-0.857,0.117,-62.8,32.3,-10.4,-8.8,28.9,-9.7,0.0587481307,0.624652852,-0.0674153874,0.775749992
418,1048689,1492840,1.119,-0.873,0.125,-58.1,35.6,-14.6,-8.8,28.9,-9.7,0.0598467971,0.623981445,-0.0681478317,0.776116214
419,1052101,1492840,1.107,-0.865,0.141,-48.7,40.8,-20.2,-8.8,28.9,-9.7,0.0608844264,0.623249001,-0.0686361278,0.776573992
420,1054206,1492850,1.103,-0.876,0.184,-36.8,46.8,-25.1,-8.8,28.9,-9.7,0.0618915372,0.622455519,-0.0688497574,0.777123325
421,1057001,1492850,1.099,-0.899,0.192,-25.5,52.4,-27.7,-8.8,27.9,-11.3,0.062776574,0.621570482,-0.0688497574,0.777764214
422,1058501,1492850,1.103,-0.915,0.2,-17.4,56.3,-28.1,-8.8,27.9,-11.3,0.0635700552,0.620624409,-0.0686971648,0.77846614
423,1061343,1492850,1.103,-0.946,0.208,-13.3,58.6,-27.1,-8.8,27.9,-11.3,0.064333018,0.619647816,-0.0684530168,0.779198584
424,1064457,1492860,1.111,-1.005,0.22,-12.7,59.2,-26.1,-8.8,27.9,-11.3,0.0650349437,0.618671224,-0.0682393872,0.779961547
425,1065832,1492860,1.111,-1.052,0.224,-13.9,59.1,-25.5,-8.5,28.1,-11.4,0.0657368694,0.617664113,-0.0680562761,0.780693991
426,1068837,1492860,1.099,-1.083,0.224,-15.7,58.6,-25,-8.5,28.1,-11.4,0.0664693136,0.616687521,-0.0679036836,0.781426435
427,1071899,1492860,1.103,-1.149,0.232,-17,58.2,-24.5,-8.5,28.1,-11.4,0.0672017579,0.615710929,-0.0677816095,0.782128361
428,1073254,1492870,1.103,-1.181,0.224,-17.4,58,-23.6,-8.5,28.1,-11.4,0.0679342021,0.614734336,-0.0676595355,0.782860805
429,1076398,1492870,1.114,-1.212,0.228,-16.5,57.5,-22.5,-9.2,27.4,-11.5,0.0686056093,0.613757744,-0.06756798,0.783562731
430,1079463,1492870,1.122,-1.247,0.224,-14.1,56.4,-21.2,-9.2,27.4,-11.5,0.069246498,0.612781152,-0.0674459059,0.784264657
431,1080994,1492870,1.091,-1.266,0.224,-10.4,54.8,-19.8,-9.2,27.4,-11.5,0.0697958312,0.611865596,-0.0672627949,0.784966582
432,1083864,1492880,1.102,-1.31,0.22,-5.9,52.7,-17.9,-9.2,27.4,-11.5,0.0702841273,0.61098056,-0.0670491653,0.785637989
433,1086810,1492880,1.114,-1.353,0.216,-1.3,50.2,-15.6,-8.6,27.3,-10.9,0.0706198309,0.61015656,-0.0667744987,0.786278878
434,1088472,1492880,1.094,-1.356,0.213,3.5,47.3,-13.1,-8.6,27.3,-10.9,0.0708944975,0.609363079,-0.0664693136,0.786889248
435,1091397,1492880,1.109,-1.431,0.213,8.5,44.3,-11.2,-8.6,27.3,-10.9,0.0710165716,0.608630634,-0.0661030915,0.7874691
436,1094843,1492890,1.144,-1.475,0.2,14.5,42,-10,-8.6,27.3,-10.9,0.0710776086,0.607928709,-0.0656758324,0.788048952
437,1097124,1492890,1.125,-1.513,0.201,21.5,41.1,-9.1,-8.7,29.2,-9.9,0.070986053,0.60728782,-0.0650959807,0.788598285
438,1099401,1492890,1.121,-1.537,0.193,30.2,42.3,-8,-8.7,29.2,-9.9,0.070802942,0.606616413,-0.0644245735,0.789178137
439,1101459,1492890,1.101,-1.552,0.178,40.4,45.4,-5.9,-8.7,29.2,-9.9,0.0704062014,0.605883969,-0.0635700552,0.789849544
440,1103650,1492900,1.074,-1.556,0.174,51.4,49.9,-2.6,-8.7,29.2,-9.9,0.0698568682,0.605121006,-0.0625629444,0.790551469
441,1106859,1492900,1.046,-1.563,0.167,62.4,54.8,1.8,-8.7,27.8,-12.4,0.0690633869,0.604266488,-0.0614337596,0.791375469
442,1108936,1492900,0.995,-1.582,0.152,72.6,59.3,7,-8.7,27.8,-12.4,0.0680867946,0.603320414,-0.0601825007,0.792260506
443,1111094,1492900,0.972,-1.581,0.141,81.7,62.4,12.2,-8.7,27.8,-12.4,0.0668660543,0.602343822,-0.0588396863,0.79320658
444,1114538,1492910,0.948,-1.593,0.126,89.9,64.2,16.9,-8.7,27.8,-12.4,0.0654622028,0.601367229,-0.0574053163,0.794183172
445,1116055,1492910,0.905,-1.596,0.099,97.5,64.8,21,-8.6,27.6,-12.6,0.0639057588,0.6003296,-0.0559099094,0.795190283
446,1120174,1492910,0.893,-1.588,0.08,105.2,64.7,24.9,-8.6,27.6,-12.6,0.0621662038,0.599322489,-0.0543229469,0.796197394
447,1122458,1492910,0.874,-1.572,0.065,113.1,64.3,28.8,-8.6,27.6,-12.6,0.0602740562,0.598345897,-0.0526444288,0.797204505
448,1124506,1492920,0.815,-1.521,0.042,121.2,63.6,32.9,-8.6,27.6,-12.6,0.0581987976,0.597338786,-0.0508743553,0.798211615
449,1125923,1492920,0.694,-1.421,0.013,128.7,61.9,37,-8.1,27.7,-13.1,0.0559404279,0.596392712,-0.0490432447,0.799218726
450,1128412,1492920,0.702,-1.406,-0.006,134.3,57.9,40.9,-8.1,27.7,-13.1,0.0534989471,0.595477157,-0.0471510971,0.8001648
451,1132028,1492920,0.718,-1.398,-0.018,137,50.4,44.1,-8.1,27.7,-13.1,0.0510269478,0.594714194,-0.0452894681,0.8009888
452,1134521,1492930,0.76,-1.411,-0.046,136.6,39.4,46.1,-8.1,27.7,-13.1,0.0484939116,0.594134342,-0.0434583575,0.801690725
453,1136360,1492930,0.869,-1.429,-0.107,135.2,26.5,46.3,-7.4,27.4,-13.9,0.0459303568,0.59376812,-0.0416577654,0.80220954
454,1138499,1492930,0.912,-1.425,-0.131,135.1,14.5,45.4,-7.4,27.4,-13.9,0.043427839,0.593615528,-0.0398266549,0.802575762
455,1141572,1492930,0.936,-1.41,-0.143,138.6,5.4,45,-7.4,27.4,-13.9,0.0408032472,0.593585009,-0.0379955443,0.802789392
456,1143327,1492940,0.99,-1.392,-0.168,146.1,0,47.1,-7.4,27.4,-13.9,0.0381176183,0.593676565,-0.0360728782,0.802941984
457,1147739,1492940,0.994,-1.357,-0.176,156.7,-2.2,53.2,-7.2,28.4,-13.3,0.0351573229,0.593798639,-0.033967101,0.803094577
458,1150212,1492940,1.01,-1.322,-0.18,168.7,-2.1,63.7,-7.2,28.4,-13.3,0.0318613239,0.593920713,-0.0318918424,0.803216651
459,1152677,1492940,1.002,-1.306,-0.2,180.3,-0.9,77.5,-7.2,28.4,-13.3,0.0281685842,0.594012268,-0.0297250282,0.803399762
460,1155211,1492950,0.971,-1.212,-0.211,190.5,0.5,91.9,-7.2,28.4,-13.3,0.0240485855,0.594042787,-0.0275887326,0.803582873
461,1157078,1492950,0.979,-1.185,-0.227,199.4,1.7,104.9,-6.9,27.7,-14.9,0.0196539201,0.594042787,-0.0253913999,0.803765984
462,1159720,1492950,1.018,-1.178,-0.255,207,2,115.4,-6.9,27.7,-14.9,0.0149540696,0.594042787,-0.0232856227,0.803949095
463,1161495,1492950,1.061,-1.171,-0.275,213.7,1.2,123.4,-6.9,27.7,-14.9,0.0100100711,0.594012268,-0.0211188086,0.804101688
464,1164737,1492960,1.112,-1.09,-0.292,220,0.1,129.2,-6.9,27.7,-14.9,0.00488296152,0.59398175,-0.0189214759,0.804223762
465,1166842,1492960,1.139,-1.067,-0.289,226.7,-0.1,133.7,-6.1,27.7,-16,0.000366222114,-0.593951231,0.0167241432,-0.804315317
466,1168767,1492960,1.155,-1.024,-0.285,234.1,0.2,138.6,-6.1,27.7,-16,0.00582903531,-0.593890194,0.0144047365,-0.804376354
467,1170952,1492960,1.194,-0.97,-0.29,241.5,0.8,145.8,-6.1,27.7,-16,0.0115054781,-0.59376812,0.0120548112,-0.804437391
468,1174321,1492970,1.21,-0.935,-0.294,247.9,1.1,156.2,-6.1,27.7,-16,0.0174565874,-0.593646046,0.00973540452,-0.80446791
469,1176237,1492970,1.241,-0.908,-0.307,252.7,0.9,168.7,-5.7,27.2,-16.3,0.0236823634,-0.593493454,0.00747703482,-0.804437391
470,1178654,1492970,1.28,-0.882,-0.311,256.2,0.8,182.4,-5.7,27.2,-16.3,0.0302133244,-0.593279824,0.00534073916,-0.804376354
471,1180997,1492970,1.253,-0.799,-0.334,259,1.2,195.8,-5.7,27.2,-16.3,0.037018952,-0.593066195,0.00332651753,-0.804284799
472,1183536,1492980,1.269,-0.768,-0.343,261.7,2.3,208.5,-5.7,27.2,-16.3,0.0440687277,-0.59276101,0.00143436995,-0.804132206
473,1187715,1492980,1.28,-0.741,-0.358,263.9,3.7,221.3,-4.4,27.2,-17.6,0.0513626514,-0.592425306,-0.000305185095,-0.803949095
474,1190535,1492980,1.28,-0.687,-0.406,265.1,4.7,234.4,-4.4,27.2,-17.6,0.0588702048,-0.592028565,-0.0019226661,-0.803735466
475,1190819,1492980,1.284,-0.675,-0.429,264.7,4.9,247.9,-4.4,27.2,-17.6,0.0666524247,-0.591601306,-0.00332651753,-0.80343028
476,1193456,1492990,1.288,-0.652,-0.457,262.8,4.4,260.7,-4.4,27.2,-17.6,0.0746177557,-0.591143529,-0.00457777642,-0.803064058
477,1196932,1492990,1.28,-0.589,-0.492,260.6,3.3,272,-2.7,25.9,-18.5,0.0827356792,-0.590655232,-0.00561540574,-0.802606281
478,1198793,1492990,1.276,-0.558,-0.508,259,1.5,281.1,-2.7,25.9,-18.5,0.0910061953,-0.590166936,-0.00653096103,-0.802056948
479,1201233,1492990,1.28,-0.527,-0.527,259.2,-0.9,288.2,-2.7,25.9,-18.5,0.0993682669,-0.589709159,-0.00735496078,-0.801416059
480,1203555,1493000,1.303,-0.508,-0.539,261.4,-4.7,293.6,-2.7,25.9,-18.5,0.107882931,-0.589251381,-0.00817896054,-0.800653096
481,1206521,1493000,1.335,-0.462,-0.552,265.9,-9.8,298.3,-1.4,25.7,-19.2,0.116489151,-0.588824122,-0.0090029603,-0.799737541
482,1208772,1493000,1.409,-0.389,-0.569,272.8,-15.6,302.9,-1.4,25.7,-19.2,0.125278481,-0.588427381,-0.00991851558,-0.798699911
483,1210997,1493000,1.437,-0.342,-0.558,281.8,-21.4,308.3,-1.4,25.7,-19.2,0.134250923,-0.588091678,-0.0109256264,-0.797479171
484,1214282,1493010,1.468,-0.272,-0.539,292.3,-26.5,314.3,-1.4,25.7,-19.2,0.143467513,-0.587725455,-0.0120548112,-0.796105838
485,1215793,1493010,1.519,-0.25,-0.552,303.6,-30.6,320.4,-0.6,24.9,-20.4,0.152928251,-0.587389752,-0.0133060701,-0.794579913
486,1219045,1493010,1.543,-0.219,-0.544,315.7,-33.7,325.9,-0.6,24.9,-20.4,0.162602618,-0.586962493,-0.0147099216,-0.792931913
487,1221231,1493010,1.55,-0.211,-0.545,328.7,-35.8,330.2,-0.6,24.9,-20.4,0.172490616,-0.586504715,-0.0162968841,-0.79116184
488,1224374,1493020,1.574,-0.173,-0.537,342.6,-36.9,332.6,-0.6,24.9,-20.4,0.182592242,-0.585924863,-0.0180669576,-0.789269692
489,1225991,1493020,1.613,-0.087,-0.519,356.8,-36.8,332.7,0.7,23.5,-21.7,0.19287698,-0.585253456,-0.0201422163,-0.787285989
490,1228784,1493020,1.649,-0.014,-0.504,369.1,-35.3,330.8,0.7,23.5,-21.7,0.203222755,-0.584429456,-0.022400586,-0.785241249
491,1230927,1493020,1.661,0.005,-0.5,377,-32.3,328.4,0.7,23.5,-21.7,0.213629566,-0.583422346,-0.0247810297,-0.783135472
492,1233989,1493030,1.68,0.032,-0.504,378.3,-27.9,326.7,0.7,23.5,-21.7,0.22400586,-0.582293161,-0.0272225105,-0.780999176
493,1236536,1493030,1.716,0.086,-0.529,372.8,-22,326.4,1.5,22.1,-22.8,0.234290597,-0.580980865,-0.0295419172,-0.77886288
494,1238365,1493030,1.723,0.148,-0.541,361.7,-14.3,327.4,1.5,22.1,-22.8,0.244422742,-0.579577013,-0.0316171758,-0.776726585
495,1241531,1493030,1.735,0.175,-0.572,346.5,-4.3,329.2,1.5,22.1,-22.8,0.254371776,-0.577990051,-0.0333567309,-0.774651326
496,1243700,1493040,1.68,0.172,-0.626,328.5,8.5,332.3,1.5,22.1,-22.8,0.264107181,-0.576219977,-0.0346690268,-0.772637104
497,1246993,1493040,1.684,0.199,-0.661,308.4,24.5,337.3,1.5,22.1,-22.8,0.273689993,-0.574266793,-0.0354930265,-0.770714438
498,1249380,1493040,1.641,0.258,-0.688,286.7,42.8,344.1,1.5,22.1,-22.8,0.283089694,-0.57206946,-0.0357371746,-0.768944365
499,1251381,1493040,1.621,0.262,-0.731,262.7,62.9,352.4,1.5,22.1,-22.8,0.292306284,-0.569627979,-0.0353709525,-0.767296365
500,1253799,1493050,1.652,0.328,-0.771,235.2,83.9,361.8,1.5,22.1,-22.8,0.301339763,-0.567003388,-0.0342722861,-0.765831477
501,1255926,1493050,1.672,0.261,-0.779,205.5,103.8,372.2,3.3,21,-23.9,0.310159612,-0.564165166,-0.0324106571,-0.764488662
502,1260274,1493050,1.723,0.26,-0.744,177.7,118.7,382.6,3.3,21,-23.9,0.31879635,-0.561204871,-0.0298776208,-0.763176366
503,1262496,1493050,1.668,0.301,-0.732,157.5,124.1,391.4,3.3,21,-23.9,0.327311014,-0.558275094,-0.0268257698,-0.761833552
504,1264544,1493060,1.531,0.209,-0.827,146.9,117.6,397.2,3.3,21,-23.9,0.335764641,-0.555497909,-0.0235602893,-0.760307627
505,1267075,1493060,1.375,0.293,-0.863,143,100.8,400.5,5.1,19.8,-24.2,0.34418775,-0.552934355,-0.0203558458,-0.758507035
506,1268754,1493060,1.308,0.365,-0.858,136,78.2,403.7,5.1,19.8,-24.2,0.352519303,-0.550798059,-0.0171514023,-0.756309702
507,1271026,1493060,1.324,0.232,-0.792,117.3,55.2,408.9,5.1,19.8,-24.2,0.360698263,-0.549089022,-0.0137638478,-0.753776666
508,1275113,1493070,1.324,0.24,-0.721,87.7,37,415.9,5.1,19.8,-24.2,0.368572039,-0.547898801,-0.00991851558,-0.750877407
509,1277371,1493070,1.282,0.21,-0.685,58.1,28.7,422.2,6,19.2,-24.6,0.376171148,-0.547013764,-0.00561540574,-0.747764519
510,1279563,1493070,1.161,0.153,-0.632,38.9,31.1,426.2,6,19.2,-24.6,0.383587146,-0.546220283,-0.000885036775,-0.744621113
511,1281551,1493070,1.079,0.085,-0.47,31.8,38.5,426.7,6,19.2,-24.6,0.390881069,-0.545335246,0.00396740623,-0.741477706
512,1283752,1493080,1.056,0.004,-0.364,32.4,40.1,422.6,6,19.2,-24.6,0.398083438,-0.544328135,0.00881984924,-0.738303781
513,1286074,1493080,1.134,-0.117,-0.279,37.3,27.6,412.3,7.2,18.6,-24.1,0.405133213,-0.543473617,0.0133365886,-0.735038301
514,1288518,1493080,1.272,-0.072,-0.219,46.9,2.1,396.2,7.2,18.6,-24.1,0.412030396,-0.542893765,0.0173039949,-0.731528672
515,1290703,1493080,1.265,0.126,-0.18,62.7,-25.6,378.3,7.2,18.6,-24.1,0.418805506,-0.542558061,0.0205694754,-0.727835932
516,1293482,1493090,1.37,0.179,-0.213,81.8,-42.6,365.8,7.2,18.6,-24.1,0.425611133,-0.542313913,0.0231940672,-0.7239906
517,1296457,1493090,0.999,0.045,-0.139,97.1,-42.5,364.7,7.2,18.6,-24.1,0.432508316,-0.541886654,0.0255745109,-0.720145268
518,1299482,1493090,1.022,-0.118,-0.12,103.2,-32.3,373.2,7.2,18.6,-24.1,0.439619129,-0.541184729,0.0280770287,-0.716269417
519,1300918,1493090,1.138,-0.355,-0.149,103.3,-26.8,379.1,7.2,18.6,-24.1,0.44676046,-0.540360729,0.0306405835,-0.71233253
520,1304022,1493100,1.172,-0.59,-0.196,108.3,-35.7,369,7.2,18.6,-24.1,0.453779717,-0.539597766,0.0329905087,-0.708365123
521,1307087,1493100,1.203,-0.837,-0.181,129.6,-56.3,339.9,9.4,16.4,-25.3,0.460585345,-0.538926359,0.0344248787,-0.704428236
522,1308662,1493100,1.161,-0.831,-0.039,171,-77.8,301.4,9.4,16.4,-25.3,0.467268899,-0.538163396,0.0345469527,-0.700582904
523,1310958,1493100,1.008,-0.802,-0.181,221.8,-94,268.8,9.4,16.4,-25.3,0.474044008,-0.537095248,0.0333567309,-0.696890164
524,1313539,1493110,0.901,-0.915,-0.418,261,-106.4,251.2,9.4,16.4,-25.3,0.480941191,-0.535813471,0.0312509537,-0.693197424
525,1316772,1493110,1.276,-0.8,0.295,270.8,-120.4,248,9.3,15,-25.7,0.487960448,-0.534623249,0.0287789544,-0.689352092
526,1318322,1493110,2.108,-0.573,1.633,246.2,-139.6,251.9,9.3,15,-25.7,0.494705039,-0.533921323,0.0264900662,-0.685171056
527,1321161,1493110,3.915,-0.481,2.672,194.1,-163.7,254.8,9.3,15,-25.7,0.500839259,-0.534104434,0.0247810297,-0.68059328
528,1324283,1493120,7.064,-0.837,3.018,123.9,-195,253,9.3,15,-25.7,0.50614948,-0.535508286,0.0238044374,-0.675618763
529,1325766,1493120,7.981,-1.627,-0.157,44.2,-252,250.2,9,14.2,-26.3,0.510452589,-0.538590655,0.0232856227,-0.669911802
530,1328788,1493120,7.989,-0.657,-1.404,-30.2,-358.5,257.5,9,14.2,-26.3,0.514023255,-0.543992431,0.0227668081,-0.66277047
531,1331812,1493120,7.994,0.843,-1.336,-63.3,-495.9,282.2,9,14.2,-26.3,0.517563402,-0.551683096,0.0214545122,-0.653645436
532,1333193,1493130,6.894,2.489,-2.619,0.3,-591.4,311,9,14.2,-26.3,0.522232734,-0.559923093,0.0185247353,-0.642933439
533,1337207,1493130,3.224,6.059,-5.81,209,-578.5,306.6,7.3,12.4,-27.1,0.529251991,-0.565477462,0.0127262185,-0.632404553
534,1339427,1493130,2.095,7.43,-6.681,564.9,-458.3,227.2,7.3,12.4,-27.1,0.539414655,-0.56511124,0.00244148076,-0.624195074
535,1340831,1493130,0.644,7.92,-7.218,1019.2,-275.9,54.1,7.3,12.4,-27.1,0.552598651,-0.55671865,-0.0139774773,-0.620044557
536,1343236,1493140,-1.768,7.972,-5.075,1469.4,-68.5,-196,7.3,12.4,-27.1,0.567461165,-0.539597766,-0.0370494705,-0.62080752
537,1346857,1493140,-2.322,7.996,-2.277,1811.3,149,-471.3,7.3,12.4,-27.1,0.582049013,-0.51432844,-0.0652485733,-0.626392407
538,1348260,1493140,-2.281,8.011,0.838,1942.1,360.1,-695,7.3,12.4,-27.1,0.594256417,-0.483230079,-0.094943083,-0.635853145
539,1352267,1493140,-2.531,8.032,4.178,1793.9,528.1,-797.2,7.3,12.4,-27.1,0.602618488,-0.450514237,-0.121280557,-0.647389142
540,1353867,1493150,-1.631,6.808,3.169,1352.4,598,-752.4,7.3,12.4,-27.1,0.606433302,-0.422009949,-0.13983581,-0.659169286
541,1355891,1493150,-1.624,5.857,2.184,707.9,539,-596.3,9.5,2,-27.8,0.605883969,-0.402966399,-0.148319956,-0.669667653
542,1358295,1493150,-1.526,4.751,0.889,29.1,373,-400.9,9.5,2,-27.8,0.601428266,-0.395794549,-0.147343364,-0.678121281
543,1362741,1493150,-1.04,2.833,-0.549,-515.7,172.4,-234.3,9.5,2,-27.8,0.594012268,-0.399243141,-0.139469588,-0.684286019
544,1365165,1493160,-0.812,2.004,-0.591,-841.1,4.9,-134,9.5,2,-27.8,0.584612568,-0.409588916,-0.127994629,-0.688467055
545,1367383,1493160,-0.662,1.33,-0.483,-949.8,-95.8,-102.9,9.2,6.6,-27.7,0.574175237,-0.422772912,-0.115817743,-0.691457869
546,1369567,1493160,-0.51,0.918,-0.336,-905.6,-132,-121.7,9.2,6.6,-27.7,0.563554796,-0.43571276,-0.104922636,-0.693929868
547,1371487,1493160,-0.269,0.211,-0.143,-792.4,-127.9,-165.6,9.2,6.6,-27.7,0.553117466,-0.446943571,-0.0960417493,-0.696432386
548,1373805,1493170,-0.101,-0.071,-0.017,-679.4,-111.5,-215.8,9.2,6.6,-27.7,0.542924284,-0.456312754,-0.0891750847,-0.699301126
549,1375918,1493170,0.062,-0.202,0.089,-605.7,-102.8,-263.4,8.8,9.6,-27.8,0.532609027,-0.464491714,-0.0837733085,-0.70250557
550,1379389,1493170,0.25,-0.35,0.203,-583.5,-110.9,-304.8,8.8,9.6,-27.8,0.521744438,-0.47236549,-0.0791955321,-0.705893124
551,1380801,1493170,0.518,-0.69,0.203,-606.5,-135.1,-338.6,8.8,9.6,-27.8,0.509994812,-0.480727561,-0.0748619037,-0.709341716
552,1383855,1493180,0.578,-1.118,0.042,-661.6,-169.3,-362.1,8.8,9.6,-27.8,0.497116001,-0.490035707,-0.0702841273,-0.712576678
553,1386220,1493180,0.8,-1.309,0.058,-732.5,-205.6,-374.7,7.7,14.2,-27.1,0.483046968,-0.500534074,-0.0651264992,-0.715445418
554,1388347,1493180,1.14,-1.97,0.327,-806,-236.4,-375.6,7.7,14.2,-27.1,0.467940306,-0.51207007,-0.0591143529,-0.717795343
555,1392595,1493180,1.616,-2.321,0.553,-874.9,-256.5,-366.2,7.7,14.2,-27.1,0.452009644,-0.524399548,-0.0521256142,-0.719656972
556,1394367,1493190,2.324,-3.056,0.475,-943.6,-262.7,-344.4,7.7,14.2,-27.1,0.435377056,-0.537339396,-0.0438245796,-0.720938749
557,1397655,1493190,4.979,-6.439,-1.212,-1022.6,-257.8,-301.6,7.7,14.2,-27.1,0.418286691,-0.550675985,-0.033722953,-0.72154912
558,1399308,1493190,5.524,-8.14,-2.757,-1118.1,-256.4,-218.6,7.7,14.2,-27.1,0.401074252,-0.564561907,-0.02108829,-0.721030305
559,1400758,1493190,4.64,-8.13,-3.696,-1207.4,-281.2,-74.8,7.7,14.2,-27.1,0.384746849,-0.579302347,-0.0054628132,-0.718527787
560,1404578,1493200,3.197,-8.1,-3.278,-1224.7,-337.5,122.4,7.7,14.2,-27.1,0.37101352,-0.594683676,0.0124210334,-0.713095492
561,1405904,1493200,1.979,-8.06,-1.838,-1092.3,-397.1,321.8,7.2,21.4,-23,0.36179693,-0.609393597,0.0303659169,-0.704794458
562,1410536,1493200,0.87,-4.88,1.304,-785.9,-417,452.5,7.2,21.4,-23,0.358531449,-0.621570482,0.045167394,-0.694998016
563,1410949,1493200,0.851,-3.431,1.889,-374.5,-377.7,480.5,7.2,21.4,-23,0.361064486,-0.629688406,0.0544145024,-0.685659352
564,1414914,1493210,1.045,-2.57,1.911,19.6,-292.8,431.6,7.2,21.4,-23,0.368114261,-0.633350627,0.0577410199,-0.678212836
565,1417084,1493210,1.654,-1.763,1.331,299.9,-187.8,361.9,7.3,19.7,-23.9,0.377819147,-0.633228553,0.0567949461,-0.673055208
566,1418926,1493210,1.673,-1.425,1.009,441.6,-81.2,313.9,7.3,19.7,-23.9,0.3886227,-0.630359813,0.0539567248,-0.669820246
567,1421220,1493210,1.698,-1.208,0.612,477.8,14.9,299.1,7.3,19.7,-23.9,0.399517808,-0.625690481,0.0512100589,-0.668019654
568,1423475,1493220,1.713,-0.933,0.279,477.8,14.9,299.1,7.3,19.7,-23.9,0.410351878,-0.620899075,0.048463393,-0.666096988
569,1426053,1493220,1.758,-0.631,-0.223,458.8,91.5,307.2,8.6,18,-24.7,0.420911283,-0.615100558,0.0467543565,-0.66502884
570,1428155,1493220,1.813,-0.356,-0.397,424.1,141.3,321.4,8.6,18,-24.7,0.431073946,-0.608783227,0.0462355419,-0.664357433
571,1432735,1493220,1.844,-0.087,-0.527,396.4,162.9,328.3,8.6,18,-24.7,0.440900906,-0.602313303,0.0463576159,-0.663777581
572,1434878,1493230,1.844,0.146,-0.59,384.3,160,322.4,8.6,18,-24.7,0.4504532,-0.595934935,0.0465712455,-0.663136692
573,1437090,1493230,1.632,0.529,-0.446,388.1,139.6,304.5,9.8,15.8,-25.7,0.459730827,-0.589770196,0.0462965789,-0.662312693
574,1439479,1493230,1.48,0.665,-0.302,401.8,108.5,278.7,9.8,15.8,-25.7,0.468794824,-0.583849605,0.045167394,-0.661275063
575,1441331,1493230,1.384,0.805,-0.121,418.1,71.4,248.2,9.8,15.8,-25.7,0.477584155,-0.578264718,0.0430005799,-0.660023804
576,1443613,1493240,1.153,1.096,0.313,431.3,31.3,214.6,9.8,15.8,-25.7,0.4860683,-0.573076571,0.0398266549,-0.658528397
577,1446861,1493240,1.041,1.122,0.499,433.8,-40.4,143.1,9.8,15.8,-25.7,0.493575854,-0.568895535,0.0349436934,-0.656849879
578,1448632,1493240,0.925,1.18,0.677,433.8,-40.4,143.1,9.8,15.8,-25.7,0.50102237,-0.564683981,0.0300912503,-0.655110324
579,1451677,1493240,0.868,1.236,0.823,417.3,-60.4,110.5,9.8,15.8,-25.7,0.507736442,-0.560869167,0.0247810297,-0.653401288
580,1454541,1493250,0.681,1.26,0.94,386.7,-64.6,82.5,9.8,15.8,-25.7,0.513657033,-0.557451094,0.0195928831,-0.651875362
581,1455977,1493250,0.606,1.218,0.922,343.9,-53.9,58.9,10.1,13.4,-26.5,0.518692587,-0.554307688,0.0148014771,-0.650685141
582,1458889,1493250,0.517,1.215,0.9,292.7,-31.2,38.4,10.1,13.4,-26.5,0.522782067,-0.551438948,0.0107730338,-0.649952696
583,1461182,1493250,0.359,1.088,0.747,237.4,-1.7,19.5,10.1,13.4,-26.5,0.525925474,-0.5487228,0.00762962737,-0.649769585
584,1465309,1493260,0.26,0.988,0.647,181.6,28.7,0.6,10.1,13.4,-26.5,0.528092288,-0.546250801,0.00537125767,-0.650135807
585,1467074,1493260,0.267,0.78,0.506,128.4,54.8,-19.5,10.6,13.2,-26.3,0.529343547,-0.543992431,0.00396740623,-0.651020844
586,1468538,1493260,0.358,0.445,0.329,79.8,72.2,-40.5,10.6,13.2,-26.3,0.529709769,-0.542039247,0.00317392499,-0.652363659
587,1471398,1493260,0.634,0.069,0.207,39,78.9,-61.3,10.6,13.2,-26.3,0.52928251,-0.540452284,0.00280770287,-0.65398114
588,1473886,1493270,0.712,0.029,0.249,11.7,76.6,-80.4,10.6,13.2,-26.3,0.528275399,-0.539231544,0.0025635548,-0.65581225
589,1476097,1493270,0.755,-0.01,0.264,1.4,69.4,-97.9,10.5,13.4,-26.3,0.526871548,-0.538224433,0.00219733268,-0.657765435
590,1479782,1493270,0.782,-0.026,0.279,5.6,60.9,-114.9,10.5,13.4,-26.3,0.525284585,-0.537278359,0.00146488845,-0.659810175
591,1480955,1493270,0.825,-0.129,0.27,14.5,52.7,-132.4,10.5,13.4,-26.3,0.52354503,-0.536362804,0.000305185095,-0.661946471
592,1483971,1493280,0.833,-0.203,0.263,17.6,44,-150.1,10.5,13.4,-26.3,0.521591845,-0.535538804,-0.00115970336,-0.664174322
593,1485962,1493280,0.875,-0.282,0.235,10.3,34.4,-166.6,10.2,13.7,-26.1,0.519272439,-0.534897916,-0.00286873989,-0.66646321
594,1489285,1493280,0.926,-0.392,0.249,-6.1,24.1,-180.2,10.2,13.7,-26.1,0.51658681,-0.53459273,-0.00460829493,-0.668782617
595,1491715,1493280,0.906,-0.446,0.281,-26.8,13.6,-189.5,10.2,13.7,-26.1,0.51350444,-0.534684286,-0.00628681295,-0.671071505
596,1493393,1493290,0.925,-0.533,0.277,-46.3,3.9,-193.5,10.2,13.7,-26.1,0.510116886,-0.535111545,-0.00781273843,-0.673299356
597,1496489,1493290,1.038,-0.632,0.295,-70.7,-13.3,-184,10.2,13.7,-26.1,0.506576739,-0.536057619,-0.00906399731,-0.675191504
598,1498521,1493290,1.035,-0.651,0.338,-70.7,-13.3,-184,10.2,13.7,-26.1,0.503036592,-0.537003693,-0.0103152562,-0.677083651
599,1501533,1493290,1.062,-0.718,0.341,-74.6,-20.9,-170.8,10.2,13.7,-26.1,0.499618519,-0.538071841,-0.0114444411,-0.678701132
600,1503199,1493300,1.066,-0.765,0.365,-74.2,-26.3,-151.5,10.2,13.7,-26.1,0.496505631,-0.539231544,-0.0124210334,-0.680074465
601,1507180,1493300,1.034,-0.823,0.377,-71.2,-27.9,-126,8.6,13.9,-26.2,0.493789483,-0.540391247,-0.0131534776,-0.681112094
602,1509250,1493300,0.964,-0.912,0.379,-66.6,-25.6,-95.4,8.6,13.9,-26.2,0.491561632,-0.541459395,-0.0135502182,-0.681875057
603,1511044,1493300,0.874,-0.84,0.396,-60.5,-20.5,-61.9,8.6,13.9,-26.2,0.489944151,-0.542405469,-0.0136112552,-0.682302316
604,1514779,1493310,0.719,-0.693,0.414,-52.5,-14.1,-27.1,8.6,13.9,-26.2,0.488906522,-0.543168432,-0.0133060701,-0.68242439
605,1516531,1493310,0.566,-0.554,0.343,-45.1,-8,7.2,8.6,14.1,-26.3,0.488479263,-0.543778802,-0.0126346629,-0.682271798
606,1518654,1493310,0.55,-0.557,0.3,-43.5,-3.8,38,8.6,14.1,-26.3,0.488509781,-0.544297617,-0.0115665151,-0.681844539
607,1520832,1493310,0.546,-0.538,0.276,-53.2,-2.9,61.1,8.6,14.1,-26.3,0.488753929,-0.544907987,-0.0100711081,-0.681173132
608,1524974,1493320,0.539,-0.499,0.265,-73.3,-5.6,73.9,8.6,14.1,-26.3,0.489028596,-0.545793023,-0.00817896054,-0.680318613
609,1527030,1493320,0.531,-0.456,0.273,-96.9,-10.4,78.5,8.9,14.7,-26,0.489028596,-0.547013764,-0.00592059084,-0.679372539
610,1529235,1493320,0.551,-0.456,0.272,-116.8,-15.4,79.1,8.9,14.7,-26,0.488814966,-0.548478652,-0.00338755455,-0.678365429
611,1531092,1493320,0.57,-0.429,0.28,-129.5,-19.8,79.3,8.9,14.7,-26,0.488418226,-0.55015717,-0.000732444227,-0.677266762
612,1534694,1493330,0.602,-0.425,0.299,-134.9,-22.9,81,8.9,14.7,-26,0.487990967,-0.551927244,0.00195318461,-0.676137577
613,1536367,1493330,0.629,-0.391,0.306,-134.4,-24.9,83.8,9,15.5,-25.4,0.487624744,-0.553727836,0.00466933195,-0.674947356
614,1538219,1493330,0.653,-0.383,0.321,-129.1,-25.8,86.8,9,15.5,-25.4,0.487319559,-0.555467391,0.00735496078,-0.673696097
615,1541987,1493330,0.696,-0.388,0.312,-121,-25.6,88.6,9,15.5,-25.4,0.487166967,-0.55711539,0.00991851558,-0.672414319
616,1544277,1493340,0.817,-0.37,0.341,-111.5,-24.3,88.5,9,15.5,-25.4,0.48710593,-0.558641316,0.0123905148,-0.671132542
617,1545753,1493340,0.852,-0.34,0.36,-91.3,-16.9,81.7,9,15.5,-25.4,0.487197485,-0.559831538,0.0145268105,-0.670033876
618,1548902,1493340,0.876,-0.324,0.364,-91.3,-16.9,81.7,9,15.5,-25.4,0.487289041,-0.56102176,0.0166936247,-0.668935209
619,1551069,1493340,0.876,-0.301,0.36,-81.2,-10,76.4,9,15.5,-25.4,0.487411115,-0.561998352,0.0186773278,-0.667958617
620,1553256,1493350,0.891,-0.305,0.348,-72.1,-1,71.4,9,15.5,-25.4,0.487563707,-0.562761315,0.0206305124,-0.667165136
621,1555924,1493350,0.922,-0.325,0.351,-64.9,9.4,67.4,9,15.5,-25.3,0.487746818,-0.563280129,0.022461623,-0.666524247
622,1559105,1493350,0.954,-0.329,0.374,-59.1,20.3,64.3,9,15.5,-25.3,0.48792993,-0.563585314,0.0243537706,-0.666066469
623,1561767,1493350,0.946,-0.267,0.402,-53.2,31.1,61.7,9,15.5,-25.3,0.488174078,-0.56367687,0.0262459181,-0.665761284
624,1563375,1493360,0.942,-0.247,0.394,-45.2,41.1,59.2,9,15.5,-25.3,0.488448744,-0.563524277,0.0280465102,-0.665608692
625,1566233,1493360,0.931,-0.235,0.374,-34.9,50,56.8,9.7,15.5,-24.5,0.488814966,-0.563127537,0.0297860652,-0.665608692
626,1568988,1493360,0.927,-0.239,0.374,-24.2,57.2,54.8,9.7,15.5,-24.5,0.489272744,-0.562517167,0.0314340648,-0.665700247
627,1571804,1493360,0.95,-0.251,0.39,-15.9,61.9,53.2,9.7,15.5,-24.5,0.489822077,-0.561754204,0.0329905087,-0.665883358
628,1573240,1493370,0.958,-0.279,0.401,-11.6,63.1,51.5,9.7,15.5,-24.5,0.49037141,-0.560899686,0.0344553972,-0.666096988
629,1576172,1493370,0.993,-0.295,0.412,-11.3,61.1,49.4,9.9,15.5,-24.1,0.490890225,-0.560106204,0.0358897671,-0.666310617
630,1579259,1493370,1.013,-0.307,0.42,-13.5,56.4,46.1,9.9,15.5,-24.1,0.491348003,-0.559404279,0.0372325816,-0.666493728
631,1580812,1493370,0.973,-0.373,0.405,-16.7,50.7,41.8,9.9,15.5,-24.1,0.491714225,-0.558793909,0.0385448775,-0.666646321
632,1583575,1493380,0.977,-0.373,0.393,-19,45.4,36.7,9.9,15.5,-24.1,0.491988891,-0.558305612,0.0397656178,-0.666768395
633,1586391,1493380,0.961,-0.388,0.358,-20.2,41.2,31,10,15.5,-23.5,0.492172002,-0.557908872,0.0408642842,-0.666920988
634,1589446,1493380,1.071,-0.347,0.329,-20.5,37.7,24.7,10,15.5,-23.5,0.492233039,-0.55754265,0.041871395,-0.667104099
635,1590884,1493380,1.079,-0.312,0.336,-21,34.7,17.3,10,15.5,-23.5,0.492202521,-0.557267983,0.0427564318,-0.667317728
636,1594005,1493390,1.086,-0.293,0.325,-22.5,33.1,8.3,10,15.5,-23.5,0.49201941,-0.556993316,0.043549913,-0.667622913
637,1596252,1493390,1.043,-0.296,0.31,-31.3,36,-15.1,10,15.5,-23.5,0.491378521,-0.556840724,0.0442213202,-0.668202765
638,1598282,1493390,1.039,-0.296,0.306,-31.3,36,-15.1,10,15.5,-23.5,0.490707114,-0.556657613,0.0448622089,-0.668752098
639,1602107,1493390,1.043,-0.28,0.31,-37.1,39,-28.4,10,15.5,-23.5,0.489822077,-0.55650502,0.0454420606,-0.669484542
640,1604176,1493400,1.028,-0.304,0.306,-41.2,40.9,-41.1,10,15.5,-23.5,0.488692892,-0.556382946,0.0460219123,-0.670400098
641,1606486,1493400,1.043,-0.296,0.314,-41.9,40.8,-52.1,10.1,16.5,-24.4,0.487380596,-0.556291391,0.0464186529,-0.671407208
642,1608646,1493400,0.934,-0.294,0.316,-38.9,39.2,-61,10.1,16.5,-24.4,0.485976745,-0.556199835,0.046662801,-0.672475356
643,1612047,1493400,0.934,-0.294,0.312,-33.3,37.2,-68.7,10.1,16.5,-24.4,0.484511856,-0.556077761,0.046723838,-0.67363506
644,1614472,1493410,0.965,-0.275,0.319,-27.3,35.1,-76,10.1,16.5,-24.4,0.483046968,-0.555925169,0.046601764,-0.674825282
645,1616684,1493410,0.919,-0.278,0.328,-22.6,33,-82.2,9.6,16.3,-24.3,0.481521043,-0.555742058,0.0462660604,-0.67607654
646,1618834,1493410,0.891,-0.266,0.324,-20.3,31,-86.1,9.6,16.3,-24.3,0.479964599,-0.555589465,0.0458693197,-0.677327799
647,1621029,1493410,0.911,-0.243,0.328,-20.6,29.3,-86.9,9.6,16.3,-24.3,0.478408155,-0.555467391,0.0454115421,-0.678579058
648,1625289,1493420,0.938,-0.212,0.327,-23.4,28.3,-85.7,9.6,16.3,-24.3,0.476821192,-0.555375835,0.0450148015,-0.679799799
649,1627403,1493420,0.895,-0.227,0.32,-28.3,28.1,-83.5,9.7,16.8,-24.7,0.475203711,-0.555345317,0.0447096164,-0.68099002
650,1629648,1493420,0.813,-0.269,0.306,-35.4,29.3,-81.2,9.7,16.8,-24.7,0.473525193,-0.555345317,0.0445570238,-0.682149724
651,1631491,1493420,0.77,-0.292,0.291,-44.2,31.9,-79.4,9.7,16.8,-24.7,0.471785638,-0.555406354,0.0445875423,-0.683309427
652,1633510,1493430,0.762,-0.288,0.299,-52.6,35.1,-79.1,9.7,16.8,-24.7,0.469924009,-0.555497909,0.0447706534,-0.684499649
653,1636131,1493430,0.762,-0.268,0.303,-58.2,37.2,-80.4,9.8,17.3,-25.2,0.468001343,-0.555619984,0.04504532,-0.685720389
654,1638349,1493430,0.727,-0.279,0.296,-60,37.3,-82.6,9.8,17.3,-25.2,0.465987121,-0.555742058,0.0453199866,-0.68694113
655,1642222,1493430,0.727,-0.252,0.292,-59.2,35.8,-84.6,9.8,17.3,-25.2,0.4639729,-0.55589465,0.0455641346,-0.688192389
656,1644760,1493440,0.672,-0.318,0.246,-57.3,33.6,-85.8,9.8,17.3,-25.2,0.461928159,-0.556047243,0.0456862087,-0.689413129
657,1646437,1493440,0.637,-0.348,0.22,-54.3,30,-88.5,9.8,17.3,-25.2,0.459913938,-0.556230354,0.0457472457,-0.690603351
658,1648985,1493440,0.633,-0.352,0.204,-54.3,30,-88.5,9.8,17.3,-25.2,0.457899716,-0.556413465,0.0458082827,-0.691793573
659,1651109,1493440,0.636,-0.348,0.196,-51.4,28.8,-92.9,9.8,17.3,-25.2,0.455824458,-0.556596576,0.0457472457,-0.693014313
660,1655327,1493450,0.609,-0.329,0.173,-45.7,27,-100.1,9.8,17.3,-25.2,0.453749199,-0.55671865,0.0454420606,-0.694296091
661,1657511,1493450,0.601,-0.34,0.158,-38,23.9,-108.9,9.4,17.8,-24.3,0.451612903,-0.556840724,0.0449537645,-0.695638905
662,1659740,1493450,0.625,-0.294,0.165,-30.3,19,-117.9,9.4,17.8,-24.3,0.449415571,-0.556962798,0.0441908017,-0.696981719
663,1661532,1493450,0.636,-0.333,0.102,-24.6,12.7,-126.8,9.4,17.8,-24.3,0.447187719,-0.557145909,0.0431531724,-0.698355052
664,1663939,1493460,0.624,-0.314,0.102,-22.2,5.4,-135.8,9.4,17.8,-24.3,0.444837794,-0.557390057,0.0419019135,-0.699728385
665,1666084,1493460,0.671,-0.271,0.117,-22.6,-1.8,-144.4,9.1,18,-24.3,0.442365795,-0.557786798,0.0404675436,-0.7010712
666,1670375,1493460,0.659,-0.299,0.094,-24.8,-8.8,-152,9.1,18,-24.3,0.439741203,-0.558275094,0.0389110996,-0.702414014
667,1670896,1493460,0.703,-0.229,0.105,-27.7,-15.5,-158.6,9.1,18,-24.3,0.436964019,-0.558915983,0.0372631001,-0.70372631
668,1673340,1493470,0.706,-0.256,0.089,-31.1,-22.2,-164.4,9.1,18,-24.3,0.43406476,-0.559678945,0.0354930265,-0.704977569
669,1675799,1493470,0.73,-0.276,0.077,-36,-28.6,-169.1,8.7,18.7,-24.4,0.431073946,-0.560594501,0.033722953,-0.706198309
670,1678464,1493470,0.753,-0.269,0.061,-42.2,-34.6,-172.6,8.7,18.7,-24.4,0.427900021,-0.561662648,0.0319528794,-0.707358013
671,1680995,1493470,0.757,-0.281,0.064,-49.2,-39.8,-175.1,8.7,18.7,-24.4,0.424634541,-0.56285287,0.0301522874,-0.708487197
672,1683763,1493480,0.784,-0.285,0.068,-55.7,-44.2,-177.3,8.7,18.7,-24.4,0.421216468,-0.564165166,0.0284432508,-0.709524827
673,1686398,1493480,0.82,-0.247,0.087,-61.2,-48,-179.5,7.9,19.3,-24.7,0.417706839,-0.565569018,0.0267342143,-0.710562456
674,1688590,1493480,0.82,-0.29,0.087,-65.7,-51.4,-181.9,7.9,19.3,-24.7,0.414105655,-0.567064425,0.0250251778,-0.711539048
675,1691148,1493480,0.847,-0.263,0.106,-69.6,-54.5,-184.8,7.9,19.3,-24.7,0.410412915,-0.568651387,0.0233161412,-0.712485122
676,1693396,1493490,0.902,-0.252,0.101,-73.2,-57.3,-187.8,7.9,19.3,-24.7,0.406598102,-0.570268868,0.0216071047,-0.713400678
677,1697062,1493490,0.878,-0.243,0.121,-80.2,-61.9,-193,7.9,19.3,-24.7,0.402630696,-0.572038942,0.0199591052,-0.714285714
678,1698911,1493490,0.918,-0.225,0.136,-80.2,-61.9,-193,7.9,19.3,-24.7,0.398632771,-0.573778497,0.0182500687,-0.715170751
679,1701199,1493490,0.937,-0.233,0.128,-83.8,-62.2,-194.7,7.9,19.3,-24.7,0.394573809,-0.57554857,0.0165715506,-0.716055788
680,1703675,1493500,0.933,-0.233,0.135,-87.7,-60.8,-195.3,7.9,19.3,-24.7,0.390423292,-0.577318644,0.0149540696,-0.716940825
681,1706011,1493500,0.945,-0.194,0.155,-91.9,-57.6,-195.4,6.2,20.2,-24.1,0.386242256,-0.579058199,0.0134586627,-0.717825861
682,1708233,1493500,0.969,-0.198,0.154,-96.3,-52.7,-194.8,6.2,20.2,-24.1,0.381969665,-0.580767235,0.0120548112,-0.718771935
683,1711979,1493500,0.988,-0.194,0.166,-100.6,-46.1,-193.6,6.2,20.2,-24.1,0.377666555,-0.582354198,0.0108035524,-0.719718009
684,1713905,1493510,0.98,-0.19,0.17,-104.9,-37.8,-191.4,6.2,20.2,-24.1,0.373332926,-0.583849605,0.00970488601,-0.720816675
685,1716100,1493510,0.977,-0.178,0.174,-108.6,-28,-188.6,5.5,20.5,-24.2,0.368999298,-0.585222938,0.00878933073,-0.721976379
686,1719356,1493510,0.973,-0.167,0.174,-111.2,-17.1,-185.5,5.5,20.5,-24.2,0.364635151,-0.58641316,0.00802636799,-0.723227638
687,1720839,1493510,0.969,-0.163,0.178,-112.2,-5.8,-182.3,5.5,20.5,-24.2,0.360332041,-0.58742027,0.0074159978,-0.724570452
688,1723936,1493520,0.957,-0.162,0.178,-111.8,5.1,-178.9,5.5,20.5,-24.2,0.35605945,-0.58824427,0.00692770165,-0.726004822
689,1726168,1493520,0.945,-0.143,0.178,-109.7,15.4,-175.6,5.5,20.5,-24.2,0.351878414,-0.588885159,0.00653096103,-0.727530747
690,1729432,1493520,0.957,-0.112,0.182,-106.4,24.5,-173,5.5,20.5,-24.2,0.347758415,-0.589312418,0.00619525742,-0.729178747
691,1731517,1493520,0.973,-0.085,0.178,-101.7,31.9,-171.2,5.5,20.5,-24.2,0.343699454,-0.589587085,0.00585955382,-0.730857265
692,1733749,1493530,0.993,-0.018,0.177,-96.6,37.8,-170.4,5.5,20.5,-24.2,0.339732047,-0.589739677,0.0054628132,-0.73259682
693,1735952,1493530,1.012,0.007,0.161,-92.5,43,-170.3,5.5,20.5,-24.2,0.335825678,-0.589739677,0.00509659108,-0.734397412
694,1738916,1493530,1.028,0.011,0.153,-91.1,48.2,-170.3,5.5,20.5,-24.2,0.331888791,-0.589648122,0.00469985046,-0.736259041
695,1741179,1493530,1.043,0.011,0.141,-93.2,54,-170.5,5.5,20.5,-24.2,0.327951903,-0.589465011,0.00439466536,-0.738181707
696,1743692,1493540,1.078,0.01,0.109,-98.8,60.6,-171.3,5.5,20.5,-24.2,0.32392346,-0.589220862,0.00421155431,-0.74016541
697,1745936,1493540,1.098,-0.021,0.058,-116.3,75.2,-177.3,5.5,20.5,-24.2,0.319315165,-0.589007233,0.00408948027,-0.742301706
698,1748960,1493540,1.098,-0.021,0.058,-116.3,75.2,-177.3,5.5,20.5,-24.2,0.314920499,-0.588610492,0.00421155431,-0.744499039
699,1750765,1493540,1.101,-0.056,0.034,-125.2,82,-183.5,5.5,20.5,-24.2,0.310342723,-0.588152715,0.00445570238,-0.746787927
700,1754593,1493550,1.112,-0.107,-0.016,-132.4,87.2,-191.2,5.5,20.5,-24.2,0.305520798,-0.5876339,0.00476088748,-0.749168371
701,1756957,1493550,1.14,-0.128,-0.028,-137.4,90.1,-199.5,4.4,23.3,-21.3,0.300485244,-0.587084567,0.00506607257,-0.75164037
702,1759216,1493550,1.155,-0.167,-0.044,-140.4,90.4,-206.7,4.4,23.3,-21.3,0.295266579,-0.586535234,0.00531022065,-0.754112369
703,1761279,1493550,1.178,-0.257,-0.099,-142.6,88.6,-211.9,4.4,23.3,-21.3,0.28992584,-0.586016419,0.00549333171,-0.756584368
704,1763475,1493560,1.178,-0.297,-0.134,-144.7,85,-214.4,4.4,23.3,-21.3,0.284524064,-0.585558641,0.00567644276,-0.758995331
705,1766344,1493560,1.166,-0.363,-0.157,-147.3,80.1,-214.7,4.4,23.3,-21.3,0.279091769,-0.585161901,0.00589007233,-0.761345256
706,1769499,1493560,1.165,-0.418,-0.181,-149.9,74.4,-213,4.4,23.3,-21.3,0.273598437,-0.584856716,0.0061037019,-0.763542589
707,1770955,1493560,1.208,-0.466,-0.185,-151.6,67.6,-209.5,4.4,23.3,-21.3,0.268166143,-0.584643086,0.00637836848,-0.765617847
708,1773904,1493570,1.231,-0.474,-0.174,-151.6,59.6,-204.4,4.4,23.3,-21.3,0.262825404,-0.584551531,0.00665303507,-0.767540513
709,1776251,1493570,1.243,-0.482,-0.147,-150,50.8,-198,4.4,23.3,-21.3,0.25757622,-0.584582049,0.00692770165,-0.769310587
710,1778346,1493570,1.255,-0.486,-0.127,-147.9,42.5,-190.8,4.4,23.3,-21.3,0.252479629,-0.584734642,0.00720236824,-0.770867031
711,1781341,1493570,1.252,-0.493,-0.069,-146.7,35.9,-182.9,4.4,23.3,-21.3,0.247505112,-0.584948271,0.00753807184,-0.772301401
712,1783675,1493580,1.232,-0.489,-0.041,-147.7,31.5,-174.8,4.4,23.3,-21.3,0.242683187,-0.585222938,0.00796533097,-0.773613697
713,1786735,1493580,1.213,-0.484,-0.029,-151.4,29,-167.2,4.4,23.3,-21.3,0.237891781,-0.585558641,0.00854518265,-0.774834437
714,1788193,1493580,1.17,-0.491,0.002,-157.8,28,-160.5,4.4,23.3,-21.3,0.233161412,-0.585924863,0.00930814539,-0.77599414
715,1792118,1493580,1.147,-0.495,0.018,-166.1,28.1,-154.8,4.4,23.3,-21.3,0.228400525,-0.586321604,0.0102847377,-0.777092807
716,1794469,1493590,1.108,-0.506,0.043,-175,29,-150.1,4.4,23.3,-21.3,0.223609119,-0.586748863,0.0114749596,-0.778160955
717,1796769,1493590,1.041,-0.528,0.079,-187.7,34.2,-144.8,4.4,23.3,-21.3,0.218756676,-0.587115085,0.0129703665,-0.779259621
718,1798775,1493590,1.006,-0.535,0.099,-187.7,34.2,-144.8,4.4,23.3,-21.3,0.213873714,-0.587450789,0.0144657735,-0.780327769
719,1800984,1493590,1.03,-0.52,0.115,-188.5,38.9,-144,4.4,23.3,-21.3,0.208990753,-0.587694937,0.015991699,-0.781426435
720,1803902,1493600,1.038,-0.488,0.146,-185.1,44.6,-144.2,4.4,23.3,-21.3,0.20413831,-0.587817011,0.0175176244,-0.782586138
721,1806213,1493600,1.015,-0.476,0.17,-178.8,51.1,-144.3,1.9,26.1,-19.9,0.199346904,-0.587786493,0.0189214759,-0.783806879
722,1809420,1493600,0.964,-0.518,0.194,-172.1,58.4,-143.5,1.9,26.1,-19.9,0.194647053,-0.587603381,0.0203253273,-0.785088656
723,1811518,1493600,0.956,-0.549,0.206,-167.1,65.6,-141.7,1.9,26.1,-19.9,0.190069277,-0.587237159,0.0216071047,-0.786461989
724,1813770,1493610,0.952,-0.569,0.21,-164.1,71.7,-140.2,1.9,26.1,-19.9,0.185522019,-0.586748863,0.0229499191,-0.787865841
725,1816868,1493610,0.937,-0.588,0.226,-161.7,75.7,-140.9,1.9,26.1,-19.9,0.180974761,-0.586169012,0.0242316965,-0.789330729
726,1819095,1493610,0.936,-0.607,0.222,-158.4,76.9,-144.3,1.9,26.1,-19.9,0.176427503,-0.585528123,0.0253913999,-0.790765099
727,1821238,1493610,0.944,-0.611,0.222,-154,75.4,-150.2,1.9,26.1,-19.9,0.171819208,-0.584917753,0.0264595477,-0.792229987
728,1824444,1493620,0.983,-0.604,0.225,-149,71.4,-157.1,1.9,26.1,-19.9,0.167149876,-0.584307382,0.0272835475,-0.793633839
729,1826567,1493620,1.1,-0.614,0.215,-144.5,65.3,-164,1.9,26.1,-19.9,0.162419507,-0.583788568,0.0279244362,-0.794976653
730,1828717,1493620,1.163,-0.588,0.222,-140.7,57.9,-169.9,1.9,26.1,-19.9,0.15765862,-0.583391827,0.0284127323,-0.796197394
731,1832629,1493620,1.214,-0.557,0.26,-137,50.6,-173.5,1.9,26.1,-19.9,0.152867214,-0.583086642,0.0287484359,-0.797357097
732,1833973,1493630,1.265,-0.546,0.314,-133,44.7,-174.1,1.9,26.1,-19.9,0.148106326,-0.582842494,0.0290231025,-0.798425245
733,1836932,1493630,1.297,-0.578,0.349,-129.4,40.6,-171.7,1.9,26.1,-19.9,0.143436995,-0.582659383,0.0291756951,-0.799401837
734,1838501,1493630,1.308,-0.582,0.364,-127.2,37.7,-166.8,1.9,26.1,-19.9,0.138889737,-0.58250679,0.0294198431,-0.800317392
735,1841055,1493630,1.308,-0.582,0.376,-126.3,35,-161.2,1.9,26.1,-19.9,0.134434034,-0.582354198,0.0296639912,-0.801141392
736,1843260,1493640,1.312,-0.582,0.352,-126.1,32.2,-156.1,1.9,26.1,-19.9,0.130100406,-0.582262642,0.0299996948,-0.801934874
737,1846804,1493640,1.304,-0.578,0.329,-125.9,29.4,-152.7,-0.1,27.6,-18.1,0.125797296,-0.582201605,0.0303659169,-0.802636799
738,1849856,1493640,1.289,-0.57,0.313,-126.2,27.6,-150.5,-0.1,27.6,-18.1,0.121524705,-0.582171087,0.030732139,-0.803308206
739,1852218,1493640,1.257,-0.566,0.298,-126.4,27.9,-148.5,-0.1,27.6,-18.1,0.117282632,-0.58211005,0.0311288797,-0.803979614
740,1854527,1493650,1.132,-0.509,0.281,-125.9,30.6,-145.5,-0.1,27.6,-18.1,0.113132115,-0.581987976,0.0315256203,-0.804651021
741,1856400,1493650,1.082,-0.477,0.266,-123.9,34.4,-141.3,-1,27.3,-17.2,0.109042634,-0.581774346,0.0320139164,-0.805352947
742,1859464,1493650,1.031,-0.449,0.248,-120.8,37,-136.5,-1,27.3,-17.2,0.105075228,-0.58149968,0.0325022126,-0.806054872
743,1860844,1493650,0.972,-0.448,0.206,-117.6,36.5,-132.8,-1,27.3,-17.2,0.101229896,-0.581225013,0.0329905087,-0.806726279
744,1863914,1493660,0.96,-0.428,0.21,-114.9,32.5,-131.9,-1,27.3,-17.2,0.0974456008,-0.580980865,0.0333872494,-0.80733665
745,1866101,1493660,0.972,-0.428,0.217,-112.5,26.1,-133.9,-1.4,28,-17,0.0936307871,-0.580858791,0.033722953,-0.807855464
746,1869264,1493660,0.976,-0.42,0.225,-109.3,19,-137.3,-1.4,28,-17,0.0898159734,-0.580858791,0.033967101,-0.808313242
747,1872098,1493660,0.988,-0.44,0.241,-104.6,12.9,-139.3,-1.4,28,-17,0.0860011597,-0.580919828,0.0340586566,-0.808648946
748,1873630,1493670,1.027,-0.421,0.263,-97.8,9.4,-138.7,-1.4,28,-17,0.0823084201,-0.581041902,0.0340586566,-0.808954131
749,1875906,1493670,1.035,-0.386,0.283,-89.4,9.6,-135.2,-2.1,27.7,-16.4,0.0787987915,-0.581133457,0.0339365825,-0.809259316
750,1879064,1493670,1,-0.366,0.26,-80.5,13.3,-129.1,-2.1,27.7,-16.4,0.0754722739,-0.581133457,0.033722953,-0.809564501
751,1881067,1493670,0.953,-0.291,0.21,-74,18.9,-121.7,-2.1,27.7,-16.4,0.072359386,-0.581011383,0.0335398419,-0.809961241
752,1884423,1493680,0.949,-0.299,0.186,-71,23.9,-115.2,-2.1,27.7,-16.4,0.0694296091,-0.580767235,0.0333567309,-0.810388501
753,1886371,1493680,0.96,-0.323,0.151,-71.6,25.3,-112.4,-2.8,28.2,-16.3,0.0664998321,-0.580492569,0.0332346568,-0.81081576
754,1889520,1493680,1.019,-0.359,0.115,-73.3,21.7,-114.8,-2.8,28.2,-16.3,0.0635090182,-0.580309458,0.0331125828,-0.8112125
755,1891684,1493680,1.046,-0.368,0.11,-73.7,13.8,-120.9,-2.8,28.2,-16.3,0.0604266488,-0.580248421,0.0329294717,-0.811487167
756,1894971,1493690,1.081,-0.352,0.129,-70.4,3.2,-127.7,-2.8,28.2,-16.3,0.0572832423,-0.580370495,0.0325632496,-0.81163976
757,1896920,1493690,1.125,-0.333,0.183,-63.4,-7.8,-132.2,-3.3,27.6,-16.2,0.0541398358,-0.58067568,0.0319833979,-0.811670278
758,1898298,1493690,1.132,-0.322,0.191,-54.6,-18,-133.7,-3.3,27.6,-16.2,0.0510574664,-0.581163976,0.0312509537,-0.811548204
759,1901256,1493690,1.136,-0.333,0.202,-46.7,-25.6,-132.4,-3.3,27.6,-16.2,0.0481276894,-0.581743828,0.0303659169,-0.811334574
760,1904778,1493700,1.121,-0.321,0.21,-41.7,-30.2,-129.4,-3.3,27.6,-16.2,0.0453810236,-0.582415235,0.0294198431,-0.811059908
761,1906775,1493700,1.113,-0.302,0.222,-39.8,-31.7,-125,-3.6,27,-15.4,0.0426648762,-0.583086642,0.0285042879,-0.810754723
762,1909863,1493700,1.078,-0.281,0.231,-40.3,-31,-120,-3.6,27,-15.4,0.0400402844,-0.583758049,0.0276802881,-0.810449538
763,1912037,1493700,1.055,-0.265,0.231,-42.1,-29,-114.4,-3.6,27,-15.4,0.0375072481,-0.584368419,0.0269173254,-0.810144353
764,1914183,1493710,1.047,-0.261,0.235,-44.5,-26.4,-108.9,-3.6,27,-15.4,0.0350352489,-0.584948271,0.0263069552,-0.809869686
765,1915782,1493710,1.031,-0.238,0.232,-47.4,-23.9,-103.6,-5,28.3,-15.5,0.0326242866,-0.585467086,0.025818659,-0.809625538
766,1919610,1493710,1.027,-0.23,0.224,-50.6,-21.7,-98.5,-5,28.3,-15.5,0.0302438429,-0.585924863,0.0253913999,-0.80938139
767,1921130,1493710,1.024,-0.218,0.22,-54.3,-19.5,-94,-5,28.3,-15.5,0.0278939177,-0.586352123,0.0251472518,-0.80916776
768,1923402,1493720,1.02,-0.226,0.204,-58.6,-17,-89.7,-5,28.3,-15.5,0.0255745109,-0.586748863,0.0250251778,-0.808954131
769,1927054,1493720,1.008,-0.238,0.177,-63.5,-14.2,-85.6,-5.9,28.3,-15.1,0.0232551042,-0.587084567,0.0250251778,-0.80877102
770,1928629,1493720,0.992,-0.253,0.162,-68.9,-10.7,-81.4,-5.9,28.3,-15.1,0.0209356975,-0.587328715,0.0252388073,-0.808648946
771,1931722,1493720,0.98,-0.269,0.146,-74.7,-7,-77.1,-5.9,28.3,-15.1,0.0186162908,-0.587542344,0.0255745109,-0.80855739
772,1933747,1493730,0.945,-0.311,0.128,-80.4,-3.7,-73,-5.9,28.3,-15.1,0.0162968841,-0.587664418,0.0260017701,-0.808496353
773,1936667,1493730,0.937,-0.33,0.12,-85.5,-1.1,-69.1,-6.7,28.5,-14.9,0.0139774773,-0.587755974,0.0266731773,-0.808435316
774,1938245,1493730,0.917,-0.346,0.12,-89.5,0.3,-65.6,-6.7,28.5,-14.9,0.0116885891,-0.587817011,0.0274056215,-0.808404798
775,1941291,1493730,0.902,-0.357,0.128,-92.5,0.9,-62.4,-6.7,28.5,-14.9,0.00939970092,-0.587878048,0.0281991028,-0.808374279
776,1943786,1493740,0.87,-0.376,0.133,-94.4,0.7,-59.3,-6.7,28.5,-14.9,0.00714133122,-0.587908567,0.0291451765,-0.80834376
777,1945819,1493740,0.835,-0.387,0.134,-97.3,-0.7,-53.2,-7.3,28.3,-14.6,0.00540177618,-0.58824427,0.0308236946,-0.808069094
778,1949586,1493740,0.835,-0.387,0.134,-97.3,-0.7,-53.2,-7.3,28.3,-14.6,0.00320444349,-0.588305307,0.0318308054,-0.807977538
779,1951959,1493740,0.819,-0.395,0.138,-99,-2,-50.3,-7.3,28.3,-14.6,0.00103762932,-0.588366344,0.0329294717,-0.807885983
780,1954033,1493750,0.788,-0.406,0.138,-101.1,-3.6,-47.7,-7.3,28.3,-14.6,0.00106814783,0.588488418,-0.0341196936,0.807763909
781,1956254,1493750,0.784,-0.422,0.142,-102.8,-5.2,-45.1,-5.4,27.6,-14.1,0.00317392499,0.588610492,-0.035340434,0.807611316
782,1959541,1493750,0.776,-0.429,0.147,-103.8,-6.6,-42.3,-5.4,27.6,-14.1,0.00524918363,0.588732566,-0.0366222114,0.807458724
783,1962148,1493750,0.78,-0.449,0.15,-103.7,-7.8,-39.7,-5.4,27.6,-14.1,0.00726340526,0.588885159,-0.0379650258,0.807245094
784,1963995,1493760,0.78,-0.445,0.166,-102.5,-8.9,-37.4,-5.4,27.6,-14.1,0.00924710837,0.58906827,-0.0392773217,0.807061983
785,1965975,1493760,0.777,-0.449,0.17,-99.9,-10,-35.3,-7.2,28.3,-13.3,0.011139256,0.589251381,-0.0405590991,0.806817835
786,1968949,1493760,0.777,-0.445,0.182,-96.4,-11.3,-33.3,-7.2,28.3,-13.3,0.012939848,0.589465011,-0.041871395,0.806573687
787,1971161,1493760,0.769,-0.429,0.194,-92.4,-13,-31.3,-7.2,28.3,-13.3,0.0146794031,0.58967864,-0.0430921354,0.806329539
788,1975220,1493770,0.769,-0.425,0.205,-88.3,-14.8,-29.3,-7.2,28.3,-13.3,0.0163274026,0.589953307,-0.0442213202,0.806024354
789,1977430,1493770,0.765,-0.413,0.205,-84.6,-16.8,-27.1,-7.5,28.6,-13.5,0.0178838466,0.590227973,-0.0454115421,0.805719169
790,1979902,1493770,0.769,-0.409,0.209,-81.4,-18.7,-24.7,-7.5,28.6,-13.5,0.019348735,0.590563677,-0.046540727,0.805383465
791,1981982,1493770,0.789,-0.398,0.213,-78.7,-20.2,-22.3,-7.5,28.6,-13.5,0.0207220679,0.59089938,-0.0476393933,0.805047761
792,1983703,1493780,0.804,-0.394,0.216,-76.3,-21.3,-19.9,-7.5,28.6,-13.5,0.0220343638,0.591265603,-0.0487380596,0.804681539
793,1986941,1493780,0.808,-0.394,0.209,-73.7,-22,-17.7,-7.1,28.7,-12.8,0.0232856227,0.591631825,-0.0498062075,0.804315317
794,1988777,1493780,0.824,-0.375,0.204,-70.8,-22.3,-15.5,-7.1,28.7,-12.8,0.0244148076,0.591998047,-0.0508743553,0.803918577
795,1990751,1493780,0.824,-0.379,0.193,-67.7,-22.4,-13.4,-7.1,28.7,-12.8,0.0255134739,0.592364269,-0.0518814661,0.803552355
796,1994562,1493790,0.835,-0.375,0.192,-64.7,-22.5,-11.4,-7.1,28.7,-12.8,0.0264900662,0.592730491,-0.0528885769,0.803186132
797,1997063,1493790,0.851,-0.368,0.18,-59.5,-22.7,-8.4,-6.9,29.2,-12.6,0.0263679922,0.593218787,-0.0552079836,0.802697836
798,1998866,1493790,0.851,-0.368,0.176,-59.5,-22.7,-8.4,-6.9,29.2,-12.6,0.0272835475,0.593585009,-0.0561845759,0.802301096
799,2001202,1493790,0.863,-0.368,0.176,-57.2,-23,-7.1,-6.9,29.2,-12.6,0.0280770287,0.593951231,-0.0571306497,0.801934874
800,2004502,1493800,0.863,-0.364,0.172,-55,-23.2,-5.5,-6.9,29.2,-12.6,0.0289010285,0.594347972,-0.0580156865,0.801568651
801,2006251,1493800,0.855,-0.368,0.168,-53,-23.3,-3.8,-6.9,28.6,-12.2,0.0296334727,0.594714194,-0.0589312418,0.801202429
802,2009716,1493800,0.867,-0.36,0.164,-51.2,-23.3,-2,-6.9,28.6,-12.2,0.0302743614,0.595110935,-0.0598162786,0.800836207
803,2011425,1493800,0.871,-0.36,0.18,-49.7,-23.3,-0.2,-6.9,28.6,-12.2,0.0308847316,0.595477157,-0.0606707968,0.800439467
804,2013684,1493810,0.871,-0.356,0.184,-48.5,-23.4,1.3,-6.9,28.6,-12.2,0.0314951018,0.595843379,-0.0615558336,0.800073244
805,2018000,1493810,0.886,-0.357,0.184,-47.4,-23.4,2.7,-6.8,28.7,-12.1,0.0320139164,0.596209601,-0.0624408704,0.799707022
806,2018241,1493810,0.886,-0.353,0.187,-46.5,-23.3,4,-6.8,28.7,-12.1,0.0325022126,0.596606342,-0.0633259072,0.7993408
807,2022081,1493810,0.898,-0.353,0.191,-45.8,-22.9,5.1,-6.8,28.7,-12.1,0.0329905087,0.596942045,-0.0642109439,0.799005097
808,2024466,1493820,0.898,-0.361,0.191,-45.1,-22.4,6.1,-6.8,28.7,-12.1,0.0334482864,0.597308267,-0.0650959807,0.798638874
809,2026434,1493820,0.898,-0.357,0.195,-44.4,-21.7,7.2,-7,28.8,-11.9,0.0338755455,0.597643971,-0.0659810175,0.798303171
810,2028616,1493820,0.894,-0.361,0.195,-43.6,-21.1,8.3,-7,28.8,-11.9,0.0342722861,0.597949156,-0.0668660543,0.797967467
811,2031054,1493820,0.902,-0.361,0.195,-42.6,-20.6,9.5,-7,28.8,-11.9,0.0346385083,0.59828486,-0.067751091,0.797631764
812,2033260,1493830,0.894,-0.364,0.203,-41.6,-20.4,10.8,-7,28.8,-11.9,0.0349436934,0.598590045,-0.0686361278,0.797326579
813,2036047,1493830,0.902,-0.365,0.203,-40.5,-20.3,12,-6.7,28.6,-11.6,0.0352488784,0.59889523,-0.0694906461,0.796990875
814,2038739,1493830,0.902,-0.365,0.203,-39.2,-20.2,13.2,-6.7,28.6,-11.6,0.0354930265,0.599200415,-0.0703756829,0.79668569
815,2040851,1493830,0.906,-0.372,0.207,-37.8,-20.1,14.2,-6.7,28.6,-11.6,0.0356761376,0.599475082,-0.0712302011,0.796380505
816,2043286,1493840,0.91,-0.361,0.214,-36.2,-20.2,15.2,-6.7,28.6,-11.6,0.0358897671,0.599780267,-0.0720847194,0.79607532
817,2046565,1493840,0.922,-0.361,0.226,-32.5,-21,17.3,-6.9,28.7,-11,0.0350047304,0.600146489,-0.074159978,0.795648061
818,2048269,1493840,0.922,-0.361,0.226,-32.5,-21,17.3,-6.9,28.7,-11,0.0350962859,0.600482192,-0.0749839778,0.795312357
819,2050825,1493840,0.929,-0.353,0.226,-30.5,-21.3,18.2,-6.9,28.7,-11,0.0351573229,0.600787378,-0.0757469405,0.795007172
820,2053246,1493850,0.937,-0.338,0.23,-28.7,-21.5,19,-6.9,28.7,-11,0.0351573229,0.601123081,-0.0765404218,0.794701987
821,2057452,1493850,0.941,-0.338,0.233,-26.9,-21.5,19.6,-7.5,29.1,-11.3,0.0351573229,0.601428266,-0.0772423475,0.794366283
822,2059956,1493850,0.949,-0.338,0.237,-25.1,-21.4,20.2,-7.5,29.1,-11.3,0.0350962859,0.601733451,-0.0779747917,0.794061098
823,2062248,1493850,0.965,-0.33,0.241,-23.4,-21.2,20.9,-7.5,29.1,-11.3,0.0350047304,0.602069155,-0.0786767174,0.793755913
824,2064615,1493860,0.969,-0.326,0.245,-21.7,-21,21.7,-7.5,29.1,-11.3,0.0348826563,0.60237434,-0.0793481246,0.793450728
825,2067467,1493860,0.969,-0.323,0.249,-20,-20.7,22.5,-6.9,29,-11.1,0.0346995453,0.602679525,-0.0800195318,0.793176061
826,2069714,1493860,0.973,-0.319,0.252,-18.5,-20.4,23.4,-6.9,29,-11.1,0.0345164342,0.60298471,-0.0806604205,0.792901395
827,2071483,1493860,0.981,-0.311,0.26,-16.9,-20.1,24.1,-6.9,29,-11.1,0.0342722861,0.603259377,-0.0813013092,0.792626728
828,2074903,1493870,0.988,-0.307,0.264,-15.4,-20,24.8,-6.9,29,-11.1,0.0340281381,0.603564562,-0.0819116794,0.792352062
829,2077065,1493870,0.992,-0.299,0.264,-13.8,-19.9,25.3,-6.8,29.1,-10.9,0.033722953,0.603839228,-0.0824915311,0.792077395
830,2078828,1493870,0.996,-0.296,0.264,-12,-19.8,25.9,-6.8,29.1,-10.9,0.0333872494,0.604144414,-0.0830408643,0.791802728
831,2081195,1493870,1.004,-0.284,0.26,-10.2,-19.7,26.5,-6.8,29.1,-10.9,0.0330515458,0.60441908,-0.0835901975,0.79155858
832,2083480,1493880,1.004,-0.276,0.26,-8.6,-19.5,27,-6.8,29.1,-10.9,0.0326548051,0.604693747,-0.0840784936,0.791283914
833,2086001,1493880,1.012,-0.268,0.259,-7.3,-19.2,27.5,-6.8,29.1,-10.6,0.032227546,0.604968413,-0.0846278268,0.791039766
834,2088292,1493880,1.012,-0.257,0.263,-6.5,-18.9,28.1,-6.8,29.1,-10.6,0.0317697684,0.60524308,-0.0851161229,0.790795618
835,2092591,1493880,1.02,-0.253,0.259,-5.6,-18.6,28.6,-6.8,29.1,-10.6,0.0313425092,0.605517747,-0.0856044191,0.790551469
836,2094819,1493890,1.032,-0.238,0.263,-4.3,-18.5,29.3,-6.8,29.1,-10.6,0.0308542131,0.605792413,-0.0860316782,0.79033784
837,2097060,1493890,1.036,-0.226,0.263,-1.2,-17.7,30.6,-6.3,29.6,-11,0.0299081393,0.605975524,-0.0870082705,0.790093692
838,2098436,1493890,1.04,-0.214,0.267,-1.2,-17.7,30.6,-6.3,29.6,-11,0.0293893246,0.606219672,-0.0874660482,0.789880062
839,2101416,1493890,1.039,-0.214,0.263,0.1,-17.1,31.1,-6.3,29.6,-11,0.0288094729,0.606433302,-0.0878933073,0.789696951
840,2103812,1493900,1.043,-0.206,0.278,1.2,-16.4,31.4,-6.3,29.6,-11,0.0281991028,0.60667745,-0.0882900479,0.789483322
841,2105964,1493900,1.044,-0.191,0.27,2.2,-15.6,31.7,-7.5,29.3,-10.9,0.0275887326,0.606891079,-0.0886867885,0.789300211
842,2109012,1493900,1.047,-0.191,0.27,3.1,-14.8,32.2,-7.5,29.3,-10.9,0.0269783624,0.607104709,-0.0890530107,0.789147618
843,2111345,1493900,1.047,-0.183,0.27,4.2,-13.9,32.5,-7.5,29.3,-10.9,0.0263374737,0.607257302,-0.0894192328,0.788964507
844,2113519,1493910,1.051,-0.187,0.258,5.4,-12.7,32.8,-7.5,29.3,-10.9,0.025635548,0.607440413,-0.0897854549,0.788842433
845,2116535,1493910,1.043,-0.175,0.251,6.5,-11.4,32.9,-5.7,29.5,-10.8,0.0249946593,0.607562487,-0.09009064,0.788720359
846,2118845,1493910,1.036,-0.156,0.255,7.7,-10,32.8,-5.7,29.5,-10.8,0.0242927335,0.607684561,-0.0903958251,0.788628803
847,2120748,1493910,1.044,-0.152,0.266,8.9,-9,32.8,-5.7,29.5,-10.8,0.0236213263,0.607776116,-0.0907010102,0.788537248
848,2123350,1493920,1.04,-0.144,0.27,10,-8.4,33,-5.7,29.5,-10.8,0.0228888821,0.607867672,-0.0909756767,0.788445692
849,2126974,1493920,1.048,-0.128,0.278,10.3,-8.3,33.3,-5.5,29.4,-10.7,0.0221564379,0.607928709,-0.0912198248,0.788384655
850,2129390,1493920,1.044,-0.124,0.274,9.7,-8.4,33.6,-5.5,29.4,-10.7,0.0214239937,0.608020264,-0.0915250099,0.7882931
851,2131163,1493920,1.032,-0.124,0.263,8,-8.1,33.7,-5.5,29.4,-10.7,0.0207220679,0.60811182,-0.091830195,0.788232063
852,2134474,1493930,1.032,-0.132,0.255,5.7,-7.1,33.5,-5.5,29.4,-10.7,0.0200811792,0.608172857,-0.0921658986,0.788171026
853,2136625,1493930,1.032,-0.136,0.251,3.5,-5.6,32.9,-5.3,29.5,-10.8,0.019409772,0.608203375,-0.0925626392,0.788109989
854,2138682,1493930,1.024,-0.136,0.251,2,-3.9,32.3,-5.3,29.5,-10.8,0.0188604389,0.608203375,-0.0929593799,0.78807947
855,2142729,1493930,1.028,-0.136,0.251,1.6,-2.3,31.8,-5.3,29.5,-10.8,0.0182805872,0.608172857,-0.0933561205,0.788048952
856,2144949,1493940,1.032,-0.14,0.251,2.1,-0.9,31.6,-5.3,29.5,-10.8,0.0177007355,0.60811182,-0.0937223426,0.788048952
857,2147306,1493940,1.024,-0.14,0.251,3,0,31.4,-5.4,29.5,-10.7,0.0170598468,0.60811182,-0.0941801202,0.788018433
858,2149622,1493940,1.024,-0.14,0.251,3.9,0.7,31.2,-5.4,29.5,-10.7,0.0164799951,0.608050783,-0.0945158238,0.788048952
859,2151051,1493940,1.016,-0.14,0.243,4.3,1.5,30.5,-5.4,29.5,-10.7,0.0158696249,0.607959227,-0.0948210089,0.78807947
860,2155232,1493950,1.008,-0.151,0.236,3.8,2.2,29.9,-5.4,29.5,-10.7,0.0153508103,0.607867672,-0.0951872311,0.788140507
861,2157410,1493950,1.004,-0.151,0.24,2.4,3.1,29.3,-5.8,29.5,-10.9,0.0148014771,0.607745598,-0.0955229347,0.788201544
862,2159639,1493950,1.004,-0.151,0.236,1,3.8,28.9,-5.8,29.5,-10.9,0.0143131809,0.607623524,-0.0958891568,0.788262581
863,2161965,1493950,1,-0.163,0.236,-0.1,4.4,28.5,-5.8,29.5,-10.9,0.0138248848,0.607470931,-0.0962553789,0.788323618
864,2163980,1493960,1.004,-0.175,0.236,-0.8,4.9,28.1,-5.8,29.5,-10.9,0.0133671072,0.607348857,-0.0966521195,0.788415174
865,2166110,1493960,1,-0.179,0.236,-1.4,5.4,27.3,-5.5,29.1,-10.8,0.012939848,0.607196265,-0.0970488601,0.788476211
866,2170307,1493960,1,-0.182,0.24,-1.8,5.9,26.3,-5.5,29.1,-10.8,0.0125125889,0.607013153,-0.0974150822,0.788567766
867,2172382,1493960,0.996,-0.198,0.24,-2.3,6.4,25.3,-5.5,29.1,-10.8,0.0121158483,0.606860561,-0.0977507859,0.788659322
868,2174035,1493970,0.989,-0.202,0.248,-2.6,6.9,24.5,-5.5,29.1,-10.8,0.0117496261,0.60667745,-0.0981475265,0.788750877
869,2177104,1493970,0.989,-0.198,0.252,-3,7.2,23.8,-5.2,29.9,-11,0.011383404,0.606494339,-0.0985137486,0.788842433
870,2178787,1493970,0.993,-0.202,0.256,-3,7.6,23.2,-5.2,29.9,-11,0.0110477004,0.606341746,-0.0988799707,0.788933988
871,2181211,1493970,0.993,-0.21,0.256,-3,7.5,22.6,-5.2,29.9,-11,0.0107119968,0.606158635,-0.0992156743,0.789025544
872,2184557,1493980,0.989,-0.209,0.264,-3,7.5,21.8,-5.2,29.9,-11,0.0104068117,0.605975524,-0.0995818964,0.789147618
873,2186557,1493980,0.989,-0.213,0.26,-3.2,7.5,21,-5.4,30,-10.8,0.0101016266,0.605792413,-0.0999176,0.789239174
874,2188799,1493980,0.989,-0.221,0.26,-3.5,7.6,20.4,-5.4,30,-10.8,0.00979644154,0.605609302,-0.100192267,0.789330729
875,2191004,1493980,0.989,-0.209,0.26,-3.9,7.5,19.8,-5.4,30,-10.8,0.00952177496,0.605426191,-0.100558489,0.789422285
876,2193444,1493990,0.989,-0.221,0.256,-4.3,7.3,19.2,-5.4,30,-10.8,0.00927762688,0.605273598,-0.100894192,0.78951384
877,2195803,1493990,0.997,-0.213,0.267,-4.4,6.9,18.6,-5.2,29.6,-10.7,0.00860621967,0.604998932,-0.101748711,0.789605396
878,2199367,1493990,0.993,-0.213,0.271,-4.2,6.4,17.9,-5.2,29.6,-10.7,0.0083620716,0.604846339,-0.102053896,0.789696951
879,2201500,1493990,0.997,-0.21,0.271,-3.6,6.1,17.4,-5.2,29.6,-10.7,0.00811792352,0.604693747,-0.102359081,0.789757988
880,2203806,1494000,0.997,-0.206,0.271,-3,5.9,16.9,-5.2,29.6,-10.7,0.00790429395,0.604571673,-0.102633747,0.789849544
881,2206158,1494000,0.989,-0.213,0.271,-2.2,5.8,16.5,-5.3,29.9,-11.4,0.00766014588,0.60441908,-0.102877895,0.789910581
882,2209327,1494000,0.989,-0.206,0.271,-1.4,5.6,16,-5.3,29.9,-11.4,0.0074159978,0.604297006,-0.103122044,0.790002136
883,2211520,1494000,0.985,-0.194,0.268,-0.5,5.5,15.8,-5.3,29.9,-11.4,0.00714133122,0.604174932,-0.103335673,0.790032655
884,2213786,1494010,0.997,-0.198,0.275,0.4,5.3,15.7,-5.3,29.9,-11.4,0.00689718314,0.60402234,-0.103518784,0.790154729
885,2215954,1494010,0.997,-0.19,0.275,1.6,5.1,15.4,-5.5,29.9,-10.2,0.00662251656,0.603900266,-0.103701895,0.790215766
886,2220017,1494010,0.993,-0.182,0.271,2.5,4.9,14.9,-5.5,29.9,-10.2,0.00631733146,0.60380871,-0.103854488,0.790276803
887,2222216,1494010,0.985,-0.182,0.275,3,4.9,14.2,-5.5,29.9,-10.2,0.00604266488,0.603686636,-0.10400708,0.790368358
888,2224492,1494020,0.981,-0.178,0.271,3.3,5.1,13.5,-5.5,29.9,-10.2,0.0057985168,0.603564562,-0.104098636,0.790429395
889,2225980,1494020,0.973,-0.182,0.272,3.4,5.2,12.9,-5.6,29.7,-9.9,0.00552385022,0.603442488,-0.10422071,0.790520951
890,2229025,1494020,0.969,-0.174,0.272,3.6,5.3,12.3,-5.6,29.7,-9.9,0.00527970214,0.603320414,-0.104312265,0.790612506
891,2230943,1494020,0.965,-0.178,0.268,3.8,5.3,11.6,-5.6,29.7,-9.9,0.00503555406,0.60319834,-0.104403821,0.790673544
892,2234325,1494030,0.954,-0.178,0.256,4.2,5.3,11.1,-5.6,29.7,-9.9,0.0048219245,0.603076266,-0.104495376,0.790765099
893,2236356,1494030,0.95,-0.178,0.256,4.7,5.4,10.5,-5.1,30,-9.7,0.00457777642,0.602954192,-0.104525895,0.790856655
894,2238530,1494030,0.942,-0.181,0.257,5.5,5.5,9.8,-5.1,30,-9.7,0.00433362835,0.602862636,-0.104586932,0.790917692
895,2242388,1494030,0.942,-0.181,0.253,6.1,5.6,9,-5.1,30,-9.7,0.00411999878,0.602740562,-0.104586932,0.791009247
896,2244712,1494040,0.934,-0.193,0.249,6.9,5.7,8.3,-5.1,30,-9.7,0.00390636921,0.602618488,-0.104586932,0.791100803
897,2246220,1494040,0.926,-0.193,0.241,7.6,5.9,7.7,-4.9,29.5,-9.3,0.00357066561,0.602435377,-0.104709006,0.791222877
898,2249389,1494040,0.926,-0.193,0.241,8.5,6.1,7.1,-4.9,29.5,-9.3,0.00332651753,0.602313303,-0.104647969,0.791314432
899,2250880,1494040,0.922,-0.193,0.237,9.1,6.2,6.5,-4.9,29.5,-9.3,0.00311288797,0.602191229,-0.104556413,0.791436506
900,2253835,1494050,0.918,-0.193,0.237,9.7,6.2,5.8,-4.9,29.5,-9.3,0.0028992584,0.602069155,-0.104464858,0.791528062
901,2255951,1494050,0.914,-0.197,0.234,10.2,6.1,5.2,-5.2,29.9,-12.6,0.00268562883,0.601977599,-0.104373302,0.791650136
902,2258980,1494050,0.91,-0.204,0.238,10.5,5.9,4.6,-5.2,29.9,-12.6,0.00247199927,0.601855525,-0.104251228,0.791741691
903,2262067,1494050,0.907,-0.208,0.238,10.7,5.5,4,-5.2,29.9,-12.6,0.00228888821,0.60176397,-0.104098636,0.791833247
904,2263401,1494060,0.899,-0.208,0.23,10.8,5,3.4,-5.2,29.9,-12.6,0.00210577715,0.601641896,-0.103976562,0.791924802
905,2266468,1494060,0.907,-0.204,0.23,10.8,4.6,2.9,-5,29.7,-10.7,0.0019226661,0.601580859,-0.103823969,0.792016358
906,2268734,1494060,0.903,-0.204,0.226,10.7,4.2,2.6,-5,29.7,-10.7,0.00173955504,0.601489303,-0.103671377,0.792107913
907,2271994,1494060,0.899,-0.204,0.23,10.7,3.7,2.3,-5,29.7,-10.7,0.00155644398,0.601428266,-0.103518784,0.79216895
908,2274038,1494070,0.899,-0.2,0.226,10.9,3.2,2.1,-5,29.7,-10.7,0.00137333293,0.601367229,-0.103366192,0.792229987
909,2276125,1494070,0.899,-0.2,0.226,11.1,2.6,1.8,-5.2,29.4,-11,0.00122074038,0.601306192,-0.103183081,0.792291025
910,2278977,1494070,0.895,-0.2,0.226,11.2,2,1.5,-5.2,29.4,-11,0.00103762932,0.601275674,-0.102999969,0.792352062
911,2282378,1494070,0.899,-0.193,0.222,11.4,1.3,1.2,-5.2,29.4,-11,0.000885036775,0.601245155,-0.102847377,0.79238258
912,2284549,1494080,0.899,-0.193,0.218,11.4,0.8,1,-5.2,29.4,-11,0.000701925718,0.601214637,-0.102633747,0.792443617
913,2285937,1494080,0.903,-0.189,0.222,11.5,0.2,0.7,-4.8,29.7,-11.6,0.000549333171,0.601214637,-0.102450636,0.792474136
914,2288942,1494080,0.907,-0.189,0.218,11.6,-0.1,0.7,-4.8,29.7,-11.6,0.000366222114,0.601214637,-0.102267525,0.792474136
915,2292366,1494080,0.903,-0.189,0.218,11.7,-0.6,0.6,-4.8,29.7,-11.6,0.000213629566,0.601245155,-0.102084414,0.792504654
916,2294561,1494090,0.91,-0.181,0.222,11.8,-0.9,0.6,-4.8,29.7,-11.6,6.1037019e-05,0.601245155,-0.101870785,0.792504654
917,2295937,1494090,0.914,-0.185,0.226,11.8,-1.1,0.5,-4.9,29.7,-11.9,0.000274666585,-0.601367229,0.101931822,-0.792413099
918,2298825,1494090,0.918,-0.181,0.226,11.8,-1.1,0.3,-4.9,29.7,-11.9,0.000427259133,-0.601367229,0.101748711,-0.792443617
919,2301097,1494090,0.922,-0.177,0.226,11.8,-1.2,0.2,-4.9,29.7,-11.9,0.00061037019,-0.601397748,0.101535081,-0.792443617
920,2304317,1494100,0.922,-0.181,0.226,11.7,-1.4,0.1,-4.9,29.7,-11.9,0.000762962737,-0.601428266,0.10135197,-0.792443617
921,2305768,1494100,0.93,-0.173,0.233,11.5,-1.6,0,-4.9,29.8,-12,0.000915555284,-0.601458785,0.10113834,-0.792443617
922,2308549,1494100,0.938,-0.174,0.233,11.1,-1.9,-0.1,-4.9,29.8,-12,0.00106814783,-0.601489303,0.100955229,-0.792443617
923,2311835,1494100,0.942,-0.17,0.233,10.6,-2.2,-0.3,-4.9,29.8,-12,0.00122074038,-0.601519822,0.1007416,-0.792443617
924,2313195,1494110,0.938,-0.174,0.233,9.8,-2.6,-0.4,-4.9,29.8,-12,0.00134281442,-0.601580859,0.100589007,-0.792443617
925,2316219,1494110,0.946,-0.178,0.237,8.9,-2.9,-0.4,-5,29.4,-11.5,0.00143436995,-0.601611377,0.100405896,-0.792413099
926,2319317,1494110,0.95,-0.178,0.233,8,-3.3,-0.5,-5,29.4,-11.5,0.00155644398,-0.601672414,0.100283822,-0.79238258
927,2321416,1494110,0.954,-0.174,0.245,7.4,-3.7,-0.5,-5,29.4,-11.5,0.00164799951,-0.60176397,0.10013123,-0.792352062
928,2323618,1494120,0.954,-0.17,0.245,6.9,-4.1,-0.5,-5,29.4,-11.5,0.00173955504,-0.601825007,0.100009156,-0.792321543
929,2326776,1494120,0.954,-0.174,0.245,6.4,-4.5,-0.6,-4.8,29.6,-11.2,0.00183111057,-0.601916562,0.0998870815,-0.792260506
930,2328186,1494120,0.957,-0.17,0.245,5.8,-4.7,-0.7,-4.8,29.6,-11.2,0.00189214759,-0.601977599,0.0997650075,-0.792229987
931,2331295,1494120,0.961,-0.17,0.248,5.4,-4.9,-0.9,-4.8,29.6,-11.2,0.00195318461,-0.602069155,0.0996734519,-0.79216895
932,2334505,1494130,0.965,-0.17,0.252,5,-5.1,-1.2,-4.8,29.6,-11.2,0.00201422163,-0.60216071,0.0995818964,-0.792107913
933,2335805,1494130,0.961,-0.174,0.248,4.9,-5.2,-1.4,-5.3,29.5,-12.1,0.00207525864,-0.602252266,0.0994598224,-0.792046876
934,2340002,1494130,0.961,-0.166,0.252,4.9,-5.4,-1.5,-5.3,29.5,-12.1,0.00210577715,-0.602343822,0.0993682669,-0.791985839
935,2341985,1494130,0.958,-0.166,0.248,5.1,-5.6,-1.4,-5.3,29.5,-12.1,0.00216681417,-0.602465896,0.0992156743,-0.791924802
936,2344078,1494140,0.961,-0.166,0.252,5.2,-5.8,-1.3,-5.3,29.5,-12.1,0.00222785119,-0.602526933,0.0991546373,-0.791863765
937,2346220,1494140,0.969,-0.17,0.248,5.3,-6,-1,-5.2,29.5,-12.2,0.00234992523,-0.602679525,0.0991241188,-0.79177221
938,2348661,1494140,0.969,-0.17,0.248,5.5,-6.2,-0.9,-5.2,29.5,-12.2,0.00244148076,-0.602801599,0.0990020447,-0.791711173
939,2351005,1494140,0.961,-0.174,0.252,5.7,-6.4,-0.8,-5.2,29.5,-12.2,0.00250251778,-0.602893155,0.0988799707,-0.791619617
940,2353608,1494150,0.961,-0.182,0.252,6,-6.5,-0.7,-5.2,29.5,-12.2,0.00259407331,-0.603015229,0.0987884152,-0.79155858
941,2356153,1494150,0.961,-0.178,0.244,6.2,-6.4,-0.5,-5,29.7,-10.8,0.00268562883,-0.603137303,0.0986663411,-0.791497543
942,2358526,1494150,0.965,-0.178,0.244,6.5,-6.3,-0.2,-5,29.7,-10.8,0.00277718436,-0.603228858,0.0985442671,-0.791405988
943,2360853,1494150,0.961,-0.182,0.244,6.9,-6.3,0,-5,29.7,-10.8,0.00286873989,-0.603350932,0.0984221931,-0.791344951
944,2363454,1494160,0.961,-0.182,0.244,7.2,-6.4,0,-5,29.7,-10.8,0.00299081393,-0.603473006,0.098300119,-0.791283914
945,2367130,1494160,0.954,-0.186,0.241,7.5,-6.7,0.2,-4.8,29.7,-11.9,0.00311288797,-0.603564562,0.098178045,-0.791192358
946,2369470,1494160,0.957,-0.193,0.241,7.9,-6.9,0.4,-4.8,29.7,-11.9,0.003234962,-0.603686636,0.0980559709,-0.791131321
947,2371464,1494160,0.957,-0.197,0.241,8.1,-7,0.7,-4.8,29.7,-11.9,0.00335703604,-0.60380871,0.0979033784,-0.791039766
948,2373605,1494170,0.961,-0.201,0.241,8.5,-7.1,1,-4.8,29.7,-11.9,0.00350962859,-0.603930784,0.0977507859,-0.790978729
949,2376086,1494170,0.957,-0.205,0.241,8.7,-7.2,1.3,-5.3,29.3,-11.8,0.00366222114,-0.604052858,0.0976592303,-0.790887173
950,2378521,1494170,0.957,-0.209,0.245,9.1,-7.3,1.6,-5.3,29.3,-11.8,0.00381481368,-0.604174932,0.0975066378,-0.790826136
951,2382773,1494170,0.957,-0.205,0.241,9.3,-7.5,1.7,-5.3,29.3,-11.8,0.00399792474,-0.604297006,0.0973540452,-0.790734581
952,2384886,1494180,0.961,-0.213,0.237,9.5,-7.6,2.1,-5.3,29.3,-11.8,0.0041810358,-0.60441908,0.0972319712,-0.790673544
953,2387199,1494180,0.957,-0.213,0.237,9.6,-7.8,2.4,-5.4,29,-11.9,0.00436414686,-0.604571673,0.0971098972,-0.790581988
954,2388665,1494180,0.957,-0.225,0.233,9.8,-7.8,2.8,-5.4,29,-11.9,0.00454725791,-0.604693747,0.0969573046,-0.790490432
955,2391997,1494180,0.953,-0.221,0.237,9.8,-7.8,3.1,-5.4,29,-11.9,0.00476088748,-0.604815821,0.0968352306,-0.790429395
956,2394328,1494190,0.957,-0.225,0.237,9.9,-7.8,3.4,-5.4,29,-11.9,0.00497451704,-0.604937895,0.0967131565,-0.79033784
957,2396377,1494190,0.957,-0.221,0.241,10.1,-7.9,3.8,-5.4,28.6,-11.9,0.00601214637,-0.605151524,0.0976897488,-0.790032655
958,2398564,1494190,0.953,-0.225,0.241,10.1,-8,4.1,-5.4,28.6,-11.9,0.00625629444,-0.605273598,0.0975676748,-0.789971618
959,2402861,1494190,0.957,-0.217,0.241,10.2,-8.1,4.5,-5.4,28.6,-11.9,0.00646992401,-0.605395672,0.0974456008,-0.789880062
960,2403306,1494200,0.957,-0.229,0.241,10.3,-8.2,4.8,-5.4,28.6,-11.9,0.00671407208,-0.605548265,0.0973540452,-0.789788507
961,2407161,1494200,0.961,-0.221,0.245,10.3,-8.3,5.1,-5.2,30.5,-10.5,0.00695822016,-0.605670339,0.0972319712,-0.789696951
962,2409071,1494200,0.961,-0.217,0.241,10.3,-8.3,5.3,-5.2,30.5,-10.5,0.00720236824,-0.605792413,0.0971098972,-0.789605396
963,2411353,1494200,0.961,-0.221,0.248,10.5,-8.2,5.6,-5.2,30.5,-10.5,0.00744651631,-0.605914487,0.0970183416,-0.78951384
964,2413538,1494210,0.965,-0.221,0.241,10.6,-8,5.7,-5.2,30.5,-10.5,0.0077211829,-0.60606708,0.0968962676,-0.789422285
965,2417639,1494210,0.961,-0.221,0.241,10.7,-7.9,5.9,-5.1,28.9,-13.2,0.00799584948,-0.606189154,0.0967741935,-0.789361248
966,2419810,1494210,0.965,-0.221,0.248,10.9,-7.8,6.2,-5.1,28.9,-13.2,0.00823999756,-0.606311228,0.096682638,-0.789269692
967,2422357,1494210,0.969,-0.221,0.248,11.2,-7.5,6.4,-5.1,28.9,-13.2,0.00851466414,-0.606402783,0.0965910825,-0.789178137
968,2423987,1494220,0.969,-0.213,0.248,11.4,-7.2,6.5,-5.1,28.9,-13.2,0.00881984924,-0.606524857,0.0964690085,-0.7891171
969,2425927,1494220,0.977,-0.217,0.252,11.7,-6.7,6.7,-5.1,29.1,-13.3,0.00909451582,-0.606616413,0.0963469344,-0.789056063
970,2428415,1494220,0.977,-0.213,0.256,12,-6.3,6.9,-5.1,29.1,-13.3,0.00936918241,-0.606707968,0.0962248604,-0.788995025
971,2432379,1494220,0.977,-0.217,0.252,12.2,-6,7,-5.1,29.1,-13.3,0.0096743675,-0.606799524,0.0961027863,-0.788933988
972,2434872,1494230,0.981,-0.205,0.256,12.4,-5.6,7.1,-5.1,29.1,-13.3,0.0099795526,-0.606891079,0.0959807123,-0.788872951
973,2436983,1494230,0.977,-0.205,0.256,12.5,-5.1,7.3,-4.5,29.3,-13.5,0.0102847377,-0.606952116,0.0958891568,-0.788842433
974,2438975,1494230,0.981,-0.205,0.256,12.7,-4.6,7.4,-4.5,29.3,-13.5,0.0105899228,-0.607013153,0.0957670827,-0.788811914
975,2441211,1494230,0.985,-0.202,0.256,12.8,-4.1,7.5,-4.5,29.3,-13.5,0.0108951079,-0.60707419,0.0956450087,-0.788781396
976,2444643,1494240,0.985,-0.198,0.26,13.1,-3.6,7.5,-4.5,29.3,-13.5,0.011200293,-0.607104709,0.0954924162,-0.788750877
977,2446170,1494240,0.985,-0.194,0.256,13.4,-3.3,7.7,-4.9,29.3,-13.1,0.0117801447,-0.60707419,0.0956755272,-0.788750877
978,2450240,1494240,0.985,-0.194,0.256,13.8,-2.9,7.8,-4.9,29.3,-13.1,0.0120853298,-0.607104709,0.0955229347,-0.788750877
979,2452421,1494240,0.989,-0.19,0.252,14.1,-2.6,7.8,-4.9,29.3,-13.1,0.0124210334,-0.607135228,0.0954008606,-0.788720359
980,2454288,1494250,0.981,-0.186,0.256,14.3,-2.2,7.8,-4.9,29.3,-13.1,0.012756737,-0.607135228,0.0952482681,-0.788720359
981,2456505,1494250,0.985,-0.178,0.256,14.5,-1.7,7.9,-4.6,30.3,-11.7,0.0130924406,-0.607135228,0.0950956755,-0.788750877
982,2458776,1494250,0.977,-0.182,0.252,14.8,-1.2,8,-4.6,30.3,-11.7,0.0134281442,-0.607135228,0.094943083,-0.788750877
983,2461002,1494250,0.981,-0.174,0.252,15.1,-0.7,8.1,-4.6,30.3,-11.7,0.0137638478,-0.607135228,0.0947904904,-0.788781396
984,2463544,1494260,0.973,-0.174,0.252,15.6,-0.2,8.3,-4.6,30.3,-11.7,0.0141300699,-0.607135228,0.0946378979,-0.788781396
985,2467980,1494260,0.977,-0.17,0.256,16,0.1,8.5,-4.7,29.4,-12,0.0144657735,-0.607104709,0.0944853053,-0.788842433
986,2468318,1494260,0.973,-0.166,0.248,16.3,0.4,8.5,-4.7,29.4,-12,0.0148319956,-0.60707419,0.0943021943,-0.788872951
987,2472483,1494260,0.969,-0.17,0.252,16.7,0.7,8.6,-4.7,29.4,-12,0.0151982177,-0.607043672,0.0941496017,-0.78890347
988,2474730,1494270,0.965,-0.17,0.248,17,1.2,8.7,-4.7,29.4,-12,0.0155949583,-0.606982635,0.0939664907,-0.788964507
989,2476930,1494270,0.969,-0.17,0.244,17.5,1.6,8.8,-4.9,30,-12,0.0159611805,-0.606921598,0.0937833796,-0.788995025
990,2479036,1494270,0.965,-0.166,0.252,17.9,2,8.8,-4.9,30,-12,0.0163579211,-0.606860561,0.0935697501,-0.789056063
991,2481232,1494270,0.965,-0.17,0.24,18.3,2.3,8.8,-4.9,30,-12,0.0167241432,-0.606799524,0.0933561205,-0.789147618
992,2483453,1494280,0.958,-0.162,0.241,18.5,2.6,8.9,-4.9,30,-12,0.0170903653,-0.606738487,0.0932035279,-0.789208655
993,2485992,1494280,0.961,-0.166,0.241,18.7,2.7,9.1,-4.5,30.2,-12.3,0.0175481429,-0.60667745,0.0929898984,-0.789269692
994,2488278,1494280,0.957,-0.166,0.233,18.9,2.9,9.2,-4.5,30.2,-12.3,0.0179448836,-0.606585894,0.0927762688,-0.789361248
995,2492638,1494280,0.957,-0.166,0.233,19.1,3,9.4,-4.5,30.2,-12.3,0.0183111057,-0.606524857,0.0925931578,-0.789422285
