sample_index,elapsed_us,device_time_ms,acc_x_g,acc_y_g,acc_z_g,gyro_x_dps,gyro_y_dps,gyro_z_dps,mag_x_ut,mag_y_ut,mag_z_ut,quat_w,quat_x,quat_y,quat_z
0,5747,568750,0.956,0.339,0.129,-8.8,-1.7,-2.3,-11.3,-33.5,11.5,0.64311655,-0.131900998,-0.640705588,-0.398052919
1,7917,568750,0.956,0.339,0.129,-8.8,-1.7,-2.3,-11.3,-33.5,11.5,0.64311655,-0.131900998,-0.640705588,-0.398052919
2,9891,568750,0.96,0.339,0.129,-8.7,-1.6,-2.2,-11,-33.7,11.7,0.642902921,-0.132328257,-0.640797143,-0.398113956
3,12177,568750,0.956,0.339,0.129,-8.6,-1.5,-2.1,-11,-33.7,11.7,0.642841884,-0.132450331,-0.640736106,-0.398266549
4,14501,568760,0.96,0.343,0.133,-8.5,-1.4,-2.1,-11,-33.7,11.7,0.642780847,-0.132541887,-0.640705588,-0.398419141
5,18345,568760,0.956,0.343,0.129,-8.5,-1.2,-2.1,-11,-33.6,11.2,0.64271981,-0.132633442,-0.640644551,-0.398571734
6,20573,568760,0.96,0.343,0.129,-8.5,-1,-2,-11,-33.6,11.2,0.642658773,-0.132755516,-0.640583514,-0.398724326
7,22779,568760,0.964,0.339,0.133,-8.6,-0.9,-1.9,-11,-33.6,11.2,0.642597736,-0.132847072,-0.640522477,-0.3988464
8,25795,568770,0.964,0.343,0.133,-8.6,-0.9,-2,-11,-33.6,11.2,0.642536699,-0.132938627,-0.64046144,-0.398998993
9,28038,568770,0.964,0.339,0.129,-8.6,-0.9,-2.1,-11,-33.6,11.2,0.642475661,-0.133030183,-0.640430921,-0.399151585
10,30251,568770,0.96,0.331,0.129,-8.6,-0.9,-2.3,-11,-33.6,11.2,0.642414624,-0.133152257,-0.640369884,-0.399304178
11,33256,568770,0.96,0.331,0.133,-8.6,-0.9,-2.3,-11,-33.6,11.2,0.642353587,-0.133243812,-0.640308847,-0.399456771
12,34618,568780,0.96,0.331,0.133,-8.6,-0.9,-2.3,-11,-33.6,11.2,0.64229255,-0.133335368,-0.64024781,-0.399609363
13,37749,568780,0.964,0.327,0.129,-8.8,-0.7,-2.2,-10.8,-33.6,11,0.642262032,-0.133426923,-0.640186773,-0.399761956
14,40747,568780,0.964,0.327,0.133,-8.9,-0.6,-2.1,-10.8,-33.6,11,0.642200995,-0.133548997,-0.640125736,-0.399914548
15,42173,568780,0.96,0.32,0.129,-9,-0.6,-2.2,-10.8,-33.6,11,0.642139958,-0.133640553,-0.640064699,-0.400067141
16,44350,568790,0.96,0.32,0.129,-9.1,-0.5,-2.1,-10.8,-33.6,11,0.642078921,-0.133732109,-0.640003662,-0.400219733
17,47486,568790,0.96,0.327,0.129,-9.3,-0.4,-2.1,-10.7,-33.1,10.9,0.642048402,-0.133854183,-0.639942625,-0.400372326
18,50684,568790,0.96,0.316,0.129,-9.5,-0.3,-2,-10.7,-33.1,10.9,0.641987365,-0.133945738,-0.63985107,-0.400555437
19,52975,568790,0.96,0.32,0.129,-9.7,-0.3,-1.9,-10.7,-33.1,10.9,0.641926328,-0.134067812,-0.639790033,-0.400708029
20,55332,568800,0.96,0.32,0.129,-9.9,-0.3,-1.7,-10.7,-33.1,10.9,0.64189581,-0.134189886,-0.639698477,-0.400860622
21,57058,568800,0.96,0.32,0.129,-9.9,-0.3,-1.7,-10.7,-33.1,10.9,0.64189581,-0.134189886,-0.639698477,-0.400860622
22,59439,568800,0.96,0.316,0.129,-10.1,-0.2,-1.4,-10.6,-33.4,10.2,0.641773736,-0.134800256,-0.639698477,-0.400860622
23,63509,568800,0.96,0.32,0.129,-10.2,-0.1,-1.4,-10.6,-33.4,10.2,0.641743217,-0.13492233,-0.639606922,-0.401013215
24,66260,568810,0.956,0.316,0.129,-10.3,-0.1,-1.2,-10.6,-33.4,10.2,0.64168218,-0.135044404,-0.639515366,-0.401196326
25,68397,568810,0.964,0.32,0.129,-10.5,-0.1,-1,-11.1,-33.6,10.9,0.641651662,-0.135166478,-0.639423811,-0.401348918
26,70819,568810,0.96,0.316,0.133,-10.6,-0.1,-0.8,-11.1,-33.6,10.9,0.641590625,-0.135319071,-0.639332255,-0.401501511
27,72748,568810,0.964,0.316,0.129,-10.6,-0.2,-0.7,-11.1,-33.6,10.9,0.641560106,-0.135471664,-0.639271218,-0.401654103
28,74834,568820,0.964,0.32,0.129,-10.6,-0.2,-0.7,-11.1,-33.6,10.9,0.641529588,-0.135593738,-0.639179662,-0.401806696
29,77269,568820,0.968,0.32,0.129,-10.5,-0.1,-0.7,-11.1,-33.6,10.9,0.641499069,-0.13574633,-0.639088107,-0.401989807
30,79449,568820,0.968,0.323,0.129,-10.5,-0.1,-0.7,-11.1,-33.6,10.9,0.641438032,-0.135868404,-0.638996551,-0.402142399
31,82025,568820,0.972,0.327,0.129,-10.4,-0.1,-0.7,-11.1,-33.6,10.9,0.641407514,-0.136020997,-0.638904996,-0.402294992
32,84772,568830,0.972,0.32,0.129,-10.3,-0.1,-0.6,-11.1,-33.6,10.9,0.641376995,-0.136143071,-0.63881344,-0.402447584
33,87232,568830,0.972,0.323,0.129,-10.3,-0.1,-0.6,-10.8,-33.3,11.1,0.641346477,-0.136295663,-0.638721885,-0.402600177
34,89451,568830,0.972,0.327,0.133,-10.2,-0.1,-0.6,-10.8,-33.3,11.1,0.64128544,-0.136417737,-0.638660848,-0.40275277
35,93410,568830,0.975,0.323,0.133,-10,-0.2,-0.7,-10.8,-33.3,11.1,0.641254921,-0.136539811,-0.638569292,-0.402905362
36,95720,568840,0.975,0.323,0.133,-9.7,-0.2,-0.7,-10.8,-33.3,11.1,0.641224403,-0.136692404,-0.638477737,-0.403057955
37,97921,568840,0.975,0.323,0.133,-9.4,-0.2,-0.7,-10.7,-33.6,11.2,0.641163366,-0.136814478,-0.6384167,-0.403180029
38,99423,568840,0.972,0.327,0.133,-9.1,-0.3,-0.7,-10.7,-33.6,11.2,0.641132847,-0.136936552,-0.638325144,-0.403332621
39,102019,568840,0.968,0.323,0.133,-8.9,-0.5,-0.6,-10.7,-33.6,11.2,0.641102329,-0.137058626,-0.638264107,-0.403454695
40,105276,568850,0.968,0.323,0.133,-8.7,-0.5,-0.5,-10.7,-33.6,11.2,0.64107181,-0.137150182,-0.63820307,-0.403576769
41,107320,568850,0.968,0.323,0.133,-8.7,-0.5,-0.5,-10.7,-33.6,11.2,0.64107181,-0.137150182,-0.63820307,-0.403576769
42,109518,568850,0.964,0.331,0.133,-8.2,-0.7,-0.1,-11.1,-33.7,11.2,0.640980255,-0.137607959,-0.638172552,-0.403607288
43,113221,568850,0.964,0.323,0.137,-7.9,-0.8,0.1,-11.1,-33.7,11.2,0.640949736,-0.137730033,-0.638111515,-0.403729362
44,115260,568860,0.964,0.323,0.137,-7.5,-0.8,0.5,-11.1,-33.7,11.2,0.640919218,-0.137852107,-0.638050478,-0.403820917
45,117863,568860,0.968,0.335,0.137,-7.3,-0.9,0.8,-10.9,-33.5,11.2,0.640888699,-0.137974181,-0.637989441,-0.403912473
46,120599,568860,0.956,0.339,0.137,-7,-0.9,1.1,-10.9,-33.5,11.2,0.64085818,-0.138096255,-0.637928404,-0.40397351
47,122821,568860,0.952,0.335,0.137,-6.8,-0.9,1.2,-10.9,-33.5,11.2,0.640827662,-0.138218329,-0.637897885,-0.404065065
48,124948,568870,0.948,0.339,0.141,-6.5,-1,1.3,-10.9,-33.5,11.2,0.640827662,-0.138340403,-0.637836848,-0.404126102
49,127078,568870,0.944,0.343,0.137,-6.3,-1,1.5,-10.9,-33.5,11.2,0.640797143,-0.138462477,-0.63780633,-0.40418714
50,129332,568870,0.94,0.343,0.134,-6,-1.2,1.8,-10.9,-33.5,11.2,0.640766625,-0.138584552,-0.637745293,-0.404248177
51,133538,568870,0.936,0.339,0.145,-5.8,-1.2,2,-10.9,-33.5,11.2,0.640766625,-0.138706626,-0.637684256,-0.404278695
52,135591,568880,0.932,0.343,0.146,-5.6,-1.2,2.2,-10.9,-33.5,11.2,0.640736106,-0.1388287,-0.637684256,-0.404339732
53,137109,568880,0.925,0.347,0.146,-5.2,-1.2,2.5,-10.8,-33.6,11.1,0.640736106,-0.138950774,-0.637653737,-0.404370251
54,139479,568880,0.917,0.344,0.142,-4.9,-1.1,2.6,-10.8,-33.6,11.1,0.640736106,-0.139072848,-0.6375927,-0.404400769
55,143711,568880,0.921,0.347,0.142,-4.6,-1.2,2.8,-10.8,-33.6,11.1,0.640705588,-0.139194922,-0.637562181,-0.404400769
56,146026,568890,0.913,0.344,0.146,-4.6,-1.2,2.7,-10.8,-33.6,11.1,0.640705588,-0.139286477,-0.637531663,-0.404431288
57,148810,568890,0.909,0.348,0.142,-4.7,-1.2,2.8,-11,-33.6,10.6,0.640705588,-0.139408551,-0.637501144,-0.404461806
58,151077,568890,0.909,0.344,0.146,-5,-1.4,2.8,-11,-33.6,10.6,0.640705588,-0.139530625,-0.637470626,-0.404492325
59,153332,568890,0.905,0.344,0.138,-5.2,-1.4,3,-11,-33.6,10.6,0.640675069,-0.139683218,-0.637440107,-0.404522843
60,155538,568900,0.897,0.344,0.146,-5.4,-1.5,3.1,-11,-33.6,10.6,0.640675069,-0.139805292,-0.637409589,-0.404553362
61,158110,568900,0.897,0.344,0.146,-5.4,-1.5,3.1,-11,-33.6,10.6,0.640675069,-0.139805292,-0.637409589,-0.404553362
62,160295,568900,0.901,0.344,0.138,-6,-2,3.5,-10.8,-33.4,10.5,0.640614032,-0.140018921,-0.637348552,-0.404644917
63,161995,568900,0.897,0.34,0.138,-6,-2,3.5,-10.8,-33.4,10.5,0.640583514,-0.140171514,-0.637318033,-0.404675436
64,164682,568910,0.897,0.348,0.134,-6.4,-2.2,3.8,-10.8,-33.4,10.5,0.640583514,-0.140324107,-0.637287515,-0.404705954
65,169067,568910,0.897,0.34,0.134,-6.8,-2.2,3.9,-10.7,-33.7,10.7,0.640552995,-0.140507218,-0.637226478,-0.404736473
66,169460,568910,0.901,0.344,0.134,-7.2,-2.2,4,-10.7,-33.7,10.7,0.640552995,-0.140690329,-0.637195959,-0.404766991
67,171996,568910,0.909,0.344,0.134,-7.8,-2.1,3.8,-10.7,-33.7,10.7,0.640522477,-0.140842921,-0.637134922,-0.404828028
68,174681,568920,0.905,0.34,0.138,-8.3,-2.1,3.7,-10.7,-33.7,10.7,0.640491958,-0.141056551,-0.637073885,-0.404889065
69,177003,568920,0.909,0.344,0.134,-8.9,-2.1,3.6,-10.7,-33.7,10.7,0.640491958,-0.141239662,-0.637012848,-0.404950102
70,180360,568920,0.909,0.344,0.134,-9.4,-2.1,3.5,-10.7,-33.7,10.7,0.64046144,-0.141453291,-0.636951811,-0.405041658
71,182147,568920,0.917,0.332,0.134,-9.9,-2.2,3.5,-10.7,-33.7,10.7,0.640430921,-0.141666921,-0.636890774,-0.405102695
72,184525,568930,0.921,0.34,0.134,-10.5,-2.3,3.4,-10.7,-33.7,10.7,0.640369884,-0.141880551,-0.636829737,-0.40519425
73,186943,568930,0.925,0.336,0.134,-11.1,-2.5,3.3,-10.8,-33.5,10.2,0.640339366,-0.14209418,-0.636738182,-0.405316324
74,189368,568930,0.925,0.328,0.134,-11.7,-2.6,3,-10.8,-33.5,10.2,0.640308847,-0.142338328,-0.636677145,-0.40540788
75,192894,568930,0.925,0.32,0.134,-12.3,-2.7,2.7,-10.8,-33.5,10.2,0.64024781,-0.142551958,-0.636585589,-0.405529954
76,195247,568940,0.933,0.324,0.134,-12.9,-2.6,2.2,-10.8,-33.5,10.2,0.640186773,-0.142796106,-0.636494034,-0.405682546
77,197255,568940,0.933,0.32,0.133,-13.4,-2.6,1.7,-11.2,-33.7,10,0.640125736,-0.143040254,-0.636402478,-0.405835139
78,199576,568940,0.936,0.316,0.133,-14,-2.6,1.1,-11.2,-33.7,10,0.640064699,-0.143284402,-0.636310923,-0.40601825
79,201941,568940,0.933,0.312,0.133,-14.4,-2.6,0.7,-11.2,-33.7,10,0.639973144,-0.143498032,-0.636219367,-0.406201361
80,205082,568950,0.936,0.308,0.133,-14.9,-2.6,0.4,-11.2,-33.7,10,0.639912107,-0.14374218,-0.636127812,-0.406384472
81,207009,568950,0.936,0.308,0.133,-14.9,-2.6,0.4,-11.2,-33.7,10,0.639912107,-0.14374218,-0.636127812,-0.406384472
82,210199,568950,0.94,0.304,0.133,-16.5,-2.6,0.1,-10.7,-33.4,10.5,0.639698477,-0.144383068,-0.635975219,-0.406689657
83,213181,568950,0.936,0.296,0.133,-16.5,-2.6,0.1,-10.7,-33.4,10.5,0.63963744,-0.144627216,-0.635883663,-0.406903287
84,214541,568960,0.936,0.296,0.133,-16.9,-2.5,0,-10.7,-33.4,10.5,0.639545885,-0.144901883,-0.635761589,-0.407147435
85,217480,568960,0.936,0.292,0.133,-17.2,-2.5,-0.2,-10.7,-33.3,10.1,0.639454329,-0.145146031,-0.635639515,-0.407361064
86,219454,568960,0.94,0.288,0.133,-17.3,-2.5,-0.3,-10.7,-33.3,10.1,0.639362774,-0.145420698,-0.635517441,-0.407605213
87,222642,568960,0.936,0.292,0.133,-17.4,-2.4,-0.3,-10.7,-33.3,10.1,0.639271218,-0.145664846,-0.635395367,-0.407849361
88,225646,568970,0.936,0.288,0.133,-17.4,-2.4,-0.2,-10.7,-33.3,10.1,0.639179662,-0.145939512,-0.635273293,-0.408093509
89,227014,568970,0.94,0.285,0.133,-17.1,-2.3,0.1,-10.7,-33.3,10.1,0.639088107,-0.146214179,-0.635151219,-0.408307138
90,230132,568970,0.936,0.292,0.129,-16.9,-2.4,0.2,-10.7,-33.3,10.1,0.638996551,-0.146458327,-0.635029145,-0.408520768
91,232256,568970,0.94,0.285,0.133,-16.6,-2.4,0.3,-10.7,-33.3,10.1,0.638904996,-0.146702475,-0.63493759,-0.408764916
92,234464,568980,0.94,0.285,0.129,-16.3,-2.4,0.2,-10.7,-33.3,10.1,0.63881344,-0.146977142,-0.634815516,-0.408978545
93,237678,568980,0.94,0.281,0.129,-16,-2.3,0.1,-10.5,-33.3,10.5,0.638752403,-0.14722129,-0.634693442,-0.409192175
94,239675,568980,0.933,0.285,0.129,-15.6,-2.3,0.1,-10.5,-33.3,10.5,0.638660848,-0.147465438,-0.634601886,-0.409375286
95,242047,568980,0.944,0.288,0.129,-15.3,-2.3,0,-10.5,-33.3,10.5,0.638569292,-0.147679067,-0.634479812,-0.409588916
96,244332,568990,0.94,0.288,0.129,-14.9,-2.2,0,-10.5,-33.3,10.5,0.638508255,-0.147923215,-0.634388256,-0.409802545
97,246800,568990,0.94,0.281,0.133,-14.4,-2.2,0,-10.6,-33.3,10.3,0.6384167,-0.148136845,-0.634296701,-0.409985656
98,250453,568990,0.94,0.285,0.129,-13.9,-2.2,0.1,-10.6,-33.3,10.3,0.638355663,-0.148350475,-0.634205145,-0.410168767
99,251958,568990,0.94,0.285,0.133,-13.5,-2.1,0.2,-10.6,-33.3,10.3,0.638264107,-0.148564104,-0.63411359,-0.410351878
100,255312,569000,0.94,0.285,0.129,-13.2,-2.2,0.3,-10.6,-33.3,10.3,0.63820307,-0.148777734,-0.634022034,-0.410534989
101,257672,569000,0.94,0.285,0.129,-13.2,-2.2,0.3,-10.6,-33.3,10.3,0.63820307,-0.148777734,-0.634022034,-0.410534989
102,259715,569000,0.94,0.285,0.129,-12.3,-2.5,0.5,-10.7,-33.3,10.1,0.638172552,-0.149845882,-0.633960997,-0.410290841
103,261945,569000,0.936,0.289,0.129,-11.7,-2.7,0.6,-10.7,-33.3,10.1,0.638111515,-0.150059511,-0.63389996,-0.410412915
104,264479,569010,0.936,0.289,0.129,-11.3,-2.8,0.7,-10.7,-33.3,10.1,0.638019959,-0.150242622,-0.633777886,-0.410565508
105,268894,569010,0.94,0.285,0.129,-10.9,-2.9,1.1,-10.6,-33.3,9.8,0.637958922,-0.150425733,-0.633777886,-0.410687582
106,270915,569010,0.936,0.292,0.129,-10.6,-3.1,1.4,-10.6,-33.3,9.8,0.637897885,-0.150608844,-0.633716849,-0.410809656
107,272240,569010,0.936,0.292,0.129,-10.3,-3.2,1.7,-10.6,-33.3,9.8,0.637836848,-0.150822474,-0.633655812,-0.410901212
108,275220,569020,0.936,0.296,0.129,-10,-3.3,1.8,-10.6,-33.3,9.8,0.637775811,-0.151036103,-0.633594775,-0.411023286
109,278320,569020,0.933,0.3,0.129,-9.6,-3.3,1.8,-10.6,-33.3,9.8,0.637684256,-0.151219214,-0.633564257,-0.411114841
110,280588,569020,0.936,0.304,0.129,-9.3,-3.3,2.1,-10.6,-33.3,9.8,0.637653737,-0.151402326,-0.63350322,-0.411206397
111,282765,569020,0.936,0.304,0.129,-8.9,-3.3,2.4,-10.6,-33.3,9.8,0.6375927,-0.151585437,-0.633472701,-0.411267434
112,285771,569030,0.933,0.308,0.129,-8.6,-3.3,2.7,-10.6,-33.3,9.8,0.637562181,-0.151799066,-0.633442183,-0.411358989
113,288019,569030,0.936,0.312,0.129,-8.2,-3.4,2.8,-11.1,-33.2,10.4,0.637501144,-0.151982177,-0.633381146,-0.411420026
114,289448,569030,0.933,0.312,0.129,-7.9,-3.4,2.8,-11.1,-33.2,10.4,0.637440107,-0.152165288,-0.633350627,-0.411481063
115,292504,569030,0.936,0.316,0.133,-7.5,-3.3,2.6,-11.1,-33.2,10.4,0.637409589,-0.152317881,-0.633320109,-0.411511582
116,295387,569040,0.94,0.32,0.129,-7.2,-3.3,2.3,-11.1,-33.2,10.4,0.637348552,-0.152500992,-0.63328959,-0.411572619
117,296813,569040,0.94,0.328,0.133,-6.8,-3.3,2.2,-10.9,-33.6,10.6,0.637318033,-0.152653584,-0.63328959,-0.411633656
118,299678,569040,0.94,0.32,0.129,-6.4,-3.4,2.2,-10.9,-33.6,10.6,0.637256996,-0.152806177,-0.633259072,-0.411664174
119,302677,569040,0.94,0.316,0.133,-6.2,-3.4,2.1,-10.9,-33.6,10.6,0.637195959,-0.152928251,-0.633259072,-0.411725211
120,305591,569050,0.944,0.32,0.129,-6,-3.4,1.8,-10.9,-33.6,10.6,0.637165441,-0.153080844,-0.633228553,-0.41175573
121,307890,569050,0.944,0.32,0.129,-6,-3.4,1.8,-10.9,-33.6,10.6,0.637165441,-0.153080844,-0.633228553,-0.41175573
122,310257,569050,0.944,0.32,0.129,-5.8,-3.3,1.3,-10.6,-33.5,10.2,0.636951811,-0.153447066,-0.633381146,-0.41175573
123,312158,569050,0.944,0.316,0.133,-5.8,-3.2,1,-10.6,-33.5,10.2,0.636890774,-0.153538621,-0.633350627,-0.411816767
124,315200,569060,0.952,0.308,0.129,-5.8,-3,0.7,-10.6,-33.5,10.2,0.636829737,-0.153691214,-0.633350627,-0.411877804
125,318309,569060,0.952,0.312,0.129,-6.1,-2.9,0.6,-10.7,-34.1,10.7,0.636799219,-0.153813288,-0.633320109,-0.411938841
126,320545,569060,0.948,0.308,0.133,-6.4,-2.7,0.4,-10.7,-34.1,10.7,0.636738182,-0.153935362,-0.633320109,-0.411999878
127,322788,569060,0.948,0.3,0.129,-6.6,-2.7,0.3,-10.7,-34.1,10.7,0.636677145,-0.154057436,-0.63328959,-0.412091433
128,325168,569070,0.956,0.3,0.129,-6.8,-2.7,0.2,-10.7,-34.1,10.7,0.636616108,-0.15417951,-0.633259072,-0.412182989
129,327109,569070,0.956,0.3,0.129,-7,-2.7,0.1,-10.7,-34.1,10.7,0.636555071,-0.154301584,-0.633228553,-0.412244026
130,329364,569070,0.952,0.292,0.129,-7.2,-2.8,0.1,-10.7,-34.1,10.7,0.636494034,-0.154423658,-0.633198035,-0.412335582
131,331942,569070,0.952,0.288,0.129,-7.6,-2.7,0.1,-10.7,-34.1,10.7,0.636432997,-0.154515213,-0.633167516,-0.412427137
132,336446,569080,0.956,0.288,0.129,-7.8,-2.7,0.1,-10.7,-34.1,10.7,0.63637196,-0.154698325,-0.633136998,-0.412549211
133,338697,569080,0.952,0.288,0.129,-8,-2.7,0.1,-10.9,-33.7,10.6,0.636310923,-0.154820399,-0.633106479,-0.412640767
134,340687,569080,0.96,0.284,0.129,-8.1,-2.5,0,-10.9,-33.7,10.6,0.636249886,-0.154972991,-0.633075961,-0.412732322
135,343078,569080,0.964,0.284,0.129,-8.1,-2.5,-0.2,-10.9,-33.7,10.6,0.63615833,-0.155095065,-0.633045442,-0.412854396
136,345232,569090,0.956,0.28,0.129,-8,-2.4,-0.4,-10.9,-33.7,10.6,0.636097293,-0.155217139,-0.632984405,-0.412945952
137,347206,569090,0.964,0.28,0.132,-7.9,-2.4,-0.4,-10.7,-33.2,10.5,0.636036256,-0.155369732,-0.632953887,-0.413068026
138,349458,569090,0.964,0.276,0.132,-7.7,-2.4,-0.4,-10.7,-33.2,10.5,0.635975219,-0.155491806,-0.632923368,-0.413159581
139,352592,569090,0.968,0.28,0.132,-7.5,-2.4,-0.4,-10.7,-33.2,10.5,0.635914182,-0.15561388,-0.63289285,-0.413281655
140,355643,569100,0.968,0.272,0.132,-7.3,-2.4,-0.5,-10.7,-33.2,10.5,0.635853145,-0.155705435,-0.632862331,-0.413373211
141,357822,569100,0.968,0.272,0.132,-7.3,-2.4,-0.5,-10.7,-33.2,10.5,0.635853145,-0.155705435,-0.632862331,-0.413373211
142,360734,569100,0.972,0.28,0.132,-7,-2.4,-0.6,-10.8,-33.4,10.5,0.635853145,-0.156559954,-0.632862331,-0.413068026
143,362207,569100,0.976,0.28,0.132,-6.8,-2.3,-0.5,-10.8,-33.4,10.5,0.635792108,-0.156651509,-0.632831812,-0.413159581
144,364418,569110,0.976,0.276,0.132,-6.5,-2.2,-0.5,-10.8,-33.4,10.5,0.635731071,-0.156773583,-0.632801294,-0.413251137
145,367976,569110,0.979,0.276,0.132,-6.2,-2.2,-0.3,-11.1,-33.6,9.9,0.635670034,-0.156865139,-0.632801294,-0.413312174
146,369911,569110,0.979,0.28,0.132,-5.8,-2.2,-0.3,-11.1,-33.6,9.9,0.635608997,-0.156956694,-0.632770775,-0.413403729
147,372051,569110,0.979,0.276,0.132,-5.4,-2.2,-0.3,-11.1,-33.6,9.9,0.635578478,-0.15704825,-0.632740257,-0.413464766
148,375038,569120,0.979,0.276,0.136,-4.9,-2.2,-0.5,-11.1,-33.6,9.9,0.635517441,-0.157139805,-0.632740257,-0.413556322
149,377760,569120,0.976,0.28,0.132,-4.3,-2.3,-0.6,-10.8,-33.6,10.7,0.635456404,-0.157200842,-0.632740257,-0.41358684
150,379373,569120,0.979,0.284,0.136,-3.6,-2.3,-0.5,-10.8,-33.6,10.7,0.635395367,-0.157261879,-0.632740257,-0.413647877
151,383382,569120,0.979,0.28,0.136,-3.1,-2.3,-0.3,-10.8,-33.6,10.7,0.635364849,-0.157322916,-0.632740257,-0.413678396
152,385254,569130,0.976,0.288,0.132,-2.5,-2.4,0,-10.8,-33.6,10.7,0.63533433,-0.157383953,-0.632740257,-0.413708914
153,386855,569130,0.972,0.288,0.136,-2,-2.5,0.1,-10.5,-33.8,10.4,0.635273293,-0.15744499,-0.632770775,-0.413739433
154,390529,569130,0.972,0.292,0.132,-1.5,-2.7,0.3,-10.5,-33.8,10.4,0.635242775,-0.157506027,-0.632801294,-0.413739433
155,392027,569130,0.968,0.296,0.133,-1.1,-2.7,0.4,-10.5,-33.8,10.4,0.635212256,-0.157536546,-0.632801294,-0.413739433
156,395299,569140,0.972,0.304,0.137,-0.7,-2.5,0.6,-10.5,-33.8,10.4,0.635181738,-0.157597583,-0.632831812,-0.413739433
157,397383,569140,0.968,0.304,0.137,-0.2,-2.4,0.9,-10.8,-33.6,10.5,0.635151219,-0.157628101,-0.632862331,-0.413708914
158,399801,569140,0.968,0.308,0.137,0.1,-2.3,1.2,-10.8,-33.6,10.5,0.635120701,-0.15765862,-0.63289285,-0.413678396
159,403755,569140,0.964,0.316,0.141,0.6,-2.1,1.4,-10.8,-33.6,10.5,0.635120701,-0.157689138,-0.632923368,-0.413647877
160,406496,569150,0.964,0.323,0.137,1.1,-2.1,1.6,-10.8,-33.6,10.5,0.635090182,-0.157719657,-0.632953887,-0.413617359
161,408096,569150,0.964,0.323,0.137,1.1,-2.1,1.6,-10.8,-33.6,10.5,0.635090182,-0.157719657,-0.632953887,-0.413617359
162,410404,569150,0.956,0.331,0.141,1.9,-1.8,1.8,-10.7,-33.7,10.2,0.635090182,-0.157933287,-0.633106479,-0.413312174
163,412622,569150,0.952,0.327,0.145,2.3,-1.5,1.9,-10.7,-33.7,10.2,0.635090182,-0.157963805,-0.633167516,-0.413251137
164,415945,569160,0.952,0.335,0.149,2.8,-1.3,1.9,-10.7,-33.7,10.2,0.635090182,-0.157963805,-0.633198035,-0.4131901
165,417991,569160,0.948,0.335,0.145,3.2,-1.3,1.9,-10.8,-33.9,10.2,0.635090182,-0.157933287,-0.633228553,-0.413098544
166,420357,569160,0.944,0.347,0.145,3.5,-1.3,2,-10.8,-33.9,10.2,0.635120701,-0.157933287,-0.63328959,-0.413037507
167,422479,569160,0.94,0.343,0.149,3.7,-1.3,2.1,-10.8,-33.9,10.2,0.635120701,-0.157933287,-0.633320109,-0.412945952
168,424596,569170,0.94,0.347,0.153,3.7,-1.5,2.2,-10.8,-33.9,10.2,0.635151219,-0.157902768,-0.633381146,-0.412854396
169,427028,569170,0.936,0.355,0.153,3.5,-1.5,2.3,-11,-33.7,10.5,0.635151219,-0.157902768,-0.633411664,-0.412762841
170,430983,569170,0.928,0.351,0.157,3.1,-1.3,2.3,-11,-33.7,10.5,0.635151219,-0.157902768,-0.633442183,-0.412671285
171,433519,569170,0.925,0.355,0.158,2.6,-1.1,2.1,-11,-33.7,10.5,0.635181738,-0.157902768,-0.633472701,-0.41257973
172,435970,569180,0.921,0.347,0.161,2.1,-0.9,1.9,-11,-33.7,10.5,0.635181738,-0.157933287,-0.63350322,-0.412549211
173,437993,569180,0.913,0.351,0.162,1.7,-0.9,1.6,-10.9,-34.1,10.9,0.635212256,-0.157933287,-0.633533738,-0.412518693
174,439444,569180,0.909,0.351,0.166,1.4,-0.9,1.4,-10.9,-34.1,10.9,0.635212256,-0.157933287,-0.633564257,-0.412457656
175,443466,569180,0.909,0.347,0.166,1,-1,1.3,-10.9,-34.1,10.9,0.635212256,-0.157963805,-0.633564257,-0.412427137
176,445187,569190,0.909,0.347,0.166,0.6,-1.1,1.3,-10.9,-34.1,10.9,0.635212256,-0.157963805,-0.633594775,-0.412396619
177,446963,569190,0.905,0.347,0.17,0.2,-1.2,1.4,-10.7,-33.7,10.8,0.635212256,-0.157994324,-0.633594775,-0.4123661
178,450138,569190,0.901,0.343,0.17,-0.1,-1.1,1.6,-10.7,-33.7,10.8,0.635212256,-0.158024842,-0.633625294,-0.412335582
179,451755,569190,0.901,0.343,0.166,-0.5,-1.1,1.8,-10.7,-33.7,10.8,0.635181738,-0.158085879,-0.633625294,-0.412305063
180,454434,569200,0.909,0.343,0.166,-0.9,-1.1,1.8,-10.7,-33.7,10.8,0.635181738,-0.158116398,-0.633625294,-0.412305063
181,458727,569200,0.909,0.343,0.166,-0.9,-1.1,1.8,-10.7,-33.7,10.8,0.635181738,-0.158116398,-0.633625294,-0.412305063
182,460269,569200,0.905,0.339,0.169,-2.1,-1,1.3,-10.7,-33.9,10.6,0.635181738,-0.158055361,-0.633533738,-0.412457656
183,461919,569200,0.905,0.343,0.166,-2.7,-0.9,1.1,-10.7,-33.9,10.6,0.635181738,-0.158116398,-0.633533738,-0.412488174
184,464278,569210,0.905,0.343,0.166,-3.2,-0.8,1,-10.7,-33.9,10.6,0.635151219,-0.158207953,-0.63350322,-0.412518693
185,466798,569210,0.909,0.339,0.165,-3.6,-0.8,1.1,-10.3,-33.5,10.8,0.635151219,-0.15826899,-0.633472701,-0.412549211
186,470842,569210,0.913,0.343,0.154,-3.9,-0.9,1,-10.3,-33.5,10.8,0.635120701,-0.158360546,-0.633442183,-0.41257973
187,472667,569210,0.913,0.339,0.161,-4.2,-1.2,0.9,-10.3,-33.5,10.8,0.635090182,-0.158421583,-0.633442183,-0.41257973
188,475997,569220,0.917,0.335,0.157,-4.3,-1.4,0.8,-10.3,-33.5,10.8,0.635090182,-0.158513138,-0.633411664,-0.412671285
189,477993,569220,0.913,0.347,0.158,-4.4,-1.7,0.8,-10.9,-33.5,10.4,0.635059664,-0.158604694,-0.633381146,-0.412701804
190,479391,569220,0.913,0.343,0.154,-4.4,-2.1,1,-10.9,-33.5,10.4,0.634998627,-0.158696249,-0.633381146,-0.412732322
191,482607,569220,0.925,0.347,0.157,-4.3,-2.4,1.1,-10.9,-33.5,10.4,0.634968108,-0.158787805,-0.633381146,-0.412762841
192,484804,569230,0.928,0.351,0.157,-4.1,-2.9,1.3,-10.9,-33.5,10.4,0.63493759,-0.158909879,-0.633350627,-0.412793359
193,487795,569230,0.932,0.355,0.161,-4.1,-3.2,1.4,-10.6,-33.8,10.5,0.634876553,-0.159001434,-0.633381146,-0.412823878
194,490445,569230,0.932,0.359,0.157,-4.1,-3.5,1.4,-10.6,-33.8,10.5,0.634815516,-0.159123508,-0.633381146,-0.412854396
195,493091,569230,0.936,0.359,0.15,-4.2,-3.7,1.4,-10.6,-33.8,10.5,0.634784997,-0.159245582,-0.633381146,-0.412884915
196,494468,569240,0.936,0.359,0.157,-4.4,-4,1.2,-10.6,-33.8,10.5,0.63472396,-0.159337138,-0.633411664,-0.412915433
197,497742,569240,0.94,0.359,0.161,-4.7,-4.3,0.9,-11.1,-34.1,10.4,0.634662923,-0.159459212,-0.633411664,-0.412945952
198,499286,569240,0.94,0.355,0.157,-4.9,-4.6,0.6,-11.1,-34.1,10.4,0.634571368,-0.159581286,-0.633442183,-0.413006989
199,503431,569240,0.94,0.363,0.157,-5.2,-4.8,0.3,-11.1,-34.1,10.4,0.634479812,-0.15970336,-0.633442183,-0.413037507
200,505112,569250,0.94,0.355,0.157,-5.5,-5,0.1,-11.1,-34.1,10.4,0.634388256,-0.159825434,-0.633472701,-0.413098544
201,508187,569250,0.94,0.355,0.157,-5.5,-5,0.1,-11.1,-34.1,10.4,0.634388256,-0.159825434,-0.633472701,-0.413098544
202,510595,569250,0.944,0.367,0.157,-6.1,-5.4,0,-10.6,-34.1,10.9,0.634174627,-0.15991699,-0.63350322,-0.413373211
203,512198,569250,0.944,0.359,0.165,-6.4,-5.4,0,-10.6,-34.1,10.9,0.634083071,-0.160069582,-0.63350322,-0.413434248
204,515184,569260,0.944,0.362,0.165,-6.6,-5.3,-0.4,-10.6,-34.1,10.9,0.633960997,-0.160191656,-0.633533738,-0.413525803
205,517487,569260,0.94,0.363,0.157,-7,-5.1,-0.8,-10.9,-33.6,10.6,0.633869442,-0.16031373,-0.633533738,-0.413617359
206,519599,569260,0.94,0.366,0.165,-7.4,-5,-1.3,-10.9,-33.6,10.6,0.633777886,-0.160466323,-0.633533738,-0.413708914
207,521885,569260,0.936,0.367,0.157,-7.8,-4.8,-1.7,-10.9,-33.6,10.6,0.633655812,-0.160588397,-0.633564257,-0.413830988
208,525766,569270,0.928,0.363,0.165,-8.1,-4.7,-1.8,-10.9,-33.6,10.6,0.633533738,-0.160710471,-0.633533738,-0.413953063
209,527350,569270,0.928,0.367,0.169,-8.2,-4.7,-1.6,-10.6,-33.9,10.1,0.633442183,-0.160832545,-0.633533738,-0.414075137
210,529604,569270,0.928,0.363,0.165,-8.1,-5,-1.2,-10.6,-33.9,10.1,0.633320109,-0.160985137,-0.633533738,-0.414197211
211,531771,569270,0.925,0.359,0.169,-7.7,-5.2,-0.6,-10.6,-33.9,10.1,0.633228553,-0.16113773,-0.633564257,-0.414288766
212,534469,569280,0.925,0.367,0.169,-7.2,-5.4,0,-10.6,-33.9,10.1,0.633106479,-0.161290323,-0.633564257,-0.414349803
213,538547,569280,0.921,0.367,0.173,-6.8,-5.4,0.3,-10.9,-34,10.5,0.633014924,-0.161442915,-0.633564257,-0.414441359
214,540193,569280,0.921,0.367,0.173,-6.6,-5.4,0.7,-10.9,-34,10.5,0.632923368,-0.161595508,-0.633594775,-0.414502396
215,543291,569280,0.913,0.371,0.178,-6.6,-5.4,1,-10.9,-34,10.5,0.632831812,-0.1617481,-0.633594775,-0.414532914
216,545846,569290,0.913,0.374,0.185,-6.4,-5.3,1.3,-10.9,-34,10.5,0.632740257,-0.161900693,-0.633594775,-0.414593951
217,547965,569290,0.913,0.371,0.178,-6.3,-5.3,1.4,-10.8,-33.8,10.6,0.63267922,-0.162053285,-0.633625294,-0.414654988
218,550331,569290,0.917,0.374,0.189,-6,-5.3,1.6,-10.8,-33.8,10.6,0.632587664,-0.162205878,-0.633625294,-0.414685507
219,552152,569290,0.909,0.382,0.193,-5.8,-5.4,1.5,-10.8,-33.8,10.6,0.632496109,-0.162327952,-0.633655812,-0.414746544
220,554462,569300,0.913,0.382,0.197,-5.7,-5.4,1.3,-10.8,-33.8,10.6,0.632435072,-0.162511063,-0.633686331,-0.414777062
221,557001,569300,0.913,0.382,0.197,-5.7,-5.4,1.3,-10.8,-33.8,10.6,0.632435072,-0.162511063,-0.633686331,-0.414777062
222,559707,569300,0.905,0.386,0.194,-5.7,-5.3,0.6,-10.5,-33.8,10.7,0.632282479,-0.162266915,-0.63350322,-0.415356914
223,563305,569300,0.905,0.382,0.201,-5.6,-5.2,0.2,-10.5,-33.8,10.7,0.632190924,-0.162388989,-0.633533738,-0.415417951
224,564601,569310,0.897,0.378,0.201,-5.5,-5.3,-0.1,-10.5,-33.8,10.7,0.632099368,-0.162511063,-0.633533738,-0.415478988
225,567786,569310,0.905,0.382,0.201,-5.4,-5.5,-0.3,-10.8,-33.8,11.1,0.631977294,-0.162633137,-0.633564257,-0.415540025
226,569348,569310,0.901,0.386,0.201,-5.3,-5.7,-0.7,-10.8,-33.8,11.1,0.631885739,-0.162755211,-0.633594775,-0.415601062
227,572249,569310,0.901,0.386,0.201,-5.3,-5.8,-1,-10.8,-33.8,11.1,0.631763665,-0.162846767,-0.633655812,-0.415662099
228,575379,569320,0.901,0.382,0.197,-5.5,-5.8,-1.3,-10.8,-33.8,11.1,0.631672109,-0.162968841,-0.633686331,-0.415753655
229,576799,569320,0.901,0.386,0.201,-5.8,-5.9,-1.7,-10.6,-34,9.5,0.631550035,-0.163090915,-0.633716849,-0.415814692
230,579675,569320,0.901,0.39,0.209,-6.3,-6.2,-1.8,-10.6,-34,9.5,0.631397443,-0.163212989,-0.633747368,-0.415906247
231,582508,569320,0.909,0.394,0.205,-6.7,-6.7,-2,-10.6,-34,9.5,0.631275369,-0.163304544,-0.633777886,-0.416028321
232,586172,569330,0.913,0.39,0.201,-7.4,-7,-2.1,-10.6,-34,9.5,0.631122776,-0.163457137,-0.633838923,-0.416119877
233,588559,569330,0.913,0.394,0.201,-8.1,-7.5,-2.3,-10.5,-33.9,10,0.630970183,-0.163609729,-0.633869442,-0.416241951
234,590582,569330,0.917,0.394,0.205,-8.7,-7.9,-2.6,-10.5,-33.9,10,0.630817591,-0.163762322,-0.63389996,-0.416364025
235,593233,569330,0.913,0.394,0.205,-9.5,-8.3,-3,-10.5,-33.9,10,0.63063448,-0.163945433,-0.633930479,-0.416486099
236,595405,569340,0.92,0.394,0.197,-10.2,-8.8,-3.3,-10.5,-33.9,10,0.630451369,-0.164098025,-0.633991516,-0.41666921
237,597633,569340,0.952,0.405,0.197,-10.9,-9.2,-3.4,-10.6,-33.8,10.3,0.630237739,-0.164281137,-0.634022034,-0.416852321
238,599513,569340,0.944,0.409,0.193,-11.7,-9.4,-3.2,-10.6,-33.8,10.3,0.630054628,-0.164494766,-0.634052553,-0.417004913
239,601916,569340,0.967,0.409,0.193,-12.4,-9.1,-2.9,-10.6,-33.8,10.3,0.629840999,-0.164708396,-0.634083071,-0.417188025
240,604391,569350,1.198,0.469,0.158,-13.2,-7.9,-2.1,-10.6,-33.8,10.3,0.629657888,-0.164922025,-0.634083071,-0.417371136
241,606733,569350,1.198,0.469,0.158,-13.2,-7.9,-2.1,-10.6,-33.8,10.3,0.629657888,-0.164922025,-0.634083071,-0.417371136
242,611100,569350,1.03,0.427,0.211,-14.8,0.7,6.8,-10.5,-33.9,10.7,0.629566332,-0.165471358,-0.633838923,-0.417676321
243,613378,569350,1.178,0.469,0.182,-15.6,9.4,17.3,-10.5,-33.9,10.7,0.62981048,-0.16583758,-0.63350322,-0.417676321
244,615396,569360,1.022,0.416,0.188,-16.9,20.1,29.9,-10.5,-33.9,10.7,0.630298776,-0.166295358,-0.632984405,-0.417554247
245,617662,569360,1.053,0.428,0.176,-18.7,30.9,41.4,-10.6,-33.4,10.4,0.63103122,-0.166844691,-0.632221442,-0.417371136
246,619657,569360,0.963,0.417,0.208,-20.4,41.3,50,-10.6,-33.4,10.4,0.631977294,-0.167455061,-0.631275369,-0.417126988
247,621892,569360,0.854,0.406,0.222,-21.9,50.3,54.7,-10.6,-33.4,10.4,0.633075961,-0.168034913,-0.630207221,-0.416852321
248,624269,569370,0.791,0.399,0.227,-23.3,56.8,54.6,-10.6,-33.4,10.4,0.634296701,-0.168614765,-0.62898648,-0.416608173
249,626728,569370,0.823,0.407,0.207,-25,59.8,50.2,-11,-33.9,8.5,0.635456404,-0.169103061,-0.62776574,-0.416486099
250,629529,569370,0.823,0.407,0.207,-25,59.8,50.2,-11,-33.9,8.5,0.635456404,-0.169103061,-0.62776574,-0.416486099
251,631702,569370,0.627,0.377,0.253,-28.7,55.6,32.7,-11,-33.9,8.5,0.637501144,-0.169835505,-0.625385296,-0.416638691
252,634888,569380,0.604,0.369,0.246,-30.1,49.4,23,-11,-33.9,8.5,0.638294626,-0.17014069,-0.624317148,-0.416913358
253,638142,569380,0.616,0.381,0.238,-31.1,40.3,12.8,-11.5,-34.3,10.2,0.638843959,-0.170384838,-0.623432112,-0.417310099
254,640205,569380,0.866,0.418,0.179,-31.4,27.6,1.4,-11.5,-34.3,10.2,0.639118625,-0.170567949,-0.622760704,-0.417798395
255,642883,569380,0.893,0.418,0.182,-30.4,12.5,-9.5,-11.5,-34.3,10.2,0.639088107,-0.170751061,-0.622333445,-0.418408765
256,644246,569390,0.846,0.399,0.187,-27.6,-1.8,-16.4,-11.5,-34.3,10.2,0.638782922,-0.170934172,-0.622180853,-0.418988617
257,647411,569390,0.854,0.398,0.198,-23.1,-13.1,-16.9,-10.9,-33.9,10.3,0.638386181,-0.171117283,-0.622211371,-0.419507431
258,650176,569390,0.909,0.421,0.21,-17.8,-20.4,-12,-10.9,-33.9,10.3,0.637928404,-0.171422468,-0.622363964,-0.419843135
259,652932,569390,0.909,0.425,0.213,-13.1,-24.2,-5.3,-10.9,-33.9,10.3,0.637501144,-0.171758171,-0.622608112,-0.419995727
260,654257,569400,0.913,0.433,0.217,-10.5,-25.3,0.1,-10.9,-33.9,10.3,0.637104404,-0.172154912,-0.62285226,-0.420056764
261,657115,569400,0.913,0.433,0.217,-10.5,-25.3,0.1,-10.9,-33.9,10.3,0.637104404,-0.172154912,-0.62285226,-0.420056764
262,659393,569400,0.909,0.433,0.225,-13.2,-22,3.2,-11,-34.2,10.1,0.636432997,-0.172978912,-0.623279519,-0.420117801
263,661990,569400,0.913,0.433,0.221,-17.6,-19.3,1.4,-11,-34.2,10.1,0.636127812,-0.173436689,-0.623371075,-0.420270394
264,665132,569410,0.901,0.425,0.221,-22.6,-16.7,-1.4,-11,-34.2,10.1,0.635792108,-0.173863948,-0.623401593,-0.420514542
265,667911,569410,0.889,0.417,0.214,-27.1,-14.9,-4.5,-11.3,-34,10.1,0.635456404,-0.174321726,-0.623371075,-0.420880764
266,669524,569410,0.885,0.41,0.21,-30.6,-14,-7.1,-11.3,-34,10.1,0.635090182,-0.174779504,-0.623310038,-0.42136906
267,672548,569410,0.881,0.406,0.198,-32.7,-13.9,-8.8,-11.3,-34,10.1,0.634693442,-0.175237281,-0.623249001,-0.421857356
268,675570,569420,0.874,0.398,0.198,-33.9,-14.3,-9.5,-11.3,-34,10.1,0.634266182,-0.175725578,-0.623157445,-0.42240669
269,676893,569420,0.878,0.398,0.19,-34.3,-14.9,-9.5,-10.8,-34.2,7.8,0.633838923,-0.176213874,-0.623096408,-0.422956023
270,679642,569420,0.874,0.394,0.186,-34.8,-15.2,-9.3,-10.8,-34.2,7.8,0.633411664,-0.17670217,-0.623004852,-0.423505356
271,683000,569420,0.878,0.394,0.182,-35.3,-15.2,-9.1,-10.8,-34.2,7.8,0.632984405,-0.177190466,-0.622943815,-0.424054689
272,685118,569430,0.881,0.391,0.178,-36,-15,-8.9,-10.8,-34.2,7.8,0.632557146,-0.177709281,-0.62285226,-0.424604022
273,687974,569430,0.889,0.39,0.178,-36.7,-14.9,-8.6,-10.9,-34.4,10,0.632129887,-0.178258614,-0.622730186,-0.425153356
274,689543,569430,0.889,0.394,0.174,-37.5,-14.9,-8.3,-10.9,-34.4,10,0.631702628,-0.178777429,-0.62263863,-0.425733207
275,692613,569430,0.897,0.394,0.178,-38.2,-15,-8,-10.9,-34.4,10,0.631275369,-0.17935728,-0.622516556,-0.426313059
276,695607,569440,0.901,0.394,0.174,-38.8,-15.2,-7.8,-10.9,-34.4,10,0.630848109,-0.179906613,-0.622394482,-0.426862392
277,697033,569440,0.901,0.39,0.17,-39.6,-15.6,-7.7,-10.7,-34.2,9.5,0.63042085,-0.180486465,-0.622272408,-0.427472762
278,699559,569440,0.913,0.402,0.17,-40.3,-15.9,-7.8,-10.7,-34.2,9.5,0.629963073,-0.181096835,-0.622150334,-0.428052614
279,701868,569440,0.917,0.398,0.162,-41.2,-16.3,-7.9,-10.7,-34.2,9.5,0.629505295,-0.181707205,-0.62202826,-0.428662984
280,705271,569450,0.917,0.402,0.166,-42.1,-16.8,-8.1,-10.7,-34.2,9.5,0.629016999,-0.182348094,-0.621875668,-0.429273354
281,707749,569450,0.917,0.402,0.166,-42.1,-16.8,-8.1,-10.7,-34.2,9.5,0.629016999,-0.182348094,-0.621875668,-0.429273354
282,709465,569450,0.932,0.41,0.154,-44,-17.8,-8.2,-10.9,-34,9.3,0.627857295,-0.183172094,-0.621692557,-0.430890835
283,711885,569450,0.932,0.406,0.15,-44.9,-18.2,-8.2,-10.9,-34,9.3,0.627368999,-0.183812983,-0.621539964,-0.431531724
284,715643,569460,0.936,0.406,0.15,-45.7,-18.4,-8.3,-10.9,-34,9.3,0.626850185,-0.184545427,-0.62141789,-0.432203131
285,718224,569460,0.936,0.41,0.146,-46.3,-18.4,-8.3,-10.8,-34.8,9.4,0.62633137,-0.185247353,-0.621265297,-0.432874538
286,719839,569460,0.948,0.418,0.146,-46.8,-18.2,-8.2,-10.8,-34.8,9.4,0.625812555,-0.185949278,-0.621082186,-0.433545946
287,722226,569460,0.944,0.422,0.138,-47.1,-18.1,-8.1,-10.8,-34.8,9.4,0.625324259,-0.186651204,-0.620929594,-0.434217353
288,724492,569470,0.952,0.418,0.142,-47.3,-18,-8.2,-10.8,-34.8,9.4,0.624805445,-0.18735313,-0.620746483,-0.43488876
289,726908,569470,0.956,0.426,0.138,-47.4,-18.1,-8.2,-10.5,-34.7,7,0.62428663,-0.188055055,-0.62059389,-0.435590686
290,731589,569470,0.956,0.429,0.138,-47.4,-18.2,-8.2,-10.5,-34.7,7,0.623767815,-0.188756981,-0.620410779,-0.436262093
291,731904,569470,0.96,0.433,0.134,-47.2,-18.3,-8.3,-10.5,-34.7,7,0.623218482,-0.189458907,-0.620258187,-0.4369335
292,734453,569480,0.964,0.441,0.134,-47.1,-18.3,-8.4,-10.5,-34.7,7,0.622699667,-0.190160833,-0.620075076,-0.437604907
293,737986,569480,0.968,0.445,0.134,-47.2,-18.2,-8.4,-10.5,-34.6,8.7,0.622180853,-0.190862758,-0.619922483,-0.438276315
294,739505,569480,0.968,0.445,0.134,-47.4,-18,-8.5,-10.5,-34.6,8.7,0.621662038,-0.191564684,-0.619739372,-0.43897824
295,742734,569480,0.975,0.445,0.134,-47.8,-17.8,-8.6,-10.5,-34.6,8.7,0.621143223,-0.19226661,-0.619556261,-0.439649648
296,744718,569490,0.979,0.445,0.134,-48.3,-17.3,-9.1,-10.5,-34.6,8.7,0.620624409,-0.192968535,-0.61937315,-0.440382092
297,747066,569490,0.979,0.445,0.13,-49,-16.7,-9.4,-10.4,-34.7,8.7,0.620075076,-0.193670461,-0.61915952,-0.441084017
298,749333,569490,0.983,0.445,0.134,-49.9,-16.1,-9.9,-10.4,-34.7,8.7,0.619556261,-0.194372387,-0.618945891,-0.441816462
299,752079,569490,0.987,0.441,0.134,-50.8,-15.5,-10.3,-10.4,-34.7,8.7,0.619037446,-0.195043794,-0.618701743,-0.442579424
300,754610,569500,0.991,0.433,0.13,-51.7,-14.9,-10.7,-10.4,-34.7,8.7,0.618518632,-0.19574572,-0.618457595,-0.443372906
301,756856,569500,0.991,0.433,0.13,-51.7,-14.9,-10.7,-10.4,-34.7,8.7,0.618518632,-0.19574572,-0.618457595,-0.443372906
302,760204,569500,0.983,0.429,0.13,-54,-13.3,-11.2,-10.5,-34.8,8.2,0.617236854,-0.196905423,-0.618060854,-0.445173498
303,763615,569500,0.987,0.417,0.13,-55.6,-12.3,-11.4,-10.5,-34.8,8.2,0.616718039,-0.197607349,-0.61772515,-0.446028016
304,765392,569510,0.979,0.398,0.13,-57.3,-11.3,-11.5,-10.5,-34.8,8.2,0.616229743,-0.198339793,-0.617358928,-0.446913053
305,767966,569510,0.975,0.394,0.134,-59.2,-10.4,-11.6,-10.1,-34.8,8,0.615710929,-0.199072237,-0.616992706,-0.447828608
306,769733,569510,0.979,0.386,0.133,-60.9,-9.5,-11.9,-10.1,-34.8,8,0.615192114,-0.1998352,-0.616565447,-0.448774682
307,772214,569510,0.979,0.374,0.133,-62.4,-8.8,-12.2,-10.1,-34.8,8,0.614673299,-0.200598163,-0.616138188,-0.449690237
308,774556,569520,0.987,0.378,0.133,-63.7,-8.2,-12.5,-10.1,-34.8,8,0.614185003,-0.201361126,-0.61568041,-0.450727866
309,777295,569520,0.983,0.374,0.137,-64.8,-7.7,-12.5,-9.9,-35.4,5.3,0.613666189,-0.202124088,-0.615192114,-0.451734977
310,779620,569520,0.999,0.374,0.133,-66,-7.2,-11.8,-9.9,-35.4,5.3,0.613147374,-0.202948088,-0.614673299,-0.452742088
311,782025,569520,1.018,0.382,0.133,-67.5,-6.6,-10.2,-9.9,-35.4,5.3,0.612659078,-0.203772088,-0.614154485,-0.453749199
312,786058,569530,1.011,0.378,0.133,-69.5,-5.7,-7.4,-9.9,-35.4,5.3,0.6122013,-0.204657125,-0.613574633,-0.45475631
313,788260,569530,1.042,0.389,0.132,-72.1,-4.4,-3.4,-9.8,-35,7.2,0.611774041,-0.205603198,-0.612933744,-0.455732902
314,790531,569530,1.05,0.393,0.136,-75.3,-2.7,1.8,-9.8,-35,7.2,0.611438337,-0.206671346,-0.6122013,-0.456709494
315,792309,569530,1.011,0.37,0.137,-79.2,-0.6,8.4,-9.8,-35,7.2,0.611133152,-0.207861568,-0.6113773,-0.457655568
316,795734,569540,0.983,0.343,0.129,-83.7,1.9,16.5,-9.8,-35,7.2,0.610950041,-0.209173864,-0.610461745,-0.458571123
317,797655,569540,0.94,0.32,0.129,-88.3,4.7,24.8,-9.9,-35.1,6.9,0.610858486,-0.210638752,-0.609393597,-0.459425642
318,800410,569540,0.878,0.281,0.126,-92.2,7.2,31.1,-9.9,-35.1,6.9,0.610858486,-0.212195196,-0.608233894,-0.46028016
319,803411,569540,0.894,0.281,0.13,-94.9,9,33,-9.9,-35.1,6.9,0.610858486,-0.213812677,-0.606982635,-0.461134678
320,806391,569550,0.87,0.258,0.13,-95.7,9.8,29.6,-9.9,-35.1,6.9,0.610827967,-0.215369121,-0.605761895,-0.462050233
321,806985,569550,0.87,0.258,0.13,-95.7,9.8,29.6,-9.9,-35.1,6.9,0.610827967,-0.215369121,-0.605761895,-0.462050233
322,809653,569550,0.862,0.219,0.114,-92.4,6.8,12.9,-10.5,-35.2,6.2,0.610339671,-0.217993713,-0.603656117,-0.464186529
323,811877,569550,0.874,0.223,0.114,-88.6,3.7,3.9,-10.5,-35.2,6.2,0.610034486,-0.219244972,-0.602679525,-0.465315714
324,815383,569560,0.94,0.249,0.117,-83.2,0,-4,-10.5,-35.2,6.2,0.609576708,-0.220282601,-0.601855525,-0.466475417
325,816866,569560,0.956,0.273,0.129,-76.3,-3.8,-10.3,-9.9,-35.5,5.9,0.609057894,-0.221198157,-0.601184118,-0.467604602
326,819356,569560,0.948,0.273,0.129,-68.7,-7.2,-14,-9.9,-35.5,5.9,0.608478042,-0.221991638,-0.600634785,-0.468642232
327,823152,569560,0.964,0.28,0.129,-61.5,-10.2,-14.2,-9.9,-35.5,5.9,0.60789819,-0.222754601,-0.600207526,-0.469588305
328,825268,569570,0.976,0.284,0.128,-55.4,-12.6,-11.6,-9.9,-35.5,5.9,0.607348857,-0.223456526,-0.599871822,-0.470412305
329,827678,569570,0.979,0.296,0.132,-51,-14.5,-7.9,-10.2,-36,3.9,0.606830042,-0.224188971,-0.599566637,-0.471114231
330,829674,569570,0.987,0.304,0.132,-48,-16,-4.7,-10.2,-36,3.9,0.606341746,-0.224921415,-0.599322489,-0.471724601
331,831991,569570,0.987,0.307,0.14,-46.1,-16.9,-2.6,-10.2,-36,3.9,0.60585345,-0.225653859,-0.599078341,-0.472273934
332,835221,569580,1.003,0.315,0.148,-45.2,-17.4,-1.8,-10.2,-36,3.9,0.605395672,-0.226416822,-0.598864711,-0.472823267
333,837151,569580,0.999,0.311,0.156,-45,-17.5,-2.1,-10.1,-36.1,5.7,0.604907376,-0.227179785,-0.598620563,-0.473342082
334,839477,569580,0.999,0.307,0.156,-45.1,-17.3,-3.2,-10.1,-36.1,5.7,0.60441908,-0.227912229,-0.598406934,-0.473891415
335,842613,569580,0.995,0.303,0.163,-45.4,-17,-4.7,-10.1,-36.1,5.7,0.603930784,-0.228614154,-0.598193304,-0.474471267
336,845403,569590,0.987,0.299,0.175,-45.7,-16.3,-6.3,-10.1,-36.1,5.7,0.603411969,-0.229285562,-0.597949156,-0.475051119
337,846918,569590,0.983,0.299,0.179,-45.9,-15.4,-8,-10.4,-35.9,5.3,0.602923673,-0.229956969,-0.597735527,-0.475692007
338,850151,569590,0.967,0.295,0.183,-46,-14,-9.8,-10.4,-35.9,5.3,0.602404859,-0.230567339,-0.597491379,-0.476363414
339,852034,569590,0.96,0.287,0.184,-45.8,-12.2,-11.6,-10.4,-35.9,5.3,0.601886044,-0.231147191,-0.597216712,-0.477034822
340,855112,569600,0.948,0.284,0.18,-45.4,-10.1,-13.1,-10.4,-35.9,5.3,0.601397748,-0.231666005,-0.596942045,-0.477767266
341,858199,569600,0.948,0.284,0.18,-45.4,-10.1,-13.1,-10.4,-35.9,5.3,0.601397748,-0.231666005,-0.596942045,-0.477767266
342,859551,569600,0.928,0.268,0.184,-44,-5.4,-15.7,-9.8,-36,4.7,0.600451674,-0.232551042,-0.596331675,-0.479262673
343,862605,569600,0.925,0.264,0.188,-42.6,-3.1,-16.8,-9.8,-36,4.7,0.600024415,-0.232917264,-0.59602649,-0.480025636
344,865651,569610,0.921,0.264,0.188,-40.5,-1,-17.5,-9.8,-36,4.7,0.599627674,-0.233222449,-0.595690786,-0.480788598
345,866973,569610,0.921,0.261,0.18,-38.1,0.8,-17.9,-9.7,-36.1,3.9,0.599261452,-0.233497116,-0.595385601,-0.481521043
346,870193,569610,0.936,0.26,0.191,-35.3,2.3,-17.9,-9.7,-36.1,3.9,0.598925748,-0.233680227,-0.595049898,-0.482222968
347,872923,569610,0.944,0.264,0.195,-32,3.5,-17.7,-9.7,-36.1,3.9,0.598620563,-0.23383282,-0.594775231,-0.482894375
348,874376,569620,0.94,0.26,0.195,-28.6,4.6,-17.5,-9.7,-36.1,3.9,0.598345897,-0.233924375,-0.594500565,-0.483504746
349,877473,569620,0.921,0.252,0.199,-25,5.6,-16.9,-9.3,-36.3,3.4,0.598101749,-0.233985412,-0.594256417,-0.484084597
350,880442,569620,0.897,0.233,0.184,-21.1,6.6,-16.2,-9.3,-36.3,3.4,0.597918638,-0.233985412,-0.594012268,-0.484603412
351,882840,569620,0.897,0.237,0.164,-16.6,7.4,-15.8,-9.3,-36.3,3.4,0.597766045,-0.233924375,-0.593829157,-0.48506119
352,885095,569630,0.909,0.241,0.149,-11.1,7.6,-16.3,-9.3,-36.3,3.4,0.597643971,-0.233771783,-0.593676565,-0.48545793
353,887097,569630,0.925,0.257,0.117,-4.3,7.3,-18.2,-9.3,-36.2,4.3,0.597521897,-0.233497116,-0.593646046,-0.485793634
354,889385,569630,0.905,0.254,0.09,3.6,6.5,-20.9,-9.3,-36.2,4.3,0.597399823,-0.233130894,-0.593707083,-0.486037782
355,891851,569630,0.894,0.255,0.051,12.5,5.5,-23.5,-9.3,-36.2,4.3,0.597277749,-0.232581561,-0.593890194,-0.486220893
356,894246,569640,0.898,0.255,0.02,21.5,4.2,-25.3,-9.3,-36.2,4.3,0.597186193,-0.231940672,-0.594195379,-0.48628193
357,898053,569640,0.898,0.272,-0.03,30.2,3,-26.3,-8.8,-36.2,4.5,0.597094638,-0.231177709,-0.59459212,-0.486251411
358,900218,569640,0.887,0.26,-0.053,37.7,1.7,-26.7,-8.8,-36.2,4.5,0.597003082,-0.230323191,-0.595110935,-0.486129337
359,903185,569640,0.848,0.245,-0.068,43.2,0.6,-26.3,-8.8,-36.2,4.5,0.596972564,-0.229407636,-0.595690786,-0.485915708
360,905527,569650,0.891,0.265,-0.077,45.9,-0.2,-25,-8.8,-36.2,4.5,0.596911527,-0.22849208,-0.596301157,-0.485641041
361,907788,569650,0.891,0.265,-0.077,45.9,-0.2,-25,-8.8,-36.2,4.5,0.596911527,-0.22849208,-0.596301157,-0.485641041
362,910086,569650,0.914,0.288,-0.053,41.3,-1,-20.6,-8.9,-36,4.5,0.596514786,-0.227149266,-0.597949156,-0.484725486
363,912043,569650,0.941,0.287,-0.046,33.3,-0.8,-17.6,-8.9,-36,4.5,0.596484268,-0.226508377,-0.598406934,-0.484542375
364,914334,569660,0.906,0.236,-0.011,21,0,-13.9,-8.9,-36,4.5,0.596423231,-0.2260506,-0.598712119,-0.484420301
365,917224,569660,0.878,0.197,0.027,4.9,0.7,-9.8,-8.6,-36.2,4.8,0.596362194,-0.225806452,-0.598803674,-0.484511856
366,920447,569660,0.918,0.169,0.03,-14,0.8,-6.3,-8.6,-36.2,4.8,0.59624012,-0.225928526,-0.598620563,-0.484786523
367,922672,569660,0.972,0.097,0.067,-34.1,-0.7,-4.4,-8.6,-36.2,4.8,0.59602649,-0.226325266,-0.598345897,-0.485274819
368,925035,569670,0.992,0.045,0.082,-54.3,-4.1,-3.9,-8.6,-36.2,4.8,0.595660268,-0.227027192,-0.597827082,-0.486007263
369,927052,569670,0.992,-0.021,0.109,-74.1,-8.3,-4.1,-8.9,-36.4,3.8,0.595141453,-0.228003784,-0.597186193,-0.486983856
370,930243,569670,0.984,-0.088,0.12,-93,-12.1,-4.3,-8.9,-36.4,3.8,0.594470046,-0.229285562,-0.596362194,-0.488204596
371,933190,569670,1.046,-0.237,0.109,-110.3,-15,-4.7,-8.9,-36.4,3.8,0.593646046,-0.230811487,-0.59541612,-0.489608448
372,934523,569680,1.101,-0.215,0.132,-124.8,-17.5,-5.6,-8.9,-36.4,3.8,0.592730491,-0.232551042,-0.594317454,-0.491225929
373,937543,569680,1.117,-0.274,0.15,-135,-19.7,-6.3,-8.7,-36,3.8,0.59172338,-0.23444319,-0.59315775,-0.492965484
374,939504,569680,1.093,-0.407,0.126,-140.7,-21.9,-5.1,-8.7,-36,3.8,0.590655232,-0.236426893,-0.59193701,-0.494735557
375,942686,569680,1.101,-0.462,0.121,-142.8,-24.2,-0.4,-8.7,-36,3.8,0.589617603,-0.238502152,-0.590716269,-0.496444594
376,945829,569690,1.144,-0.513,0.116,-141.4,-27,6.9,-8.7,-36,3.8,0.588579974,-0.240699484,-0.589495529,-0.498031556
377,948097,569690,1.148,-0.576,0.095,-135.2,-29.7,13.8,-8.6,-36.4,3.5,0.5876339,-0.242957854,-0.588335826,-0.499435408
378,950244,569690,1.207,-0.553,0.114,-122.4,-31.6,17.4,-8.6,-36.4,3.5,0.586779382,-0.24509415,-0.587298196,-0.500625629
379,953052,569690,1.238,-0.464,0.158,-101.9,-31.2,16.4,-8.6,-36.4,3.5,0.586016419,-0.246955779,-0.586504715,-0.501541185
380,954399,569700,1.222,-0.401,0.167,-75.4,-28.4,11.9,-8.6,-36.4,3.5,0.58537553,-0.24835963,-0.5859859,-0.502212592
381,957613,569700,1.222,-0.401,0.167,-75.4,-28.4,11.9,-8.6,-36.4,3.5,0.58537553,-0.24835963,-0.5859859,-0.502212592
382,960620,569700,1.152,-0.313,0.11,-24.4,-20,5,-8.7,-36.4,3,0.584551531,-0.249946593,-0.585680715,-0.502731407
383,962775,569700,1.14,-0.285,0.087,-7.7,-17.3,7,-8.7,-36.4,3,0.584368419,-0.250312815,-0.585772271,-0.502639851
384,965285,569710,1.133,-0.25,0.072,3.7,-15.8,11.6,-8.7,-36.4,3,0.584307382,-0.250587481,-0.585955382,-0.502365184
385,967150,569710,1.105,-0.209,0.026,12.2,-15,16.9,-8.9,-36.3,3.1,0.584368419,-0.250801111,-0.58619953,-0.501907407
386,969446,569710,1.098,-0.193,0.007,19.5,-14.1,21.2,-8.9,-36.3,3.1,0.584521012,-0.250984222,-0.586474197,-0.501327555
387,971849,569710,1.086,-0.181,-0.007,25.8,-12.9,23.8,-8.9,-36.3,3.1,0.58476516,-0.251106296,-0.5868099,-0.500595111
388,976287,569720,1.078,-0.173,-0.019,31.3,-11.4,24.3,-8.9,-36.3,3.1,0.585070345,-0.251136814,-0.587145604,-0.499832148
389,978581,569720,1.071,-0.176,-0.05,35.6,-9.7,22.9,-8.9,-36.2,3.1,0.58537553,-0.251075777,-0.587542344,-0.499038667
390,980156,569720,1.067,-0.184,-0.07,38.7,-8,19.9,-8.9,-36.2,3.1,0.585711234,-0.250923185,-0.587939085,-0.498245186
391,981742,569720,1.051,-0.188,-0.077,40.6,-6.4,16.3,-8.9,-36.2,3.1,0.586016419,-0.250709555,-0.588396863,-0.497451704
392,985038,569730,1.047,-0.218,-0.113,41.9,-5.1,12.9,-8.9,-36.2,3.1,0.586321604,-0.250373852,-0.588824122,-0.49671926
393,988277,569730,1.044,-0.226,-0.125,42.7,-3.9,10.4,-9.2,-36.2,3.5,0.586626789,-0.25000763,-0.589281899,-0.496017335
394,989716,569730,1.048,-0.246,-0.133,43.6,-2.9,9.1,-9.2,-36.2,3.5,0.586901456,-0.249610889,-0.589739677,-0.495345927
395,992995,569730,1.048,-0.261,-0.145,44.7,-2.3,9.1,-9.2,-36.2,3.5,0.587237159,-0.24918363,-0.590227973,-0.494613483
396,995329,569740,1.063,-0.3,-0.165,46.4,-1.8,10.1,-9.2,-36.2,3.5,0.587572863,-0.248725852,-0.590685751,-0.493881039
397,997604,569740,1.075,-0.328,-0.185,48.7,-1.4,11.7,-9.2,-36.7,3.9,0.587939085,-0.248268075,-0.591174047,-0.493118076
398,999567,569740,1.091,-0.347,-0.19,51.2,-1.1,14,-9.2,-36.7,3.9,0.588366344,-0.247810297,-0.591662343,-0.492263558
399,1001942,569740,1.134,-0.403,-0.203,54.1,-0.8,16.8,-9.2,-36.7,3.9,0.588824122,-0.247352519,-0.592150639,-0.491348003
400,1005195,569750,1.157,-0.43,-0.207,57.5,-0.4,20,-9.2,-36.7,3.9,0.589342936,-0.246864223,-0.592669454,-0.490340892
401,1007196,569750,1.157,-0.43,-0.207,57.5,-0.4,20,-9.2,-36.7,3.9,0.589342936,-0.246864223,-0.592669454,-0.490340892
402,1009344,569750,1.216,-0.486,-0.229,65.8,0.3,27.4,-9.3,-36.4,4.1,0.590563677,-0.245887631,-0.593737602,-0.488021485
403,1011943,569750,1.271,-0.53,-0.226,71,1,31.7,-9.3,-36.4,4.1,0.591296121,-0.245338298,-0.594317454,-0.486709189
404,1015484,569760,1.294,-0.557,-0.231,76.6,2.1,35.9,-9.3,-36.4,4.1,0.592120121,-0.244819483,-0.594927824,-0.485244301
405,1017760,569760,1.318,-0.573,-0.239,82.7,3.7,40.1,-9.6,-36.1,4.6,0.593035676,-0.244239631,-0.595538194,-0.483687857
406,1019792,569760,1.341,-0.601,-0.244,89.4,5.6,44.2,-9.6,-36.1,4.6,0.594042787,-0.243598743,-0.596148564,-0.48197882
407,1022013,569760,1.349,-0.605,-0.256,96.6,7.8,48.2,-9.6,-36.1,4.6,0.595171972,-0.242896817,-0.596819971,-0.48014771
408,1024306,569770,1.345,-0.608,-0.264,104.4,10.2,52.3,-9.6,-36.1,4.6,0.596392712,-0.242103336,-0.597491379,-0.478164006
409,1027264,569770,1.341,-0.604,-0.275,113.4,12.6,56.4,-9.9,-35.7,5.1,0.597766045,-0.241218299,-0.598223823,-0.475997192
410,1030719,569770,1.326,-0.576,-0.298,123.4,14.9,60.5,-9.9,-35.7,5.1,0.599230934,-0.240241707,-0.598986785,-0.473677786
411,1032859,569770,1.314,-0.549,-0.306,134.8,16.9,64.5,-9.9,-35.7,5.1,0.600817896,-0.23914304,-0.599810785,-0.471144749
412,1035209,569780,1.303,-0.517,-0.317,147.7,18.3,68.7,-9.9,-35.7,5.1,0.602526933,-0.2379223,-0.600726341,-0.468428602
413,1037193,569780,1.275,-0.465,-0.347,162,19.4,73,-9.9,-35.5,5.8,0.604358043,-0.236548967,-0.601733451,-0.465437788
414,1039466,569780,1.267,-0.422,-0.354,177.3,20,77.6,-9.9,-35.5,5.8,0.606341746,-0.235023041,-0.602862636,-0.462172308
415,1042663,569780,1.256,-0.386,-0.361,193,20.5,82.1,-9.9,-35.5,5.8,0.608417005,-0.233344523,-0.604113895,-0.458662679
416,1044690,569790,1.244,-0.346,-0.376,208.1,21,86.3,-9.9,-35.5,5.8,0.610614338,-0.231513413,-0.605487228,-0.454847865
417,1047052,569790,1.244,-0.346,-0.376,208.1,21,86.3,-9.9,-35.5,5.8,0.610614338,-0.231513413,-0.605487228,-0.454847865
418,1049289,569790,1.209,-0.251,-0.402,234.2,23.1,92.5,-11,-34.3,7.1,0.61528367,-0.227393414,-0.608447523,-0.446607868
419,1052043,569790,1.209,-0.224,-0.409,244.2,24.8,94.5,-11,-34.3,7.1,0.61772515,-0.225104526,-0.610003967,-0.442213202
420,1055099,569800,1.205,-0.18,-0.444,251.9,26.8,95.9,-11,-34.3,7.1,0.620258187,-0.222724082,-0.61159093,-0.437696463
421,1058377,569800,1.205,-0.18,-0.444,251.9,26.8,95.9,-11,-34.3,7.1,0.620258187,-0.222724082,-0.61159093,-0.437696463
422,1060528,569800,1.189,-0.16,-0.459,261.5,32,98.3,-11.3,-34.2,8.4,0.625415815,-0.217719047,-0.614734336,-0.428388318
423,1061904,569800,1.189,-0.148,-0.467,264.3,35.6,99.8,-11.3,-34.2,8.4,0.628070925,-0.215063936,-0.616229743,-0.42362743
424,1064725,569810,1.186,-0.132,-0.478,266.4,39.6,101.8,-11.3,-34.2,8.4,0.630787072,-0.212439344,-0.617664113,-0.418836024
425,1068017,569810,1.182,-0.12,-0.482,268.1,43.8,103.7,-11.9,-33.1,9.5,0.633533738,-0.209753716,-0.619006928,-0.413983581
426,1069406,569810,1.182,-0.124,-0.494,269.5,48,105.8,-11.9,-33.1,9.5,0.63637196,-0.20700705,-0.620288705,-0.40910062
427,1072648,569810,1.178,-0.124,-0.517,270.4,51.7,107.9,-11.9,-33.1,9.5,0.639240699,-0.204260384,-0.621478927,-0.404156621
428,1075518,569820,1.174,-0.12,-0.517,271.2,54.9,110,-11.9,-33.1,9.5,0.642139958,-0.2014832,-0.622608112,-0.399182104
429,1076834,569820,1.174,-0.12,-0.525,271.6,57.2,112.2,-12.9,-32.6,11,0.645100253,-0.198706015,-0.62367626,-0.394177068
430,1080121,569820,1.182,-0.112,-0.537,272,59,114.3,-12.9,-32.6,11,0.64803003,-0.195898312,-0.624652852,-0.389110996
431,1083026,569820,1.166,-0.123,-0.572,272.1,60,116.8,-12.9,-32.6,11,0.650990326,-0.193151646,-0.625598926,-0.383983886
432,1084336,569830,1.17,-0.127,-0.584,271.8,60.3,119.7,-12.9,-32.6,11,0.653950621,-0.190404981,-0.626514481,-0.378826258
433,1087556,569830,1.167,-0.126,-0.599,271.2,59.7,123.2,-13,-31.9,11.9,0.656910916,-0.187719352,-0.627368999,-0.373607593
434,1090398,569830,1.163,-0.122,-0.615,270.8,58,126.8,-13,-31.9,11.9,0.659840693,-0.18509476,-0.628223518,-0.368297372
435,1091886,569830,1.171,-0.106,-0.658,270.7,54.9,130,-13,-31.9,11.9,0.662709433,-0.182531205,-0.629078036,-0.362926115
436,1095144,569840,1.19,-0.094,-0.685,271,50.4,132.9,-13,-31.9,11.9,0.665517136,-0.180028687,-0.629932554,-0.35749382
437,1097244,569840,1.21,-0.086,-0.717,271.8,44.3,135.5,-14.4,-30.8,13.1,0.668233283,-0.177617725,-0.630878628,-0.351939451
438,1099463,569840,1.253,-0.051,-0.76,272.9,37.2,138.3,-14.4,-30.8,13.1,0.670857875,-0.175237281,-0.631885739,-0.346293527
439,1102674,569840,1.277,-0.031,-0.78,274.6,29.4,141,-14.4,-30.8,13.1,0.673360393,-0.172948393,-0.632953887,-0.340556047
440,1104680,569850,1.296,-0.003,-0.796,276.6,21.9,143.6,-14.4,-30.8,13.1,0.675771355,-0.170690023,-0.634144108,-0.334696493
441,1106997,569850,1.296,-0.003,-0.796,276.6,21.9,143.6,-14.4,-30.8,13.1,0.675771355,-0.170690023,-0.634144108,-0.334696493
442,1110136,569850,1.335,0.047,-0.831,280.6,7.6,146.8,-14.7,-29.2,14.6,0.680227058,-0.166295358,-0.636738182,-0.322702719
443,1112887,569850,1.371,0.066,-0.843,281.8,0.5,147,-14.7,-29.2,14.6,0.682271798,-0.164159062,-0.638172552,-0.316599017
444,1114376,569860,1.398,0.078,-0.859,282,-6.6,146.3,-14.7,-29.2,14.6,0.684194464,-0.162053285,-0.639667959,-0.310464797
445,1117688,569860,1.402,0.086,-0.875,280.9,-13.3,144.7,-15.2,-28.1,15.6,0.685964537,-0.159947508,-0.641254921,-0.304330576
446,1120709,569860,1.421,0.093,-0.875,278.7,-18.7,142.7,-15.2,-28.1,15.6,0.687612537,-0.157902768,-0.642872402,-0.298226875
447,1122044,569860,1.425,0.101,-0.875,276.1,-22.4,140.6,-15.2,-28.1,15.6,0.689138462,-0.155858028,-0.644489883,-0.292153691
448,1124439,569870,1.425,0.109,-0.871,273.8,-23.8,138.6,-15.2,-28.1,15.6,0.690603351,-0.153843806,-0.646107364,-0.286141545
449,1126903,569870,1.402,0.124,-0.835,272.6,-23.1,137.3,-15.9,-26.5,17,0.692037721,-0.151829585,-0.647694327,-0.280129398
450,1131247,569870,1.409,0.144,-0.819,272.5,-20.5,137.2,-15.9,-26.5,17,0.693472091,-0.149754326,-0.649189734,-0.274147771
451,1133568,569870,1.398,0.159,-0.803,273.1,-16.4,137.5,-15.9,-26.5,17,0.694936979,-0.147679067,-0.650624104,-0.268135624
452,1135772,569880,1.386,0.191,-0.787,273.8,-11.3,138,-15.9,-26.5,17,0.696462905,-0.145542772,-0.651936399,-0.262092959
453,1138111,569880,1.382,0.206,-0.771,274.4,-6,138.4,-16.1,-25.5,17.4,0.698019349,-0.143375958,-0.65315714,-0.256080813
454,1140279,569880,1.378,0.233,-0.751,275.6,-0.6,138.7,-16.1,-25.5,17.4,0.69963683,-0.141148106,-0.654255806,-0.25000763
455,1141769,569880,1.382,0.253,-0.735,278.2,4.1,138.7,-16.1,-25.5,17.4,0.701284829,-0.138859218,-0.655262917,-0.243934446
456,1145446,569890,1.35,0.3,-0.711,282.8,8.6,138.2,-16.1,-25.5,17.4,0.702993866,-0.136478774,-0.656208991,-0.237800226
457,1147001,569890,1.338,0.327,-0.695,289.3,12.7,136.7,-16.6,-23.9,18.8,0.704702902,-0.13391522,-0.657063509,-0.231604968
458,1149368,569890,1.33,0.354,-0.678,297.4,16.4,134.2,-16.6,-23.9,18.8,0.706472976,-0.131168554,-0.657918027,-0.225318155
459,1153776,569890,1.307,0.409,-0.654,306.7,19.6,131.1,-16.6,-23.9,18.8,0.708273568,-0.128238777,-0.658742027,-0.218939787
460,1156072,569900,1.291,0.437,-0.638,317.2,22,127.5,-16.6,-23.9,18.8,0.71007416,-0.125064852,-0.659535508,-0.212469863
461,1158318,569900,1.291,0.437,-0.638,317.2,22,127.5,-16.6,-23.9,18.8,0.71007416,-0.125064852,-0.659535508,-0.212469863
462,1160539,569900,1.283,0.503,-0.613,338.8,24.5,119.2,-17.1,-22.5,19.8,0.713644826,-0.11774041,-0.661183508,-0.199133274
463,1162850,569900,1.252,0.554,-0.585,348.9,24.5,114.7,-17.1,-22.5,19.8,0.715353862,-0.113864559,-0.662007508,-0.192358165
464,1164273,569910,1.232,0.578,-0.576,358.2,23.7,110,-17.1,-22.5,19.8,0.71703238,-0.10974456,-0.662831507,-0.185522019
465,1167107,569910,1.22,0.613,-0.564,366.5,22.8,105.1,-17.1,-20.9,21,0.718649861,-0.10544145,-0.663686026,-0.178624836
466,1170367,569910,1.291,0.687,-0.552,373.7,22.1,99.4,-17.1,-20.9,21,0.720175787,-0.100924711,-0.664540544,-0.171697134
467,1171807,569910,1.279,0.702,-0.532,379.5,22.2,93,-17.1,-20.9,21,0.721671194,-0.0962248604,-0.665395062,-0.164769433
468,1174948,569920,1.294,0.733,-0.517,383.9,23.5,86.5,-17.1,-20.9,21,0.723105564,-0.0913418989,-0.666188543,-0.15787225
469,1178024,569920,1.29,0.753,-0.493,386.7,26.7,81.3,-18.1,-18.5,22.1,0.724509415,-0.0863368633,-0.666920988,-0.151036103
470,1179421,569920,1.321,0.787,-0.454,387.6,32.2,78.4,-18.1,-18.5,22.1,0.725943785,-0.0812402722,-0.667500839,-0.144199957
471,1182614,569920,1.45,0.84,-0.436,386.2,40.1,77.8,-18.1,-18.5,22.1,0.727439192,-0.0761436811,-0.667928098,-0.13739433
472,1184649,569930,1.579,0.882,-0.438,382.3,50.4,78.9,-18.1,-18.5,22.1,0.728995636,-0.0710470901,-0.668111209,-0.130649739
473,1186934,569930,1.328,0.824,-0.32,375.9,64,82.4,-17.7,-17.3,22.4,0.730735191,-0.0661030915,-0.668019654,-0.123966185
474,1190813,569930,1.188,0.79,-0.267,367.1,83,89.8,-17.7,-17.3,22.4,0.732688375,-0.0613116855,-0.667531358,-0.117282632
475,1193115,569930,1.188,0.79,-0.267,367.1,83,89.8,-17.7,-17.3,22.4,0.732688375,-0.0613116855,-0.667531358,-0.117282632
476,1195341,569940,1.359,0.799,-0.223,343.1,133.5,113.6,-17.7,-17.3,22.4,0.737571337,-0.0526749474,-0.665089877,-0.103976562
477,1197676,569940,1.156,0.655,-0.143,329,157.9,123,-18.9,-15.7,22.5,0.740501114,-0.0487990967,-0.663136692,-0.0974150822
478,1199256,569940,1.156,0.655,-0.143,329,157.9,123,-18.9,-15.7,22.5,0.740501114,-0.0487990967,-0.663136692,-0.0974150822
479,1202566,569940,1.082,0.568,-0.076,302.2,194,131.3,-18.9,-15.7,22.5,0.747001556,-0.0417798395,-0.658040101,-0.0846583453
480,1205813,569950,1.008,0.503,-0.088,292.1,203.8,130.7,-18.9,-15.7,22.5,0.75041963,-0.038514359,-0.655140843,-0.0785241249
481,1208051,569950,1.008,0.503,-0.088,292.1,203.8,130.7,-18.9,-15.7,22.5,0.75041963,-0.038514359,-0.655140843,-0.0785241249
482,1210382,569950,1.078,0.463,-0.093,283.9,204.3,119.5,-19.8,-14,22.5,0.757042146,-0.0319528794,-0.649128697,-0.0668050172
483,1212592,569950,1.023,0.463,-0.069,286.6,197.1,111.3,-19.8,-14,22.5,0.760155034,-0.0285042879,-0.64619892,-0.061037019
484,1214556,569960,0.867,0.418,-0.09,293.1,187.5,104.4,-19.8,-14,22.5,0.763115329,-0.0248420667,-0.643391217,-0.0552995392
485,1217880,569960,0.926,0.465,-0.106,301.4,175.9,99.5,-20.4,-12.5,22.3,0.765831477,-0.0209967345,-0.640736106,-0.0495010224
486,1219314,569960,1.012,0.515,-0.131,309.9,161.3,94.5,-20.4,-12.5,22.3,0.768303476,-0.0169682913,-0.638325144,-0.0436719871
487,1221745,569960,1.187,0.588,-0.16,317.3,142.2,87.7,-20.4,-12.5,22.3,0.77047029,-0.012756737,-0.636188849,-0.0378124332
488,1226165,569970,1.304,0.645,-0.111,322.7,120,79.9,-20.4,-12.5,22.3,0.772270882,-0.00833155309,-0.634388256,-0.0320139164
489,1227715,569970,1.234,0.617,-0.036,324.9,98.4,74.3,-21.3,-10.3,23.2,0.773735771,-0.00381481368,-0.632923368,-0.0263069552
490,1230713,569970,1.175,0.573,0.046,321.8,81.7,72.8,-21.3,-10.3,23.2,0.774895474,0.00061037019,-0.631702628,-0.0206305124
491,1233064,569970,1.089,0.424,0.159,312,72.3,74.2,-21.3,-10.3,23.2,0.775902585,0.00491348003,-0.630603961,-0.0150761437
492,1235290,569980,1.069,0.364,0.206,295.8,69.7,75.1,-21.3,-10.3,23.2,0.776848659,0.00891140477,-0.629535813,-0.00973540452
493,1237566,569980,1.069,0.332,0.26,275.4,72.1,72.8,-20.6,-9.4,22.5,0.777764214,0.0125736259,-0.628345592,-0.00469985046
494,1239612,569980,1.08,0.319,0.315,254.5,77.9,66.6,-20.6,-9.4,22.5,0.778771325,0.015991699,-0.627063814,-6.1037019e-05
495,1241757,569980,1.064,0.33,0.409,237.3,85.6,58,-20.6,-9.4,22.5,0.779839473,0.019226661,-0.625629444,0.0041810358
496,1245098,569990,1.068,0.364,0.464,226.7,93.8,49.9,-20.6,-9.4,22.5,0.781029695,0.022400586,-0.624011963,0.00817896054
497,1247100,569990,1.138,0.422,0.522,223.6,101.9,44.7,-21.1,-8.2,22.4,0.782280953,0.0255745109,-0.62224189,0.0120242927
498,1249423,569990,0.942,0.441,0.698,227.7,109.6,44.3,-21.1,-8.2,22.4,0.783623768,0.0288094729,-0.620349742,0.0159306619
499,1252141,569990,0.867,0.495,0.814,238.5,118.2,49.5,-21.1,-8.2,22.4,0.785027619,0.0321970275,-0.618243965,0.0200811792
500,1255394,570000,0.882,0.587,0.936,256.6,127.9,59.3,-21.1,-8.2,22.4,0.786523026,0.0357371746,-0.615985595,0.0246589557
501,1256945,570000,0.882,0.587,0.936,256.6,127.9,59.3,-21.1,-8.2,22.4,0.786523026,0.0357371746,-0.615985595,0.0246589557
502,1260173,570000,0.642,0.784,1.385,317.5,148,79.6,-21.6,-6.7,22.3,0.789849544,0.0443433943,-0.610614338,0.0361644337
503,1263260,570000,0.598,0.908,1.505,360,158,86,-21.6,-6.7,22.3,0.791497543,0.0492568743,-0.607654042,0.0425733207
504,1265527,570010,0.332,1.035,1.66,409.6,169.5,90.3,-21.6,-6.7,22.3,0.793176061,0.0549638356,-0.60441908,0.0497451704
505,1267750,570010,0.038,1.449,1.756,464,184.2,94,-21.9,-4.6,21.9,0.794915616,0.0615558336,-0.600787378,0.0577105014
506,1270019,570010,-0.247,1.723,1.768,519.6,202.6,98.9,-21.9,-4.6,21.9,0.79668569,0.0690328684,-0.596728416,0.0664998321
507,1272061,570010,-0.469,2.053,1.702,570.7,224,105,-21.9,-4.6,21.9,0.7985168,0.0772423475,-0.592089602,0.0760826441
508,1274411,570020,-0.489,2.455,1.551,610.4,244.5,110.7,-21.9,-4.6,21.9,0.80037843,0.0860316782,-0.586962493,0.0863063448
509,1276839,570020,-0.663,3.119,1.143,632.6,260,113,-23.7,-1.6,20.5,0.80220954,0.095126194,-0.581377606,0.0968657491
510,1280418,570020,-0.674,3.303,0.895,633,268.2,109.9,-23.7,-1.6,20.5,0.803979614,0.104251228,-0.575487533,0.107364116
511,1281849,570020,-0.877,3.419,0.692,609.8,270.3,102.8,-23.7,-1.6,20.5,0.805658132,0.113010041,-0.569505905,0.117435224
512,1285028,570030,-0.96,3.131,0.268,562.5,268.7,94.5,-23.7,-1.6,20.5,0.807275613,0.12100589,-0.56346324,0.12674337
513,1287071,570030,-0.706,2.788,0.165,491.1,262,85.7,-22.2,0.2,19.9,0.808893094,0.127872555,-0.557725761,0.134952849
514,1289366,570030,-0.35,2.447,0.131,397,243.9,74.2,-22.2,0.2,19.9,0.810510575,0.133274331,-0.55241554,0.141788995
515,1292481,570030,-0.095,2.162,0.08,286.4,209.4,58.1,-22.2,0.2,19.9,0.812005982,0.136936552,-0.547990356,0.146855068
516,1295495,570040,0.225,1.605,0.048,168.8,161.1,39.3,-22.2,0.2,19.9,0.813287759,0.138981292,-0.544694357,0.150059511
517,1297845,570040,0.33,1.438,0.107,52.5,108.1,21.6,-22.8,0,19.3,0.814325388,0.139286477,-0.542680136,0.151402326
518,1300100,570040,0.377,1.28,0.151,-58.1,60.2,7.8,-22.8,0,19.3,0.815179907,0.137974181,-0.541825617,0.151036103
519,1302042,570040,0.517,1.104,0.24,-161.7,22.3,-1.2,-22.8,0,19.3,0.815942869,0.135044404,-0.541947691,0.149174474
520,1305207,570050,0.572,0.896,0.253,-257.3,-5.9,-5.5,-22.8,0,19.3,0.816644795,0.130527665,-0.542863247,0.146000549
521,1306850,570050,0.572,0.896,0.253,-257.3,-5.9,-5.5,-22.8,0,19.3,0.816644795,0.130527665,-0.542863247,0.146000549
522,1310745,570050,0.569,0.464,0.216,-425.2,-50.1,1,-22.9,-1.3,19.7,0.817712943,0.115665151,-0.547257912,0.135654775
523,1312779,570050,0.608,0.091,0.23,-495.7,-71.4,8.4,-22.9,-1.3,19.7,0.818048647,0.106906339,-0.550004578,0.129703665
524,1315792,570060,0.655,-0.039,0.275,-551.3,-92.3,13.1,-22.9,-1.3,19.7,0.818109684,0.0971709342,-0.553209021,0.123081149
525,1317972,570060,0.702,-0.166,0.316,-586.8,-111.7,11.8,-22.5,-2.9,20.2,0.817926572,0.086855678,-0.556749168,0.115970336
526,1319371,570060,0.784,-0.36,0.371,-599.5,-128.6,4.5,-22.5,-2.9,20.2,0.817377239,0.0764183477,-0.560533464,0.108493301
527,1322561,570060,0.827,-0.404,0.428,-591.7,-142.6,-6.2,-22.5,-2.9,20.2,0.816583758,0.0662556841,-0.564409314,0.100924711
528,1324544,570070,0.838,-0.452,0.47,-567.6,-152.7,-18,-22.5,-2.9,20.2,0.81551561,0.0566728721,-0.568315683,0.0933561205
529,1326945,570070,0.877,-0.516,0.484,-532.7,-158.1,-29.3,-23.8,-4.8,21.1,0.814203314,0.0478835414,-0.572130497,0.0860316782
530,1330009,570070,0.877,-0.552,0.539,-491.6,-158.3,-40.2,-23.8,-4.8,21.1,0.812768944,0.0399792474,-0.575792718,0.0790429395
531,1332092,570070,0.877,-0.56,0.55,-447.8,-153.1,-51.6,-23.8,-4.8,21.1,0.811273537,0.0329599902,-0.579180273,0.072359386
532,1334251,570080,0.9,-0.552,0.562,-402.7,-142.5,-64.3,-23.8,-4.8,21.1,0.809839167,0.0268562883,-0.582293161,0.066011536
533,1337441,570080,0.9,-0.537,0.574,-357.3,-127,-78.6,-21.9,-5.6,20.9,0.808496353,0.0217291787,-0.58497879,0.0600299081
534,1340522,570080,0.92,-0.497,0.554,-313,-108,-94,-21.9,-5.6,20.9,0.807367168,0.0175481429,-0.587237159,0.0543229469
535,1342178,570080,0.924,-0.486,0.539,-271.8,-87.1,-109.5,-21.9,-5.6,20.9,0.806482131,0.0142521439,-0.589037751,0.0488601337
536,1344481,570090,0.924,-0.481,0.5,-234.9,-65.6,-123.7,-21.9,-5.6,20.9,0.805841243,0.0117801447,-0.590380566,0.0436414686
537,1347562,570090,0.94,-0.433,0.449,-202.8,-44.1,-135.8,-21.8,-7.5,21.3,0.805413984,0.0100100711,-0.59132664,0.0386059145
538,1349682,570090,0.955,-0.39,0.43,-175,-23,-145.5,-21.8,-7.5,21.3,0.80529191,0.00885036775,-0.591814936,0.0338145085
539,1351896,570090,0.948,-0.35,0.407,-151,-2.2,-153.2,-21.8,-7.5,21.3,0.805383465,0.00814844203,-0.59193701,0.0291756951
540,1355059,570100,0.944,-0.307,0.38,-131.2,17.8,-159.8,-21.8,-7.5,21.3,0.805719169,0.00790429395,-0.591662343,0.0246589557
541,1357167,570100,0.944,-0.307,0.38,-131.2,17.8,-159.8,-21.8,-7.5,21.3,0.805719169,0.00790429395,-0.591662343,0.0246589557
542,1359378,570100,0.936,-0.219,0.291,-104.6,65.1,-172.2,-22.5,-9,20.9,0.807428205,0.00851466414,-0.589648122,0.0159306619
543,1362607,570100,0.921,-0.207,0.268,-105.9,74.1,-172.7,-22.5,-9,20.9,0.808465835,0.00885036775,-0.588335826,0.0115359966
544,1365521,570110,0.886,-0.178,0.234,-109.5,78.9,-171.6,-22.5,-9,20.9,0.809533982,0.00909451582,-0.586901456,0.00711081271
545,1366860,570110,0.855,-0.182,0.223,-112.9,78.9,-169,-22.3,-9.6,20.4,0.810571612,0.00927762688,-0.585497604,0.00271614734
546,1370128,570110,0.827,-0.174,0.219,-114.3,74.2,-165.1,-22.3,-9.6,20.4,0.811548204,0.0093386639,-0.58415479,-0.00164799951
547,1373040,570110,0.792,-0.153,0.22,-112.4,64.4,-160.7,-22.3,-9.6,20.4,0.812372204,0.00939970092,-0.582995087,-0.00589007233
548,1374467,570120,0.784,-0.094,0.202,-107.5,49.7,-155.9,-22.3,-9.6,20.4,0.813013092,0.00949125645,-0.582049013,-0.0100100711
549,1377648,570120,0.816,-0.075,0.193,-100.4,31,-150.7,-24.2,-10.9,20,0.813379315,0.00964384899,-0.581438643,-0.0139774773
550,1379603,570120,0.858,-0.044,0.185,-92,10.1,-144.8,-24.2,-10.9,20,0.81347087,0.00982696005,-0.581194494,-0.0177007355
551,1382763,570120,0.901,-0.002,0.205,-83.4,-10.6,-137.7,-24.2,-10.9,20,0.813318278,0.0101016266,-0.581316568,-0.0212103641
552,1385862,570130,0.929,0.017,0.22,-75.2,-29.3,-129.9,-24.2,-10.9,20,0.812891018,0.0104068117,-0.581774346,-0.0244758446
553,1388006,570130,0.952,0.039,0.243,-68.3,-44.7,-122.4,-22.4,-11.3,20.1,0.812280648,0.0107119968,-0.58250679,-0.0275276955
554,1389464,570130,1.01,0.066,0.25,-64.2,-56.7,-116.5,-22.4,-11.3,20.1,0.811487167,0.0110171819,-0.583422346,-0.0303964354
555,1392573,570130,1.163,0.064,0.252,-63.8,-65.2,-113,-22.4,-11.3,20.1,0.81060213,0.0112918485,-0.584521012,-0.0332346568
556,1395550,570140,1.237,0.036,0.246,-66.9,-69.7,-111.8,-22.4,-11.3,20.1,0.809625538,0.0114749596,-0.585680715,-0.0361033967
557,1396978,570140,1.257,0.032,0.246,-72,-69.7,-111.9,-22.1,-12,20.1,0.808679464,0.0115970336,-0.5868099,-0.0390026551
558,1400073,570140,1.237,0.044,0.246,-77.2,-66.2,-111.7,-22.1,-12,20.1,0.80773339,0.0115970336,-0.587878048,-0.041993469
559,1403149,570140,1.225,0.04,0.258,-81.9,-61.3,-110.1,-22.1,-12,20.1,0.806878872,0.0115054781,-0.58885464,-0.0449537645
560,1405432,570150,1.237,0.012,0.269,-86.6,-58.4,-106.4,-22.1,-12,20.1,0.806024354,0.0112918485,-0.589770196,-0.0480056154
561,1406849,570150,1.237,0.012,0.269,-86.6,-58.4,-106.4,-22.1,-12,20.1,0.806024354,0.0112918485,-0.589770196,-0.0480056154
562,1410962,570150,1.326,0.022,0.342,-94.2,-62.4,-92.5,-21.7,-12.9,20.6,0.804284799,0.0103762932,-0.591662343,-0.0538041322
563,1413004,570150,1.307,0.053,0.358,-93.6,-65.1,-83.3,-21.7,-12.9,20.6,0.803369243,0.00973540452,-0.592669454,-0.056489761
564,1415111,570160,1.248,0.062,0.36,-89.5,-64.2,-73.2,-21.7,-12.9,20.6,0.802453688,0.0090334788,-0.593676565,-0.0589617603
565,1418280,570160,1.139,0.091,0.35,-84.2,-59,-63.3,-21.4,-13.7,20.3,0.801629688,0.00830103458,-0.59459212,-0.061159093
566,1419652,570160,1.115,0.13,0.331,-80,-51.3,-55.2,-21.4,-13.7,20.3,0.800897244,0.00756859035,-0.595355083,-0.0631733146
567,1422548,570160,1.084,0.151,0.309,-77.7,-43.3,-50.4,-21.4,-13.7,20.3,0.800286874,0.00680562761,-0.595995972,-0.0650349437
568,1425922,570170,1.045,0.167,0.302,-76.7,-36.9,-48.9,-21.4,-13.7,20.3,0.799737541,0.00604266488,-0.596514786,-0.0669270913
569,1428224,570170,0.971,0.199,0.292,-75.7,-32.4,-49.7,-22.8,-14.2,20.6,0.799249245,0.00531022065,-0.596972564,-0.0687887204
570,1430843,570170,0.948,0.219,0.3,-73.2,-29.1,-51.1,-22.8,-14.2,20.6,0.798821986,0.00466933195,-0.597369304,-0.0706503494
571,1432874,570170,0.916,0.243,0.305,-68.4,-26.3,-52.4,-22.8,-14.2,20.6,0.798394726,0.00411999878,-0.597705008,-0.0724509415
572,1434394,570180,0.869,0.294,0.322,-61.7,-23.6,-53,-22.8,-14.2,20.6,0.797997986,0.00369273965,-0.598010193,-0.0741904965
573,1437816,570180,0.85,0.322,0.331,-53.5,-21,-52.5,-21.1,-14.8,20,0.797631764,0.00341807306,-0.59828486,-0.075777459
574,1439242,570180,0.822,0.354,0.339,-44.9,-18.8,-51.1,-21.1,-14.8,20,0.797326579,0.00326548051,-0.598559526,-0.0772423475
575,1442554,570180,0.795,0.381,0.348,-36.4,-17.1,-48.7,-21.1,-14.8,20,0.797021393,0.003234962,-0.598773156,-0.0785851619
576,1444535,570190,0.744,0.452,0.373,-28.4,-16.4,-45.6,-21.1,-14.8,20,0.796716208,0.00332651753,-0.599017304,-0.0797753838
577,1447487,570190,0.716,0.476,0.378,-21.1,-16.4,-42,-21,-14.6,20.5,0.796441542,0.00347911008,-0.599261452,-0.0807824946
578,1450952,570190,0.681,0.476,0.39,-15,-17.2,-38.3,-21,-14.6,20.5,0.796136357,0.00369273965,-0.599536119,-0.0816370128
579,1452865,570190,0.658,0.519,0.415,-9.8,-18.7,-35.1,-21,-14.6,20.5,0.795831172,0.00393688772,-0.599841304,-0.0823694571
580,1454415,570200,0.646,0.543,0.431,-5.5,-20.8,-32.9,-21,-14.6,20.5,0.795495468,0.00424207282,-0.600177007,-0.0830408643
581,1457342,570200,0.646,0.543,0.431,-5.5,-20.8,-32.9,-21,-14.6,20.5,0.795495468,0.00424207282,-0.600177007,-0.0830408643
582,1460623,570200,0.634,0.629,0.467,0.8,-25.6,-32.5,-20.9,-15.2,20.2,0.794732505,0.00497451704,-0.601031526,-0.0841700491
583,1462737,570200,0.634,0.699,0.484,1.3,-27.9,-33.4,-20.9,-15.2,20.2,0.794305246,0.00537125767,-0.601519822,-0.0847193823
584,1465660,570210,0.622,0.715,0.484,-1.5,-29.9,-34.3,-20.9,-15.2,20.2,0.793847468,0.00576799829,-0.602008118,-0.085360271
585,1467073,570210,0.606,0.738,0.497,-8.3,-31.6,-34.9,-20.9,-15.6,20.6,0.793389691,0.00601214637,-0.602526933,-0.0860316782
586,1470641,570210,0.602,0.754,0.501,-18.6,-33.4,-35.5,-20.9,-15.6,20.6,0.792870876,0.0061037019,-0.603076266,-0.0869472335
587,1472072,570210,0.626,0.75,0.493,-31.5,-35.7,-36.3,-20.9,-15.6,20.6,0.792352062,0.00595110935,-0.603625599,-0.0879848628
588,1475155,570220,0.645,0.73,0.48,-45.7,-38.5,-37.9,-20.9,-15.6,20.6,0.79177221,0.00558488723,-0.604205451,-0.0892361217
589,1477406,570220,0.657,0.711,0.468,-59.7,-41.5,-39.9,-22.1,-15.5,20.6,0.791131321,0.00500503555,-0.604815821,-0.0907315287
590,1479228,570220,0.681,0.687,0.448,-71.6,-43.9,-41.9,-22.1,-15.5,20.6,0.790490432,0.00424207282,-0.605426191,-0.0923795282
591,1482427,570220,0.697,0.683,0.432,-80.8,-45.6,-43.2,-22.1,-15.5,20.6,0.789788507,0.00332651753,-0.606036561,-0.0942106388
592,1485372,570230,0.712,0.679,0.424,-87.5,-46.5,-43.3,-22.1,-15.5,20.6,0.789086581,0.00228888821,-0.606646931,-0.0961333048
593,1486760,570230,0.732,0.675,0.411,-92.7,-46.8,-42.8,-20.4,-15.8,20.4,0.788384655,0.00115970336,-0.607257302,-0.0980864895
594,1490257,570230,0.755,0.66,0.383,-97.4,-46.8,-41.7,-20.4,-15.8,20.4,0.78768273,-3.05185095e-05,-0.607867672,-0.100100711
595,1491932,570230,0.779,0.656,0.367,-102,-46.6,-40.6,-20.4,-15.8,20.4,0.786980804,-0.00134281442,-0.608447523,-0.102145451
596,1495075,570240,0.791,0.64,0.355,-106.8,-46.4,-39.5,-20.4,-15.8,20.4,0.78624836,-0.00274666585,-0.608996857,-0.104251228
597,1497954,570240,0.822,0.625,0.327,-111.6,-46.2,-38.8,-20.1,-16.7,20.3,0.785546434,-0.00427259133,-0.609515671,-0.106387524
598,1499426,570240,0.83,0.617,0.319,-116.2,-45.8,-38.6,-20.1,-16.7,20.3,0.784844508,-0.00585955382,-0.610034486,-0.108615375
599,1502668,570240,0.826,0.605,0.303,-120.3,-45.3,-38.9,-20.1,-16.7,20.3,0.784112064,-0.00750755333,-0.610553301,-0.110873745
600,1505620,570250,0.842,0.597,0.283,-123.8,-44.6,-39.4,-20.1,-16.7,20.3,0.783410138,-0.00918607135,-0.611011078,-0.113193152
601,1506956,570250,0.842,0.597,0.283,-123.8,-44.6,-39.4,-20.1,-16.7,20.3,0.783410138,-0.00918607135,-0.611011078,-0.113193152
602,1510438,570250,0.869,0.586,0.251,-130.1,-42.9,-41.9,-20,-17.5,20,0.781975768,-0.0115665151,-0.611713004,-0.118900113
603,1511953,570250,0.881,0.582,0.239,-133.8,-42,-44.4,-20,-17.5,20,0.781243324,-0.0133671072,-0.612109745,-0.121433149
604,1515047,570260,0.893,0.563,0.215,-138.5,-40.9,-47.7,-20,-17.5,20,0.780541398,-0.0151982177,-0.612445448,-0.12408826
605,1517857,570260,0.897,0.547,0.2,-144,-40,-52,-19.7,-17.8,20.2,0.779808954,-0.0170598468,-0.612750633,-0.126865444
606,1519351,570260,0.897,0.528,0.188,-150.5,-39.4,-56.9,-19.7,-17.8,20.2,0.77907651,-0.0189214759,-0.6130253,-0.129856258
607,1522403,570260,0.905,0.52,0.179,-158,-39.5,-62.7,-19.7,-17.8,20.2,0.778283029,-0.0209356975,-0.613269448,-0.132999664
608,1525692,570270,0.913,0.493,0.156,-166.6,-40.3,-69.3,-19.7,-17.8,20.2,0.777459029,-0.0229499191,-0.613483077,-0.136387219
609,1528016,570270,0.936,0.485,0.143,-176.4,-42.3,-75.6,-20.8,-18.7,19.9,0.776573992,-0.0250251778,-0.613727226,-0.140018921
610,1529990,570270,0.956,0.473,0.135,-187,-45.5,-81.1,-20.8,-18.7,19.9,0.7755974,-0.0272835475,-0.613940855,-0.143864254
611,1533100,570270,0.968,0.422,0.118,-198.4,-49.8,-84.4,-20.8,-18.7,19.9,0.774559771,-0.0296639912,-0.614215522,-0.147923215
612,1535251,570280,0.995,0.39,0.098,-210.2,-55.2,-85.3,-20.8,-18.7,19.9,0.773400067,-0.032227546,-0.614520707,-0.15213477
613,1536776,570280,0.995,0.39,0.098,-210.2,-55.2,-85.3,-20.8,-18.7,19.9,0.773400067,-0.032227546,-0.614520707,-0.15213477
614,1539616,570280,1.023,0.343,0.066,-232.4,-66.7,-81,-19.5,-19.6,19.5,0.770744957,-0.0381176183,-0.615253151,-0.1609241
615,1541717,570280,1.058,0.316,0.037,-241.8,-71.9,-77.2,-19.5,-19.6,19.5,0.769310587,-0.0414136174,-0.615649892,-0.165410321
616,1544942,570290,1.081,0.281,0.021,-249.8,-76.5,-73.1,-19.5,-19.6,19.5,0.767784661,-0.0448927274,-0.616107669,-0.169927061
617,1547906,570290,1.097,0.264,0.036,-256.6,-80.1,-69.2,-19.4,-21.2,18.7,0.76616718,-0.0485549486,-0.616534928,-0.1744438
618,1549431,570290,1.097,0.264,0.036,-256.6,-80.1,-69.2,-19.4,-21.2,18.7,0.76616718,-0.0485549486,-0.616534928,-0.1744438
619,1553339,570290,1.097,0.264,0.036,-256.6,-80.1,-69.2,-19.4,-21.2,18.7,0.76616718,-0.0485549486,-0.616534928,-0.1744438
620,1554967,570300,1.097,0.264,0.036,-256.6,-80.1,-69.2,-19.4,-21.2,18.7,0.76616718,-0.0485549486,-0.616534928,-0.1744438
621,1557036,570300,1.14,0.194,0.015,-269.3,-84.8,-59.8,-19.4,-21.2,18.7,0.761101108,-0.0603045747,-0.617816706,-0.188024537
622,1559953,570300,1.183,0.119,0.009,-273.6,-85.7,-57.5,-18.7,-21.9,18.2,0.757530442,-0.0684530168,-0.618518632,-0.197058016
623,1563040,570300,1.199,0.099,-0.002,-273.2,-84.9,-57.4,-18.7,-21.9,18.2,0.75572985,-0.072603534,-0.618823817,-0.201544237
624,1564400,570310,1.187,0.083,-0.006,-270.3,-82.8,-57.3,-18.7,-21.9,18.2,0.75389874,-0.0766624958,-0.619067965,-0.205999939
625,1567518,570310,1.199,0.036,0,-265.1,-79.3,-56.9,-18.1,-23.1,17.9,0.752128666,-0.0805993835,-0.619281594,-0.210394604
626,1570557,570310,1.183,0.024,0.008,-258,-75,-56.3,-18.1,-23.1,17.9,0.750389111,-0.0844141972,-0.619403668,-0.214667196
627,1571963,570310,1.187,0.02,0.012,-249.5,-70.1,-55.2,-18.1,-23.1,17.9,0.748710593,-0.0880764183,-0.619464705,-0.218817713
628,1575086,570320,1.176,0.005,0.004,-240.1,-64.9,-54,-18.1,-23.1,17.9,0.747062593,-0.0915860469,-0.619495224,-0.222815638
629,1578012,570320,1.148,0.013,0.001,-229.9,-59.7,-52.8,-18.5,-24.2,17.3,0.745567186,-0.0949125645,-0.619434187,-0.22666097
630,1579494,570320,1.133,0.013,0.009,-219.5,-55,-51.7,-18.5,-24.2,17.3,0.744102298,-0.0980559709,-0.619342631,-0.23035371
631,1582645,570320,1.125,0.017,0.009,-209,-50.9,-51.3,-18.5,-24.2,17.3,0.742698447,-0.100985748,-0.619220557,-0.233893857
632,1584774,570330,1.137,-0.005,0.005,-198.6,-47.5,-51.4,-18.5,-24.2,17.3,0.741355632,-0.103762932,-0.619098483,-0.23731193
633,1586937,570330,1.144,-0.006,0.004,-187.5,-44.4,-51.8,-17.4,-25,16.7,0.740043336,-0.106326487,-0.618945891,-0.24057741
634,1590040,570330,1.113,0.037,0.017,-174.8,-40.6,-52,-17.4,-25,16.7,0.738822596,-0.108645894,-0.618793298,-0.243690298
635,1592135,570330,1.066,0.096,0.046,-160.6,-35.3,-51.6,-17.4,-25,16.7,0.737662893,-0.110751671,-0.618640706,-0.246589557
636,1594447,570340,0.999,0.159,0.052,-146.9,-29.1,-50.2,-17.4,-25,16.7,0.736655782,-0.112582781,-0.618427076,-0.249305704
637,1597779,570340,0.976,0.183,0.049,-136.3,-23.6,-47.8,-17.3,-25.1,16.4,0.735740226,-0.114261299,-0.618152409,-0.251869259
638,1599306,570340,0.96,0.195,0.041,-130.6,-20.2,-45.1,-17.3,-25.1,16.4,0.734885708,-0.115817743,-0.617908261,-0.254310739
639,1602637,570340,0.945,0.207,0.034,-129.1,-19.4,-43.1,-17.3,-25.1,16.4,0.734061708,-0.117435224,-0.617603076,-0.256691183
640,1604579,570350,0.929,0.232,0.011,-129.9,-20.4,-42.3,-17.3,-25.1,16.4,0.73320719,-0.119083224,-0.61732841,-0.259071627
641,1607016,570350,0.929,0.232,0.011,-129.9,-20.4,-42.3,-17.3,-25.1,16.4,0.73320719,-0.119083224,-0.61732841,-0.259071627
642,1609877,570350,0.91,0.244,0.004,-132.3,-23.1,-43.4,-17,-26,15.7,0.73116245,-0.122318186,-0.617023225,-0.263893551
643,1613168,570350,0.906,0.263,0,-132.5,-22.9,-44.7,-17,-26,15.7,0.730246895,-0.123935667,-0.616748558,-0.266335032
644,1615392,570360,0.902,0.267,-0.003,-132,-21.8,-45.8,-17,-26,15.7,0.729331339,-0.125553148,-0.616443373,-0.268776513
645,1617718,570360,0.902,0.271,0,-131.2,-20.3,-46.7,-16.4,-26.7,15.9,0.728415784,-0.12714011,-0.616138188,-0.271217994
646,1619532,570360,0.894,0.275,-0.002,-130.6,-19.1,-47.7,-16.4,-26.7,15.9,0.727500229,-0.128696554,-0.615802484,-0.273689993
647,1623507,570360,0.898,0.283,0.001,-130.8,-18.5,-48.8,-16.4,-26.7,15.9,0.726615192,-0.13022248,-0.615436262,-0.276161992
648,1625769,570370,0.882,0.283,-0.006,-131.9,-18.5,-50.2,-16.4,-26.7,15.9,0.725669118,-0.131748405,-0.61507004,-0.278695029
649,1628063,570370,0.902,0.271,-0.01,-133.9,-19.4,-51.5,-17.4,-27.2,14.8,0.724692526,-0.133304849,-0.614734336,-0.281258583
650,1630244,570370,0.929,0.275,-0.023,-136.5,-20.8,-52.6,-17.4,-27.2,14.8,0.723715934,-0.134861293,-0.614368114,-0.283852657
651,1631868,570370,0.937,0.283,-0.03,-139.4,-22.6,-53.1,-17.4,-27.2,14.8,0.722647786,-0.136509293,-0.614001892,-0.286477248
652,1634446,570380,0.949,0.279,-0.023,-142.1,-24.4,-53,-17.4,-27.2,14.8,0.721579638,-0.138187811,-0.613666189,-0.289162877
653,1638135,570380,0.957,0.279,-0.031,-144.2,-26,-52.2,-16.3,-27.7,14.8,0.720450453,-0.139927366,-0.613299966,-0.291817988
654,1639746,570380,0.968,0.275,-0.031,-145.9,-27.4,-51.2,-16.3,-27.7,14.8,0.719321268,-0.141697439,-0.612964263,-0.294503616
655,1642057,570380,0.968,0.279,-0.027,-147.3,-28.8,-50.2,-16.3,-27.7,14.8,0.718131046,-0.14352855,-0.612628559,-0.297158727
656,1644346,570390,0.976,0.275,-0.023,-148.7,-30.2,-49.5,-16.3,-27.7,14.8,0.716940825,-0.145390179,-0.612292856,-0.299844356
657,1647273,570390,0.996,0.282,-0.02,-150.1,-31.6,-49,-16,-28.3,14,0.715720084,-0.147282327,-0.611957152,-0.302499466
658,1649503,570390,1,0.274,-0.016,-151.6,-33.1,-48.8,-16,-28.3,14,0.714468825,-0.149235511,-0.611621448,-0.305154576
659,1651755,570390,1.011,0.278,-0.012,-152.9,-34.6,-48.6,-16,-28.3,14,0.713187048,-0.151188696,-0.611285745,-0.307870724
660,1654703,570400,1.023,0.282,-0.008,-154,-35.9,-48.5,-16,-28.3,14,0.711844234,-0.153172399,-0.61098056,-0.310556352
661,1657113,570400,1.023,0.282,-0.008,-154,-35.9,-48.5,-16,-28.3,14,0.711844234,-0.153172399,-0.61098056,-0.310556352
662,1659240,570400,1.042,0.277,0.014,-154.5,-38.5,-48.7,-15.7,-29.3,14,0.708578753,-0.157017731,-0.611041597,-0.315958129
663,1662174,570400,1.046,0.281,0.017,-153.6,-39.4,-49,-15.7,-29.3,14,0.707174902,-0.159031953,-0.61076693,-0.318643757
664,1664474,570410,1.038,0.28,0.065,-152,-39.9,-49.5,-15.7,-29.3,14,0.70577105,-0.160985137,-0.610492264,-0.321298868
665,1667748,570410,1.042,0.284,0.08,-149.7,-40,-50,-15.2,-29.5,12.8,0.70433668,-0.162907804,-0.610217597,-0.32392346
666,1669995,570410,1.042,0.288,0.092,-146.9,-40,-50.6,-15.2,-29.5,12.8,0.702932829,-0.164769433,-0.609973449,-0.326517533
667,1671993,570410,1.034,0.288,0.1,-143.5,-40,-51.2,-15.2,-29.5,12.8,0.701498459,-0.166570025,-0.609759819,-0.329050569
668,1674258,570420,1.038,0.287,0.123,-139.5,-40.1,-52.3,-15.2,-29.5,12.8,0.700094607,-0.16830958,-0.60954619,-0.331553087
669,1677214,570420,1.034,0.283,0.127,-135,-40.1,-53.4,-15.4,-30.2,12.1,0.698660237,-0.169927061,-0.609393597,-0.334025086
670,1679476,570420,1.03,0.291,0.131,-129.9,-39.7,-54.6,-15.4,-30.2,12.1,0.697256386,-0.171483505,-0.609241005,-0.33640553
671,1681735,570420,1.011,0.299,0.136,-124.1,-39,-55.5,-15.4,-30.2,12.1,0.695852535,-0.172917875,-0.609118931,-0.338785974
672,1684704,570430,1.003,0.307,0.132,-118.1,-37.9,-56.2,-15.4,-30.2,12.1,0.69450972,-0.174260689,-0.609027375,-0.341074862
673,1686965,570430,0.995,0.296,0.128,-112.2,-36.7,-56.8,-15.6,-30.9,12.1,0.693166906,-0.175481429,-0.608966338,-0.343272195
674,1690116,570430,0.979,0.3,0.129,-106.7,-35.2,-57.6,-15.6,-30.9,12.1,0.69185461,-0.176580096,-0.60893582,-0.345439009
675,1693208,570430,0.964,0.32,0.109,-101.6,-33.6,-58.6,-15.6,-30.9,12.1,0.690572832,-0.177587207,-0.608905301,-0.347544786
676,1695366,570440,0.944,0.332,0.106,-97,-31.7,-60,-15.6,-30.9,12.1,0.689291055,-0.178502762,-0.608874783,-0.349620045
677,1696717,570440,0.929,0.34,0.083,-93.2,-29.6,-61.7,-15,-30.9,11.9,0.688070315,-0.179296243,-0.608844264,-0.351664785
678,1699674,570440,0.941,0.357,0.02,-90.9,-27.7,-63.4,-15,-30.9,11.9,0.686849574,-0.180028687,-0.608813746,-0.353709525
679,1702869,570440,0.953,0.373,-0.006,-90.7,-25.8,-65.4,-15,-30.9,11.9,0.685659352,-0.180730613,-0.608752709,-0.355784783
680,1704215,570450,0.957,0.377,-0.041,-93.4,-23.6,-67.9,-15,-30.9,11.9,0.684438612,-0.18140202,-0.608630634,-0.357951598
681,1707179,570450,0.957,0.377,-0.041,-93.4,-23.6,-67.9,-15,-30.9,11.9,0.684438612,-0.18140202,-0.608630634,-0.357951598
682,1710332,570450,0.969,0.343,-0.109,-105.8,-16.1,-75.4,-14.8,-31.6,11.5,0.681234169,-0.182317576,-0.608996857,-0.362956633
683,1713361,570450,0.973,0.327,-0.121,-113.4,-11,-80.3,-14.8,-31.6,11.5,0.67998291,-0.183019501,-0.608600116,-0.365611744
684,1714627,570460,0.957,0.312,-0.132,-120,-5.8,-85.6,-14.8,-31.6,11.5,0.678762169,-0.183721427,-0.608050783,-0.368449965
685,1717859,570460,0.981,0.288,-0.156,-125.3,-1.7,-90.2,-14.2,-32.2,10.4,0.67751091,-0.184392834,-0.607440413,-0.371440779
686,1719227,570460,0.996,0.277,-0.176,-129.8,0,-93.8,-14.2,-32.2,10.4,0.676198614,-0.185064241,-0.606738487,-0.374553667
687,1721903,570460,1.004,0.249,-0.196,-134.6,-1.1,-95.8,-14.2,-32.2,10.4,0.6748558,-0.185766167,-0.60606708,-0.377727592
688,1725150,570470,1.012,0.237,-0.197,-140.7,-5,-95.9,-14.2,-32.2,10.4,0.67342143,-0.186620685,-0.605365154,-0.380993072
689,1728207,570470,1.024,0.191,-0.225,-148.5,-11,-94.3,-13.5,-32.7,9.7,0.671895505,-0.187658315,-0.604663228,-0.384289071
690,1730420,570470,1.036,0.163,-0.233,-158.2,-18.9,-91,-13.5,-32.7,9.7,0.670216987,-0.188940092,-0.603991821,-0.387615589
691,1732647,570470,1.055,0.143,-0.238,-169.6,-28.6,-86.7,-13.5,-32.7,9.7,0.668416395,-0.190527055,-0.603320414,-0.391003143
692,1735706,570480,1.052,0.096,-0.238,-182.6,-40.4,-81.6,-13.5,-32.7,9.7,0.666402173,-0.192449721,-0.602679525,-0.394421216
693,1737912,570480,1.11,0.045,-0.244,-196.6,-54.1,-76.2,-13.2,-33,9,0.66420484,-0.194769127,-0.602099673,-0.397900327
694,1739292,570480,1.11,0.013,-0.229,-210.5,-69,-70.9,-13.2,-33,9,0.661793878,-0.197485275,-0.60155034,-0.401379437
695,1742476,570480,1.118,-0.018,-0.206,-223.5,-84.3,-65.7,-13.2,-33,9,0.659138768,-0.200567644,-0.601092563,-0.404919584
696,1745426,570490,1.177,-0.085,-0.207,-235.6,-99.9,-60.3,-13.2,-33,9,0.656239509,-0.204046754,-0.600695822,-0.408429212
697,1746944,570490,1.208,-0.14,-0.209,-246.8,-115.8,-55.3,-12.8,-33.9,8.1,0.653126621,-0.207892087,-0.600390637,-0.411908322
698,1749994,570490,1.212,-0.164,-0.182,-256.9,-131.3,-51.2,-12.8,-33.9,8.1,0.649769585,-0.212073122,-0.600177007,-0.415417951
699,1753176,570490,1.255,-0.204,-0.175,-264.8,-144.9,-48.5,-12.8,-33.9,8.1,0.646168401,-0.216498306,-0.600054933,-0.418897061
700,1754614,570500,1.29,-0.264,-0.133,-269.4,-155.2,-47.1,-12.8,-33.9,8.1,0.642445143,-0.221076083,-0.599993896,-0.422345653
701,1757649,570500,1.29,-0.264,-0.133,-269.4,-155.2,-47.1,-12.8,-33.9,8.1,0.642445143,-0.221076083,-0.599993896,-0.422345653
702,1760875,570500,1.364,-0.321,-0.104,-267.5,-164.2,-46.1,-12.3,-34.4,7.3,0.634662923,-0.230384228,-0.599993896,-0.429059725
703,1763060,570500,1.399,-0.369,-0.07,-261.6,-162.8,-45.6,-12.3,-34.4,7.3,0.630756554,-0.234931486,-0.599993896,-0.432294687
704,1764463,570510,1.411,-0.4,-0.063,-252.3,-157,-44.6,-12.3,-34.4,7.3,0.626972259,-0.239295633,-0.599993896,-0.435407575
705,1767434,570510,1.415,-0.404,-0.051,-239.1,-146.4,-43.2,-11.8,-34.9,6.2,0.623401593,-0.243385113,-0.599932859,-0.438337352
706,1770504,570510,1.426,-0.409,-0.04,-221.7,-131.4,-41.5,-11.8,-34.9,6.2,0.620075076,-0.247108371,-0.599810785,-0.441114536
707,1772001,570510,1.446,-0.377,-0.036,-200.8,-112.9,-40.1,-11.8,-34.9,6.2,0.617145299,-0.25040437,-0.599627674,-0.443678091
708,1774424,570520,1.391,-0.322,0.004,-177.6,-91.5,-38.9,-11.8,-34.9,6.2,0.614581744,-0.253151036,-0.599353008,-0.445997497
709,1778927,570520,1.273,-0.275,0.062,-154.7,-68.1,-37.8,-10.9,-35.5,5.4,0.612475967,-0.255409406,-0.598956267,-0.448164312
710,1781138,570520,1.148,-0.215,0.092,-135.4,-45,-36.5,-10.9,-35.5,5.4,0.61076693,-0.257179479,-0.598437452,-0.450178533
711,1782790,570520,1.117,-0.183,0.077,-122.4,-25.5,-35.2,-10.9,-35.5,5.4,0.609393597,-0.258583331,-0.597766045,-0.452101199
712,1785281,570530,1.105,-0.163,0.054,-116.6,-12.6,-34.4,-10.9,-35.5,5.4,0.608233894,-0.25983459,-0.596972564,-0.453993347
713,1786785,570530,1.09,-0.143,0.039,-116.1,-6.4,-34.2,-11.2,-35.6,4.4,0.607135228,-0.260994293,-0.596118046,-0.455916013
714,1789332,570530,1.078,-0.13,0.012,-117.9,-5.4,-34.4,-11.2,-35.6,4.4,0.60606708,-0.262153996,-0.59520249,-0.457869198
715,1793120,570530,1.066,-0.122,0.008,-119.1,-6.9,-34.9,-11.2,-35.6,4.4,0.604937895,-0.263344218,-0.594286935,-0.459852901
716,1795483,570540,1.059,-0.114,0.005,-118.1,-9.3,-35.4,-11.2,-35.6,4.4,0.603778191,-0.26453444,-0.593432417,-0.461806085
717,1797781,570540,1.055,-0.122,0.005,-114.1,-11.5,-35.8,-11.3,-35.8,4.1,0.60258797,-0.265694143,-0.592638936,-0.463667714
718,1799736,570540,1.051,-0.118,0.005,-107.6,-13.6,-35.7,-11.3,-35.8,4.1,0.601428266,-0.266762291,-0.59193701,-0.465468307
719,1801928,570540,1.047,-0.118,0.005,-99.2,-15.6,-35.1,-11.3,-35.8,4.1,0.600299081,-0.267769402,-0.59132664,-0.467116306
720,1804502,570550,1.051,-0.095,0.017,-89.5,-17.6,-33.8,-11.3,-35.8,4.1,0.599200415,-0.268684957,-0.590868862,-0.468611713
721,1808248,570550,1.051,-0.095,0.017,-89.5,-17.6,-33.8,-11.3,-35.8,4.1,0.599200415,-0.268684957,-0.590868862,-0.468611713
722,1810461,570550,1.047,-0.067,0.025,-70.7,-20.8,-29.8,-10.6,-35.8,3.1,0.597155675,-0.27027192,-0.590197455,-0.471114231
723,1812051,570550,1.051,-0.052,0.033,-63.6,-22.1,-27.5,-10.6,-35.8,3.1,0.596209601,-0.270973846,-0.589983825,-0.47215186
724,1816054,570560,1.035,-0.063,0.033,-58.3,-23.1,-25.1,-10.6,-35.8,3.1,0.595324564,-0.271645253,-0.589831233,-0.473097934
725,1818758,570560,1.047,-0.048,0.037,-54.1,-23.8,-23.3,-10.8,-36.1,3.2,0.594439528,-0.272286142,-0.589739677,-0.473952452
726,1821077,570560,1.054,-0.04,0.041,-50.1,-24.4,-21.8,-10.8,-36.1,3.2,0.593615528,-0.27292703,-0.589648122,-0.474745933
727,1823247,570560,1.074,0.001,0.053,-45.6,-25,-20.8,-10.8,-36.1,3.2,0.592791528,-0.273506882,-0.589648122,-0.475447859
728,1825441,570570,1.078,0.021,0.072,-40.9,-25.3,-19.7,-10.8,-36.1,3.2,0.592028565,-0.274025697,-0.589648122,-0.476088748
729,1827724,570570,1.078,0.025,0.08,-37,-25.2,-18.5,-10.2,-36.4,3.2,0.591296121,-0.274544511,-0.589709159,-0.476638081
730,1829719,570570,1.081,0.044,0.077,-34.5,-24.5,-17.2,-10.2,-36.4,3.2,0.590594195,-0.275032807,-0.589770196,-0.477156896
731,1831986,570570,1.093,0.083,0.085,-33.3,-23.5,-16.3,-10.2,-36.4,3.2,0.589922788,-0.275490585,-0.589831233,-0.47767571
732,1834348,570580,1.089,0.091,0.097,-33,-22.2,-15.9,-10.2,-36.4,3.2,0.589251381,-0.275948363,-0.589861751,-0.478164006
733,1838072,570580,1.093,0.099,0.097,-33.8,-20.6,-16.2,-10.8,-36.3,3.4,0.588610492,-0.276375622,-0.589861751,-0.478682821
734,1840351,570580,1.097,0.118,0.097,-35.8,-18.8,-16.4,-10.8,-36.3,3.4,0.588000122,-0.276833399,-0.589831233,-0.479232154
735,1842170,570580,1.089,0.134,0.101,-39,-17.1,-16.7,-10.8,-36.3,3.4,0.587359233,-0.277291177,-0.589739677,-0.479842524
736,1844493,570590,1.077,0.13,0.093,-43.2,-15.2,-16.8,-10.8,-36.3,3.4,0.586718345,-0.277779473,-0.589587085,-0.48054445
737,1846822,570590,1.062,0.107,0.082,-48.1,-13.2,-16.8,-11,-36.3,3.5,0.586077456,-0.278328806,-0.589373455,-0.481276894
738,1849327,570590,1.058,0.088,0.078,-52.9,-11,-17.3,-11,-36.3,3.5,0.585436567,-0.278908658,-0.589037751,-0.482131413
739,1852850,570590,1.058,0.08,0.074,-56.8,-8.8,-18.1,-11,-36.3,3.5,0.584795679,-0.27948851,-0.588671529,-0.483016449
740,1855244,570600,1.042,0.076,0.07,-58.5,-6.6,-19,-11,-36.3,3.5,0.584124271,-0.280068361,-0.588274789,-0.483993042
741,1857255,570600,1.042,0.076,0.07,-58.5,-6.6,-19,-11,-36.3,3.5,0.584124271,-0.280068361,-0.588274789,-0.483993042
742,1859442,570600,1.038,0.06,0.082,-55.6,-2.7,-20.1,-11,-36.1,2.8,0.583147679,-0.281899472,-0.58742027,-0.485152745
743,1862644,570600,1.042,0.049,0.081,-52.6,-1.2,-20.2,-11,-36.1,2.8,0.582598346,-0.282326731,-0.586993011,-0.4860683
744,1865564,570610,1.038,0.056,0.081,-49.7,-0.3,-20,-11,-36.1,2.8,0.582049013,-0.282692953,-0.586596271,-0.486953337
745,1867872,570610,1.035,0.056,0.085,-47.1,0,-19.7,-10.7,-36.7,2.7,0.581560717,-0.283059175,-0.58619953,-0.487807855
746,1870156,570610,1.038,0.064,0.085,-44.5,-0.2,-19.1,-10.7,-36.7,2.7,0.58107242,-0.28336436,-0.585863826,-0.488631855
747,1872159,570610,1.042,0.064,0.085,-42.1,-0.7,-18.6,-10.7,-36.7,2.7,0.580614643,-0.283669546,-0.585528123,-0.489394818
748,1874412,570620,1.046,0.06,0.081,-39.7,-1.5,-17.8,-10.7,-36.7,2.7,0.580156865,-0.283974731,-0.585253456,-0.490127262
749,1876835,570620,1.058,0.076,0.093,-37.4,-2.5,-16.8,-8.9,-36.9,2.2,0.579699087,-0.284249397,-0.58497879,-0.490798669
750,1879330,570620,1.058,0.08,0.093,-34.8,-3.6,-15.5,-8.9,-36.9,2.2,0.579271828,-0.284524064,-0.584734642,-0.49140904
751,1882956,570620,1.054,0.084,0.089,-32.2,-4.6,-14,-8.9,-36.9,2.2,0.578875088,-0.28479873,-0.584551531,-0.491988891
752,1885246,570630,1.058,0.095,0.093,-29.7,-5.3,-12.6,-8.9,-36.9,2.2,0.578478347,-0.285073397,-0.584368419,-0.492477187
753,1886745,570630,1.062,0.099,0.089,-27.7,-5.6,-11.6,-10.4,-36.5,2.2,0.578112125,-0.285348064,-0.584215827,-0.492934965
754,1891367,570630,1.058,0.107,0.093,-26.3,-5.7,-10.7,-10.4,-36.5,2.2,0.577745903,-0.285592212,-0.584063234,-0.493392743
755,1893704,570630,1.066,0.111,0.089,-25.4,-5.5,-10.1,-10.4,-36.5,2.2,0.577410199,-0.28583636,-0.58394116,-0.493789483
756,1895801,570640,1.058,0.123,0.086,-24.9,-5.4,-9.3,-10.4,-36.5,2.2,0.577105014,-0.286111026,-0.583788568,-0.494186224
757,1898069,570640,1.058,0.123,0.09,-24.6,-5.3,-8.5,-10.4,-36.7,2.2,0.576769311,-0.286355174,-0.583635975,-0.494582965
758,1900286,570640,1.054,0.119,0.094,-24.4,-5.2,-7.6,-10.4,-36.7,2.2,0.576464125,-0.286629841,-0.583513901,-0.494949187
759,1902649,570640,1.062,0.119,0.086,-24.3,-5.2,-6.8,-10.4,-36.7,2.2,0.576189459,-0.286904508,-0.583361309,-0.495315409
760,1905772,570650,1.054,0.127,0.086,-24.1,-5.3,-5.9,-10.4,-36.7,2.2,0.575884274,-0.287179174,-0.583178198,-0.495681631
761,1908088,570650,1.054,0.127,0.086,-24.1,-5.3,-5.9,-10.4,-36.7,2.2,0.575884274,-0.287179174,-0.583178198,-0.495681631
762,1910258,570650,1.05,0.131,0.09,-23.5,-5.4,-3.6,-10,-37,1.7,0.575640126,-0.28910184,-0.582903531,-0.495223853
763,1912596,570650,1.046,0.127,0.094,-23,-5.5,-2.3,-10,-37,1.7,0.575395978,-0.289407025,-0.58272042,-0.495529038
764,1915716,570660,1.042,0.131,0.09,-22.4,-5.7,-1.2,-10,-37,1.7,0.57515183,-0.289742729,-0.582567827,-0.495773186
765,1917948,570660,1.042,0.135,0.09,-21.7,-5.9,-0.2,-10.3,-36.5,2.3,0.5749382,-0.290078433,-0.582415235,-0.496017335
766,1920158,570660,1.038,0.139,0.09,-20.9,-6.1,0.6,-10.3,-36.5,2.3,0.574755089,-0.290414136,-0.582262642,-0.496230964
767,1923190,570660,1.027,0.147,0.098,-20.1,-6.1,1.4,-10.3,-36.5,2.3,0.574541459,-0.29074984,-0.58211005,-0.496444594
768,1925448,570670,1.023,0.143,0.102,-19.4,-6.1,2.2,-10.3,-36.5,2.3,0.574388867,-0.291085543,-0.581957457,-0.496627705
769,1927639,570670,1.019,0.147,0.099,-18.9,-6,2.9,-8.7,-37.1,1.6,0.574205756,-0.291421247,-0.581804865,-0.496780297
770,1930631,570670,1.015,0.151,0.106,-18.4,-5.9,3.5,-8.7,-37.1,1.6,0.574053163,-0.291756951,-0.581652272,-0.49693289
771,1931970,570670,1.007,0.151,0.099,-17.8,-5.7,3.9,-8.7,-37.1,1.6,0.573900571,-0.292092654,-0.58149968,-0.497085482
772,1935207,570680,0.999,0.155,0.095,-17,-5.7,4.4,-8.7,-37.1,1.6,0.573778497,-0.292428358,-0.581377606,-0.497207556
773,1938177,570680,0.995,0.147,0.099,-16.2,-5.6,4.6,-10.3,-36.2,1.8,0.573656423,-0.292764061,-0.581225013,-0.497299112
774,1939525,570680,0.991,0.147,0.091,-15.1,-5.5,4.8,-10.3,-36.2,1.8,0.573534349,-0.293069246,-0.581102939,-0.497421186
775,1942662,570680,0.988,0.135,0.091,-13.6,-5.3,4.6,-10.3,-36.2,1.8,0.573442793,-0.293343913,-0.581011383,-0.497482223
776,1944706,570690,0.968,0.085,0.067,-11.4,-5,4,-10.3,-36.2,1.8,0.573351238,-0.29361858,-0.580919828,-0.49754326
777,1947877,570690,0.976,0.12,0.083,-8,-4.7,2.8,-10.5,-36.6,1.1,0.573259682,-0.293801691,-0.580858791,-0.497573778
778,1949366,570690,0.98,0.139,0.087,-3,-4.3,0.7,-10.5,-36.6,1.1,0.573198645,-0.293893246,-0.580889309,-0.497604297
779,1952210,570690,0.988,0.143,0.091,3.4,-3.6,-2.1,-10.5,-36.6,1.1,0.573137608,-0.293862728,-0.580980865,-0.49754326
780,1954628,570700,0.98,0.167,0.099,10.1,-2.9,-4.9,-10.5,-36.6,1.1,0.573137608,-0.293710135,-0.581163976,-0.497451704
781,1956969,570700,0.98,0.167,0.099,10.1,-2.9,-4.9,-10.5,-36.6,1.1,0.573137608,-0.293710135,-0.581163976,-0.497451704
782,1960143,570700,0.968,0.186,0.104,18.1,-2.3,-5.4,-10.6,-36.7,1.5,0.573229163,-0.293588061,-0.581713309,-0.496749779
783,1963465,570700,0.96,0.202,0.116,18.6,-2.7,-3,-10.6,-36.7,1.5,0.573290201,-0.293343913,-0.581957457,-0.496536149
784,1965579,570710,0.96,0.233,0.124,17.5,-3.6,-0.1,-10.6,-36.7,1.5,0.573351238,-0.293160802,-0.582201605,-0.496292001
785,1967872,570710,0.96,0.233,0.124,15.1,-4.6,2.4,-10.4,-36.6,1.6,0.573412275,-0.293038728,-0.582415235,-0.496047853
786,1970166,570710,0.948,0.23,0.124,11.5,-5.5,4.6,-10.4,-36.6,1.6,0.573473312,-0.293008209,-0.582567827,-0.495803705
787,1971743,570710,0.941,0.218,0.12,7,-6.4,6.3,-10.4,-36.6,1.6,0.57350383,-0.293069246,-0.582689901,-0.495590075
788,1975549,570720,0.933,0.202,0.116,2.3,-6.8,7.4,-10.4,-36.6,1.6,0.57350383,-0.293221839,-0.582750938,-0.495437483
789,1977721,570720,0.937,0.195,0.116,-1.6,-6.9,7.6,-8.9,-37.4,1.5,0.57350383,-0.29340495,-0.582781457,-0.495315409
790,1980765,570720,0.941,0.191,0.108,-3.9,-6.8,7,-8.9,-37.4,1.5,0.573473312,-0.29361858,-0.582781457,-0.495223853
791,1983034,570720,0.941,0.195,0.108,-4.3,-6.5,6,-8.9,-37.4,1.5,0.573412275,-0.293832209,-0.582750938,-0.495162816
792,1985276,570730,0.941,0.199,0.104,-3.2,-6.2,5.1,-8.9,-37.4,1.5,0.573381756,-0.29401532,-0.582781457,-0.495101779
793,1987670,570730,0.937,0.195,0.112,-1,-5.8,4.4,-10.5,-36.2,1.7,0.573351238,-0.294137394,-0.582811975,-0.495010224
794,1989606,570730,0.941,0.199,0.108,1.4,-5.7,4,-10.5,-36.2,1.7,0.573320719,-0.29422895,-0.582873012,-0.494918668
795,1993011,570730,0.933,0.203,0.105,3.9,-5.7,4,-10.5,-36.2,1.7,0.573320719,-0.294289987,-0.582964568,-0.494766076
796,1995240,570740,0.933,0.207,0.105,6,-5.9,4.1,-10.5,-36.2,1.7,0.573320719,-0.294351024,-0.583056124,-0.494613483
797,1996760,570740,0.937,0.21,0.109,7.6,-6.3,4.2,-10.6,-36.3,1.6,0.573351238,-0.294351024,-0.583208716,-0.494399854
798,2000485,570740,0.937,0.214,0.109,9,-6.7,4.2,-10.6,-36.3,1.6,0.573351238,-0.294381542,-0.583361309,-0.494216742
799,2002704,570740,0.937,0.21,0.109,10.4,-7.2,3.9,-10.6,-36.3,1.6,0.573381756,-0.294381542,-0.58354442,-0.493972594
800,2004208,570750,0.937,0.218,0.113,11.9,-7.6,3.5,-10.6,-36.3,1.6,0.573381756,-0.294351024,-0.583727531,-0.493728446
801,2007019,570750,0.937,0.218,0.113,11.9,-7.6,3.5,-10.6,-36.3,1.6,0.573381756,-0.294351024,-0.583727531,-0.493728446
802,2010182,570750,0.933,0.238,0.117,15,-7.8,2.3,-10.3,-36.4,1.5,0.573351238,-0.294412061,-0.584368419,-0.492996002
803,2012908,570750,0.937,0.245,0.121,16.4,-7.8,1.9,-10.3,-36.4,1.5,0.573381756,-0.294320505,-0.584643086,-0.492660298
804,2014346,570760,0.937,0.257,0.121,17.4,-7.9,1.6,-10.3,-36.4,1.5,0.573412275,-0.294198431,-0.584917753,-0.49241615
805,2017187,570760,0.937,0.253,0.125,17.9,-7.9,1.2,-10.3,-36.4,2.1,0.573442793,-0.294076357,-0.585192419,-0.492110965
806,2020413,570760,0.937,0.265,0.117,18.2,-8,0.6,-10.3,-36.4,2.1,0.573473312,-0.293923765,-0.585497604,-0.491836299
807,2021829,570760,0.937,0.273,0.125,18.2,-8,0.2,-10.3,-36.4,2.1,0.573473312,-0.293801691,-0.585772271,-0.491531114
808,2024990,570770,0.94,0.277,0.117,18,-8.1,-0.2,-10.3,-36.4,2.1,0.57350383,-0.293649098,-0.586077456,-0.491256447
809,2027833,570770,0.94,0.281,0.117,17.7,-8.1,-0.6,-8.6,-37.3,2,0.57350383,-0.293527024,-0.586382641,-0.49098178
810,2029259,570770,0.944,0.292,0.121,17.1,-8.1,-0.9,-8.6,-37.3,2,0.57350383,-0.293374432,-0.586657308,-0.490707114
811,2032517,570770,0.94,0.289,0.125,16.3,-7.9,-0.9,-8.6,-37.3,2,0.573473312,-0.293252358,-0.586901456,-0.490462966
812,2034506,570780,0.944,0.285,0.113,15.4,-8,-0.7,-8.6,-37.3,2,0.573473312,-0.293130284,-0.587206641,-0.490249336
813,2037667,570780,0.944,0.289,0.113,14.2,-8.1,-0.7,-10.3,-36.2,2,0.573442793,-0.293038728,-0.587481307,-0.490005188
814,2039244,570780,0.94,0.293,0.117,13.2,-8.3,-1,-10.3,-36.2,2,0.573412275,-0.292947172,-0.587725455,-0.489791559
815,2042939,570780,0.944,0.293,0.117,12.4,-8.3,-1.3,-10.3,-36.2,2,0.573381756,-0.292855617,-0.587969604,-0.489608448
816,2044333,570790,0.948,0.296,0.113,12.1,-8.1,-1.7,-10.3,-36.2,2,0.573320719,-0.292764061,-0.588213752,-0.489425336
817,2047342,570790,0.948,0.3,0.117,12,-7.9,-2,-10.1,-36.3,2.3,0.573290201,-0.292672506,-0.5884579,-0.489242225
818,2049482,570790,0.944,0.304,0.117,11.7,-7.8,-2.4,-10.1,-36.3,2.3,0.573229163,-0.29258095,-0.588702048,-0.489059114
819,2052681,570790,0.944,0.304,0.114,11.3,-7.8,-2.9,-10.1,-36.3,2.3,0.573168126,-0.292489395,-0.588946196,-0.488906522
820,2055748,570800,0.948,0.308,0.11,10.7,-7.8,-3.5,-10.1,-36.3,2.3,0.573107089,-0.292397839,-0.589159825,-0.488753929
821,2058073,570800,0.948,0.308,0.11,10.7,-7.8,-3.5,-10.1,-36.3,2.3,0.573107089,-0.292397839,-0.589159825,-0.488753929
822,2060303,570800,0.944,0.285,0.113,9.7,-7.7,-4.6,-9.9,-35.7,2.4,0.572557756,-0.291817988,-0.589953307,-0.488753929
823,2062461,570800,0.948,0.269,0.101,9.2,-7.6,-5.2,-9.9,-35.7,2.4,0.572466201,-0.291726432,-0.590197455,-0.488662374
824,2064521,570810,0.96,0.281,0.101,9.2,-7.3,-6.2,-9.9,-35.7,2.4,0.572374645,-0.291604358,-0.590411084,-0.488570818
825,2066807,570810,0.96,0.292,0.113,10,-6.4,-8,-9.6,-36.4,1.9,0.572252571,-0.291421247,-0.590655232,-0.488509781
826,2070481,570810,0.96,0.296,0.117,11.5,-5.3,-10.5,-9.6,-36.4,1.9,0.572130497,-0.291207617,-0.590929899,-0.488479263
827,2072605,570810,0.96,0.292,0.117,13.4,-3.9,-13.3,-9.6,-36.4,1.9,0.572038942,-0.290902432,-0.591204566,-0.488418226
828,2075514,570820,0.96,0.304,0.125,15.3,-2.8,-15.2,-9.6,-36.4,1.9,0.571947386,-0.290566729,-0.591509751,-0.488418226
829,2076921,570820,0.972,0.316,0.121,16.8,-2.2,-16.1,-8.9,-37.2,2.4,0.571855831,-0.290169988,-0.591814936,-0.488387707
830,2080163,570820,0.964,0.331,0.133,17.9,-2,-15.9,-8.9,-37.2,2.4,0.571764275,-0.289742729,-0.592120121,-0.48832667
831,2082969,570820,0.964,0.339,0.133,18.6,-2.3,-14.8,-8.9,-37.2,2.4,0.571703238,-0.289345988,-0.592455824,-0.488265633
832,2084326,570830,0.956,0.339,0.133,18.5,-2.9,-13,-8.9,-37.2,2.4,0.571642201,-0.288979766,-0.59276101,-0.488174078
833,2087581,570830,0.952,0.347,0.133,17.4,-3.5,-10.9,-10,-36,2.4,0.571581164,-0.288644063,-0.593066195,-0.488052004
834,2089587,570830,0.96,0.339,0.133,15.4,-4.1,-8.8,-10,-36,2.4,0.571520127,-0.288399915,-0.593340861,-0.48792993
835,2092666,570830,0.956,0.339,0.133,12.5,-4.9,-7.2,-10,-36,2.4,0.57145909,-0.288186285,-0.593585009,-0.487838374
836,2095677,570840,0.96,0.324,0.133,9.2,-5.6,-6.2,-10,-36,2.4,0.571398053,-0.288064211,-0.59376812,-0.487746818
837,2097021,570840,0.956,0.312,0.129,5.8,-5.8,-5.8,-10.1,-35.8,2.7,0.571275979,-0.287972655,-0.593951231,-0.4877163
838,2100134,570840,0.96,0.304,0.125,3,-5.6,-6,-10.1,-35.8,2.7,0.571153905,-0.287911618,-0.594103824,-0.4877163
839,2103019,570840,0.96,0.304,0.129,1.1,-5,-6.5,-10.1,-35.8,2.7,0.571031831,-0.2878811,-0.594225898,-0.487746818
840,2104583,570850,0.96,0.304,0.125,0.2,-4.3,-7.2,-10.1,-35.8,2.7,0.570909757,-0.287820063,-0.594317454,-0.487807855
841,2106846,570850,0.96,0.304,0.125,0.2,-4.3,-7.2,-10.1,-35.8,2.7,0.570909757,-0.287820063,-0.594317454,-0.487807855
842,2110057,570850,0.964,0.296,0.125,0,-3.3,-8,-9.5,-36,2.5,0.570390942,-0.287331767,-0.594683676,-0.488235115
843,2111981,570850,0.96,0.296,0.121,0,-3,-8,-9.5,-36,2.5,0.570268868,-0.287240211,-0.594775231,-0.48832667
844,2115159,570860,0.956,0.292,0.117,0,-2.7,-7.7,-9.5,-36,2.5,0.570177313,-0.287179174,-0.594866787,-0.488387707
845,2118288,570860,0.96,0.288,0.121,-0.6,-2.5,-7.5,-9.6,-36.2,3,0.570055239,-0.287118137,-0.594927824,-0.488479263
846,2120613,570860,0.956,0.288,0.117,-1.3,-2.2,-7.3,-9.6,-36.2,3,0.569933164,-0.2870571,-0.594988861,-0.488570818
847,2122751,570860,0.96,0.292,0.113,-1.9,-1.9,-7,-9.6,-36.2,3,0.56981109,-0.287026582,-0.595049898,-0.488662374
848,2124803,570870,0.956,0.289,0.113,-2.6,-1.8,-6.6,-9.6,-36.2,3,0.569689016,-0.286965545,-0.595080416,-0.488753929
849,2127014,570870,0.96,0.289,0.109,-3.1,-1.7,-6.4,-8.8,-37.4,2.6,0.569597461,-0.286965545,-0.595110935,-0.488906522
850,2129343,570870,0.964,0.292,0.109,-3.7,-1.5,-6.2,-8.8,-37.4,2.6,0.569475387,-0.286935026,-0.595110935,-0.488998077
851,2132548,570870,0.964,0.292,0.105,-4.2,-1.3,-6.1,-8.8,-37.4,2.6,0.569383831,-0.286935026,-0.595141453,-0.489120151
852,2135742,570880,0.964,0.296,0.109,-4.6,-1.1,-6,-8.8,-37.4,2.6,0.569261757,-0.286904508,-0.595141453,-0.489272744
853,2138168,570880,0.964,0.292,0.109,-4.9,-0.8,-5.8,-9.5,-36.1,2.4,0.569170202,-0.286904508,-0.595141453,-0.489394818
854,2140382,570880,0.968,0.296,0.105,-5.1,-0.4,-5.7,-9.5,-36.1,2.4,0.569048128,-0.286904508,-0.595110935,-0.489516892
855,2141929,570880,0.968,0.296,0.109,-5.2,0,-5.7,-9.5,-36.1,2.4,0.568956572,-0.286904508,-0.595080416,-0.489669485
856,2145037,570890,0.968,0.292,0.105,-5.4,0.4,-5.7,-9.5,-36.1,2.4,0.568865017,-0.286873989,-0.595080416,-0.489822077
857,2147101,570890,0.972,0.288,0.109,-5.5,0.7,-5.7,-9.4,-36.2,2.5,0.56880398,-0.286873989,-0.595019379,-0.48997467
858,2149442,570890,0.968,0.292,0.105,-5.6,1.1,-5.8,-9.4,-36.2,2.5,0.568712424,-0.286843471,-0.594988861,-0.490127262
859,2152654,570890,0.976,0.292,0.109,-5.7,1.4,-5.8,-9.4,-36.2,2.5,0.568620869,-0.286843471,-0.594958342,-0.490279855
860,2155007,570900,0.972,0.292,0.105,-5.7,1.7,-5.7,-9.4,-36.2,2.5,0.568559832,-0.286812952,-0.594897305,-0.490432447
861,2157064,570900,0.972,0.292,0.105,-5.7,1.7,-5.7,-9.4,-36.2,2.5,0.568559832,-0.286812952,-0.594897305,-0.490432447
862,2160292,570900,0.976,0.292,0.109,-5.8,2.4,-6.1,-9.4,-36.4,2.3,0.56797998,-0.286507767,-0.595233009,-0.490859706
863,2161823,570900,0.972,0.288,0.109,-5.8,2.6,-6.2,-9.4,-36.4,2.3,0.567918943,-0.286477248,-0.59520249,-0.491042817
864,2165615,570910,0.972,0.292,0.109,-5.8,2.8,-6.3,-9.4,-36.4,2.3,0.567827387,-0.286416211,-0.595141453,-0.49119541
865,2167881,570910,0.98,0.292,0.109,-5.7,2.9,-6.5,-9,-36.1,2.3,0.56776635,-0.286385693,-0.595080416,-0.491378521
866,2170192,570910,0.976,0.292,0.113,-5.7,3,-6.9,-9,-36.1,2.3,0.567705313,-0.286324656,-0.595019379,-0.491561632
867,2172215,570910,0.976,0.288,0.117,-5.6,3.2,-6.9,-9,-36.1,2.3,0.567644276,-0.286263619,-0.594958342,-0.491744743
868,2174465,570920,0.98,0.28,0.109,-5.6,3.3,-7,-9,-36.1,2.3,0.567552721,-0.286202582,-0.594897305,-0.491927854
869,2177705,570920,0.976,0.288,0.113,-5.5,3.5,-6.8,-8.9,-36.9,2.4,0.567491684,-0.286141545,-0.594836268,-0.492110965
870,2179683,570920,0.98,0.284,0.113,-5.4,3.8,-6.8,-8.9,-36.9,2.4,0.567430647,-0.286080508,-0.594775231,-0.492263558
871,2181981,570920,0.98,0.284,0.109,-5.5,4.1,-6.7,-8.9,-36.9,2.4,0.56736961,-0.286019471,-0.594714194,-0.492446669
872,2185286,570930,0.98,0.284,0.113,-5.5,4.4,-6.6,-8.9,-36.9,2.4,0.567339091,-0.285958434,-0.594653157,-0.49262978
873,2186799,570930,0.976,0.284,0.105,-5.7,4.4,-6.5,-8.9,-36.1,2.2,0.567278054,-0.285897397,-0.594561602,-0.492812891
874,2190179,570930,0.98,0.277,0.109,-5.7,4.4,-6.5,-8.9,-36.1,2.2,0.567247536,-0.28583636,-0.594500565,-0.492996002
875,2192089,570930,0.976,0.273,0.105,-5.7,4.4,-6.4,-8.9,-36.1,2.2,0.567186499,-0.285775323,-0.594409009,-0.493179113
876,2195652,570940,0.976,0.277,0.105,-5.7,4.4,-6.3,-8.9,-36.1,2.2,0.56715598,-0.285714286,-0.594347972,-0.493362224
877,2198001,570940,0.976,0.273,0.113,-5.6,4.5,-6.2,-8.6,-36,2.1,0.567094943,-0.28562273,-0.594256417,-0.493545335
878,2200211,570940,0.972,0.273,0.105,-5.4,4.7,-6.1,-8.6,-36,2.1,0.567064425,-0.285592212,-0.594164861,-0.493728446
879,2202214,570940,0.968,0.273,0.109,-5.3,5,-6,-8.6,-36,2.1,0.567033906,-0.285531175,-0.594103824,-0.493911557
880,2204465,570950,0.976,0.273,0.109,-5.2,5.2,-6,-8.6,-36,2.1,0.567003388,-0.285470138,-0.594012268,-0.49406415
881,2206771,570950,0.976,0.273,0.109,-5.2,5.2,-6,-8.6,-36,2.1,0.567003388,-0.285470138,-0.594012268,-0.49406415
882,2209348,570950,0.976,0.269,0.113,-5.2,5.3,-6.2,-9.1,-35.9,2.2,0.566667684,-0.285378582,-0.594195379,-0.494277779
883,2212900,570950,0.968,0.265,0.109,-5.3,5.5,-6.2,-9.1,-35.9,2.2,0.566637165,-0.285317545,-0.594103824,-0.494460891
884,2215177,570960,0.968,0.265,0.109,-5.3,5.9,-6,-9.1,-35.9,2.2,0.566606647,-0.28522599,-0.594012268,-0.494613483
885,2216804,570960,0.968,0.265,0.105,-5.5,6.4,-5.6,-8.8,-36.5,2.2,0.566606647,-0.285164953,-0.593920713,-0.494827113
886,2220175,570960,0.964,0.265,0.105,-5.7,6.8,-5.1,-8.8,-36.5,2.2,0.566606647,-0.285103916,-0.593798639,-0.495010224
887,2222172,570960,0.968,0.257,0.105,-5.9,7,-4.8,-8.8,-36.5,2.2,0.566606647,-0.28501236,-0.593676565,-0.495193335
888,2225836,570970,0.964,0.257,0.109,-6.1,7.1,-4.5,-8.8,-36.5,2.2,0.566606647,-0.284951323,-0.593554491,-0.495376446
889,2228090,570970,0.964,0.261,0.109,-6.3,7.1,-4.4,-9,-37,2.2,0.566606647,-0.284920804,-0.593432417,-0.495559557
890,2229606,570970,0.96,0.249,0.105,-6.3,7.2,-4.4,-9,-37,2.2,0.566606647,-0.284859767,-0.593279824,-0.495742668
891,2232021,570970,0.956,0.253,0.105,-6,7.2,-4.4,-9,-37,2.2,0.566606647,-0.28479873,-0.59315775,-0.495925779
892,2234286,570980,0.968,0.253,0.101,-5.7,7.2,-4.4,-9,-37,2.2,0.566637165,-0.284737693,-0.593035676,-0.49610889
893,2238205,570980,0.96,0.249,0.105,-5.4,7.2,-4.4,-8.8,-36.5,1.8,0.566637165,-0.284646138,-0.592913602,-0.496261483
894,2240727,570980,0.964,0.253,0.101,-5,7.2,-4.5,-8.8,-36.5,1.8,0.566667684,-0.284585101,-0.592791528,-0.496444594
895,2243063,570980,0.956,0.253,0.105,-4.7,7.2,-4.3,-8.8,-36.5,1.8,0.566667684,-0.284493545,-0.592699973,-0.496566668
896,2244671,570990,0.948,0.242,0.109,-4.3,7.2,-4.1,-8.8,-36.5,1.8,0.566698202,-0.284432508,-0.592577898,-0.496749779
897,2247013,570990,0.964,0.253,0.101,-3.7,6.9,-4,-9,-36.5,2,0.566728721,-0.284340953,-0.592486343,-0.496902371
898,2249407,570990,0.964,0.257,0.101,-2.9,6.5,-4.1,-9,-36.5,2,0.566728721,-0.284249397,-0.592394787,-0.497024445
899,2251802,570990,0.968,0.265,0.101,-1.9,6.2,-4.1,-9,-36.5,2,0.566759239,-0.284157842,-0.592303232,-0.497146519
900,2255460,571000,0.96,0.265,0.113,-1,6,-4,-9,-36.5,2,0.566789758,-0.284066286,-0.592242195,-0.497238075
901,2257811,571000,0.96,0.265,0.113,-1,6,-4,-9,-36.5,2,0.566789758,-0.284066286,-0.592242195,-0.497238075
902,2259798,571000,0.952,0.265,0.109,0.2,6.6,-2.2,-8.8,-36.4,2,0.566759239,-0.284035768,-0.592364269,-0.497146519
903,2263570,571000,0.956,0.265,0.105,0.4,6.9,-1.4,-8.8,-36.4,2,0.566820276,-0.283944212,-0.592303232,-0.497207556
904,2265942,571010,0.956,0.269,0.109,0.4,7,-0.9,-8.8,-36.4,2,0.566911832,-0.283852657,-0.592242195,-0.497238075
905,2268156,571010,0.948,0.277,0.109,0.4,7,-0.7,-8.9,-36.1,1.8,0.567003388,-0.283761101,-0.592150639,-0.497299112
906,2270402,571010,0.952,0.269,0.109,0.9,6.9,-0.6,-8.9,-36.1,1.8,0.567064425,-0.283669546,-0.592089602,-0.49732963
907,2272533,571010,0.952,0.273,0.117,1.7,6.9,-0.3,-8.9,-36.1,1.8,0.567186499,-0.283547472,-0.592028565,-0.497360149
908,2275573,571020,0.948,0.281,0.113,2.7,7,0,-8.9,-36.1,1.8,0.567278054,-0.283455916,-0.591967528,-0.497360149
909,2277818,571020,0.952,0.281,0.117,3.8,7.1,0,-8.9,-37.2,2.4,0.56736961,-0.283333842,-0.591906491,-0.497360149
910,2280900,571020,0.956,0.285,0.113,4.8,7,0,-8.9,-37.2,2.4,0.567522202,-0.283181249,-0.591875973,-0.49732963
911,2283030,571020,0.952,0.285,0.109,5.5,6.7,-0.1,-8.9,-37.2,2.4,0.567644276,-0.283059175,-0.591845454,-0.49732963
912,2285365,571030,0.956,0.292,0.121,6.1,6.4,-0.1,-8.9,-37.2,2.4,0.56776635,-0.282906583,-0.591845454,-0.497268593
913,2288352,571030,0.96,0.292,0.117,6.6,6.2,0.1,-8.9,-36.7,2,0.567888424,-0.28275399,-0.591845454,-0.497238075
914,2290621,571030,0.956,0.288,0.117,7.1,6.2,0.4,-8.9,-36.7,2,0.568010498,-0.282601398,-0.591845454,-0.497177038
915,2292785,571030,0.96,0.292,0.117,7.6,6.1,0.6,-8.9,-36.7,2,0.568132572,-0.282448805,-0.591845454,-0.497085482
916,2294219,571040,0.956,0.296,0.117,7.9,5.9,0.7,-8.9,-36.7,2,0.568285165,-0.282296213,-0.591845454,-0.497024445
917,2297124,571040,0.964,0.292,0.117,8.2,5.7,0.7,-8.7,-36.6,1.9,0.568407239,-0.28214362,-0.591845454,-0.49693289
918,2300151,571040,0.964,0.296,0.117,8.5,5.4,0.8,-8.7,-36.6,1.9,0.568559832,-0.281991028,-0.591875973,-0.496871853
919,2303148,571040,0.964,0.292,0.121,8.7,5.3,0.8,-8.7,-36.6,1.9,0.568681906,-0.281838435,-0.591906491,-0.496780297
920,2304498,571050,0.968,0.288,0.121,9,5.2,0.9,-8.7,-36.6,1.9,0.56880398,-0.281655324,-0.59193701,-0.496658223
921,2307636,571050,0.968,0.288,0.121,9,5.2,0.9,-8.7,-36.6,1.9,0.56880398,-0.281655324,-0.59193701,-0.496658223
922,2310789,571050,0.964,0.288,0.117,9.6,5.4,1,-8.7,-36.1,2.1,0.56880398,-0.281228065,-0.592303232,-0.496475112
923,2313032,571050,0.968,0.292,0.117,9.9,5.4,1.1,-8.7,-36.1,2.1,0.568956572,-0.281075472,-0.59233375,-0.496353038
924,2315152,571060,0.968,0.292,0.113,10.2,5.2,1.3,-8.7,-36.1,2.1,0.569109165,-0.280892361,-0.592364269,-0.496261483
925,2316748,571060,0.968,0.292,0.117,10.3,5,1.4,-8.7,-36.7,2.1,0.569261757,-0.280739769,-0.592394787,-0.496139409
926,2321237,571060,0.972,0.296,0.117,10.5,4.7,1.7,-8.7,-36.7,2.1,0.569383831,-0.280587176,-0.592455824,-0.495986816
927,2323621,571060,0.968,0.3,0.125,10.6,4.4,1.8,-8.7,-36.7,2.1,0.569536424,-0.280434584,-0.592486343,-0.495864742
928,2326069,571070,0.976,0.296,0.125,10.8,4.2,2,-8.7,-36.7,2.1,0.569689016,-0.280281991,-0.59254738,-0.495742668
929,2328227,571070,0.972,0.296,0.121,10.9,3.9,2.1,-9.1,-36.8,2.5,0.56981109,-0.280129398,-0.592608417,-0.495590075
930,2330253,571070,0.968,0.296,0.125,11,3.5,2.3,-9.1,-36.8,2.5,0.569963683,-0.279976806,-0.592669454,-0.495437483
931,2332552,571070,0.972,0.3,0.121,11,3,2.5,-9.1,-36.8,2.5,0.570085757,-0.279824213,-0.592730491,-0.49528489
932,2334620,571080,0.972,0.3,0.125,11.1,2.6,2.8,-9.1,-36.8,2.5,0.57023835,-0.279702139,-0.592791528,-0.495101779
933,2336888,571080,0.964,0.296,0.125,11.2,2.3,3,-8.9,-36.7,2.9,0.570360424,-0.279580065,-0.592883084,-0.494949187
934,2339319,571080,0.968,0.3,0.129,11.4,2.2,2.9,-8.9,-36.7,2.9,0.570482498,-0.279457991,-0.592944121,-0.494766076
935,2342555,571080,0.968,0.3,0.129,11.5,2,2.9,-8.9,-36.7,2.9,0.570604572,-0.279305399,-0.593035676,-0.494613483
936,2344508,571090,0.964,0.296,0.125,11.6,1.7,2.9,-8.9,-36.7,2.9,0.570757164,-0.279183325,-0.593127232,-0.494430372
937,2346720,571090,0.968,0.296,0.129,11.6,1.4,3.1,-9.1,-36.9,2.3,0.570879238,-0.279061251,-0.593218787,-0.494247261
938,2349657,571090,0.964,0.3,0.129,11.5,1.2,3.1,-9.1,-36.9,2.3,0.570970794,-0.278969695,-0.593279824,-0.49406415
939,2351952,571090,0.96,0.296,0.129,11.5,1,3.2,-9.1,-36.9,2.3,0.571092868,-0.278847621,-0.59337138,-0.493881039
940,2355107,571100,0.96,0.296,0.125,11.5,0.7,3.2,-9.1,-36.9,2.3,0.571214942,-0.278725547,-0.593493454,-0.493697928
941,2358099,571100,0.96,0.296,0.125,11.5,0.7,3.2,-9.1,-36.9,2.3,0.571214942,-0.278725547,-0.593493454,-0.493697928
942,2360420,571100,0.956,0.3,0.129,11.7,0.4,3.4,-9,-36.5,2.7,0.571092868,-0.278267769,-0.594012268,-0.49345378
943,2362721,571100,0.956,0.292,0.129,11.8,0.4,3.4,-9,-36.5,2.7,0.571214942,-0.278145695,-0.594134342,-0.493270669
944,2365565,571110,0.956,0.296,0.129,11.8,0.2,3.5,-9,-36.5,2.7,0.571337016,-0.27805414,-0.594225898,-0.493057039
945,2367047,571110,0.952,0.296,0.125,11.8,0.1,3.7,-8.9,-36.2,2.8,0.571428571,-0.277932066,-0.594317454,-0.492873928
946,2369432,571110,0.952,0.3,0.129,11.8,-0.1,3.9,-8.9,-36.2,2.8,0.571550645,-0.277809992,-0.594439528,-0.492660298
947,2372426,571110,0.948,0.3,0.129,11.8,-0.4,4,-8.9,-36.2,2.8,0.57167272,-0.277748955,-0.594531083,-0.492446669
948,2375479,571120,0.952,0.3,0.129,11.9,-0.7,4,-8.9,-36.2,2.8,0.571764275,-0.277657399,-0.594653157,-0.492233039
949,2377686,571120,0.944,0.304,0.121,12,-1,4.1,-8.9,-36.4,2.6,0.571886349,-0.277596362,-0.594775231,-0.49201941
950,2380679,571120,0.948,0.3,0.129,12.1,-1.1,4.1,-8.9,-36.4,2.6,0.571977905,-0.277504807,-0.594897305,-0.49180578
951,2382124,571120,0.944,0.304,0.125,12.2,-1.1,4.3,-8.9,-36.4,2.6,0.57206946,-0.277413251,-0.595019379,-0.491592151
952,2384449,571130,0.944,0.304,0.125,12.2,-1.2,4.5,-8.9,-36.4,2.6,0.572191534,-0.277321696,-0.595141453,-0.491378521
953,2387992,571130,0.94,0.308,0.121,12.4,-1.2,4.6,-9.2,-36.9,3.3,0.572313608,-0.277260659,-0.595263527,-0.491134373
954,2389617,571130,0.936,0.308,0.125,12.6,-1.3,4.7,-9.2,-36.9,3.3,0.572405164,-0.277169103,-0.595385601,-0.490920743
955,2391849,571130,0.94,0.316,0.125,12.7,-1.4,4.6,-9.2,-36.9,3.3,0.572527238,-0.277077548,-0.595507675,-0.490676595
956,2394487,571140,0.936,0.316,0.126,12.8,-1.4,4.7,-9.2,-36.9,3.3,0.572618793,-0.277016511,-0.595629749,-0.490432447
957,2398683,571140,0.94,0.32,0.122,12.7,-1.4,4.7,-9.5,-36.9,2.9,0.572740867,-0.276924955,-0.595751823,-0.490218818
958,2400298,571140,0.94,0.316,0.129,12.5,-1.5,4.9,-9.5,-36.9,2.9,0.572832423,-0.276833399,-0.595873898,-0.48997467
959,2402224,571140,0.944,0.32,0.122,12.1,-1.7,4.8,-9.5,-36.9,2.9,0.572954497,-0.276772362,-0.595995972,-0.489730522
960,2404481,571150,0.944,0.316,0.125,11.8,-1.9,4.7,-9.5,-36.9,2.9,0.573046052,-0.276711325,-0.596118046,-0.489516892
961,2407922,571150,0.944,0.316,0.125,11.8,-1.9,4.7,-9.5,-36.9,2.9,0.573046052,-0.276711325,-0.596118046,-0.489516892
962,2410243,571150,0.944,0.316,0.125,11,-2.1,4.5,-9.5,-36.8,2.9,0.572832423,-0.276161992,-0.596697897,-0.489394818
963,2412284,571150,0.944,0.316,0.122,10.8,-2,4.3,-9.5,-36.8,2.9,0.572923978,-0.276100955,-0.596819971,-0.489181188
964,2414586,571160,0.94,0.316,0.118,10.5,-2,4.1,-9.5,-36.8,2.9,0.572985015,-0.276039918,-0.596911527,-0.488967559
965,2416984,571160,0.944,0.316,0.125,10.2,-2,3.9,-9.4,-37,2.9,0.573076571,-0.275978881,-0.597033601,-0.488753929
966,2420734,571160,0.944,0.316,0.122,9.9,-1.9,3.8,-9.4,-37,2.9,0.573137608,-0.275917844,-0.597155675,-0.488601337
967,2422577,571160,0.948,0.316,0.125,9.5,-1.9,3.7,-9.4,-37,2.9,0.573229163,-0.275856807,-0.59724723,-0.488418226
968,2424716,571170,0.944,0.32,0.122,9.3,-1.8,3.6,-9.4,-37,2.9,0.573290201,-0.275826289,-0.597338786,-0.488235115
969,2427041,571170,0.944,0.312,0.125,9,-1.8,3.3,-9.2,-36.4,2.9,0.573351238,-0.275765252,-0.597430342,-0.488052004
970,2430978,571170,0.948,0.316,0.121,8.7,-1.8,3.1,-9.2,-36.4,2.9,0.573412275,-0.275734733,-0.597552416,-0.487899411
971,2433142,571170,0.944,0.316,0.125,8.4,-1.8,2.7,-9.2,-36.4,2.9,0.573473312,-0.275673696,-0.597643971,-0.487746818
972,2435251,571180,0.948,0.312,0.125,8.1,-1.8,2.5,-9.2,-36.4,2.9,0.573534349,-0.275643178,-0.597735527,-0.487594226
973,2436756,571180,0.952,0.32,0.125,7.8,-1.8,2.3,-9.2,-36.7,3.1,0.573564867,-0.275582141,-0.597827082,-0.487441633
974,2440647,571180,0.952,0.32,0.125,7.6,-1.6,2.1,-9.2,-36.7,3.1,0.573625904,-0.275521104,-0.597918638,-0.487319559
975,2442874,571180,0.952,0.316,0.125,7.3,-1.5,1.8,-9.2,-36.7,3.1,0.573656423,-0.275490585,-0.598010193,-0.487197485
976,2445262,571190,0.956,0.316,0.125,6.8,-1.2,1.5,-9.2,-36.7,3.1,0.57371746,-0.275429548,-0.59807123,-0.487075411
977,2447398,571190,0.956,0.316,0.125,6.4,-1,1.2,-9.3,-36.4,3.1,0.573747978,-0.275368511,-0.598162786,-0.486953337
978,2449518,571190,0.96,0.316,0.129,6,-0.9,0.9,-9.3,-36.4,3.1,0.573778497,-0.275337992,-0.598223823,-0.486861782
979,2451858,571190,0.956,0.32,0.121,5.6,-0.8,0.7,-9.3,-36.4,3.1,0.573809015,-0.275276955,-0.59828486,-0.486770226
980,2454602,571200,0.956,0.312,0.125,5.3,-0.6,0.5,-9.3,-36.4,3.1,0.573839534,-0.275215918,-0.598345897,-0.486709189
981,2458383,571200,0.956,0.312,0.125,5.3,-0.6,0.5,-9.3,-36.4,3.1,0.573839534,-0.275215918,-0.598345897,-0.486709189
982,2460587,571200,0.96,0.32,0.125,4.4,-0.2,-0.2,-9.5,-36.8,3.2,0.573534349,-0.274666585,-0.598773156,-0.486861782
983,2462115,571200,0.96,0.32,0.125,4.4,-0.2,-0.2,-9.5,-36.8,3.2,0.573564867,-0.274605548,-0.598803674,-0.486800745
984,2464511,571210,0.964,0.312,0.125,3.9,-0.1,-0.3,-9.5,-36.8,3.2,0.573564867,-0.27457503,-0.598864711,-0.486770226
985,2466839,571210,0.96,0.308,0.125,3.4,0,-0.6,-9.2,-36.5,3.3,0.573595386,-0.274513993,-0.59889523,-0.486739708
986,2469479,571210,0.956,0.316,0.125,3,0.2,-0.9,-9.2,-36.5,3.3,0.573595386,-0.274452956,-0.598925748,-0.486709189
987,2471950,571210,0.956,0.308,0.125,2.6,0.4,-1.2,-9.2,-36.5,3.3,0.573595386,-0.274391919,-0.598956267,-0.486678671
988,2474295,571220,0.96,0.308,0.125,2.2,0.6,-1.3,-9.2,-36.5,3.3,0.573625904,-0.2743614,-0.598986785,-0.486678671
989,2476876,571220,0.964,0.308,0.125,1.7,0.6,-1.3,-9.1,-36.2,3.2,0.573625904,-0.274300363,-0.599017304,-0.486678671
990,2479298,571220,0.96,0.312,0.129,1.1,0.7,-1.3,-9.1,-36.2,3.2,0.573625904,-0.274269845,-0.599017304,-0.486678671
991,2483948,571220,0.956,0.308,0.121,0.5,0.7,-1.5,-9.1,-36.2,3.2,0.573625904,-0.274239326,-0.599017304,-0.486709189
992,2484432,571230,0.96,0.304,0.125,0,0.9,-1.8,-9.1,-36.2,3.2,0.573595386,-0.274208808,-0.599017304,-0.486709189
993,2487181,571230,0.96,0.304,0.125,-0.5,1.1,-2.1,-9.1,-37,3.3,0.573595386,-0.274178289,-0.599017304,-0.486770226
994,2489466,571230,0.952,0.304,0.129,-1,1.3,-2.3,-9.1,-37,3.3,0.573595386,-0.274117252,-0.599017304,-0.486800745
995,2492289,571230,0.96,0.304,0.125,-2.2,1.7,-2.5,-9.1,-37,3.3,0.573564867,-0.274117252,-0.598986785,-0.4868923
996,2494645,571240,0.956,0.304,0.125,-2.9,1.9,-2.6,-9.1,-37,3.3,0.573534349,-0.274086734,-0.598925748,-0.486983856
997,2496797,571240,0.96,0.308,0.125,-3.5,2,-2.8,-9.1,-36.9,3.3,0.573534349,-0.274086734,-0.59889523,-0.487075411
998,2499591,571240,0.96,0.304,0.125,-4.1,2.2,-3.1,-9.1,-36.9,3.3,0.57350383,-0.274056215,-0.598834193,-0.487166967
999,2502161,571240,0.956,0.304,0.125,-4.6,2.4,-3.4,-9.1,-36.9,3.3,0.573473312,-0.274056215,-0.598773156,-0.487289041
1000,2504438,571250,0.96,0.3,0.125,-5,2.7,-3.6,-9.1,-36.9,3.3,0.573412275,-0.274025697,-0.598712119,-0.487411115
1001,2508393,571250,0.96,0.3,0.125,-5,2.7,-3.6,-9.1,-36.9,3.3,0.573412275,-0.274025697,-0.598712119,-0.487411115
1002,2510594,571250,0.956,0.296,0.121,-5.7,3.3,-3.8,-9.1,-37,2.9,0.572985015,-0.273598437,-0.59889523,-0.487960448
1003,2512838,571250,0.96,0.296,0.125,-5.9,3.5,-4,-9.1,-37,2.9,0.572954497,-0.273598437,-0.598803674,-0.488113041
1004,2515308,571260,0.964,0.3,0.121,-6.2,3.6,-4,-9.1,-37,2.9,0.572923978,-0.273567919,-0.598712119,-0.488265633
1005,2517242,571260,0.96,0.3,0.121,-6.6,3.8,-4.2,-9.3,-37.3,3,0.57289346,-0.273567919,-0.598620563,-0.488418226
1006,2519488,571260,0.956,0.296,0.125,-6.9,4,-4.4,-9.3,-37.3,3,0.572832423,-0.2735374,-0.598529008,-0.488601337
1007,2521823,571260,0.956,0.3,0.125,-7.2,4.3,-4.5,-9.3,-37.3,3,0.572801904,-0.2735374,-0.598437452,-0.488753929
1008,2525736,571270,0.96,0.3,0.125,-7.4,4.5,-4.5,-9.3,-37.3,3,0.572771386,-0.273506882,-0.598315378,-0.48893704
1009,2528181,571270,0.956,0.3,0.125,-7.6,4.8,-4.7,-9,-36.1,3.1,0.572740867,-0.273506882,-0.598193304,-0.48915067
1010,2530225,571270,0.956,0.3,0.121,-7.8,4.9,-4.9,-9,-36.1,3.1,0.572710349,-0.273476363,-0.598101749,-0.489333781
1011,2532561,571270,0.956,0.296,0.121,-8.1,5,-5,-9,-36.1,3.1,0.57267983,-0.273476363,-0.597979675,-0.489516892
1012,2534531,571280,0.956,0.296,0.121,-8.3,5.1,-5.1,-9,-36.1,3.1,0.572618793,-0.273445845,-0.597857601,-0.489730522
1013,2538230,571280,0.956,0.292,0.125,-8.5,5.3,-5.1,-8.9,-37.3,2.7,0.572588275,-0.273415326,-0.597735527,-0.489944151
1014,2540090,571280,0.956,0.296,0.129,-8.6,5.6,-5.4,-8.9,-37.3,2.7,0.572557756,-0.273415326,-0.597582934,-0.490157781
1015,2542175,571280,0.956,0.292,0.125,-8.7,5.9,-5.6,-8.9,-37.3,2.7,0.572527238,-0.273384808,-0.59746086,-0.49037141
