sample_index,elapsed_us,device_time_ms,acc_x_g,acc_y_g,acc_z_g,gyro_x_dps,gyro_y_dps,gyro_z_dps,mag_x_ut,mag_y_ut,mag_z_ut,quat_w,quat_x,quat_y,quat_z
0,5747,568750,0.946,-0.138,0.272,-8,0,-0.8,-2.1,26.3,-19.8,0.0264290292,0.597094638,-0.107669301,0.794457839
1,7917,568750,0.942,-0.134,0.28,-8.3,0,-0.9,-2.6,26.1,-19.3,0.0265511032,0.597094638,-0.107821894,0.79442732
2,9891,568750,0.946,-0.138,0.28,-8.4,0,-0.9,-2.6,26.1,-19.3,0.0266731773,0.597094638,-0.107943968,0.794396802
3,12177,568750,0.942,-0.146,0.276,-9,0.4,-1.1,-2.6,26.1,-19.3,0.0269478439,0.597064119,-0.108218635,0.794366283
4,14501,568760,0.942,-0.146,0.276,-9,0.4,-1.1,-2.6,26.1,-19.3,0.0269478439,0.597064119,-0.108218635,0.794366283
5,18345,568760,0.942,-0.146,0.276,-9,0.4,-1.1,-2.6,26.1,-19.3,0.0269478439,0.597064119,-0.108218635,0.794366283
6,20573,568760,0.938,-0.154,0.28,-9.7,0.7,-1.1,-2.3,26.4,-19.5,0.0271004364,0.59685049,-0.108371227,0.794518876
7,22779,568760,0.938,-0.15,0.268,-10,0.7,-1.2,-2.3,26.4,-19.5,0.0272225105,0.59685049,-0.108493301,0.794488357
8,25795,568770,0.938,-0.154,0.268,-10.3,0.6,-1.3,-2.3,26.4,-19.5,0.0274056215,0.596819971,-0.108676412,0.794488357
9,28038,568770,0.942,-0.154,0.272,-10.5,0.5,-1.5,-2.3,26.4,-19.5,0.0275582141,0.596819971,-0.108829005,0.794457839
10,30251,568770,0.942,-0.166,0.276,-10.7,0.3,-1.6,-2.3,26,-18.4,0.0277108066,0.596789453,-0.108981597,0.79442732
11,33256,568770,0.942,-0.162,0.276,-10.9,0.3,-1.5,-2.3,26,-18.4,0.0279244362,0.596789453,-0.109164708,0.79442732
12,34618,568780,0.942,-0.162,0.272,-11.1,0.2,-1.4,-2.3,26,-18.4,0.0280770287,0.596789453,-0.109347819,0.794396802
13,37749,568780,0.938,-0.162,0.276,-11.3,0,-1.4,-2.3,26,-18.4,0.0282601398,0.596789453,-0.109530931,0.794366283
14,40747,568780,0.942,-0.166,0.28,-11.4,-0.3,-1.4,-2.3,26.2,-18.7,0.0284432508,0.596789453,-0.109714042,0.794335765
15,42173,568780,0.942,-0.166,0.284,-11.6,-0.6,-1.4,-2.3,26.2,-18.7,0.0285653249,0.596789453,-0.109897153,0.794305246
16,44350,568790,0.942,-0.169,0.284,-11.7,-0.9,-1.5,-2.3,26.2,-18.7,0.0287789544,0.596789453,-0.110080264,0.794244209
17,47486,568790,0.946,-0.166,0.284,-11.7,-1.2,-1.5,-2.3,26.2,-18.7,0.028931547,0.596819971,-0.110263375,0.794213691
18,50684,568790,0.946,-0.166,0.284,-11.7,-1.5,-1.5,-2.1,26.3,-18.6,0.0291451765,0.59685049,-0.110446486,0.794152654
19,52975,568790,0.946,-0.17,0.284,-11.7,-1.7,-1.6,-2.1,26.3,-18.6,0.0292977691,0.596881008,-0.110629597,0.794091617
20,55332,568800,0.946,-0.17,0.284,-11.7,-1.8,-1.6,-2.1,26.3,-18.6,0.0294808802,0.596911527,-0.110812708,0.794061098
21,57058,568800,0.95,-0.162,0.284,-11.6,-2,-1.6,-2.1,26.3,-18.6,0.0296639912,0.596942045,-0.110995819,0.794000061
22,59439,568800,0.95,-0.162,0.284,-11.6,-2,-1.6,-2.1,26.3,-18.6,0.0296639912,0.596942045,-0.110995819,0.794000061
23,63509,568800,0.95,-0.162,0.288,-11.1,-2.4,-1.7,-2.1,26.6,-18.2,0.0299996948,0.597003082,-0.111331523,0.793877987
24,66260,568810,0.95,-0.162,0.288,-10.8,-2.6,-1.8,-2.1,26.6,-18.2,0.0301522874,0.597064119,-0.111514634,0.79381695
25,68397,568810,0.95,-0.166,0.284,-10.5,-2.8,-2,-2.1,26.6,-18.2,0.0303353984,0.597094638,-0.111667226,0.793755913
26,70819,568810,0.95,-0.166,0.284,-10.5,-2.8,-2,-2.1,26.6,-18.2,0.0303353984,0.597094638,-0.111667226,0.793755913
27,72748,568810,0.95,-0.166,0.284,-10.5,-2.8,-2,-2.1,26.6,-18.2,0.0303353984,0.597094638,-0.111667226,0.793755913
28,74834,568820,0.954,-0.154,0.284,-9.4,-3.1,-2.3,-2.3,26.4,-18.6,0.0303659169,0.596942045,-0.111911374,0.79381695
29,77269,568820,0.962,-0.154,0.28,-8.9,-3.2,-2.3,-2.3,26.4,-18.6,0.0306405835,0.597033601,-0.112216559,0.793694876
30,79449,568820,0.962,-0.154,0.28,-8.6,-3.4,-2.4,-2.3,26.4,-18.6,0.0307626576,0.597094638,-0.112338633,0.793633839
31,82025,568820,0.962,-0.154,0.28,-8.6,-3.4,-2.4,-2.3,26.4,-18.6,0.0307626576,0.597094638,-0.112338633,0.793633839
32,84772,568830,0.966,-0.15,0.28,-7.9,-3.4,-2.5,-2.8,26.6,-20.9,0.0309457686,0.597155675,-0.11239967,0.793572802
33,87232,568830,0.977,-0.158,0.275,-7.7,-3.3,-2.7,-2.8,26.6,-20.9,0.0312204352,0.597277749,-0.112643818,0.793450728
34,89451,568830,0.977,-0.147,0.275,-7.5,-3.2,-2.7,-2.8,26.6,-20.9,0.0313730277,0.597338786,-0.112735374,0.793389691
35,93410,568830,0.977,-0.147,0.275,-7.5,-3.2,-2.7,-2.8,26.6,-20.9,0.0313730277,0.597338786,-0.112735374,0.793389691
36,95720,568840,0.977,-0.151,0.268,-7.3,-3,-2.6,-2.8,26.5,-19.1,0.0314951018,0.597399823,-0.11282693,0.793328654
37,97921,568840,0.985,-0.147,0.275,-7.2,-2.9,-2.6,-2.8,26.5,-19.1,0.0316171758,0.59746086,-0.112887967,0.793267617
38,99423,568840,0.985,-0.143,0.271,-7.4,-2.8,-2.6,-2.8,26.5,-19.1,0.0318918424,0.597552416,-0.113101596,0.793145543
39,102019,568840,0.985,-0.143,0.271,-7.4,-2.8,-2.6,-2.8,26.5,-19.1,0.0318918424,0.597552416,-0.113101596,0.793145543
40,105276,568850,0.985,-0.147,0.267,-7.7,-2.6,-2.6,-2.8,26.5,-19.9,0.0320139164,0.597582934,-0.11322367,0.793084506
41,107320,568850,0.981,-0.151,0.264,-7.8,-2.5,-2.8,-2.8,26.5,-19.9,0.0321970275,0.597643971,-0.113315226,0.793023469
42,109518,568850,0.985,-0.151,0.267,-8.1,-2.4,-2.9,-2.8,26.5,-19.9,0.03234962,0.59767449,-0.1134373,0.792962432
43,113221,568850,0.981,-0.143,0.275,-8.1,-2.4,-2.9,-2.8,26.5,-19.9,0.0325022126,0.597735527,-0.113528855,0.792931913
44,115260,568860,0.985,-0.151,0.267,-8.6,-2.3,-3.2,-2.7,26.7,-20.3,0.0326548051,0.597766045,-0.113620411,0.792870876
45,117863,568860,0.981,-0.151,0.264,-9,-2.1,-3.2,-2.7,26.7,-20.3,0.0328073977,0.597827082,-0.113742485,0.792809839
46,120599,568860,0.977,-0.151,0.268,-9.4,-1.8,-3.3,-2.7,26.7,-20.3,0.0329905087,0.597857601,-0.113864559,0.792779321
47,122821,568860,0.973,-0.151,0.268,-10,-1.4,-3.5,-2.7,26.7,-20.3,0.0331736198,0.597888119,-0.113986633,0.792718284
48,124948,568870,0.973,-0.151,0.268,-10,-1.4,-3.5,-2.7,26.7,-20.3,0.0331736198,0.597888119,-0.113986633,0.792718284
49,127078,568870,0.965,-0.158,0.268,-10.9,-1.1,-3.9,-2.6,27,-20.9,0.0333872494,0.597918638,-0.114169744,0.792657247
50,129332,568870,0.962,-0.162,0.26,-11.2,-1.1,-4.1,-2.6,27,-20.9,0.0336008789,0.597949156,-0.114291818,0.79259621
51,133538,568870,0.958,-0.162,0.26,-11.5,-0.9,-4.3,-2.6,27,-20.9,0.0338145085,0.597949156,-0.114444411,0.792565691
52,135591,568880,0.958,-0.162,0.26,-11.8,-0.6,-4.4,-2.6,27,-20.9,0.0340586566,0.597979675,-0.114597003,0.792504654
53,137109,568880,0.95,-0.166,0.26,-11.8,-0.3,-4.7,-2.7,26.9,-19.3,0.0343028047,0.597979675,-0.114749596,0.792474136
54,139479,568880,0.95,-0.17,0.256,-12,-0.2,-4.9,-2.7,26.9,-19.3,0.0345164342,0.598010193,-0.114841151,0.792443617
55,143711,568880,0.946,-0.166,0.256,-12,0,-5.2,-2.7,26.9,-19.3,0.0347911008,0.598010193,-0.115024262,0.792413099
56,146026,568890,0.942,-0.17,0.26,-11.9,0,-5.4,-2.7,26.9,-19.3,0.0350352489,0.598010193,-0.115146336,0.79238258
57,148810,568890,0.938,-0.17,0.257,-11.8,0,-5.6,-2.4,27,-19.5,0.035279397,0.598010193,-0.115298929,0.792352062
58,151077,568890,0.938,-0.17,0.257,-11.5,0,-5.8,-2.4,27,-19.5,0.035523545,0.598010193,-0.115421003,0.792291025
59,153332,568890,0.938,-0.17,0.257,-11.2,-0.2,-5.9,-2.4,27,-19.5,0.0357676931,0.598040712,-0.115512558,0.792260506
60,155538,568900,0.934,-0.166,0.249,-10.8,-0.5,-5.9,-2.4,27,-19.5,0.0360118412,0.598040712,-0.115634632,0.792229987
61,158110,568900,0.934,-0.166,0.249,-10.8,-0.5,-5.9,-2.4,27,-19.5,0.0360118412,0.598040712,-0.115634632,0.792229987
62,160295,568900,0.934,-0.162,0.261,-10,-0.9,-6.1,-2.4,26.8,-19.2,0.0365001373,0.598101749,-0.115817743,0.792138432
63,161995,568900,0.934,-0.158,0.261,-9.5,-1.1,-6.3,-2.4,26.8,-19.2,0.0367442854,0.598132267,-0.115909299,0.792107913
64,164682,568910,0.93,-0.162,0.261,-9,-1.3,-6.4,-2.4,26.8,-19.2,0.036957915,0.598162786,-0.116000855,0.792046876
65,169067,568910,0.93,-0.162,0.261,-9,-1.3,-6.4,-2.4,26.8,-19.2,0.036957915,0.598162786,-0.116000855,0.792046876
66,169460,568910,0.934,-0.154,0.261,-8.3,-1.6,-6.4,-2.6,26.9,-19.4,0.037141026,0.598193304,-0.116061892,0.792016358
67,171996,568910,0.934,-0.146,0.261,-8,-1.6,-6.4,-2.6,26.9,-19.4,0.0375988037,0.598254341,-0.116183966,0.791924802
68,174681,568920,0.934,-0.15,0.257,-7.7,-1.6,-6.4,-2.6,26.9,-19.4,0.0378124332,0.598315378,-0.116214484,0.791863765
69,177003,568920,0.934,-0.15,0.257,-7.7,-1.6,-6.4,-2.6,26.9,-19.4,0.0378124332,0.598315378,-0.116214484,0.791863765
70,180360,568920,0.934,-0.15,0.257,-7.7,-1.6,-6.4,-2.6,26.9,-19.4,0.0378124332,0.598315378,-0.116214484,0.791863765
71,182147,568920,0.938,-0.146,0.26,-7.2,-1.4,-6.2,-2.7,26.4,-19.3,0.0379650258,0.598345897,-0.11630604,0.791833247
72,184525,568930,0.942,-0.138,0.26,-7,-1.3,-6.2,-2.7,26.4,-19.3,0.0381786554,0.598376415,-0.116367077,0.79177221
73,186943,568930,0.946,-0.131,0.264,-6.9,-1.2,-6.3,-2.7,26.4,-19.3,0.038575396,0.598437452,-0.116428114,0.791711173
74,189368,568930,0.946,-0.131,0.264,-6.9,-1.2,-6.3,-2.7,26.4,-19.3,0.038575396,0.598437452,-0.116428114,0.791711173
75,192894,568930,0.946,-0.127,0.256,-6.9,-0.9,-6.2,-3,26.3,-19.9,0.038758507,0.598467971,-0.116458632,0.791680654
76,195247,568940,0.942,-0.131,0.253,-7,-0.7,-6.1,-3,26.3,-19.9,0.0389416181,0.598467971,-0.116519669,0.791619617
77,197255,568940,0.95,-0.135,0.252,-7.1,-0.5,-6.1,-3,26.3,-19.9,0.0393383587,0.598529008,-0.116611225,0.79155858
78,199576,568940,0.95,-0.135,0.252,-7.1,-0.5,-6.1,-3,26.3,-19.9,0.0393383587,0.598529008,-0.116611225,0.79155858
79,201941,568940,0.95,-0.127,0.252,-7.5,0.1,-6,-3,26.4,-19.9,0.0395519883,0.598529008,-0.116641743,0.79155858
80,205082,568950,0.95,-0.131,0.252,-7.7,0.4,-6,-3,26.4,-19.9,0.0397656178,0.598529008,-0.11670278,0.791528062
81,207009,568950,0.95,-0.131,0.252,-7.9,0.6,-6,-3,26.4,-19.9,0.0399792474,0.598529008,-0.116763817,0.791528062
82,210199,568950,0.95,-0.131,0.249,-7.9,0.6,-6,-3,26.4,-19.9,0.040192877,0.598529008,-0.116794336,0.791497543
83,213181,568950,0.95,-0.131,0.252,-8.4,1,-5.9,-2.7,26.3,-20,0.0404065065,0.598498489,-0.116885891,0.791497543
84,214541,568960,0.946,-0.131,0.252,-8.8,1.1,-5.8,-2.7,26.3,-20,0.0406201361,0.598498489,-0.116977447,0.791467025
85,217480,568960,0.95,-0.127,0.248,-9.2,1.3,-5.8,-2.7,26.3,-20,0.0408032472,0.598467971,-0.117038484,0.791467025
86,219454,568960,0.946,-0.131,0.26,-9.6,1.4,-5.8,-2.7,26.3,-20,0.0410473952,0.598467971,-0.117130039,0.791436506
87,222642,568960,0.946,-0.131,0.252,-10.1,1.6,-5.7,-2.9,26.4,-20.2,0.0412915433,0.598437452,-0.117221595,0.791436506
88,225646,568970,0.946,-0.127,0.256,-10.6,1.8,-5.6,-2.9,26.4,-20.2,0.0415356914,0.598406934,-0.117343669,0.791436506
89,227014,568970,0.942,-0.131,0.253,-10.9,1.9,-5.5,-2.9,26.4,-20.2,0.0417798395,0.598376415,-0.117465743,0.791436506
90,230132,568970,0.942,-0.131,0.256,-11.2,1.9,-5.5,-2.9,26.4,-20.2,0.0420239875,0.598345897,-0.117587817,0.791405988
91,232256,568970,0.942,-0.131,0.256,-11.2,1.9,-5.5,-2.9,26.4,-20.2,0.0420239875,0.598345897,-0.117587817,0.791405988
92,234464,568980,0.942,-0.131,0.256,-11.2,1.9,-5.5,-2.9,26.4,-20.2,0.0420239875,0.598345897,-0.117587817,0.791405988
93,237678,568980,0.938,-0.142,0.253,-12.1,1.9,-5.4,-2.8,27.9,-18.4,0.0426038392,0.598315378,-0.117770928,0.791375469
94,239675,568980,0.946,-0.135,0.252,-12.2,2,-5.5,-2.8,27.9,-18.4,0.0428785058,0.59828486,-0.117923521,0.791375469
95,242047,568980,0.942,-0.134,0.253,-12.2,1.9,-5.5,-2.8,27.9,-18.4,0.0431226539,0.598254341,-0.118045595,0.791375469
96,244332,568990,0.942,-0.134,0.253,-12.2,1.9,-5.5,-2.8,27.9,-18.4,0.0431226539,0.598254341,-0.118045595,0.791375469
97,246800,568990,0.946,-0.142,0.253,-11.9,1.9,-5.6,-2.8,27.3,-19.4,0.0436414686,0.598193304,-0.118320261,0.791344951
98,250453,568990,0.946,-0.142,0.253,-11.7,1.9,-5.6,-2.8,27.3,-19.4,0.0439161351,0.598162786,-0.118442335,0.791314432
99,251958,568990,0.946,-0.138,0.253,-11.4,2.1,-5.5,-2.8,27.3,-19.4,0.0441602832,0.598132267,-0.118564409,0.791314432
100,255312,569000,0.946,-0.138,0.253,-11.4,2.1,-5.5,-2.8,27.3,-19.4,0.0441602832,0.598132267,-0.118564409,0.791314432
101,257672,569000,0.946,-0.146,0.253,-11.1,1.9,-5.4,-2.9,27.5,-19,0.0444044313,0.598101749,-0.118686483,0.791314432
102,259715,569000,0.954,-0.146,0.252,-11,1.6,-5.6,-2.9,27.5,-19,0.0448927274,0.598040712,-0.118930631,0.791283914
103,261945,569000,0.95,-0.146,0.256,-10.8,1.4,-5.6,-2.9,27.5,-19,0.0451368755,0.598010193,-0.119022187,0.791283914
104,264479,569010,0.95,-0.146,0.256,-10.8,1.4,-5.6,-2.9,27.5,-19,0.0451368755,0.598010193,-0.119022187,0.791283914
105,268894,569010,0.946,-0.15,0.26,-10.6,1.2,-5.7,-2.9,28.3,-19.2,0.0453810236,0.598010193,-0.119144261,0.791253395
106,270915,569010,0.946,-0.158,0.264,-10.6,1.2,-5.7,-2.9,28.3,-19.2,0.0456251717,0.597979675,-0.119235817,0.791253395
107,272240,569010,0.946,-0.15,0.264,-10.3,1.3,-5.8,-2.9,28.3,-19.2,0.0460829493,0.597949156,-0.119449446,0.791222877
108,275220,569020,0.946,-0.15,0.264,-10.3,1.3,-5.8,-2.9,28.3,-19.2,0.0460829493,0.597949156,-0.119449446,0.791222877
109,278320,569020,0.942,-0.162,0.268,-10.3,1.5,-5.8,-2.6,28.1,-19.5,0.0463270974,0.597918638,-0.119541002,0.791192358
110,280588,569020,0.942,-0.158,0.268,-10.3,1.5,-5.8,-2.6,28.1,-19.5,0.0465712455,0.597918638,-0.119663076,0.791192358
111,282765,569020,0.942,-0.158,0.272,-10.5,1.5,-5.8,-2.6,28.1,-19.5,0.0468153935,0.597888119,-0.119724113,0.79116184
112,285771,569030,0.938,-0.158,0.272,-10.5,1.5,-5.8,-2.6,28.1,-19.5,0.0470595416,0.597857601,-0.119876705,0.79116184
113,288019,569030,0.938,-0.158,0.272,-10.5,1.5,-5.8,-2.6,28.1,-19.5,0.0470595416,0.597857601,-0.119876705,0.79116184
114,289448,569030,0.942,-0.166,0.268,-10.7,0.9,-5.8,-2.9,27.2,-18.6,0.0470900601,0.597643971,-0.120212409,0.791253395
115,292504,569030,0.942,-0.166,0.268,-10.8,0.9,-5.9,-2.9,27.2,-18.6,0.0473342082,0.597643971,-0.120334483,0.791253395
116,295387,569040,0.942,-0.166,0.268,-10.8,1,-6,-2.9,27.2,-18.6,0.0475783563,0.597613453,-0.120426038,0.791222877
117,296813,569040,0.942,-0.17,0.268,-10.7,1,-6,-2.9,27.2,-18.6,0.0478225043,0.597613453,-0.120548112,0.791192358
118,299678,569040,0.942,-0.173,0.268,-10.6,1,-6.1,-2.7,27.8,-18.4,0.0480666524,0.597582934,-0.120639668,0.791192358
119,302677,569040,0.946,-0.174,0.268,-10.3,1,-6.1,-2.7,27.8,-18.4,0.0483108005,0.597582934,-0.120761742,0.79116184
120,305591,569050,0.946,-0.174,0.268,-10.1,1,-6.2,-2.7,27.8,-18.4,0.0485549486,0.597552416,-0.120853298,0.791131321
121,307890,569050,0.946,-0.174,0.268,-10,0.9,-6.3,-2.7,27.8,-18.4,0.0487990967,0.597552416,-0.120914335,0.791131321
122,310257,569050,0.946,-0.174,0.268,-9.9,0.8,-6.4,-2.7,27.8,-18.4,0.0490432447,0.597552416,-0.12100589,0.791100803
123,312158,569050,0.942,-0.177,0.272,-9.8,0.6,-6.4,-2.7,27.8,-18.4,0.0492873928,0.597552416,-0.121097446,0.791070284
124,315200,569060,0.95,-0.174,0.272,-9.8,0.4,-6.4,-2.7,27.8,-18.4,0.0495315409,0.597552416,-0.121189001,0.791039766
125,318309,569060,0.946,-0.177,0.272,-9.7,0.2,-6.4,-2.7,27.8,-18.4,0.049775689,0.597552416,-0.121280557,0.791009247
126,320545,569060,0.946,-0.177,0.272,-9.7,0.2,-6.4,-2.7,27.8,-18.4,0.049775689,0.597552416,-0.121280557,0.791009247
127,322788,569060,0.946,-0.177,0.272,-9.7,-0.1,-6.2,-2.7,27.8,-18.4,0.0502334666,0.597552416,-0.121433149,0.79094821
128,325168,569070,0.95,-0.174,0.272,-9.7,-0.3,-6.1,-2.7,27.8,-18.4,0.0504776147,0.597552416,-0.121524705,0.790917692
129,327109,569070,0.95,-0.174,0.268,-9.5,-0.5,-6,-2.7,27.8,-18.4,0.0506912442,0.597582934,-0.12161626,0.790887173
130,329364,569070,0.95,-0.174,0.268,-9.5,-0.5,-6,-2.7,27.8,-18.4,0.0506912442,0.597582934,-0.12161626,0.790887173
131,331942,569070,0.946,-0.174,0.272,-9.3,-0.6,-5.9,-2.7,27.8,-18.4,0.0509353923,0.597613453,-0.121677297,0.790826136
132,336446,569080,0.946,-0.17,0.268,-8.7,-0.7,-5.6,-2.7,27.8,-18.4,0.0513626514,0.597643971,-0.121860408,0.790765099
133,338697,569080,0.946,-0.162,0.268,-8.4,-0.7,-5.5,-2.7,27.8,-18.4,0.0515457625,0.597643971,-0.121951964,0.790704062
134,340687,569080,0.946,-0.162,0.268,-8.4,-0.7,-5.5,-2.7,27.8,-18.4,0.0515457625,0.597643971,-0.121951964,0.790704062
135,343078,569080,0.946,-0.162,0.268,-8.4,-0.7,-5.5,-2.7,27.8,-18.4,0.0515457625,0.597643971,-0.121951964,0.790704062
136,345232,569090,0.946,-0.15,0.26,-7.1,-0.6,-4.8,-4,28.4,-18.8,0.0514236885,0.59746086,-0.122379223,0.790795618
137,347206,569090,0.946,-0.146,0.264,-7.1,-0.6,-4.8,-4,28.4,-18.8,0.0516067995,0.59746086,-0.12244026,0.790765099
138,349458,569090,0.95,-0.146,0.252,-6.3,-0.4,-4.1,-4,28.4,-18.8,0.0519119846,0.597491379,-0.122562334,0.790704062
139,352592,569090,0.95,-0.146,0.252,-6.3,-0.4,-4.1,-4,28.4,-18.8,0.0519119846,0.597491379,-0.122562334,0.790704062
140,355643,569100,0.95,-0.142,0.252,-5.7,-0.7,-4,-4.4,28,-18.3,0.0520340587,0.597521897,-0.122592853,0.790673544
141,357822,569100,0.95,-0.135,0.252,-5.7,-0.7,-4,-4.4,28,-18.3,0.0521866512,0.597521897,-0.12265389,0.790673544
142,360734,569100,0.954,-0.142,0.252,-5.3,-0.9,-4,-4.4,28,-18.3,0.0523392438,0.597552416,-0.12265389,0.790612506
143,362207,569100,0.954,-0.135,0.252,-4.9,-0.9,-4,-4.4,28,-18.3,0.0524613178,0.597582934,-0.122714927,0.790581988
144,364418,569110,0.958,-0.139,0.248,-4.4,-0.8,-3.7,-4.9,27.9,-18.6,0.0525833918,0.597582934,-0.122745445,0.790581988
145,367976,569110,0.954,-0.143,0.248,-4.3,-0.8,-3.5,-4.9,27.9,-18.6,0.0527054659,0.597613453,-0.122775964,0.790551469
146,369911,569110,0.954,-0.135,0.248,-4.3,-0.8,-3.5,-4.9,27.9,-18.6,0.0528275399,0.597643971,-0.122806482,0.790520951
147,372051,569110,0.954,-0.139,0.252,-4.4,-0.8,-3.4,-4.9,27.9,-18.6,0.0529190954,0.597643971,-0.122837001,0.790490432
148,375038,569120,0.958,-0.131,0.248,-4.7,-0.5,-3.1,-4.5,28.2,-18.6,0.053010651,0.59767449,-0.122898038,0.790459914
149,377760,569120,0.958,-0.135,0.252,-5,-0.1,-3.1,-4.5,28.2,-18.6,0.0531632435,0.59767449,-0.122928556,0.790459914
150,379373,569120,0.958,-0.135,0.252,-5,-0.1,-3.1,-4.5,28.2,-18.6,0.053254799,0.59767449,-0.122989593,0.790429395
151,383382,569120,0.962,-0.127,0.252,-5.3,0.2,-3,-4.5,28.2,-18.6,0.0534073916,0.59767449,-0.123020112,0.790398877
152,385254,569130,0.962,-0.127,0.252,-6,0.6,-2.9,-2.2,27.2,-18.5,0.0534989471,0.59767449,-0.123111667,0.790398877
153,386855,569130,0.958,-0.135,0.248,-6.4,0.6,-2.8,-2.2,27.2,-18.5,0.0536820582,0.597643971,-0.123142186,0.790398877
154,390529,569130,0.962,-0.139,0.252,-6.7,0.6,-2.7,-2.2,27.2,-18.5,0.0538041322,0.597643971,-0.12326426,0.790368358
155,392027,569130,0.965,-0.135,0.248,-6.7,0.6,-2.7,-2.2,27.2,-18.5,0.0539567248,0.597613453,-0.123325297,0.790368358
156,395299,569140,0.965,-0.135,0.248,-6.7,0.6,-2.7,-2.2,27.2,-18.5,0.0539567248,0.597613453,-0.123325297,0.790368358
157,397383,569140,0.962,-0.139,0.252,-7.8,1,-2.9,-4.2,28.1,-18.2,0.0540787988,0.597705008,-0.123477889,0.790276803
158,399801,569140,0.969,-0.139,0.256,-8,1,-2.9,-4.2,28.1,-18.2,0.0542313913,0.59767449,-0.123569445,0.790276803
159,403755,569140,0.965,-0.139,0.252,-8.2,0.9,-2.9,-4.2,28.1,-18.2,0.0544145024,0.59767449,-0.123630482,0.790246284
160,406496,569150,0.962,-0.143,0.26,-8.4,0.8,-2.9,-4.2,28.1,-18.2,0.0545670949,0.597643971,-0.123783074,0.790246284
161,408096,569150,0.962,-0.143,0.26,-8.4,0.8,-2.9,-4.2,28.1,-18.2,0.0545670949,0.597643971,-0.123783074,0.790246284
162,410404,569150,0.962,-0.146,0.26,-8.6,0.9,-2.8,-4,28,-18.3,0.0547196875,0.597613453,-0.12387463,0.790215766
163,412622,569150,0.962,-0.147,0.252,-8.9,1.4,-2.9,-4,28,-18.3,0.0550553911,0.597582934,-0.124118778,0.790215766
164,415945,569160,0.965,-0.15,0.256,-9,1.5,-2.9,-4,28,-18.3,0.0552079836,0.597552416,-0.124210334,0.790185247
165,417991,569160,0.965,-0.15,0.256,-9,1.5,-2.9,-4,28,-18.3,0.0552079836,0.597552416,-0.124210334,0.790185247
166,420357,569160,0.954,-0.154,0.252,-9,1.4,-2.9,-3.3,28.3,-18.3,0.0554216132,0.597521897,-0.124332408,0.790185247
167,422479,569160,0.954,-0.154,0.248,-9.1,1.3,-2.7,-3.3,28.3,-18.3,0.0557573168,0.59746086,-0.124576556,0.790154729
168,424596,569170,0.95,-0.158,0.249,-9,1.3,-2.8,-3.3,28.3,-18.3,0.0559099094,0.597430342,-0.12469863,0.790154729
169,427028,569170,0.95,-0.158,0.249,-9,1.3,-2.8,-3.3,28.3,-18.3,0.0559099094,0.597430342,-0.12469863,0.790154729
170,430983,569170,0.95,-0.154,0.252,-8.9,1.3,-2.7,-2.8,28.2,-18.5,0.0560930204,0.597399823,-0.124820704,0.790154729
171,433519,569170,0.946,-0.162,0.249,-8.7,1.2,-2.7,-2.8,28.2,-18.5,0.056245613,0.597399823,-0.124912259,0.79012421
172,435970,569180,0.946,-0.158,0.245,-8.3,1,-2.6,-2.8,28.2,-18.5,0.0565813166,0.597338786,-0.125156407,0.790093692
173,437993,569180,0.946,-0.158,0.245,-8.3,1,-2.6,-2.8,28.2,-18.5,0.0565813166,0.597338786,-0.125156407,0.790093692
174,439444,569180,0.946,-0.154,0.241,-7.9,0.9,-2.4,-3,27.7,-18.2,0.0567339091,0.597338786,-0.125217444,0.790093692
175,443466,569180,0.938,-0.154,0.241,-7.9,0.9,-2.4,-3,27.7,-18.2,0.0568865017,0.597308267,-0.125339518,0.790093692
176,445187,569190,0.946,-0.146,0.241,-7.7,0.6,-2.4,-3,27.7,-18.2,0.0570085757,0.597277749,-0.125461592,0.790032655
177,446963,569190,0.938,-0.154,0.241,-7.4,0.4,-2.4,-3,27.7,-18.2,0.0571611682,0.597277749,-0.125553148,0.790032655
178,450138,569190,0.938,-0.154,0.241,-7.4,0.4,-2.4,-3,27.7,-18.2,0.0571611682,0.597277749,-0.125553148,0.790032655
179,451755,569190,0.934,-0.142,0.233,-6.6,0,-1.9,-3.2,27.6,-18.2,0.0571611682,0.597338786,-0.125797296,0.789971618
180,454434,569200,0.934,-0.138,0.233,-6.4,-0.1,-1.7,-3.2,27.6,-18.2,0.0572832423,0.597338786,-0.125888852,0.789941099
181,458727,569200,0.938,-0.142,0.233,-6.4,-0.1,-1.7,-3.2,27.6,-18.2,0.0574053163,0.597338786,-0.125980407,0.789910581
182,460269,569200,0.942,-0.135,0.233,-6.3,-0.5,-1.5,-3.2,27.6,-18.2,0.0574968719,0.597338786,-0.126071963,0.789880062
183,461919,569200,0.942,-0.123,0.233,-6.1,-1.3,-1,-3,27.6,-17.9,0.0575884274,0.597369304,-0.126163518,0.789849544
184,464278,569210,0.942,-0.123,0.233,-6.1,-1.7,-0.8,-3,27.6,-17.9,0.0576494644,0.597399823,-0.126255074,0.789819025
185,466798,569210,0.946,-0.123,0.233,-6.1,-2.1,-0.6,-3,27.6,-17.9,0.0577715384,0.597430342,-0.126346629,0.789757988
186,470842,569210,0.946,-0.123,0.233,-6.1,-2.1,-0.6,-3,27.6,-17.9,0.057863094,0.59746086,-0.126468703,0.78972747
187,472667,569210,0.942,-0.111,0.229,-6,-3,-0.2,-3,27.8,-17.6,0.0578936125,0.597491379,-0.126560259,0.789666433
188,475997,569220,0.946,-0.111,0.225,-5.9,-3.5,0,-3,27.8,-17.6,0.057985168,0.597552416,-0.126682333,0.789605396
189,477993,569220,0.946,-0.103,0.225,-6,-3.9,0.3,-3,27.8,-17.6,0.058046205,0.597613453,-0.126773888,0.789544359
190,479391,569220,0.95,-0.1,0.225,-6,-3.9,0.3,-3,27.8,-17.6,0.058107242,0.59767449,-0.126895962,0.789452803
191,482607,569220,0.95,-0.1,0.225,-6,-3.9,0.3,-3,27.8,-17.6,0.058107242,0.59767449,-0.126895962,0.789452803
192,484804,569230,0.958,-0.088,0.225,-6.9,-4.9,1.2,-3.8,28,-18.3,0.0582293161,0.597827082,-0.127170629,0.789300211
193,487795,569230,0.954,-0.088,0.225,-7.4,-5.1,1.5,-3.8,28,-18.3,0.0582903531,0.597888119,-0.127323222,0.789208655
194,490445,569230,0.954,-0.084,0.225,-7.8,-5.3,1.7,-3.8,28,-18.3,0.0583513901,0.597979675,-0.127506333,0.7891171
195,493091,569230,0.954,-0.084,0.225,-7.8,-5.3,1.7,-3.8,28,-18.3,0.0583513901,0.597979675,-0.127506333,0.7891171
196,494468,569240,0.965,-0.076,0.221,-8.4,-5.6,1.9,-2.2,27.5,-18,0.0583819086,0.598040712,-0.127689444,0.789025544
197,497742,569240,0.962,-0.072,0.221,-9.5,-5.8,2.3,-2.2,27.5,-18,0.0585345012,0.598223823,-0.128055666,0.788842433
198,499286,569240,0.969,-0.061,0.228,-10.1,-5.7,2.5,-2.2,27.5,-18,0.0586260567,0.59828486,-0.128299814,0.788720359
199,503431,569240,0.969,-0.061,0.228,-10.1,-5.7,2.5,-2.2,27.5,-18,0.0586260567,0.59828486,-0.128299814,0.788720359
200,505112,569250,0.969,-0.061,0.228,-10.1,-5.7,2.5,-2.2,27.5,-18,0.0586260567,0.59828486,-0.128299814,0.788720359
201,508187,569250,0.966,-0.061,0.221,-11.2,-5.4,2.5,-2.1,27.9,-18.1,0.0591143529,0.598742637,-0.128025147,0.788415174
202,510595,569250,0.966,-0.057,0.221,-11.8,-5.2,2.5,-2.1,27.9,-18.1,0.0592059084,0.598803674,-0.128269295,0.7882931
203,512198,569250,0.966,-0.053,0.221,-12.4,-5,2.5,-2.1,27.9,-18.1,0.0593279824,0.598864711,-0.128513443,0.788201544
204,515184,569260,0.969,-0.061,0.217,-13,-4.9,2.3,-2.1,27.9,-18.1,0.0594195379,0.598925748,-0.12878811,0.788109989
205,517487,569260,0.969,-0.057,0.221,-14.5,-4.8,1.8,-2.3,28,-18,0.0595721305,0.598986785,-0.129062777,0.788018433
206,519599,569260,0.965,-0.057,0.213,-14.5,-4.8,1.8,-2.3,28,-18,0.059724723,0.599047823,-0.129337443,0.787896359
207,521885,569260,0.962,-0.057,0.217,-15.3,-4.6,1.7,-2.3,28,-18,0.0598467971,0.59910886,-0.129642628,0.787804804
208,525766,569270,0.962,-0.061,0.213,-16.2,-4.4,1.6,-2.3,28,-18,0.0600604266,0.599169897,-0.129947813,0.787713248
209,527350,569270,0.958,-0.061,0.209,-17.7,-3.9,1.1,-2.4,28,-18,0.0602435377,0.599200415,-0.130283517,0.787591174
210,529604,569270,0.954,-0.065,0.213,-18.5,-3.7,0.8,-2.4,28,-18,0.0604571673,0.599230934,-0.130619221,0.787499619
211,531771,569270,0.954,-0.076,0.213,-18.5,-3.7,0.8,-2.4,28,-18,0.0607013153,0.599261452,-0.130954924,0.787408063
212,534469,569280,0.954,-0.072,0.213,-19.2,-3.5,0.5,-2.4,28,-18,0.0609149449,0.599322489,-0.131290628,0.787285989
213,538547,569280,0.958,-0.08,0.201,-20.6,-3,0.1,-4.1,28.2,-17.9,0.0611896115,0.599322489,-0.13165685,0.787194433
214,540193,569280,0.954,-0.084,0.201,-21.2,-2.7,-0.1,-4.1,28.2,-17.9,0.0614642781,0.599353008,-0.132023072,0.787102878
215,543291,569280,0.954,-0.084,0.201,-22,-2.6,-0.4,-4.1,28.2,-17.9,0.0617389447,0.599383526,-0.132389294,0.787011322
216,545846,569290,0.954,-0.088,0.201,-22,-2.6,-0.4,-4.1,28.2,-17.9,0.0620136113,0.599383526,-0.132755516,0.786889248
217,547965,569290,0.961,-0.088,0.197,-23.2,-2.7,-1.1,-2.5,28.1,-17.3,0.0623493149,0.599414045,-0.133152257,0.786797693
218,550331,569290,0.957,-0.088,0.197,-23.9,-2.9,-1.5,-2.5,28.1,-17.3,0.0626850185,0.599414045,-0.133548997,0.786675619
219,552152,569290,0.958,-0.092,0.201,-24.4,-3,-1.9,-2.5,28.1,-17.3,0.0630207221,0.599444563,-0.133945738,0.786584063
220,554462,569300,0.961,-0.092,0.197,-24.4,-3,-1.9,-2.5,28.1,-17.3,0.0633564257,0.599475082,-0.134342479,0.786461989
221,557001,569300,0.961,-0.092,0.197,-24.4,-3,-1.9,-2.5,28.1,-17.3,0.0633564257,0.599475082,-0.134342479,0.786461989
222,559707,569300,0.961,-0.092,0.197,-24.4,-3,-1.9,-2.5,28.1,-17.3,0.0633564257,0.599475082,-0.134342479,0.786461989
223,563305,569300,0.965,-0.096,0.197,-26.2,-3.4,-2.5,-2.2,28.4,-17.1,0.064394055,0.600024415,-0.134891812,0.785851619
224,564601,569310,0.965,-0.092,0.193,-26.6,-3.4,-2.4,-2.2,28.4,-17.1,0.0647907956,0.600054933,-0.135319071,0.785729545
225,567786,569310,0.973,-0.096,0.197,-26.6,-3.4,-2.4,-2.2,28.4,-17.1,0.0651570177,0.600085452,-0.13574633,0.785607471
226,569348,569310,0.973,-0.096,0.197,-26.6,-3.4,-2.4,-2.2,28.4,-17.1,0.0651570177,0.600085452,-0.13574633,0.785607471
227,572249,569310,0.977,-0.096,0.197,-28.1,-4.6,-2.2,-2.3,28.1,-17.4,0.065950499,0.600177007,-0.136631367,0.785332804
228,575379,569320,0.981,-0.089,0.197,-28.7,-5.1,-2,-2.3,28.1,-17.4,0.0663472396,0.600207526,-0.137119663,0.785149693
229,576799,569320,0.981,-0.092,0.193,-29.5,-5.6,-1.8,-2.3,28.1,-17.4,0.0667439802,0.600268563,-0.137607959,0.784997101
230,579675,569320,0.981,-0.092,0.193,-29.5,-5.6,-1.8,-2.3,28.1,-17.4,0.0667439802,0.600268563,-0.137607959,0.784997101
231,582508,569320,0.993,-0.089,0.185,-30.3,-5.9,-1.6,-2.3,28.1,-17.4,0.0671407208,0.6003296,-0.138096255,0.78481399
232,586172,569330,1,-0.081,0.185,-31.6,-6,-1.2,-2.3,28.1,-17.4,0.0679647206,0.600482192,-0.139164403,0.784478286
233,588559,569330,1.012,-0.081,0.177,-32.1,-5.9,-1.1,-2.3,28.1,-17.4,0.0683919797,0.600512711,-0.139713736,0.784295175
234,590582,569330,1.012,-0.081,0.177,-32.1,-5.9,-1.1,-2.3,28.1,-17.4,0.0683919797,0.600512711,-0.139713736,0.784295175
235,593233,569330,1.016,-0.085,0.181,-32.6,-5.6,-1.1,-3.1,28.5,-17.3,0.0688192389,0.600573748,-0.14026307,0.784112064
236,595405,569340,1.02,-0.085,0.169,-33.2,-4.2,-1,-3.1,28.5,-17.3,0.0697042756,0.600634785,-0.141392254,0.783806879
237,597633,569340,1.024,-0.082,0.169,-33.4,-3.5,-0.9,-3.1,28.5,-17.3,0.0701620533,0.600665304,-0.141941588,0.783654286
238,599513,569340,1.024,-0.082,0.169,-33.4,-3.5,-0.9,-3.1,28.5,-17.3,0.0701620533,0.600665304,-0.141941588,0.783654286
239,601916,569340,1.028,-0.082,0.169,-33.5,-2.9,-0.9,-3.1,28.5,-17.3,0.0705893124,0.600665304,-0.142521439,0.783501694
240,604391,569350,1.032,-0.074,0.172,-33.6,-2.4,-0.8,-3.1,28.5,-17.3,0.0710470901,0.600634785,-0.143070772,0.783349101
241,606733,569350,1.028,-0.058,0.18,-34.2,-1.6,-0.8,-3.1,28.5,-17.3,0.0719626453,0.600604266,-0.144230476,0.783104953
242,611100,569350,1.028,-0.058,0.18,-34.2,-1.6,-0.8,-3.1,28.5,-17.3,0.0719626453,0.600604266,-0.144230476,0.783104953
243,613378,569350,1.028,-0.058,0.18,-34.2,-1.6,-0.8,-3.1,28.5,-17.3,0.0719626453,0.600604266,-0.144230476,0.783104953
244,615396,569360,1.028,-0.05,0.184,-35.3,-1.2,-0.8,-3.1,28.5,-17.3,0.072603534,0.600909452,-0.144627216,0.782738731
245,617662,569360,1.028,-0.046,0.184,-36,-1.1,-0.8,-3.1,28.5,-17.3,0.0730918302,0.600848415,-0.145237587,0.782616657
246,619657,569360,1.02,-0.042,0.18,-37.6,-1.1,-0.7,-3.1,28.5,-17.3,0.074098941,0.600787378,-0.146519364,0.78234199
247,621892,569360,1.02,-0.042,0.18,-37.6,-1.1,-0.7,-3.1,28.5,-17.3,0.074098941,0.600787378,-0.146519364,0.78234199
248,624269,569370,1.012,-0.027,0.185,-38.5,-0.9,-0.8,-3.1,28.6,-16,0.0745872372,0.600726341,-0.147160253,0.782189398
249,626728,569370,1.012,-0.027,0.188,-39.6,-0.6,-0.7,-3.1,28.6,-16,0.0751365703,0.600695822,-0.14783166,0.782067324
250,629529,569370,1.008,-0.023,0.192,-40.7,-0.1,-0.7,-3.1,28.6,-16,0.0756859035,0.600634785,-0.148503067,0.78194525
251,631702,569370,1.005,-0.019,0.185,-42.1,0.3,-0.8,-3.1,28.6,-16,0.0762352367,0.600543229,-0.149204993,0.781792657
252,634888,569380,1.001,-0.023,0.181,-43.4,0.9,-1,-3.4,29.3,-17.5,0.0768456069,0.600482192,-0.149937437,0.781670583
253,638142,569380,0.997,-0.022,0.181,-44.6,1.4,-1.1,-3.4,29.3,-17.5,0.0774559771,0.600360118,-0.150669881,0.781548509
254,640205,569380,0.989,-0.022,0.181,-45.6,2,-1.3,-3.4,29.3,-17.5,0.0780663472,0.600268563,-0.151432844,0.781395917
255,642883,569380,0.981,-0.03,0.177,-46.7,2.7,-1.6,-3.4,29.3,-17.5,0.0787072359,0.600146489,-0.152226325,0.781304361
256,644246,569390,0.985,-0.03,0.169,-47.8,3.5,-1.9,-3.3,29.1,-15.5,0.0794091617,0.599993896,-0.152989288,0.781182287
257,647411,569390,0.977,-0.034,0.17,-48.9,4.3,-2.1,-3.3,29.1,-15.5,0.0800805689,0.599841304,-0.153782769,0.781060213
258,650176,569390,0.977,-0.05,0.17,-50,4.9,-2.7,-3.3,29.1,-15.5,0.0808130131,0.599688711,-0.154606769,0.780968657
259,652932,569390,0.969,-0.049,0.17,-50.8,5.4,-3.2,-3.3,29.1,-15.5,0.0815454573,0.5995056,-0.155430769,0.780846583
260,654257,569400,0.965,-0.069,0.162,-52.3,6.2,-4.1,-3.2,29.3,-15.4,0.0823389386,0.599322489,-0.156254769,0.780755028
261,657115,569400,0.965,-0.065,0.162,-52.3,6.2,-4.1,-3.2,29.3,-15.4,0.0831019013,0.599139378,-0.157078768,0.780632954
262,659393,569400,0.961,-0.073,0.154,-52.9,6.6,-4.4,-3.2,29.3,-15.4,0.0838953825,0.598956267,-0.157902768,0.780541398
263,661990,569400,0.965,-0.088,0.158,-53.5,7,-4.7,-3.2,29.3,-15.4,0.0846888638,0.598742637,-0.158726768,0.780449843
264,665132,569410,0.965,-0.088,0.158,-53.5,7,-4.7,-3.2,29.3,-15.4,0.0846888638,0.598742637,-0.158726768,0.780449843
265,667911,569410,0.961,-0.1,0.154,-54.8,8.3,-5.5,-3.4,29.4,-14.7,0.0856959746,0.598834193,-0.159398175,0.780114139
266,669524,569410,0.961,-0.108,0.154,-55,8.7,-5.8,-3.4,29.4,-14.7,0.0865199744,0.598590045,-0.160252693,0.780053102
267,672548,569410,0.961,-0.112,0.158,-55,8.7,-5.8,-3.4,29.4,-14.7,0.0874050111,0.598376415,-0.161107212,0.779961547
268,675570,569420,0.957,-0.116,0.158,-55.3,9.1,-6,-3.4,29.4,-14.7,0.0882595294,0.598132267,-0.161931211,0.779869991
269,676893,569420,0.957,-0.116,0.158,-55.3,9.1,-6,-3.4,29.4,-14.7,0.0882595294,0.598132267,-0.161931211,0.779869991
270,679642,569420,0.953,-0.127,0.166,-56.3,8.8,-6.7,-3.1,29.5,-14.4,0.090029603,0.597643971,-0.163640248,0.77968688
271,683000,569420,0.949,-0.127,0.166,-56.3,8.8,-6.7,-3.1,29.5,-14.4,0.0908841212,0.597399823,-0.164494766,0.779564806
272,685118,569430,0.953,-0.131,0.166,-56.7,8.6,-6.9,-3.1,29.5,-14.4,0.0917996765,0.597186193,-0.165349284,0.779473251
273,687974,569430,0.953,-0.131,0.166,-56.7,8.6,-6.9,-3.1,29.5,-14.4,0.0917996765,0.597186193,-0.165349284,0.779473251
274,689543,569430,0.957,-0.135,0.17,-58.3,7.9,-6.8,-3.5,29.9,-17.6,0.0936002686,0.596697897,-0.167119358,0.779229102
275,692613,569430,0.953,-0.131,0.17,-58.9,7.6,-6.6,-3.5,29.9,-17.6,0.0944853053,0.596484268,-0.168004395,0.779107028
276,695607,569440,0.953,-0.127,0.178,-58.9,7.6,-6.6,-3.5,29.9,-17.6,0.0954008606,0.596270638,-0.16891995,0.778984954
277,697033,569440,0.953,-0.127,0.178,-58.9,7.6,-6.6,-3.5,29.9,-17.6,0.0954008606,0.596270638,-0.16891995,0.778984954
278,699559,569440,0.953,-0.123,0.178,-60,7.4,-6.5,-3.3,29.8,-15.3,0.0962858974,0.59602649,-0.169835505,0.778832362
279,701868,569440,0.953,-0.127,0.178,-60.9,7,-6.3,-3.3,29.8,-15.3,0.098178045,0.595568712,-0.171697134,0.778527177
280,705271,569450,0.957,-0.123,0.178,-60.9,7,-6.3,-3.3,29.8,-15.3,0.0990936003,0.595355083,-0.172643208,0.778374584
281,707749,569450,0.957,-0.123,0.178,-60.9,7,-6.3,-3.3,29.8,-15.3,0.0990936003,0.595355083,-0.172643208,0.778374584
282,709465,569450,0.953,-0.119,0.178,-61.7,6.4,-6.2,-3.5,30.6,-14.9,0.100039674,0.595141453,-0.173589282,0.778221992
283,711885,569450,0.953,-0.112,0.182,-62.8,6.1,-5.9,-3.5,30.6,-14.9,0.101901303,0.594683676,-0.175542467,0.777886288
284,715643,569460,0.95,-0.115,0.182,-62.8,6.1,-5.9,-3.5,30.6,-14.9,0.102847377,0.594470046,-0.176519059,0.777703177
285,718224,569460,0.95,-0.115,0.182,-62.8,6.1,-5.9,-3.5,30.6,-14.9,0.102847377,0.594470046,-0.176519059,0.777703177
286,719839,569460,0.95,-0.115,0.182,-62.8,6.1,-5.9,-3.5,30.6,-14.9,0.102847377,0.594470046,-0.176519059,0.777703177
287,722226,569460,0.946,-0.107,0.194,-64.2,6.2,-5,-3.2,30.3,-15,0.104098636,0.595019379,-0.177220985,0.776940214
288,724492,569470,0.942,-0.107,0.19,-64.5,6.5,-4.8,-3.2,30.3,-15,0.105075228,0.594775231,-0.178228095,0.776757103
289,726908,569470,0.938,-0.103,0.186,-65.4,6.7,-4.6,-3.2,30.3,-15,0.106967376,0.594286935,-0.180303354,0.7764214
290,731589,569470,0.938,-0.103,0.186,-65.4,6.7,-4.6,-3.2,30.3,-15,0.106967376,0.594286935,-0.180303354,0.7764214
291,731904,569470,0.93,-0.103,0.186,-66,6.7,-4.6,-3.6,30.8,-14.7,0.107943968,0.594042787,-0.181340983,0.776238289
292,734453,569480,0.926,-0.103,0.182,-66.4,6.9,-4.8,-3.6,30.8,-14.7,0.10892056,0.593798639,-0.182378613,0.776055177
293,737986,569480,0.934,-0.103,0.194,-67.1,7.2,-5.6,-3.6,30.8,-14.7,0.110873745,0.593249306,-0.18448439,0.775658437
294,739505,569480,0.934,-0.103,0.194,-67.1,7.2,-5.6,-3.6,30.8,-14.7,0.110873745,0.593249306,-0.18448439,0.775658437
295,742734,569480,0.934,-0.107,0.19,-67.6,7.3,-6.1,-3.4,31.2,-14.7,0.111880856,0.593005158,-0.185522019,0.775475326
296,744718,569490,0.93,-0.107,0.186,-68,7.3,-6.5,-3.4,31.2,-14.7,0.112887967,0.592730491,-0.186559648,0.775292215
297,747066,569490,0.93,-0.107,0.186,-68.3,7.3,-6.8,-3.4,31.2,-14.7,0.113925596,0.592455824,-0.187627796,0.775078585
298,749333,569490,0.934,-0.115,0.178,-68.8,7.3,-7.1,-3.4,31.2,-14.7,0.114993744,0.592211676,-0.188665426,0.774864956
299,752079,569490,0.93,-0.119,0.186,-69.2,7.3,-7.7,-3.5,31.4,-14.9,0.116031373,0.59193701,-0.189733573,0.774651326
300,754610,569500,0.938,-0.127,0.182,-69.7,7.4,-8.4,-3.5,31.4,-14.9,0.117099521,0.591662343,-0.190771203,0.774407178
301,756856,569500,0.938,-0.131,0.178,-70.2,7.6,-9,-3.5,31.4,-14.9,0.118198187,0.591387677,-0.191839351,0.774224067
302,760204,569500,0.938,-0.131,0.182,-70.7,7.8,-9.6,-3.5,31.4,-14.9,0.119296854,0.59111301,-0.19287698,0.774010437
303,763615,569500,0.934,-0.146,0.178,-71.2,8.1,-10.2,-3.9,31.6,-14.6,0.120426038,0.590807825,-0.193914609,0.773796808
304,765392,569510,0.934,-0.146,0.178,-71.2,8.1,-10.2,-3.9,31.6,-14.6,0.121555223,0.590563677,-0.194982757,0.77355266
305,767966,569510,0.938,-0.158,0.174,-71.2,8.2,-10.5,-3.9,31.6,-14.6,0.12265389,0.590258492,-0.196020386,0.77333903
306,769733,569510,0.93,-0.17,0.175,-71.1,8.3,-10.8,-3.9,31.6,-14.6,0.123813593,0.589983825,-0.197058016,0.773125401
307,772214,569510,0.93,-0.17,0.175,-71.1,8.3,-10.8,-3.9,31.6,-14.6,0.123813593,0.589983825,-0.197058016,0.773125401
308,774556,569520,0.934,-0.186,0.175,-71.1,8.6,-11.9,-3.6,31.3,-14.6,0.124942778,0.590044862,-0.198187201,0.772606586
309,777295,569520,0.93,-0.182,0.175,-71.2,8.8,-12.3,-3.6,31.3,-14.6,0.126102481,0.589739677,-0.199194311,0.772362438
310,779620,569520,0.937,-0.19,0.167,-71.2,8.8,-12.3,-3.6,31.3,-14.6,0.127262185,0.589465011,-0.200201422,0.772148808
311,782025,569520,0.93,-0.197,0.167,-71.3,8.8,-12.7,-3.6,31.3,-14.6,0.128452406,0.589159825,-0.201239051,0.77190466
312,786058,569530,0.93,-0.197,0.167,-71.3,8.8,-12.7,-3.6,31.3,-14.6,0.128452406,0.589159825,-0.201239051,0.77190466
313,788260,569530,0.933,-0.213,0.163,-71.3,9,-14.1,-3.5,32,-12.2,0.13083285,0.588579974,-0.203222755,0.771416364
314,790531,569530,0.933,-0.213,0.163,-71.3,9,-14.1,-3.5,32,-12.2,0.132023072,0.588274789,-0.204199347,0.771202734
315,792309,569530,0.933,-0.221,0.167,-71.4,9.1,-14.5,-3.5,32,-12.2,0.133213294,0.588000122,-0.205206458,0.770958586
316,795734,569540,0.933,-0.221,0.167,-71.4,9.1,-14.5,-3.5,32,-12.2,0.133213294,0.588000122,-0.205206458,0.770958586
317,797655,569540,0.933,-0.236,0.175,-71.8,9.5,-15.6,-3.6,31.7,-13.8,0.135685293,0.587389752,-0.207159642,0.770439772
318,800410,569540,0.933,-0.236,0.175,-71.8,9.5,-15.6,-3.6,31.7,-13.8,0.136906034,0.587084567,-0.208136235,0.770195624
319,803411,569540,0.937,-0.244,0.171,-71.9,9.7,-16,-3.6,31.7,-13.8,0.138126774,0.586779382,-0.209112827,0.769951476
320,806391,569550,0.937,-0.244,0.171,-71.9,9.7,-16,-3.6,31.7,-13.8,0.138126774,0.586779382,-0.209112827,0.769951476
321,806985,569550,0.933,-0.252,0.171,-71.7,9.8,-17.1,-3.7,31.4,-12.7,0.140629292,0.586169012,-0.211035493,0.769432661
322,809653,569550,0.937,-0.256,0.175,-71.7,9.8,-17.5,-3.7,31.4,-12.7,0.141880551,0.585863826,-0.211981567,0.769188513
323,811877,569550,0.937,-0.256,0.171,-71.7,9.8,-17.5,-3.7,31.4,-12.7,0.143131809,0.585558641,-0.212927641,0.768913846
324,815383,569560,0.937,-0.256,0.171,-71.7,9.8,-17.5,-3.7,31.4,-12.7,0.143131809,0.585558641,-0.212927641,0.768913846
325,816866,569560,0.937,-0.264,0.159,-71.5,10.2,-18.1,-3.8,31.4,-12.9,0.145664846,0.584917753,-0.214819788,0.768395032
326,819356,569560,0.941,-0.268,0.167,-71.4,10.4,-18.4,-3.8,31.4,-12.9,0.146946623,0.584612568,-0.215735343,0.768150884
327,823152,569560,0.945,-0.276,0.167,-71.4,10.4,-18.4,-3.8,31.4,-12.9,0.148228401,0.584307382,-0.216681417,0.767876217
328,825268,569570,0.945,-0.276,0.167,-71.4,10.4,-18.4,-3.8,31.4,-12.9,0.148228401,0.584307382,-0.216681417,0.767876217
329,827678,569570,0.945,-0.276,0.167,-71.4,10.4,-18.4,-3.8,31.4,-12.9,0.148228401,0.584307382,-0.216681417,0.767876217
330,829674,569570,0.957,-0.268,0.166,-70.3,10.3,-19.1,-3.8,31.1,-12.4,0.148930326,0.584124271,-0.218298898,0.767418439
331,831991,569570,0.972,-0.28,0.174,-69.6,9.8,-19.3,-3.8,31.1,-12.4,0.151463363,0.583513901,-0.220068972,0.766869106
332,835221,569580,0.972,-0.276,0.178,-69.5,9.5,-19.4,-3.8,31.1,-12.4,0.152714621,0.583208716,-0.22092349,0.76659444
333,837151,569580,0.972,-0.276,0.178,-69.5,9.5,-19.4,-3.8,31.1,-12.4,0.152714621,0.583208716,-0.22092349,0.76659444
334,839477,569580,0.98,-0.276,0.182,-69.6,9.1,-19.5,-3.8,33.8,-10.3,0.15396588,0.582903531,-0.221839045,0.766319773
335,842613,569580,0.984,-0.28,0.182,-69.8,8.8,-19.4,-3.8,33.8,-10.3,0.155217139,0.582628864,-0.222724082,0.766014588
336,845403,569590,0.988,-0.288,0.182,-70.1,8.7,-19.1,-3.8,33.8,-10.3,0.157719657,0.582049013,-0.224524674,0.765434736
337,846918,569590,0.988,-0.288,0.182,-70.1,8.7,-19.1,-3.8,33.8,-10.3,0.157719657,0.582049013,-0.224524674,0.765434736
338,850151,569590,0.988,-0.292,0.178,-70.1,8.9,-19,-3.7,32.5,-12.2,0.158970916,0.581743828,-0.225409711,0.765129551
339,852034,569590,0.984,-0.304,0.186,-70.2,9.1,-19,-3.7,32.5,-12.2,0.160222175,0.581438643,-0.226325266,0.764824366
340,855112,569600,0.984,-0.304,0.182,-70,10,-19,-3.7,32.5,-12.2,0.162755211,0.580797754,-0.22809534,0.764244514
341,858199,569600,0.984,-0.304,0.182,-70,10,-19,-3.7,32.5,-12.2,0.162755211,0.580797754,-0.22809534,0.764244514
342,859551,569600,0.98,-0.319,0.178,-69.8,10.6,-19.1,-3.6,32.5,-11.4,0.16400647,0.580492569,-0.228980377,0.763969848
343,862605,569600,0.976,-0.335,0.174,-69.5,11,-19.2,-3.6,32.5,-11.4,0.165257729,0.580156865,-0.229865413,0.763695181
344,865651,569610,0.976,-0.339,0.178,-69.1,11.7,-19.5,-3.6,32.5,-11.4,0.166508988,0.579790643,-0.230689413,0.763420515
345,866973,569610,0.984,-0.343,0.174,-68.8,12.3,-19.7,-3.6,32.5,-11.4,0.167790765,0.579424421,-0.23157445,0.763176366
346,870193,569610,0.976,-0.362,0.17,-68.5,13,-19.9,-3.9,32.4,-11.5,0.169042024,0.579058199,-0.232428968,0.7629017
347,872923,569610,0.976,-0.378,0.174,-68.2,13.6,-20.2,-3.9,32.4,-11.5,0.170323801,0.578691977,-0.233252968,0.762657552
348,874376,569620,0.972,-0.382,0.166,-67.7,14.3,-20.6,-3.9,32.4,-11.5,0.17157506,0.578295236,-0.234076968,0.762413404
349,877473,569620,0.976,-0.397,0.166,-67,14.9,-21,-3.9,32.4,-11.5,0.172856838,0.577898495,-0.234870449,0.762199774
350,880442,569620,0.976,-0.397,0.166,-67,14.9,-21,-3.9,32.4,-11.5,0.172856838,0.577898495,-0.234870449,0.762199774
351,882840,569620,0.976,-0.433,0.155,-64.5,16.7,-21.8,-3.6,32.9,-11,0.173589282,0.577471236,-0.2362743,0.761925108
352,885095,569630,0.976,-0.436,0.159,-64.5,16.7,-21.8,-3.6,32.9,-11,0.174840541,0.577043977,-0.237006745,0.761711478
353,887097,569630,0.972,-0.452,0.159,-63.7,17.4,-21.9,-3.6,32.9,-11,0.1760918,0.576647237,-0.23770867,0.761528367
354,889385,569630,0.976,-0.46,0.155,-62.8,18,-22.1,-3.6,32.9,-11,0.177343059,0.576219977,-0.238410596,0.761345256
355,891851,569630,0.976,-0.472,0.151,-61.1,19,-22.4,-4.1,33.9,-9.9,0.178594317,0.5757622,-0.239082003,0.761162145
356,894246,569640,0.975,-0.483,0.147,-61.1,19,-22.4,-4.1,33.9,-9.9,0.179845576,0.575334941,-0.239722892,0.761009552
357,898053,569640,0.979,-0.491,0.147,-60.2,19.2,-22.5,-4.1,33.9,-9.9,0.181066317,0.574907682,-0.240394299,0.760826441
358,900218,569640,0.979,-0.491,0.151,-59.1,19.4,-22.5,-4.1,33.9,-9.9,0.182287057,0.574449904,-0.241004669,0.760673849
359,903185,569640,0.983,-0.511,0.147,-56.8,20,-22.5,-4.4,33.9,-9.6,0.183477279,0.574022645,-0.241584521,0.760551775
360,905527,569650,0.983,-0.515,0.151,-56.8,20,-22.5,-4.4,33.9,-9.6,0.184667501,0.573564867,-0.242164373,0.760399182
361,907788,569650,0.983,-0.526,0.151,-55.8,20.4,-22.4,-4.4,33.9,-9.6,0.185857723,0.573137608,-0.242713706,0.760277108
362,910086,569650,0.991,-0.523,0.147,-54.8,20.9,-22.4,-4.4,33.9,-9.6,0.187017426,0.57267983,-0.243263039,0.760155034
363,912043,569650,0.995,-0.546,0.151,-52.3,22,-22.9,-4.4,34.7,-9.5,0.188177129,0.572222053,-0.243751335,0.760063478
364,914334,569660,1.006,-0.57,0.146,-52.3,22,-22.9,-4.4,34.7,-9.5,0.189306314,0.571764275,-0.244239631,0.759941404
365,917224,569660,1.006,-0.57,0.146,-50.9,22.7,-23,-4.4,34.7,-9.5,0.190466018,0.571275979,-0.244727927,0.759880367
366,920447,569660,1.01,-0.586,0.146,-49.5,23.5,-23.2,-4.4,34.7,-9.5,0.191595202,0.570818201,-0.245155187,0.75981933
367,922672,569660,1.01,-0.586,0.146,-49.5,23.5,-23.2,-4.4,34.7,-9.5,0.191595202,0.570818201,-0.245155187,0.75981933
368,925035,569670,1.026,-0.629,0.154,-46.5,25.4,-24,-4.5,34.5,-8.6,0.192693869,0.570329905,-0.245521409,0.759758293
369,927052,569670,1.037,-0.66,0.166,-43.8,27.3,-24.8,-4.5,34.5,-8.6,0.19492172,0.569322794,-0.246162297,0.759758293
370,930243,569670,1.041,-0.68,0.169,-43.8,27.3,-24.8,-4.5,34.5,-8.6,0.196020386,0.568834498,-0.246436964,0.759758293
371,933190,569670,1.041,-0.68,0.169,-43.8,27.3,-24.8,-4.5,34.5,-8.6,0.196020386,0.568834498,-0.246436964,0.759758293
372,934523,569680,1.049,-0.723,0.181,-42.2,28.8,-25.4,-4.5,34.5,-8.6,0.197119053,0.568315683,-0.246711631,0.759788812
373,937543,569680,1.049,-0.723,0.181,-41.8,29.3,-25.6,-4.5,34.5,-8.6,0.198217719,0.56776635,-0.246955779,0.759788812
374,939504,569680,1.061,-0.762,0.197,-41.7,29.4,-25.7,-4.5,34.5,-8.6,0.199316385,0.567247536,-0.247199927,0.75981933
375,942686,569680,1.065,-0.778,0.204,-41.9,29.4,-25.8,-4.5,34.5,-8.6,0.200415052,0.566698202,-0.247444075,0.759849849
376,945829,569690,1.053,-0.816,0.224,-43,29,-25.8,-4.6,34,-8.5,0.201544237,0.566179388,-0.247718741,0.759880367
377,948097,569690,1.053,-0.836,0.224,-43,29,-25.8,-4.6,34,-8.5,0.202642903,0.565660573,-0.247993408,0.759880367
378,950244,569690,1.045,-0.855,0.232,-43.9,28.6,-25.7,-4.6,34,-8.5,0.203772088,0.56511124,-0.248268075,0.759880367
379,953052,569690,1.033,-0.886,0.241,-44.9,28.3,-25.6,-4.6,34,-8.5,0.204901273,0.564592425,-0.24857326,0.759880367
380,954399,569700,1.018,-0.929,0.245,-47.1,28.3,-25.7,-4.8,34.3,-8.2,0.206060976,0.564043092,-0.248908963,0.759849849
381,957613,569700,1.014,-0.956,0.253,-47.1,28.3,-25.7,-4.8,34.3,-8.2,0.207251198,0.56346324,-0.249244667,0.75981933
382,960620,569700,0.994,-0.975,0.257,-47.9,28.5,-25.9,-4.8,34.3,-8.2,0.208410901,0.562944426,-0.249610889,0.759788812
383,962775,569700,0.982,-1.003,0.261,-48.3,28.9,-26.2,-4.8,34.3,-8.2,0.209601123,0.562395093,-0.249946593,0.759758293
384,965285,569710,0.982,-1.003,0.261,-48.3,28.9,-26.2,-4.8,34.3,-8.2,0.209601123,0.562395093,-0.249946593,0.759758293
385,967150,569710,0.951,-1.088,0.27,-47.2,31.2,-26.8,-5,34,-8.3,0.211981567,0.561235389,-0.250587481,0.759758293
386,969446,569710,0.939,-1.123,0.278,-47.2,31.2,-26.8,-5,34,-8.3,0.213171789,0.560655538,-0.250892666,0.759758293
387,971849,569710,0.927,-1.154,0.278,-46.1,32,-27,-5,34,-8.3,0.214362011,0.560045167,-0.251167333,0.759758293
388,976287,569720,0.927,-1.154,0.278,-46.1,32,-27,-5,34,-8.3,0.214362011,0.560045167,-0.251167333,0.759758293
389,978581,569720,0.907,-1.243,0.294,-43,33.5,-27.1,-5.3,34.1,-7.7,0.215521714,0.559434797,-0.251411481,0.75981933
390,980156,569720,0.864,-1.301,0.291,-37.5,34.8,-27,-5.3,34.1,-7.7,0.217749565,0.558214057,-0.251716666,0.759971923
391,981742,569720,0.856,-1.333,0.284,-37.5,34.8,-27,-5.3,34.1,-7.7,0.218848231,0.557603687,-0.25183874,0.760063478
392,985038,569730,0.856,-1.333,0.284,-37.5,34.8,-27,-5.3,34.1,-7.7,0.218848231,0.557603687,-0.25183874,0.760063478
393,988277,569730,0.848,-1.442,0.265,-23.4,35.5,-24.9,-4.3,33.4,-7.7,0.219733268,0.557054353,-0.251747185,0.76024659
394,989716,569730,0.848,-1.442,0.265,-23.4,35.5,-24.9,-4.3,33.4,-7.7,0.220648824,0.556474502,-0.251655629,0.760429701
395,992995,569730,0.832,-1.469,0.269,-16.3,35,-24,-4.3,33.4,-7.7,0.221442305,0.555955687,-0.251472518,0.76064333
396,995329,569740,0.828,-1.524,0.265,-7.8,34.1,-23.3,-4.3,33.4,-7.7,0.222113712,0.555467391,-0.251167333,0.760917997
397,997604,569740,0.836,-1.571,0.273,12,31.3,-21.8,-5.6,34.8,-8,0.222479934,0.555131687,-0.250556963,0.7612537
398,999567,569740,0.82,-1.586,0.265,12,31.3,-21.8,-5.6,34.8,-8,0.222876675,0.554795984,-0.249916074,0.761589404
399,1001942,569740,0.844,-1.606,0.257,21.7,29.5,-20.8,-5.6,34.8,-8,0.223120823,0.554521317,-0.24918363,0.761955626
400,1005195,569750,0.871,-1.634,0.253,30.9,27.5,-19.4,-5.6,34.8,-8,0.223212378,0.554307688,-0.248268075,0.762382885
401,1007196,569750,0.871,-1.634,0.253,30.9,27.5,-19.4,-5.6,34.8,-8,0.223212378,0.554307688,-0.248268075,0.762382885
402,1009344,569750,0.902,-1.677,0.237,56.2,22.9,-11,-5.6,35,-8.1,0.222632527,0.554185614,-0.246009705,0.763389996
403,1011943,569750,0.902,-1.681,0.229,56.2,22.9,-11,-5.6,35,-8.1,0.222266305,0.554124577,-0.244850002,0.763908811
404,1015484,569760,0.902,-1.701,0.225,65.2,22.7,-7.8,-5.6,35,-8.1,0.221716971,0.554094058,-0.243537706,0.764488662
405,1017760,569760,0.902,-1.701,0.225,65.2,22.7,-7.8,-5.6,35,-8.1,0.221716971,0.554094058,-0.243537706,0.764488662
406,1019792,569760,0.905,-1.701,0.197,83.7,22.9,-0.5,-6,34.8,-8.4,0.220831935,0.554124577,-0.242042299,0.765190588
407,1022013,569760,0.894,-1.693,0.158,102.7,21.2,8.9,-6,34.8,-8.4,0.218482009,0.554277169,-0.238715781,0.766838588
408,1024306,569770,0.905,-1.69,0.146,102.7,21.2,8.9,-6,34.8,-8.4,0.217200232,0.554338206,-0.236976226,0.767662587
409,1027264,569770,0.905,-1.69,0.146,102.7,21.2,8.9,-6,34.8,-8.4,0.217200232,0.554338206,-0.236976226,0.767662587
410,1030719,569770,0.933,-1.667,0.13,121.6,16.8,20.1,-5.9,34.4,-9.2,0.215491195,0.554551836,-0.235114597,0.768578143
411,1032859,569770,0.94,-1.64,0.111,130.9,14.7,25.4,-5.9,34.4,-9.2,0.213538011,0.554765465,-0.233161412,0.769554735
412,1035209,569780,0.944,-1.605,0.095,149,11.2,34.9,-5.9,34.4,-9.2,0.209082308,0.555375835,-0.228980377,0.771599475
413,1037193,569780,0.944,-1.605,0.095,149,11.2,34.9,-5.9,34.4,-9.2,0.209082308,0.555375835,-0.228980377,0.771599475
414,1039466,569780,0.944,-1.605,0.095,149,11.2,34.9,-5.9,34.4,-9.2,0.209082308,0.555375835,-0.228980377,0.771599475
415,1042663,569780,0.901,-1.569,0.013,175.2,7.8,47.6,-3.9,33,-9.5,0.203466903,0.556169317,-0.224250008,0.773888363
416,1044690,569790,0.901,-1.569,0.013,175.2,7.8,47.6,-3.9,33,-9.5,0.200567644,0.556596576,-0.221839045,0.775048067
417,1047052,569790,0.893,-1.557,-0.009,184,7.5,51.2,-3.9,33,-9.5,0.197485275,0.557023835,-0.219306009,0.776268807
418,1049289,569790,0.893,-1.557,-0.009,184,7.5,51.2,-3.9,33,-9.5,0.197485275,0.557023835,-0.219306009,0.776268807
419,1052043,569790,0.924,-1.543,-0.084,202.4,8.5,56.4,-5.5,33.2,-11.1,0.190740684,0.557908872,-0.213721122,0.77886288
420,1055099,569800,0.924,-1.543,-0.084,212.3,9.8,58.6,-5.5,33.2,-11.1,0.187200537,0.558336131,-0.210791345,0.780205695
421,1058377,569800,0.932,-1.543,-0.108,222.5,11.6,60.8,-5.5,33.2,-11.1,0.183507797,0.55876339,-0.207708975,0.781609546
422,1060528,569800,0.919,-1.578,-0.182,243.8,15.2,66,-5.3,33,-12,0.179479354,0.559190649,-0.204290902,0.783135472
423,1061904,569800,0.939,-1.579,-0.202,243.8,15.2,66,-5.3,33,-12,0.175450911,0.559556871,-0.200872829,0.784661397
424,1064725,569810,0.939,-1.579,-0.202,254.7,16.6,69.2,-5.3,33,-12,0.171208838,0.559953612,-0.197271645,0.78624836
425,1068017,569810,0.931,-1.594,-0.221,265.7,17.6,72.9,-5.3,33,-12,0.166783654,0.560319834,-0.193548387,0.787865841
426,1069406,569810,0.861,-1.593,-0.2,277.1,18.4,77,-3.9,32.3,-13,0.162144841,0.560655538,-0.189642018,0.78951384
427,1072648,569810,0.861,-1.593,-0.2,288.5,18.7,81.9,-3.9,32.3,-13,0.157292398,0.56102176,-0.185613575,0.791222877
428,1075518,569820,0.829,-1.588,-0.188,299.5,17.9,87.3,-3.9,32.3,-13,0.152165288,0.561357463,-0.181432539,0.792931913
429,1076834,569820,0.803,-1.498,-0.125,308.8,14.7,93.2,-3.9,32.3,-13,0.146824549,0.561754204,-0.177190466,0.794610431
430,1080121,569820,0.851,-1.385,-0.024,316.1,9,98.3,-2.9,31.6,-14,0.141300699,0.562211982,-0.172887356,0.796258431
431,1083026,569820,0.851,-1.385,-0.024,320,1,102.1,-2.9,31.6,-14,0.135593738,0.562791833,-0.168553728,0.797753838
432,1084336,569830,0.941,-1.335,0.004,318.8,-7.7,103.8,-2.9,31.6,-14,0.129825739,0.56346324,-0.164281137,0.799127171
433,1087556,569830,0.999,-1.325,0.011,311.8,-15,103.7,-2.9,31.6,-14,0.124118778,0.564226203,-0.160191656,0.800347911
434,1090398,569830,0.999,-1.325,0.011,311.8,-15,103.7,-2.9,31.6,-14,0.124118778,0.564226203,-0.160191656,0.800347911
435,1091886,569830,1.089,-1.326,0.037,288.2,-17.4,104.6,-2.9,30,-15.4,0.118686483,0.564928129,-0.156468398,0.80138554
436,1095144,569840,1.152,-1.296,0.047,273.1,-0.8,118.8,-2.9,30,-15.4,0.107852412,0.56572161,-0.149632252,0.80364391
437,1097244,569840,1.195,-1.261,0.046,273.1,-0.8,118.8,-2.9,30,-15.4,0.102389599,0.565996277,-0.146366771,0.804803613
438,1099463,569840,1.195,-1.261,0.046,273.1,-0.8,118.8,-2.9,30,-15.4,0.102389599,0.565996277,-0.146366771,0.804803613
439,1102674,569840,1.261,-1.165,-0.009,274.4,22.3,147.3,-2.1,29.5,-15.8,0.0964690085,0.56572161,-0.14331492,0.806268502
440,1104680,569850,1.288,-1.08,-0.104,277.9,32.3,164.3,-2.1,29.5,-15.8,0.0840479751,0.564683981,-0.137424848,0.809411908
441,1106997,569850,1.3,-1.014,-0.174,281.2,40.8,181.6,-2.1,29.5,-15.8,0.0774864956,0.563921018,-0.134617145,0.811059908
442,1110136,569850,1.3,-1.014,-0.174,281.2,40.8,181.6,-2.1,29.5,-15.8,0.0774864956,0.563921018,-0.134617145,0.811059908
443,1112887,569850,1.346,-0.809,-0.364,291.7,57.7,228.5,-1.5,28.6,-17.1,0.062837611,0.561540574,-0.12961211,0.814783166
444,1114376,569860,1.401,-0.674,-0.506,291.7,57.7,228.5,-1.5,28.6,-17.1,0.0553605762,0.560258797,-0.12714011,0.816583758
445,1117688,569860,1.401,-0.674,-0.506,296.7,60.2,242.9,-1.5,28.6,-17.1,0.0475783563,0.558854946,-0.124729148,0.818414869
446,1120709,569860,1.401,-0.674,-0.506,296.7,60.2,242.9,-1.5,28.6,-17.1,0.0475783563,0.558854946,-0.124729148,0.818414869
447,1122044,569860,1.459,-0.55,-0.589,311.3,59.5,271.6,-0.4,27.7,-18.5,0.0390942106,0.557359539,-0.12244026,0.820245979
448,1124439,569870,1.561,-0.353,-0.65,321.1,56.6,285.8,-0.4,27.7,-18.5,0.0213324381,0.554246651,-0.117770928,0.823664052
449,1126903,569870,1.585,-0.283,-0.663,332,52.2,299.7,-0.4,27.7,-18.5,0.0120853298,0.552659688,-0.115390484,0.825251015
450,1131247,569870,1.585,-0.283,-0.663,332,52.2,299.7,-0.4,27.7,-18.5,0.0120853298,0.552659688,-0.115390484,0.825251015
451,1133568,569870,1.659,-0.136,-0.68,353.8,40.6,324.9,0.9,26.4,-19.4,0.00204474013,0.551164281,-0.112887967,0.826685385
452,1135772,569880,1.687,-0.105,-0.684,362.9,34.9,337.5,0.9,26.4,-19.4,0.00827051607,-0.549699393,0.110415967,-0.827967162
453,1138111,569880,1.761,-0.11,-0.717,370,30.7,351,0.9,26.4,-19.4,0.0296639912,-0.546617023,0.105471969,-0.830164495
454,1140279,569880,1.761,-0.11,-0.717,370,30.7,351,0.9,26.4,-19.4,0.0296639912,-0.546617023,0.105471969,-0.830164495
455,1141769,569880,1.761,-0.11,-0.717,370,30.7,351,0.9,26.4,-19.4,0.0296639912,-0.546617023,0.105471969,-0.830164495
456,1145446,569890,1.894,-0.003,-0.685,390.1,29.3,387.1,0.9,24.5,-20.6,0.0528580584,-0.543107395,0.100589007,-0.83190405
457,1147001,569890,1.933,-0.015,-0.654,398.4,32.8,390.5,0.9,24.5,-20.6,0.0646076846,-0.54115421,0.0979949339,-0.832667013
458,1149368,569890,1.875,-0.014,-0.637,404.2,39.7,387.3,0.9,24.5,-20.6,0.0763267922,-0.538987396,0.0952787866,-0.833368938
459,1153776,569890,1.875,-0.014,-0.637,404.2,39.7,387.3,0.9,24.5,-20.6,0.0763267922,-0.538987396,0.0952787866,-0.833368938
460,1156072,569900,1.695,0.058,-0.622,398.6,65.4,363.3,4.2,23.2,-21,0.0874660482,-0.536362804,0.0923795282,-0.834315012
461,1158318,569900,1.52,0.085,-0.595,386.9,81.1,347.4,4.2,23.2,-21,0.108829005,-0.530381176,0.0867336039,-0.836237678
462,1160539,569900,1.473,0.066,-0.602,371.2,94.6,334,4.2,23.2,-21,0.119022187,-0.527115696,0.0840479751,-0.837183752
463,1162850,569900,1.473,0.066,-0.602,371.2,94.6,334,4.2,23.2,-21,0.119022187,-0.527115696,0.0840479751,-0.837183752
464,1164273,569910,1.492,-0.007,-0.603,339.5,104.6,328.5,6.1,19.4,-22.6,0.128727073,-0.523697623,0.0818811609,-0.838099307
465,1167107,569910,1.444,-0.113,-0.719,328.2,100.1,333.8,6.1,19.4,-22.6,0.13840144,-0.520310068,0.0799890133,-0.83886227
466,1170367,569910,1.459,-0.141,-0.801,321.2,92.3,338.5,6.1,19.4,-22.6,0.148075808,-0.517014069,0.0782189398,-0.839411603
467,1171807,569910,1.489,-0.244,-0.947,319.3,83.8,339,6.1,19.4,-22.6,0.157750175,-0.513840144,0.0764488662,-0.839747307
468,1174948,569920,1.654,-0.075,-0.993,324.9,76.7,335.5,7,17.7,-23.1,0.167394024,-0.510727256,0.0745262001,-0.839960936
469,1178024,569920,1.849,-0.035,-1.024,340.2,71.5,330,7,17.7,-23.1,0.17709891,-0.507614368,0.0722373119,-0.840052492
470,1179421,569920,1.896,-0.001,-1.115,364.6,68,324.9,7,17.7,-23.1,0.186986908,-0.504409925,0.0693990905,-0.84008301
471,1182614,569920,1.962,0.086,-1.195,395.5,65,322.6,7,17.7,-23.1,0.197149571,-0.501083407,0.0659810175,-0.840021973
472,1184649,569930,1.962,0.086,-1.195,395.5,65,322.6,7,17.7,-23.1,0.197149571,-0.501083407,0.0659810175,-0.840021973
473,1186934,569930,1.923,0.523,-1.442,465.6,58.7,326.6,7,17.7,-23.1,0.218634602,-0.493942076,0.0571611682,-0.839594714
474,1190813,569930,1.923,0.523,-1.442,498.4,55.1,329.2,7,17.7,-23.1,0.22992645,-0.490096744,0.0518509476,-0.839167455
475,1193115,569930,1.881,0.762,-1.39,523.8,50.2,328.6,7,17.7,-23.1,0.241431928,-0.486129337,0.0460219123,-0.838557085
476,1195341,569940,1.881,0.762,-1.39,523.8,50.2,328.6,7,17.7,-23.1,0.241431928,-0.486129337,0.0460219123,-0.838557085
477,1197676,569940,1.547,1.557,-1.46,525.4,40.8,322,8.1,12.6,-24.4,0.25287637,-0.482253487,0.0400097659,-0.837763604
478,1199256,569940,1.462,1.708,-1.31,484.3,48.9,328.4,8.1,12.6,-24.4,0.26392407,-0.478347118,0.0348826563,-0.83681753
479,1202566,569940,1.51,1.513,-1.025,408.8,78.3,350.2,8.1,12.6,-24.4,0.274483474,-0.474288156,0.0315256203,-0.835871456
480,1205813,569950,1.514,1.513,-0.297,310.9,128.3,382.2,8.1,12.6,-24.4,0.284585101,-0.469771416,0.0305795465,-0.835077975
481,1208051,569950,1.064,1.511,0.157,213.2,185.2,411.1,8.9,10.7,-24.2,0.294106876,-0.464766381,0.0320749535,-0.834498123
482,1210382,569950,0.929,1.499,0.406,133,234.2,425.7,8.9,10.7,-24.2,0.303018281,-0.459334086,0.0354319895,-0.834192938
483,1212592,569950,0.84,1.47,0.651,71.2,269,427.2,8.9,10.7,-24.2,0.311288797,-0.453596606,0.0402233955,-0.834070864
484,1214556,569960,0.744,1.438,0.899,20.9,293.1,424.7,8.9,10.7,-24.2,0.318948943,-0.447737053,0.0460219123,-0.834040345
485,1217880,569960,0.744,1.438,0.899,20.9,293.1,424.7,8.9,10.7,-24.2,0.318948943,-0.447737053,0.0460219123,-0.834040345
486,1219314,569960,0.007,0.596,0.292,-54.2,312.9,439.8,10.6,10.3,-23.4,0.326090274,-0.441938536,0.0534989471,-0.833918271
487,1221745,569960,0.053,0.196,1.055,-71.8,296.2,462.9,10.6,10.3,-23.4,0.34049501,-0.43058565,0.0687887204,-0.833002716
488,1226165,569970,0.487,0.628,2.871,-68.3,251.7,493,10.6,10.3,-23.4,0.348399304,-0.425733207,0.0765404218,-0.831537828
489,1227715,569970,0.487,0.628,2.871,-68.3,251.7,493,10.6,10.3,-23.4,0.348399304,-0.425733207,0.0765404218,-0.831537828
490,1230713,569970,4.947,3.403,5.441,30.9,93.9,533,11.9,9.4,-23.2,0.358195746,-0.422864467,0.0816370128,-0.828333384
491,1233064,569970,8.01,3.733,-0.108,126.6,-16.5,486.8,11.9,9.4,-23.2,0.368175298,-0.421308023,0.0837122715,-0.824579608
492,1235290,569980,7.979,3.264,-3.975,224.1,-179.6,356.7,11.9,9.4,-23.2,0.376964629,-0.422040468,0.0815149388,-0.82042909
493,1237566,569980,7.434,3.436,-6.542,224.1,-179.6,356.7,11.9,9.4,-23.2,0.385692923,-0.422772912,0.0792870876,-0.816187017
494,1239612,569980,2.432,6.706,-8.052,404.3,-648.3,-72,9.8,7.2,-24.1,0.38923307,-0.430982391,0.065950499,-0.811395611
495,1241757,569980,1.696,7.904,-6.952,524.3,-794.5,-256.7,9.8,7.2,-24.1,0.39066744,-0.440870388,0.0475173193,-0.806665242
496,1245098,569990,2.331,7.906,-4.517,651.5,-761.2,-379.6,9.8,7.2,-24.1,0.390911588,-0.448988311,0.025879696,-0.80303354
497,1247100,569990,2.438,7.915,-2.283,729.5,-534.3,-445.2,9.8,7.2,-24.1,0.390484329,-0.452253792,0.0041810358,-0.801812799
498,1249423,569990,2.438,7.915,-2.283,729.5,-534.3,-445.2,9.8,7.2,-24.1,0.390484329,-0.452253792,0.0041810358,-0.801812799
499,1252141,569990,-0.996,6.67,-0.467,522.2,245.1,-444.3,7.5,5,-24.3,0.3877987,-0.44349498,-0.00720236824,-0.807977538
500,1255394,570000,-1.158,5.564,-0.105,201.5,587.8,-395.2,7.5,5,-24.3,0.382824183,-0.431318094,-0.00961333048,-0.816858425
501,1256945,570000,-1.426,4.494,0.641,-207.6,781.5,-329.4,7.5,5,-24.3,0.375072481,-0.418988617,-0.00250251778,-0.826868496
502,1260173,570000,-2.255,2.595,0.961,-615.9,796.1,-256.1,7.5,5,-24.3,0.364787744,-0.409527879,0.012756737,-0.836054567
503,1263260,570000,-2.065,0.818,0.976,-928.5,651.6,-188.8,10.9,6,-23.1,0.352732933,-0.404950102,0.0332041383,-0.842860195
504,1265527,570010,-2.065,0.818,0.976,-1084.9,404.2,-146.4,10.9,6,-23.1,0.340067751,-0.405865658,0.0549638356,-0.846522416
505,1267750,570010,-1.005,-0.09,1.013,-1080.2,131.1,-143.4,10.9,6,-23.1,0.327585681,-0.411511582,0.0745872372,-0.847193823
506,1270019,570010,-0.34,-0.578,0.892,-960.4,-97.4,-183,10.9,6,-23.1,0.315652944,-0.42036195,0.0899380474,-0.845881527
507,1272061,570010,-0.34,-0.578,0.892,-960.4,-97.4,-183,10.9,6,-23.1,0.315652944,-0.42036195,0.0899380474,-0.845881527
508,1274411,570020,1.035,-0.507,1.038,-634.6,-294.6,-324.4,12.1,10.7,-21.6,0.292825098,-0.440992462,0.107272561,-0.841547899
509,1276839,570020,1.555,-0.461,1.08,-520.7,-279.9,-371.3,12.1,10.7,-21.6,0.281624805,-0.450270089,0.111484115,-0.839930418
510,1280418,570020,1.916,-0.749,0.936,-468.2,-230.6,-373.4,12.1,10.7,-21.6,0.270699179,-0.45823542,0.114963225,-0.838740196
511,1281849,570020,1.916,-0.749,0.936,-468.2,-230.6,-373.4,12.1,10.7,-21.6,0.270699179,-0.45823542,0.114963225,-0.838740196
512,1285028,570030,2.281,-2.253,-0.096,-552.1,-128.7,-237.3,10.9,13.8,-21.7,0.261146886,-0.464400159,0.121921445,-0.837397382
513,1287071,570030,3.15,-3.816,-0.129,-646.4,-94.5,-130.3,10.9,13.8,-21.7,0.252418592,-0.47010712,0.131839961,-0.835352641
514,1289366,570030,3.347,-4.429,-0.273,-646.4,-94.5,-130.3,10.9,13.8,-21.7,0.243690298,-0.475722526,0.141758477,-0.833155309
515,1292481,570030,3.438,-5.411,-0.911,-737.7,-75.2,-21.7,10.9,13.8,-21.7,0.235816523,-0.481032746,0.154515213,-0.830103458
516,1295495,570040,2.555,-6.366,-1.143,-862.9,-100.9,194.7,9.7,19.4,-20,0.230597858,-0.486556597,0.171666616,-0.824976348
517,1297845,570040,1.463,-6.424,-0.817,-869.6,-141.2,309.8,9.7,19.4,-20,0.227423933,-0.492202521,0.189855647,-0.818506424
518,1300100,570040,0.669,-6.237,-0.36,-803,-174.3,412.5,9.7,19.4,-20,0.226844081,-0.497482223,0.207708975,-0.811090426
519,1302042,570040,-0.166,-5.943,0.076,-649.3,-176.9,476.7,9.7,19.4,-20,0.228980377,-0.501602222,0.223456526,-0.803735466
520,1305207,570050,-0.166,-5.943,0.076,-649.3,-176.9,476.7,9.7,19.4,-20,0.228980377,-0.501602222,0.223456526,-0.803735466
521,1306850,570050,-1.305,-3.488,1.107,-183.3,-79.9,427.6,10,19.4,-19.1,0.234870449,-0.501785333,0.23096408,-0.799768059
522,1310745,570050,-0.657,-2.752,1.262,23,-21,332.1,10,19.4,-19.1,0.241004669,-0.500350963,0.234076968,-0.797936949
523,1312779,570050,-0.197,-2.499,1.065,151.7,14.6,225.8,10,19.4,-19.1,0.24652852,-0.49815363,0.233954894,-0.797662282
524,1315792,570060,0.129,-2.338,0.667,151.7,14.6,225.8,10,19.4,-19.1,0.252021851,-0.495925779,0.233863338,-0.797387616
525,1317972,570060,0.94,-1.784,0.181,196,7.2,87.4,10.5,18.7,-19.5,0.255623035,-0.494247261,0.231421857,-0.797967467
526,1319371,570060,1.327,-1.522,0.013,176.6,-15.1,77.4,10.5,18.7,-19.5,0.258949553,-0.493148595,0.229102451,-0.798272652
527,1322561,570060,1.753,-1.174,-0.167,159.8,-34,102.2,10.5,18.7,-19.5,0.262611774,-0.492324595,0.227240822,-0.79812006
528,1324544,570070,1.819,-1.062,-0.157,149.2,-41.3,151.1,10.5,18.7,-19.5,0.267067476,-0.49140904,0.226020081,-0.797540208
529,1326945,570070,1.936,-0.878,0.255,144.7,-34.8,211.5,10.6,17.8,-19.8,0.272469253,-0.490127262,0.225562304,-0.796624653
530,1330009,570070,2.038,-0.797,0.378,148.2,-19,271.1,10.6,17.8,-19.8,0.278847621,-0.488235115,0.225745415,-0.795525987
531,1332092,570070,2.258,-0.519,0.425,165.9,-4.9,318.5,10.6,17.8,-19.8,0.286141545,-0.485732597,0.226233711,-0.794305246
532,1334251,570080,2.442,-0.338,0.479,202.5,-3,345.5,10.6,17.8,-19.8,0.294289987,-0.48280282,0.226355785,-0.793115024
533,1337441,570080,2.442,-0.338,0.479,202.5,-3,345.5,10.6,17.8,-19.8,0.294289987,-0.48280282,0.226355785,-0.793115024
534,1340522,570080,2.761,0.296,0.465,258.7,-16.9,348.3,11.4,16,-23.5,0.303109836,-0.479689932,0.225440229,-0.791924802
535,1342178,570080,2.573,1.393,0.501,392.2,-63.3,297.6,11.4,16,-23.5,0.321909238,-0.473525193,0.218848231,-0.790032655
536,1344481,570090,2.266,1.602,0.593,444,-76.2,261.1,11.4,16,-23.5,0.331339457,-0.470442824,0.2133549,-0.78951384
537,1347562,570090,2.266,1.602,0.593,444,-76.2,261.1,11.4,16,-23.5,0.331339457,-0.470442824,0.2133549,-0.78951384
538,1349682,570090,1.546,2.018,0.817,464,-63.6,203.4,11.2,14.4,-22.1,0.33988464,-0.467207862,0.206976531,-0.789483322
539,1351896,570090,1.233,1.934,0.835,421.1,-47,184.3,11.2,14.4,-22.1,0.347544786,-0.464033937,0.201239051,-0.78951384
540,1355059,570100,0.913,1.779,0.876,421.1,-47,184.3,11.2,14.4,-22.1,0.355174413,-0.460829493,0.195471053,-0.789452803
541,1357167,570100,0.569,1.719,0.898,347.4,-31.9,166.8,11.2,14.4,-22.1,0.361674856,-0.457960753,0.190923795,-0.789269692
542,1359378,570100,0.569,1.719,0.898,347.4,-31.9,166.8,11.2,14.4,-22.1,0.361674856,-0.457960753,0.190923795,-0.789269692
543,1362607,570100,-0.093,1.205,0.704,164.2,-18.8,123.7,11.2,13,-22.4,0.365520188,-0.456465346,0.18918424,-0.788781396
544,1365521,570110,-0.106,1.009,0.603,81.9,-21.9,94.6,11.2,13,-22.4,0.368053224,-0.455793939,0.188543352,-0.788171026
545,1366860,570110,0.077,0.333,0.417,-37.7,-38.2,20.9,11.2,13,-22.4,0.369487594,-0.456831568,0.18918424,-0.786736656
546,1370128,570110,0.077,0.333,0.417,-37.7,-38.2,20.9,11.2,13,-22.4,0.369487594,-0.456831568,0.18918424,-0.786736656
547,1373040,570110,0.347,0.153,0.482,-81,-41.1,-39.7,11.3,12.9,-22.7,0.36814478,-0.458326975,0.189855647,-0.786309397
548,1374467,570120,0.437,0.203,0.575,-73.7,-30.3,-53.7,11.3,12.9,-22.7,0.366618854,-0.45966979,0.190343944,-0.786126286
549,1377648,570120,0.441,0.133,0.622,-59.8,-13.1,-58.1,11.3,12.9,-22.7,0.36506241,-0.460615864,0.190649129,-0.786217841
550,1379603,570120,0.398,0.059,0.599,-59.8,-13.1,-58.1,11.3,12.9,-22.7,0.363536485,-0.461561937,0.191015351,-0.786309397
551,1382763,570120,0.39,-0.049,0.58,-57.3,18.5,-53,11,13.2,-23.5,0.361980041,-0.461928159,0.191595202,-0.786675619
552,1385862,570130,0.397,-0.108,0.552,-72.1,23.1,-50.9,11,13.2,-23.5,0.360271004,-0.462294382,0.192510758,-0.787011322
553,1388006,570130,0.416,-0.183,0.521,-91.8,18.9,-51.9,11,13.2,-23.5,0.358378857,-0.462904752,0.19370098,-0.787224952
554,1389464,570130,0.455,-0.285,0.501,-111.9,8.1,-55.3,11,13.2,-23.5,0.356242561,-0.463881344,0.19513535,-0.78725547
555,1392573,570130,0.455,-0.285,0.501,-111.9,8.1,-55.3,11,13.2,-23.5,0.356242561,-0.463881344,0.19513535,-0.78725547
556,1395550,570140,0.544,-0.451,0.468,-129.8,-5.6,-59.4,11.3,13.3,-23.2,0.353953673,-0.465254677,0.196722312,-0.787102878
557,1396978,570140,0.68,-0.707,0.466,-152.9,-31.4,-68.7,11.3,13.3,-23.2,0.348857082,-0.468977935,0.200079348,-0.786309397
558,1400073,570140,0.68,-0.707,0.466,-156.7,-40.5,-75.2,11.3,13.3,-23.2,0.346140934,-0.471175268,0.201696829,-0.785790582
559,1403149,570140,0.68,-0.707,0.466,-156.7,-40.5,-75.2,11.3,13.3,-23.2,0.346140934,-0.471175268,0.201696829,-0.785790582
560,1405432,570150,0.831,-1.007,0.405,-156.6,-46.2,-83.5,11,14,-22.7,0.343302713,-0.473525193,0.203161718,-0.785241249
561,1406849,570150,0.893,-1.102,0.381,-154.1,-48.4,-92,11,14,-22.7,0.340311899,-0.475905637,0.204474013,-0.784722434
562,1410962,570150,0.916,-1.192,0.376,-149.9,-46.9,-97.1,11,14,-22.7,0.337321085,-0.478255562,0.205694754,-0.784295175
563,1413004,570150,0.959,-1.291,0.368,-143,-41.8,-95.3,11,14,-22.7,0.334391308,-0.480452895,0.206823939,-0.783898434
564,1415111,570160,0.959,-1.291,0.368,-143,-41.8,-95.3,11,14,-22.7,0.334391308,-0.480452895,0.206823939,-0.783898434
565,1418280,570160,0.861,-1.281,0.409,-115.8,-25.1,-63,11,14,-22.7,0.332193976,-0.482009339,0.207983642,-0.783593249
566,1419652,570160,0.811,-1.202,0.421,-94.5,-16.8,-34,11,14,-22.7,0.330698569,-0.483138524,0.209112827,-0.783227027
567,1422548,570160,0.791,-1.053,0.394,-53.5,-9.4,23.3,11,14,-22.7,0.32984405,-0.484298227,0.21131016,-0.782280953
568,1425922,570170,0.791,-1.053,0.394,-53.5,-9.4,23.3,11,14,-22.7,0.32984405,-0.484298227,0.21131016,-0.782280953
569,1428224,570170,0.784,-0.944,0.367,-46.4,-11.5,44.1,10.2,15.3,-22.6,0.330149236,-0.48463393,0.212500381,-0.781640065
570,1430843,570170,0.796,-0.897,0.347,-54,-11.4,42.1,10.2,15.3,-22.6,0.330332347,-0.485000153,0.213782159,-0.780938139
571,1432874,570170,0.808,-0.773,0.307,-54,-11.4,42.1,10.2,15.3,-22.6,0.330545976,-0.485396893,0.215063936,-0.780266732
572,1434394,570180,0.804,-0.695,0.276,-62.5,-9.7,36.7,10.2,15.3,-22.6,0.330545976,-0.485854671,0.216437269,-0.779595325
573,1437816,570180,0.804,-0.586,0.229,-70.7,-3.9,23.7,10.8,15.9,-21.2,0.330210273,-0.486312449,0.217871639,-0.779045991
574,1439242,570180,0.827,-0.516,0.232,-70.2,-1,16.7,10.8,15.9,-21.2,0.329783013,-0.486739708,0.219244972,-0.778588214
575,1442554,570180,0.855,-0.457,0.251,-67.8,1.8,8.8,10.8,15.9,-21.2,0.329203162,-0.487166967,0.220496231,-0.778221992
576,1444535,570190,0.89,-0.388,0.258,-63.7,5.1,0,10.8,15.9,-21.2,0.328501236,-0.487533189,0.221625416,-0.777977844
577,1447487,570190,0.89,-0.388,0.258,-63.7,5.1,0,10.8,15.9,-21.2,0.328501236,-0.487533189,0.221625416,-0.777977844
578,1450952,570190,0.923,-0.216,0.312,-52.2,14.6,-15.9,10.3,15.7,-23.3,0.326792199,-0.488052004,0.223395489,-0.77785577
579,1452865,570190,0.974,-0.17,0.346,-46.2,20.7,-21.7,10.3,15.7,-23.3,0.325815607,-0.488113041,0.224097415,-0.778008362
580,1454415,570200,0.974,-0.17,0.346,-40.9,27,-26.3,10.3,15.7,-23.3,0.324808496,-0.488082522,0.224707785,-0.778283029
581,1457342,570200,0.974,-0.17,0.346,-40.9,27,-26.3,10.3,15.7,-23.3,0.324808496,-0.488082522,0.224707785,-0.778283029
582,1460623,570200,0.966,-0.091,0.35,-35.8,32.9,-30.9,10.4,15.8,-22.7,0.323740349,-0.48792993,0.2252266,-0.778679769
583,1462737,570200,0.947,-0.036,0.342,-30.1,38.5,-36,10.4,15.8,-22.7,0.322611164,-0.487655263,0.225623341,-0.779198584
584,1465660,570210,0.923,-0.009,0.343,-23.6,44.4,-41.8,10.4,15.8,-22.7,0.321420942,-0.487289041,0.225898007,-0.779839473
585,1467073,570210,0.896,0.022,0.339,-17.2,50.7,-48.1,10.4,15.8,-22.7,0.320169683,-0.486770226,0.226020081,-0.780632954
586,1470641,570210,0.896,0.022,0.339,-17.2,50.7,-48.1,10.4,15.8,-22.7,0.320169683,-0.486770226,0.226020081,-0.780632954
587,1472072,570210,0.807,0.102,0.353,-8.9,63.8,-61.2,10.4,15.4,-22.5,0.318704794,-0.486037782,0.225959044,-0.781701102
588,1475155,570220,0.791,0.11,0.361,-7.9,69.6,-68,10.4,15.4,-22.5,0.317117832,-0.485244301,0.225867489,-0.782860805
589,1477406,570220,0.732,0.103,0.346,-10.5,77.8,-83,10.4,15.4,-22.5,0.313455611,-0.483565783,0.225562304,-0.785485397
590,1479228,570220,0.732,0.103,0.346,-10.5,77.8,-83,10.4,15.4,-22.5,0.313455611,-0.483565783,0.225562304,-0.785485397
591,1482427,570220,0.693,0.096,0.316,-13.7,81.9,-100.9,10.6,15.8,-22.5,0.311197241,-0.482741783,0.225318155,-0.786950285
592,1485372,570230,0.689,0.092,0.316,-13.7,81.9,-100.9,10.6,15.8,-22.5,0.308908353,-0.481917783,0.225043489,-0.788445692
593,1486760,570230,0.709,0.08,0.323,-14.4,83.3,-110.7,10.6,15.8,-22.5,0.306436354,-0.481124302,0.224677267,-0.789971618
594,1490257,570230,0.705,0.064,0.308,-15.4,84.2,-120.7,10.6,15.8,-22.5,0.303781243,-0.480361339,0.224250008,-0.791589099
595,1491932,570230,0.693,0.017,0.28,-20.6,85.1,-140.8,11.2,18.2,-20.2,0.300698874,-0.47972045,0.223670156,-0.793328654
596,1495075,570240,0.692,-0.001,0.253,-25.8,84.9,-150.6,11.2,18.2,-20.2,0.297402875,-0.479140599,0.223120823,-0.795068209
597,1497954,570240,0.7,-0.041,0.241,-32,84.4,-160.5,11.2,18.2,-20.2,0.293893246,-0.478682821,0.222540971,-0.796838282
598,1499426,570240,0.68,-0.091,0.226,-32,84.4,-160.5,11.2,18.2,-20.2,0.290353099,-0.478194525,0.221961119,-0.798577837
599,1502668,570240,0.68,-0.091,0.226,-32,84.4,-160.5,11.2,18.2,-20.2,0.290353099,-0.478194525,0.221961119,-0.798577837
600,1505620,570250,0.597,-0.235,0.161,-52,79.4,-190.9,10.9,16.9,-22,0.282052065,-0.477767266,0.220801416,-0.802117985
601,1506956,570250,0.617,-0.243,0.149,-57.8,75.5,-200.7,10.9,16.9,-22,0.277565844,-0.477767266,0.220160527,-0.803827021
602,1510438,570250,0.617,-0.243,0.149,-63.4,69.4,-210.3,10.9,16.9,-22,0.272896512,-0.477950377,0.219519639,-0.805536058
603,1511953,570250,0.617,-0.243,0.149,-63.4,69.4,-210.3,10.9,16.9,-22,0.272896512,-0.477950377,0.219519639,-0.805536058
604,1515047,570260,0.453,-0.201,0.156,-69.6,60.7,-219.8,10.9,17.9,-21.6,0.267983032,-0.478347118,0.218817713,-0.80712302
605,1517857,570260,0.558,-0.23,0.135,-77.5,49.3,-229.8,10.9,17.9,-21.6,0.262916959,-0.478988006,0.21805475,-0.808587909
606,1519351,570260,0.609,-0.227,0.126,-87.9,34.7,-240.7,10.9,17.9,-21.6,0.25757622,-0.480025636,0.217291787,-0.809900204
607,1522403,570260,0.578,-0.234,0.123,-100.6,17.1,-252.2,10.9,17.9,-21.6,0.251960814,-0.481490524,0.216528825,-0.811029389
608,1525692,570270,0.578,-0.234,0.123,-100.6,17.1,-252.2,10.9,17.9,-21.6,0.251960814,-0.481490524,0.216528825,-0.811029389
609,1528016,570270,0.828,-0.27,0.126,-127.9,-22,-274.2,10.7,18.6,-21.7,0.245857112,-0.483870968,0.215765862,-0.811670278
610,1529990,570270,0.945,-0.276,0.139,-139.2,-40.1,-282.3,10.7,18.6,-21.7,0.239570299,-0.486648152,0.215033418,-0.812097537
611,1533100,570270,1.168,-0.303,0.202,-155.4,-68.3,-289,10.7,18.6,-21.7,0.226691488,-0.493087558,0.213629566,-0.812280648
612,1535251,570280,1.168,-0.303,0.202,-155.4,-68.3,-289,10.7,18.6,-21.7,0.226691488,-0.493087558,0.213629566,-0.812280648
613,1536776,570280,1.316,-0.344,0.226,-167.3,-84.3,-280.5,10.7,18.6,-21.7,0.22031312,-0.496688742,0.213110752,-0.811944945
614,1539616,570280,1.445,-0.374,0.177,-167.3,-84.3,-280.5,10.7,18.6,-21.7,0.213934751,-0.500289926,0.212652974,-0.811578722
615,1541717,570280,1.421,-0.389,0.181,-172.4,-89,-271.3,10.7,18.6,-21.7,0.207647938,-0.503921628,0.212347789,-0.811059908
616,1544942,570290,1.468,-0.398,0.196,-176.6,-92.3,-259.5,10.7,18.6,-21.7,0.201513718,-0.507553331,0.212195196,-0.810388501
617,1547906,570290,1.535,-0.395,0.23,-180.4,-92.1,-230,8.2,22.1,-20.2,0.195898312,-0.511001923,0.212408826,-0.809503464
618,1549431,570290,1.464,-0.405,0.228,-181.1,-86.7,-213.3,8.2,22.1,-20.2,0.190496536,-0.514297922,0.212866604,-0.808618427
619,1553339,570290,1.476,-0.437,0.216,-183,-77.9,-195.9,8.2,22.1,-20.2,0.185338908,-0.517349773,0.213568529,-0.807672353
620,1554967,570300,1.425,-0.487,0.193,-183,-77.9,-195.9,8.2,22.1,-20.2,0.18018128,-0.520340587,0.214270455,-0.806726279
621,1557036,570300,1.425,-0.487,0.193,-183,-77.9,-195.9,8.2,22.1,-20.2,0.18018128,-0.520340587,0.214270455,-0.806726279
622,1559953,570300,1.355,-0.478,0.195,-188.9,-52.9,-163.3,7.7,23.4,-19.5,0.175420392,-0.522782067,0.215521714,-0.805871761
623,1563040,570300,1.237,-0.484,0.173,-186.4,-24.3,-140.9,7.7,23.4,-19.5,0.166295358,-0.526657918,0.218543046,-0.80446791
624,1564400,570310,1.19,-0.479,0.178,-181.8,-10.6,-133.8,7.7,23.4,-19.5,0.161900693,-0.528153325,0.220160527,-0.803949095
625,1567518,570310,1.19,-0.479,0.178,-181.8,-10.6,-133.8,7.7,23.4,-19.5,0.161900693,-0.528153325,0.220160527,-0.803949095
626,1570557,570310,1.104,-0.462,0.16,-176.8,1.6,-129.4,7.2,24.4,-18.8,0.157567064,-0.529374065,0.221778008,-0.803552355
627,1571963,570310,1.089,-0.466,0.145,-171.9,11.6,-127.8,7.2,24.4,-18.8,0.153294473,-0.530350658,0.223334452,-0.803308206
628,1575086,570320,1.069,-0.458,0.133,-167.2,19.3,-129,7.2,24.4,-18.8,0.148991363,-0.531205176,0.224829859,-0.803125095
629,1578012,570320,1.046,-0.45,0.122,-162.1,24.8,-132.6,7.2,24.4,-18.8,0.144657735,-0.53193762,0.226233711,-0.80303354
630,1579494,570320,1.046,-0.45,0.122,-162.1,24.8,-132.6,7.2,24.4,-18.8,0.144657735,-0.53193762,0.226233711,-0.80303354
631,1582645,570320,1.026,-0.406,0.118,-149.9,32.5,-142.8,7.2,24.9,-18.5,0.14026307,-0.53254799,0.227301859,-0.803125095
632,1584774,570330,1.019,-0.351,0.111,-137.6,39.1,-154.7,7.2,24.9,-18.5,0.131290628,-0.53358562,0.22891934,-0.803491317
633,1586937,570330,1.015,-0.332,0.099,-134,42.8,-161.5,7.2,24.9,-18.5,0.126682333,-0.534012879,0.229499191,-0.803765984
634,1590040,570330,1.015,-0.332,0.099,-134,42.8,-161.5,7.2,24.9,-18.5,0.126682333,-0.534012879,0.229499191,-0.803765984
635,1592135,570330,1.003,-0.332,0.076,-133.1,46.9,-168,6.5,25.2,-18.2,0.121951964,-0.534379101,0.230018006,-0.804101688
636,1594447,570340,1.011,-0.324,0.056,-135,51.3,-173.2,6.5,25.2,-18.2,0.117099521,-0.534714805,0.230506302,-0.804498428
637,1597779,570340,1.046,-0.329,0.012,-143.5,59.3,-180.5,6.5,25.2,-18.2,0.106936857,-0.535172582,0.23157445,-0.80529191
638,1599306,570340,1.046,-0.329,0.012,-143.5,59.3,-180.5,6.5,25.2,-18.2,0.106936857,-0.535172582,0.23157445,-0.80529191
639,1602637,570340,1.073,-0.345,-0.007,-148.1,62.5,-183.9,5.8,26.6,-17.8,0.101657155,-0.535355693,0.232154302,-0.805658132
640,1604579,570350,1.065,-0.349,-0.011,-152.2,65.6,-187.6,5.8,26.6,-17.8,0.0962248604,-0.535477767,0.23279519,-0.806085391
641,1607016,570350,1.065,-0.357,-0.015,-156.3,69.1,-192,5.8,26.6,-17.8,0.0906704917,-0.535569323,0.233436079,-0.806482131
642,1609877,570350,1.072,-0.373,-0.022,-160.7,73.1,-197,5.8,26.6,-17.8,0.0849635304,-0.535569323,0.234107486,-0.806878872
643,1613168,570350,1.092,-0.404,-0.027,-170.7,80.3,-207.1,5,27.7,-17.1,0.0789208655,-0.535538804,0.23483993,-0.80733665
644,1615392,570360,1.096,-0.428,-0.038,-170.7,80.3,-207.1,5,27.7,-17.1,0.0728476821,-0.535477767,0.235541856,-0.80773339
645,1617718,570360,1.096,-0.455,-0.042,-175.6,82.4,-210.4,5,27.7,-17.1,0.0666524247,-0.535355693,0.236304819,-0.808130131
646,1619532,570360,1.103,-0.49,-0.054,-180.1,83.2,-211.9,5,27.7,-17.1,0.0603961303,-0.535233619,0.237128819,-0.808435316
647,1623507,570360,1.075,-0.576,-0.073,-186.4,83.6,-209.4,4.3,28.2,-16.4,0.0540787988,-0.535081027,0.238074892,-0.808709983
648,1625769,570370,1.056,-0.591,-0.065,-187.7,84,-205.8,4.3,28.2,-16.4,0.0478225043,-0.534867397,0.239082003,-0.808954131
649,1628063,570370,1.044,-0.611,-0.057,-187.6,84.9,-200.6,4.3,28.2,-16.4,0.0416577654,-0.534623249,0.240150151,-0.80916776
650,1630244,570370,1.032,-0.626,-0.053,-187.6,84.9,-200.6,4.3,28.2,-16.4,0.0354319895,-0.534318064,0.24118778,-0.809320353
651,1631868,570370,1.032,-0.626,-0.053,-187.6,84.9,-200.6,4.3,28.2,-16.4,0.0354319895,-0.534318064,0.24118778,-0.809320353
652,1634446,570380,1.001,-0.672,-0.032,-184.6,87.4,-174,3.4,29.1,-16,0.0297860652,-0.533829768,0.242469558,-0.809503464
653,1638135,570380,0.989,-0.699,-0.032,-183.9,87.3,-163.4,3.4,29.1,-16,0.0242927335,-0.533249916,0.243873409,-0.809656056
654,1639746,570380,0.97,-0.726,-0.028,-183.9,87.3,-163.4,3.4,29.1,-16,0.0187994018,-0.532670064,0.245277261,-0.809747612
655,1642057,570380,0.962,-0.742,-0.02,-182.9,87.1,-153.9,3.4,29.1,-16,0.0134891812,-0.532029176,0.246742149,-0.809839167
656,1644346,570390,0.962,-0.742,-0.02,-182.9,87.1,-153.9,3.4,29.1,-16,0.0134891812,-0.532029176,0.246742149,-0.809839167
657,1647273,570390,0.978,-0.781,0.006,-170.1,89.6,-140.6,5.2,28.6,-14.8,0.00350962859,-0.530472732,0.249610889,-0.810083316
658,1649503,570390,0.978,-0.797,0.006,-163,92,-141.4,5.2,28.6,-14.8,0.00134281442,0.529618213,-0.250862148,0.810235908
659,1651755,570390,0.97,-0.816,0.014,-163,92,-141.4,5.2,28.6,-14.8,0.00622577593,0.528763695,-0.252113407,0.810419019
660,1654703,570400,0.97,-0.816,0.014,-163,92,-141.4,5.2,28.6,-14.8,0.00622577593,0.528763695,-0.252113407,0.810419019
661,1657113,570400,0.993,-0.824,0.061,-149.4,96.9,-148.1,2.5,31,-13.8,0.0111087374,0.52784814,-0.253028962,0.810663167
662,1659240,570400,1.009,-0.812,0.084,-143.3,98.5,-152.4,2.5,31,-13.8,0.015991699,0.526902066,-0.253791925,0.810968352
663,1662174,570400,1.041,-0.813,0.123,-134.3,97.3,-156.7,2.5,31,-13.8,0.0257271035,0.525040437,-0.25492111,0.811578722
664,1664474,570410,1.041,-0.813,0.123,-134.3,97.3,-156.7,2.5,31,-13.8,0.0257271035,0.525040437,-0.25492111,0.811578722
665,1667748,570410,1.056,-0.813,0.107,-132.5,94,-155.5,2,31.3,-12.7,0.0305185095,0.5241554,-0.255439924,0.811822871
666,1669995,570410,1.068,-0.81,0.099,-132.7,89.4,-152.3,2,31.3,-12.7,0.0352488784,0.5233314,-0.255989257,0.811975463
667,1671993,570410,1.06,-0.805,0.103,-134.4,84.6,-147.9,2,31.3,-12.7,0.0398876919,0.522537919,-0.256599628,0.812067019
668,1674258,570420,1.06,-0.802,0.103,-136.7,81,-143.1,2,31.3,-12.7,0.0444349498,0.521774957,-0.257332072,0.812097537
669,1677214,570420,1.033,-0.801,0.111,-138.8,79,-134,2.1,32.1,-12.4,0.0488296152,0.520981475,-0.25818659,0.812067019
670,1679476,570420,1.013,-0.793,0.115,-138.8,79,-134,2.1,32.1,-12.4,0.0532242805,0.520187994,-0.25901059,0.8120365
671,1681735,570420,0.99,-0.785,0.116,-138,79.8,-130.3,2.1,32.1,-12.4,0.0575579089,0.519363994,-0.259895627,0.812005982
672,1684704,570430,0.97,-0.792,0.12,-136.4,80.5,-127.2,2.1,32.1,-12.4,0.0617999817,0.518478957,-0.260780663,0.811975463
673,1686965,570430,0.97,-0.792,0.12,-136.4,80.5,-127.2,2.1,32.1,-12.4,0.0617999817,0.518478957,-0.260780663,0.811975463
674,1690116,570430,0.896,-0.763,0.133,-132.2,79.3,-122.1,2.1,32.1,-12.4,0.0659199805,0.517593921,-0.261604663,0.811944945
675,1693208,570430,0.873,-0.755,0.134,-129.2,77.2,-119.8,2.1,32.1,-12.4,0.0699179052,0.516708884,-0.262428663,0.811914426
676,1695366,570440,0.826,-0.735,0.131,-121.2,72.3,-114.9,2.1,32.1,-12.4,0.0776696066,0.515030366,-0.263954588,0.811761834
677,1696717,570440,0.826,-0.735,0.131,-121.2,72.3,-114.9,2.1,32.1,-12.4,0.0776696066,0.515030366,-0.263954588,0.811761834
678,1699674,570440,0.795,-0.719,0.127,-116.6,70.3,-112.8,1.8,32.2,-11,0.0813928648,0.514236885,-0.264625996,0.811700797
679,1702869,570440,0.783,-0.719,0.127,-111.9,68.7,-111.1,1.8,32.2,-11,0.0850245674,0.513473922,-0.265236366,0.811609241
680,1704215,570450,0.775,-0.722,0.131,-101.4,66,-110.1,1.8,32.2,-11,0.0920133061,0.511978515,-0.266212958,0.811487167
681,1707179,570450,0.775,-0.722,0.131,-101.4,66,-110.1,1.8,32.2,-11,0.0920133061,0.511978515,-0.266212958,0.811487167
682,1710332,570450,0.791,-0.715,0.127,-94.7,65.2,-111.5,1.6,32.2,-10.3,0.0954313791,0.511276589,-0.266518143,0.81142613
683,1713361,570450,0.803,-0.719,0.119,-86.7,64.6,-114.2,1.6,32.2,-10.3,0.0987884152,0.510605182,-0.266640217,0.811395611
684,1714627,570460,0.81,-0.723,0.111,-78,64.1,-117.2,1.6,32.2,-10.3,0.102114933,0.509994812,-0.26657918,0.811395611
685,1717859,570460,0.814,-0.723,0.107,-69.6,63.9,-120.2,1.6,32.2,-10.3,0.105380413,0.509384442,-0.266335032,0.81142613
686,1719227,570460,0.818,-0.739,0.099,-62.3,63.4,-122.7,1.7,32.2,-10.4,0.108615375,0.508835108,-0.265907773,0.811487167
687,1721903,570460,0.822,-0.751,0.103,-56.5,62.7,-125,1.7,32.2,-10.4,0.111819819,0.508316294,-0.265388958,0.811548204
688,1725150,570470,0.818,-0.762,0.099,-51.8,61.4,-127.1,1.7,32.2,-10.4,0.114993744,0.507827998,-0.26474807,0.81163976
689,1728207,570470,0.826,-0.77,0.099,-48,59.3,-128.9,1.7,32.2,-10.4,0.118167669,0.507400739,-0.264015625,0.811670278
690,1730420,570470,0.845,-0.759,0.103,-44.4,56.2,-130.2,1.3,32.8,-10,0.121280557,0.507034516,-0.263191626,0.811700797
691,1732647,570470,0.873,-0.744,0.114,-41.1,51.9,-130.8,1.3,32.8,-10,0.124362926,0.50675985,-0.262337107,0.811700797
692,1735706,570480,0.908,-0.732,0.129,-38.4,46.3,-130.9,1.3,32.8,-10,0.12735374,0.506576739,-0.261452071,0.81163976
693,1737912,570480,0.924,-0.705,0.14,-36.8,39.9,-130.5,1.3,32.8,-10,0.130314035,0.506515702,-0.260536515,0.811487167
694,1739292,570480,0.924,-0.705,0.14,-36.8,39.9,-130.5,1.3,32.8,-10,0.130314035,0.506515702,-0.260536515,0.811487167
695,1742476,570480,0.952,-0.682,0.179,-37.8,27,-127.5,0,33.1,-10.2,0.133152257,0.506668294,-0.259743034,0.8112125
696,1745426,570490,0.956,-0.666,0.195,-40.4,21.6,-124.7,0,33.1,-10.2,0.135929441,0.506851405,-0.25901059,0.810846278
697,1746944,570490,0.967,-0.659,0.218,-47.6,12.4,-116.2,0,33.1,-10.2,0.141300699,0.507400739,-0.257911924,0.809930723
698,1749994,570490,0.967,-0.659,0.218,-47.6,12.4,-116.2,0,33.1,-10.2,0.141300699,0.507400739,-0.257911924,0.809930723
699,1753176,570490,0.995,-0.64,0.241,-51.4,8.1,-110.9,0.1,33.2,-10,0.143864254,0.507736442,-0.25757622,0.809411908
700,1754614,570500,1.007,-0.616,0.256,-55.3,4.3,-105.2,0.1,33.2,-10,0.146366771,0.508072146,-0.25736259,0.808801538
701,1757649,570500,1.019,-0.612,0.264,-62.6,-0.6,-94.8,0.1,33.2,-10,0.151158177,0.508743553,-0.25736259,0.807489242
702,1760875,570500,1.019,-0.612,0.264,-62.6,-0.6,-94.8,0.1,33.2,-10,0.151158177,0.508743553,-0.25736259,0.807489242
703,1763060,570500,1.031,-0.585,0.283,-66.1,-1.4,-90.4,0,33,-9.5,0.153477584,0.509048738,-0.257515183,0.806817835
704,1764463,570510,1.031,-0.589,0.287,-69.2,-1.3,-86.2,0,33,-9.5,0.155735954,0.509323405,-0.25778985,0.806115909
705,1767434,570510,1.038,-0.585,0.291,-71.8,-1,-82.1,0,33,-9.5,0.157994324,0.509567553,-0.258125553,0.805413984
706,1770504,570510,1.023,-0.577,0.291,-74,-0.7,-78.4,0,33,-9.5,0.160191656,0.509781182,-0.258552812,0.804712058
707,1772001,570510,1.011,-0.561,0.291,-75.5,-0.5,-75.5,-0.2,33.2,-9.1,0.162327952,0.509933775,-0.259041108,0.804010132
708,1774424,570520,0.992,-0.569,0.284,-76.6,-0.6,-73.1,-0.2,33.2,-9.1,0.164464248,0.510086367,-0.259590442,0.803308206
709,1778927,570520,0.964,-0.576,0.28,-77.4,-1.1,-70.7,-0.2,33.2,-9.1,0.166570025,0.51023896,-0.260170293,0.802606281
710,1781138,570520,0.921,-0.568,0.277,-78.3,-1.8,-67.6,-0.2,33.2,-9.1,0.168614765,0.510361034,-0.260780663,0.801904355
711,1782790,570520,0.855,-0.575,0.251,-80.2,-3.3,-59.4,-0.9,33.3,-9,0.170537431,0.510452589,-0.261543626,0.801171911
712,1785281,570530,0.831,-0.586,0.24,-80.2,-3.3,-59.4,-0.9,33.3,-9,0.172460097,0.510574664,-0.26227607,0.800469985
713,1786785,570530,0.815,-0.594,0.232,-81.1,-4.5,-56.1,-0.9,33.3,-9,0.174291208,0.510666219,-0.26310007,0.799737541
714,1789332,570530,0.796,-0.601,0.221,-81.6,-6.4,-54.3,-0.9,33.3,-9,0.176122318,0.510757775,-0.263954588,0.798974578
715,1793120,570530,0.796,-0.601,0.221,-81.6,-6.4,-54.3,-0.9,33.3,-9,0.176122318,0.510757775,-0.263954588,0.798974578
716,1795483,570540,0.796,-0.601,0.221,-81.6,-6.4,-54.3,-0.9,33.3,-9,0.176122318,0.510757775,-0.263954588,0.798974578
717,1797781,570540,0.726,-0.576,0.214,-71.4,-20,-53.5,-2.6,33.8,-8.7,0.179296243,0.511642811,-0.265694143,0.797143468
718,1799736,570540,0.726,-0.576,0.214,-71.4,-20,-53.5,-2.6,33.8,-8.7,0.180883206,0.512009033,-0.266396069,0.796288949
719,1801928,570540,0.682,-0.591,0.196,-67.3,-22.8,-52.9,-2.6,33.8,-8.7,0.18243965,0.512466811,-0.267067476,0.795434431
720,1804502,570550,0.682,-0.591,0.196,-67.3,-22.8,-52.9,-2.6,33.8,-8.7,0.18243965,0.512466811,-0.267067476,0.795434431
721,1808248,570550,0.639,-0.606,0.2,-61.7,-23.4,-46.5,-1.1,33.8,-8.4,0.185216834,0.513351848,-0.268349254,0.793786431
722,1810461,570550,0.636,-0.606,0.2,-60.9,-21.3,-43.8,-1.1,33.8,-8.4,0.18652913,0.51371807,-0.268990143,0.793023469
723,1812051,570550,0.636,-0.602,0.2,-60.9,-21.3,-43.8,-1.1,33.8,-8.4,0.187871944,0.514114811,-0.26966155,0.792229987
724,1816054,570560,0.636,-0.602,0.2,-60.9,-21.3,-43.8,-1.1,33.8,-8.4,0.187871944,0.514114811,-0.26966155,0.792229987
725,1818758,570560,0.628,-0.598,0.204,-56.8,-18,-39.9,-1.1,33.8,-8.4,0.189092685,0.514419996,-0.270241401,0.791528062
726,1821077,570560,0.628,-0.63,0.205,-50.7,-17.5,-34.4,-1.1,33.8,-8.4,0.191290017,0.515030366,-0.271401105,0.790215766
727,1823247,570560,0.616,-0.614,0.213,-50.7,-17.5,-34.4,-1.1,33.8,-8.4,0.192358165,0.515305033,-0.271950438,0.789574877
728,1825441,570570,0.616,-0.614,0.213,-50.7,-17.5,-34.4,-1.1,33.8,-8.4,0.192358165,0.515305033,-0.271950438,0.789574877
729,1827724,570570,0.601,-0.606,0.225,-46.4,-17.9,-23.5,-1.1,33.8,-8.4,0.193182165,0.515579699,-0.272560808,0.788995025
730,1829719,570570,0.597,-0.606,0.221,-44.9,-17.9,-17.5,-1.1,33.8,-8.4,0.193884091,0.515793329,-0.273232215,0.788445692
731,1831986,570570,0.639,-0.622,0.208,-41.4,-19.7,-10,-1.1,33.8,-8.4,0.194982757,0.516220588,-0.27457503,0.787408063
732,1834348,570580,0.639,-0.622,0.208,-41.4,-19.7,-10,-1.1,33.8,-8.4,0.194982757,0.516220588,-0.27457503,0.787408063
733,1838072,570580,0.64,-0.595,0.216,-38.3,-22.1,-8.3,-1.1,33.8,-8.4,0.195440535,0.516495254,-0.275246437,0.786919767
734,1840351,570580,0.636,-0.571,0.22,-33.7,-25.2,-6.7,-1.1,33.8,-8.4,0.195776238,0.516830958,-0.275856807,0.786400952
735,1842170,570580,0.648,-0.517,0.224,-22.9,-31.7,-1.1,-1.1,33.8,-8.4,0.196081423,0.517685476,-0.276924955,0.785363323
736,1844493,570590,0.648,-0.517,0.224,-22.9,-31.7,-1.1,-1.1,33.8,-8.4,0.196081423,0.517685476,-0.276924955,0.785363323
737,1846822,570590,0.648,-0.517,0.224,-22.9,-31.7,-1.1,-1.1,33.8,-8.4,0.196081423,0.517685476,-0.276924955,0.785363323
738,1849327,570590,0.671,-0.45,0.235,-15,-38.7,5.6,-2.7,34.2,-7.1,0.195837275,0.518784143,-0.277901547,0.784386731
739,1852850,570590,0.699,-0.431,0.242,-14,-40.5,6.5,-2.7,34.2,-7.1,0.195623646,0.519363994,-0.278389843,0.783867916
740,1855244,570600,0.699,-0.431,0.242,-14,-40.5,6.5,-2.7,34.2,-7.1,0.195410016,0.519974364,-0.27887814,0.783349101
741,1857255,570600,0.699,-0.431,0.242,-14,-40.5,6.5,-2.7,34.2,-7.1,0.195410016,0.519974364,-0.27887814,0.783349101
742,1859442,570600,0.773,-0.417,0.28,-8.9,-46,7.5,-2.7,34.2,-7.1,0.194860683,0.521317179,-0.279763176,0.782219916
743,1862644,570600,0.793,-0.405,0.291,-5.8,-47.1,8.5,-2.7,34.2,-7.1,0.194494461,0.522049623,-0.280159917,0.78173162
744,1865564,570610,0.805,-0.398,0.291,-5.8,-47.1,8.5,-2.7,34.2,-7.1,0.194128239,0.522782067,-0.280556658,0.781182287
745,1867872,570610,0.805,-0.398,0.291,-5.8,-47.1,8.5,-2.7,34.2,-7.1,0.194128239,0.522782067,-0.280556658,0.781182287
746,1870156,570610,0.836,-0.39,0.302,0.8,-47.7,12.4,-2.7,34.3,-7,0.193578906,0.523514512,-0.280892361,0.780693991
747,1872159,570610,0.867,-0.379,0.305,5.1,-46.6,16.8,-2.7,34.3,-7,0.192388684,0.5249794,-0.281502731,0.779808954
748,1874412,570620,0.879,-0.375,0.309,5.1,-46.6,16.8,-2.7,34.3,-7,0.191747795,0.525681326,-0.281807917,0.779381695
749,1876835,570620,0.879,-0.375,0.309,5.1,-46.6,16.8,-2.7,34.3,-7,0.191747795,0.525681326,-0.281807917,0.779381695
750,1879330,570620,0.887,-0.368,0.297,5.9,-44.6,20.8,-2.5,34.1,-6.7,0.191045869,0.526322214,-0.28214362,0.778984954
751,1882956,570620,0.895,-0.364,0.297,5.4,-43.4,22.7,-2.5,34.1,-6.7,0.190343944,0.526963103,-0.282479324,0.778618732
752,1885246,570630,0.902,-0.372,0.289,3.8,-41.6,26.5,-2.5,34.1,-6.7,0.188848537,0.528092288,-0.283272805,0.777916807
753,1886745,570630,0.902,-0.372,0.289,3.8,-41.6,26.5,-2.5,34.1,-6.7,0.188848537,0.528092288,-0.283272805,0.777916807
754,1891367,570630,0.914,-0.368,0.285,2.9,-41.1,28.2,-2.6,34.4,-8,0.188085574,0.528641621,-0.283730583,0.777581103
755,1893704,570630,0.906,-0.364,0.285,2.1,-40.8,29.7,-2.6,34.4,-8,0.187292093,0.529160436,-0.28418836,0.777245399
756,1895801,570640,0.914,-0.368,0.293,1.6,-40.4,31,-2.6,34.4,-8,0.186498611,0.529648732,-0.284676656,0.776909696
757,1898069,570640,0.93,-0.372,0.3,1.4,-40.1,32.1,-2.6,34.4,-8,0.18570513,0.530137028,-0.285195471,0.776573992
758,1900286,570640,0.93,-0.372,0.3,1.4,-40.1,32.1,-2.6,34.4,-8,0.18570513,0.530137028,-0.285195471,0.776573992
759,1902649,570640,0.926,-0.38,0.304,1.5,-39.2,34,-2.6,34.5,-6.2,0.184728538,0.530564287,-0.285897397,0.776268807
760,1905772,570650,0.938,-0.369,0.308,1.6,-38.5,34.8,-2.6,34.5,-6.2,0.18387402,0.531022065,-0.286416211,0.775963622
761,1908088,570650,0.961,-0.357,0.319,2.1,-37.9,35.5,-2.6,34.5,-6.2,0.183019501,0.531449324,-0.286935026,0.775688955
762,1910258,570650,0.969,-0.369,0.319,2.9,-37.5,35.9,-2.6,34.5,-6.2,0.182134465,0.531876583,-0.287453841,0.775414289
763,1912596,570650,0.969,-0.373,0.311,4.6,-37.4,36.3,-2.4,34.6,-5.8,0.181249428,0.532303842,-0.287942137,0.775139622
764,1915716,570660,0.973,-0.377,0.315,4.6,-37.4,36.3,-2.4,34.6,-5.8,0.180333872,0.532700583,-0.288430433,0.774895474
765,1917948,570660,0.981,-0.381,0.315,5.6,-37.2,36.6,-2.4,34.6,-5.8,0.179418317,0.533127842,-0.288918729,0.774620808
766,1920158,570660,1.012,-0.366,0.318,7.2,-37.2,37,-2.4,34.6,-5.8,0.178472243,0.533555101,-0.289376507,0.774376659
767,1923190,570660,1.039,-0.409,0.31,13.8,-37.9,38.2,-2.4,34.4,-5.3,0.177434614,0.534012879,-0.289742729,0.77416303
768,1925448,570670,1.055,-0.382,0.317,13.8,-37.9,38.2,-2.4,34.4,-5.3,0.176366466,0.534470656,-0.290078433,0.773979919
769,1927639,570670,1.071,-0.367,0.325,19.1,-37.8,40.4,-2.4,34.4,-5.3,0.175237281,0.534928434,-0.290383618,0.773796808
770,1930631,570670,1.063,-0.316,0.341,25.3,-37.1,44.1,-2.4,34.4,-5.3,0.173955504,0.535355693,-0.290597247,0.773705252
771,1931970,570670,1.063,-0.316,0.341,25.3,-37.1,44.1,-2.4,34.4,-5.3,0.173955504,0.535355693,-0.290597247,0.773705252
772,1935207,570680,1.075,-0.265,0.348,37.9,-32,54.3,-2.3,34.4,-5.3,0.170873135,0.536088137,-0.290871914,0.773796808
773,1938177,570680,1.063,-0.261,0.341,37.9,-32,54.3,-2.3,34.4,-5.3,0.169316691,0.536423841,-0.290963469,0.773857845
774,1939525,570680,1.04,-0.261,0.337,37.7,-29.7,54.7,-2.3,34.4,-5.3,0.167760247,0.536729026,-0.291085543,0.7739494
775,1942662,570680,1.04,-0.261,0.337,37.7,-29.7,54.7,-2.3,34.4,-5.3,0.167760247,0.536729026,-0.291085543,0.7739494
776,1944706,570690,1.036,-0.253,0.325,33.8,-25,51.3,-2.1,34.3,-9.4,0.166325877,0.536942656,-0.291207617,0.774071474
777,1947877,570690,1.016,-0.249,0.31,31,-22.5,44.5,-2.1,34.3,-9.4,0.163731803,0.537339396,-0.291390728,0.774254585
778,1949366,570690,0.973,-0.287,0.291,31,-22.5,44.5,-2.1,34.3,-9.4,0.162480544,0.537553026,-0.291482284,0.774346141
779,1952210,570690,0.973,-0.287,0.291,31,-22.5,44.5,-2.1,34.3,-9.4,0.162480544,0.537553026,-0.291482284,0.774346141
780,1954628,570700,0.973,-0.287,0.291,31,-22.5,44.5,-2.1,34.3,-9.4,0.162480544,0.537553026,-0.291482284,0.774346141
781,1956969,570700,0.957,-0.307,0.272,35.2,-24.7,33.7,-1.7,34.3,-7.2,0.161412397,0.53788873,-0.291238136,0.774407178
782,1960143,570700,0.973,-0.28,0.268,39.8,-27.1,31.6,-1.7,34.3,-7.2,0.160252693,0.53828547,-0.291024506,0.774468215
783,1963465,570700,1.016,-0.265,0.271,48.6,-31.8,29.5,-1.7,34.3,-7.2,0.157750175,0.539262062,-0.290383618,0.774559771
784,1965579,570710,1.016,-0.265,0.271,48.6,-31.8,29.5,-1.7,34.3,-7.2,0.157750175,0.539262062,-0.290383618,0.774559771
785,1967872,570710,1.032,-0.249,0.275,50.9,-32.8,29.7,-1.7,34,-7.3,0.15643788,0.539811396,-0.289986877,0.774590289
786,1970166,570710,1.024,-0.253,0.279,51.3,-32.2,30.6,-1.7,34,-7.3,0.155095065,0.54033021,-0.289590136,0.774620808
787,1971743,570710,1.028,-0.253,0.275,46.4,-26.3,31.7,-1.7,34,-7.3,0.15253151,0.541215247,-0.288888211,0.774803919
788,1975549,570720,1.028,-0.253,0.275,46.4,-26.3,31.7,-1.7,34,-7.3,0.15253151,0.541215247,-0.288888211,0.774803919
789,1977721,570720,1.032,-0.249,0.279,42.2,-22.1,30.9,-1.7,34,-7.3,0.151371807,0.541550951,-0.288613544,0.774895474
790,1980765,570720,1.012,-0.268,0.271,37.9,-18.1,29.5,-1.7,34,-7.3,0.150334178,0.541795099,-0.288399915,0.775017548
791,1983034,570720,0.985,-0.276,0.26,33.8,-14.4,28.2,-1.7,34,-7.3,0.149357585,0.54197821,-0.288186285,0.775139622
792,1985276,570730,0.988,-0.284,0.26,30.5,-11.4,27.3,-1.7,34,-7.3,0.148472549,0.542069765,-0.288033692,0.775292215
793,1987670,570730,0.988,-0.28,0.252,28.1,-9.2,26.8,-1.7,34,-7.3,0.14761803,0.542161321,-0.287911618,0.775444807
794,1989606,570730,0.973,-0.284,0.248,26.5,-7.8,26.6,-1.7,34,-7.3,0.146794031,0.542222358,-0.287789544,0.7755974
795,1993011,570730,0.961,-0.283,0.241,25.3,-7.1,26.4,-1.7,34,-7.3,0.146000549,0.542252876,-0.287697989,0.775780511
796,1995240,570740,0.953,-0.299,0.233,24.1,-6.6,25.7,-1.7,34,-7.3,0.145237587,0.542283395,-0.287636952,0.775933103
797,1996760,570740,0.945,-0.295,0.241,22.9,-6.4,25.1,-2,34.5,-8.5,0.144505142,0.542313913,-0.287545396,0.776085696
798,2000485,570740,0.945,-0.295,0.241,21.8,-6.3,24.5,-2,34.5,-8.5,0.143772698,0.542313913,-0.287484359,0.77620777
799,2002704,570740,0.918,-0.306,0.23,20.7,-5.9,24,-2,34.5,-8.5,0.143101291,0.542344432,-0.287453841,0.776360363
800,2004208,570750,0.918,-0.306,0.226,19.6,-5.4,23.5,-2,34.5,-8.5,0.142429884,0.542344432,-0.287423322,0.776482437
801,2007019,570750,0.918,-0.306,0.226,19.6,-5.4,23.5,-2,34.5,-8.5,0.142429884,0.542344432,-0.287423322,0.776482437
802,2010182,570750,0.918,-0.306,0.226,19.6,-5.4,23.5,-2,34.5,-8.5,0.142429884,0.542344432,-0.287423322,0.776482437
803,2012908,570750,0.957,-0.264,0.249,19,-5,22.7,-1.6,34.4,-9.1,0.141148106,0.542405469,-0.287362285,0.776665548
804,2014346,570760,0.957,-0.26,0.249,19,-5,22.7,-1.6,34.4,-9.1,0.140507218,0.542405469,-0.287331767,0.77681814
805,2017187,570760,0.965,-0.252,0.252,17.9,-4.2,22.9,-1.6,34.4,-9.1,0.139866329,0.542405469,-0.287301248,0.776940214
806,2020413,570760,0.965,-0.252,0.252,17.9,-4.2,22.9,-1.6,34.4,-9.1,0.139866329,0.542405469,-0.287301248,0.776940214
807,2021829,570760,0.934,-0.252,0.257,10.4,2.7,22.8,-1.6,34.1,-9,0.1388287,0.542130802,-0.287453841,0.777245399
808,2024990,570770,0.93,-0.259,0.257,10.4,2.7,22.8,-1.6,34.1,-9,0.138340403,0.54197821,-0.287514878,0.77742851
809,2027833,570770,0.93,-0.271,0.257,7.8,5.7,22.2,-1.6,34.1,-9,0.137913144,0.54176458,-0.287636952,0.777611621
810,2029259,570770,0.93,-0.271,0.257,7.8,5.7,22.2,-1.6,34.1,-9,0.137913144,0.54176458,-0.287636952,0.777611621
811,2032517,570770,0.938,-0.263,0.253,4.6,9.6,20.5,-1.4,34.4,-9.3,0.137546922,0.541489914,-0.287759026,0.777825251
812,2034506,570780,0.934,-0.263,0.261,4.5,10.2,19.7,-1.4,34.4,-9.3,0.137241737,0.541215247,-0.287911618,0.778038881
813,2037667,570780,0.934,-0.252,0.261,5.6,10.1,18.4,-1.4,34.4,-9.3,0.136600848,0.540665914,-0.288094729,0.778435621
814,2039244,570780,0.934,-0.252,0.261,5.6,10.1,18.4,-1.4,34.4,-9.3,0.136600848,0.540665914,-0.288094729,0.778435621
815,2042939,570780,0.938,-0.24,0.269,5.9,10.1,18,-1,34.1,-7.8,0.136295663,0.540391247,-0.288186285,0.778649251
816,2044333,570790,0.938,-0.236,0.268,5.8,10.1,17.6,-1,34.1,-7.8,0.13595996,0.540116581,-0.288247322,0.77886288
817,2047342,570790,0.938,-0.232,0.265,5,10.3,17.1,-1,34.1,-7.8,0.135685293,0.539841914,-0.288338878,0.77907651
818,2049482,570790,0.938,-0.228,0.265,3.7,10.6,16.4,-1,34.1,-7.8,0.135441145,0.539567248,-0.288430433,0.779259621
819,2052681,570790,0.942,-0.228,0.261,2.3,11.1,15.7,-1.2,33.7,-9.4,0.135227515,0.539292581,-0.288552507,0.779473251
820,2055748,570800,0.938,-0.232,0.265,1.1,11.5,14.9,-1.2,33.7,-9.4,0.134983367,0.539017914,-0.288674581,0.779656362
821,2058073,570800,0.934,-0.232,0.261,0.2,11.7,14,-1.2,33.7,-9.4,0.134861293,0.538712729,-0.288796655,0.779839473
822,2060303,570800,0.934,-0.24,0.257,-0.4,11.8,13,-1.2,33.7,-9.4,0.134708701,0.538438063,-0.288918729,0.779992065
823,2062461,570800,0.934,-0.24,0.257,-0.4,11.8,13,-1.2,33.7,-9.4,0.134708701,0.538438063,-0.288918729,0.779992065
824,2064521,570810,0.934,-0.252,0.257,-1,12.4,10.2,-1.1,33.3,-9.4,0.135227515,0.538468581,-0.288308359,0.780114139
825,2066807,570810,0.934,-0.255,0.257,-1,12.4,10.2,-1.1,33.3,-9.4,0.13513596,0.538193915,-0.288399915,0.78029725
826,2070481,570810,0.93,-0.255,0.257,-1,12.6,9.4,-1.1,33.3,-9.4,0.135074923,0.537919248,-0.28849147,0.780449843
827,2072605,570810,0.93,-0.252,0.253,-1.1,12.9,8.7,-1.1,33.3,-9.4,0.134983367,0.537644581,-0.288583026,0.780632954
828,2075514,570820,0.93,-0.252,0.253,-1.1,12.9,8.7,-1.1,33.3,-9.4,0.134983367,0.537644581,-0.288583026,0.780632954
829,2076921,570820,0.93,-0.267,0.249,-1.5,12.9,6.6,-1,33,-9.7,0.134983367,0.537095248,-0.2887051,0.780968657
830,2080163,570820,0.93,-0.267,0.249,-1.5,12.9,6.6,-1,33,-9.7,0.134983367,0.536820582,-0.288796655,0.78112125
831,2082969,570820,0.934,-0.271,0.257,-1.5,12.8,6,-1,33,-9.7,0.134952849,0.536576434,-0.288857692,0.781273843
832,2084326,570830,0.934,-0.271,0.257,-1.5,12.8,6,-1,33,-9.7,0.134952849,0.536576434,-0.288857692,0.781273843
833,2087581,570830,0.93,-0.283,0.261,-2,12.7,4.4,-0.8,32.4,-9.2,0.134983367,0.536057619,-0.288949248,0.781579028
834,2089587,570830,0.93,-0.283,0.261,-2,12.7,4.4,-0.8,32.4,-9.2,0.135044404,0.535813471,-0.289010285,0.78173162
835,2092666,570830,0.926,-0.283,0.265,-2.1,12.4,3.8,-0.8,32.4,-9.2,0.135074923,0.535569323,-0.289040803,0.781884213
836,2095677,570840,0.926,-0.283,0.265,-2.1,12.4,3.8,-0.8,32.4,-9.2,0.135074923,0.535569323,-0.289040803,0.781884213
837,2097021,570840,0.922,-0.283,0.273,-2.5,11.3,2.7,-0.4,34.9,-7.4,0.13513596,0.535355693,-0.289071322,0.782006287
838,2100134,570840,0.918,-0.294,0.273,-3.3,10.5,1.5,-0.4,34.9,-7.4,0.135288553,0.534928434,-0.289162877,0.782219916
839,2103019,570840,0.918,-0.294,0.273,-3.3,10.5,1.5,-0.4,34.9,-7.4,0.13534959,0.534745323,-0.289223914,0.782311472
840,2104583,570850,0.918,-0.294,0.273,-3.3,10.5,1.5,-0.4,34.9,-7.4,0.13534959,0.534745323,-0.289223914,0.782311472
841,2106846,570850,0.907,-0.294,0.277,-4.1,10.2,0.5,-0.9,33.8,-9.7,0.135471664,0.534562212,-0.289254433,0.782433546
842,2110057,570850,0.906,-0.294,0.273,-4.6,10.1,0,-0.9,33.8,-9.7,0.135563219,0.534348582,-0.28931547,0.782494583
843,2111981,570850,0.899,-0.298,0.269,-5.5,10.1,-0.5,-0.9,33.8,-9.7,0.135837886,0.53398236,-0.289437544,0.782677694
844,2115159,570860,0.899,-0.298,0.269,-5.5,10.1,-0.5,-0.9,33.8,-9.7,0.135837886,0.53398236,-0.289437544,0.782677694
845,2118288,570860,0.899,-0.298,0.269,-5.5,10.1,-0.5,-0.9,33.8,-9.7,0.135837886,0.53398236,-0.289437544,0.782677694
846,2120613,570860,0.891,-0.302,0.277,-6,10,-1.2,-0.5,33.5,-10,0.136112552,0.533738212,-0.289284951,0.782860805
847,2122751,570860,0.879,-0.301,0.278,-6,10,-1.5,-0.5,33.5,-10,0.136265145,0.533555101,-0.289345988,0.782921842
848,2124803,570870,0.879,-0.305,0.278,-5.9,10,-1.8,-0.5,33.5,-10,0.136448256,0.53337199,-0.289407025,0.783013398
849,2127014,570870,0.871,-0.305,0.274,-5.8,9.8,-2.2,-0.5,33.5,-10,0.136600848,0.533188879,-0.289437544,0.783074435
850,2129343,570870,0.864,-0.305,0.278,-5.5,9.7,-2.6,-0.8,34.1,-9.9,0.136783959,0.533036287,-0.289468062,0.783135472
851,2132548,570870,0.863,-0.309,0.27,-5.2,9.2,-2.9,-0.8,34.1,-9.9,0.136936552,0.532883694,-0.289498581,0.783196509
852,2135742,570880,0.864,-0.309,0.278,-4.9,8.7,-3.1,-0.8,34.1,-9.9,0.137119663,0.532731101,-0.289529099,0.783257546
853,2138168,570880,0.863,-0.309,0.27,-4.8,8.2,-3.2,-0.8,34.1,-9.9,0.137272256,0.532609027,-0.289529099,0.783318583
854,2140382,570880,0.86,-0.313,0.274,-4.7,7.6,-3.5,-0.8,34.5,-8.5,0.137455367,0.532486953,-0.289529099,0.78337962
855,2141929,570880,0.863,-0.317,0.274,-4.5,7.2,-3.8,-0.8,34.5,-8.5,0.137607959,0.532364879,-0.289590136,0.783410138
856,2145037,570890,0.863,-0.309,0.274,-4.1,6.5,-4,-0.8,34.5,-8.5,0.137760552,0.532273324,-0.289590136,0.783440657
857,2147101,570890,0.863,-0.305,0.27,-3.6,5.9,-4.1,-0.8,34.5,-8.5,0.137913144,0.532181768,-0.289590136,0.783501694
858,2149442,570890,0.863,-0.305,0.27,-3,5.1,-4.1,-0.6,34.5,-8.4,0.138065737,0.532120731,-0.289529099,0.783501694
859,2152654,570890,0.863,-0.301,0.27,-2.4,4.4,-4.1,-0.6,34.5,-8.4,0.138187811,0.532059694,-0.289529099,0.783532212
860,2155007,570900,0.867,-0.305,0.266,-1.8,3.6,-4.1,-0.6,34.5,-8.4,0.138309885,0.531998657,-0.289529099,0.783562731
861,2157064,570900,0.867,-0.301,0.278,-1.4,3,-3.9,-0.6,34.5,-8.4,0.13840144,0.531968139,-0.289498581,0.783562731
862,2160292,570900,0.871,-0.293,0.27,-1.2,2.5,-3.9,-0.5,34.8,-8.2,0.138523515,0.531968139,-0.289468062,0.783593249
863,2161823,570900,0.875,-0.293,0.27,-1.1,2,-3.8,-0.5,34.8,-8.2,0.13861507,0.53193762,-0.289437544,0.783593249
864,2165615,570910,0.875,-0.293,0.27,-1,1.4,-3.7,-0.5,34.8,-8.2,0.138676107,0.53193762,-0.289407025,0.783593249
865,2167881,570910,0.879,-0.286,0.27,-1,1,-3.6,-0.5,34.8,-8.2,0.138767663,0.53193762,-0.289376507,0.783593249
866,2170192,570910,0.879,-0.286,0.27,-1,1,-3.6,-0.5,34.8,-8.2,0.138767663,0.53193762,-0.289376507,0.783593249
867,2172215,570910,0.879,-0.286,0.27,-1,1,-3.6,-0.5,34.8,-8.2,0.138767663,0.53193762,-0.289376507,0.783593249
868,2174465,570920,0.887,-0.29,0.27,-0.8,-0.2,-3.3,-0.9,34.6,-8.8,0.138889737,0.53193762,-0.289254433,0.783593249
869,2177705,570920,0.883,-0.282,0.274,-0.7,-0.6,-3.1,-0.9,34.6,-8.8,0.138981292,0.531968139,-0.289254433,0.783562731
870,2179683,570920,0.883,-0.282,0.274,-0.5,-1.1,-2.9,-0.9,34.6,-8.8,0.139042329,0.531998657,-0.289223914,0.783562731
871,2181981,570920,0.883,-0.282,0.274,-0.5,-1.1,-2.9,-0.9,34.6,-8.8,0.139042329,0.531998657,-0.289223914,0.783562731
872,2185286,570930,0.887,-0.278,0.273,-0.2,-1.9,-2.6,-1.1,34.7,-8.4,0.139072848,0.532029176,-0.289193396,0.783532212
873,2186799,570930,0.891,-0.282,0.269,-0.5,-2.5,-2.5,-1.1,34.7,-8.4,0.139133885,0.53215125,-0.289162877,0.783440657
874,2190179,570930,0.891,-0.278,0.277,-0.5,-2.5,-2.5,-1.1,34.7,-8.4,0.139194922,0.532212287,-0.289162877,0.783410138
875,2192089,570930,0.891,-0.278,0.277,-0.5,-2.5,-2.5,-1.1,34.7,-8.4,0.139194922,0.532212287,-0.289162877,0.783410138
876,2195652,570940,0.891,-0.282,0.273,-1,-3.1,-2.4,-0.9,33.3,-8.7,0.13922544,0.532273324,-0.289162877,0.783349101
877,2198001,570940,0.891,-0.286,0.266,-1.1,-3.4,-2.4,-0.9,33.3,-8.7,0.139255959,0.532334361,-0.289162877,0.783288064
878,2200211,570940,0.891,-0.294,0.269,-1.1,-3.8,-2.3,-0.9,33.3,-8.7,0.139316996,0.532486953,-0.289162877,0.78316599
879,2202214,570940,0.891,-0.294,0.269,-1.1,-3.8,-2.3,-0.9,33.3,-8.7,0.139316996,0.532486953,-0.289162877,0.78316599
880,2204465,570950,0.887,-0.294,0.273,-0.9,-4.3,-2.2,-1.1,34.3,-8.5,0.139316996,0.532578509,-0.289162877,0.783104953
881,2206771,570950,0.891,-0.298,0.273,-0.7,-4.6,-2.1,-1.1,34.3,-8.5,0.139347514,0.532670064,-0.289162877,0.783043916
882,2209348,570950,0.891,-0.298,0.269,-0.5,-4.9,-2.1,-1.1,34.3,-8.5,0.139378033,0.532883694,-0.289162877,0.782921842
883,2212900,570950,0.891,-0.298,0.269,-0.5,-4.9,-2.1,-1.1,34.3,-8.5,0.139378033,0.532883694,-0.289162877,0.782921842
884,2215177,570960,0.887,-0.301,0.273,-0.2,-5.5,-1.9,-1.4,34.2,-9.1,0.139378033,0.532975249,-0.289162877,0.782830287
885,2216804,570960,0.891,-0.302,0.273,-0.1,-5.7,-2,-1.4,34.2,-9.1,0.139378033,0.533097324,-0.289162877,0.78276925
886,2220175,570960,0.891,-0.302,0.273,0,-5.9,-2,-1.4,34.2,-9.1,0.139378033,0.533188879,-0.289162877,0.782677694
887,2222172,570960,0.887,-0.301,0.273,0,-6.1,-2,-1.4,34.2,-9.1,0.139378033,0.533310953,-0.289162877,0.782616657
888,2225836,570970,0.887,-0.301,0.273,0,-6.1,-2,-1.4,34.2,-9.1,0.139378033,0.533310953,-0.289162877,0.782616657
889,2228090,570970,0.891,-0.309,0.277,0.4,-6.4,-1.7,-2,34.4,-8.9,0.139347514,0.533280435,-0.28910184,0.782677694
890,2229606,570970,0.891,-0.309,0.277,0.7,-6.4,-1.6,-2,34.4,-8.9,0.139316996,0.533402509,-0.28910184,0.782586138
891,2232021,570970,0.891,-0.313,0.277,0.9,-6.5,-1.5,-2,34.4,-8.9,0.139286477,0.533524583,-0.289071322,0.782525101
892,2234286,570980,0.891,-0.313,0.277,1.1,-6.8,-1.4,-2,34.4,-8.9,0.139255959,0.533646657,-0.289071322,0.782433546
893,2238205,570980,0.895,-0.309,0.285,1.2,-7.2,-1.4,-2.3,34.5,-8.7,0.13922544,0.533768731,-0.289040803,0.782372509
894,2240727,570980,0.899,-0.309,0.289,1.2,-7.5,-1.3,-2.3,34.5,-8.7,0.139164403,0.533921323,-0.289040803,0.782280953
895,2243063,570980,0.899,-0.317,0.285,1.3,-7.9,-1.3,-2.3,34.5,-8.7,0.139133885,0.534073916,-0.289010285,0.782189398
896,2244671,570990,0.895,-0.317,0.281,1.5,-8.2,-1.3,-2.3,34.5,-8.7,0.139072848,0.534226508,-0.289010285,0.782097842
897,2247013,570990,0.899,-0.317,0.285,1.6,-8.4,-1.1,-0.4,33.4,-8.5,0.139042329,0.534379101,-0.288979766,0.782006287
898,2249407,570990,0.899,-0.317,0.289,1.8,-8.5,-1,-0.4,33.4,-8.5,0.138981292,0.534531693,-0.288979766,0.781914731
899,2251802,570990,0.899,-0.325,0.285,1.8,-8.7,-0.8,-0.4,33.4,-8.5,0.138889737,0.534714805,-0.288949248,0.781823176
900,2255460,571000,0.903,-0.317,0.289,1.8,-8.9,-0.7,-0.4,33.4,-8.5,0.138859218,0.534867397,-0.288949248,0.78173162
901,2257811,571000,0.903,-0.317,0.289,1.8,-8.9,-0.7,-0.4,33.4,-8.5,0.138859218,0.534867397,-0.288949248,0.78173162
902,2259798,571000,0.91,-0.317,0.289,1.7,-9.2,-0.4,-0.4,33.4,-8.5,0.138706626,0.535203101,-0.288918729,0.781517991
903,2263570,571000,0.91,-0.321,0.297,1.6,-9,0,-0.4,33.4,-8.5,0.138645589,0.535355693,-0.288918729,0.781426435
904,2265942,571010,0.91,-0.321,0.297,1.6,-8.9,0.3,-0.4,33.4,-8.5,0.138554033,0.535508286,-0.288949248,0.78133488
905,2268156,571010,0.91,-0.321,0.297,1.6,-8.9,0.3,-0.4,33.4,-8.5,0.138554033,0.535508286,-0.288949248,0.78133488
906,2270402,571010,0.914,-0.314,0.296,1.6,-8.7,1,-2.3,34.7,-8.6,0.138462477,0.535660878,-0.288949248,0.781243324
907,2272533,571010,0.918,-0.318,0.293,1.7,-8.5,1.4,-2.3,34.7,-8.6,0.138279366,0.535935545,-0.288979766,0.781090732
908,2275573,571020,0.918,-0.314,0.292,1.9,-8.4,1.8,-2.3,34.7,-8.6,0.138157292,0.536088137,-0.288979766,0.780999176
909,2277818,571020,0.918,-0.314,0.292,1.9,-8.4,1.8,-2.3,34.7,-8.6,0.138157292,0.536088137,-0.288979766,0.780999176
910,2280900,571020,0.918,-0.314,0.292,1.9,-8.4,1.8,-2.3,34.7,-8.6,0.138157292,0.536088137,-0.288979766,0.780999176
911,2283030,571020,0.922,-0.306,0.3,2.5,-8.1,2.3,-1.9,34.6,-9,0.138035218,0.5360271,-0.288949248,0.781090732
912,2285365,571030,0.922,-0.302,0.296,3,-7.9,2.5,-1.9,34.6,-9,0.137882626,0.536118656,-0.288949248,0.781029695
913,2288352,571030,0.934,-0.31,0.3,3.5,-7.7,2.6,-1.9,34.6,-9,0.137607959,0.536393323,-0.288918729,0.78090762
914,2290621,571030,0.934,-0.31,0.3,3.5,-7.7,2.6,-1.9,34.6,-9,0.137607959,0.536393323,-0.288918729,0.78090762
915,2292785,571030,0.93,-0.302,0.3,4.4,-7.7,2.9,-0.5,33.7,-8.8,0.137485885,0.536515397,-0.288918729,0.780846583
916,2294219,571040,0.93,-0.302,0.296,5.1,-7.8,3,-0.5,33.7,-8.8,0.137302774,0.536667989,-0.288888211,0.780785546
917,2297124,571040,0.934,-0.302,0.3,5.7,-7.9,3.2,-0.5,33.7,-8.8,0.137150182,0.536790063,-0.288857692,0.780755028
918,2300151,571040,0.938,-0.302,0.292,6.3,-8.1,3.3,-0.5,33.7,-8.8,0.136936552,0.536912137,-0.288796655,0.780693991
919,2303148,571040,0.938,-0.298,0.296,6.9,-8,3.3,-1.8,33.8,-8.6,0.136753441,0.53706473,-0.288766137,0.780663472
920,2304498,571050,0.938,-0.298,0.296,7.4,-7.8,3.4,-1.8,33.8,-8.6,0.13657033,0.537186804,-0.288674581,0.780632954
921,2307636,571050,0.942,-0.298,0.3,8,-7.5,3.6,-1.8,33.8,-8.6,0.1363567,0.537339396,-0.288613544,0.780602435
922,2310789,571050,0.938,-0.294,0.3,8.7,-7.3,3.8,-1.8,33.8,-8.6,0.136143071,0.53746147,-0.288521989,0.780571917
923,2313032,571050,0.938,-0.29,0.296,9.1,-7.2,4.1,-1.6,33.9,-8.7,0.135929441,0.537583544,-0.288460952,0.780571917
924,2315152,571060,0.946,-0.295,0.296,9.6,-7,4.3,-1.6,33.9,-8.7,0.135685293,0.537705618,-0.288338878,0.780541398
925,2316748,571060,0.938,-0.294,0.296,10.1,-6.7,4.5,-1.6,33.9,-8.7,0.135471664,0.537827692,-0.288247322,0.780541398
926,2321237,571060,0.938,-0.29,0.296,10.4,-6.4,4.6,-1.6,33.9,-8.7,0.135227515,0.537919248,-0.288155766,0.780541398
927,2323621,571060,0.938,-0.29,0.296,10.4,-6.4,4.6,-1.6,33.9,-8.7,0.135227515,0.537919248,-0.288155766,0.780541398
928,2326069,571070,0.942,-0.283,0.296,11,-5.9,4.9,-0.9,34.6,-8.9,0.134708701,0.538132878,-0.287942137,0.780571917
929,2328227,571070,0.942,-0.291,0.296,11.2,-5.5,5.2,-0.9,34.6,-8.9,0.134464553,0.538224433,-0.287820063,0.780602435
930,2330253,571070,0.946,-0.287,0.296,11.5,-5.1,5.3,-0.9,34.6,-8.9,0.134189886,0.538315989,-0.287697989,0.780632954
931,2332552,571070,0.946,-0.287,0.296,11.5,-5.1,5.3,-0.9,34.6,-8.9,0.134189886,0.538315989,-0.287697989,0.780632954
932,2334620,571080,0.946,-0.287,0.296,11.5,-5.1,5.3,-0.9,34.6,-8.9,0.134189886,0.538315989,-0.287697989,0.780632954
933,2336888,571080,0.938,-0.283,0.288,12,-4.5,6.1,-0.7,34,-8.6,0.134189886,0.538224433,-0.287179174,0.780877102
934,2339319,571080,0.942,-0.279,0.292,12.1,-4.3,6.2,-0.7,34,-8.6,0.13391522,0.53828547,-0.2870571,0.780938139
935,2342555,571080,0.946,-0.275,0.288,12.1,-4.3,6.3,-0.7,34,-8.6,0.133335368,0.538438063,-0.286812952,0.781029695
936,2344508,571090,0.946,-0.275,0.288,12.1,-4.3,6.3,-0.7,34,-8.6,0.133335368,0.538438063,-0.286812952,0.781029695
937,2346720,571090,0.938,-0.271,0.28,12.1,-3.9,6.6,-1.2,33.9,-9.1,0.133030183,0.5384991,-0.286690878,0.781060213
938,2349657,571090,0.942,-0.271,0.28,12,-3.7,6.7,-1.2,33.9,-9.1,0.132786035,0.538560137,-0.286568804,0.78112125
939,2351952,571090,0.938,-0.259,0.276,11.8,-3.3,6.9,-1.2,33.9,-9.1,0.132236702,0.538651692,-0.286355174,0.781212806
940,2355107,571100,0.938,-0.259,0.276,11.8,-3.3,6.9,-1.2,33.9,-9.1,0.132236702,0.538651692,-0.286355174,0.781212806
941,2358099,571100,0.938,-0.259,0.276,11.7,-2.6,7.3,-0.2,34.2,-9,0.131962035,0.538682211,-0.286263619,0.781273843
942,2360420,571100,0.938,-0.259,0.276,11.6,-2.4,7.5,-0.2,34.2,-9,0.13165685,0.538712729,-0.286141545,0.781365398
943,2362721,571100,0.942,-0.252,0.276,11.5,-2.2,7.5,-0.2,34.2,-9,0.131382183,0.538743248,-0.286049989,0.781426435
944,2365565,571110,0.942,-0.256,0.272,11.5,-2.2,7.5,-0.2,34.2,-9,0.131076998,0.538773766,-0.285958434,0.781487472
945,2367047,571110,0.942,-0.256,0.272,11.2,-1.5,7.6,-0.1,34.1,-9.1,0.13083285,0.538773766,-0.28583636,0.781548509
946,2369432,571110,0.942,-0.255,0.276,11.1,-1.2,7.7,-0.1,34.1,-9.1,0.130558184,0.538773766,-0.285744804,0.781640065
947,2372426,571110,0.938,-0.252,0.272,11.1,-1.1,7.7,-0.1,34.1,-9.1,0.130283517,0.538773766,-0.28562273,0.78173162
948,2375479,571120,0.938,-0.255,0.276,11,-1,7.7,-0.1,34.1,-9.1,0.130039369,0.538773766,-0.285561693,0.781792657
949,2377686,571120,0.938,-0.252,0.276,10.8,-0.8,7.6,-0.2,33.7,-9.1,0.129764702,0.538773766,-0.285470138,0.781884213
950,2380679,571120,0.938,-0.252,0.276,10.6,-0.6,7.5,-0.2,33.7,-9.1,0.129490036,0.538773766,-0.285378582,0.78194525
951,2382124,571120,0.938,-0.244,0.272,10.4,-0.4,7.4,-0.2,33.7,-9.1,0.129245888,0.538773766,-0.285287027,0.782036805
952,2384449,571130,0.922,-0.247,0.273,10.3,-0.2,7.3,-0.2,33.7,-9.1,0.12900174,0.538773766,-0.285195471,0.782128361
953,2387992,571130,0.922,-0.247,0.273,10.3,-0.2,7.3,-0.2,33.7,-9.1,0.12900174,0.538773766,-0.285195471,0.782128361
954,2389617,571130,0.922,-0.247,0.273,10.3,-0.2,7.3,-0.2,33.7,-9.1,0.12900174,0.538773766,-0.285195471,0.782128361
955,2391849,571130,0.922,-0.251,0.281,9.5,0.2,7.3,-0.5,33.8,-9.1,0.128971221,0.538865322,-0.284463027,0.782311472
956,2394487,571140,0.918,-0.251,0.277,9,0.4,7.2,-0.5,33.8,-9.1,0.128757591,0.538834803,-0.28440199,0.782403027
957,2398683,571140,0.918,-0.251,0.277,8.4,0.7,7,-0.5,33.8,-9.1,0.128543962,0.538804285,-0.284340953,0.782464064
958,2400298,571140,0.918,-0.251,0.277,8.4,0.7,7,-0.5,33.8,-9.1,0.128543962,0.538804285,-0.284340953,0.782464064
959,2402224,571140,0.914,-0.247,0.277,7.3,0.9,6.8,0.3,33.7,-9,0.128330332,0.538773766,-0.284279916,0.78255562
960,2404481,571150,0.918,-0.251,0.281,6.8,1,6.7,0.3,33.7,-9,0.12796411,0.538682211,-0.28418836,0.782708213
961,2407922,571150,0.911,-0.251,0.281,6.3,1,6.7,0.3,33.7,-9,0.127780999,0.538651692,-0.284157842,0.78276925
962,2410243,571150,0.911,-0.251,0.281,6.3,1,6.7,0.3,33.7,-9,0.127780999,0.538651692,-0.284157842,0.78276925
963,2412284,571150,0.914,-0.247,0.281,5.4,1.1,6.7,0.2,33.7,-9.5,0.127597888,0.538590655,-0.284157842,0.782830287
964,2414586,571160,0.918,-0.247,0.277,5.4,1.1,6.7,0.2,33.7,-9.5,0.127414777,0.538560137,-0.284127323,0.782891324
965,2416984,571160,0.911,-0.251,0.281,4.5,1.4,6.5,0.2,33.7,-9.5,0.127109592,0.538438063,-0.284127323,0.783043916
966,2420734,571160,0.911,-0.251,0.281,4.5,1.4,6.5,0.2,33.7,-9.5,0.127109592,0.538438063,-0.284127323,0.783043916
967,2422577,571160,0.911,-0.247,0.285,3.4,1.7,6.2,0.2,33.6,-9.5,0.126956999,0.538407544,-0.284127323,0.783104953
968,2424716,571170,0.918,-0.251,0.277,2.9,2,6.1,0.2,33.6,-9.5,0.126834925,0.538315989,-0.284127323,0.783135472
969,2427041,571170,0.914,-0.251,0.281,2.6,2.4,6,0.2,33.6,-9.5,0.126712851,0.538254952,-0.284157842,0.783196509
970,2430978,571170,0.914,-0.251,0.277,2.6,2.4,6,0.2,33.6,-9.5,0.126590777,0.538193915,-0.28418836,0.783288064
971,2433142,571170,0.914,-0.255,0.277,2.2,2.6,5.8,0.2,33.7,-9.4,0.126499222,0.538102359,-0.28418836,0.783349101
972,2435251,571180,0.914,-0.251,0.277,2.1,2.6,5.7,0.2,33.7,-9.4,0.126377148,0.538041322,-0.284218879,0.78337962
973,2436756,571180,0.911,-0.251,0.277,1.9,2.7,5.6,0.2,33.7,-9.4,0.126285592,0.537949767,-0.284249397,0.783440657
974,2440647,571180,0.914,-0.247,0.277,1.9,2.7,5.6,0.2,33.7,-9.4,0.126163518,0.53788873,-0.284279916,0.783501694
975,2442874,571180,0.914,-0.247,0.277,1.9,2.7,5.6,0.2,33.7,-9.4,0.126163518,0.53788873,-0.284279916,0.783501694
976,2445262,571190,0.918,-0.255,0.273,1.4,3,5.2,-1.1,33.8,-9.4,0.126560259,0.53788873,-0.283669546,0.783654286
977,2447398,571190,0.914,-0.259,0.269,1.1,2.8,5,-1.1,33.8,-9.4,0.126499222,0.537827692,-0.283669546,0.783715323
978,2449518,571190,0.914,-0.251,0.269,0.8,2.8,4.8,-1.1,33.8,-9.4,0.126407666,0.537736137,-0.283730583,0.78377636
979,2451858,571190,0.914,-0.255,0.273,0.5,2.8,4.5,-1.1,33.8,-9.4,0.126346629,0.5376751,-0.283761101,0.783806879
980,2454602,571200,0.914,-0.255,0.273,0.5,2.8,4.5,-1.1,33.8,-9.4,0.126346629,0.5376751,-0.283761101,0.783806879
981,2458383,571200,0.914,-0.259,0.269,-0.1,2.8,4.3,-0.1,34,-9.2,0.126194037,0.537522507,-0.283852657,0.783898434
982,2460587,571200,0.91,-0.263,0.273,-0.4,2.7,4.1,-0.1,34,-9.2,0.126194037,0.53746147,-0.283913694,0.783959471
983,2462115,571200,0.907,-0.263,0.273,-0.6,2.6,3.9,-0.1,34,-9.2,0.126133,0.537369915,-0.283944212,0.78398999
984,2464511,571210,0.907,-0.263,0.273,-0.6,2.6,3.9,-0.1,34,-9.2,0.126133,0.537369915,-0.283944212,0.78398999
985,2466839,571210,0.907,-0.267,0.265,-1,2.4,3.3,0,34.1,-8.8,0.126071963,0.537247841,-0.284066286,0.784051027
986,2469479,571210,0.907,-0.267,0.269,-1.2,2.3,3.2,0,34.1,-8.8,0.126041444,0.537186804,-0.284127323,0.784081545
987,2471950,571210,0.907,-0.267,0.269,-1.5,2.3,3,0,34.1,-8.8,0.126041444,0.537125767,-0.284157842,0.784112064
988,2474295,571220,0.907,-0.267,0.269,-1.5,2.3,3,0,34.1,-8.8,0.126041444,0.537125767,-0.284157842,0.784112064
989,2476876,571220,0.903,-0.263,0.277,-2.2,2.5,2.7,0,33.9,-8.9,0.126010926,0.537034211,-0.284218879,0.784142582
990,2479298,571220,0.903,-0.27,0.269,-2.2,2.5,2.7,0,33.9,-8.9,0.126010926,0.536973174,-0.284310434,0.784142582
991,2483948,571220,0.907,-0.271,0.269,-2.6,2.4,2.2,0,33.9,-8.9,0.126041444,0.5368511,-0.284432508,0.784203619
992,2484432,571230,0.907,-0.271,0.269,-2.6,2.4,2.2,0,33.9,-8.9,0.126041444,0.5368511,-0.284432508,0.784203619
993,2487181,571230,0.899,-0.274,0.269,-2.8,2.2,1.7,0,33.8,-9,0.126041444,0.536790063,-0.284493545,0.784203619
994,2489466,571230,0.903,-0.278,0.265,-2.8,2.2,1.7,0,33.8,-9,0.126071963,0.536729026,-0.284554582,0.784234138
995,2492289,571230,0.903,-0.27,0.269,-3.1,2.1,1.4,0,33.8,-9,0.126102481,0.536606952,-0.284676656,0.784234138
996,2494645,571240,0.903,-0.27,0.269,-3.1,2.1,1.4,0,33.8,-9,0.126102481,0.536606952,-0.284676656,0.784234138
997,2496797,571240,0.903,-0.27,0.269,-3.1,2.1,1.4,0,33.8,-9,0.126102481,0.536606952,-0.284676656,0.784234138
998,2499591,571240,0.899,-0.278,0.269,-3.6,1.9,0.9,-0.5,33.6,-9.3,0.126560259,0.536637471,-0.284218879,0.784325694
999,2502161,571240,0.899,-0.282,0.273,-3.6,1.8,0.7,-0.5,33.6,-9.3,0.126590777,0.536606952,-0.284279916,0.784325694
1000,2504438,571250,0.899,-0.278,0.273,-3.6,1.8,0.7,-0.5,33.6,-9.3,0.126621296,0.536545915,-0.284371471,0.784325694
1001,2508393,571250,0.899,-0.278,0.273,-3.6,1.8,0.5,-0.5,33.6,-9.3,0.126682333,0.536515397,-0.284432508,0.784325694
1002,2510594,571250,0.903,-0.286,0.277,-3.6,1.6,0.3,-0.8,33.6,-8.3,0.126712851,0.536484878,-0.284493545,0.784325694
1003,2512838,571250,0.903,-0.278,0.277,-3.6,1.5,0.2,-0.8,33.6,-8.3,0.126773888,0.536423841,-0.284554582,0.784325694
1004,2515308,571260,0.903,-0.278,0.277,-3.7,1.4,0,-0.8,33.6,-8.3,0.126804407,0.536393323,-0.284615619,0.784295175
1005,2517242,571260,0.899,-0.282,0.273,-3.7,1.4,0,-0.8,33.6,-8.3,0.126865444,0.536362804,-0.284676656,0.784295175
1006,2519488,571260,0.903,-0.282,0.273,-3.9,1.4,-0.2,-0.7,33.9,-7.9,0.126926481,0.536332286,-0.284737693,0.784295175
1007,2521823,571260,0.899,-0.282,0.273,-3.9,1.3,-0.4,-0.7,33.9,-7.9,0.126987518,0.536301767,-0.28479873,0.784295175
1008,2525736,571270,0.903,-0.286,0.277,-3.9,1.1,-0.6,-0.7,33.9,-7.9,0.127048555,0.536271249,-0.284829249,0.784264657
1009,2528181,571270,0.907,-0.282,0.277,-4,0.8,-0.7,-0.7,33.9,-7.9,0.127109592,0.53624073,-0.284890286,0.784264657
1010,2530225,571270,0.907,-0.282,0.277,-4,0.8,-0.7,-0.7,33.9,-7.9,0.127109592,0.53624073,-0.284890286,0.784264657
1011,2532561,571270,0.914,-0.29,0.281,-4.3,0.5,-1,-0.9,33.7,-7.2,0.127262185,0.536210211,-0.28501236,0.784203619
1012,2534531,571280,0.914,-0.286,0.281,-4.4,0.3,-1.1,-0.9,33.7,-7.2,0.127323222,0.536210211,-0.285073397,0.784173101
1013,2538230,571280,0.918,-0.286,0.277,-4.3,0.2,-1.2,-0.9,33.7,-7.2,0.127414777,0.536210211,-0.285134434,0.784142582
1014,2540090,571280,0.918,-0.286,0.277,-4.3,0.2,-1.2,-0.9,33.7,-7.2,0.127414777,0.536210211,-0.285134434,0.784142582
1015,2542175,571280,0.914,-0.29,0.277,-4.2,0,-1.1,-0.9,33.7,-7.2,0.127475814,0.536179693,-0.285195471,0.784112064
1016,2544410,571290,0.918,-0.286,0.277,-4.1,-0.1,-1.2,-0.9,33.7,-7.2,0.127628407,0.536179693,-0.285317545,0.784051027
1017,2547603,571290,0.918,-0.282,0.277,-4.1,-0.2,-1.3,-0.9,33.7,-7.2,0.127689444,0.536179693,-0.285378582,0.784020508
1018,2549615,571290,0.918,-0.282,0.277,-4.1,-0.2,-1.3,-0.9,33.7,-7.2,0.127689444,0.536179693,-0.285378582,0.784020508
1019,2552753,571290,0.918,-0.282,0.277,-4.1,-0.2,-1.3,-0.9,33.7,-7.2,0.127689444,0.536179693,-0.285378582,0.784020508
1020,2554318,571300,0.922,-0.286,0.281,-4,-0.7,-1.6,0,33.8,-8.7,0.127933592,0.536210211,-0.285164953,0.784051027
1021,2557087,571300,0.922,-0.286,0.281,-4,-0.7,-1.6,0,33.8,-8.7,0.128025147,0.536210211,-0.28522599,0.784020508
1022,2560277,571300,0.918,-0.29,0.277,-3.9,-0.7,-1.5,0,33.8,-8.7,0.128086184,0.53624073,-0.285256508,0.783959471
1023,2561888,571300,0.918,-0.286,0.277,-3.8,-0.7,-1.5,0,33.8,-8.7,0.128147221,0.53624073,-0.285317545,0.783928953
1024,2565078,571310,0.918,-0.286,0.277,-3.6,-0.9,-1.5,-0.3,33.6,-8.4,0.128208258,0.536271249,-0.285378582,0.783898434
1025,2567168,571310,0.918,-0.286,0.277,-3.4,-1,-1.5,-0.3,33.6,-8.4,0.128269295,0.536271249,-0.285409101,0.783867916
1026,2569510,571310,0.922,-0.286,0.277,-3.4,-1,-1.5,-0.3,33.6,-8.4,0.128330332,0.536301767,-0.285439619,0.783806879
1027,2573358,571310,0.918,-0.282,0.277,-3.4,-1,-1.4,-0.3,33.6,-8.4,0.128391369,0.536332286,-0.285500656,0.78377636
1028,2575630,571320,0.918,-0.282,0.269,-3.2,-1,-1.4,-0.2,34,-8.5,0.128452406,0.536332286,-0.285531175,0.783745842
1029,2577716,571320,0.918,-0.286,0.277,-3,-1,-1.5,-0.2,34,-8.5,0.128513443,0.536362804,-0.285592212,0.783715323
