sample_index,elapsed_us,device_time_ms,acc_x_g,acc_y_g,acc_z_g,gyro_x_dps,gyro_y_dps,gyro_z_dps,mag_x_ut,mag_y_ut,mag_z_ut,quat_w,quat_x,quat_y,quat_z
0,2724,703190,-0.527,-0.502,0.699,7.9,8.7,-4,2.8,-8.4,-23.2,0.490218818,0.0795922727,0.403210547,-0.768608661
1,5293,703190,-0.531,-0.506,0.695,8.1,8.8,-3.9,2.8,-8.4,-23.2,0.490066225,0.0797753838,0.40314951,-0.768700217
2,7582,703190,-0.527,-0.502,0.699,8.2,8.8,-4,2.7,-8.6,-22.3,0.489883114,0.0799890133,0.403118992,-0.768791772
3,10207,703200,-0.524,-0.502,0.691,7.9,8.6,-4.3,2.7,-8.6,-22.3,0.489730522,0.0801721244,0.403088473,-0.768883328
4,12479,703200,-0.527,-0.498,0.695,7.6,8.3,-4.6,2.7,-8.6,-22.3,0.489577929,0.0803552355,0.403057955,-0.769005402
5,14761,703200,-0.528,-0.506,0.691,7.3,8,-4.7,2.7,-8.6,-22.3,0.489394818,0.0805383465,0.403027436,-0.769096957
6,18123,703200,-0.528,-0.51,0.687,7,7.7,-4.8,2.9,-8.4,-21.2,0.489516892,0.0809961241,0.402478103,-0.769280068
7,20377,703210,-0.524,-0.518,0.683,6.6,7.6,-4.9,2.9,-8.4,-21.2,0.489333781,0.0811487167,0.402447584,-0.769371624
8,22592,703210,-0.524,-0.526,0.687,6.1,7.5,-5.1,2.9,-8.4,-21.2,0.489181188,0.0813013092,0.402447584,-0.769463179
9,25565,703210,-0.52,-0.53,0.687,5.5,7.4,-5.4,2.9,-8.4,-21.2,0.488998077,0.0814233833,0.402447584,-0.769554735
10,27844,703210,-0.516,-0.538,0.683,5,7.2,-5.7,2.9,-8.4,-21.2,0.488845485,0.0815454573,0.402447584,-0.76964629
11,30063,703220,-0.52,-0.545,0.675,4.6,7.1,-5.8,2.9,-8.4,-21.2,0.488662374,0.0816370128,0.402447584,-0.769737846
12,33066,703220,-0.512,-0.55,0.671,4.2,6.9,-6.1,2.9,-8.4,-21.2,0.488509781,0.0817896054,0.402447584,-0.769829402
13,34816,703220,-0.516,-0.553,0.671,4.1,6.8,-6.4,2.9,-8.4,-21.2,0.48832667,0.0818811609,0.402478103,-0.769920957
14,37563,703220,-0.513,-0.557,0.667,4,6.6,-6.6,2.8,-8.3,-22.3,0.488143559,0.0819727165,0.402478103,-0.770012513
15,40555,703230,-0.513,-0.557,0.671,4,6.6,-6.7,2.8,-8.3,-22.3,0.487960448,0.082064272,0.402508621,-0.770134587
16,42370,703230,-0.517,-0.557,0.668,4.1,6.8,-6.6,2.8,-8.3,-22.3,0.487777337,0.082186346,0.402508621,-0.770226142
17,45843,703230,-0.52,-0.553,0.664,4.2,7.1,-6.6,2.8,-8.3,-22.3,0.487594226,0.0822779015,0.40253914,-0.770317698
18,47306,703230,-0.524,-0.557,0.668,4.4,7.2,-6.6,3,-8.5,-22,0.487411115,0.0823999756,0.40253914,-0.770409253
19,50430,703240,-0.52,-0.553,0.668,4.6,7.2,-6.5,3,-8.5,-22,0.487228004,0.0824915311,0.402569658,-0.770500809
20,52678,703240,-0.524,-0.557,0.668,4.9,7.2,-6.3,3,-8.5,-22,0.487044893,0.0826136052,0.402569658,-0.770592364
21,55024,703240,-0.524,-0.549,0.672,5,7.3,-6.2,3,-8.5,-22,0.4868923,0.0827356792,0.402569658,-0.770714438
22,57474,703240,-0.52,-0.553,0.683,5.1,7.2,-6.2,3.2,-8.3,-23,0.486709189,0.0828577532,0.402569658,-0.770805994
23,60997,703250,-0.524,-0.549,0.679,5,7.3,-6.1,3.2,-8.3,-23,0.486526078,0.0829798273,0.402569658,-0.770897549
24,62764,703250,-0.524,-0.545,0.679,4.8,7.4,-6,3.2,-8.3,-23,0.486342967,0.0831019013,0.402600177,-0.770989105
25,65884,703250,-0.528,-0.545,0.68,4.6,7.4,-5.8,3.2,-8.3,-23,0.486190374,0.0832239753,0.402600177,-0.77108066
26,68055,703250,-0.524,-0.537,0.679,4.4,7.4,-5.7,2.9,-8.4,-23.2,0.486037782,0.0833155309,0.402508621,-0.771202734
27,70340,703260,-0.528,-0.541,0.691,4,7.4,-5.5,2.9,-8.4,-23.2,0.485854671,0.0834376049,0.40253914,-0.77129429
28,72455,703260,-0.524,-0.537,0.687,3.7,7.5,-5.5,2.9,-8.4,-23.2,0.485702078,0.0835596789,0.40253914,-0.771385846
29,75322,703260,-0.528,-0.537,0.687,3.3,7.6,-5.4,2.9,-8.4,-23.2,0.485518967,0.083681753,0.402600177,-0.771446883
30,77634,703260,-0.528,-0.541,0.687,3.2,7.6,-5.4,2.9,-8.4,-23.2,0.485366375,0.083803827,0.402630696,-0.77150792
31,79734,703270,-0.528,-0.537,0.687,2.9,7.6,-5.4,2.9,-8.4,-23.2,0.485213782,0.0838953825,0.402661214,-0.771599475
32,84211,703270,-0.524,-0.537,0.687,2.8,7.4,-5.4,2.9,-8.4,-23.2,0.485030671,0.0840174566,0.402691733,-0.771660512
33,85091,703270,-0.528,-0.541,0.695,2.7,7.4,-5.4,2.9,-8.4,-23.2,0.48484756,0.0840784936,0.40275277,-0.771721549
34,87506,703270,-0.532,-0.541,0.691,2.7,7.4,-5.5,3.1,-9.1,-23.2,0.484725486,0.0842310862,0.402783288,-0.771782586
35,89942,703280,-0.532,-0.541,0.691,2.6,7.4,-5.7,3.1,-9.1,-23.2,0.484542375,0.0843226417,0.402813807,-0.771874142
36,93138,703280,-0.532,-0.541,0.695,2.5,7.4,-5.8,3.1,-9.1,-23.2,0.484389782,0.0844141972,0.402874844,-0.771935179
37,95321,703280,-0.528,-0.541,0.699,2.4,7.5,-5.9,3.1,-9.1,-23.2,0.484206671,0.0845362712,0.402935881,-0.771996216
38,97643,703280,-0.528,-0.541,0.699,2.4,7.6,-6,3.6,-8.9,-23.4,0.48402356,0.0846278268,0.402966399,-0.772087771
39,101777,703290,-0.528,-0.541,0.703,2.4,7.6,-6.1,3.6,-8.9,-23.4,0.483840449,0.0847193823,0.403027436,-0.772148808
40,103457,703290,-0.532,-0.537,0.703,2.3,7.5,-6.2,3.6,-8.9,-23.4,0.483687857,0.0848109378,0.403088473,-0.772209845
41,104992,703290,-0.532,-0.533,0.691,2.3,7.5,-6.3,3.6,-8.9,-23.4,0.483504746,0.0849330119,0.40314951,-0.772301401
42,107594,703290,-0.528,-0.537,0.699,2.2,7.5,-6.4,3.5,-9,-23.6,0.483321635,0.0850245674,0.403180029,-0.772362438
43,111020,703300,-0.528,-0.537,0.695,2.1,7.5,-6.5,3.5,-9,-23.6,0.483138524,0.0851161229,0.403241066,-0.772453993
44,112792,703300,-0.524,-0.545,0.687,2,7.5,-6.6,3.5,-9,-23.6,0.482955412,0.0852076785,0.403302103,-0.77251503
45,114994,703300,-0.52,-0.545,0.687,1.9,7.4,-6.7,3.5,-9,-23.6,0.482772301,0.0852687155,0.40336314,-0.772606586
46,117418,703300,-0.52,-0.549,0.679,1.9,7.2,-6.9,3.1,-9.4,-23.5,0.482680746,0.085360271,0.403118992,-0.772789697
47,120333,703310,-0.52,-0.549,0.679,1.8,7.1,-7.1,3.1,-9.4,-23.5,0.482497635,0.085421308,0.403180029,-0.772850734
48,122545,703310,-0.516,-0.553,0.679,1.7,6.9,-7.2,3.1,-9.4,-23.5,0.482314524,0.085482345,0.403210547,-0.772942289
49,125250,703310,-0.516,-0.553,0.675,1.7,6.9,-7.2,3.1,-9.4,-23.5,0.482131413,0.0855433821,0.403271584,-0.773003327
50,127326,703310,-0.517,-0.561,0.675,1.6,7,-7.3,3.1,-9.4,-23.5,0.481917783,0.0856349376,0.403332621,-0.773094882
51,130919,703320,-0.516,-0.553,0.675,1.6,6.9,-7.2,3.1,-9.4,-23.5,0.481734672,0.0856959746,0.403393658,-0.773155919
52,133045,703320,-0.512,-0.553,0.671,1.4,6.9,-7.1,3.1,-9.4,-23.5,0.481551561,0.0857875301,0.403454695,-0.773247475
53,135325,703320,-0.508,-0.55,0.675,1.4,6.9,-7.1,3.1,-9.4,-23.5,0.48136845,0.0858485672,0.403515732,-0.773308512
54,137366,703320,-0.508,-0.55,0.667,1.3,7.1,-7.1,3.4,-8.9,-23,0.481185339,0.0859096042,0.403607288,-0.773400067
55,141018,703330,-0.504,-0.542,0.667,1.4,7.1,-7.1,3.4,-8.9,-23,0.481002228,0.0860011597,0.403668325,-0.773461104
56,143296,703330,-0.508,-0.538,0.659,1.6,7,-7.1,3.4,-8.9,-23,0.480819117,0.0860316782,0.403729362,-0.77355266
57,145598,703330,-0.508,-0.542,0.66,1.7,6.9,-7.2,3.4,-8.9,-23,0.480636006,0.0861537523,0.40375988,-0.773613697
58,148526,703330,-0.508,-0.538,0.652,1.8,6.7,-7.3,3.5,-9,-22.8,0.480452895,0.0862147893,0.403820917,-0.773705252
59,150778,703340,-0.508,-0.526,0.652,1.8,6.6,-7.4,3.5,-9,-22.8,0.480269784,0.0862758263,0.403881954,-0.773796808
60,153052,703340,-0.504,-0.522,0.652,1.9,6.6,-7.4,3.5,-9,-22.8,0.480056154,0.0863368633,0.403942991,-0.773857845
61,155270,703340,-0.512,-0.522,0.644,1.9,6.6,-7.4,3.5,-9,-22.8,0.479873043,0.0863979003,0.40397351,-0.7739494
62,157803,703340,-0.512,-0.518,0.644,1.9,6.7,-7.3,3.8,-8.9,-23,0.479689932,0.0864894559,0.404034547,-0.774040956
63,160006,703350,-0.504,-0.51,0.644,1.6,6.7,-7.2,3.8,-8.9,-23,0.479506821,0.0865199744,0.404095584,-0.774101993
64,164172,703350,-0.508,-0.518,0.648,1.3,6.8,-7.2,3.8,-8.9,-23,0.47932371,0.0866115299,0.404156621,-0.774193548
65,164945,703350,-0.504,-0.518,0.648,1,6.8,-7.2,3.8,-8.9,-23,0.479140599,0.0866725669,0.404217658,-0.774254585
66,168662,703350,-0.504,-0.518,0.655,0.7,6.8,-7.2,3.9,-9.3,-23,0.478988006,0.0867641224,0.404217658,-0.774346141
67,170004,703360,-0.5,-0.522,0.651,0.5,6.8,-7.3,3.9,-9.3,-23,0.478804895,0.0868251595,0.404309214,-0.774407178
68,172348,703360,-0.5,-0.522,0.659,0.2,6.9,-7.4,3.9,-9.3,-23,0.478621784,0.0868861965,0.404370251,-0.774468215
69,175032,703360,-0.496,-0.526,0.663,-0.2,7.1,-7.5,3.9,-9.3,-23,0.478438673,0.086916715,0.404461806,-0.774529252
70,177581,703360,-0.5,-0.526,0.671,-0.7,7.3,-7.5,3.9,-9.3,-23,0.478225043,0.086977752,0.40458388,-0.774590289
71,179893,703370,-0.508,-0.522,0.679,-1.3,7.4,-7.6,3.9,-9.3,-23,0.478041932,0.0870082705,0.404675436,-0.774651326
72,182474,703370,-0.508,-0.526,0.679,-1.7,7.4,-7.5,3.9,-9.3,-23,0.477858821,0.0870693075,0.404766991,-0.774681845
73,184830,703370,-0.508,-0.522,0.671,-2.3,7.5,-7.4,3.9,-9.3,-23,0.47767571,0.087099826,0.404950102,-0.774742882
74,189072,703370,-0.512,-0.522,0.671,-2.8,7.5,-7.2,5.3,-9,-23.1,0.477492599,0.0871303446,0.405072176,-0.7747734
75,190873,703380,-0.516,-0.522,0.664,-3.3,7.5,-7.2,5.3,-9,-23.1,0.477309488,0.0871608631,0.405224769,-0.774803919
76,192620,703380,-0.512,-0.518,0.667,-3.7,7.3,-7.2,5.3,-9,-23.1,0.477126377,0.0871913816,0.405377361,-0.774834437
77,194977,703380,-0.516,-0.518,0.664,-4,7.2,-7.3,5.3,-9,-23.1,0.476943266,0.0871913816,0.405529954,-0.774864956
78,197508,703380,-0.516,-0.526,0.664,-4.2,7.3,-7.3,4.9,-8.7,-23.1,0.476760155,0.0872219001,0.405713065,-0.774895474
79,199791,703390,-0.516,-0.526,0.66,-4.2,7.5,-7.3,4.9,-8.7,-23.1,0.476577044,0.0872219001,0.405865658,-0.774895474
80,203333,703390,-0.516,-0.526,0.66,-4.1,7.6,-7.3,4.9,-8.7,-23.1,0.476393933,0.0872524186,0.40601825,-0.774925993
81,204863,703390,-0.52,-0.53,0.664,-3.9,7.5,-7.4,4.9,-8.7,-23.1,0.476210822,0.0872829371,0.406201361,-0.774956511
82,208576,703390,-0.516,-0.526,0.664,-3.8,7.5,-7.7,5.1,-8.9,-23.1,0.476027711,0.0872829371,0.406353954,-0.77498703
83,210000,703400,-0.516,-0.53,0.656,-3.6,7.3,-7.8,5.1,-8.9,-23.1,0.475814081,0.0873134556,0.406506546,-0.775017548
84,212989,703400,-0.516,-0.534,0.656,-3.3,7.2,-7.9,5.1,-8.9,-23.1,0.47563097,0.0873439741,0.406659139,-0.775078585
85,215831,703400,-0.52,-0.534,0.656,-3.1,7.1,-8,5.1,-8.9,-23.1,0.475447859,0.0873439741,0.406781213,-0.775109104
86,217298,703400,-0.52,-0.538,0.648,-2.8,7.1,-8.2,4.8,-8.7,-23.3,0.475295267,0.0874355296,0.406781213,-0.775200659
87,220896,703410,-0.52,-0.53,0.652,-2.5,7.1,-8.4,4.8,-8.7,-23.3,0.475081637,0.0874355296,0.406933805,-0.775231178
88,222438,703410,-0.52,-0.542,0.648,-2.1,7,-8.5,4.8,-8.7,-23.3,0.474898526,0.0874660482,0.407055879,-0.775292215
89,225418,703410,-0.52,-0.534,0.652,-1.6,6.9,-8.5,4.8,-8.7,-23.3,0.474684896,0.0874965667,0.407147435,-0.775353252
90,228321,703410,-0.52,-0.538,0.648,-1.3,6.9,-8.6,4.3,-8.5,-23,0.474501785,0.0874965667,0.407269509,-0.775414289
91,229924,703420,-0.52,-0.534,0.644,-1,6.9,-8.6,4.3,-8.5,-23,0.474288156,0.0875576037,0.407391583,-0.775475326
92,232484,703420,-0.524,-0.537,0.648,-0.7,6.9,-8.8,4.3,-8.5,-23,0.474074526,0.0875881222,0.407483139,-0.775566881
93,235888,703420,-0.524,-0.534,0.648,-0.5,6.8,-9,4.3,-8.5,-23,0.473860897,0.0876186407,0.407574694,-0.775627918
94,237433,703420,-0.524,-0.537,0.656,-0.2,6.7,-9,2.6,-8.9,-23,0.473647267,0.0876491592,0.40766625,-0.775719474
95,239916,703430,-0.524,-0.537,0.648,0,6.6,-9.1,2.6,-8.9,-23,0.473433638,0.0876796777,0.407757805,-0.775780511
96,242280,703430,-0.528,-0.537,0.648,0.2,6.6,-9.2,2.6,-8.9,-23,0.473220008,0.0877101962,0.407849361,-0.775872066
97,246464,703430,-0.528,-0.533,0.64,0.3,6.8,-9.3,2.6,-8.9,-23,0.473006378,0.0877407147,0.407910398,-0.775963622
98,248711,703430,-0.524,-0.534,0.644,0.3,6.8,-9.4,1.7,-8.6,-23.2,0.47276223,0.0877712333,0.408001953,-0.776055177
99,250202,703440,-0.532,-0.537,0.645,0.5,6.9,-9.5,1.7,-8.6,-23.2,0.472548601,0.0878017518,0.408093509,-0.776146733
100,253497,703440,-0.54,-0.537,0.649,0.8,6.9,-9.6,1.7,-8.6,-23.2,0.472334971,0.0878627888,0.408154546,-0.776238289
101,255034,703440,-0.536,-0.545,0.649,1.1,6.9,-9.6,1.7,-8.6,-23.2,0.472090823,0.0878933073,0.408215583,-0.776329844
102,257386,703440,-0.536,-0.545,0.652,1.4,6.8,-9.7,0.9,-9,-23.2,0.471877194,0.0879543443,0.408307138,-0.7764214
103,260012,703450,-0.532,-0.545,0.656,1.9,6.7,-9.7,0.9,-9,-23.2,0.471633045,0.0879848628,0.408337657,-0.776543474
104,264181,703450,-0.532,-0.545,0.648,2.3,6.6,-9.7,0.9,-9,-23.2,0.471419416,0.0880458998,0.408398694,-0.776635029
105,266343,703450,-0.532,-0.541,0.656,2.6,6.4,-9.8,0.9,-9,-23.2,0.471175268,0.0880764183,0.408429212,-0.776757103
106,268557,703450,-0.536,-0.541,0.649,2.8,6.4,-9.9,0.8,-8.7,-22.9,0.471022675,0.0882900479,0.408429212,-0.776848659
107,270726,703460,-0.536,-0.541,0.649,2.9,6.3,-10,0.8,-8.7,-22.9,0.470778527,0.0883510849,0.408459731,-0.776970733
108,272440,703460,-0.532,-0.537,0.645,2.9,6.3,-10.1,0.8,-8.7,-22.9,0.470564898,0.088412122,0.408490249,-0.777062288
109,275021,703460,-0.532,-0.537,0.652,3,6.3,-10.1,0.8,-8.7,-22.9,0.47032075,0.0884426405,0.408520768,-0.777184362
110,278115,703460,-0.532,-0.541,0.648,3.1,6.6,-10.1,5.6,-10.5,-23.2,0.470076601,0.088473159,0.408551286,-0.777306436
111,280377,703470,-0.528,-0.541,0.648,3.2,6.7,-10.1,5.6,-10.5,-23.2,0.469832453,0.0885647145,0.408581805,-0.77742851
112,282575,703470,-0.532,-0.537,0.645,3.4,6.7,-10.2,5.6,-10.5,-23.2,0.469588305,0.0886257515,0.408612323,-0.777550584
113,285568,703470,-0.532,-0.541,0.645,3.5,6.6,-10.2,5.6,-10.5,-23.2,0.469374676,0.0886867885,0.408642842,-0.777672658
114,287838,703470,-0.532,-0.537,0.648,3.4,6.5,-10.3,2.9,-7.4,-23.3,0.469130528,0.088717307,0.40867336,-0.777794733
115,290832,703480,-0.532,-0.537,0.652,3.2,6.5,-10.4,2.9,-7.4,-23.3,0.46888638,0.0887783441,0.40867336,-0.777916807
116,292315,703480,-0.532,-0.533,0.648,2.9,6.6,-10.5,2.9,-7.4,-23.3,0.468642232,0.0888393811,0.408734397,-0.778038881
117,295192,703480,-0.532,-0.533,0.648,2.6,6.7,-10.4,2.9,-7.4,-23.3,0.468398083,0.0888698996,0.408795434,-0.778160955
118,298296,703480,-0.536,-0.533,0.649,2.3,6.8,-10.2,4,-7.5,-23.1,0.468153935,0.0889309366,0.408825953,-0.778283029
119,299869,703490,-0.536,-0.525,0.648,2,6.8,-9.9,4,-7.5,-23.1,0.467909787,0.0889614551,0.40888699,-0.778374584
120,302482,703490,-0.536,-0.529,0.645,1.5,6.8,-9.8,4,-7.5,-23.1,0.467696158,0.0890224921,0.408948027,-0.778496658
121,305353,703490,-0.536,-0.529,0.641,0.9,6.9,-9.8,4,-7.5,-23.1,0.46745201,0.0890530107,0.409039583,-0.778588214
122,307631,703490,-0.536,-0.529,0.637,0.4,6.9,-9.7,5.4,-7.1,-22.9,0.46723838,0.0890835292,0.40910062,-0.778679769
123,309911,703500,-0.536,-0.533,0.645,0,7.1,-9.8,5.4,-7.1,-22.9,0.466994232,0.0891140477,0.409192175,-0.778771325
124,312389,703500,-0.54,-0.537,0.653,-0.4,7.1,-9.7,5.4,-7.1,-22.9,0.466780602,0.0891445662,0.409314249,-0.778832362
125,314970,703500,-0.544,-0.537,0.645,-0.8,7.1,-9.6,5.4,-7.1,-22.9,0.466536454,0.0891750847,0.409405805,-0.778923917
126,318064,703500,-0.544,-0.541,0.649,-1.1,7.1,-9.4,5.7,-7.2,-23.1,0.466475417,0.0896023438,0.409436323,-0.778893399
127,320317,703510,-0.544,-0.549,0.645,-1.3,7.1,-9.3,5.7,-7.2,-23.1,0.466261788,0.0896328623,0.409558397,-0.778954436
128,322536,703510,-0.54,-0.553,0.645,-1.3,7,-9.3,5.7,-7.2,-23.1,0.466048158,0.0896328623,0.409680471,-0.779045991
129,324886,703510,-0.54,-0.553,0.645,-1.3,6.8,-9.3,5.7,-7.2,-23.1,0.46580401,0.0896633808,0.409772027,-0.779107028
130,327382,703510,-0.536,-0.553,0.645,-1.3,6.8,-9.3,4.3,-9.2,-23,0.465590381,0.0896938993,0.409894101,-0.779168065
131,331650,703520,-0.544,-0.561,0.649,-1.4,6.8,-9.3,4.3,-9.2,-23,0.465376751,0.0896938993,0.410016175,-0.779229102
132,333849,703520,-0.544,-0.561,0.649,-1.3,6.7,-9.3,4.3,-9.2,-23,0.465163121,0.0897244179,0.41010773,-0.779320658
133,336116,703520,-0.548,-0.557,0.653,-1.2,6.5,-9.3,4.3,-9.2,-23,0.464949492,0.0897244179,0.410229804,-0.779381695
134,338346,703520,-0.544,-0.561,0.657,-0.8,6.3,-9.4,4.2,-8.5,-23.2,0.464735862,0.0897549364,0.41032136,-0.779442732
135,340371,703530,-0.544,-0.561,0.653,-0.4,6.3,-9.4,4.2,-8.5,-23.2,0.464522233,0.0897549364,0.410412915,-0.779534288
136,342732,703530,-0.545,-0.568,0.661,0,6.3,-9.2,4.2,-8.5,-23.2,0.464308603,0.0897854549,0.410504471,-0.779625843
137,344917,703530,-0.548,-0.564,0.653,0.3,6.3,-9,4.2,-8.5,-23.2,0.464094974,0.0898159734,0.410565508,-0.77968688
138,347495,703530,-0.545,-0.572,0.661,0.6,6.2,-8.9,4.5,-8.5,-23,0.463881344,0.0898464919,0.410626545,-0.779778436
139,350902,703540,-0.541,-0.572,0.66,0.8,6.2,-8.8,4.5,-8.5,-23,0.463667714,0.0898770104,0.410718101,-0.779869991
140,352474,703540,-0.545,-0.576,0.664,1,6.1,-8.7,4.5,-8.5,-23,0.463454085,0.0899380474,0.410779138,-0.779961547
141,355443,703540,-0.545,-0.576,0.668,1.2,6,-8.5,4.5,-8.5,-23,0.463270974,0.0899380474,0.410809656,-0.780053102
142,357702,703540,-0.549,-0.572,0.665,1.4,5.8,-8.3,4.2,-9.3,-23.2,0.463057344,0.0899990844,0.410870693,-0.780114139
143,360550,703550,-0.545,-0.576,0.672,1.5,5.7,-8.1,4.2,-9.3,-23.2,0.462874233,0.0900601215,0.41093173,-0.780205695
144,362332,703550,-0.549,-0.576,0.672,1.6,5.5,-7.7,4.2,-9.3,-23.2,0.462691122,0.09009064,0.410962249,-0.78029725
145,365893,703550,-0.549,-0.58,0.669,1.7,5.4,-7.4,4.2,-9.3,-23.2,0.462508011,0.0901211585,0.411023286,-0.780358287
146,367600,703550,-0.549,-0.576,0.669,1.8,5.4,-7,4.4,-10.4,-23.3,0.462355419,0.0902432325,0.411023286,-0.780449843
147,370131,703560,-0.549,-0.584,0.672,1.9,5.4,-6.6,4.4,-10.4,-23.3,0.462202826,0.090273751,0.411053804,-0.78051088
148,373496,703560,-0.549,-0.584,0.669,2,5.4,-6.1,4.4,-10.4,-23.3,0.462050233,0.090334788,0.411084323,-0.780571917
149,374923,703560,-0.557,-0.58,0.673,2.1,5.4,-5.8,4.4,-10.4,-23.3,0.461897641,0.0903958251,0.411114841,-0.780632954
150,377643,703560,-0.557,-0.584,0.673,2.2,5.3,-5.5,4.7,-6.8,-22.5,0.461745048,0.0904263436,0.41114536,-0.780724509
151,380943,703570,-0.553,-0.58,0.669,2.4,5.1,-5.2,4.7,-6.8,-22.5,0.461592456,0.0905484176,0.411175878,-0.780785546
152,383167,703570,-0.557,-0.58,0.669,2.5,4.9,-4.8,4.7,-6.8,-22.5,0.461470382,0.0906094546,0.411175878,-0.780846583
153,385123,703570,-0.556,-0.572,0.669,2.7,4.9,-4.5,4.7,-6.8,-22.5,0.461348308,0.0906704917,0.411206397,-0.78090762
154,388424,703570,-0.557,-0.576,0.669,2.7,4.9,-4.2,4.2,-10.1,-23.6,0.461226234,0.0907620472,0.411206397,-0.780968657
155,390370,703580,-0.557,-0.576,0.669,2.7,4.9,-4.1,4.2,-10.1,-23.6,0.46110416,0.0908230842,0.411236915,-0.781029695
156,393499,703580,-0.556,-0.568,0.665,2.8,4.8,-3.9,4.2,-10.1,-23.6,0.460982086,0.0908841212,0.411236915,-0.781060213
157,395109,703580,-0.552,-0.564,0.665,2.9,4.6,-3.6,4.2,-10.1,-23.6,0.460860012,0.0909756767,0.411236915,-0.78112125
158,397658,703580,-0.56,-0.56,0.661,2.9,4.3,-3.3,4.5,-10.4,-23.5,0.460768456,0.0910367138,0.411236915,-0.781182287
159,400004,703590,-0.56,-0.556,0.665,3,4.2,-3.1,4.5,-10.4,-23.5,0.460676901,0.0911282693,0.411236915,-0.781212806
160,403051,703590,-0.556,-0.552,0.657,3.2,4.1,-3,4.5,-10.4,-23.5,0.460585345,0.0911893063,0.411236915,-0.781273843
161,405931,703590,-0.556,-0.549,0.657,3.2,4.2,-2.9,4.5,-10.4,-23.5,0.460493789,0.0912808618,0.411206397,-0.78133488
162,407837,703590,-0.556,-0.552,0.661,3.2,4.3,-2.9,4.6,-10,-23.5,0.460371715,0.0913724174,0.411206397,-0.781365398
163,410177,703600,-0.548,-0.549,0.657,3.1,4.4,-3,4.6,-10,-23.5,0.46028016,0.0914029359,0.411206397,-0.781426435
164,412402,703600,-0.548,-0.545,0.657,3,4.6,-2.9,4.6,-10,-23.5,0.460188604,0.0915250099,0.411206397,-0.781487472
165,415521,703600,-0.548,-0.537,0.657,2.9,4.7,-2.9,4.6,-10,-23.5,0.460097049,0.0916165654,0.411206397,-0.781517991
166,417775,703600,-0.544,-0.537,0.66,2.7,4.9,-3,5.2,-8.9,-23.4,0.460097049,0.091891232,0.41114536,-0.781517991
167,420002,703610,-0.544,-0.537,0.66,2.6,4.9,-3,5.2,-8.9,-23.4,0.459974975,0.0919827876,0.41114536,-0.781579028
168,422286,703610,-0.544,-0.533,0.657,2.6,4.9,-3,5.2,-8.9,-23.4,0.459883419,0.0920743431,0.41114536,-0.781609546
169,424968,703610,-0.544,-0.529,0.653,2.4,4.9,-2.8,5.2,-8.9,-23.4,0.459791864,0.0921658986,0.411175878,-0.781670583
170,427428,703610,-0.54,-0.529,0.649,2.2,5,-2.8,4.8,-8.4,-21.7,0.459700308,0.0922574541,0.411175878,-0.781701102
171,430542,703620,-0.544,-0.529,0.653,2.1,5.2,-2.7,4.8,-8.4,-21.7,0.459578234,0.0923184912,0.411206397,-0.78173162
172,433298,703620,-0.54,-0.529,0.645,1.9,5.4,-2.7,4.8,-8.4,-21.7,0.45945616,0.0923795282,0.411236915,-0.781762139
173,435506,703620,-0.536,-0.529,0.652,1.8,5.5,-2.7,4.8,-8.4,-21.7,0.459395123,0.0925016022,0.411267434,-0.781792657
174,437802,703620,-0.536,-0.533,0.649,1.7,5.6,-2.7,5,-8.8,-24.5,0.459303568,0.0925931578,0.411297952,-0.781823176
175,441166,703630,-0.532,-0.533,0.652,1.8,5.7,-2.8,5,-8.8,-24.5,0.459181494,0.0926847133,0.411328471,-0.781853694
176,443289,703630,-0.536,-0.533,0.656,1.9,6,-2.9,5,-8.8,-24.5,0.459089938,0.0927762688,0.411358989,-0.781884213
177,444945,703630,-0.54,-0.541,0.649,2,6.2,-3,5,-8.8,-24.5,0.458967864,0.0928678243,0.411389508,-0.78194525
178,448451,703630,-0.532,-0.545,0.652,2.2,6.3,-3,5.4,-8.4,-23.8,0.45884579,0.0929898984,0.411420026,-0.781975768
179,449918,703640,-0.536,-0.541,0.649,2.4,6.5,-3,5.4,-8.4,-23.8,0.458723716,0.0930814539,0.411450545,-0.782006287
180,453970,703640,-0.54,-0.537,0.653,2.7,6.6,-3.1,5.4,-8.4,-23.8,0.458601642,0.0932035279,0.411481063,-0.782067324
181,456143,703640,-0.536,-0.545,0.645,2.9,6.6,-3.3,5.4,-8.4,-23.8,0.458479568,0.093325602,0.411511582,-0.782097842
182,458420,703640,-0.536,-0.545,0.652,3.2,6.6,-3.6,5,-8.6,-24.3,0.458357494,0.093447676,0.411511582,-0.782158879
183,460020,703650,-0.532,-0.549,0.645,3.7,6.7,-3.7,5,-8.6,-24.3,0.45823542,0.0935392315,0.4115421,-0.782219916
184,463952,703650,-0.54,-0.541,0.653,4.1,6.9,-3.7,5,-8.6,-24.3,0.458082827,0.0936918241,0.4115421,-0.782280953
185,466295,703650,-0.532,-0.549,0.652,4.6,7.1,-3.8,5,-8.6,-24.3,0.457960753,0.0938138981,0.4115421,-0.78234199
186,468118,703650,-0.532,-0.549,0.652,4.6,7.1,-3.8,5,-8.6,-24.3,0.457960753,0.0938138981,0.4115421,-0.78234199
187,470462,703660,-0.532,-0.557,0.656,5.6,7.4,-3.9,5,-8.6,-24.2,0.457747124,0.0942716758,0.411420026,-0.782464064
188,472453,703660,-0.54,-0.557,0.653,6,7.5,-4,5,-8.6,-24.2,0.457594531,0.0944242683,0.411389508,-0.78255562
189,475590,703660,-0.54,-0.557,0.653,6.3,7.5,-4.3,5,-8.6,-24.2,0.457441939,0.0945768609,0.411358989,-0.782647176
190,477801,703660,-0.533,-0.561,0.656,6.6,7.5,-4.5,5,-8.9,-23.3,0.457289346,0.0947294534,0.411328471,-0.782708213
191,480819,703670,-0.537,-0.565,0.649,7.1,7.5,-4.8,5,-8.9,-23.3,0.457136753,0.094882046,0.411297952,-0.782830287
192,482365,703670,-0.533,-0.565,0.652,7.5,7.7,-4.8,5,-8.9,-23.3,0.456953642,0.0950346385,0.411267434,-0.782921842
193,485383,703670,-0.529,-0.569,0.656,8,7.8,-4.8,5,-8.9,-23.3,0.45680105,0.0952177496,0.411206397,-0.783013398
194,487525,703670,-0.533,-0.569,0.649,8.4,8,-4.8,5.2,-8.4,-21.3,0.456617939,0.0954008606,0.41114536,-0.783135472
195,489992,703680,-0.529,-0.565,0.656,8.7,8.1,-4.8,5.2,-8.4,-21.3,0.456434828,0.0955839717,0.411084323,-0.783227027
196,492857,703680,-0.529,-0.569,0.652,8.9,8.4,-4.8,5.2,-8.4,-21.3,0.456251717,0.0957670827,0.411053804,-0.783349101
197,496114,703680,-0.525,-0.573,0.66,9.3,8.6,-4.8,5.2,-8.4,-21.3,0.456099124,0.0959501938,0.410962249,-0.783471175
198,497545,703680,-0.525,-0.569,0.656,9.6,8.8,-4.8,5.2,-8.8,-20.3,0.455916013,0.0961638234,0.410901212,-0.783593249
199,500774,703690,-0.525,-0.573,0.66,9.8,9,-5,5.2,-8.8,-20.3,0.455702383,0.0963774529,0.410840175,-0.783715323
200,502966,703690,-0.529,-0.573,0.66,10,9.2,-5.1,5.2,-8.8,-20.3,0.455519272,0.0965910825,0.410779138,-0.783837397
201,504921,703690,-0.529,-0.573,0.66,10.2,9.4,-5.1,5.2,-8.8,-20.3,0.455336161,0.0967741935,0.410718101,-0.783959471
202,507944,703690,-0.525,-0.577,0.66,10.5,9.7,-5.2,5.2,-8.7,-20.3,0.455122532,0.0970183416,0.410626545,-0.784081545
203,510363,703700,-0.525,-0.573,0.656,10.7,10,-5.3,5.2,-8.7,-20.3,0.454939421,0.0972624897,0.410565508,-0.784203619
204,512796,703700,-0.525,-0.573,0.66,11.1,10.2,-5.3,5.2,-8.7,-20.3,0.454725791,0.0975066378,0.410473952,-0.784325694
205,514921,703700,-0.521,-0.569,0.652,11.5,10.4,-5.3,5.2,-8.7,-20.3,0.454512162,0.0977507859,0.410412915,-0.784478286
206,517287,703700,-0.513,-0.565,0.66,11.8,10.4,-5.4,5.1,-8.7,-20.1,0.454237495,0.0978423414,0.410290841,-0.784661397
207,519797,703710,-0.513,-0.565,0.66,12.1,10.5,-5.5,5.1,-8.7,-20.1,0.454023865,0.0980864895,0.410199286,-0.78481399
208,523641,703710,-0.517,-0.569,0.656,12.3,10.6,-5.7,5.1,-8.7,-20.1,0.453810236,0.0983306375,0.41010773,-0.784936064
209,525542,703710,-0.509,-0.565,0.652,12.6,10.9,-5.9,5.1,-8.7,-20.1,0.453596606,0.0986053041,0.410016175,-0.785088656
210,527562,703710,-0.509,-0.569,0.652,12.8,11.4,-6.2,5.2,-9.1,-24.8,0.453352458,0.0988799707,0.409924619,-0.785241249
211,530053,703720,-0.505,-0.569,0.656,13,11.8,-6.5,5.2,-9.1,-24.8,0.45310831,0.0991546373,0.409833064,-0.785393841
212,534016,703720,-0.509,-0.565,0.644,13.2,12.1,-6.8,5.2,-9.1,-24.8,0.452833644,0.0994293039,0.409741508,-0.785576952
213,536142,703720,-0.505,-0.569,0.648,13.3,12.4,-7,5.2,-9.1,-24.8,0.452589496,0.0997039705,0.409649953,-0.785729545
214,538339,703720,-0.501,-0.573,0.648,13.5,12.7,-7.2,5.3,-8.8,-22.8,0.452314829,0.099978637,0.409558397,-0.785882138
215,539934,703730,-0.501,-0.573,0.648,13.6,13.1,-7.4,5.3,-8.8,-22.8,0.452040162,0.100283822,0.409466842,-0.786065249
216,543048,703730,-0.497,-0.573,0.648,13.7,13.4,-7.7,5.3,-8.8,-22.8,0.451765496,0.100589007,0.409375286,-0.786217841
217,545386,703730,-0.497,-0.577,0.652,13.8,13.8,-7.9,5.3,-8.8,-22.8,0.451460311,0.100894192,0.409314249,-0.786400952
218,547648,703730,-0.497,-0.573,0.655,13.9,14.3,-8.1,5.2,-9.1,-23.2,0.451155126,0.101168859,0.409222694,-0.786584063
219,550055,703740,-0.505,-0.573,0.66,14,14.8,-8.3,5.2,-9.1,-23.2,0.45084994,0.101504563,0.409131138,-0.786736656
220,552351,703740,-0.505,-0.562,0.652,13.9,15.1,-8.4,5.2,-9.1,-23.2,0.450544755,0.101840266,0.409070101,-0.786919767
221,556646,703740,-0.501,-0.554,0.655,13.8,15.4,-8.6,5.2,-9.1,-23.2,0.45023957,0.102145451,0.409009064,-0.787102878
222,557306,703740,-0.505,-0.558,0.659,13.6,15.6,-8.7,5.7,-9,-24.2,0.449903867,0.102481155,0.408948027,-0.78725547
223,560067,703750,-0.505,-0.558,0.652,13.6,15.9,-9,5.7,-9,-24.2,0.449598682,0.102816858,0.40888699,-0.787438581
224,563075,703750,-0.509,-0.557,0.656,13.5,16.1,-9.2,5.7,-9,-24.2,0.449262978,0.103122044,0.408825953,-0.787621693
225,564740,703750,-0.505,-0.558,0.652,13.3,16.5,-9.6,5.7,-9,-24.2,0.448896756,0.103457747,0.408795434,-0.787804804
226,567595,703750,-0.513,-0.561,0.652,13.1,16.8,-10,5.7,-9.1,-24.7,0.448500015,0.103549303,0.408642842,-0.78807947
227,570720,703760,-0.509,-0.565,0.648,12.9,17.3,-10.3,5.7,-9.1,-24.7,0.448164312,0.103885006,0.408612323,-0.788262581
228,572381,703760,-0.513,-0.573,0.648,12.8,17.6,-10.7,5.7,-9.1,-24.7,0.447737053,0.10422071,0.408581805,-0.788445692
229,575138,703760,-0.509,-0.569,0.644,12.9,18,-11.2,5.7,-9.1,-24.7,0.447401349,0.104556413,0.408551286,-0.788628803
230,578124,703760,-0.509,-0.581,0.648,13.2,18.3,-11.9,5.9,-9.1,-22.5,0.447004608,0.104892117,0.408520768,-0.788811914
231,579819,703770,-0.513,-0.593,0.656,13.8,18.6,-12.4,5.9,-9.1,-22.5,0.446577349,0.105227821,0.408490249,-0.789025544
232,582368,703770,-0.513,-0.597,0.652,14.3,18.7,-13,5.9,-9.1,-22.5,0.44615009,0.105563524,0.408459731,-0.789239174
233,585755,703770,-0.517,-0.597,0.656,14.9,18.8,-13.6,5.9,-9.1,-22.5,0.445722831,0.105929746,0.408429212,-0.789452803
234,588032,703770,-0.513,-0.597,0.656,15.5,18.9,-14.1,5.7,-9.3,-22.6,0.445265053,0.106295969,0.408368175,-0.789696951
235,590082,703780,-0.517,-0.601,0.668,16.1,19.2,-14.7,5.7,-9.3,-22.6,0.444807276,0.106662191,0.408307138,-0.789941099
236,592801,703780,-0.517,-0.597,0.668,16.7,19.5,-15.4,5.7,-9.3,-22.6,0.444318979,0.106997894,0.408246101,-0.790185247
237,595098,703780,-0.517,-0.597,0.668,17.3,19.9,-16,5.7,-9.3,-22.6,0.443830683,0.107394635,0.408185064,-0.790459914
238,597355,703780,-0.517,-0.597,0.664,18.1,20.1,-16.5,5.9,-9.1,-22.4,0.443311869,0.107760857,0.408124027,-0.790734581
239,599740,703790,-0.517,-0.593,0.668,18.8,20.5,-16.9,5.9,-9.1,-22.4,0.442793054,0.108127079,0.408032472,-0.791009247
240,604050,703790,-0.521,-0.596,0.664,19.5,20.6,-17.2,5.9,-9.1,-22.4,0.442274239,0.108493301,0.407910398,-0.791283914
241,606321,703790,-0.521,-0.593,0.66,20,20.8,-17.7,5.9,-9.1,-22.4,0.441755425,0.10892056,0.407818842,-0.791589099
242,608501,703790,-0.517,-0.601,0.66,20.4,21,-18,6.2,-9.4,-22.2,0.441206091,0.109317301,0.407727287,-0.791894284
243,610747,703800,-0.521,-0.6,0.66,20.9,21.3,-18.6,6.2,-9.4,-22.2,0.44062624,0.10974456,0.407605213,-0.792229987
244,613039,703800,-0.525,-0.6,0.66,21.5,21.7,-19,6.2,-9.4,-22.2,0.440046388,0.110141301,0.407483139,-0.792535173
245,615046,703800,-0.521,-0.604,0.66,22.1,22,-19.4,6.2,-9.4,-22.2,0.439466536,0.11056856,0.407361064,-0.792870876
246,617312,703800,-0.521,-0.604,0.668,22.8,22.3,-19.8,6.2,-9.4,-22.2,0.438764611,0.110782189,0.407300027,-0.793267617
247,620002,703810,-0.521,-0.608,0.672,23.2,22.6,-20.1,6.2,-9.4,-22.2,0.438154241,0.111209449,0.407177953,-0.79360332
248,622226,703810,-0.521,-0.604,0.664,23.5,22.8,-20.5,6.2,-9.4,-22.2,0.43754387,0.111636708,0.407025361,-0.793939024
249,626263,703810,-0.525,-0.604,0.668,23.7,23.2,-20.9,6.2,-9.4,-22.2,0.4369335,0.112094485,0.406903287,-0.794305246
250,627993,703810,-0.525,-0.596,0.668,23.8,23.5,-21.2,4.8,-9.8,-22.1,0.436292611,0.112552263,0.406720176,-0.794671468
251,629865,703820,-0.525,-0.592,0.664,23.8,23.8,-21.5,4.8,-9.8,-22.1,0.435651723,0.112979522,0.40662862,-0.795007172
252,633316,703820,-0.525,-0.589,0.664,23.8,24,-21.6,4.8,-9.8,-22.1,0.435010834,0.1134373,0.406476028,-0.795373394
253,634773,703820,-0.517,-0.585,0.656,23.8,24.3,-21.7,4.8,-9.8,-22.1,0.434339427,0.113864559,0.406353954,-0.795739616
254,637782,703820,-0.513,-0.585,0.656,23.8,24.5,-21.7,8.2,-9.6,-22.5,0.433698538,0.114352855,0.40623188,-0.79607532
255,640003,703830,-0.509,-0.581,0.652,23.8,24.7,-21.8,8.2,-9.6,-22.5,0.433027131,0.114810633,0.406109806,-0.796441542
256,642772,703830,-0.505,-0.581,0.656,23.7,24.9,-21.8,8.2,-9.6,-22.5,0.432355724,0.11526841,0.405987732,-0.796807764
257,645708,703830,-0.505,-0.581,0.656,23.7,25.1,-22.1,8.2,-9.6,-22.5,0.431714835,0.115756706,0.405865658,-0.797143468
258,647301,703830,-0.493,-0.585,0.655,23.7,25.4,-22.4,8.9,-9.3,-22.1,0.431012909,0.116214484,0.405743583,-0.79750969
259,649955,703840,-0.489,-0.582,0.663,23.7,25.7,-22.8,8.9,-9.3,-22.1,0.430341502,0.116672262,0.405621509,-0.797845393
260,652817,703840,-0.493,-0.589,0.663,23.6,26,-23.3,8.9,-9.3,-22.1,0.429639576,0.117160558,0.405529954,-0.798242134
261,655437,703840,-0.493,-0.593,0.659,23.5,26.5,-23.6,8.9,-9.3,-22.1,0.428937651,0.117618336,0.405438398,-0.798608356
262,657292,703840,-0.489,-0.589,0.663,23.5,27,-24.1,8.7,-9.7,-21.9,0.428205206,0.118106632,0.405316324,-0.798974578
263,660707,703850,-0.493,-0.593,0.663,23.6,27.4,-24.4,8.7,-9.7,-21.9,0.427472762,0.118594928,0.405224769,-0.7993408
264,663608,703850,-0.493,-0.585,0.663,23.7,27.8,-24.6,8.7,-9.7,-21.9,0.426740318,0.119083224,0.405133213,-0.799707022
265,664995,703850,-0.493,-0.577,0.659,23.7,28.3,-24.8,8.7,-9.7,-21.9,0.426007874,0.11957152,0.405072176,-0.800073244
266,667788,703850,-0.493,-0.566,0.651,23.7,28.7,-25,8.9,-9.5,-21.6,0.425122837,0.119663076,0.404950102,-0.800561541
267,670775,703860,-0.493,-0.566,0.651,23.5,29.1,-25.2,8.9,-9.5,-21.6,0.424359874,0.12018189,0.404889065,-0.800927763
268,672427,703860,-0.493,-0.558,0.655,23.2,29.6,-25.4,8.9,-9.5,-21.6,0.423596912,0.120700705,0.404828028,-0.801293985
269,675440,703860,-0.489,-0.558,0.659,22.9,29.9,-25.7,8.9,-9.5,-21.6,0.422833949,0.121189001,0.404766991,-0.801660207
270,678277,703860,-0.489,-0.558,0.651,22.6,30.2,-25.9,7,-9.9,-21.8,0.422040468,0.121677297,0.404705954,-0.801995911
271,679768,703870,-0.489,-0.554,0.651,22.4,30.6,-26.2,7,-9.9,-21.8,0.421246986,0.12222663,0.404675436,-0.802362133
272,682862,703870,-0.489,-0.566,0.647,22.3,31,-26.4,7,-9.9,-21.8,0.420453505,0.122745445,0.404644917,-0.802728355
273,684930,703870,-0.489,-0.57,0.64,22.3,31.3,-26.6,7,-9.9,-21.8,0.419660024,0.12326426,0.404614399,-0.803094577
274,687809,703870,-0.493,-0.578,0.64,22.3,31.6,-26.8,8.2,-9.6,-21.7,0.418836024,0.123783074,0.40458388,-0.80343028
275,690974,703880,-0.497,-0.574,0.636,22.4,32,-27.1,8.2,-9.6,-21.7,0.418012024,0.124301889,0.404553362,-0.803796503
276,692429,703880,-0.501,-0.581,0.64,22.4,32.4,-27.2,8.2,-9.6,-21.7,0.417188025,0.124820704,0.404522843,-0.804162725
277,695413,703880,-0.497,-0.577,0.632,22.5,32.9,-27.4,8.2,-9.6,-21.7,0.416364025,0.125370037,0.404522843,-0.804528947
278,699327,703880,-0.497,-0.581,0.632,22.6,33.4,-27.6,8.2,-9.9,-21.3,0.415509507,0.12591937,0.404492325,-0.80486465
279,701603,703890,-0.505,-0.581,0.636,22.9,33.9,-27.9,8.2,-9.9,-21.3,0.414654988,0.126468703,0.404461806,-0.805230873
280,703429,703890,-0.505,-0.581,0.636,23.5,34.3,-28.1,8.2,-9.9,-21.3,0.41380047,0.127048555,0.404461806,-0.805597095
281,705008,703890,-0.505,-0.585,0.632,24.2,34.5,-28.2,8.2,-9.9,-21.3,0.412945952,0.127628407,0.404400769,-0.805963317
282,707435,703890,-0.509,-0.585,0.636,24.8,34.7,-28.4,6.4,-10,-21.4,0.412060915,0.128208258,0.404370251,-0.806360057
283,711589,703900,-0.509,-0.589,0.628,25.5,34.9,-28.7,6.4,-10,-21.4,0.411175878,0.12878811,0.404309214,-0.806726279
284,713836,703900,-0.505,-0.589,0.624,26,35.1,-29.2,6.4,-10,-21.4,0.410260323,0.12939848,0.404248177,-0.80712302
285,715347,703900,-0.505,-0.589,0.617,26.6,35.3,-29.6,6.4,-10,-21.4,0.409375286,0.129978332,0.40418714,-0.807519761
286,717711,703900,-0.505,-0.593,0.613,27.2,35.3,-30.2,7.2,-10.2,-21.2,0.408215583,0.130191961,0.404339732,-0.808008057
287,720144,703910,-0.505,-0.589,0.613,27.8,35.4,-30.6,7.2,-10.2,-21.2,0.407300027,0.130802332,0.404248177,-0.808404798
288,722533,703910,-0.513,-0.593,0.601,28.5,35.6,-31.1,7.2,-10.2,-21.2,0.406353954,0.131412702,0.404156621,-0.808832057
289,726605,703910,-0.513,-0.593,0.601,29.3,36,-31.5,7.2,-10.2,-21.2,0.405377361,0.132023072,0.404034547,-0.809259316
290,728893,703910,-0.517,-0.593,0.601,30.2,36.4,-31.8,9.7,-10.4,-21.4,0.404431288,0.132663961,0.403942991,-0.809717093
291,731272,703920,-0.521,-0.585,0.601,31.2,36.8,-32,9.7,-10.4,-21.4,0.403424177,0.133304849,0.403790399,-0.810174871
292,734112,703920,-0.521,-0.581,0.597,32,37.1,-32.2,9.7,-10.4,-21.4,0.402447584,0.133945738,0.403637806,-0.810632649
293,736279,703920,-0.521,-0.581,0.597,32.9,37.3,-32.5,9.7,-10.4,-21.4,0.401440474,0.134617145,0.403485214,-0.811090426
294,737714,703920,-0.525,-0.565,0.605,33.6,37.4,-32.7,6.5,-9.9,-21.2,0.400433363,0.135288553,0.403302103,-0.811548204
295,740914,703930,-0.525,-0.565,0.613,34.3,37.5,-32.9,6.5,-9.9,-21.2,0.399426252,0.13595996,0.403118992,-0.8120365
296,742455,703930,-0.525,-0.553,0.609,34.7,37.8,-33.1,6.5,-9.9,-21.2,0.398388623,0.136631367,0.402935881,-0.812524796
297,745006,703930,-0.529,-0.553,0.613,35,38,-33.3,6.5,-9.9,-21.2,0.397350993,0.137333293,0.40275277,-0.813013092
298,747348,703930,-0.524,-0.538,0.617,35,38.3,-33.6,6.8,-10.3,-20.9,0.396313364,0.1380047,0.402569658,-0.81347087
299,751492,703940,-0.516,-0.534,0.621,35,38.5,-33.8,6.8,-10.3,-20.9,0.395275735,0.138706626,0.402386547,-0.813959166
300,752435,703940,-0.516,-0.534,0.621,34.9,38.6,-33.9,6.8,-10.3,-20.9,0.394238105,0.139408551,0.402203436,-0.814447462
301,754926,703940,-0.516,-0.53,0.625,34.7,38.9,-34.1,6.8,-10.3,-20.9,0.393169958,0.140079958,0.402020325,-0.814935759
302,758325,703940,-0.516,-0.526,0.636,34.6,39.3,-34.3,7,-10.4,-20.8,0.392132328,0.140781884,0.401837214,-0.815424055
303,759943,703950,-0.516,-0.526,0.625,34.3,39.7,-34.4,7,-10.4,-20.8,0.39106418,0.14148381,0.401684622,-0.815881832
304,763333,703950,-0.52,-0.526,0.629,33.9,40.2,-34.5,7,-10.4,-20.8,0.389965514,0.142185736,0.401532029,-0.81633961
305,765113,703950,-0.524,-0.518,0.629,33.4,40.7,-34.5,7,-10.4,-20.8,0.388897366,0.142887661,0.401379437,-0.816797388
306,767507,703950,-0.528,-0.522,0.621,32.8,41,-34.5,7.8,-10.2,-20.6,0.387859737,0.14352855,0.401135289,-0.817316202
307,770080,703960,-0.532,-0.522,0.629,32.2,41,-34.5,7.8,-10.2,-20.6,0.386761071,0.144230476,0.401013215,-0.81777398
308,772555,703960,-0.532,-0.526,0.625,31.5,41.1,-34.5,7.8,-10.2,-20.6,0.385692923,0.144932402,0.400860622,-0.818201239
309,774967,703960,-0.536,-0.525,0.629,30.9,41.3,-34.7,7.8,-10.2,-20.6,0.384624775,0.145634327,0.400799585,-0.818628498
310,777649,703960,-0.536,-0.529,0.629,30.1,41.6,-34.8,10.7,-11.9,-20.5,0.383526109,0.146336253,0.400738548,-0.819055757
311,779969,703970,-0.532,-0.526,0.633,29.4,42,-34.9,10.7,-11.9,-20.5,0.382427442,0.14700766,0.400677511,-0.819483016
312,782395,703970,-0.532,-0.522,0.633,28.5,42.1,-34.9,10.7,-11.9,-20.5,0.381328776,0.147679067,0.400616474,-0.819879757
313,785694,703970,-0.536,-0.522,0.629,27.7,42.5,-35.1,10.7,-11.9,-20.5,0.380260628,0.148380993,0.400585955,-0.820276498
314,787829,703970,-0.532,-0.522,0.625,26.8,42.8,-35.1,10.3,-9.1,-20,0.379161962,0.149082919,0.400585955,-0.820673238
315,790170,703980,-0.536,-0.514,0.621,25.9,43,-35.2,10.3,-9.1,-20,0.378093814,0.149754326,0.400585955,-0.82103946
316,792727,703980,-0.532,-0.51,0.617,25.1,43.1,-35.3,10.3,-9.1,-20,0.376995148,0.150425733,0.400616474,-0.821405683
317,795323,703980,-0.544,-0.502,0.613,24.1,43.2,-35.3,10.3,-9.1,-20,0.375896481,0.151066622,0.400646992,-0.821771905
318,798031,703980,-0.548,-0.498,0.598,23.1,43.4,-35.2,11.3,-9.2,-20.2,0.374797815,0.151738029,0.400708029,-0.822107608
319,799969,703990,-0.556,-0.494,0.59,21.9,43.6,-35.2,11.3,-9.2,-20.2,0.373729667,0.152409436,0.400769066,-0.822443312
320,802959,703990,-0.556,-0.494,0.59,21.9,43.6,-35.2,11.3,-9.2,-20.2,0.373729667,0.152409436,0.400769066,-0.822443312
321,805947,703990,-0.568,-0.501,0.559,20,43.7,-35.2,11.3,-9.2,-20.2,0.371562853,0.153691214,0.400982696,-0.823084201
322,807403,703990,-0.568,-0.501,0.559,20,43.7,-35.2,11.3,-9.2,-20.2,0.371562853,0.153691214,0.400982696,-0.823084201
323,810037,704000,-0.568,-0.501,0.559,20,43.7,-35.2,11.3,-9.2,-20.2,0.371562853,0.153691214,0.400982696,-0.823084201
324,812170,704000,-0.568,-0.501,0.559,20,43.7,-35.2,11.3,-9.2,-20.2,0.371562853,0.153691214,0.400982696,-0.823084201
325,815136,704000,-0.568,-0.501,0.559,20,43.7,-35.2,11.3,-9.2,-20.2,0.371562853,0.153691214,0.400982696,-0.823084201
326,819150,704000,-0.616,-0.536,0.526,18.3,44.3,-37,11.9,-9,-20,0.36610004,0.157322916,0.402020325,-0.824335459
327,821466,704010,-0.616,-0.536,0.526,18.3,44,-37.7,11.9,-9,-20,0.364970855,0.157933287,0.402172918,-0.824640645
328,822918,704010,-0.62,-0.543,0.534,18.6,43.7,-38.2,11.9,-9,-20,0.36384167,0.158543657,0.40232551,-0.824976348
329,825035,704010,-0.628,-0.551,0.53,19.1,43.3,-38.8,11.9,-9,-20,0.362681967,0.159123508,0.402447584,-0.825281533
330,827434,704010,-0.632,-0.547,0.534,20.1,42.9,-39.3,11.5,-10.4,-19.8,0.361522263,0.15970336,0.402569658,-0.825647755
331,829910,704020,-0.636,-0.551,0.542,21.2,42.5,-39.7,11.5,-10.4,-19.8,0.36036256,0.160283212,0.402661214,-0.825983459
332,833442,704020,-0.648,-0.551,0.562,22.5,42.1,-40.1,11.5,-10.4,-19.8,0.359202857,0.160863063,0.402722251,-0.826349681
333,834939,704020,-0.648,-0.551,0.562,23.8,41.7,-40.4,11.5,-10.4,-19.8,0.358012635,0.161473434,0.402783288,-0.826715903
334,837414,704020,-0.652,-0.546,0.558,25.2,41.2,-40.6,11.6,-11.7,-19.4,0.356822413,0.162053285,0.402783288,-0.827112644
335,840943,704030,-0.668,-0.542,0.574,26.6,40.7,-40.8,11.6,-11.7,-19.4,0.355632191,0.162633137,0.40275277,-0.827539903
336,842417,704030,-0.672,-0.538,0.578,27.9,40.2,-40.9,11.6,-11.7,-19.4,0.354441969,0.163212989,0.402722251,-0.827936644
337,845208,704030,-0.675,-0.534,0.59,29.1,39.8,-41.1,11.6,-11.7,-19.4,0.353251747,0.16379284,0.402630696,-0.828394421
338,848342,704030,-0.679,-0.534,0.594,30.1,39.4,-41.2,12.2,-12.2,-19.4,0.352031007,0.164372692,0.40253914,-0.82882168
339,849968,704040,-0.679,-0.526,0.594,30.9,39,-41.3,12.2,-12.2,-19.4,0.350840785,0.164952544,0.402447584,-0.829279458
340,853489,704040,-0.687,-0.514,0.602,31.3,38.5,-41.3,12.2,-12.2,-19.4,0.349650563,0.165532395,0.40232551,-0.829737236
341,854932,704040,-0.687,-0.51,0.594,31.3,37.9,-41.2,12.2,-12.2,-19.4,0.348460341,0.166112247,0.402172918,-0.830164495
342,858009,704040,-0.687,-0.51,0.598,31.2,37.3,-41.1,12.3,-13.8,-19.5,0.347270119,0.16666158,0.402050844,-0.830622272
343,859734,704050,-0.699,-0.49,0.598,30.9,36.8,-41,12.3,-13.8,-19.5,0.346079897,0.167180395,0.40192877,-0.83108005
344,862417,704050,-0.702,-0.478,0.602,30.7,36.3,-40.7,12.3,-13.8,-19.5,0.344920194,0.167729728,0.401776177,-0.831507309
345,865467,704050,-0.706,-0.474,0.594,30.3,35.8,-40.4,12.3,-13.8,-19.5,0.343760491,0.168248543,0.401654103,-0.831965087
346,868533,704050,-0.71,-0.47,0.594,29.8,35.2,-40,12.7,-13.8,-19.2,0.34275338,0.169164098,0.401470992,-0.832270272
347,870006,704060,-0.718,-0.458,0.595,29.2,34.6,-39.6,12.7,-13.8,-19.2,0.341624195,0.169682913,0.401348918,-0.832667013
348,872747,704060,-0.718,-0.462,0.595,28.4,33.9,-39.2,12.7,-13.8,-19.2,0.340525529,0.17014069,0.401226844,-0.833094272
349,875859,704060,-0.726,-0.45,0.595,27.6,33.2,-38.7,12.7,-13.8,-19.2,0.339426862,0.170628986,0.401135289,-0.833491012
350,877291,704060,-0.726,-0.443,0.599,26.7,32.6,-38.1,13,-8.6,-17.4,0.338328196,0.171086764,0.401013215,-0.833887753
351,880245,704070,-0.721,-0.431,0.598,25.6,32,-37.6,13,-8.6,-17.4,0.337290567,0.171544542,0.400921659,-0.834284494
352,882619,704070,-0.729,-0.427,0.606,24.2,31.4,-37.2,13,-8.6,-17.4,0.336222419,0.171971801,0.400860622,-0.834650716
353,884822,704070,-0.733,-0.407,0.599,22.8,30.8,-37,13,-8.6,-17.4,0.335215308,0.172368542,0.400799585,-0.834986419
354,887320,704070,-0.745,-0.387,0.587,21.1,30,-36.8,13.5,-11.1,-20.4,0.334177679,0.172734764,0.400769066,-0.835352641
355,891654,704080,-0.749,-0.379,0.58,19.5,29.2,-36.7,13.5,-11.1,-20.4,0.333201086,0.173070467,0.400769066,-0.835657826
356,893840,704080,-0.752,-0.371,0.58,18.1,28.2,-36.6,13.5,-11.1,-20.4,0.332193976,0.173436689,0.400799585,-0.83599353
357,895596,704080,-0.756,-0.371,0.572,16.6,27.2,-36.6,13.5,-11.1,-20.4,0.331247902,0.173711356,0.400830103,-0.836298715
358,897820,704080,-0.764,-0.375,0.56,15.1,26.1,-36.7,13.7,-10.8,-20.8,0.33027131,0.173986023,0.400860622,-0.8366039
359,900008,704090,-0.769,-0.379,0.553,13.5,24.9,-36.9,13.7,-10.8,-20.8,0.329325236,0.174230171,0.400952177,-0.836878567
360,902973,704090,-0.78,-0.378,0.545,11.8,23.8,-37.2,13.7,-10.8,-20.8,0.32840968,0.174413282,0.401043733,-0.837153233
361,905310,704090,-0.789,-0.386,0.534,10,22.8,-37.8,13.7,-10.8,-20.8,0.327463607,0.174565874,0.401165807,-0.8374279
362,907511,704090,-0.808,-0.39,0.53,8.2,22,-38.4,14.1,-9.2,-20.6,0.326548051,0.174687948,0.4013184,-0.837702567
363,909869,704100,-0.82,-0.389,0.523,6.3,21.3,-39,14.1,-9.2,-20.6,0.325632496,0.174779504,0.401501511,-0.837946715
364,912241,704100,-0.832,-0.389,0.515,4.7,20.6,-39.6,14.1,-9.2,-20.6,0.324686422,0.174871059,0.40171514,-0.838190863
365,915795,704100,-0.856,-0.385,0.536,3.2,19.6,-40.1,14.1,-9.2,-20.6,0.323770867,0.174901578,0.401959288,-0.838435011
366,917428,704100,-0.876,-0.38,0.54,1.7,18.6,-40.5,14.3,-8.5,-20.5,0.323648793,0.176976836,0.402050844,-0.837977233
367,920257,704110,-0.887,-0.368,0.552,0.1,17.7,-40.9,14.3,-8.5,-20.5,0.322733238,0.176976836,0.402356029,-0.838190863
368,922436,704110,-0.895,-0.364,0.568,-1.3,16.9,-41.3,14.3,-8.5,-20.5,0.321848201,0.176915799,0.402661214,-0.838404492
369,924852,704110,-0.923,-0.356,0.592,-3,16.3,-41.5,14.3,-8.5,-20.5,0.320963164,0.176824244,0.402966399,-0.838618122
370,928512,704110,-0.934,-0.347,0.616,-4.7,15.7,-41.4,14,-10.3,-18.7,0.320078127,0.176732688,0.403332621,-0.838801233
371,930036,704120,-0.954,-0.335,0.628,-6.5,15.1,-41.2,14,-10.3,-18.7,0.319223609,0.176610614,0.403729362,-0.838984344
372,933010,704120,-0.966,-0.323,0.64,-8.5,14.5,-40.7,14,-10.3,-18.7,0.318369091,0.176458022,0.404126102,-0.839136937
373,935822,704120,-0.989,-0.299,0.672,-8.5,14.5,-40.7,14,-10.3,-18.7,0.317545091,0.176274911,0.404553362,-0.839259011
374,937342,704120,-1,-0.283,0.691,-10.6,13.7,-40,14,-10.4,-19.1,0.316721091,0.176122318,0.404980621,-0.839411603
375,941006,704130,-1.008,-0.263,0.707,-12.8,13,-39,14,-10.4,-19.1,0.31592761,0.175908689,0.405468917,-0.839503159
376,942467,704130,-1.023,-0.235,0.731,-15.1,12,-38,14,-10.4,-19.1,0.315195166,0.175695059,0.405987732,-0.839594714
377,945507,704130,-1.043,-0.227,0.743,-17.5,11,-36.7,14,-10.4,-19.1,0.31449324,0.175450911,0.406506546,-0.839655751
378,947874,704130,-1.047,-0.219,0.747,-20,10,-35.4,14.4,-9.9,-18.7,0.313821833,0.175176244,0.407086398,-0.83968627
379,950019,704140,-1.055,-0.215,0.751,-22.8,9,-33.6,14.4,-9.9,-18.7,0.313211463,0.174901578,0.407696768,-0.839655751
380,952824,704140,-1.075,-0.214,0.748,-25.4,8.2,-31.4,14.4,-9.9,-18.7,0.31266213,0.174596393,0.408337657,-0.839625233
381,955846,704140,-1.082,-0.214,0.748,-28,7,-28.8,14.4,-9.9,-18.7,0.312173833,0.174260689,0.409009064,-0.839533677
382,957372,704140,-1.091,-0.222,0.748,-30.4,5.7,-26.1,14.4,-9.4,-16.3,0.311777093,0.173955504,0.40971099,-0.839411603
383,960306,704150,-1.11,-0.221,0.749,-32.8,4.3,-23.2,14.4,-9.4,-16.3,0.311441389,0.173589282,0.410412915,-0.839259011
384,962538,704150,-1.138,-0.205,0.742,-35.1,2.9,-20.5,14.4,-9.4,-16.3,0.311166723,0.17322306,0.411175878,-0.8390759
385,964994,704150,-1.154,-0.201,0.742,-37.3,1.3,-17.6,14.4,-9.4,-16.3,0.310953093,0.172826319,0.411938841,-0.83886227
386,967492,704150,-1.177,-0.18,0.735,-41.8,-2.3,-12.3,14.5,-9.6,-17.2,0.310922575,0.17239906,0.412732322,-0.838587603
387,971604,704160,-1.177,-0.18,0.735,-41.8,-2.3,-12.3,14.5,-9.6,-17.2,0.310861538,0.171941282,0.413525803,-0.838282418
388,973870,704160,-1.209,-0.148,0.736,-44,-4.3,-9.6,14.5,-9.6,-17.2,0.310892056,0.171483505,0.414319285,-0.837977233
389,976043,704160,-1.224,-0.136,0.744,-46,-6.5,-6.8,14.5,-9.6,-17.2,0.31101413,0.170995209,0.415143284,-0.83764153
390,978335,704160,-1.236,-0.12,0.74,-47.5,-8.8,-3.8,14.4,-9.6,-21.1,0.311197241,0.170476394,0.415967284,-0.837275307
391,979930,704170,-1.26,-0.112,0.737,-48.7,-11.4,-0.7,14.4,-9.6,-21.1,0.311471908,0.169927061,0.416791284,-0.836878567
392,983157,704170,-1.267,-0.1,0.749,-49.7,-14.3,2.2,14.4,-9.6,-21.1,0.311807611,0.169347209,0.417584765,-0.836451308
393,984784,704170,-1.291,-0.091,0.749,-50.4,-17.4,5.1,14.4,-9.6,-21.1,0.312265389,0.168736839,0.418378246,-0.836024049
394,987999,704170,-1.303,-0.087,0.75,-50.9,-20.5,7.7,14.8,-9.3,-17.9,0.312784204,0.16809595,0.419141209,-0.835566271
395,989945,704180,-1.334,-0.059,0.797,-50.9,-23.7,10.4,14.8,-9.3,-17.9,0.313364055,0.167394024,0.419873653,-0.835139012
396,992751,704180,-1.357,-0.035,0.806,-50.6,-27.1,12.8,14.8,-9.3,-17.9,0.314035463,0.16666158,0.420545061,-0.834681234
397,995058,704180,-1.384,0,0.818,-50.1,-30.3,15,14.8,-9.3,-17.9,0.314767907,0.165929136,0.421216468,-0.834223457
398,997335,704180,-1.4,0.032,0.822,-49.3,-33.3,16.7,14.3,-9,-17.8,0.315561388,0.165135655,0.421826838,-0.833765679
399,999863,704190,-1.43,0.107,0.854,-48.1,-36.2,17.7,14.3,-9,-17.8,0.316385388,0.164281137,0.422345653,-0.83333842
400,1003302,704190,-1.449,0.143,0.878,-46.6,-39.3,18.2,14.3,-9,-17.8,0.317239906,0.163426618,0.422894986,-0.832911161
401,1004882,704190,-1.465,0.167,0.882,-44.8,-42.6,18.3,14.3,-9,-17.8,0.318124943,0.162511063,0.423352763,-0.832544939
402,1007442,704190,-1.48,0.195,0.91,-42.5,-45.9,18.6,14.1,-9.1,-18.5,0.319040498,0.161564989,0.423718986,-0.832178716
403,1011638,704200,-1.523,0.251,0.973,-39.6,-49.1,19.4,14.1,-9.1,-18.5,0.319986572,0.160557878,0.424024171,-0.831843013
404,1013372,704200,-1.531,0.251,0.997,-36.2,-52,20.8,14.1,-9.1,-18.5,0.320993683,0.159550768,0.424268319,-0.831537828
405,1015157,704200,-1.55,0.272,1.025,-32.7,-54.5,22.8,14.1,-9.1,-18.5,0.322000793,0.158543657,0.424390393,-0.831263161
406,1017454,704200,-1.585,0.316,1.08,-27.8,-58.5,27.6,14.3,-8.8,-19.6,0.323160497,0.157536546,0.424390393,-0.831019013
407,1020112,704210,-1.6,0.328,1.1,-27.8,-58.5,27.6,14.3,-8.8,-19.6,0.324289682,0.156559954,0.424390393,-0.830774865
408,1022301,704210,-1.624,0.352,1.12,-27,-60.1,30,14.3,-8.8,-19.6,0.325479904,0.155552843,0.424359874,-0.830500198
409,1025737,704210,-1.651,0.388,1.129,-27.5,-61.6,32.2,14.3,-8.8,-19.6,0.326731162,0.154515213,0.424298837,-0.830225532
410,1027533,704210,-1.678,0.428,1.133,-29,-63.1,34.3,13.4,-9.2,-20.6,0.328043458,0.153508103,0.424268319,-0.829920347
411,1030487,704220,-1.674,0.436,1.137,-31.6,-64.5,35.9,13.4,-9.2,-20.6,0.329386273,0.152439955,0.424268319,-0.829584643
412,1032643,704220,-1.674,0.448,1.137,-34.8,-65.8,37.1,13.4,-9.2,-20.6,0.330790124,0.151341288,0.424298837,-0.829218421
413,1034934,704220,-1.67,0.459,1.129,-38.2,-67.4,38.1,13.4,-9.2,-20.6,0.332224494,0.150181585,0.424359874,-0.82882168
414,1037412,704220,-1.661,0.494,1.113,-41.3,-69.3,39.1,12.7,-8.8,-20.2,0.333719901,0.148991363,0.424481948,-0.828363903
415,1040861,704230,-1.657,0.51,1.097,-44,-71.5,40.7,12.7,-8.8,-20.2,0.335245827,0.147770623,0.424634541,-0.827906125
416,1042440,704230,-1.665,0.538,1.097,-46.5,-73.9,42.5,12.7,-8.8,-20.2,0.336863308,0.146488845,0.424787133,-0.82738731
417,1044910,704230,-1.664,0.593,1.07,-49.3,-76.3,44.7,12.7,-8.8,-20.2,0.338541826,0.145146031,0.424970244,-0.826837977
418,1047262,704230,-1.652,0.62,1.073,-52.7,-78.4,47,12.1,-9.1,-21,0.340281381,0.143772698,0.425183874,-0.826258126
419,1050604,704240,-1.671,0.652,1.062,-56.5,-80.4,49.6,12.1,-9.1,-21,0.342081973,0.142368847,0.425458541,-0.825617237
420,1052248,704240,-1.667,0.675,1.062,-60.6,-82.2,52.4,12.1,-9.1,-21,0.34397412,0.140934477,0.425763726,-0.824915311
421,1054884,704240,-1.686,0.711,1.051,-64.9,-83.9,55.4,12.1,-9.1,-21,0.345957823,0.13943907,0.426129948,-0.824152348
422,1058183,704240,-1.69,0.727,1.058,-69.3,-85.7,58.6,11.4,-8.7,-21.2,0.348033082,0.137913144,0.426557207,-0.823328349
423,1060343,704250,-1.702,0.727,1.067,-73.7,-87.7,61.9,11.4,-8.7,-21.2,0.350169378,0.1363567,0.427014985,-0.822412793
424,1063307,704250,-1.713,0.723,1.075,-77.8,-89.9,65.1,11.4,-8.7,-21.2,0.352397229,0.134769738,0.427533799,-0.82146672
425,1064908,704250,-1.773,0.725,1.065,-81.7,-92.2,68.2,11.4,-8.7,-21.2,0.354747154,0.133121738,0.428083132,-0.82042909
426,1067827,704250,-1.805,0.726,1.042,-88.7,-96.6,74.1,11.1,-8.6,-21.4,0.357219153,0.131382183,0.428724021,-0.819330424
427,1070946,704260,-1.845,0.73,1.023,-88.7,-96.6,74.1,11.1,-8.6,-21.4,0.359691153,0.129673147,0.429334391,-0.818170721
428,1072439,704260,-1.896,0.751,1.005,-91.6,-98.6,76,11.1,-8.6,-21.4,0.362254707,0.127903073,0.42997528,-0.817011017
429,1075317,704260,-2.03,0.801,0.954,-93.7,-100.7,76.2,11.1,-8.6,-21.4,0.364818262,0.126071963,0.430646687,-0.815790277
430,1078457,704260,-2.086,0.81,0.916,-94.5,-103.1,74.4,9.9,-8.5,-21.1,0.367351299,0.124179815,0.431287576,-0.814600055
431,1079938,704270,-2.145,0.835,0.891,-93.2,-106.3,70.7,9.9,-8.5,-21.1,0.369853816,0.12222663,0.431897946,-0.813440352
432,1082846,704270,-2.288,0.886,0.847,-89.4,-110.3,65,9.9,-8.5,-21.1,0.372295297,0.120151372,0.432416761,-0.812341685
433,1085865,704270,-2.351,0.915,0.826,-82.7,-115.4,57.9,9.9,-8.5,-21.1,0.374614704,0.117984558,0.432813501,-0.811395611
434,1087377,704270,-2.418,0.924,0.804,-73.3,-121.2,50.7,10.4,-8.7,-20.7,0.376842555,0.115695669,0.432966094,-0.81060213
435,1090215,704280,-2.514,0.887,0.799,-62.2,-126.3,46,10.4,-8.7,-20.7,0.379009369,0.113376263,0.432905057,-0.809961241
436,1093317,704280,-2.718,0.762,0.836,-50.3,-129.6,46.3,10.4,-8.7,-20.7,0.381176183,0.111117893,0.43263039,-0.809411908
437,1094965,704280,-2.794,0.728,0.83,-38.1,-130.7,51.5,10.4,-8.7,-20.7,0.383434553,0.108981597,0.432081057,-0.808923612
438,1097428,704280,-2.862,0.69,0.84,-25.8,-130.7,59.1,9.5,-8.3,-20.7,0.38575396,0.107028413,0.431287576,-0.808496353
439,1100871,704290,-2.938,0.653,0.834,-13.5,-130.8,65.6,9.5,-8.3,-20.7,0.388164922,0.105227821,0.430280465,-0.808130131
440,1102408,704290,-3.019,0.608,0.821,-1.4,-131.9,69,9.5,-8.3,-20.7,0.390636921,0.103518784,0.429029206,-0.807824946
441,1104909,704290,-3.035,0.584,0.798,10,-133.9,69.3,9.5,-8.3,-20.7,0.393047884,0.101901303,0.427564318,-0.807611316
442,1108337,704290,-3.039,0.577,0.775,21.1,-136.5,67.7,8.6,-8.6,-21.4,0.395489364,0.100314341,0.425855281,-0.807550279
443,1109946,704300,-3.035,0.58,0.767,32.4,-139.5,65.1,8.6,-8.6,-21.4,0.397869808,0.0987273782,0.423932615,-0.807580798
444,1112686,704300,-3.011,0.615,0.77,44.3,-142.1,62.5,8.6,-8.6,-21.4,0.400189215,0.0972014527,0.421765801,-0.80773339
445,1115892,704300,-2.991,0.646,0.765,56.9,-144.2,60.6,8.6,-8.6,-21.4,0.402478103,0.0957060457,0.419385357,-0.808038575
446,1117490,704300,-2.945,0.747,0.756,80.5,-145.9,58.4,7.7,-9.4,-21.3,0.404644917,0.0943327128,0.416547136,-0.80855739
447,1120507,704310,-2.905,0.805,0.751,80.5,-145.9,58.4,7.7,-9.4,-21.3,0.40684225,0.0930509354,0.413739433,-0.809076205
448,1122246,704310,-2.864,0.855,0.746,89,-146.3,57.5,7.7,-9.4,-21.3,0.409009064,0.091769158,0.410748619,-0.809656056
449,1126683,704310,-2.844,0.926,0.741,94.2,-146.6,55.7,7.7,-9.4,-21.3,0.411114841,0.0905178991,0.407635731,-0.810296945
450,1128917,704310,-2.823,0.972,0.74,96.4,-146.9,52.6,4.4,-10.1,-21.3,0.413159581,0.0892361217,0.404522843,-0.810968352
451,1131007,704320,-2.758,1.081,0.734,96.1,-147.1,48,4.4,-10.1,-21.3,0.415112766,0.0879238258,0.401379437,-0.81163976
452,1133321,704320,-2.729,1.12,0.741,93.8,-147.1,41.9,4.4,-10.1,-21.3,0.416974395,0.0865199744,0.398297067,-0.812372204
453,1135523,704320,-2.693,1.154,0.768,90.5,-146.9,34.7,4.4,-10.1,-21.3,0.418683432,0.0850550859,0.395306253,-0.813104648
454,1137862,704320,-2.665,1.173,0.818,86.3,-146.3,26.6,7.2,-10,-20.8,0.420239875,0.0834986419,0.392376476,-0.813867611
455,1140049,704330,-2.616,1.204,0.922,81.8,-144.6,17.8,7.2,-10,-20.8,0.421643727,0.0818201239,0.389568773,-0.814661092
456,1143780,704330,-2.6,1.231,0.956,77.1,-141.5,8,7.2,-10,-20.8,0.422864467,0.0800805689,0.386883145,-0.81551561
457,1145227,704330,-2.607,1.251,0.945,72.4,-137.3,-3.5,7.2,-10,-20.8,0.42384106,0.0782799768,0.38431959,-0.816370128
458,1149109,704330,-2.627,1.263,0.898,67.9,-132.5,-17.4,6.6,-10.2,-20.6,0.424512467,0.0763878292,0.381908628,-0.817346721
459,1151345,704340,-2.633,1.243,0.637,64.1,-128.3,-33.8,6.6,-10.2,-20.6,0.424878689,0.0744346446,0.379650258,-0.81838435
460,1153515,704340,-2.587,1.21,0.483,61.7,-125.6,-52,6.6,-10.2,-20.6,0.424878689,0.0723288675,0.377422407,-0.81960509
461,1155813,704340,-2.528,1.169,0.326,61.6,-124.7,-71.6,6.6,-10.2,-20.6,0.424512467,0.0700704978,0.37531663,-0.820947905
462,1158014,704340,-2.326,1.011,0.102,65.4,-124.8,-92,6.1,-10.5,-20.3,0.423780023,0.067690054,0.373119297,-0.822534867
463,1160286,704350,-2.201,0.91,0.048,74.9,-124.9,-112.5,6.1,-10.5,-20.3,0.422681356,0.0652180548,0.370769372,-0.824365978
464,1162628,704350,-2.087,0.813,0.053,91.4,-124,-132.7,6.1,-10.5,-20.3,0.421155431,0.0627460555,0.368175298,-0.826502274
465,1165740,704350,-1.977,0.732,0.086,115,-121.5,-153.3,6.1,-10.5,-20.3,0.419202246,0.0603961303,0.365184484,-0.828974273
466,1167312,704350,-1.81,0.685,0.187,176.7,-111.4,-198.6,5.6,-11.3,-20.3,0.416272469,0.0583819086,0.361217078,-0.832331309
467,1170183,704360,-1.726,0.726,0.243,176.7,-111.4,-198.6,5.6,-11.3,-20.3,0.413312174,0.056428724,0.357249672,-0.835657826
468,1173262,704360,-1.621,0.791,0.31,210.1,-104.9,-225.1,5.6,-11.3,-20.3,0.409741508,0.0546586505,0.352732933,-0.839442122
469,1174770,704360,-1.504,0.899,0.451,243.8,-98.5,-255,5.6,-11.3,-20.3,0.405529954,0.053071688,0.347697378,-0.843684194
470,1177809,704360,-1.2,1.187,0.825,278.3,-92.9,-287.5,4.3,-12.3,-19.4,0.400616474,0.051637318,0.342051454,-0.848414563
471,1180855,704370,-1.026,1.329,1.031,313.6,-88.4,-321.7,4.3,-12.3,-19.4,0.394940031,0.0503250221,0.335825678,-0.85360271
472,1182403,704370,-0.844,1.443,1.178,348.4,-84.2,-356.5,4.3,-12.3,-19.4,0.388500626,0.0491042817,0.328989532,-0.859279153
473,1184868,704370,-0.342,1.726,1.476,379.6,-79.4,-391.5,4.3,-12.3,-19.4,0.381298257,0.0480666524,0.321604053,-0.865352336
474,1188378,704370,0.02,1.955,2.04,403.2,-71.9,-427,3.8,-13.6,-18.7,0.373302408,0.0470595416,0.313791314,-0.871730705
475,1190610,704380,0.239,1.859,1.699,415.7,-61.5,-462.9,3.8,-13.6,-18.7,0.36445204,0.0460829493,0.305825983,-0.878322703
476,1192831,704380,0.521,1.864,1.59,417.8,-54.6,-496.5,3.8,-13.6,-18.7,0.35483871,0.04504532,0.297860652,-0.885036775
477,1195089,704380,1.1,1.854,1.473,410.4,-56.5,-525.7,3.8,-13.6,-18.7,0.344615009,0.0437025056,0.289986877,-0.891750847
478,1197427,704380,1.516,1.837,1.544,393.4,-67.4,-550.5,4.1,-14.2,-17.6,0.333903012,0.041871395,0.282326731,-0.898342845
479,1200711,704390,1.953,1.807,1.579,363.7,-80.3,-574.1,4.1,-14.2,-17.6,0.322794275,0.0393993957,0.275093844,-0.904721213
480,1202292,704390,2.405,1.746,1.676,319.7,-90.6,-598.3,4.1,-14.2,-17.6,0.311197241,0.0362865078,0.26862392,-0.910824915
481,1205534,704390,3.427,1.538,1.845,261.7,-97.6,-622.2,4.1,-14.2,-17.6,0.299172948,0.0324716941,0.263222144,-0.916562395
482,1207783,704390,4.035,1.371,1.81,190.8,-101.3,-644,5.2,-14.7,-16.6,0.286721397,0.0279549547,0.259193701,-0.921842097
483,1210132,704400,4.774,1.134,1.697,109.8,-102.2,-663.5,5.2,-14.7,-16.6,0.273842586,0.0228278451,0.256721702,-0.926572466
484,1212377,704400,5.599,0.729,1.387,23.1,-101.7,-681.6,5.2,-14.7,-16.6,0.260597552,0.0170903653,0.25592822,-0.930722983
485,1214763,704400,5.285,-3.226,-8.049,-61.9,-101.2,-697.8,5.2,-14.7,-16.6,0.246986297,0.0108035524,0.256843776,-0.934263131
486,1217688,704400,6.445,-8.087,-8.12,-70.9,-195.1,-677.2,7.3,-13.6,-17.1,0.234260079,0.00265511032,0.25736259,-0.937467574
487,1221518,704410,4.895,-8.212,-8.058,-70.9,-195.1,-677.2,7.3,-13.6,-17.1,0.221472823,-0.0054628132,0.257850887,-0.94042787
488,1223884,704410,7.952,-8.277,-4.257,244.3,-345.6,-546.7,7.3,-13.6,-17.1,0.212195196,-0.0144657735,0.251075777,-0.94430372
489,1225960,704410,7.971,-8.27,0.71,592.3,-523.7,-291.8,7.3,-13.6,-17.1,0.209204382,-0.0241096225,0.236304819,-0.948545793
490,1227520,704410,8.054,-5.422,6.538,660.4,-540.7,26.5,13.4,-16.2,-16.5,0.212866604,-0.0321359905,0.220130009,-0.951384014
491,1230468,704420,8.16,1.151,7.453,322.9,-330.8,192.6,13.4,-16.2,-16.5,0.21866512,-0.0365611744,0.212012085,-0.951750237
492,1232811,704420,2.864,7.623,3.924,-138.1,5.7,108.1,13.4,-16.2,-16.5,0.220770898,-0.0366222114,0.215002899,-0.950590533
493,1235038,704420,1.905,7.962,0.304,-464.9,271.2,-181.4,13.4,-16.2,-16.5,0.215338603,-0.0340891751,0.225775933,-0.94943083
494,1237323,704420,-0.464,7.998,-1.237,-622.8,407.1,-449.6,11.3,-11.3,-17.3,0.20352794,-0.0307626576,0.240241707,-0.94860683
495,1239896,704430,-3.207,8.076,-1.414,-643.9,473.9,-509.9,11.3,-11.3,-17.3,0.19000824,-0.0264900662,0.255256813,-0.947630238
496,1243277,704430,-8.036,8.187,-1.336,-549.6,500.3,-337.6,11.3,-11.3,-17.3,0.179906613,-0.0202642903,0.268471328,-0.946104312
497,1244865,704430,-7.683,8.178,-2.201,-394.8,468.4,-43.7,11.3,-11.3,-17.3,0.176061281,-0.0124515519,0.278420362,-0.944090091
498,1247309,704430,-6.407,7.109,-3.169,-247.2,388.1,191.7,13.8,-9.8,-17.3,0.177587207,-0.00424207282,0.285042879,-0.941892758
499,1250727,704440,-5.397,3.561,-3.209,-143.4,293,295.6,13.8,-9.8,-17.3,0.181798761,0.00305185095,0.289132359,-0.939848018
500,1252325,704440,-3.163,-0.666,-2.366,-71.1,207.4,299.9,13.8,-9.8,-17.3,0.186651204,0.00891140477,0.291390728,-0.9381695
501,1255191,704440,-1.227,-1.895,-0.601,16.5,124,272.8,13.8,-9.8,-17.3,0.19144261,0.0132450331,0.291482284,-0.937101352
502,1258401,704440,-1.976,-3.679,-1.236,144.9,38.1,252.2,14.9,-9.9,-16.8,0.196295053,0.016235847,0.288613544,-0.936948759
503,1259956,704450,-2.487,-6.538,0.355,282.9,-36,257.6,14.9,-9.9,-16.8,0.201696829,0.0183111057,0.282570879,-0.937589648
504,1263016,704450,-1.938,-7.198,0.999,377.3,-75.7,255.9,14.9,-9.9,-16.8,0.207220679,0.0200201422,0.274391919,-0.93877987
505,1265282,704450,-1.323,-6.725,1.04,387,-79.6,212.3,14.9,-9.9,-16.8,0.211890011,0.0214239937,0.265999329,-0.940122684
506,1267486,704450,-0.146,-3.745,1.073,221.6,-59.5,21.7,15.2,-12.2,-16,0.212561419,0.0213324381,0.261177404,-0.941343425
507,1269777,704460,0.194,-2.341,1.435,221.6,-59.5,21.7,15.2,-12.2,-16,0.213232826,0.0212408826,0.256324961,-0.942503128
508,1272263,704460,0.439,-1.254,1.808,135.1,-61.2,-35.1,15.2,-12.2,-16,0.212805567,0.0204474013,0.25327311,-0.943449202
509,1276621,704460,0.499,-0.5,1.98,78.7,-66.7,-53.3,15.2,-12.2,-16,0.212042604,0.0191351054,0.251380963,-0.944151128
510,1278795,704460,0.367,-0.01,1.943,41.6,-64.3,-51.2,13.7,-14.2,-16.3,0.21131016,0.0177007355,0.250221259,-0.944639424
511,1280237,704470,0.228,2.028,4.269,3.3,-40.4,-43.2,13.7,-14.2,-16.3,0.210638752,0.0166631062,0.25000763,-0.944883572
512,1283276,704470,-0.52,1.587,2.743,-31.4,3.1,-39.4,13.7,-14.2,-16.3,0.209814753,0.0163579211,0.250679037,-0.944883572
513,1284823,704470,-0.967,1.106,2.862,-29,35.4,-39.1,13.7,-14.2,-16.3,0.20883816,0.0167241432,0.251442,-0.94491409
514,1287249,704470,-1.406,-0.031,2.764,23.1,39.1,-37.8,13.4,-13,-16.4,0.20783105,0.0174565874,0.251167333,-0.945188757
515,1290754,704480,-1.415,-0.84,2.626,103,16.5,-32.3,13.4,-13,-16.4,0.207037568,0.0180669576,0.249122593,-0.945890683
516,1292286,704480,-1.31,-1.641,2.379,159.4,-5,-26.3,13.4,-13,-16.4,0.206457717,0.0185552538,0.245826594,-0.946867275
517,1295263,704480,-1.085,-2.193,2.133,170.7,-17.5,-24.5,13.4,-13,-16.4,0.20596942,0.0187994018,0.24222541,-0.947904904
518,1297579,704480,-1.183,-3.72,1.542,142.9,-22.4,-26.1,13.3,-13.6,-15.6,0.205481124,0.0188909574,0.239173559,-0.948759423
519,1299848,704490,-1.144,-3.914,1.331,98,-24.4,-23.8,13.3,-13.6,-15.6,0.205084384,0.0186773278,0.237037263,-0.949400311
520,1303477,704490,-0.858,-3.441,1.353,57.8,-25.6,-16.6,13.3,-13.6,-15.6,0.204840236,0.0183111057,0.235724967,-0.949797052
521,1305007,704490,-0.785,-3.309,1.386,29,-25.4,-13.2,13.3,-13.6,-15.6,0.204687643,0.0178228095,0.235023041,-0.950010681
522,1308838,704490,-0.459,-2.527,1.504,8.9,-23.1,-19.9,13.5,-14.4,-15.5,0.204382458,0.0173345134,0.234748375,-0.950132756
523,1310458,704500,-0.229,-2.04,1.571,-7.4,-19.2,-33.4,13.5,-14.4,-15.5,0.203802606,0.0167241432,0.234809412,-0.95025483
524,1312575,704500,0.008,-1.539,1.57,-19.6,-15.3,-41.6,13.5,-14.4,-15.5,0.203009125,0.016113773,0.235175634,-0.950346385
525,1315629,704500,0.008,-1.539,1.57,-19.6,-15.3,-41.6,13.5,-14.4,-15.5,0.203009125,0.016113773,0.235175634,-0.950346385
526,1317753,704500,0.008,-1.539,1.57,-19.6,-15.3,-41.6,13.5,-14.4,-15.5,0.203009125,0.016113773,0.235175634,-0.950346385
527,1320866,704510,0.688,0.197,1.172,-39.8,-6.6,-32.5,13.4,-15.1,-15.9,0.200964385,0.014557329,0.237342448,-0.950285348
528,1322347,704510,0.763,0.525,1.064,-47.1,-3.7,-31.1,13.4,-15.1,-15.9,0.200354015,0.0140995514,0.238288522,-0.950163274
529,1324840,704510,0.766,0.765,0.946,-53.4,-1,-35.1,13.4,-15.1,-15.9,0.199652089,0.0136722922,0.239417707,-0.9500412
530,1328281,704510,0.752,0.848,0.919,-55.9,0.3,-44.4,13.6,-12.1,-15.6,0.198736534,0.0131839961,0.24057741,-0.949949644
531,1329881,704520,0.865,0.955,1.001,-54.6,0.7,-57.6,13.6,-12.1,-15.6,0.197546312,0.0126651814,0.241737114,-0.949919126
532,1332285,704520,0.886,1.002,1.172,-54,2.1,-72.5,13.6,-12.1,-15.6,0.196050905,0.0120853298,0.242896817,-0.949949644
533,1335783,704520,0.531,0.405,0.98,-56.3,4.9,-84.4,13.6,-12.1,-15.6,0.194280831,0.0115054781,0.244087039,-0.950010681
534,1337261,704520,0.372,0.2,0.88,-60.9,8,-86.4,14,-15.2,-16.4,0.192480239,0.0109561449,0.245429853,-0.9500412
535,1340296,704530,0.214,-0.008,0.795,-64.3,9.6,-76.8,14,-15.2,-16.4,0.19083224,0.0104678488,0.246803186,-0.950010681
536,1342516,704530,0.067,-0.233,0.721,-66.2,9.8,-61.5,14,-15.2,-16.4,0.189519944,0.0100711081,0.248237556,-0.949888607
537,1345872,704530,-0.113,-0.626,0.641,-66.8,9,-49,14,-15.2,-16.4,0.188482315,0.00973540452,0.249671926,-0.949736015
538,1347338,704530,-0.119,-0.779,0.619,-65.6,7.2,-42.4,14.3,-14.8,-16.7,0.187566759,0.00936918241,0.251075777,-0.949552904
539,1349919,704540,-0.081,-0.897,0.602,-62.4,4.2,-40,14.3,-14.8,-16.7,0.186742759,0.00897244179,0.252388073,-0.949369793
540,1353367,704540,0.008,-0.947,0.592,-58.3,0.1,-39.3,14.3,-14.8,-16.7,0.18591876,0.00854518265,0.253608814,-0.9492172
541,1354822,704540,0.211,-0.889,0.583,-55.3,-4.7,-38.5,14.3,-14.8,-16.7,0.185155797,0.00799584948,0.254737999,-0.949064608
542,1357380,704540,0.293,-0.769,0.58,-54.9,-9.9,-37.8,14.2,-14.3,-16.8,0.184453871,0.00735496078,0.255836665,-0.948912015
543,1360849,704550,0.35,-0.617,0.57,-56.6,-14.7,-38,14.2,-14.3,-16.8,0.183751946,0.00662251656,0.25696585,-0.948759423
544,1362443,704550,0.359,-0.306,0.565,-58.9,-18.7,-39.9,14.2,-14.3,-16.8,0.183019501,0.00576799829,0.258125553,-0.948576312
545,1365384,704550,0.325,-0.184,0.57,-59.3,-21.5,-43,14.2,-14.3,-16.8,0.182256539,0.00485244301,0.259254738,-0.948423719
546,1368494,704550,0.279,-0.104,0.567,-50.9,-24.4,-48.9,14.2,-13.4,-16.8,0.18140202,0.00384533219,0.26023133,-0.948332163
547,1369993,704560,0.24,-0.06,0.572,-50.9,-24.4,-48.9,14.2,-13.4,-16.8,0.180547502,0.00286873989,0.261177404,-0.948240608
548,1372859,704560,0.188,-0.078,0.569,-43.6,-25.1,-50.3,14.2,-13.4,-16.8,0.179631947,0.00189214759,0.262001404,-0.948179571
549,1375841,704560,0.167,-0.125,0.57,-36.2,-25.9,-50.4,14.2,-13.4,-16.8,0.17874691,0.000915555284,0.262642293,-0.948179571
550,1377512,704560,0.17,-0.18,0.582,-29.5,-26.9,-49.6,14.5,-11.2,-15.5,0.177861873,0,0.263161107,-0.948179571
551,1381250,704570,0.177,-0.255,0.597,-24,-28.2,-48.6,14.5,-11.2,-15.5,0.177037873,-0.000976592303,0.263527329,-0.948240608
552,1382640,704570,0.199,-0.373,0.589,-19.6,-29.8,-47.9,14.5,-11.2,-15.5,0.176213874,-0.0019226661,0.263832514,-0.948301645
553,1385731,704570,0.211,-0.409,0.577,-16.5,-31.3,-47.7,14.5,-11.2,-15.5,0.175389874,-0.00292977691,0.264046144,-0.9483932
554,1387880,704570,0.222,-0.437,0.565,-14.2,-32.8,-48.3,14.3,-11.2,-18.4,0.174596393,-0.00393688772,0.264198737,-0.948515275
555,1390912,704580,0.266,-0.43,0.584,-11.8,-34.2,-49.5,14.3,-11.2,-18.4,0.173741874,-0.00497451704,0.264320811,-0.94860683
556,1392422,704580,0.298,-0.411,0.606,-8.8,-35.6,-51.1,14.3,-11.2,-18.4,0.172887356,-0.00604266488,0.264351329,-0.948759423
557,1395409,704580,0.319,-0.38,0.629,-4.8,-36.9,-52.9,14.3,-11.2,-18.4,0.172002319,-0.00711081271,0.264320811,-0.948912015
558,1398554,704580,0.351,-0.365,0.652,0.1,-38,-54.4,14.6,-11,-18.4,0.171117283,-0.00823999756,0.2641377,-0.949125645
559,1399941,704590,0.451,-0.344,0.704,6.1,-38.9,-55.4,14.6,-11,-18.4,0.17014069,-0.0093386639,0.263893551,-0.949369793
560,1402982,704590,0.502,-0.349,0.753,12.8,-39.5,-55.8,14.6,-11,-18.4,0.169255654,-0.0104068117,0.263466292,-0.949613941
561,1405296,704590,0.566,-0.37,0.794,20,-39.8,-55.2,14.6,-11,-18.4,0.168340098,-0.0114749596,0.262886441,-0.949949644
562,1408270,704590,0.645,-0.411,0.847,26.9,-39.9,-53.5,14.4,-10.8,-18.3,0.16748558,-0.0125125889,0.262153996,-0.950285348
563,1410557,704600,0.696,-0.443,0.865,32.7,-39.8,-50.5,14.4,-10.8,-18.3,0.16666158,-0.0135196997,0.261329997,-0.95065157
564,1412798,704600,0.708,-0.416,0.802,37.4,-39.1,-46.7,14.4,-10.8,-18.3,0.165929136,-0.0144657735,0.260383923,-0.951017792
565,1414972,704600,0.74,-0.382,0.758,40,-37.9,-43.2,14.4,-10.8,-18.3,0.165257729,-0.0153508103,0.259407331,-0.951384014
566,1418132,704600,0.86,-0.302,0.689,35.5,-35.8,-39.6,14.7,-10.9,-18.4,0.164647359,-0.01617481,0.258522294,-0.951719718
567,1419791,704610,0.92,-0.244,0.636,35.5,-35.8,-39.6,14.7,-10.9,-18.4,0.164036988,-0.0170293283,0.257637257,-0.952024903
568,1422411,704610,1.004,-0.18,0.61,29.2,-34.8,-38.5,14.7,-10.9,-18.4,0.163457137,-0.0178228095,0.256904813,-0.952330088
569,1425505,704610,1.12,-0.163,0.595,23.6,-33.5,-37.6,14.7,-10.9,-18.4,0.162877285,-0.0186773278,0.256263924,-0.952574236
570,1427886,704610,1.298,-0.202,0.606,20.8,-32.1,-36.5,14.3,-11.9,-17.5,0.162297433,-0.0195013276,0.255714591,-0.952818384
571,1430457,704620,1.345,-0.254,0.617,22.1,-30.7,-34.5,14.3,-11.9,-17.5,0.1617481,-0.0202337718,0.255134739,-0.953032014
572,1432744,704620,1.395,-0.326,0.659,27.2,-29.1,-30.4,14.3,-11.9,-17.5,0.161290323,-0.0208746605,0.254432814,-0.953276162
573,1435847,704620,1.45,-0.429,0.701,35,-27.5,-23.6,14.3,-11.9,-17.5,0.160985137,-0.0214850307,0.253608814,-0.953550829
574,1437689,704620,1.49,-0.646,0.774,43.9,-25.4,-13.9,14.3,-11.4,-15.8,0.160832545,-0.0219428083,0.252601703,-0.953825495
575,1440680,704630,1.497,-0.737,0.794,52.4,-22.5,-1.6,14.3,-11.4,-15.8,0.160954619,-0.0222174749,0.251411481,-0.954100162
576,1442254,704630,1.5,-0.804,0.79,58.9,-18.5,12.1,14.3,-11.4,-15.8,0.16135136,-0.0223395489,0.250129704,-0.954374828
577,1445871,704630,1.483,-0.847,0.783,62.4,-13.9,25.8,14.3,-11.4,-15.8,0.161992248,-0.0222785119,0.248786889,-0.954618976
578,1447335,704630,1.483,-0.89,0.764,63.3,-8.8,38.1,13.8,-11.5,-14.9,0.162846767,-0.0220343638,0.247474593,-0.954832606
579,1450557,704640,1.479,-0.874,0.756,62.6,-3.6,48.3,13.8,-11.5,-14.9,0.163914914,-0.0216071047,0.246162297,-0.954985199
580,1452738,704640,1.459,-0.858,0.76,62,1.4,56.5,13.8,-11.5,-14.9,0.165105136,-0.02108829,0.244911039,-0.955137791
581,1455737,704640,1.432,-0.81,0.772,62.4,6.1,62.9,13.8,-11.5,-14.9,0.166417432,-0.0203863643,0.24365978,-0.955229347
582,1457474,704640,1.37,-0.699,0.785,64.1,10.9,68.6,13.3,-11.9,-13.8,0.167821284,-0.0195318461,0.242378002,-0.955320902
583,1460341,704650,1.34,-0.647,0.794,66.1,15.3,74.1,13.3,-11.9,-13.8,0.169316691,-0.0186162908,0.241096225,-0.955412458
584,1462604,704650,1.301,-0.591,0.803,67.8,19.8,80.3,13.3,-11.9,-13.8,0.170903653,-0.0175176244,0.239783929,-0.955473495
585,1465517,704650,1.231,-0.503,0.808,68.7,24.3,87.1,13.3,-11.9,-13.8,0.172643208,-0.0162968841,0.238471633,-0.955504013
586,1467201,704650,1.208,-0.455,0.816,68.8,32.2,101.6,13.3,-12.3,-13.4,0.174596393,-0.0148319956,0.237220374,-0.955504013
587,1470501,704660,1.18,-0.427,0.821,68.8,32.2,101.6,13.3,-12.3,-13.4,0.176580096,-0.0133976257,0.235938597,-0.955473495
588,1472204,704660,1.153,-0.407,0.822,68.3,35.4,108.1,13.3,-12.3,-13.4,0.178685873,-0.0118106632,0.234656819,-0.955412458
589,1475023,704660,1.106,-0.37,0.815,67.7,38.2,113.7,13.3,-12.3,-13.4,0.180852687,-0.0101931822,0.233436079,-0.955320902
590,1477266,704660,1.082,-0.362,0.808,67.1,40.5,118.4,13.2,-13.4,-18.5,0.183141575,-0.00845362712,0.232215339,-0.955198828
591,1480769,704670,1.062,-0.361,0.808,66.3,42.5,122.4,13.2,-13.4,-18.5,0.185491501,-0.00668355358,0.231025117,-0.955046236
592,1482298,704670,1.042,-0.365,0.805,65.3,44.3,126,13.2,-13.4,-18.5,0.187902463,-0.00488296152,0.229865413,-0.954863124
593,1485225,704670,1.006,-0.384,0.802,63.9,46.2,129.2,13.2,-13.4,-18.5,0.190374462,-0.00299081393,0.228736229,-0.954680013
594,1488177,704670,0.994,-0.403,0.799,62.3,48,132.3,12.9,-13.2,-15.3,0.19287698,-0.00106814783,0.227637562,-0.954435865
595,1489871,704680,0.986,-0.415,0.795,60,49.6,135,12.9,-13.2,-15.3,0.195440535,0.000854518265,0.226599933,-0.954161199
596,1493452,704680,0.978,-0.434,0.783,57.3,50.9,137.4,12.9,-13.2,-15.3,0.198065126,0.00283822138,0.225623341,-0.953856014
597,1494948,704680,0.973,-0.454,0.78,54,51.9,139.7,12.9,-13.2,-15.3,0.200720237,0.00485244301,0.224707785,-0.953489792
598,1497825,704680,0.973,-0.466,0.776,50.3,52.9,142,12.4,-13.9,-15.9,0.203405866,0.00686666463,0.223853267,-0.953123569
599,1500860,704690,0.969,-0.469,0.764,45.7,54.1,144.3,12.4,-13.9,-15.9,0.206122013,0.00888088626,0.223151341,-0.952665792
600,1502543,704690,0.961,-0.477,0.761,40.3,55.4,146.4,12.4,-13.9,-15.9,0.208899197,0.0109256264,0.222510453,-0.952208014
601,1505314,704690,0.957,-0.485,0.745,34.1,56.9,148,12.4,-13.9,-15.9,0.211676382,0.013000885,0.222022156,-0.951658681
602,1508430,704690,0.957,-0.489,0.737,27.4,58.3,148.9,11.9,-14.2,-16.4,0.214484085,0.0150456252,0.221686453,-0.951109348
603,1510291,704700,0.952,-0.5,0.73,20.6,59.5,149,11.9,-14.2,-16.4,0.217291787,0.0170903653,0.221503342,-0.950468459
604,1513412,704700,0.948,-0.516,0.718,13.7,60.7,148.9,11.9,-14.2,-16.4,0.220068972,0.019165624,0.221442305,-0.949797052
605,1514924,704700,0.94,-0.54,0.703,6.9,61.7,148.6,11.9,-14.2,-16.4,0.222846156,0.0211798456,0.22153386,-0.949095126
606,1517729,704700,0.928,-0.555,0.691,-5.5,63.6,148.1,11.6,-14.6,-16.9,0.225592822,0.0231940672,0.221869564,-0.948301645
607,1520919,704710,0.919,-0.571,0.672,-5.5,63.6,148.1,11.6,-14.6,-16.9,0.228370006,0.0252082888,0.222235786,-0.947508164
608,1522284,704710,0.887,-0.625,0.654,-11,64.2,147.7,11.6,-14.6,-16.9,0.231116672,0.0271919919,0.222693564,-0.946684164
609,1525351,704710,0.866,-0.648,0.639,-15.9,64.8,147.3,11.6,-14.6,-16.9,0.23383282,0.0291756951,0.223273415,-0.945829646
610,1527683,704710,0.838,-0.675,0.624,-20.5,65.2,146.5,10.8,-14.9,-15,0.236548967,0.0311288797,0.223914304,-0.94491409
611,1529868,704720,0.77,-0.724,0.587,-24.8,65.5,145.4,10.8,-14.9,-15,0.239265114,0.0330515458,0.224677267,-0.943998535
612,1532768,704720,0.726,-0.743,0.576,-28.8,65.7,144.1,10.8,-14.9,-15,0.241920225,0.0349436934,0.225501267,-0.943052461
613,1535116,704720,0.677,-0.773,0.562,-32.4,65.6,142.6,10.8,-14.9,-15,0.244544816,0.0368358409,0.226416822,-0.942075869
614,1538209,704720,0.625,-0.792,0.556,-35.5,65.1,140.9,10.8,-15.2,-15.1,0.247169408,0.03869747,0.227393414,-0.941099277
615,1539766,704730,0.51,-0.821,0.547,-37.9,64,139.2,10.8,-15.2,-15.1,0.249732963,0.0404980621,0.228400525,-0.940092166
616,1543246,704730,0.45,-0.823,0.553,-39.7,62.6,137.4,10.8,-15.2,-15.1,0.252265999,0.0422376171,0.229407636,-0.939085055
617,1544823,704730,0.391,-0.83,0.558,-41.2,60.9,135.9,10.8,-15.2,-15.1,0.254799036,0.0439466536,0.230475784,-0.938077944
618,1547789,704730,0.327,-0.828,0.568,-42.5,58.8,134.5,10.1,-15.3,-15,0.257271035,0.0455946532,0.231543931,-0.937040315
619,1550931,704740,0.22,-0.814,0.586,-43.4,56.4,133.3,10.1,-15.3,-15,0.259773553,0.0471510971,0.232612079,-0.936033204
620,1553218,704740,0.169,-0.793,0.607,-43.9,53.8,132.4,10.1,-15.3,-15,0.262245552,0.0487075411,0.233680227,-0.934995575
621,1554774,704740,0.114,-0.776,0.624,-43.7,50.9,131.4,10.1,-15.3,-15,0.264717551,0.0501419111,0.234717856,-0.933957945
622,1558448,704740,0.079,-0.764,0.633,-42.8,47.8,130.5,9.8,-15.4,-15.3,0.267159032,0.0515457625,0.235724967,-0.932920316
623,1559831,704750,-0.015,-0.742,0.666,-40.9,44.7,129.2,9.8,-15.4,-15.3,0.269631031,0.0528885769,0.236671041,-0.931913205
624,1562902,704750,-0.055,-0.741,0.687,-37.9,41.7,127.8,9.8,-15.4,-15.3,0.272041993,0.0541703543,0.237525559,-0.930906095
625,1565869,704750,-0.095,-0.748,0.7,-33.9,38.8,126.3,9.8,-15.4,-15.3,0.274452956,0.0554216132,0.23831904,-0.929929502
626,1567399,704750,-0.158,-0.758,0.748,-23.9,32.9,123.5,9.4,-15.4,-15,0.276802881,0.0565813166,0.238837855,-0.929013947
627,1570437,704760,-0.186,-0.761,0.765,-23.9,32.9,123.5,9.4,-15.4,-15,0.279183325,0.0577410199,0.239387188,-0.928098392
628,1573555,704760,-0.205,-0.757,0.785,-19.2,30,122,9.4,-15.4,-15,0.281502731,0.0588702048,0.239783929,-0.927213355
629,1574974,704760,-0.233,-0.76,0.801,-15.5,27.1,120.4,9.4,-15.4,-15,0.283822138,0.0599688711,0.240119633,-0.926358837
630,1577889,704760,-0.264,-0.744,0.833,-13,24.6,118.5,7.6,-16,-15.3,0.286111026,0.0610065004,0.240394299,-0.925534837
631,1581007,704770,-0.28,-0.735,0.849,-11.5,22.5,116.3,7.6,-16,-15.3,0.288338878,0.0619830927,0.240607929,-0.924710837
632,1582479,704770,-0.292,-0.719,0.861,-10.3,20.9,113.8,7.6,-16,-15.3,0.29053621,0.062959685,0.24079104,-0.923917356
633,1584949,704770,-0.303,-0.707,0.869,-9.3,19.7,110.9,7.6,-16,-15.3,0.292703024,0.0638752403,0.240943632,-0.923123875
634,1588449,704770,-0.327,-0.679,0.893,-8,18.7,107.7,10.2,-15.8,-15.3,0.294778283,0.0647602771,0.241065706,-0.922360912
635,1589838,704780,-0.338,-0.659,0.897,-6.9,18.2,104.7,10.2,-15.8,-15.3,0.296792505,0.0656453139,0.24118778,-0.921628468
636,1592378,704780,-0.346,-0.643,0.909,-6.1,17.9,101.9,10.2,-15.8,-15.3,0.298745689,0.0664998321,0.241279336,-0.920896023
637,1595965,704780,-0.354,-0.635,0.91,-5.9,18.1,99.3,10.2,-15.8,-15.3,0.300668355,0.0673543504,0.241370891,-0.920194098
638,1597557,704780,-0.365,-0.608,0.906,-6.4,18.6,97,10,-15.6,-15.4,0.302529984,0.0681783502,0.241431928,-0.919492172
639,1600725,704790,-0.369,-0.596,0.902,-7.8,19.5,94.6,10,-15.6,-15.4,0.304330576,0.0690328684,0.24161504,-0.918790246
640,1602373,704790,-0.381,-0.58,0.887,-10.3,20.7,92.1,10,-15.6,-15.4,0.30610065,0.0698568682,0.241828669,-0.918088321
641,1604845,704790,-0.404,-0.548,0.848,-13.8,22.1,89.3,10,-15.6,-15.4,0.307779168,0.0706808679,0.242103336,-0.917386395
642,1607476,704790,-0.42,-0.54,0.829,-18.3,23.6,86.1,9.4,-16.1,-15.5,0.309396649,0.0714743492,0.242500076,-0.916684469
643,1610241,704800,-0.444,-0.516,0.802,-23.7,25.2,82.5,9.4,-16.1,-15.5,0.310953093,0.0722678304,0.243018891,-0.915952025
644,1612829,704800,-0.467,-0.488,0.764,-29.8,26.7,78.3,9.4,-16.1,-15.5,0.312417982,0.0730002747,0.243690298,-0.915219581
645,1615033,704800,-0.535,-0.451,0.707,-36.5,28.2,73.6,9.4,-16.1,-15.5,0.313821833,0.0737327189,0.244483779,-0.914487136
646,1617383,704800,-0.562,-0.43,0.688,-50.6,30.9,63.5,9.5,-16,-15.8,0.315073092,0.0747703482,0.24570452,-0.913632618
647,1619863,704810,-0.606,-0.422,0.677,-50.6,30.9,63.5,9.5,-16,-15.8,0.316263314,0.0753807184,0.246833705,-0.912869655
648,1623216,704810,-0.637,-0.409,0.659,-57.6,31.9,58.1,9.5,-16,-15.8,0.317331462,0.0759300516,0.248115482,-0.912106693
649,1625454,704810,-0.721,-0.399,0.637,-64,33,52.6,9.5,-16,-15.8,0.318308054,0.0764183477,0.249519333,-0.91134373
650,1627722,704810,-0.761,-0.406,0.635,-69.7,34,47.6,6.7,-16,-15.8,0.319193091,0.0768761254,0.251075777,-0.910580767
651,1629912,704820,-0.8,-0.401,0.636,-74.5,34.7,43,6.7,-16,-15.8,0.319986572,0.0772423475,0.252723777,-0.909787286
652,1634089,704820,-0.868,-0.42,0.645,-79.1,35.3,39.1,6.7,-16,-15.8,0.320688498,0.0776390881,0.254463332,-0.909024323
653,1634755,704820,-0.9,-0.427,0.658,-83.7,35.7,35.9,6.7,-16,-15.8,0.321329386,0.0779747917,0.256324961,-0.908261361
654,1637788,704820,-0.928,-0.438,0.667,-88.2,36.1,33,9,-15.7,-16.4,0.321939756,0.0782189398,0.258278146,-0.907467879
655,1640097,704830,-0.96,-0.457,0.683,-92.3,36.3,30.2,9,-15.7,-16.4,0.32248909,0.0784936064,0.260292367,-0.906674398
656,1642306,704830,-1.007,-0.487,0.712,-95.3,36.4,27.4,9,-15.7,-16.4,0.323007904,0.0787072359,0.262398144,-0.905850398
657,1645759,704830,-1.031,-0.502,0.736,-97.4,36.5,24.6,9,-15.7,-16.4,0.323435163,0.0788598285,0.26453444,-0.905056917
658,1647518,704830,-1.055,-0.525,0.76,-98.3,36.7,21.8,8.8,-15.5,-16.6,0.323831904,0.079012421,0.266701254,-0.904263436
659,1649776,704840,-1.071,-0.544,0.78,-98.7,36.9,19,8.8,-15.5,-16.6,0.324167608,0.0791650136,0.268868068,-0.903500473
660,1653210,704840,-1.099,-0.567,0.824,-98.6,36.9,16.4,8.8,-15.5,-16.6,0.324442274,0.0792870876,0.271034883,-0.90273751
661,1654942,704840,-1.119,-0.579,0.84,-98.6,36.8,14.1,8.8,-15.5,-16.6,0.324655904,0.0794091617,0.273232215,-0.902005066
662,1657316,704840,-1.135,-0.574,0.848,-98.9,36.6,12.2,8.5,-15.4,-16.7,0.324869533,0.0795007172,0.27539903,-0.901242103
663,1660708,704850,-1.147,-0.566,0.868,-99.8,36.4,10.4,8.5,-15.4,-16.7,0.325022126,0.0795617542,0.277626881,-0.900509659
664,1662377,704850,-1.17,-0.53,0.904,-100.9,36,8.7,8.5,-15.4,-16.7,0.3251442,0.0796227912,0.279824213,-0.899777215
665,1665939,704850,-1.177,-0.502,0.931,-102.1,35.8,7,8.5,-15.4,-16.7,0.325235755,0.0796227912,0.282082583,-0.899044771
666,1667495,704850,-1.18,-0.443,0.97,-103.6,35.8,3.2,8.1,-14.9,-17.2,0.325266274,0.0796227912,0.284371471,-0.898312326
667,1669784,704860,-1.176,-0.42,0.997,-103.6,35.8,3.2,8.1,-14.9,-17.2,0.325296793,0.0796227912,0.286629841,-0.897579882
668,1672214,704860,-1.171,-0.392,1.017,-103.6,36.2,1.4,8.1,-14.9,-17.2,0.325266274,0.0795922727,0.288918729,-0.896847438
669,1675695,704860,-1.163,-0.377,1.032,-103.2,36.8,0,8.1,-14.9,-17.2,0.325205237,0.0795922727,0.291207617,-0.896145512
670,1677443,704860,-1.151,-0.358,1.047,-102.4,37.6,-1.3,8.9,-14.8,-17.7,0.325113681,0.0795922727,0.293435469,-0.895413068
671,1679748,704870,-1.126,-0.334,1.043,-101.8,38.5,-2.2,8.9,-14.8,-17.7,0.324991607,0.0795922727,0.295754875,-0.894711142
672,1683181,704870,-1.122,-0.323,1.027,-101.6,39.7,-2.8,8.9,-14.8,-17.7,0.324869533,0.0796227912,0.298013245,-0.894009217
673,1684920,704870,-1.118,-0.311,1.007,-102.1,41,-3.1,8.9,-14.8,-17.7,0.324686422,0.0796838282,0.300302133,-0.893307291
674,1688430,704870,-1.114,-0.299,0.976,-103.1,42.5,-3.5,6.4,-14.3,-18,0.32453383,0.0797753838,0.30262154,-0.892574847
675,1689933,704880,-1.134,-0.283,0.949,-104.5,43.9,-4.4,6.4,-14.3,-18,0.324350719,0.0798669393,0.304971465,-0.891842402
676,1692989,704880,-1.15,-0.279,0.945,-105.6,45.2,-5.7,6.4,-14.3,-18,0.324106571,0.0799584948,0.307351909,-0.89107944
677,1695170,704880,-1.166,-0.283,0.95,-105.8,46.4,-7.3,6.4,-14.3,-18,0.323862423,0.0800500504,0.309762871,-0.890346995
678,1698172,704880,-1.182,-0.278,0.958,-104.7,47.4,-8.9,6.4,-14.3,-18,0.323526719,0.0801721244,0.312143315,-0.889614551
679,1699873,704890,-1.217,-0.266,0.986,-102.1,48.2,-10,6.4,-14.3,-18,0.323191015,0.0803247169,0.31449324,-0.888912626
680,1702681,704890,-1.237,-0.269,0.983,-98.4,49,-10.4,6.4,-14.3,-18,0.322824793,0.080507828,0.31675161,-0.8882107
681,1705665,704890,-1.249,-0.261,0.987,-94.1,49.6,-10.3,6.4,-14.3,-18,0.322458571,0.0807214576,0.318948943,-0.887539293
682,1707377,704890,-1.276,-0.249,0.992,-89.6,50.2,-9.8,6.4,-14.3,-18,0.322061831,0.0809961241,0.32105472,-0.886898404
683,1710128,704900,-1.288,-0.237,0.996,-85.2,50.5,-9.3,6.4,-14.3,-18,0.32166509,0.0813318278,0.323068941,-0.886288034
684,1713163,704900,-1.296,-0.236,0.996,-80.9,50.7,-9,6.4,-14.3,-18,0.321298868,0.0816370128,0.324991607,-0.885677664
685,1714806,704900,-1.308,-0.232,1.004,-76.4,50.9,-9.1,6.4,-14.3,-18,0.320871609,0.082064272,0.326853236,-0.885097812
686,1717657,704900,-1.331,-0.228,1.001,-72.1,51.1,-9.6,6.4,-14.3,-18,0.320474868,0.0824610126,0.328592792,-0.884578997
687,1720620,704910,-1.343,-0.22,0.997,-68.1,51.3,-10.4,6.4,-14.3,-18,0.32001709,0.0829187902,0.330301828,-0.884060183
688,1723468,704910,-1.359,-0.207,0.986,-64.8,51.6,-11.2,6.4,-14.3,-18,0.319528794,0.0833765679,0.331949828,-0.883571886
689,1724968,704910,-1.375,-0.199,0.979,-62.4,51.9,-12.1,6.4,-14.3,-18,0.319040498,0.0838343455,0.33353679,-0.883114109
690,1728020,704910,-1.406,-0.167,0.964,-60.8,52.3,-13,10.4,-14.2,-19,0.318521683,0.0843226417,0.335093234,-0.882656331
691,1730233,704920,-1.422,-0.143,0.964,-59.9,52.5,-13.8,10.4,-14.2,-19,0.31797235,0.0848414563,0.336649678,-0.882229072
692,1732464,704920,-1.429,-0.123,0.96,-59.3,52.7,-14.6,10.4,-14.2,-19,0.317423017,0.0853297525,0.338175604,-0.881801813
693,1735520,704920,-1.437,-0.107,0.953,-59,52.8,-15.4,10.4,-14.2,-19,0.316843165,0.0858180486,0.339701529,-0.881374554
694,1737726,704920,-1.449,-0.08,0.937,-59.2,52.9,-16.1,10.4,-14.2,-19,0.316263314,0.0863063448,0.341227454,-0.880916776
695,1740839,704930,-1.448,-0.072,0.933,-59.8,52.9,-16.7,10.4,-14.2,-19,0.315652944,0.0867946409,0.342783898,-0.880489517
696,1742299,704930,-1.444,-0.052,0.933,-60.9,53.1,-17.1,10.4,-14.2,-19,0.315042573,0.0872524186,0.344340342,-0.880062258
697,1745287,704930,-1.428,-0.041,0.917,-62.6,53.2,-17.4,10.4,-14.2,-19,0.314432203,0.0877101962,0.345957823,-0.87960448
698,1748369,704930,-1.416,-0.033,0.917,-64.8,53.4,-17.7,10.4,-14.2,-19,0.313791314,0.0881679739,0.347605823,-0.879146702
699,1749876,704940,-1.408,-0.037,0.909,-67.6,53.8,-18.3,10.4,-14.2,-19,0.313180944,0.088595233,0.349284341,-0.878658406
700,1753054,704940,-1.397,-0.049,0.904,-70.7,54.5,-19.2,10.4,-14.2,-19,0.312509537,0.0890224921,0.351054415,-0.878139592
701,1754736,704940,-1.369,-0.074,0.884,-73.8,55.6,-20.5,10.4,-14.2,-19,0.31183813,0.0894192328,0.352885525,-0.877590258
702,1757531,704940,-1.358,-0.086,0.872,-76.8,56.8,-21.8,10.4,-14.2,-19,0.311136204,0.0898159734,0.354808191,-0.877040925
703,1760743,704950,-1.342,-0.094,0.86,-79.7,57.8,-22.9,10.4,-14.2,-19,0.31040376,0.090212714,0.356761376,-0.876461074
704,1762914,704950,-1.326,-0.11,0.86,-82.3,58.5,-23.8,10.4,-14.2,-19,0.309640797,0.0905789361,0.358775597,-0.875850703
705,1765896,704950,-1.295,-0.162,0.851,-84.6,59.3,-24.4,10.4,-14.2,-19,0.308877834,0.0909146397,0.360850856,-0.875240333
706,1767271,704950,-1.28,-0.194,0.843,-86.4,60.1,-24.5,10.4,-14.2,-19,0.308114872,0.0913113804,0.362956633,-0.874599445
707,1770317,704960,-1.273,-0.217,0.835,-87.6,61,-24.1,10.4,-14.2,-19,0.307351909,0.091708121,0.36506241,-0.873958556
708,1774183,704960,-1.242,-0.273,0.842,-88,61.9,-23.4,10.4,-14.2,-19,0.306588946,0.0921048616,0.367229225,-0.873287149
709,1776429,704960,-1.23,-0.293,0.838,-87.7,62.9,-22.5,10.4,-14.2,-19,0.305825983,0.0925321207,0.36936552,-0.872615741
710,1778691,704960,-1.226,-0.309,0.846,-87,63.8,-21.4,11.5,-10.5,-19.9,0.305093539,0.0930204169,0.371471297,-0.871913816
711,1780872,704970,-1.214,-0.317,0.854,-86,64.7,-20.1,11.5,-10.5,-19.9,0.304361095,0.093508713,0.373577074,-0.87121189
712,1782548,704970,-1.195,-0.341,0.861,-84.9,65.6,-18.7,11.5,-10.5,-19.9,0.303628651,0.0940275277,0.375682852,-0.870509964
713,1785030,704970,-1.187,-0.349,0.865,-83.4,66.5,-17.4,11.5,-10.5,-19.9,0.302926725,0.0946073794,0.377727592,-0.869808039
714,1788990,704970,-1.183,-0.349,0.872,-81.4,67.3,-15.9,11.8,-10.5,-20.1,0.302224799,0.0952177496,0.379741813,-0.869106113
715,1791195,704980,-1.167,-0.353,0.872,-78.9,68,-14.2,11.8,-10.5,-20.1,0.301553392,0.0958586383,0.381725517,-0.868404187
716,1792817,704980,-1.143,-0.354,0.879,-76,68.5,-12.3,11.8,-10.5,-20.1,0.300912503,0.096560564,0.383648183,-0.867702261
717,1795203,704980,-1.124,-0.35,0.886,-72.6,68.6,-10.2,11.8,-10.5,-20.1,0.300302133,0.0972624897,0.385479293,-0.867000336
718,1797446,704980,-1.112,-0.359,0.89,-69,68.8,-7.9,12.3,-11.4,-20.3,0.299722282,0.0980864895,0.387279885,-0.866328928
719,1800062,704990,-1.096,-0.367,0.886,-65.1,68.8,-5.3,12.3,-11.4,-20.3,0.299172948,0.0989104892,0.388958403,-0.865657521
720,1804189,704990,-1.064,-0.375,0.885,-60.9,68.9,-2.7,12.3,-11.4,-20.3,0.298654134,0.099795526,0.390575884,-0.865016633
721,1804801,704990,-1.049,-0.392,0.881,-56.7,68.9,-0.1,12.3,-11.4,-20.3,0.298196356,0.100680563,0.392071291,-0.864375744
722,1807926,704990,-1.029,-0.404,0.872,-52.5,69.1,2.1,12.3,-11.9,-19.9,0.297769097,0.101657155,0.393505661,-0.863765374
723,1810162,705000,-1.002,-0.42,0.856,-48.5,69.1,4.4,12.3,-11.9,-19.9,0.297341838,0.102725303,0.394878994,-0.863155004
724,1812315,705000,-0.994,-0.432,0.852,-44.8,69,6.5,12.3,-11.9,-19.9,0.296975616,0.103793451,0.396160772,-0.862575152
725,1815618,705000,-0.982,-0.432,0.836,-41.3,68.7,8.7,12.3,-11.9,-19.9,0.296639912,0.104892117,0.397350993,-0.8619953
726,1818369,705000,-0.966,-0.429,0.824,-37.9,68.4,11,12.3,-11.9,-19.9,0.296365246,0.106021302,0.398480178,-0.861445967
727,1820686,705010,-0.958,-0.417,0.816,-34.6,68.1,13.5,12.3,-11.9,-19.9,0.296090579,0.107211524,0.399548326,-0.860896634
728,1822865,705010,-0.946,-0.41,0.811,-31.3,67.9,16.2,12.3,-11.9,-19.9,0.295876949,0.108432264,0.400524918,-0.860347301
729,1825101,705010,-0.934,-0.402,0.803,-27.7,67.6,18.8,12.3,-11.9,-19.9,0.295693838,0.109683523,0.401440474,-0.859828486
730,1827383,705010,-0.918,-0.383,0.795,-23.9,67.1,21.5,13.2,-10.5,-20.7,0.295571764,0.110934782,0.402264473,-0.85934019
731,1830125,705020,-0.886,-0.372,0.79,-19.8,66.5,24.2,13.2,-10.5,-20.7,0.295510727,0.112308115,0.403027436,-0.858821375
732,1832376,705020,-0.874,-0.368,0.786,-15.6,65.9,27.1,13.2,-10.5,-20.7,0.295480209,0.113681448,0.403668325,-0.858363598
733,1836000,705020,-0.854,-0.353,0.781,-11.6,65.1,29.8,13.2,-10.5,-20.7,0.295480209,0.115085299,0.404217658,-0.85790582
734,1837651,705020,-0.838,-0.349,0.777,-8,64.3,32.5,13.6,-10.1,-20.3,0.295541246,0.116519669,0.404705954,-0.857448042
735,1839941,705030,-0.81,-0.346,0.769,-5,63.4,35.3,13.6,-10.1,-20.3,0.29566332,0.117984558,0.405133213,-0.857020783
736,1842559,705030,-0.803,-0.342,0.761,-2.5,62.6,38.1,13.6,-10.1,-20.3,0.295815912,0.119479965,0.405468917,-0.856593524
737,1844831,705030,-0.787,-0.343,0.744,-0.6,61.8,40.8,13.6,-10.1,-20.3,0.296029542,0.12100589,0.405774102,-0.856166265
738,1848940,705030,-0.775,-0.335,0.748,0.8,61.3,43.3,13.5,-9,-20.1,0.296304209,0.122531816,0.406048769,-0.855708487
739,1851164,705040,-0.767,-0.339,0.732,2.2,60.8,45.5,13.5,-9,-20.1,0.296609394,0.12408826,0.406292917,-0.855281228
740,1852609,705040,-0.755,-0.332,0.724,3.3,60.2,47.5,13.5,-9,-20.1,0.296945097,0.125644704,0.406476028,-0.854853969
741,1854999,705040,-0.751,-0.324,0.724,4.4,59.6,49.4,13.5,-9,-20.1,0.297341838,0.127231666,0.406659139,-0.854396191
742,1857498,705040,-0.739,-0.32,0.724,5.6,59,51.1,13.8,-8.4,-20.2,0.297738578,0.128818628,0.406781213,-0.853938414
743,1860920,705050,-0.735,-0.312,0.723,7.3,58.3,52.9,13.8,-8.4,-20.2,0.298196356,0.13043611,0.406872768,-0.853511155
744,1862420,705050,-0.731,-0.309,0.719,9.3,57.7,54.9,13.8,-8.4,-20.2,0.298684652,0.132053591,0.406933805,-0.853053377
745,1865298,705050,-0.727,-0.305,0.723,11.3,56.9,56.9,13.8,-8.4,-20.2,0.299203467,0.133671072,0.406903287,-0.852626118
746,1867598,705050,-0.707,-0.297,0.703,13.2,56.1,58.9,13.8,-8.4,-20.2,0.2997528,0.13534959,0.406872768,-0.852198859
747,1869886,705060,-0.699,-0.302,0.703,14.8,55.3,60.7,13.8,-8.4,-20.2,0.30036317,0.136997589,0.406781213,-0.851771599
748,1872461,705060,-0.695,-0.302,0.707,16.3,54.3,62.2,13.8,-8.4,-20.2,0.30097354,0.138676107,0.40662862,-0.85134434
749,1874723,705060,-0.675,-0.314,0.706,17.6,53.3,63.6,13.8,-8.4,-20.2,0.301614429,0.140354625,0.406476028,-0.850917081
750,1878947,705060,-0.676,-0.326,0.698,18.8,52.4,64.6,13.7,-9.4,-20.4,0.302316355,0.142002625,0.406262398,-0.850489822
751,1881202,705070,-0.672,-0.322,0.698,19.5,51.6,65.3,13.7,-9.4,-20.4,0.302987762,0.143681143,0.406048769,-0.850062563
752,1882700,705070,-0.668,-0.33,0.694,19.9,50.6,65.7,13.7,-9.4,-20.4,0.303720206,0.145329142,0.405804621,-0.849665822
753,1884981,705070,-0.664,-0.338,0.687,20.1,49.5,66,13.7,-9.4,-20.4,0.304422132,0.146977142,0.405529954,-0.849238563
754,1888872,705070,-0.664,-0.338,0.69,20.2,48.4,66.3,13.7,-9.6,-20,0.305154576,0.148594623,0.405285806,-0.848811304
755,1891089,705080,-0.66,-0.334,0.686,20.5,47.3,66.6,13.7,-9.6,-20,0.305917539,0.150181585,0.404980621,-0.848414563
756,1893385,705080,-0.66,-0.338,0.686,20.8,46.1,66.9,13.7,-9.6,-20,0.306680502,0.151768548,0.404705954,-0.847987304
757,1895548,705080,-0.648,-0.334,0.686,21.3,44.9,67.1,13.7,-9.6,-20,0.307443464,0.15335551,0.404370251,-0.847590564
758,1897816,705080,-0.648,-0.338,0.678,21.5,43.7,67.1,13.6,-9.5,-20,0.308236946,0.154881436,0.404034547,-0.847163305
759,1900033,705090,-0.64,-0.334,0.678,21.7,42.5,67.1,13.6,-9.5,-20,0.309030427,0.156407361,0.403698843,-0.846766564
760,1902387,705090,-0.636,-0.327,0.678,21.7,41.3,66.8,13.6,-9.5,-20,0.309823908,0.157933287,0.40336314,-0.846369823
761,1905501,705090,-0.628,-0.323,0.682,21.9,40.1,66.5,13.6,-9.5,-20,0.310617389,0.159398175,0.402996918,-0.845973083
762,1907817,705090,-0.624,-0.327,0.681,22.1,38.9,66,13.6,-9.7,-19.3,0.311410871,0.160832545,0.402600177,-0.845576342
763,1910025,705100,-0.616,-0.323,0.673,22.4,37.8,65.9,13.6,-9.7,-19.3,0.31223487,0.162266915,0.402233955,-0.845179601
764,1912345,705100,-0.604,-0.323,0.673,22.8,36.7,65.7,13.6,-9.7,-19.3,0.313028352,0.163670766,0.401806696,-0.844813379
765,1915487,705100,-0.6,-0.327,0.673,22.9,35.6,65.5,13.6,-9.7,-19.3,0.313852351,0.165074618,0.401409955,-0.844447157
766,1917727,705100,-0.589,-0.332,0.661,22.4,33,64.6,13.6,-9.7,-19.3,0.315225684,0.167119358,0.400067141,-0.844172491
767,1919962,705110,-0.589,-0.332,0.661,22.4,33,64.6,13.6,-9.7,-19.3,0.316019166,0.168431654,0.399639882,-0.84377575
768,1922990,705110,-0.577,-0.344,0.661,21.9,31.8,63.8,13.6,-9.7,-19.3,0.316843165,0.169713431,0.399212622,-0.843409528
769,1925256,705110,-0.573,-0.359,0.661,21.4,30.7,63.1,13.6,-9.7,-19.3,0.317667165,0.170995209,0.398815882,-0.843073824
770,1927431,705110,-0.565,-0.364,0.661,21.1,29.6,62.2,13.5,-10.3,-17.1,0.318460646,0.172215949,0.398388623,-0.842707602
771,1930446,705120,-0.561,-0.375,0.664,20.9,28.7,61.3,13.5,-10.3,-17.1,0.319284646,0.173436689,0.397991882,-0.84234138
772,1933558,705120,-0.55,-0.391,0.664,20.6,27.7,60.4,13.5,-10.3,-17.1,0.320047609,0.174596393,0.397564623,-0.842005676
773,1935013,705120,-0.55,-0.399,0.652,20.2,26.8,59.3,13.5,-10.3,-17.1,0.32084109,0.175756096,0.397137364,-0.841669973
774,1937993,705120,-0.542,-0.411,0.648,19.5,25.9,58.2,13.4,-10.8,-16.2,0.321604053,0.176885281,0.396740623,-0.841303751
775,1941069,705130,-0.546,-0.415,0.652,18.9,25,57.1,13.4,-10.8,-16.2,0.322367016,0.177953429,0.396343883,-0.840998566
776,1942436,705130,-0.542,-0.423,0.652,18.2,24.1,55.8,13.4,-10.8,-16.2,0.323129978,0.179021577,0.39597766,-0.840662862
777,1944882,705130,-0.539,-0.431,0.648,17.6,23.1,54.6,13.4,-10.8,-16.2,0.323862423,0.180028687,0.395611438,-0.840327158
778,1947695,705130,-0.539,-0.435,0.648,17.3,22.2,53.3,13.3,-10.7,-16.1,0.324564348,0.181035798,0.395245216,-0.840021973
779,1950660,705140,-0.523,-0.451,0.652,17.1,21.5,52.1,13.3,-10.7,-16.1,0.325266274,0.181981872,0.394848476,-0.839716788
780,1952421,705140,-0.523,-0.451,0.648,17.2,20.7,50.9,13.3,-10.7,-16.1,0.325937681,0.182927946,0.394482253,-0.839411603
781,1954832,705140,-0.523,-0.463,0.64,17.5,19.9,49.7,13.3,-10.7,-16.1,0.326609088,0.183812983,0.394116031,-0.839136937
782,1958361,705140,-0.515,-0.463,0.636,17.9,18.9,48.5,13.1,-11,-16.1,0.327280496,0.184759056,0.393719291,-0.83886227
783,1959942,705150,-0.512,-0.479,0.632,18.2,17.9,47.1,13.1,-11,-16.1,0.327921384,0.185613575,0.39332255,-0.838618122
784,1963254,705150,-0.508,-0.483,0.64,18.4,16.9,45.8,13.1,-11,-16.1,0.328531755,0.186437574,0.39292581,-0.838373974
785,1965369,705150,-0.504,-0.487,0.648,18.8,16,44.7,13.1,-11,-16.1,0.329142125,0.187261574,0.392529069,-0.838129826
786,1967625,705150,-0.496,-0.503,0.647,20,14.4,42.5,13.1,-11,-16.1,0.32984405,0.187688833,0.391308329,-0.838312937
787,1969937,705160,-0.492,-0.507,0.643,20,14.4,42.5,13.1,-11,-16.1,0.330423902,0.188451796,0.390881069,-0.838129826
788,1973844,705160,-0.488,-0.511,0.643,20.9,13.7,41.5,13.1,-11,-16.1,0.330973235,0.189214759,0.390423292,-0.837946715
789,1975301,705160,-0.492,-0.511,0.639,21.5,13.1,40.6,13.1,-11,-16.1,0.331522568,0.189947203,0.389965514,-0.837794122
790,1977495,705160,-0.492,-0.519,0.632,21.9,12.6,39.8,13.3,-11.3,-18.6,0.332071902,0.190649129,0.389477218,-0.83764153
791,1980503,705170,-0.492,-0.515,0.624,22,12,39,13.3,-11.3,-18.6,0.332590716,0.191381573,0.38901944,-0.837488937
792,1982793,705170,-0.488,-0.507,0.62,22,11.3,38.2,13.3,-11.3,-18.6,0.333079012,0.192083499,0.388531144,-0.837336344
793,1985033,705170,-0.492,-0.503,0.616,22,10.5,37.2,13.3,-11.3,-18.6,0.333597827,0.192754906,0.388042848,-0.83721427
794,1987369,705170,-0.488,-0.487,0.604,21.9,9.8,36.4,12.9,-11.7,-19.1,0.334086123,0.193395795,0.387554552,-0.837092196
795,1989867,705180,-0.492,-0.487,0.608,22,9.1,35.5,12.9,-11.7,-19.1,0.334543901,0.194036683,0.387066256,-0.837000641
796,1992752,705180,-0.488,-0.487,0.604,22,8.3,34.6,12.9,-11.7,-19.1,0.335032197,0.194647053,0.38657796,-0.836878567
797,1995014,705180,-0.484,-0.483,0.608,22,7.5,33.8,12.9,-11.7,-19.1,0.335489975,0.195226905,0.386089663,-0.836787011
798,1998760,705180,-0.48,-0.484,0.608,22,6.7,32.9,12.7,-11.7,-19.7,0.335947752,0.195776238,0.385601367,-0.836695456
799,2000268,705190,-0.472,-0.476,0.6,21.9,5.9,32.1,12.7,-11.7,-19.7,0.336375011,0.196325571,0.385113071,-0.836634419
800,2002503,705190,-0.472,-0.488,0.596,21.6,5.2,31.4,12.7,-11.7,-19.7,0.336802271,0.196844386,0.384624775,-0.836542863
801,2005523,705190,-0.468,-0.488,0.596,21,4.5,30.8,12.7,-11.7,-19.7,0.337260048,0.197332682,0.384136479,-0.836481826
802,2007206,705190,-0.468,-0.496,0.6,20.1,3.8,30.2,12.7,-11.6,-19.9,0.337687307,0.197820978,0.383648183,-0.836420789
803,2009998,705200,-0.46,-0.492,0.596,18.9,3.3,29.7,12.7,-11.6,-19.9,0.338114566,0.198248238,0.383220923,-0.836329234
804,2012732,705200,-0.464,-0.496,0.588,17.6,2.8,29.3,12.7,-11.6,-19.9,0.338541826,0.198675497,0.382793664,-0.836268197
805,2015789,705200,-0.469,-0.503,0.588,16.2,2.3,28.8,12.7,-11.6,-19.9,0.338999603,0.199102756,0.382366405,-0.836176641
806,2017370,705200,-0.464,-0.5,0.596,13.4,1.6,27.9,12.7,-11.6,-19.9,0.33927427,0.198919645,0.382030702,-0.836268197
807,2020225,705210,-0.473,-0.507,0.588,13.4,1.6,27.9,12.7,-11.6,-19.9,0.339701529,0.199285867,0.38166448,-0.836146123
808,2023310,705210,-0.464,-0.5,0.592,11.8,1.2,27.3,12.7,-11.6,-19.9,0.340128788,0.19962157,0.381328776,-0.836054567
809,2024812,705210,-0.473,-0.507,0.584,10.1,0.9,26.8,12.7,-11.6,-19.9,0.340586566,0.199957274,0.381054109,-0.835932493
810,2027652,705210,-0.476,-0.503,0.584,8.3,0.5,26.2,13.1,-12.1,-17.5,0.341013825,0.200231941,0.380779443,-0.835810419
811,2030765,705220,-0.476,-0.495,0.584,6.5,0.1,25.8,13.1,-12.1,-17.5,0.341471603,0.200506607,0.380535295,-0.835657826
812,2032321,705220,-0.484,-0.491,0.573,4.6,-0.1,25.4,13.1,-12.1,-17.5,0.341898862,0.200750755,0.380352184,-0.835505234
813,2035989,705220,-0.488,-0.483,0.569,2.6,-0.5,24.9,13.1,-12.1,-17.5,0.342356639,0.200964385,0.380199591,-0.835352641
814,2037480,705220,-0.488,-0.479,0.565,0.6,-0.9,24.5,12.8,-12,-17.7,0.342814417,0.201147496,0.380077517,-0.83516953
815,2041341,705230,-0.488,-0.479,0.561,-1.2,-1.3,24,12.8,-12,-17.7,0.343241676,0.201330607,0.379985961,-0.834986419
816,2042751,705230,-0.496,-0.471,0.565,-3.1,-1.6,23.5,12.8,-12,-17.7,0.343699454,0.201452681,0.379924924,-0.834803308
817,2045694,705230,-0.508,-0.463,0.558,-5,-1.8,23,12.8,-12,-17.7,0.344157231,0.201574755,0.379894406,-0.834589679
818,2047563,705230,-0.512,-0.459,0.554,-6.8,-2.1,22.4,12.7,-12.2,-17.5,0.344615009,0.201666311,0.379894406,-0.834376049
819,2050966,705240,-0.52,-0.455,0.55,-8.6,-2.5,21.9,12.7,-12.2,-17.5,0.345072787,0.201757866,0.379955443,-0.83416242
820,2052471,705240,-0.528,-0.459,0.55,-10.4,-3,21.3,12.7,-12.2,-17.5,0.345530564,0.201788385,0.38001648,-0.833918271
821,2055514,705240,-0.532,-0.455,0.551,-12.2,-3.5,20.8,12.7,-12.2,-17.5,0.34601886,0.201788385,0.380108036,-0.833674123
822,2057752,705240,-0.532,-0.463,0.543,-14,-4,20.2,13,-11.8,-17.9,0.346476638,0.201788385,0.380260628,-0.833429975
823,2060040,705250,-0.536,-0.463,0.547,-15.6,-4.3,19.7,13,-11.8,-17.9,0.346934416,0.201757866,0.380413221,-0.833155309
824,2062219,705250,-0.54,-0.467,0.547,-17,-4.7,19.1,13,-11.8,-17.9,0.347392193,0.201696829,0.380596332,-0.832880642
825,2064808,705250,-0.544,-0.474,0.551,-18.3,-5.1,18.6,13,-11.8,-17.9,0.347849971,0.201635792,0.380809961,-0.832636494
826,2068203,705250,-0.548,-0.474,0.547,-19.5,-5.6,17.8,13,-11.8,-17.9,0.348307749,0.201513718,0.381054109,-0.832361827
827,2070293,705260,-0.552,-0.482,0.547,-20.7,-6.1,17.1,13,-11.8,-17.9,0.348765526,0.201391644,0.381298257,-0.832087161
828,2072394,705260,-0.56,-0.49,0.544,-21.8,-6.5,16.3,13,-11.8,-17.9,0.349223304,0.201239051,0.381572924,-0.831781976
829,2075285,705260,-0.564,-0.497,0.54,-22.8,-6.8,15.5,13,-11.8,-17.9,0.349650563,0.201086459,0.381878109,-0.831507309
830,2078451,705260,-0.568,-0.505,0.544,-23.4,-6.9,14.7,14.2,-11.7,-17.9,0.350077822,0.200903348,0.382183294,-0.831232643
831,2079953,705270,-0.572,-0.501,0.548,-23.7,-7.1,13.9,14.2,-11.7,-17.9,0.350505081,0.200689718,0.382488479,-0.830957976
832,2082751,705270,-0.584,-0.505,0.552,-24,-7.3,13.1,14.2,-11.7,-17.9,0.350901822,0.200506607,0.382824183,-0.830683309
833,2085808,705270,-0.584,-0.501,0.552,-24.2,-7.6,12.4,14.2,-11.7,-17.9,0.351298563,0.200262459,0.383159886,-0.830439161
834,2087380,705270,-0.592,-0.509,0.548,-24.2,-7.9,11.7,14.1,-11.5,-18.1,0.351695303,0.20004883,0.383465072,-0.830164495
835,2089785,705280,-0.596,-0.497,0.548,-24,-8,11.2,14.1,-11.5,-18.1,0.352031007,0.199804682,0.383800775,-0.829920347
836,2092456,705280,-0.6,-0.501,0.56,-23.5,-8.1,10.7,14.1,-11.5,-18.1,0.352427747,0.199560533,0.38410596,-0.829676199
837,2095474,705280,-0.604,-0.504,0.556,-22.8,-8.2,10,14.1,-11.5,-18.1,0.35279397,0.199316385,0.384411145,-0.829432051
838,2097216,705280,-0.6,-0.504,0.556,-21.9,-8.6,9.3,14.3,-12,-18.3,0.353129673,0.199072237,0.38471633,-0.829218421
839,2099883,705290,-0.6,-0.501,0.564,-21,-8.9,8.5,14.3,-12,-18.3,0.353434858,0.198828089,0.384990997,-0.82903531
840,2102831,705290,-0.596,-0.505,0.564,-20,-9.1,7.8,14.3,-12,-18.3,0.353740043,0.198583941,0.385235145,-0.82882168
841,2104767,705290,-0.6,-0.504,0.564,-19,-9.3,7.2,14.3,-12,-18.3,0.354045228,0.198309275,0.385479293,-0.828669088
842,2108416,705290,-0.6,-0.504,0.572,-17.9,-9.4,6.6,14.1,-11.8,-18.2,0.354319895,0.198065126,0.385723441,-0.828485977
843,2109808,705300,-0.596,-0.501,0.572,-16.8,-9.4,6.1,14.1,-11.8,-18.2,0.354564043,0.197820978,0.385906552,-0.828333384
844,2113486,705300,-0.6,-0.497,0.568,-15.6,-9.4,5.6,14.1,-11.8,-18.2,0.35483871,0.19757683,0.386089663,-0.82821131
845,2114932,705300,-0.603,-0.489,0.572,-14.6,-9.4,5.3,14.1,-11.8,-18.2,0.355052339,0.197332682,0.386272774,-0.828089236
846,2118053,705300,-0.603,-0.481,0.568,-12.8,-9.7,4.6,11.8,-11.8,-18.5,0.355265969,0.197210608,0.386547441,-0.827906125
847,2120360,705310,-0.607,-0.473,0.564,-12.8,-9.7,4.6,11.8,-11.8,-18.5,0.355479598,0.19696646,0.386669515,-0.827784051
848,2122464,705310,-0.611,-0.465,0.56,-12,-9.8,4.3,11.8,-11.8,-18.5,0.355693228,0.196722312,0.386791589,-0.827692495
849,2125065,705310,-0.611,-0.457,0.56,-11.4,-9.8,4.2,11.8,-11.8,-18.5,0.355906858,0.196508683,0.386913663,-0.827631458
850,2127272,705310,-0.615,-0.441,0.553,-10.9,-9.7,4.1,11.9,-11.7,-18.3,0.356120487,0.196295053,0.387035737,-0.827539903
851,2130742,705320,-0.614,-0.426,0.557,-10.7,-9.8,3.9,11.9,-11.7,-18.3,0.356334117,0.196050905,0.387127293,-0.827448347
852,2132322,705320,-0.618,-0.421,0.553,-10.6,-9.9,3.6,11.9,-11.7,-18.3,0.356517228,0.195806757,0.38718833,-0.82738731
853,2135509,705320,-0.618,-0.414,0.557,-11,-9.9,3.6,11.9,-11.7,-18.3,0.356700339,0.195593127,0.387340922,-0.827295755
854,2137926,705320,-0.622,-0.398,0.557,-11.5,-9.8,3.5,11.4,-11.7,-18.4,0.356913968,0.195348979,0.387432478,-0.827204199
855,2140139,705330,-0.626,-0.394,0.557,-12.3,-9.8,3.3,11.4,-11.7,-18.4,0.357097079,0.195104831,0.38758507,-0.827143162
856,2143405,705330,-0.626,-0.39,0.561,-13.3,-9.8,3.2,11.4,-11.7,-18.4,0.357310709,0.194860683,0.387737663,-0.827021088
857,2144812,705330,-0.622,-0.39,0.561,-14.4,-9.6,3.1,11.4,-11.7,-18.4,0.35749382,0.194555498,0.387890255,-0.826929533
858,2147324,705330,-0.63,-0.394,0.569,-15.5,-9.5,3.1,10.3,-11.2,-18.3,0.35770745,0.19431135,0.388103885,-0.826807459
859,2150829,705340,-0.63,-0.39,0.572,-16.7,-9.3,3.1,10.3,-11.2,-18.3,0.357890561,0.194036683,0.388317515,-0.826685385
860,2152416,705340,-0.634,-0.386,0.565,-18,-9.1,3.1,10.3,-11.2,-18.3,0.358134709,0.193762017,0.388561663,-0.826532792
861,2154796,705340,-0.638,-0.386,0.573,-19.3,-9.1,3,10.3,-11.2,-18.3,0.358348338,0.19348735,0.388805811,-0.826410718
862,2157276,705340,-0.642,-0.397,0.573,-20.6,-9.1,3,9.4,-11.9,-18.5,0.358561968,0.193182165,0.389110996,-0.826227607
863,2160058,705350,-0.646,-0.397,0.577,-22,-9.1,2.7,9.4,-11.9,-18.5,0.358775597,0.19287698,0.389416181,-0.826075014
864,2163266,705350,-0.642,-0.401,0.581,-23.3,-9,2.6,9.4,-11.9,-18.5,0.358989227,0.192541276,0.389751885,-0.825891903
865,2165361,705350,-0.642,-0.409,0.588,-24.2,-8.9,2.4,9.4,-11.9,-18.5,0.359233375,0.192205573,0.390118107,-0.825708792
866,2167619,705350,-0.638,-0.421,0.596,-25.2,-8.3,2.1,13.6,-12.5,-18.8,0.359843745,0.192724387,0.390148625,-0.825281533
867,2169958,705360,-0.634,-0.429,0.6,-25.2,-8.3,2.1,13.6,-12.5,-18.8,0.360057375,0.192419202,0.390545366,-0.825098422
868,2172423,705360,-0.638,-0.437,0.6,-25.6,-8,2.1,13.6,-12.5,-18.8,0.360271004,0.192083499,0.390942106,-0.824884793
869,2175859,705360,-0.642,-0.452,0.608,-25.8,-7.8,2.1,13.6,-12.5,-18.8,0.360484634,0.191747795,0.391308329,-0.824671163
870,2177489,705360,-0.638,-0.456,0.612,-26.1,-7.5,1.9,10.1,-10.5,-18.9,0.360698263,0.19144261,0.391735588,-0.824488052
871,2180015,705370,-0.642,-0.46,0.616,-26.2,-7.3,1.7,10.1,-10.5,-18.9,0.360881375,0.191106906,0.392132328,-0.824274422
872,2183383,705370,-0.646,-0.464,0.616,-26.3,-7,1.5,10.1,-10.5,-18.9,0.361095004,0.190771203,0.392559587,-0.824060793
873,2185025,705370,-0.646,-0.472,0.62,-26.2,-6.8,1.3,10.1,-10.5,-18.9,0.361278115,0.190466018,0.392956328,-0.823847163
874,2188279,705370,-0.65,-0.472,0.624,-25.8,-6.6,1.2,10.4,-10.2,-18.8,0.361461226,0.190160833,0.393353069,-0.823633534
875,2189865,705380,-0.654,-0.476,0.624,-25,-6.5,1.1,10.4,-10.2,-18.8,0.361644337,0.189855647,0.393749809,-0.823450423
876,2192352,705380,-0.654,-0.48,0.636,-24.1,-6.6,1.1,10.4,-10.2,-18.8,0.36179693,0.189550462,0.39414655,-0.823267312
877,2195392,705380,-0.654,-0.483,0.644,-23.1,-6.4,1.1,10.4,-10.2,-18.8,0.361980041,0.189245277,0.394482253,-0.823084201
878,2197737,705380,-0.651,-0.491,0.64,-22,-6.2,1,11.4,-10.5,-19,0.362163152,0.188970611,0.394848476,-0.82290109
879,2199908,705390,-0.647,-0.491,0.651,-20.9,-5.9,1.1,11.4,-10.5,-19,0.362315744,0.188695944,0.395153661,-0.822748497
880,2202457,705390,-0.651,-0.495,0.655,-19.7,-5.7,1.1,11.4,-10.5,-19,0.362468337,0.188451796,0.395458846,-0.822595904
881,2204741,705390,-0.639,-0.499,0.655,-18.6,-5.7,1.2,11.4,-10.5,-19,0.36262093,0.188238166,0.395764031,-0.822443312
882,2208905,705390,-0.639,-0.503,0.663,-17.5,-5.7,1.2,12.2,-9.9,-19,0.362773522,0.187994018,0.396008179,-0.822290719
883,2211148,705400,-0.639,-0.503,0.663,-16.4,-5.6,1.2,12.2,-9.9,-19,0.362895596,0.187780389,0.396252327,-0.822168645
884,2212670,705400,-0.635,-0.507,0.659,-15.5,-5.3,1.2,12.2,-9.9,-19,0.36301767,0.187566759,0.396496475,-0.822046571
885,2214863,705400,-0.635,-0.511,0.663,-14.7,-4.9,1.1,12.2,-9.9,-19,0.363139744,0.18735313,0.396710105,-0.821924497
886,2218339,705400,-0.639,-0.503,0.667,-13.3,-4.4,1.2,12,-12.2,-18.9,0.363353374,0.187292093,0.396771142,-0.821832942
887,2219905,705410,-0.635,-0.507,0.667,-13.3,-4.4,1.2,12,-12.2,-18.9,0.363475448,0.187108982,0.396954253,-0.821741386
888,2222492,705410,-0.639,-0.496,0.663,-12.7,-4.2,1.4,12,-12.2,-18.9,0.363567003,0.186925871,0.397137364,-0.821619312
889,2225504,705410,-0.639,-0.496,0.671,-12.2,-4,1.6,12,-12.2,-18.9,0.363689077,0.186742759,0.397320475,-0.821527757
890,2227793,705410,-0.631,-0.5,0.663,-11.7,-3.9,1.9,12.5,-10.5,-19.4,0.363811151,0.186651204,0.397503586,-0.821436201
891,2229887,705420,-0.635,-0.496,0.678,-11.2,-3.7,2.2,12.5,-10.5,-19.4,0.363933226,0.186498611,0.397656178,-0.821283609
892,2232298,705420,-0.631,-0.496,0.678,-10.8,-3.5,2.6,12.5,-10.5,-19.4,0.3640553,0.186376537,0.397808771,-0.821222571
893,2235761,705420,-0.627,-0.496,0.678,-10.4,-3.1,3.1,12.5,-10.5,-19.4,0.364177374,0.186254463,0.397961364,-0.821131016
894,2237904,705420,-0.627,-0.496,0.682,-10.3,-2.8,3.7,12.3,-10,-19.4,0.364299448,0.186162908,0.398113956,-0.821008942
895,2240435,705430,-0.631,-0.5,0.69,-10.4,-2.4,4.2,12.3,-10,-19.4,0.36445204,0.186071352,0.398266549,-0.820917386
896,2242712,705430,-0.627,-0.496,0.69,-10.8,-2,4.8,12.3,-10,-19.4,0.364604633,0.185979797,0.398419141,-0.820764794
897,2244980,705430,-0.631,-0.496,0.686,-11.3,-1.5,5.2,12.3,-10,-19.4,0.364757225,0.18591876,0.398602252,-0.82064272
898,2247300,705430,-0.623,-0.492,0.682,-12,-1.1,5.5,12.3,-10.2,-19.3,0.364909818,0.185857723,0.398785363,-0.820490127
899,2251467,705440,-0.631,-0.492,0.686,-12.9,-0.9,5.8,12.3,-10.2,-19.3,0.365092929,0.185766167,0.398968474,-0.820337535
900,2253706,705440,-0.627,-0.488,0.678,-13.6,-0.7,6.1,12.3,-10.2,-19.3,0.365245521,0.18570513,0.399182104,-0.820184942
901,2255204,705440,-0.631,-0.488,0.682,-14.4,-0.7,6.5,12.3,-10.2,-19.3,0.365428632,0.185644093,0.399426252,-0.820001831
902,2257508,705440,-0.63,-0.484,0.682,-15,-0.5,6.8,12.1,-10.7,-19.3,0.365611744,0.185583056,0.3996704,-0.81981872
903,2260008,705450,-0.63,-0.484,0.682,-15.6,-0.4,7.2,12.1,-10.7,-19.3,0.365825373,0.185491501,0.399914548,-0.819635609
904,2263319,705450,-0.626,-0.484,0.686,-16,-0.3,7.5,12.1,-10.7,-19.3,0.366008484,0.185430464,0.400158696,-0.819421979
905,2265688,705450,-0.623,-0.492,0.682,-16.3,-0.3,7.8,12.1,-10.7,-19.3,0.366222114,0.185369427,0.400402844,-0.81920835
906,2267899,705450,-0.619,-0.496,0.694,-16.9,-0.2,8.6,11.9,-10.2,-19.4,0.367076632,0.185644093,0.399273659,-0.819330424
907,2270146,705460,-0.615,-0.504,0.69,-16.9,-0.2,8.6,11.9,-10.2,-19.4,0.36732078,0.185583056,0.399548326,-0.819116794
908,2272350,705460,-0.611,-0.508,0.689,-17.3,-0.2,9,11.9,-10.2,-19.4,0.36753441,0.185522019,0.399822993,-0.818903165
909,2275352,705460,-0.611,-0.508,0.693,-17.8,0,9.4,11.9,-10.2,-19.4,0.367778558,0.185460982,0.400097659,-0.818659017
910,2277627,705460,-0.611,-0.52,0.69,-18.2,0.1,9.7,11.3,-12.7,-19.7,0.368022706,0.185399945,0.400402844,-0.818414869
911,2280705,705470,-0.615,-0.524,0.682,-18.6,0.2,10,11.3,-12.7,-19.7,0.368266854,0.185338908,0.400677511,-0.818170721
912,2282845,705470,-0.615,-0.524,0.682,-18.7,0.4,10.1,11.3,-12.7,-19.7,0.36854152,0.185277871,0.400982696,-0.817926572
913,2285157,705470,-0.619,-0.527,0.682,-18.6,0.2,10.2,11.3,-12.7,-19.7,0.368785669,0.185216834,0.401287881,-0.817682424
914,2288166,705470,-0.623,-0.523,0.686,-18.4,0.1,10.2,11.6,-13.1,-19.6,0.369060335,0.185155797,0.401562548,-0.817438276
915,2290393,705480,-0.619,-0.531,0.686,-18.1,0.1,10.5,11.6,-13.1,-19.6,0.369304483,0.185125278,0.401837214,-0.817194128
916,2292599,705480,-0.619,-0.531,0.686,-17.6,0.1,10.6,11.6,-13.1,-19.6,0.36957915,0.185064241,0.402111881,-0.81694998
917,2295662,705480,-0.619,-0.527,0.686,-17.1,0.1,11,11.6,-13.1,-19.6,0.369823298,0.185033723,0.402386547,-0.816705832
918,2297303,705480,-0.615,-0.535,0.694,-16.3,0,11.3,11.6,-13.5,-19.5,0.370097964,0.185003204,0.402630696,-0.816492203
919,2299968,705490,-0.607,-0.536,0.689,-15.4,-0.3,11.6,11.6,-13.5,-19.5,0.370372631,0.184972686,0.402813807,-0.816248054
920,2302959,705490,-0.607,-0.539,0.689,-14.3,-0.5,11.9,11.6,-13.5,-19.5,0.370647298,0.184942167,0.403057955,-0.816034425
921,2305986,705490,-0.604,-0.543,0.693,-13.4,-0.8,12.1,11.6,-13.5,-19.5,0.370921964,0.184942167,0.403241066,-0.815820795
922,2307454,705490,-0.6,-0.544,0.689,-12.5,-1,12.2,11.7,-12.9,-19.6,0.371196631,0.184911649,0.403393658,-0.815607166
923,2310590,705500,-0.6,-0.544,0.685,-11.7,-1.4,12.4,11.7,-12.9,-19.6,0.371471297,0.184911649,0.403546251,-0.815424055
924,2312813,705500,-0.604,-0.547,0.686,-10.9,-1.7,12.5,11.7,-12.9,-19.6,0.371776482,0.184911649,0.403698843,-0.815210425
925,2314969,705500,-0.596,-0.548,0.685,-10.1,-1.9,12.5,11.7,-12.9,-19.6,0.372051149,0.18488113,0.403790399,-0.815027314
926,2318856,705500,-0.596,-0.54,0.685,-8.3,-2.1,12.7,11.8,-9.5,-17.9,0.372356334,0.184423353,0.40336314,-0.815210425
927,2320993,705510,-0.596,-0.54,0.685,-8.3,-2.1,12.7,11.8,-9.5,-17.9,0.372661519,0.184423353,0.403424177,-0.815057833
928,2323351,705510,-0.596,-0.536,0.681,-7.3,-2.2,13,11.8,-9.5,-17.9,0.372936186,0.184453871,0.403485214,-0.814874722
929,2325735,705510,-0.595,-0.532,0.685,-6.4,-2.4,13.2,11.8,-9.5,-17.9,0.373210852,0.184453871,0.403546251,-0.814722129
930,2327844,705510,-0.591,-0.528,0.677,-5.6,-2.7,13.5,11.4,-10.7,-20.9,0.373516037,0.18448439,0.403546251,-0.814569536
931,2330007,705520,-0.591,-0.524,0.673,-4.9,-3,13.7,11.4,-10.7,-20.9,0.373790704,0.184514908,0.403576769,-0.814447462
932,2332314,705520,-0.595,-0.516,0.67,-4.3,-3.3,13.9,11.4,-10.7,-20.9,0.374095889,0.184545427,0.403546251,-0.81429487
933,2334820,705520,-0.595,-0.512,0.67,-3.9,-3.6,14,11.4,-10.7,-20.9,0.374401074,0.184575945,0.403546251,-0.814172796
934,2339090,705520,-0.587,-0.505,0.669,-3.5,-3.9,14.1,11.3,-9.7,-20.9,0.374675741,0.184606464,0.403515732,-0.814050722
935,2340724,705530,-0.591,-0.501,0.666,-3.3,-4.2,14.1,11.3,-9.7,-20.9,0.374980926,0.184606464,0.403485214,-0.813898129
936,2342292,705530,-0.587,-0.497,0.665,-3.1,-4.4,14.1,11.3,-9.7,-20.9,0.375286111,0.184636982,0.403454695,-0.813776055
937,2344705,705530,-0.583,-0.505,0.665,-3,-4.7,14.1,11.3,-9.7,-20.9,0.375591296,0.184667501,0.403393658,-0.813653981
938,2348136,705530,-0.579,-0.501,0.661,-2.8,-4.9,14.1,11.3,-9.2,-20.5,0.375896481,0.184667501,0.40336314,-0.813531907
939,2349857,705540,-0.579,-0.501,0.665,-2.8,-5.2,14.1,11.3,-9.2,-20.5,0.376201666,0.184667501,0.403302103,-0.813409833
940,2353382,705540,-0.579,-0.505,0.665,-2.8,-5.3,14,11.3,-9.2,-20.5,0.376506851,0.184667501,0.403271584,-0.813287759
941,2354924,705540,-0.579,-0.501,0.657,-2.8,-5.4,14.1,11.3,-9.2,-20.5,0.376842555,0.184698019,0.403210547,-0.813165685
942,2357908,705540,-0.579,-0.509,0.661,-2.7,-5.6,14.1,11.3,-9.1,-21.3,0.37714774,0.184698019,0.40314951,-0.813074129
943,2360276,705550,-0.575,-0.505,0.653,-2.6,-5.8,13.9,11.3,-9.1,-21.3,0.377422407,0.184667501,0.403088473,-0.812952055
944,2362543,705550,-0.579,-0.505,0.657,-2.4,-6.1,13.8,11.3,-9.1,-21.3,0.37775811,0.184667501,0.403027436,-0.812829981
945,2365424,705550,-0.575,-0.505,0.657,-2.3,-6.2,13.5,11.3,-9.1,-21.3,0.378063295,0.184667501,0.402966399,-0.812738426
946,2367284,705550,-0.579,-0.501,0.657,-2.1,-6.9,12.8,11.1,-10.8,-19.6,0.378429518,0.184453871,0.402600177,-0.812799463
947,2370803,705560,-0.571,-0.501,0.653,-2.1,-6.9,12.8,11.1,-10.8,-19.6,0.378704184,0.184423353,0.40253914,-0.812707907
948,2372305,705560,-0.571,-0.501,0.653,-2,-7.2,12.6,11.1,-10.8,-19.6,0.379009369,0.184392834,0.402447584,-0.812616352
949,2375362,705560,-0.567,-0.497,0.649,-1.7,-7.4,12.4,11.1,-10.8,-19.6,0.379314554,0.184362316,0.402386547,-0.812524796
950,2377567,705560,-0.567,-0.501,0.649,-1.3,-7.5,12.2,11.3,-10.9,-19.3,0.379589221,0.184331797,0.402294992,-0.812433241
951,2380459,705570,-0.56,-0.505,0.645,-1,-7.6,12,11.3,-10.9,-19.3,0.379894406,0.18427076,0.402203436,-0.812341685
952,2382239,705570,-0.56,-0.509,0.649,-0.7,-7.7,11.9,11.3,-10.9,-19.3,0.380169073,0.184240242,0.402081362,-0.812280648
953,2385957,705570,-0.564,-0.509,0.649,-0.4,-7.8,11.7,11.3,-10.9,-19.3,0.380443739,0.184209723,0.401989807,-0.812219611
954,2387876,705570,-0.56,-0.505,0.645,-0.2,-8,11.4,11.5,-10.8,-18.9,0.380718406,0.184148686,0.401867733,-0.812158574
955,2389727,705580,-0.56,-0.509,0.645,0,-8,11.1,11.5,-10.8,-18.9,0.380993072,0.184118168,0.401776177,-0.812097537
956,2393181,705580,-0.56,-0.509,0.649,0.1,-7.9,10.7,11.5,-10.8,-18.9,0.38123722,0.184057131,0.401654103,-0.8120365
957,2396317,705580,-0.56,-0.505,0.645,0.4,-7.9,10.4,11.5,-10.8,-18.9,0.381481368,0.184026612,0.401532029,-0.811975463
958,2398506,705580,-0.559,-0.501,0.641,0.6,-7.8,10.2,11.3,-11,-17.8,0.381756035,0.183965575,0.401409955,-0.811944945
959,2400114,705590,-0.563,-0.497,0.641,0.9,-7.9,10,11.3,-11,-17.8,0.382000183,0.183935057,0.401287881,-0.811883908
960,2402419,705590,-0.567,-0.497,0.634,1,-7.9,9.7,11.3,-11,-17.8,0.382213813,0.18387402,0.401165807,-0.811853389
961,2406024,705590,-0.563,-0.493,0.641,1.2,-8,9.3,11.3,-11,-17.8,0.382457961,0.183812983,0.401043733,-0.811822871
962,2407673,705590,-0.563,-0.489,0.633,1.2,-8,8.9,11.1,-10.6,-17,0.38267159,0.183782464,0.400921659,-0.811792352
963,2410011,705600,-0.563,-0.482,0.63,1.2,-7.9,8.5,11.1,-10.6,-17,0.38288522,0.183721427,0.400799585,-0.811761834
964,2412529,705600,-0.567,-0.482,0.637,1.3,-7.8,8.1,11.1,-10.6,-17,0.383098849,0.18366039,0.400677511,-0.811731315
965,2414836,705600,-0.567,-0.482,0.634,1.3,-7.7,7.7,11.1,-10.6,-17,0.383281961,0.183599353,0.400555437,-0.811700797
966,2417258,705600,-0.563,-0.482,0.63,1.3,-7.4,6.9,11,-11,-22.2,0.383556627,0.183324686,0.400036622,-0.811914426
967,2420450,705610,-0.567,-0.478,0.63,1.3,-7.4,6.9,11,-11,-22.2,0.383739738,0.183263649,0.399914548,-0.811883908
968,2422251,705610,-0.563,-0.489,0.633,1.4,-7.4,6.4,11,-11,-22.2,0.383922849,0.183202612,0.399822993,-0.811883908
969,2424974,705610,-0.559,-0.486,0.633,1.6,-7.4,6,11,-11,-22.2,0.384075442,0.183141575,0.399700919,-0.811853389
970,2427277,705610,-0.555,-0.494,0.633,1.7,-7.4,5.4,11,-11.1,-18.8,0.384258553,0.183080538,0.399578845,-0.811853389
971,2430690,705620,-0.559,-0.493,0.626,1.7,-7.4,4.9,11,-11.1,-18.8,0.384380627,0.182988983,0.399456771,-0.811853389
972,2432898,705620,-0.559,-0.493,0.626,1.7,-7.3,4.4,11,-11.1,-18.8,0.384533219,0.182927946,0.399365215,-0.811883908
973,2434961,705620,-0.56,-0.501,0.63,1.6,-7.2,3.9,11,-11.1,-18.8,0.384655293,0.18283639,0.399243141,-0.811883908
974,2438221,705620,-0.564,-0.505,0.626,1.6,-7.1,3.5,11.1,-10.8,-19.1,0.384777367,0.182744835,0.399151585,-0.811914426
975,2440385,705630,-0.564,-0.501,0.63,1.6,-7,3.1,11.1,-10.8,-19.1,0.384868923,0.182683798,0.399029511,-0.811914426
976,2442613,705630,-0.564,-0.505,0.626,1.6,-6.7,2.7,11.1,-10.8,-19.1,0.384990997,0.182592242,0.398907437,-0.811944945
977,2445013,705630,-0.568,-0.509,0.626,1.6,-6.4,2.3,11.1,-10.8,-19.1,0.385082553,0.182500687,0.3988464,-0.811944945
978,2447727,705630,-0.568,-0.509,0.63,1.8,-6.2,1.9,10.8,-10.7,-20,0.38514359,0.18243965,0.398754845,-0.811975463
979,2449913,705640,-0.572,-0.509,0.63,2,-6.1,1.6,10.8,-10.7,-20,0.385235145,0.182348094,0.398663289,-0.812005982
980,2454146,705640,-0.576,-0.513,0.63,2,-5.9,1.5,10.8,-10.7,-20,0.385296182,0.182287057,0.398571734,-0.8120365
981,2454889,705640,-0.572,-0.509,0.63,2,-5.7,1.4,10.8,-10.7,-20,0.385357219,0.182195502,0.398480178,-0.812067019
982,2458114,705640,-0.568,-0.505,0.63,1.9,-5.5,1.4,10.6,-11.2,-21,0.385448775,0.182134465,0.398388623,-0.812097537
983,2460294,705650,-0.572,-0.517,0.626,1.7,-5.3,1.2,10.6,-11.2,-21,0.385509812,0.182073428,0.398327586,-0.812128056
984,2462410,705650,-0.576,-0.509,0.622,1.6,-5.3,1,10.6,-11.2,-21,0.38554033,0.181981872,0.39823603,-0.812158574
985,2464991,705650,-0.572,-0.513,0.618,1.4,-5.3,0.7,10.6,-11.2,-21,0.385601367,0.181920835,0.398174993,-0.812158574
986,2468975,705650,-0.576,-0.517,0.618,1.6,-5.2,0.4,10.7,-10.9,-19.8,0.385601367,0.181493576,0.397961364,-0.812372204
987,2469909,705660,-0.576,-0.517,0.618,1.6,-5.2,0.4,10.7,-10.9,-19.8,0.385631886,0.18140202,0.397900327,-0.812402722
988,2472221,705660,-0.576,-0.528,0.626,1.9,-5.1,0.4,10.7,-10.9,-19.8,0.385692923,0.181340983,0.397808771,-0.812433241
989,2476468,705660,-0.576,-0.525,0.63,2,-5,0.3,10.7,-10.9,-19.8,0.385723441,0.181279946,0.397717215,-0.812463759
990,2478809,705660,-0.576,-0.528,0.622,2.1,-4.7,0.3,11.5,-11.1,-20,0.38575396,0.181218909,0.397656178,-0.812494278
991,2481004,705670,-0.58,-0.528,0.622,2,-4.3,0.3,11.5,-11.1,-20,0.385784478,0.181157872,0.397564623,-0.812555315
992,2483454,705670,-0.576,-0.528,0.622,1.7,-4.1,0.3,11.5,-11.1,-20,0.385845515,0.181096835,0.397503586,-0.812555315
993,2484870,705670,-0.58,-0.528,0.622,1.3,-3.9,0.4,11.5,-11.1,-20,0.385876034,0.181035798,0.397442549,-0.812585833
994,2487572,705670,-0.584,-0.528,0.626,0.9,-3.7,0.5,11.5,-10.7,-19.7,0.385906552,0.180974761,0.39741203,-0.812616352
995,2489923,705680,-0.58,-0.524,0.626,0.6,-3.5,0.3,11.5,-10.7,-19.7,0.385937071,0.180944243,0.397350993,-0.812616352
996,2492660,705680,-0.588,-0.52,0.626,0.4,-3.2,0.3,11.5,-10.7,-19.7,0.385967589,0.180883206,0.397320475,-0.81264687
997,2495026,705680,-0.576,-0.521,0.622,0.3,-3,0.2,11.5,-10.7,-19.7,0.385998108,0.180822169,0.397289956,-0.81264687
998,2499089,705680,-0.58,-0.517,0.63,0.2,-2.8,0.3,11.2,-11,-19.7,0.386028626,0.18079165,0.397259438,-0.812677389
999,2500037,705690,-0.584,-0.52,0.622,0.1,-2.6,0.3,11.2,-11,-19.7,0.386059145,0.180761132,0.397228919,-0.812677389
1000,2502528,705690,-0.584,-0.517,0.626,0,-2.3,0.3,11.2,-11,-19.7,0.386089663,0.180700095,0.397198401,-0.812677389
1001,2504797,705690,-0.588,-0.516,0.626,-0.3,-2,0.3,11.2,-11,-19.7,0.386120182,0.180669576,0.397198401,-0.812677389
1002,2508048,705690,-0.584,-0.517,0.626,-0.6,-1.8,0.4,11.2,-10.7,-19.8,0.3861507,0.180639058,0.397198401,-0.812677389
1003,2510278,705700,-0.588,-0.516,0.622,-1.1,-1.4,0.3,11.2,-10.7,-19.8,0.386181219,0.180608539,0.397198401,-0.812677389
1004,2512536,705700,-0.592,-0.512,0.619,-1.5,-1.1,0.3,11.2,-10.7,-19.8,0.386181219,0.180578021,0.397228919,-0.81264687
1005,2514944,705700,-0.595,-0.512,0.623,-1.9,-0.8,0.3,11.2,-10.7,-19.8,0.386211737,0.180547502,0.397228919,-0.81264687
1006,2517581,705700,-0.595,-0.512,0.623,-2.8,-0.3,0.2,9.7,-11,-19.6,0.386181219,0.180303354,0.397289956,-0.812707907
1007,2519841,705710,-0.595,-0.508,0.619,-2.8,-0.3,0.2,9.7,-11,-19.6,0.386181219,0.180303354,0.397320475,-0.812677389
1008,2523283,705710,-0.599,-0.504,0.615,-3.2,0,0.2,9.7,-11,-19.6,0.386211737,0.180272835,0.397381512,-0.81264687
1009,2525444,705710,-0.607,-0.508,0.615,-3.4,0.2,0.2,9.7,-11,-19.6,0.386211737,0.180242317,0.397442549,-0.812616352
1010,2527757,705710,-0.607,-0.504,0.619,-3.7,0.3,0,11.9,-11.1,-19.7,0.386242256,0.180211798,0.397503586,-0.812585833
1011,2529954,705720,-0.611,-0.5,0.615,-3.9,0.6,0,11.9,-11.1,-19.7,0.386242256,0.18018128,0.397595141,-0.812524796
1012,2532293,705720,-0.607,-0.5,0.615,-4.2,0.8,-0.2,11.9,-11.1,-19.7,0.386242256,0.18018128,0.397686697,-0.812494278
1013,2534836,705720,-0.603,-0.5,0.615,-4.4,0.8,-0.3,11.9,-11.1,-19.7,0.386242256,0.180150761,0.397778253,-0.812463759
1014,2537927,705720,-0.611,-0.496,0.615,-4.7,0.9,-0.4,11.9,-10.8,-19.6,0.386242256,0.180120243,0.397869808,-0.812402722
1015,2539811,705730,-0.603,-0.496,0.615,-4.8,0.9,-0.6,11.9,-10.8,-19.6,0.386242256,0.180089724,0.397961364,-0.812372204
1016,2542511,705730,-0.611,-0.496,0.615,-4.9,1.1,-0.7,11.9,-10.8,-19.6,0.386242256,0.180059206,0.398052919,-0.812341685
1017,2545808,705730,-0.607,-0.5,0.615,-4.9,1.3,-0.7,11.9,-10.8,-19.6,0.386242256,0.180028687,0.398144475,-0.812280648
1018,2547375,705730,-0.611,-0.504,0.615,-4.8,1.6,-0.7,12,-10.9,-19.5,0.386242256,0.180028687,0.398266549,-0.81225013
1019,2549792,705740,-0.619,-0.504,0.615,-4.9,1.7,-0.9,12,-10.9,-19.5,0.386211737,0.179998169,0.398358104,-0.812219611
1020,2552572,705740,-0.619,-0.5,0.608,-5,1.8,-1,12,-10.9,-19.5,0.386211737,0.17996765,0.398480178,-0.812158574
