sample_index,elapsed_us,device_time_ms,acc_x_g,acc_y_g,acc_z_g,gyro_x_dps,gyro_y_dps,gyro_z_dps,mag_x_ut,mag_y_ut,mag_z_ut,quat_w,quat_x,quat_y,quat_z
0,5210,71590,0.962,-0.08,0.225,-1.3,0.6,-1.5,-4.5,25.9,-18.8,0.100039674,-0.614093448,-0.033722953,-0.782097842
1,7189,71590,0.962,-0.08,0.225,-1.3,0.6,-1.5,-4.5,25.9,-18.8,0.100039674,-0.614093448,-0.033722953,-0.782097842
2,9126,71590,0.962,-0.08,0.225,-1.3,0.6,-1.5,-4.5,25.9,-18.8,0.100039674,-0.614093448,-0.033722953,-0.782097842
3,11822,71600,0.962,-0.08,0.225,-1.3,0.6,-1.5,-4.5,25.9,-18.8,0.100039674,-0.614093448,-0.033722953,-0.782097842
4,13667,71600,0.966,-0.08,0.229,-1.4,0.7,-2.6,-4.4,25.7,-17.6,0.0997039705,-0.614062929,-0.0336313974,-0.782189398
5,15987,71600,0.966,-0.08,0.229,-1.4,0.7,-2.6,-4.4,25.7,-17.6,0.0997039705,-0.614062929,-0.0336313974,-0.782189398
6,18604,71600,0.966,-0.08,0.229,-1.4,0.7,-2.6,-4.4,25.7,-17.6,0.0997039705,-0.614062929,-0.0336313974,-0.782189398
7,20875,71610,0.966,-0.08,0.229,-1.4,0.7,-2.6,-4.4,25.7,-17.6,0.0997039705,-0.614062929,-0.0336313974,-0.782189398
8,25242,71610,0.966,-0.08,0.229,-1.4,0.7,-2.6,-4.4,25.7,-17.6,0.0997039705,-0.614062929,-0.0336313974,-0.782189398
9,27550,71610,0.966,-0.08,0.229,-1.4,0.7,-2.6,-4.4,25.7,-17.6,0.0997039705,-0.614062929,-0.0336313974,-0.782189398
10,29830,71610,0.966,-0.084,0.236,-1.7,0.2,-2.6,-4.7,25.7,-18,0.0993072298,-0.614032411,-0.0336924345,-0.782219916
11,32139,71620,0.966,-0.08,0.236,-1.8,0.1,-2.5,-4.7,25.7,-18,0.0992156743,-0.614032411,-0.0336924345,-0.782280953
12,33929,71620,0.966,-0.08,0.236,-1.8,0.1,-2.5,-4.7,25.7,-18,0.0992156743,-0.614032411,-0.0336924345,-0.782280953
13,36299,71620,0.966,-0.08,0.236,-1.8,0.1,-2.5,-4.7,25.7,-18,0.0992156743,-0.614032411,-0.0336924345,-0.782280953
14,38504,71620,0.966,-0.08,0.236,-1.8,0.1,-2.5,-4.7,25.7,-18,0.0992156743,-0.614032411,-0.0336924345,-0.782280953
15,41053,71630,0.966,-0.08,0.236,-1.8,0.1,-2.5,-4.7,25.7,-18,0.0992156743,-0.614032411,-0.0336924345,-0.782280953
16,45537,71630,0.966,-0.08,0.236,-1.8,0.1,-2.5,-4.7,25.7,-18,0.0992156743,-0.614032411,-0.0336924345,-0.782280953
17,47798,71630,0.966,-0.08,0.236,-1.8,0.1,-2.5,-4.7,25.7,-18,0.0992156743,-0.614032411,-0.0336924345,-0.782280953
18,49992,71630,0.966,-0.08,0.236,-1.8,0.1,-2.5,-4.7,25.7,-18,0.0992156743,-0.614032411,-0.0336924345,-0.782280953
19,52313,71640,0.966,-0.08,0.236,-1.8,0.1,-2.5,-4.7,25.7,-18,0.0992156743,-0.614032411,-0.0336924345,-0.782280953
20,54443,71640,0.966,-0.08,0.236,-1.8,0.1,-2.5,-4.7,25.7,-18,0.0992156743,-0.614032411,-0.0336924345,-0.782280953
21,56470,71640,0.966,-0.08,0.236,-1.8,0.1,-2.5,-4.7,25.7,-18,0.0992156743,-0.614032411,-0.0336924345,-0.782280953
22,58655,71640,0.966,-0.08,0.236,-1.8,0.1,-2.5,-4.7,25.7,-18,0.0992156743,-0.614032411,-0.0336924345,-0.782280953
23,62785,71650,0.966,-0.08,0.236,-1.8,0.1,-2.5,-4.7,25.7,-18,0.0992156743,-0.614032411,-0.0336924345,-0.782280953
24,65056,71650,0.962,-0.069,0.225,-1.7,-0.7,-2.4,-4.7,25.8,-18.3,0.0983306375,-0.61424604,-0.03378399,-0.782189398
25,67261,71650,0.962,-0.069,0.225,-1.7,-0.7,-2.4,-4.7,25.8,-18.3,0.0983306375,-0.61424604,-0.03378399,-0.782189398
26,69444,71650,0.962,-0.069,0.225,-1.7,-0.7,-2.4,-4.7,25.8,-18.3,0.0983306375,-0.61424604,-0.03378399,-0.782189398
27,71407,71660,0.962,-0.069,0.225,-1.7,-0.7,-2.4,-4.7,25.8,-18.3,0.0983306375,-0.61424604,-0.03378399,-0.782189398
28,73650,71660,0.962,-0.069,0.225,-1.7,-0.7,-2.4,-4.7,25.8,-18.3,0.0983306375,-0.61424604,-0.03378399,-0.782189398
29,77698,71660,0.962,-0.069,0.225,-1.7,-0.7,-2.4,-4.7,25.8,-18.3,0.0983306375,-0.61424604,-0.03378399,-0.782189398
30,80005,71660,0.962,-0.069,0.225,-1.7,-0.7,-2.4,-4.7,25.8,-18.3,0.0983306375,-0.61424604,-0.03378399,-0.782189398
31,82190,71670,0.962,-0.069,0.225,-1.7,-0.7,-2.4,-4.7,25.8,-18.3,0.0983306375,-0.61424604,-0.03378399,-0.782189398
32,85025,71670,0.962,-0.069,0.225,-1.7,-0.7,-2.4,-4.7,25.8,-18.3,0.0983306375,-0.61424604,-0.03378399,-0.782189398
33,87256,71670,0.962,-0.069,0.225,-1.7,-0.7,-2.4,-4.7,25.8,-18.3,0.0983306375,-0.61424604,-0.03378399,-0.782189398
34,88997,71670,0.962,-0.069,0.225,-1.7,-0.7,-2.4,-4.7,25.8,-18.3,0.0983306375,-0.61424604,-0.03378399,-0.782189398
35,92553,71680,0.962,-0.069,0.225,-1.7,-0.7,-2.4,-4.7,25.8,-18.3,0.0983306375,-0.61424604,-0.03378399,-0.782189398
36,95461,71680,0.962,-0.069,0.225,-1.7,-0.7,-2.4,-4.7,25.8,-18.3,0.0983306375,-0.61424604,-0.03378399,-0.782189398
37,95857,71680,0.962,-0.069,0.225,-1.7,-0.7,-2.4,-4.7,25.8,-18.3,0.0983306375,-0.61424604,-0.03378399,-0.782189398
38,100894,71680,0.962,-0.069,0.225,-1.7,-0.7,-2.4,-4.7,25.8,-18.3,0.0983306375,-0.61424604,-0.03378399,-0.782189398
39,101325,71690,0.958,-0.068,0.229,-2.4,-0.3,-2.7,-4.8,24.7,-18.4,0.0972624897,-0.614490188,-0.033845027,-0.782128361
40,103648,71690,0.958,-0.068,0.229,-2.4,-0.3,-2.7,-4.8,24.7,-18.4,0.0972624897,-0.614490188,-0.033845027,-0.782128361
41,105895,71690,0.958,-0.068,0.229,-2.4,-0.3,-2.7,-4.8,24.7,-18.4,0.0972624897,-0.614490188,-0.033845027,-0.782128361
42,108457,71690,0.958,-0.068,0.229,-2.4,-0.3,-2.7,-4.8,24.7,-18.4,0.0972624897,-0.614490188,-0.033845027,-0.782128361
43,113025,71700,0.958,-0.068,0.229,-2.4,-0.3,-2.7,-4.8,24.7,-18.4,0.0972624897,-0.614490188,-0.033845027,-0.782128361
44,113444,71700,0.958,-0.068,0.229,-2.4,-0.3,-2.7,-4.8,24.7,-18.4,0.0972624897,-0.614490188,-0.033845027,-0.782128361
45,116105,71700,0.958,-0.068,0.229,-2.4,-0.3,-2.7,-4.8,24.7,-18.4,0.0972624897,-0.614490188,-0.033845027,-0.782128361
46,118726,71700,0.958,-0.068,0.229,-2.4,-0.3,-2.7,-4.8,24.7,-18.4,0.0972624897,-0.614490188,-0.033845027,-0.782128361
47,120948,71710,0.958,-0.068,0.229,-2.4,-0.3,-2.7,-4.8,24.7,-18.4,0.0972624897,-0.614490188,-0.033845027,-0.782128361
48,124766,71710,0.958,-0.068,0.229,-2.4,-0.3,-2.7,-4.8,24.7,-18.4,0.0972624897,-0.614490188,-0.033845027,-0.782128361
49,127131,71710,0.958,-0.068,0.229,-2.4,-0.3,-2.7,-4.8,24.7,-18.4,0.0972624897,-0.614490188,-0.033845027,-0.782128361
50,128875,71710,0.958,-0.068,0.229,-2.4,-0.3,-2.7,-4.8,24.7,-18.4,0.0972624897,-0.614490188,-0.033845027,-0.782128361
51,133015,71720,0.962,-0.08,0.236,-3.3,-1.4,-3.3,-4.6,25.8,-18.1,0.0961943419,-0.614795373,-0.03378399,-0.782036805
52,133493,71720,0.962,-0.08,0.236,-3.5,-1.6,-3.4,-4.6,25.8,-18.1,0.0960722678,-0.614825892,-0.033722953,-0.782036805
53,136075,71720,0.962,-0.08,0.236,-3.5,-1.6,-3.4,-4.6,25.8,-18.1,0.0960722678,-0.614825892,-0.033722953,-0.782036805
54,140399,71720,0.962,-0.08,0.236,-3.5,-1.6,-3.4,-4.6,25.8,-18.1,0.0960722678,-0.614825892,-0.033722953,-0.782036805
55,142729,71730,0.962,-0.08,0.236,-3.5,-1.6,-3.4,-4.6,25.8,-18.1,0.0960722678,-0.614825892,-0.033722953,-0.782036805
56,145028,71730,0.962,-0.08,0.236,-3.5,-1.6,-3.4,-4.6,25.8,-18.1,0.0960722678,-0.614825892,-0.033722953,-0.782036805
57,147153,71730,0.969,-0.073,0.236,-3.3,-1.7,-3,-4.6,25.8,-18.1,0.0955534532,-0.615009003,-0.0336924345,-0.78194525
58,148816,71730,0.969,-0.073,0.236,-3.3,-1.7,-3,-4.6,25.8,-18.1,0.0955534532,-0.615009003,-0.0336924345,-0.78194525
59,151223,71740,0.969,-0.073,0.236,-3.3,-1.7,-3,-4.6,25.8,-18.1,0.0955534532,-0.615009003,-0.0336924345,-0.78194525
60,153400,71740,0.969,-0.073,0.236,-3.3,-1.7,-3,-4.6,25.8,-18.1,0.0955534532,-0.615009003,-0.0336924345,-0.78194525
61,158409,71740,0.969,-0.073,0.236,-3.3,-1.7,-3,-4.6,25.8,-18.1,0.0955534532,-0.615009003,-0.0336924345,-0.78194525
62,158409,71740,0.969,-0.069,0.236,-2.8,-2.4,-2.7,-5,26.2,-17.6,0.095126194,-0.615253151,-0.0336008789,-0.781823176
63,162027,71750,0.969,-0.069,0.236,-2.8,-2.4,-2.7,-5,26.2,-17.6,0.095126194,-0.615253151,-0.0336008789,-0.781823176
64,163991,71750,0.969,-0.069,0.236,-2.8,-2.4,-2.7,-5,26.2,-17.6,0.095126194,-0.615253151,-0.0336008789,-0.781823176
65,166319,71750,0.969,-0.069,0.236,-2.8,-2.4,-2.7,-5,26.2,-17.6,0.095126194,-0.615253151,-0.0336008789,-0.781823176
66,168512,71750,0.969,-0.069,0.236,-2.8,-2.4,-2.7,-5,26.2,-17.6,0.095126194,-0.615253151,-0.0336008789,-0.781823176
67,172963,71760,0.969,-0.069,0.236,-2.8,-2.4,-2.7,-5,26.2,-17.6,0.095126194,-0.615253151,-0.0336008789,-0.781823176
68,175096,71760,0.97,-0.057,0.232,-2.5,-2.3,-2.4,-5,26.2,-17.6,0.0946378979,-0.615527818,-0.0335703604,-0.781670583
69,177313,71760,0.97,-0.057,0.232,-2.5,-2.3,-2.4,-5,26.2,-17.6,0.0946378979,-0.615527818,-0.0335703604,-0.781670583
70,179724,71760,0.97,-0.057,0.232,-2.5,-2.3,-2.4,-5,26.2,-17.6,0.0946378979,-0.615527818,-0.0335703604,-0.781670583
71,181376,71770,0.97,-0.057,0.232,-2.5,-2.3,-2.4,-5,26.2,-17.6,0.0946378979,-0.615527818,-0.0335703604,-0.781670583
72,184756,71770,0.97,-0.057,0.232,-2.5,-2.3,-2.4,-5,26.2,-17.6,0.0946378979,-0.615527818,-0.0335703604,-0.781670583
73,186978,71770,0.973,-0.061,0.228,-2.2,-1.8,-2.2,-5,26.2,-17.6,0.0942716758,-0.615710929,-0.0335398419,-0.781548509
74,188985,71770,0.973,-0.061,0.228,-2.2,-1.8,-2.2,-5,26.2,-17.6,0.0942716758,-0.615710929,-0.0335398419,-0.781548509
75,191280,71780,0.973,-0.061,0.228,-2.2,-1.8,-2.2,-5,26.2,-17.6,0.0942716758,-0.615710929,-0.0335398419,-0.781548509
76,194558,71780,0.973,-0.061,0.228,-2.2,-1.8,-2.2,-5,26.2,-17.6,0.0942716758,-0.615710929,-0.0335398419,-0.781548509
77,196896,71780,0.973,-0.061,0.228,-2.2,-1.8,-2.2,-5,26.2,-17.6,0.0942716758,-0.615710929,-0.0335398419,-0.781548509
78,199665,71780,0.969,-0.069,0.232,-2.5,-1.7,-2.2,-5,26.2,-17.6,0.0939054537,-0.61589404,-0.0334788049,-0.781456954
79,201526,71790,0.969,-0.069,0.232,-2.5,-1.7,-2.2,-5,26.2,-17.6,0.0939054537,-0.61589404,-0.0334788049,-0.781456954
80,203779,71790,0.969,-0.069,0.232,-2.5,-1.7,-2.2,-5,26.2,-17.6,0.0939054537,-0.61589404,-0.0334788049,-0.781456954
81,206203,71790,0.969,-0.069,0.232,-2.5,-1.7,-2.2,-5,26.2,-17.6,0.0939054537,-0.61589404,-0.0334788049,-0.781456954
82,208649,71790,0.969,-0.069,0.232,-2.5,-1.7,-2.2,-5,26.2,-17.6,0.0939054537,-0.61589404,-0.0334788049,-0.781456954
83,210977,71800,0.969,-0.069,0.232,-2.5,-1.7,-2.2,-5,26.2,-17.6,0.0939054537,-0.61589404,-0.0334788049,-0.781456954
84,215232,71800,0.969,-0.069,0.232,-2.5,-1.7,-2.2,-5,26.2,-17.6,0.0939054537,-0.61589404,-0.0334788049,-0.781456954
85,217486,71800,0.966,-0.076,0.232,-3.3,-1.5,-2.2,-4.8,25.6,-17.7,0.0933561205,-0.616199225,-0.0332956938,-0.781304361
86,219691,71800,0.966,-0.076,0.232,-3.3,-1.5,-2.2,-4.8,25.6,-17.7,0.0933561205,-0.616199225,-0.0332956938,-0.781304361
87,222016,71810,0.966,-0.076,0.232,-3.3,-1.5,-2.2,-4.8,25.6,-17.7,0.0933561205,-0.616199225,-0.0332956938,-0.781304361
88,223919,71810,0.966,-0.076,0.232,-3.3,-1.5,-2.2,-4.8,25.6,-17.7,0.0933561205,-0.616199225,-0.0332956938,-0.781304361
89,226157,71810,0.966,-0.076,0.232,-3.3,-1.5,-2.2,-4.8,25.6,-17.7,0.0933561205,-0.616199225,-0.0332956938,-0.781304361
90,228473,71810,0.966,-0.076,0.232,-3.3,-1.5,-2.2,-4.8,25.6,-17.7,0.0933561205,-0.616199225,-0.0332956938,-0.781304361
91,230898,71820,0.966,-0.076,0.232,-3.3,-1.5,-2.2,-4.8,25.6,-17.7,0.0933561205,-0.616199225,-0.0332956938,-0.781304361
92,235559,71820,0.966,-0.076,0.232,-3.3,-1.5,-2.2,-4.8,25.6,-17.7,0.0933561205,-0.616199225,-0.0332956938,-0.781304361
93,235958,71820,0.966,-0.076,0.232,-3.3,-1.5,-2.2,-4.8,25.6,-17.7,0.0933561205,-0.616199225,-0.0332956938,-0.781304361
94,238570,71820,0.966,-0.076,0.232,-3.3,-1.5,-2.2,-4.8,25.6,-17.7,0.0933561205,-0.616199225,-0.0332956938,-0.781304361
95,240876,71830,0.966,-0.076,0.232,-3.3,-1.5,-2.2,-4.8,25.6,-17.7,0.0933561205,-0.616199225,-0.0332956938,-0.781304361
96,245239,71830,0.966,-0.076,0.232,-3.3,-1.5,-2.2,-4.8,25.6,-17.7,0.0933561205,-0.616199225,-0.0332956938,-0.781304361
97,247862,71830,0.966,-0.076,0.232,-3.3,-1.5,-2.2,-4.8,25.6,-17.7,0.0933561205,-0.616199225,-0.0332956938,-0.781304361
98,250096,71830,0.966,-0.076,0.232,-3.3,-1.5,-2.2,-4.8,25.6,-17.7,0.0933561205,-0.616199225,-0.0332956938,-0.781304361
99,252296,71840,0.966,-0.076,0.232,-3.3,-1.5,-2.2,-4.8,25.6,-17.7,0.0933561205,-0.616199225,-0.0332956938,-0.781304361
100,254693,71840,0.966,-0.076,0.232,-3.3,-1.5,-2.2,-4.8,25.6,-17.7,0.0933561205,-0.616199225,-0.0332956938,-0.781304361
101,256635,71840,0.966,-0.076,0.232,-3.3,-1.5,-2.2,-4.8,25.6,-17.7,0.0933561205,-0.616199225,-0.0332956938,-0.781304361
102,258781,71840,0.966,-0.076,0.232,-3.3,-1.5,-2.2,-4.8,25.6,-17.7,0.0933561205,-0.616199225,-0.0332956938,-0.781304361
103,261132,71850,0.966,-0.076,0.232,-3.3,-1.5,-2.2,-4.8,25.6,-17.7,0.0933561205,-0.616199225,-0.0332956938,-0.781304361
104,265227,71850,0.966,-0.076,0.232,-3.3,-1.5,-2.2,-4.8,25.6,-17.7,0.0933561205,-0.616199225,-0.0332956938,-0.781304361
105,268121,71850,0.966,-0.076,0.232,-3.3,-1.5,-2.2,-4.8,25.6,-17.7,0.0933561205,-0.616199225,-0.0332956938,-0.781304361
106,268489,71850,0.966,-0.076,0.232,-3.3,-1.5,-2.2,-4.8,25.6,-17.7,0.0933561205,-0.616199225,-0.0332956938,-0.781304361
107,271113,71860,0.966,-0.076,0.232,-3.3,-1.5,-2.2,-4.8,25.6,-17.7,0.0933561205,-0.616199225,-0.0332956938,-0.781304361
108,273798,71860,0.966,-0.076,0.232,-3.3,-1.5,-2.2,-4.8,25.6,-17.7,0.0933561205,-0.616199225,-0.0332956938,-0.781304361
109,275976,71860,0.966,-0.076,0.232,-3.3,-1.5,-2.2,-4.8,25.6,-17.7,0.0933561205,-0.616199225,-0.0332956938,-0.781304361
110,278357,71860,0.966,-0.076,0.232,-3.3,-1.5,-2.2,-4.8,25.6,-17.7,0.0933561205,-0.616199225,-0.0332956938,-0.781304361
111,280921,71870,0.966,-0.076,0.232,-3.3,-1.5,-2.2,-4.8,25.6,-17.7,0.0933561205,-0.616199225,-0.0332956938,-0.781304361
112,284577,71870,0.966,-0.076,0.232,-3.3,-1.5,-2.2,-4.8,25.6,-17.7,0.0933561205,-0.616199225,-0.0332956938,-0.781304361
113,287118,71870,0.966,-0.076,0.232,-3.3,-1.5,-2.2,-4.8,25.6,-17.7,0.0933561205,-0.616199225,-0.0332956938,-0.781304361
114,290864,71870,0.966,-0.076,0.232,-3.3,-1.5,-2.2,-4.8,25.6,-17.7,0.0933561205,-0.616199225,-0.0332956938,-0.781304361
115,291285,71880,0.985,-0.061,0.22,-2.3,-0.4,-1.8,-6,26.7,-17.4,0.0914639729,-0.617084262,-0.0327463607,-0.780846583
116,293454,71880,0.985,-0.061,0.22,-2.3,-0.4,-1.8,-6,26.7,-17.4,0.0914639729,-0.617084262,-0.0327463607,-0.780846583
117,296037,71880,0.985,-0.061,0.22,-2.3,-0.4,-1.8,-6,26.7,-17.4,0.0914639729,-0.617084262,-0.0327463607,-0.780846583
118,298385,71880,0.985,-0.061,0.22,-2.3,-0.4,-1.8,-6,26.7,-17.4,0.0914639729,-0.617084262,-0.0327463607,-0.780846583
119,302843,71890,0.985,-0.061,0.22,-2.3,-0.4,-1.8,-6,26.7,-17.4,0.0914639729,-0.617084262,-0.0327463607,-0.780846583
120,303347,71890,0.985,-0.061,0.22,-2.3,-0.4,-1.8,-6,26.7,-17.4,0.0914639729,-0.617084262,-0.0327463607,-0.780846583
121,307932,71890,0.985,-0.061,0.22,-2.3,-0.4,-1.8,-6,26.7,-17.4,0.0914639729,-0.617084262,-0.0327463607,-0.780846583
122,310324,71890,0.985,-0.061,0.22,-2.3,-0.4,-1.8,-6,26.7,-17.4,0.0914639729,-0.617084262,-0.0327463607,-0.780846583
123,312582,71900,0.985,-0.061,0.22,-2.3,-0.4,-1.8,-6,26.7,-17.4,0.0914639729,-0.617084262,-0.0327463607,-0.780846583
124,314857,71900,0.985,-0.061,0.22,-2.3,-0.4,-1.8,-6,26.7,-17.4,0.0914639729,-0.617084262,-0.0327463607,-0.780846583
125,317101,71900,0.985,-0.061,0.22,-2.3,-0.4,-1.8,-6,26.7,-17.4,0.0914639729,-0.617084262,-0.0327463607,-0.780846583
126,318929,71900,0.985,-0.061,0.22,-2.3,-0.4,-1.8,-6,26.7,-17.4,0.0914639729,-0.617084262,-0.0327463607,-0.780846583
127,321017,71910,0.985,-0.061,0.22,-2.3,-0.4,-1.8,-6,26.7,-17.4,0.0914639729,-0.617084262,-0.0327463607,-0.780846583
128,323742,71910,0.985,-0.061,0.22,-2.3,-0.4,-1.8,-6,26.7,-17.4,0.0914639729,-0.617084262,-0.0327463607,-0.780846583
129,327427,71910,0.985,-0.061,0.22,-2.3,-0.4,-1.8,-6,26.7,-17.4,0.0914639729,-0.617084262,-0.0327463607,-0.780846583
130,329710,71910,0.985,-0.061,0.22,-2.3,-0.4,-1.8,-6,26.7,-17.4,0.0914639729,-0.617084262,-0.0327463607,-0.780846583
131,331877,71920,0.985,-0.061,0.22,-2.3,-0.4,-1.8,-6,26.7,-17.4,0.0914639729,-0.617084262,-0.0327463607,-0.780846583
132,334020,71920,0.985,-0.061,0.22,-2.3,-0.4,-1.8,-6,26.7,-17.4,0.0914639729,-0.617084262,-0.0327463607,-0.780846583
133,336958,71920,0.985,-0.061,0.22,-2.3,-0.4,-1.8,-6,26.7,-17.4,0.0914639729,-0.617084262,-0.0327463607,-0.780846583
134,339531,71920,0.985,-0.061,0.22,-2.3,-0.4,-1.8,-6,26.7,-17.4,0.0914639729,-0.617084262,-0.0327463607,-0.780846583
135,341416,71930,0.985,-0.061,0.22,-2.3,-0.4,-1.8,-6,26.7,-17.4,0.0914639729,-0.617084262,-0.0327463607,-0.780846583
136,343624,71930,0.985,-0.061,0.22,-2.3,-0.4,-1.8,-6,26.7,-17.4,0.0914639729,-0.617084262,-0.0327463607,-0.780846583
137,345954,71930,0.985,-0.061,0.22,-2.3,-0.4,-1.8,-6,26.7,-17.4,0.0914639729,-0.617084262,-0.0327463607,-0.780846583
138,348653,71930,0.985,-0.061,0.22,-2.3,-0.4,-1.8,-6,26.7,-17.4,0.0914639729,-0.617084262,-0.0327463607,-0.780846583
139,351311,71940,0.985,-0.061,0.22,-2.3,-0.4,-1.8,-6,26.7,-17.4,0.0914639729,-0.617084262,-0.0327463607,-0.780846583
140,354062,71940,0.985,-0.061,0.22,-2.3,-0.4,-1.8,-6,26.7,-17.4,0.0914639729,-0.617084262,-0.0327463607,-0.780846583
141,356292,71940,0.985,-0.061,0.22,-2.3,-0.4,-1.8,-6,26.7,-17.4,0.0914639729,-0.617084262,-0.0327463607,-0.780846583
142,360457,71940,0.966,-0.061,0.225,-3.6,-0.3,-0.7,-4.7,26.1,-17.3,0.0894497513,-0.617633595,-0.0314340648,-0.780693991
143,362300,71950,0.969,-0.065,0.225,-3.5,-0.4,-0.7,-4.7,26.1,-17.3,0.0893887143,-0.617633595,-0.0314035463,-0.780693991
144,364886,71950,0.962,-0.049,0.225,-3.6,-0.5,-0.7,-4.7,26.1,-17.3,0.0893276772,-0.617664113,-0.0313425092,-0.780693991
145,367633,71950,0.962,-0.049,0.225,-3.6,-0.5,-0.7,-4.7,26.1,-17.3,0.0893276772,-0.617664113,-0.0313425092,-0.780693991
146,369972,71950,0.962,-0.049,0.225,-3.6,-0.5,-0.7,-4.7,26.1,-17.3,0.0893276772,-0.617664113,-0.0313425092,-0.780693991
147,371809,71960,0.962,-0.049,0.225,-3.6,-0.5,-0.7,-4.7,26.1,-17.3,0.0893276772,-0.617664113,-0.0313425092,-0.780693991
148,374546,71960,0.962,-0.049,0.225,-3.6,-0.5,-0.7,-4.7,26.1,-17.3,0.0893276772,-0.617664113,-0.0313425092,-0.780693991
149,376297,71960,0.962,-0.049,0.225,-3.6,-0.5,-0.7,-4.7,26.1,-17.3,0.0893276772,-0.617664113,-0.0313425092,-0.780693991
150,378599,71960,0.962,-0.049,0.225,-3.6,-0.5,-0.7,-4.7,26.1,-17.3,0.0893276772,-0.617664113,-0.0313425092,-0.780693991
151,381209,71970,0.962,-0.049,0.225,-3.6,-0.5,-0.7,-4.7,26.1,-17.3,0.0893276772,-0.617664113,-0.0313425092,-0.780693991
152,383789,71970,0.962,-0.049,0.225,-3.6,-0.5,-0.7,-4.7,26.1,-17.3,0.0893276772,-0.617664113,-0.0313425092,-0.780693991
153,386128,71970,0.962,-0.049,0.225,-3.6,-0.5,-0.7,-4.7,26.1,-17.3,0.0893276772,-0.617664113,-0.0313425092,-0.780693991
154,388390,71970,0.962,-0.049,0.225,-3.6,-0.5,-0.7,-4.7,26.1,-17.3,0.0893276772,-0.617664113,-0.0313425092,-0.780693991
155,392038,71980,0.962,-0.049,0.225,-3.6,-0.5,-0.7,-4.7,26.1,-17.3,0.0893276772,-0.617664113,-0.0313425092,-0.780693991
156,393757,71980,0.962,-0.049,0.225,-3.6,-0.5,-0.7,-4.7,26.1,-17.3,0.0893276772,-0.617664113,-0.0313425092,-0.780693991
157,395894,71980,0.962,-0.049,0.225,-3.6,-0.5,-0.7,-4.7,26.1,-17.3,0.0893276772,-0.617664113,-0.0313425092,-0.780693991
158,398667,71980,0.962,-0.049,0.225,-3.6,-0.5,-0.7,-4.7,26.1,-17.3,0.0893276772,-0.617664113,-0.0313425092,-0.780693991
159,401144,71990,0.962,-0.049,0.225,-3.6,-0.5,-0.7,-4.7,26.1,-17.3,0.0893276772,-0.617664113,-0.0313425092,-0.780693991
160,403721,71990,0.962,-0.049,0.225,-3.6,-0.5,-0.7,-4.7,26.1,-17.3,0.0893276772,-0.617664113,-0.0313425092,-0.780693991
161,406293,71990,0.962,-0.049,0.225,-3.6,-0.5,-0.7,-4.7,26.1,-17.3,0.0893276772,-0.617664113,-0.0313425092,-0.780693991
162,408664,71990,0.962,-0.049,0.225,-3.6,-0.5,-0.7,-4.7,26.1,-17.3,0.0893276772,-0.617664113,-0.0313425092,-0.780693991
163,410885,72000,0.962,-0.049,0.225,-3.6,-0.5,-0.7,-4.7,26.1,-17.3,0.0893276772,-0.617664113,-0.0313425092,-0.780693991
164,413385,72000,0.962,-0.049,0.225,-3.6,-0.5,-0.7,-4.7,26.1,-17.3,0.0893276772,-0.617664113,-0.0313425092,-0.780693991
165,416620,72000,0.962,-0.049,0.225,-3.6,-0.5,-0.7,-4.7,26.1,-17.3,0.0893276772,-0.617664113,-0.0313425092,-0.780693991
166,419350,72000,0.962,-0.049,0.225,-3.6,-0.5,-0.7,-4.7,26.1,-17.3,0.0893276772,-0.617664113,-0.0313425092,-0.780693991
167,421278,72010,0.962,-0.049,0.225,-3.6,-0.5,-0.7,-4.7,26.1,-17.3,0.0893276772,-0.617664113,-0.0313425092,-0.780693991
168,423565,72010,0.962,-0.049,0.225,-3.6,-0.5,-0.7,-4.7,26.1,-17.3,0.0893276772,-0.617664113,-0.0313425092,-0.780693991
169,426540,72010,0.962,-0.049,0.225,-3.6,-0.5,-0.7,-4.7,26.1,-17.3,0.0893276772,-0.617664113,-0.0313425092,-0.780693991
170,429857,72010,0.962,-0.049,0.225,-3.6,-0.5,-0.7,-4.7,26.1,-17.3,0.0893276772,-0.617664113,-0.0313425092,-0.780693991
171,432077,72020,0.962,-0.049,0.225,-3.6,-0.5,-0.7,-4.7,26.1,-17.3,0.0893276772,-0.617664113,-0.0313425092,-0.780693991
172,434011,72020,0.962,-0.049,0.225,-3.6,-0.5,-0.7,-4.7,26.1,-17.3,0.0893276772,-0.617664113,-0.0313425092,-0.780693991
173,436116,72020,0.962,-0.049,0.225,-3.6,-0.5,-0.7,-4.7,26.1,-17.3,0.0893276772,-0.617664113,-0.0313425092,-0.780693991
174,440638,72020,0.962,-0.049,0.225,-3.6,-0.5,-0.7,-4.7,26.1,-17.3,0.0893276772,-0.617664113,-0.0313425092,-0.780693991
175,441059,72030,0.962,-0.049,0.225,-3.6,-0.5,-0.7,-4.7,26.1,-17.3,0.0893276772,-0.617664113,-0.0313425092,-0.780693991
176,443677,72030,0.962,-0.049,0.225,-3.6,-0.5,-0.7,-4.7,26.1,-17.3,0.0893276772,-0.617664113,-0.0313425092,-0.780693991
177,448120,72030,0.985,-0.03,0.197,-6.2,-0.8,-0.4,-4.1,26,-17.4,0.0870082705,-0.61854915,-0.0294198431,-0.780327769
178,448567,72030,0.985,-0.034,0.205,-6.4,-0.8,-0.5,-4.1,26,-17.4,0.086916715,-0.618579669,-0.0293588061,-0.780327769
179,451085,72040,0.985,-0.034,0.205,-6.4,-0.8,-0.5,-4.1,26,-17.4,0.086916715,-0.618579669,-0.0293588061,-0.780327769
180,455393,72040,0.985,-0.034,0.205,-6.4,-0.8,-0.5,-4.1,26,-17.4,0.086916715,-0.618579669,-0.0293588061,-0.780327769
181,457625,72040,0.989,-0.034,0.197,-7,-0.8,-0.9,-5.9,26.2,-17.3,0.0863368633,-0.618945891,-0.0292977691,-0.780083621
182,459576,72040,0.989,-0.034,0.197,-7,-0.8,-0.9,-5.9,26.2,-17.3,0.0863368633,-0.618945891,-0.0292977691,-0.780083621
183,461466,72050,0.989,-0.034,0.197,-7,-0.8,-0.9,-5.9,26.2,-17.3,0.0863368633,-0.618945891,-0.0292977691,-0.780083621
184,463835,72050,0.989,-0.034,0.197,-7,-0.8,-0.9,-5.9,26.2,-17.3,0.0863368633,-0.618945891,-0.0292977691,-0.780083621
185,466103,72050,0.989,-0.034,0.197,-7,-0.8,-0.9,-5.9,26.2,-17.3,0.0863368633,-0.618945891,-0.0292977691,-0.780083621
186,468671,72050,0.989,-0.034,0.197,-7,-0.8,-0.9,-5.9,26.2,-17.3,0.0863368633,-0.618945891,-0.0292977691,-0.780083621
187,471308,72060,0.989,-0.034,0.197,-7,-0.8,-0.9,-5.9,26.2,-17.3,0.0863368633,-0.618945891,-0.0292977691,-0.780083621
188,475537,72060,1.001,-0.022,0.185,-8.7,-0.9,-1.3,-4.5,26.2,-17.3,0.085421308,-0.61915952,-0.0285042879,-0.780053102
189,476017,72060,0.997,-0.026,0.189,-9,-0.9,-1.4,-4.4,26.4,-17.2,0.0852687155,-0.619190039,-0.0283822138,-0.780053102
190,478527,72060,0.997,-0.026,0.189,-9,-0.9,-1.4,-4.4,26.4,-17.2,0.0852687155,-0.619190039,-0.0283822138,-0.780053102
191,481044,72070,0.997,-0.026,0.189,-9,-0.9,-1.4,-4.4,26.4,-17.2,0.0852687155,-0.619190039,-0.0283822138,-0.780053102
192,485339,72070,0.997,-0.026,0.189,-9,-0.9,-1.4,-4.4,26.4,-17.2,0.0852687155,-0.619190039,-0.0283822138,-0.780053102
193,487409,72070,1.004,-0.034,0.189,-10.4,-1.2,-1.6,-4.3,26.2,-17.1,0.0846278268,-0.619342631,-0.0278023621,-0.780022584
194,489424,72070,1.004,-0.034,0.189,-10.4,-1.2,-1.6,-4.3,26.2,-17.1,0.0846278268,-0.619342631,-0.0278023621,-0.780022584
195,491090,72080,1.004,-0.034,0.189,-10.4,-1.2,-1.6,-4.3,26.2,-17.1,0.0846278268,-0.619342631,-0.0278023621,-0.780022584
196,493895,72080,1.004,-0.034,0.189,-10.4,-1.2,-1.6,-4.3,26.2,-17.1,0.0846278268,-0.619342631,-0.0278023621,-0.780022584
197,498425,72080,1.004,-0.034,0.189,-10.4,-1.2,-1.6,-4.3,26.2,-17.1,0.0846278268,-0.619342631,-0.0278023621,-0.780022584
198,498809,72080,1.001,-0.022,0.2,-13.1,-1.8,-1.5,-4.4,26.1,-17.2,0.0836512345,-0.619586779,-0.0269173254,-0.779961547
199,500878,72090,1.001,-0.022,0.2,-13.1,-1.8,-1.5,-4.4,26.1,-17.2,0.0836512345,-0.619586779,-0.0269173254,-0.779961547
200,503486,72090,1.001,-0.022,0.2,-13.1,-1.8,-1.5,-4.4,26.1,-17.2,0.0836512345,-0.619586779,-0.0269173254,-0.779961547
201,505914,72090,1.001,-0.022,0.2,-13.1,-1.8,-1.5,-4.4,26.1,-17.2,0.0836512345,-0.619586779,-0.0269173254,-0.779961547
202,509803,72090,1.001,-0.022,0.2,-13.1,-1.8,-1.5,-4.4,26.1,-17.2,0.0836512345,-0.619586779,-0.0269173254,-0.779961547
203,511499,72100,0.997,-0.015,0.193,-15.3,-2,-1.3,-5.2,26.4,-16.8,0.0823084201,-0.620105594,-0.0260933256,-0.779717399
204,513581,72100,0.997,-0.015,0.193,-15.3,-2,-1.3,-5.2,26.4,-16.8,0.0823084201,-0.620105594,-0.0260933256,-0.779717399
205,517596,72100,0.997,-0.015,0.193,-15.3,-2,-1.3,-5.2,26.4,-16.8,0.0823084201,-0.620105594,-0.0260933256,-0.779717399
206,519789,72100,0.997,-0.015,0.193,-15.3,-2,-1.3,-5.2,26.4,-16.8,0.0823084201,-0.620105594,-0.0260933256,-0.779717399
207,522421,72110,0.981,-0.014,0.189,-14.8,-1.9,-1,-4.6,26,-17.1,0.0813928648,-0.620349742,-0.0251167333,-0.779656362
208,524818,72110,0.981,-0.014,0.189,-14.8,-1.9,-1,-4.6,26,-17.1,0.0813928648,-0.620349742,-0.0251167333,-0.779656362
209,527114,72110,0.981,-0.014,0.189,-14.8,-1.9,-1,-4.6,26,-17.1,0.0813928648,-0.620349742,-0.0251167333,-0.779656362
210,528927,72110,0.973,-0.006,0.193,-14.3,-2.1,-1.1,-5.1,26.2,-16.8,0.0807519761,-0.620532853,-0.0244148076,-0.779595325
211,531590,72120,0.973,-0.006,0.193,-14.3,-2.1,-1.1,-5.1,26.2,-16.8,0.0807519761,-0.620532853,-0.0244148076,-0.779595325
212,534444,72120,0.973,-0.006,0.193,-14.3,-2.1,-1.1,-5.1,26.2,-16.8,0.0807519761,-0.620532853,-0.0244148076,-0.779595325
213,536088,72120,0.973,-0.006,0.193,-14.3,-2.1,-1.1,-5.1,26.2,-16.8,0.0807519761,-0.620532853,-0.0244148076,-0.779595325
214,538957,72120,0.973,-0.006,0.193,-14.3,-2.1,-1.1,-5.1,26.2,-16.8,0.0807519761,-0.620532853,-0.0244148076,-0.779595325
215,541408,72130,0.973,-0.006,0.193,-14.3,-2.1,-1.1,-5.1,26.2,-16.8,0.0807519761,-0.620532853,-0.0244148076,-0.779595325
216,545350,72130,0.973,-0.006,0.193,-14.3,-2.1,-1.1,-5.1,26.2,-16.8,0.0807519761,-0.620532853,-0.0244148076,-0.779595325
217,547812,72130,0.985,-0.003,0.173,-15.9,-0.5,-0.6,-5.2,26.2,-16.3,0.0791955321,-0.620868557,-0.0227668081,-0.779534288
218,550510,72130,0.985,-0.003,0.173,-15.9,-0.5,-0.6,-5.2,26.2,-16.3,0.0791955321,-0.620868557,-0.0227668081,-0.779534288
219,550987,72140,0.985,-0.003,0.173,-15.9,-0.5,-0.6,-5.2,26.2,-16.3,0.0791955321,-0.620868557,-0.0227668081,-0.779534288
220,553525,72140,0.985,-0.003,0.173,-15.9,-0.5,-0.6,-5.2,26.2,-16.3,0.0791955321,-0.620868557,-0.0227668081,-0.779534288
221,558161,72140,0.985,-0.003,0.173,-15.9,-0.5,-0.6,-5.2,26.2,-16.3,0.0791955321,-0.620868557,-0.0227668081,-0.779534288
222,558713,72140,0.985,-0.003,0.173,-15.9,-0.5,-0.6,-5.2,26.2,-16.3,0.0791955321,-0.620868557,-0.0227668081,-0.779534288
223,561371,72150,0.985,-0.003,0.173,-15.9,-0.5,-0.6,-5.2,26.2,-16.3,0.0791955321,-0.620868557,-0.0227668081,-0.779534288
224,563970,72150,0.985,-0.003,0.173,-15.9,-0.5,-0.6,-5.2,26.2,-16.3,0.0791955321,-0.620868557,-0.0227668081,-0.779534288
225,566976,72150,0.985,-0.003,0.173,-15.9,-0.5,-0.6,-5.2,26.2,-16.3,0.0791955321,-0.620868557,-0.0227668081,-0.779534288
226,569641,72150,0.985,-0.003,0.173,-15.9,-0.5,-0.6,-5.2,26.2,-16.3,0.0791955321,-0.620868557,-0.0227668081,-0.779534288
227,571583,72160,0.985,-0.003,0.173,-15.9,-0.5,-0.6,-5.2,26.2,-16.3,0.0791955321,-0.620868557,-0.0227668081,-0.779534288
228,574355,72160,0.985,-0.003,0.173,-15.9,-0.5,-0.6,-5.2,26.2,-16.3,0.0791955321,-0.620868557,-0.0227668081,-0.779534288
229,576247,72160,0.985,-0.003,0.173,-15.9,-0.5,-0.6,-5.2,26.2,-16.3,0.0791955321,-0.620868557,-0.0227668081,-0.779534288
230,578579,72160,0.985,-0.003,0.173,-15.9,-0.5,-0.6,-5.2,26.2,-16.3,0.0791955321,-0.620868557,-0.0227668081,-0.779534288
231,581436,72170,0.985,-0.003,0.173,-15.9,-0.5,-0.6,-5.2,26.2,-16.3,0.0791955321,-0.620868557,-0.0227668081,-0.779534288
232,584028,72170,0.985,-0.003,0.173,-15.9,-0.5,-0.6,-5.2,26.2,-16.3,0.0791955321,-0.620868557,-0.0227668081,-0.779534288
233,586238,72170,0.985,-0.003,0.173,-15.9,-0.5,-0.6,-5.2,26.2,-16.3,0.0791955321,-0.620868557,-0.0227668081,-0.779534288
234,590293,72170,0.985,-0.003,0.173,-15.9,-0.5,-0.6,-5.2,26.2,-16.3,0.0791955321,-0.620868557,-0.0227668081,-0.779534288
235,592560,72180,0.981,-0.034,0.201,-24.9,0.1,-1.6,-5.3,26.5,-15.3,0.0737022004,-0.621509445,-0.0170903653,-0.779717399
236,594723,72180,0.981,-0.034,0.201,-24.9,0.1,-1.6,-5.3,26.5,-15.3,0.0737022004,-0.621509445,-0.0170903653,-0.779717399
237,597047,72180,0.966,-0.03,0.205,-25.8,-0.2,-1.7,-5.5,26.7,-14.6,0.0729392376,-0.621601001,-0.0162968841,-0.779747917
238,599137,72180,0.966,-0.03,0.205,-25.8,-0.2,-1.7,-5.5,26.7,-14.6,0.0729392376,-0.621601001,-0.0162968841,-0.779747917
239,602312,72190,0.966,-0.03,0.205,-25.8,-0.2,-1.7,-5.5,26.7,-14.6,0.0729392376,-0.621601001,-0.0162968841,-0.779747917
240,604557,72190,0.954,-0.018,0.213,-26.3,-0.6,-1.8,-5.5,26.7,-14.6,0.0717795343,-0.621753594,-0.0150456252,-0.779747917
241,606483,72190,0.954,-0.018,0.213,-26.3,-0.6,-1.8,-5.5,26.7,-14.6,0.0717795343,-0.621753594,-0.0150456252,-0.779747917
242,608796,72190,0.954,-0.018,0.213,-26.3,-0.6,-1.8,-5.5,26.7,-14.6,0.0717795343,-0.621753594,-0.0150456252,-0.779747917
243,612795,72200,0.954,-0.018,0.213,-26.3,-0.6,-1.8,-5.5,26.7,-14.6,0.0717795343,-0.621753594,-0.0150456252,-0.779747917
244,615130,72200,0.954,-0.01,0.197,-26.6,0,-1.8,-5.2,26.9,-18.1,0.0700399792,-0.621967223,-0.0135502182,-0.779747917
245,617385,72200,0.954,-0.01,0.197,-26.6,0,-1.8,-5.2,26.9,-18.1,0.0700399792,-0.621967223,-0.0135502182,-0.779747917
246,619589,72200,0.954,-0.01,0.197,-26.6,0,-1.8,-5.2,26.9,-18.1,0.0700399792,-0.621967223,-0.0135502182,-0.779747917
247,621437,72210,0.962,-0.01,0.189,-26.5,0.2,-2.2,-5.4,26.9,-15.5,0.0688497574,-0.622058779,-0.0122684408,-0.779778436
248,624020,72210,0.962,-0.01,0.189,-26.5,0.2,-2.2,-5.4,26.9,-15.5,0.0688497574,-0.622058779,-0.0122684408,-0.779778436
249,627102,72210,0.962,-0.01,0.189,-26.5,0.2,-2.2,-5.4,26.9,-15.5,0.0688497574,-0.622058779,-0.0122684408,-0.779778436
250,628897,72210,0.969,-0.014,0.181,-26.1,1,-2.6,-5.5,26.7,-15.5,0.0676595355,-0.622150334,-0.0110171819,-0.779839473
251,631252,72220,0.969,-0.014,0.181,-26.1,1,-2.6,-5.5,26.7,-15.5,0.0676595355,-0.622150334,-0.0110171819,-0.779839473
252,633505,72220,0.969,-0.014,0.181,-26.1,1,-2.6,-5.5,26.7,-15.5,0.0676595355,-0.622150334,-0.0110171819,-0.779839473
253,636032,72220,0.969,-0.014,0.181,-26.1,1,-2.6,-5.5,26.7,-15.5,0.0676595355,-0.622150334,-0.0110171819,-0.779839473
254,638367,72220,0.969,-0.014,0.181,-26.1,1,-2.6,-5.5,26.7,-15.5,0.0676595355,-0.622150334,-0.0110171819,-0.779839473
255,642885,72230,0.969,-0.014,0.181,-26.1,1,-2.6,-5.5,26.7,-15.5,0.0676595355,-0.622150334,-0.0110171819,-0.779839473
256,643370,72230,0.969,-0.014,0.181,-26.1,1,-2.6,-5.5,26.7,-15.5,0.0676595355,-0.622150334,-0.0110171819,-0.779839473
257,645911,72230,0.969,-0.014,0.181,-26.1,1,-2.6,-5.5,26.7,-15.5,0.0676595355,-0.622150334,-0.0110171819,-0.779839473
258,650366,72230,0.969,-0.014,0.181,-26.1,1,-2.6,-5.5,26.7,-15.5,0.0676595355,-0.622150334,-0.0110171819,-0.779839473
259,650986,72240,0.997,-0.019,0.173,-28.6,1.4,-3.9,-5.7,26.9,-16.1,0.0638142033,-0.622302927,-0.00732444227,-0.780114139
260,653387,72240,0.997,-0.019,0.173,-28.6,1.4,-3.9,-5.7,26.9,-16.1,0.0638142033,-0.622302927,-0.00732444227,-0.780114139
261,657878,72240,0.997,-0.019,0.173,-28.6,1.4,-3.9,-5.7,26.9,-16.1,0.0638142033,-0.622302927,-0.00732444227,-0.780114139
262,658333,72240,0.997,-0.019,0.173,-28.6,1.4,-3.9,-5.7,26.9,-16.1,0.0638142033,-0.622302927,-0.00732444227,-0.780114139
263,663042,72250,0.997,-0.019,0.173,-28.6,1.4,-3.9,-5.7,26.9,-16.1,0.0638142033,-0.622302927,-0.00732444227,-0.780114139
264,663400,72250,0.993,-0.018,0.181,-33,0.7,-4.6,-5.6,26.9,-16.2,0.0610675375,-0.622669149,-0.00518814661,-0.780053102
265,667630,72250,0.993,-0.018,0.181,-33,0.7,-4.6,-5.6,26.9,-16.2,0.0610675375,-0.622669149,-0.00518814661,-0.780053102
266,669810,72250,0.993,-0.018,0.181,-33,0.7,-4.6,-5.6,26.9,-16.2,0.0610675375,-0.622669149,-0.00518814661,-0.780053102
267,672109,72260,0.993,-0.018,0.181,-33,0.7,-4.6,-5.6,26.9,-16.2,0.0610675375,-0.622669149,-0.00518814661,-0.780053102
268,673964,72260,0.993,-0.018,0.181,-33,0.7,-4.6,-5.6,26.9,-16.2,0.0610675375,-0.622669149,-0.00518814661,-0.780053102
269,676199,72260,0.993,-0.018,0.181,-33,0.7,-4.6,-5.6,26.9,-16.2,0.0610675375,-0.622669149,-0.00518814661,-0.780053102
270,678513,72260,0.993,-0.018,0.181,-33,0.7,-4.6,-5.6,26.9,-16.2,0.0610675375,-0.622669149,-0.00518814661,-0.780053102
271,683360,72270,0.993,-0.018,0.181,-33,0.7,-4.6,-5.6,26.9,-16.2,0.0610675375,-0.622669149,-0.00518814661,-0.780053102
272,683741,72270,0.973,0.008,0.189,-39.1,-1.9,-5.8,-5.8,27.3,-15.8,0.0563982055,-0.623157445,-0.000793481246,-0.780022584
273,685819,72270,0.973,0.008,0.189,-39.1,-1.9,-5.8,-5.8,27.3,-15.8,0.0563982055,-0.623157445,-0.000793481246,-0.780022584
274,688420,72270,0.973,0.008,0.189,-39.1,-1.9,-5.8,-5.8,27.3,-15.8,0.0563982055,-0.623157445,-0.000793481246,-0.780022584
275,692816,72280,0.973,0.008,0.189,-39.1,-1.9,-5.8,-5.8,27.3,-15.8,0.0563982055,-0.623157445,-0.000793481246,-0.780022584
276,695043,72280,0.973,0.008,0.189,-39.1,-1.9,-5.8,-5.8,27.3,-15.8,0.0563982055,-0.623157445,-0.000793481246,-0.780022584
277,697341,72280,0.973,0.008,0.189,-39.1,-1.9,-5.8,-5.8,27.3,-15.8,0.0563982055,-0.623157445,-0.000793481246,-0.780022584
278,699614,72280,0.973,0.008,0.189,-39.1,-1.9,-5.8,-5.8,27.3,-15.8,0.0563982055,-0.623157445,-0.000793481246,-0.780022584
279,701891,72290,0.973,0.008,0.189,-39.1,-1.9,-5.8,-5.8,27.3,-15.8,0.0563982055,-0.623157445,-0.000793481246,-0.780022584
280,705645,72290,0.973,0.008,0.189,-39.1,-1.9,-5.8,-5.8,27.3,-15.8,0.0563982055,-0.623157445,-0.000793481246,-0.780022584
281,705996,72290,0.938,0.005,0.166,-45.2,-0.3,-7.7,-5.7,27.5,-14.3,0.0499893185,-0.623981445,0.00454725791,-0.779778436
282,710206,72290,0.938,0.005,0.166,-45.2,-0.3,-7.7,-5.7,27.5,-14.3,0.0499893185,-0.623981445,0.00454725791,-0.779778436
283,712558,72300,0.938,0.005,0.166,-45.2,-0.3,-7.7,-5.7,27.5,-14.3,0.0499893185,-0.623981445,0.00454725791,-0.779778436
284,714897,72300,0.938,0.005,0.166,-45.2,-0.3,-7.7,-5.7,27.5,-14.3,0.0499893185,-0.623981445,0.00454725791,-0.779778436
285,717270,72300,0.938,0.005,0.166,-45.2,-0.3,-7.7,-5.7,27.5,-14.3,0.0499893185,-0.623981445,0.00454725791,-0.779778436
286,720033,72300,0.942,-0.022,0.151,-48.1,1.1,-9.1,-5.9,27.4,-15.3,0.0460829493,-0.624195074,0.00796533097,-0.779839473
287,722306,72310,0.942,-0.022,0.151,-48.1,1.1,-9.1,-5.9,27.4,-15.3,0.0460829493,-0.624195074,0.00796533097,-0.779839473
288,724685,72310,0.942,-0.022,0.151,-48.1,1.1,-9.1,-5.9,27.4,-15.3,0.0460829493,-0.624195074,0.00796533097,-0.779839473
289,727016,72310,0.946,-0.041,0.147,-50,2.1,-10.5,-6.1,26.9,-15.2,0.043549913,-0.624256111,0.0100711081,-0.77990051
290,728820,72310,0.949,-0.049,0.139,-50.5,2.2,-11,-6.1,26.9,-15.2,0.0426648762,-0.624256111,0.0108035524,-0.779931028
291,732151,72320,0.949,-0.049,0.139,-50.5,2.2,-11,-6.1,26.9,-15.2,0.0426648762,-0.624256111,0.0108035524,-0.779931028
292,734974,72320,0.949,-0.049,0.139,-50.5,2.2,-11,-6.1,26.9,-15.2,0.0426648762,-0.624256111,0.0108035524,-0.779931028
293,737152,72320,0.949,-0.049,0.139,-50.5,2.2,-11,-6.1,26.9,-15.2,0.0426648762,-0.624256111,0.0108035524,-0.779931028
294,739466,72320,0.965,-0.092,0.139,-53,2.2,-12.7,-5.9,26.5,-15,0.0390026551,-0.624317148,0.0136722922,-0.780053102
295,741379,72330,0.965,-0.092,0.139,-53,2.2,-12.7,-5.9,26.5,-15,0.0390026551,-0.624317148,0.0136722922,-0.780053102
296,743600,72330,0.965,-0.092,0.139,-53,2.2,-12.7,-5.9,26.5,-15,0.0390026551,-0.624317148,0.0136722922,-0.780053102
297,746935,72330,0.965,-0.092,0.139,-53,2.2,-12.7,-5.9,26.5,-15,0.0390026551,-0.624317148,0.0136722922,-0.780053102
298,748858,72330,0.98,-0.112,0.134,-54.7,1.8,-14.4,-6.1,26.8,-14.8,0.0350962859,-0.624378185,0.0166020692,-0.780144658
299,752903,72340,0.977,-0.116,0.134,-55.2,1.8,-14.7,-6.1,26.8,-14.8,0.0341196936,-0.624378185,0.0173345134,-0.780144658
300,755139,72340,0.984,-0.12,0.134,-55.5,1.9,-15.1,-6.1,26.8,-14.8,0.0330820643,-0.624408704,0.0180669576,-0.780175176
301,757448,72340,0.984,-0.12,0.134,-55.5,1.9,-15.1,-6.1,26.8,-14.8,0.0330820643,-0.624408704,0.0180669576,-0.780175176
302,759723,72340,0.988,-0.124,0.134,-56.4,1.8,-15.8,-6,28.6,-12.9,0.0311288797,-0.624744407,0.0197759941,-0.779931028
303,761455,72350,0.988,-0.124,0.134,-56.4,1.8,-15.8,-6,28.6,-12.9,0.0311288797,-0.624744407,0.0197759941,-0.779931028
304,765500,72350,0.988,-0.124,0.134,-56.4,1.8,-15.8,-6,28.6,-12.9,0.0311288797,-0.624744407,0.0197759941,-0.779931028
305,765923,72350,0.992,-0.132,0.134,-57.5,1,-16.5,-5.8,27.4,-14.7,0.0279549547,-0.624805445,0.0220648824,-0.779931028
306,768600,72350,0.992,-0.132,0.134,-57.5,1,-16.5,-5.8,27.4,-14.7,0.0279549547,-0.624805445,0.0220648824,-0.779931028
307,773001,72360,1,-0.136,0.138,-58.3,0.7,-17,-5.8,27.4,-14.7,0.025818659,-0.624866482,0.0235602893,-0.779931028
308,773405,72360,1,-0.136,0.134,-58.6,0.6,-17.3,-5.8,27.4,-14.7,0.0247199927,-0.624897,0.0242927335,-0.77990051
309,778276,72360,1,-0.136,0.134,-58.6,0.6,-17.3,-5.8,27.4,-14.7,0.0247199927,-0.624897,0.0242927335,-0.77990051
310,780399,72360,1.004,-0.14,0.142,-59.3,0.5,-17.7,-6.4,26.9,-14.5,0.022461623,-0.624958037,0.025879696,-0.779869991
311,782753,72370,1.004,-0.144,0.134,-59.6,0.5,-17.9,-6.4,26.9,-14.5,0.0213629566,-0.624988556,0.0266121403,-0.779869991
312,784909,72370,1.004,-0.144,0.134,-59.6,0.5,-17.9,-6.4,26.9,-14.5,0.0213629566,-0.624988556,0.0266121403,-0.779869991
313,787103,72370,1.008,-0.14,0.146,-60.2,0.4,-18.3,-6.3,27.2,-14.5,0.0191351054,-0.625049593,0.0281991028,-0.779808954
314,788809,72370,1.008,-0.14,0.146,-60.2,0.4,-18.3,-6.3,27.2,-14.5,0.0191351054,-0.625049593,0.0281991028,-0.779808954
315,791083,72380,1.008,-0.14,0.146,-60.2,0.4,-18.3,-6.3,27.2,-14.5,0.0191351054,-0.625049593,0.0281991028,-0.779808954
316,793504,72380,1.008,-0.14,0.146,-60.2,0.4,-18.3,-6.3,27.2,-14.5,0.0191351054,-0.625049593,0.0281991028,-0.779808954
317,796018,72380,1.008,-0.14,0.146,-60.2,0.4,-18.3,-6.3,27.2,-14.5,0.0191351054,-0.625049593,0.0281991028,-0.779808954
318,801000,72380,1.008,-0.14,0.146,-60.2,0.4,-18.3,-6.3,27.2,-14.5,0.0191351054,-0.625049593,0.0281991028,-0.779808954
319,801000,72390,1.008,-0.152,0.146,-61.8,-0.6,-19.3,-6.3,27.6,-14.2,0.0122074038,-0.625263222,0.0328684347,-0.779595325
320,805406,72390,1.008,-0.152,0.146,-61.8,-0.6,-19.3,-6.3,27.6,-14.2,0.0122074038,-0.625263222,0.0328684347,-0.779595325
321,807698,72390,1,-0.159,0.142,-62.9,-0.7,-19.5,-6.6,29,-12.8,0.0101321451,-0.625659963,0.0348521378,-0.779229102
322,809933,72390,1,-0.159,0.142,-62.9,-0.7,-19.5,-6.6,29,-12.8,0.0101321451,-0.625659963,0.0348521378,-0.779229102
323,812163,72400,1,-0.159,0.142,-62.9,-0.7,-19.5,-6.6,29,-12.8,0.0101321451,-0.625659963,0.0348521378,-0.779229102
324,814593,72400,1,-0.159,0.142,-62.9,-0.7,-19.5,-6.6,29,-12.8,0.0101321451,-0.625659963,0.0348521378,-0.779229102
325,816350,72400,1,-0.159,0.142,-62.9,-0.7,-19.5,-6.6,29,-12.8,0.0101321451,-0.625659963,0.0348521378,-0.779229102
326,820405,72400,1,-0.159,0.142,-62.9,-0.7,-19.5,-6.6,29,-12.8,0.0101321451,-0.625659963,0.0348521378,-0.779229102
327,822460,72410,0.992,-0.171,0.134,-63.5,0.1,-19.3,-6.4,28.2,-12.4,0.00296029542,-0.625843074,0.0397350993,-0.778893399
328,824782,72410,0.992,-0.171,0.134,-63.5,0.1,-19.3,-6.4,28.2,-12.4,0.00296029542,-0.625843074,0.0397350993,-0.778893399
329,827121,72410,0.992,-0.171,0.134,-63.5,0.1,-19.3,-6.4,28.2,-12.4,0.00296029542,-0.625843074,0.0397350993,-0.778893399
330,830024,72410,0.992,-0.179,0.115,-62.8,1.2,-19.3,-6.7,29.2,-12.7,0.00057985168,0.625873592,-0.0421460616,0.778771325
331,832052,72420,0.984,-0.183,0.115,-62.3,1.5,-19.2,-6.7,29.2,-12.7,0.00177007355,0.625843074,-0.0429700613,0.778740806
332,835665,72420,0.984,-0.183,0.115,-62.3,1.5,-19.2,-6.7,29.2,-12.7,0.00177007355,0.625843074,-0.0429700613,0.778740806
333,836032,72420,0.988,-0.187,0.107,-60.9,2.4,-19.1,-6.4,29,-11.9,0.00408948027,0.625812555,-0.0445265053,0.778679769
334,840273,72420,0.988,-0.187,0.107,-60.9,2.4,-19.1,-6.4,29,-11.9,0.00408948027,0.625812555,-0.0445265053,0.778679769
335,842549,72430,0.992,-0.191,0.099,-59,3.5,-19.2,-6.4,29,-11.9,0.00637836848,0.625721,-0.0460219123,0.778649251
336,844863,72430,0.992,-0.199,0.099,-58.2,4.2,-19.1,-6.4,29,-11.9,0.00750755333,0.625659963,-0.0467543565,0.778618732
337,847060,72430,0.996,-0.195,0.095,-57.3,4.9,-19,-6.5,29.3,-12.3,0.00863673818,0.625568407,-0.0474562822,0.778649251
338,849379,72430,0.996,-0.199,0.091,-56.5,5.6,-19.1,-6.5,29.3,-12.3,0.00973540452,0.62550737,-0.0481276894,0.778649251
339,851010,72440,0.996,-0.21,0.099,-55.7,6.2,-19.2,-6.5,29.3,-12.3,0.0108340709,0.625385296,-0.0488296152,0.778679769
340,855967,72440,0.996,-0.21,0.099,-55.7,6.2,-19.2,-6.5,29.3,-12.3,0.0108340709,0.625385296,-0.0488296152,0.778679769
341,855967,72440,1.015,-0.219,0.095,-53.6,8.8,-18.9,-7.1,28.4,-11.2,0.0120853298,0.625965148,-0.0513016144,0.778038881
342,858654,72440,1.015,-0.219,0.095,-53.6,8.8,-18.9,-7.1,28.4,-11.2,0.0120853298,0.625965148,-0.0513016144,0.778038881
343,862713,72450,1.023,-0.227,0.095,-53,9.9,-18.8,-7.1,28.4,-11.2,0.0142216254,0.625659963,-0.0525833918,0.778160955
344,864838,72450,1.035,-0.235,0.094,-52.5,10.7,-18.7,-7.1,28.4,-11.2,0.0152592547,0.625476852,-0.0532242805,0.77825251
345,867232,72450,1.038,-0.246,0.098,-52.1,11.4,-18.6,-6.6,29,-11.4,0.0162968841,0.625293741,-0.0538346507,0.778313547
346,869429,72450,1.046,-0.258,0.094,-51.8,12.2,-18.6,-6.6,29,-11.4,0.0173345134,0.625080111,-0.0544755394,0.778435621
347,871130,72460,1.046,-0.262,0.094,-51.6,12.9,-18.6,-6.6,29,-11.4,0.0183721427,0.624866482,-0.0550859096,0.778527177
348,875407,72460,1.046,-0.262,0.094,-51.6,12.9,-18.6,-6.6,29,-11.4,0.0183721427,0.624866482,-0.0550859096,0.778527177
349,876005,72460,1.058,-0.282,0.106,-51.6,14.1,-18.4,-6.9,29.1,-10.8,0.0204474013,0.624408704,-0.0563371685,0.778771325
350,880512,72460,1.058,-0.282,0.106,-51.6,14.1,-18.4,-6.9,29.1,-10.8,0.0204474013,0.624408704,-0.0563371685,0.778771325
351,880908,72470,1.066,-0.298,0.106,-52,14.8,-18,-6.9,29.1,-10.8,0.02252266,0.623889889,-0.0575884274,0.779015473
352,885646,72470,1.066,-0.298,0.106,-52,14.8,-18,-6.9,29.1,-10.8,0.02252266,0.623889889,-0.0575884274,0.779015473
353,885973,72470,1.066,-0.325,0.11,-52.4,15.5,-17.7,-7.3,29,-10.9,0.0245979186,0.623371075,-0.0588702048,0.779290139
354,889224,72470,1.066,-0.325,0.11,-52.4,15.5,-17.7,-7.3,29,-10.9,0.0245979186,0.623371075,-0.0588702048,0.779290139
355,891915,72480,1.058,-0.348,0.114,-52.8,16.4,-17.6,-7.3,29,-10.9,0.0266731773,0.622791223,-0.0601519822,0.779564806
356,893744,72480,1.058,-0.348,0.114,-52.8,16.4,-17.6,-7.3,29,-10.9,0.0266731773,0.622791223,-0.0601519822,0.779564806
357,896104,72480,1.058,-0.348,0.114,-52.8,16.4,-17.6,-7.3,29,-10.9,0.0266731773,0.622791223,-0.0601519822,0.779564806
358,900191,72480,1.058,-0.348,0.114,-52.8,16.4,-17.6,-7.3,29,-10.9,0.0266731773,0.622791223,-0.0601519822,0.779564806
359,903369,72490,1.034,-0.406,0.126,-53,18.5,-17.9,-7.2,29.1,-10.5,0.0308542131,0.621570482,-0.0627460555,0.780205695
360,903797,72490,1.026,-0.414,0.13,-52.9,19.2,-18.1,-7.2,29.1,-10.5,0.0318918424,0.621234779,-0.0633869442,0.780388806
361,907822,72490,1.011,-0.437,0.13,-52.3,21.1,-18.9,-7.3,28.2,-10.4,0.0329599902,0.620838038,-0.0640278329,0.780571917
362,910019,72490,1.011,-0.437,0.13,-52.3,21.1,-18.9,-7.3,28.2,-10.4,0.0340281381,0.620471816,-0.0646382031,0.780785546
363,912260,72500,1.011,-0.437,0.13,-52.3,21.1,-18.9,-7.3,28.2,-10.4,0.0340281381,0.620471816,-0.0646382031,0.780785546
364,914469,72500,0.995,-0.484,0.131,-50.9,23.1,-20,-7.3,28.2,-10.4,0.0361339152,0.619678335,-0.0658284249,0.781212806
365,916064,72500,0.991,-0.503,0.135,-50,24,-20.7,-8.5,29.1,-10.2,0.0372020631,0.619281594,-0.0663777581,0.781456954
366,920840,72500,0.991,-0.503,0.135,-50,24,-20.7,-8.5,29.1,-10.2,0.0372020631,0.619281594,-0.0663777581,0.781456954
367,921242,72510,0.987,-0.546,0.131,-47.4,26,-22.2,-8.5,29.1,-10.2,0.0393383587,0.618366039,-0.0673848689,0.781975768
368,923515,72510,0.987,-0.546,0.131,-47.4,26,-22.2,-8.5,29.1,-10.2,0.0393383587,0.618366039,-0.0673848689,0.781975768
369,926130,72510,0.987,-0.546,0.131,-47.4,26,-22.2,-8.5,29.1,-10.2,0.0393383587,0.618366039,-0.0673848689,0.781975768
370,928723,72510,0.987,-0.546,0.131,-47.4,26,-22.2,-8.5,29.1,-10.2,0.0393383587,0.618366039,-0.0673848689,0.781975768
371,931087,72520,0.99,-0.644,0.131,-38.4,30.4,-24.6,-8.7,29.7,-10.1,0.0433973205,0.616412854,-0.0688802759,0.78316599
372,933791,72520,0.994,-0.663,0.135,-35.5,31.3,-25.1,-8.7,29.7,-10.1,0.0443739128,0.615863521,-0.069124424,0.783532212
373,936292,72520,1.002,-0.675,0.135,-32.4,31.9,-25.6,-9.2,29.5,-9.8,0.0452894681,0.615344707,-0.069307535,0.783867916
374,938507,72520,1.01,-0.715,0.139,-29.2,32.4,-25.8,-9.2,29.5,-9.8,0.0461745048,0.614795373,-0.0694296091,0.784234138
375,941144,72530,1.022,-0.73,0.143,-25.9,32.7,-25.8,-9.2,29.5,-9.8,0.0469985046,0.61424604,-0.0694906461,0.784630879
376,945375,72530,1.025,-0.758,0.143,-22.5,33.1,-25.5,-9.2,29.5,-9.8,0.0477919858,0.613696707,-0.0694906461,0.784997101
377,947147,72530,1.041,-0.797,0.142,-19.2,33.4,-25,-9.7,29.3,-10.1,0.0485244301,0.613147374,-0.0694296091,0.785393841
378,949473,72530,1.041,-0.797,0.142,-19.2,33.4,-25,-9.7,29.3,-10.1,0.0485244301,0.613147374,-0.0694296091,0.785393841
379,951551,72540,1.041,-0.797,0.142,-19.2,33.4,-25,-9.7,29.3,-10.1,0.0485244301,0.613147374,-0.0694296091,0.785393841
380,953630,72540,1.041,-0.797,0.142,-19.2,33.4,-25,-9.7,29.3,-10.1,0.0485244301,0.613147374,-0.0694296091,0.785393841
381,956382,72540,1.041,-0.797,0.142,-19.2,33.4,-25,-9.7,29.3,-10.1,0.0485244301,0.613147374,-0.0694296091,0.785393841
382,960016,72540,1.041,-0.797,0.142,-19.2,33.4,-25,-9.7,29.3,-10.1,0.0485244301,0.613147374,-0.0694296091,0.785393841
383,961967,72550,1.06,-0.919,0.154,2.4,38.5,-23,-7.5,28.2,-9.8,0.0517593921,0.609576708,-0.0679342021,0.78807947
384,964491,72550,1.06,-0.919,0.154,2.4,38.5,-23,-7.5,28.2,-9.8,0.0517593921,0.609576708,-0.0679342021,0.78807947
385,966819,72550,1.06,-0.919,0.154,2.4,38.5,-23,-7.5,28.2,-9.8,0.0517593921,0.609576708,-0.0679342021,0.78807947
386,968690,72550,1.06,-0.919,0.154,2.4,38.5,-23,-7.5,28.2,-9.8,0.0517593921,0.609576708,-0.0679342021,0.78807947
387,970896,72560,1.06,-0.919,0.154,2.4,38.5,-23,-7.5,28.2,-9.8,0.0517593921,0.609576708,-0.0679342021,0.78807947
388,973498,72560,1.06,-0.919,0.154,2.4,38.5,-23,-7.5,28.2,-9.8,0.0517593921,0.609576708,-0.0679342021,0.78807947
389,977806,72560,1.06,-0.919,0.154,2.4,38.5,-23,-7.5,28.2,-9.8,0.0517593921,0.609576708,-0.0679342021,0.78807947
390,979987,72560,1.06,-0.919,0.154,2.4,38.5,-23,-7.5,28.2,-9.8,0.0517593921,0.609576708,-0.0679342021,0.78807947
391,981998,72570,1.06,-0.919,0.154,2.4,38.5,-23,-7.5,28.2,-9.8,0.0517593921,0.609576708,-0.0679342021,0.78807947
392,984020,72570,1.06,-0.919,0.154,2.4,38.5,-23,-7.5,28.2,-9.8,0.0517593921,0.609576708,-0.0679342021,0.78807947
393,988117,72570,1.06,-0.919,0.154,2.4,38.5,-23,-7.5,28.2,-9.8,0.0517593921,0.609576708,-0.0679342021,0.78807947
394,988515,72570,0.93,-1.338,0.134,11.5,47.8,-32.8,-8.8,28.9,-10.4,0.0562761315,0.601611377,-0.0619525742,0.794366283
395,990858,72580,0.93,-1.338,0.134,11.5,47.8,-32.8,-8.8,28.9,-10.4,0.0562761315,0.601611377,-0.0619525742,0.794366283
396,993453,72580,0.93,-1.338,0.134,11.5,47.8,-32.8,-8.8,28.9,-10.4,0.0562761315,0.601611377,-0.0619525742,0.794366283
397,996126,72580,0.93,-1.338,0.134,11.5,47.8,-32.8,-8.8,28.9,-10.4,0.0562761315,0.601611377,-0.0619525742,0.794366283
398,998383,72580,0.93,-1.338,0.134,11.5,47.8,-32.8,-8.8,28.9,-10.4,0.0562761315,0.601611377,-0.0619525742,0.794366283
399,1000923,72590,0.93,-1.338,0.134,11.5,47.8,-32.8,-8.8,28.9,-10.4,0.0562761315,0.601611377,-0.0619525742,0.794366283
400,1003715,72590,0.93,-1.338,0.134,11.5,47.8,-32.8,-8.8,28.9,-10.4,0.0562761315,0.601611377,-0.0619525742,0.794366283
401,1005973,72590,0.93,-1.338,0.134,11.5,47.8,-32.8,-8.8,28.9,-10.4,0.0562761315,0.601611377,-0.0619525742,0.794366283
402,1009953,72590,0.93,-1.338,0.134,11.5,47.8,-32.8,-8.8,28.9,-10.4,0.0562761315,0.601611377,-0.0619525742,0.794366283
403,1012199,72600,0.93,-1.338,0.134,11.5,47.8,-32.8,-8.8,28.9,-10.4,0.0562761315,0.601611377,-0.0619525742,0.794366283
404,1013962,72600,0.93,-1.338,0.134,11.5,47.8,-32.8,-8.8,28.9,-10.4,0.0562761315,0.601611377,-0.0619525742,0.794366283
405,1016634,72600,0.93,-1.338,0.134,11.5,47.8,-32.8,-8.8,28.9,-10.4,0.0562761315,0.601611377,-0.0619525742,0.794366283
406,1018693,72600,0.93,-1.338,0.134,11.5,47.8,-32.8,-8.8,28.9,-10.4,0.0562761315,0.601611377,-0.0619525742,0.794366283
407,1021098,72610,0.93,-1.338,0.134,11.5,47.8,-32.8,-8.8,28.9,-10.4,0.0562761315,0.601611377,-0.0619525742,0.794366283
408,1023433,72610,0.93,-1.338,0.134,11.5,47.8,-32.8,-8.8,28.9,-10.4,0.0562761315,0.601611377,-0.0619525742,0.794366283
409,1025881,72610,0.93,-1.338,0.134,11.5,47.8,-32.8,-8.8,28.9,-10.4,0.0562761315,0.601611377,-0.0619525742,0.794366283
410,1030392,72610,0.93,-1.338,0.134,11.5,47.8,-32.8,-8.8,28.9,-10.4,0.0562761315,0.601611377,-0.0619525742,0.794366283
411,1032829,72620,0.93,-1.338,0.134,11.5,47.8,-32.8,-8.8,28.9,-10.4,0.0562761315,0.601611377,-0.0619525742,0.794366283
412,1033380,72620,0.93,-1.338,0.134,11.5,47.8,-32.8,-8.8,28.9,-10.4,0.0562761315,0.601611377,-0.0619525742,0.794366283
413,1036079,72620,0.93,-1.338,0.134,11.5,47.8,-32.8,-8.8,28.9,-10.4,0.0562761315,0.601611377,-0.0619525742,0.794366283
414,1040064,72620,0.93,-1.338,0.134,11.5,47.8,-32.8,-8.8,28.9,-10.4,0.0562761315,0.601611377,-0.0619525742,0.794366283
415,1042259,72630,0.93,-1.338,0.134,11.5,47.8,-32.8,-8.8,28.9,-10.4,0.0562761315,0.601611377,-0.0619525742,0.794366283
416,1044476,72630,0.93,-1.338,0.134,11.5,47.8,-32.8,-8.8,28.9,-10.4,0.0562761315,0.601611377,-0.0619525742,0.794366283
417,1046300,72630,0.93,-1.338,0.134,11.5,47.8,-32.8,-8.8,28.9,-10.4,0.0562761315,0.601611377,-0.0619525742,0.794366283
418,1050280,72630,1.1,-1.382,-0.115,162.6,-24.3,80.2,-7.7,28.1,-12.4,0.0269173254,0.591601306,-0.0267342143,0.805322428
419,1052390,72640,1.131,-1.347,-0.128,172,-28.1,78.2,-7.7,28.1,-12.4,0.0233161412,0.592150639,-0.0247810297,0.80507828
420,1054601,72640,1.131,-1.347,-0.128,172,-28.1,78.2,-7.7,28.1,-12.4,0.0233161412,0.592150639,-0.0247810297,0.80507828
421,1056838,72640,1.131,-1.347,-0.128,172,-28.1,78.2,-7.7,28.1,-12.4,0.0233161412,0.592150639,-0.0247810297,0.80507828
422,1058825,72640,1.131,-1.347,-0.128,172,-28.1,78.2,-7.7,28.1,-12.4,0.0233161412,0.592150639,-0.0247810297,0.80507828
423,1061141,72650,1.131,-1.347,-0.128,172,-28.1,78.2,-7.7,28.1,-12.4,0.0233161412,0.592150639,-0.0247810297,0.80507828
424,1063484,72650,1.131,-1.347,-0.128,172,-28.1,78.2,-7.7,28.1,-12.4,0.0233161412,0.592150639,-0.0247810297,0.80507828
425,1066408,72650,1.131,-1.347,-0.128,172,-28.1,78.2,-7.7,28.1,-12.4,0.0233161412,0.592150639,-0.0247810297,0.80507828
426,1069577,72650,1.131,-1.347,-0.128,172,-28.1,78.2,-7.7,28.1,-12.4,0.0233161412,0.592150639,-0.0247810297,0.80507828
427,1071798,72660,1.131,-1.347,-0.128,172,-28.1,78.2,-7.7,28.1,-12.4,0.0233161412,0.592150639,-0.0247810297,0.80507828
428,1073827,72660,1.131,-1.347,-0.128,172,-28.1,78.2,-7.7,28.1,-12.4,0.0233161412,0.592150639,-0.0247810297,0.80507828
429,1075902,72660,1.131,-1.347,-0.128,172,-28.1,78.2,-7.7,28.1,-12.4,0.0233161412,0.592150639,-0.0247810297,0.80507828
430,1080086,72660,1.131,-1.347,-0.128,172,-28.1,78.2,-7.7,28.1,-12.4,0.0233161412,0.592150639,-0.0247810297,0.80507828
431,1082935,72670,1.131,-1.347,-0.128,172,-28.1,78.2,-7.7,28.1,-12.4,0.0233161412,0.592150639,-0.0247810297,0.80507828
432,1083356,72670,1.131,-1.347,-0.128,172,-28.1,78.2,-7.7,28.1,-12.4,0.0233161412,0.592150639,-0.0247810297,0.80507828
433,1086011,72670,1.131,-1.347,-0.128,172,-28.1,78.2,-7.7,28.1,-12.4,0.0233161412,0.592150639,-0.0247810297,0.80507828
434,1088548,72670,1.131,-1.347,-0.128,172,-28.1,78.2,-7.7,28.1,-12.4,0.0233161412,0.592150639,-0.0247810297,0.80507828
435,1093530,72680,1.131,-1.347,-0.128,172,-28.1,78.2,-7.7,28.1,-12.4,0.0233161412,0.592150639,-0.0247810297,0.80507828
436,1093530,72680,1.228,-1.05,-0.529,244.4,19.1,158.7,-5.3,26.6,-16.2,0.0602130192,-0.587664418,-0.0234992523,-0.806482131
437,1095846,72680,1.228,-1.05,-0.529,244.4,19.1,158.7,-5.3,26.6,-16.2,0.0602130192,-0.587664418,-0.0234992523,-0.806482131
438,1099858,72680,1.228,-1.05,-0.529,244.4,19.1,158.7,-5.3,26.6,-16.2,0.0602130192,-0.587664418,-0.0234992523,-0.806482131
439,1102168,72690,1.228,-1.05,-0.529,244.4,19.1,158.7,-5.3,26.6,-16.2,0.0602130192,-0.587664418,-0.0234992523,-0.806482131
440,1104468,72690,1.228,-1.05,-0.529,244.4,19.1,158.7,-5.3,26.6,-16.2,0.0602130192,-0.587664418,-0.0234992523,-0.806482131
441,1106430,72690,1.228,-1.05,-0.529,244.4,19.1,158.7,-5.3,26.6,-16.2,0.0602130192,-0.587664418,-0.0234992523,-0.806482131
442,1108691,72690,1.228,-1.05,-0.529,244.4,19.1,158.7,-5.3,26.6,-16.2,0.0602130192,-0.587664418,-0.0234992523,-0.806482131
443,1112637,72700,1.228,-1.05,-0.529,244.4,19.1,158.7,-5.3,26.6,-16.2,0.0602130192,-0.587664418,-0.0234992523,-0.806482131
444,1115067,72700,1.22,-0.835,-0.651,262.2,34.6,255.7,-4.4,25.6,-18.5,0.115451521,-0.580553606,-0.0372936186,-0.805108798
445,1117929,72700,1.255,-0.801,-0.659,270.4,31.5,266.5,-1.3,25.6,-19.2,0.123569445,-0.579515976,-0.038575396,-0.804589984
446,1120064,72700,1.322,-0.697,-0.665,282.8,27.8,275.1,-1.3,25.6,-19.2,0.131992553,-0.578478347,-0.0399792474,-0.803918577
447,1122273,72710,1.33,-0.658,-0.669,299.6,23.7,281.7,-1.3,25.6,-19.2,0.140751366,-0.577440718,-0.0416272469,-0.803125095
448,1125765,72710,1.377,-0.615,-0.666,319.7,19.3,286.4,-1.3,25.6,-19.2,0.149784845,-0.576342051,-0.043549913,-0.802148503
449,1126146,72710,1.455,-0.558,-0.66,341.3,13.6,289.3,-0.5,24.2,-19.8,0.159154027,-0.575243385,-0.0458388012,-0.801019318
450,1128617,72710,1.455,-0.558,-0.66,341.3,13.6,289.3,-0.5,24.2,-19.8,0.159154027,-0.575243385,-0.0458388012,-0.801019318
451,1130876,72720,1.455,-0.558,-0.66,341.3,13.6,289.3,-0.5,24.2,-19.8,0.159154027,-0.575243385,-0.0458388012,-0.801019318
452,1134668,72720,1.455,-0.558,-0.66,341.3,13.6,289.3,-0.5,24.2,-19.8,0.159154027,-0.575243385,-0.0458388012,-0.801019318
453,1136965,72720,1.455,-0.558,-0.66,341.3,13.6,289.3,-0.5,24.2,-19.8,0.159154027,-0.575243385,-0.0458388012,-0.801019318
454,1139945,72720,1.455,-0.558,-0.66,341.3,13.6,289.3,-0.5,24.2,-19.8,0.159154027,-0.575243385,-0.0458388012,-0.801019318
455,1142139,72730,1.455,-0.558,-0.66,341.3,13.6,289.3,-0.5,24.2,-19.8,0.159154027,-0.575243385,-0.0458388012,-0.801019318
456,1143838,72730,1.455,-0.558,-0.66,341.3,13.6,289.3,-0.5,24.2,-19.8,0.159154027,-0.575243385,-0.0458388012,-0.801019318
457,1146086,72730,1.455,-0.558,-0.66,341.3,13.6,289.3,-0.5,24.2,-19.8,0.159154027,-0.575243385,-0.0458388012,-0.801019318
458,1148472,72730,1.455,-0.558,-0.66,341.3,13.6,289.3,-0.5,24.2,-19.8,0.159154027,-0.575243385,-0.0458388012,-0.801019318
459,1150952,72740,1.455,-0.558,-0.66,341.3,13.6,289.3,-0.5,24.2,-19.8,0.159154027,-0.575243385,-0.0458388012,-0.801019318
460,1155449,72740,1.455,-0.558,-0.66,341.3,13.6,289.3,-0.5,24.2,-19.8,0.159154027,-0.575243385,-0.0458388012,-0.801019318
461,1155866,72740,1.455,-0.558,-0.66,341.3,13.6,289.3,-0.5,24.2,-19.8,0.159154027,-0.575243385,-0.0458388012,-0.801019318
462,1160153,72740,1.455,-0.558,-0.66,341.3,13.6,289.3,-0.5,24.2,-19.8,0.159154027,-0.575243385,-0.0458388012,-0.801019318
463,1162302,72750,1.455,-0.558,-0.66,341.3,13.6,289.3,-0.5,24.2,-19.8,0.159154027,-0.575243385,-0.0458388012,-0.801019318
464,1164510,72750,1.455,-0.558,-0.66,341.3,13.6,289.3,-0.5,24.2,-19.8,0.159154027,-0.575243385,-0.0458388012,-0.801019318
465,1166509,72750,1.455,-0.558,-0.66,341.3,13.6,289.3,-0.5,24.2,-19.8,0.159154027,-0.575243385,-0.0458388012,-0.801019318
466,1170713,72750,1.455,-0.558,-0.66,341.3,13.6,289.3,-0.5,24.2,-19.8,0.159154027,-0.575243385,-0.0458388012,-0.801019318
467,1171173,72760,2.369,1.622,-1.264,491.4,236,475.4,3.4,16.3,-26.2,0.385998108,-0.532303842,-0.120670186,-0.74364452
468,1174043,72760,2.369,1.622,-1.264,491.4,236,475.4,3.4,16.3,-26.2,0.385998108,-0.532303842,-0.120670186,-0.74364452
469,1177999,72760,2.369,1.622,-1.264,491.4,236,475.4,3.4,16.3,-26.2,0.385998108,-0.532303842,-0.120670186,-0.74364452
470,1178362,72760,1.159,1.056,-1.362,183.8,388.3,516.4,5.7,14.9,-26.7,0.423047578,-0.511520737,-0.107882931,-0.740043336
471,1181999,72770,1.159,1.056,-1.362,183.8,388.3,516.4,5.7,14.9,-26.7,0.423047578,-0.511520737,-0.107882931,-0.740043336
472,1183909,72770,1.159,1.056,-1.362,183.8,388.3,516.4,5.7,14.9,-26.7,0.423047578,-0.511520737,-0.107882931,-0.740043336
473,1187997,72770,1.159,1.056,-1.362,183.8,388.3,516.4,5.7,14.9,-26.7,0.423047578,-0.511520737,-0.107882931,-0.740043336
474,1190469,72770,0.49,0.345,-1.195,-35.7,242.7,472.7,8.1,13.8,-26.4,0.458510086,-0.494155705,-0.0745872372,-0.734824671
475,1190901,72780,0.49,0.345,-1.195,-35.7,242.7,472.7,8.1,13.8,-26.4,0.458510086,-0.494155705,-0.0745872372,-0.734824671
476,1193385,72780,0.49,0.345,-1.195,-35.7,242.7,472.7,8.1,13.8,-26.4,0.458510086,-0.494155705,-0.0745872372,-0.734824671
477,1198005,72780,0.49,0.345,-1.195,-35.7,242.7,472.7,8.1,13.8,-26.4,0.458510086,-0.494155705,-0.0745872372,-0.734824671
478,1200134,72780,0.49,0.345,-1.195,-35.7,242.7,472.7,8.1,13.8,-26.4,0.458510086,-0.494155705,-0.0745872372,-0.734824671
479,1202334,72790,0.668,-0.096,1.577,-16.8,45.2,297.3,9.5,13.2,-26.2,0.487899411,-0.488906522,-0.0503250221,-0.72133549
480,1204480,72790,1.134,0.187,4.305,-78.6,44.6,282.8,9.5,13.2,-26.2,0.491561632,-0.489333781,-0.0455946532,-0.718894009
481,1206824,72790,1.134,0.187,4.305,-78.6,44.6,282.8,9.5,13.2,-26.2,0.491561632,-0.489333781,-0.0455946532,-0.718894009
482,1208691,72790,5.657,1.164,7.93,-282.7,19.9,273.2,9.8,13.1,-26.1,0.495345927,-0.493697928,-0.0320139164,-0.714011048
483,1211167,72800,5.657,1.164,7.93,-282.7,19.9,273.2,9.8,13.1,-26.1,0.495345927,-0.493697928,-0.0320139164,-0.714011048
484,1214985,72800,5.657,1.164,7.93,-282.7,19.9,273.2,9.8,13.1,-26.1,0.495345927,-0.493697928,-0.0320139164,-0.714011048
485,1217211,72800,5.657,1.164,7.93,-282.7,19.9,273.2,9.8,13.1,-26.1,0.495345927,-0.493697928,-0.0320139164,-0.714011048
486,1219588,72800,5.657,1.164,7.93,-282.7,19.9,273.2,9.8,13.1,-26.1,0.495345927,-0.493697928,-0.0320139164,-0.714011048
487,1221516,72810,5.657,1.164,7.93,-282.7,19.9,273.2,9.8,13.1,-26.1,0.495345927,-0.493697928,-0.0320139164,-0.714011048
488,1223812,72810,5.657,1.164,7.93,-282.7,19.9,273.2,9.8,13.1,-26.1,0.495345927,-0.493697928,-0.0320139164,-0.714011048
489,1227118,72810,5.657,1.164,7.93,-282.7,19.9,273.2,9.8,13.1,-26.1,0.495345927,-0.493697928,-0.0320139164,-0.714011048
490,1228935,72810,5.657,1.164,7.93,-282.7,19.9,273.2,9.8,13.1,-26.1,0.495345927,-0.493697928,-0.0320139164,-0.714011048
491,1231177,72820,5.657,1.164,7.93,-282.7,19.9,273.2,9.8,13.1,-26.1,0.495345927,-0.493697928,-0.0320139164,-0.714011048
492,1234969,72820,5.657,1.164,7.93,-282.7,19.9,273.2,9.8,13.1,-26.1,0.495345927,-0.493697928,-0.0320139164,-0.714011048
493,1237121,72820,5.657,1.164,7.93,-282.7,19.9,273.2,9.8,13.1,-26.1,0.495345927,-0.493697928,-0.0320139164,-0.714011048
494,1239404,72820,5.657,1.164,7.93,-282.7,19.9,273.2,9.8,13.1,-26.1,0.495345927,-0.493697928,-0.0320139164,-0.714011048
495,1241054,72830,5.657,1.164,7.93,-282.7,19.9,273.2,9.8,13.1,-26.1,0.495345927,-0.493697928,-0.0320139164,-0.714011048
496,1243884,72830,5.657,1.164,7.93,-282.7,19.9,273.2,9.8,13.1,-26.1,0.495345927,-0.493697928,-0.0320139164,-0.714011048
497,1246436,72830,5.657,1.164,7.93,-282.7,19.9,273.2,9.8,13.1,-26.1,0.495345927,-0.493697928,-0.0320139164,-0.714011048
498,1248741,72830,5.657,1.164,7.93,-282.7,19.9,273.2,9.8,13.1,-26.1,0.495345927,-0.493697928,-0.0320139164,-0.714011048
499,1252055,72840,5.657,1.164,7.93,-282.7,19.9,273.2,9.8,13.1,-26.1,0.495345927,-0.493697928,-0.0320139164,-0.714011048
500,1253891,72840,5.657,1.164,7.93,-282.7,19.9,273.2,9.8,13.1,-26.1,0.495345927,-0.493697928,-0.0320139164,-0.714011048
501,1257211,72840,5.657,1.164,7.93,-282.7,19.9,273.2,9.8,13.1,-26.1,0.495345927,-0.493697928,-0.0320139164,-0.714011048
502,1259350,72840,5.657,1.164,7.93,-282.7,19.9,273.2,9.8,13.1,-26.1,0.495345927,-0.493697928,-0.0320139164,-0.714011048
503,1261402,72850,-0.6,-1.316,0.131,-1013.7,73.7,-90.7,9,7.4,-28.7,0.505783258,-0.447553941,-0.122348704,-0.727225562
504,1263636,72850,-0.6,-1.316,0.131,-1013.7,73.7,-90.7,9,7.4,-28.7,0.505783258,-0.447553941,-0.122348704,-0.727225562
505,1265979,72850,-0.6,-1.316,0.131,-1013.7,73.7,-90.7,9,7.4,-28.7,0.505783258,-0.447553941,-0.122348704,-0.727225562
506,1268598,72850,-0.6,-1.316,0.131,-1013.7,73.7,-90.7,9,7.4,-28.7,0.505783258,-0.447553941,-0.122348704,-0.727225562
507,1270828,72860,-0.6,-1.316,0.131,-1013.7,73.7,-90.7,9,7.4,-28.7,0.505783258,-0.447553941,-0.122348704,-0.727225562
508,1274765,72860,-0.6,-1.316,0.131,-1013.7,73.7,-90.7,9,7.4,-28.7,0.505783258,-0.447553941,-0.122348704,-0.727225562
509,1277802,72860,-0.6,-1.316,0.131,-1013.7,73.7,-90.7,9,7.4,-28.7,0.505783258,-0.447553941,-0.122348704,-0.727225562
510,1278401,72860,-0.6,-1.316,0.131,-1013.7,73.7,-90.7,9,7.4,-28.7,0.505783258,-0.447553941,-0.122348704,-0.727225562
511,1282817,72870,-0.6,-1.316,0.131,-1013.7,73.7,-90.7,9,7.4,-28.7,0.505783258,-0.447553941,-0.122348704,-0.727225562
512,1285173,72870,-0.6,-1.316,0.131,-1013.7,73.7,-90.7,9,7.4,-28.7,0.505783258,-0.447553941,-0.122348704,-0.727225562
513,1287381,72870,-0.6,-1.316,0.131,-1013.7,73.7,-90.7,9,7.4,-28.7,0.505783258,-0.447553941,-0.122348704,-0.727225562
514,1289674,72870,-0.6,-1.316,0.131,-1013.7,73.7,-90.7,9,7.4,-28.7,0.505783258,-0.447553941,-0.122348704,-0.727225562
515,1291946,72880,-0.6,-1.316,0.131,-1013.7,73.7,-90.7,9,7.4,-28.7,0.505783258,-0.447553941,-0.122348704,-0.727225562
516,1293927,72880,-0.6,-1.316,0.131,-1013.7,73.7,-90.7,9,7.4,-28.7,0.505783258,-0.447553941,-0.122348704,-0.727225562
517,1296240,72880,-0.6,-1.316,0.131,-1013.7,73.7,-90.7,9,7.4,-28.7,0.505783258,-0.447553941,-0.122348704,-0.727225562
518,1298420,72880,-0.6,-1.316,0.131,-1013.7,73.7,-90.7,9,7.4,-28.7,0.505783258,-0.447553941,-0.122348704,-0.727225562
519,1302914,72890,-0.6,-1.316,0.131,-1013.7,73.7,-90.7,9,7.4,-28.7,0.505783258,-0.447553941,-0.122348704,-0.727225562
520,1303339,72890,-0.6,-1.316,0.131,-1013.7,73.7,-90.7,9,7.4,-28.7,0.505783258,-0.447553941,-0.122348704,-0.727225562
521,1305827,72890,-0.6,-1.316,0.131,-1013.7,73.7,-90.7,9,7.4,-28.7,0.505783258,-0.447553941,-0.122348704,-0.727225562
522,1309885,72890,-0.6,-1.316,0.131,-1013.7,73.7,-90.7,9,7.4,-28.7,0.505783258,-0.447553941,-0.122348704,-0.727225562
523,1311922,72900,-0.6,-1.316,0.131,-1013.7,73.7,-90.7,9,7.4,-28.7,0.505783258,-0.447553941,-0.122348704,-0.727225562
524,1313969,72900,-0.6,-1.316,0.131,-1013.7,73.7,-90.7,9,7.4,-28.7,0.505783258,-0.447553941,-0.122348704,-0.727225562
525,1316169,72900,-0.6,-1.316,0.131,-1013.7,73.7,-90.7,9,7.4,-28.7,0.505783258,-0.447553941,-0.122348704,-0.727225562
526,1318551,72900,-0.6,-1.316,0.131,-1013.7,73.7,-90.7,9,7.4,-28.7,0.505783258,-0.447553941,-0.122348704,-0.727225562
527,1322884,72910,-0.6,-1.316,0.131,-1013.7,73.7,-90.7,9,7.4,-28.7,0.505783258,-0.447553941,-0.122348704,-0.727225562
528,1324864,72910,-0.6,-1.316,0.131,-1013.7,73.7,-90.7,9,7.4,-28.7,0.505783258,-0.447553941,-0.122348704,-0.727225562
529,1327186,72910,-0.6,-1.316,0.131,-1013.7,73.7,-90.7,9,7.4,-28.7,0.505783258,-0.447553941,-0.122348704,-0.727225562
530,1329018,72910,-0.6,-1.316,0.131,-1013.7,73.7,-90.7,9,7.4,-28.7,0.505783258,-0.447553941,-0.122348704,-0.727225562
531,1332113,72920,-0.6,-1.316,0.131,-1013.7,73.7,-90.7,9,7.4,-28.7,0.505783258,-0.447553941,-0.122348704,-0.727225562
532,1334060,72920,-0.6,-1.316,0.131,-1013.7,73.7,-90.7,9,7.4,-28.7,0.505783258,-0.447553941,-0.122348704,-0.727225562
533,1336220,72920,-0.6,-1.316,0.131,-1013.7,73.7,-90.7,9,7.4,-28.7,0.505783258,-0.447553941,-0.122348704,-0.727225562
534,1338516,72920,-0.6,-1.316,0.131,-1013.7,73.7,-90.7,9,7.4,-28.7,0.505783258,-0.447553941,-0.122348704,-0.727225562
535,1341148,72930,-0.6,-1.316,0.131,-1013.7,73.7,-90.7,9,7.4,-28.7,0.505783258,-0.447553941,-0.122348704,-0.727225562
536,1343853,72930,-0.6,-1.316,0.131,-1013.7,73.7,-90.7,9,7.4,-28.7,0.505783258,-0.447553941,-0.122348704,-0.727225562
537,1346037,72930,-0.6,-1.316,0.131,-1013.7,73.7,-90.7,9,7.4,-28.7,0.505783258,-0.447553941,-0.122348704,-0.727225562
538,1349552,72930,-0.6,-1.316,0.131,-1013.7,73.7,-90.7,9,7.4,-28.7,0.505783258,-0.447553941,-0.122348704,-0.727225562
539,1351450,72940,-0.6,-1.316,0.131,-1013.7,73.7,-90.7,9,7.4,-28.7,0.505783258,-0.447553941,-0.122348704,-0.727225562
540,1353717,72940,-0.6,-1.316,0.131,-1013.7,73.7,-90.7,9,7.4,-28.7,0.505783258,-0.447553941,-0.122348704,-0.727225562
541,1355871,72940,-0.6,-1.316,0.131,-1013.7,73.7,-90.7,9,7.4,-28.7,0.505783258,-0.447553941,-0.122348704,-0.727225562
542,1358488,72940,-0.6,-1.316,0.131,-1013.7,73.7,-90.7,9,7.4,-28.7,0.505783258,-0.447553941,-0.122348704,-0.727225562
543,1362337,72950,-0.6,-1.316,0.131,-1013.7,73.7,-90.7,9,7.4,-28.7,0.505783258,-0.447553941,-0.122348704,-0.727225562
544,1364658,72950,-0.6,-1.316,0.131,-1013.7,73.7,-90.7,9,7.4,-28.7,0.505783258,-0.447553941,-0.122348704,-0.727225562
545,1366903,72950,-0.6,-1.316,0.131,-1013.7,73.7,-90.7,9,7.4,-28.7,0.505783258,-0.447553941,-0.122348704,-0.727225562
546,1368788,72950,-0.6,-1.316,0.131,-1013.7,73.7,-90.7,9,7.4,-28.7,0.505783258,-0.447553941,-0.122348704,-0.727225562
547,1371033,72960,-0.6,-1.316,0.131,-1013.7,73.7,-90.7,9,7.4,-28.7,0.505783258,-0.447553941,-0.122348704,-0.727225562
548,1373566,72960,-0.6,-1.316,0.131,-1013.7,73.7,-90.7,9,7.4,-28.7,0.505783258,-0.447553941,-0.122348704,-0.727225562
549,1375969,72960,-0.6,-1.316,0.131,-1013.7,73.7,-90.7,9,7.4,-28.7,0.505783258,-0.447553941,-0.122348704,-0.727225562
550,1380423,72960,-0.6,-1.316,0.131,-1013.7,73.7,-90.7,9,7.4,-28.7,0.505783258,-0.447553941,-0.122348704,-0.727225562
551,1380861,72970,-0.6,-1.316,0.131,-1013.7,73.7,-90.7,9,7.4,-28.7,0.505783258,-0.447553941,-0.122348704,-0.727225562
552,1383497,72970,-0.6,-1.316,0.131,-1013.7,73.7,-90.7,9,7.4,-28.7,0.505783258,-0.447553941,-0.122348704,-0.727225562
553,1386142,72970,-0.6,-1.316,0.131,-1013.7,73.7,-90.7,9,7.4,-28.7,0.505783258,-0.447553941,-0.122348704,-0.727225562
554,1389787,72970,-0.6,-1.316,0.131,-1013.7,73.7,-90.7,9,7.4,-28.7,0.505783258,-0.447553941,-0.122348704,-0.727225562
555,1392223,72980,-0.6,-1.316,0.131,-1013.7,73.7,-90.7,9,7.4,-28.7,0.505783258,-0.447553941,-0.122348704,-0.727225562
556,1394456,72980,-0.6,-1.316,0.131,-1013.7,73.7,-90.7,9,7.4,-28.7,0.505783258,-0.447553941,-0.122348704,-0.727225562
557,1396098,72980,-0.6,-1.316,0.131,-1013.7,73.7,-90.7,9,7.4,-28.7,0.505783258,-0.447553941,-0.122348704,-0.727225562
558,1398415,72980,-0.6,-1.316,0.131,-1013.7,73.7,-90.7,9,7.4,-28.7,0.505783258,-0.447553941,-0.122348704,-0.727225562
559,1400967,72990,-0.6,-1.316,0.131,-1013.7,73.7,-90.7,9,7.4,-28.7,0.505783258,-0.447553941,-0.122348704,-0.727225562
560,1403456,72990,-0.6,-1.316,0.131,-1013.7,73.7,-90.7,9,7.4,-28.7,0.505783258,-0.447553941,-0.122348704,-0.727225562
561,1407839,72990,-0.6,-1.316,0.131,-1013.7,73.7,-90.7,9,7.4,-28.7,0.505783258,-0.447553941,-0.122348704,-0.727225562
562,1409801,72990,-0.6,-1.316,0.131,-1013.7,73.7,-90.7,9,7.4,-28.7,0.505783258,-0.447553941,-0.122348704,-0.727225562
563,1411991,73000,-0.6,-1.316,0.131,-1013.7,73.7,-90.7,9,7.4,-28.7,0.505783258,-0.447553941,-0.122348704,-0.727225562
564,1414019,73000,-0.6,-1.316,0.131,-1013.7,73.7,-90.7,9,7.4,-28.7,0.505783258,-0.447553941,-0.122348704,-0.727225562
565,1416213,73000,-0.6,-1.316,0.131,-1013.7,73.7,-90.7,9,7.4,-28.7,0.505783258,-0.447553941,-0.122348704,-0.727225562
566,1418560,73000,-0.6,-1.316,0.131,-1013.7,73.7,-90.7,9,7.4,-28.7,0.505783258,-0.447553941,-0.122348704,-0.727225562
567,1421041,73010,-0.6,-1.316,0.131,-1013.7,73.7,-90.7,9,7.4,-28.7,0.505783258,-0.447553941,-0.122348704,-0.727225562
568,1423402,73010,-0.6,-1.316,0.131,-1013.7,73.7,-90.7,9,7.4,-28.7,0.505783258,-0.447553941,-0.122348704,-0.727225562
569,1427923,73010,-0.6,-1.316,0.131,-1013.7,73.7,-90.7,9,7.4,-28.7,0.505783258,-0.447553941,-0.122348704,-0.727225562
570,1430109,73010,-0.6,-1.316,0.131,-1013.7,73.7,-90.7,9,7.4,-28.7,0.505783258,-0.447553941,-0.122348704,-0.727225562
571,1432150,73020,-0.6,-1.316,0.131,-1013.7,73.7,-90.7,9,7.4,-28.7,0.505783258,-0.447553941,-0.122348704,-0.727225562
572,1433924,73020,-0.6,-1.316,0.131,-1013.7,73.7,-90.7,9,7.4,-28.7,0.505783258,-0.447553941,-0.122348704,-0.727225562
573,1436011,73020,-0.6,-1.316,0.131,-1013.7,73.7,-90.7,9,7.4,-28.7,0.505783258,-0.447553941,-0.122348704,-0.727225562
574,1440182,73020,-0.6,-1.316,0.131,-1013.7,73.7,-90.7,9,7.4,-28.7,0.505783258,-0.447553941,-0.122348704,-0.727225562
575,1442350,73030,-0.6,-1.316,0.131,-1013.7,73.7,-90.7,9,7.4,-28.7,0.505783258,-0.447553941,-0.122348704,-0.727225562
576,1444772,73030,-0.6,-1.316,0.131,-1013.7,73.7,-90.7,9,7.4,-28.7,0.505783258,-0.447553941,-0.122348704,-0.727225562
577,1446982,73030,-0.6,-1.316,0.131,-1013.7,73.7,-90.7,9,7.4,-28.7,0.505783258,-0.447553941,-0.122348704,-0.727225562
578,1449902,73030,1.33,-0.046,0.445,46.6,-5.5,85.3,8.5,15,-26.6,0.475966674,-0.568315683,-0.00476088748,-0.671102023
579,1452033,73040,1.33,-0.046,0.445,46.6,-5.5,85.3,8.5,15,-26.6,0.475966674,-0.568315683,-0.00476088748,-0.671102023
580,1454448,73040,1.33,-0.046,0.445,46.6,-5.5,85.3,8.5,15,-26.6,0.475966674,-0.568315683,-0.00476088748,-0.671102023
581,1456364,73040,1.33,-0.046,0.445,46.6,-5.5,85.3,8.5,15,-26.6,0.475966674,-0.568315683,-0.00476088748,-0.671102023
582,1458598,73040,1.33,-0.046,0.445,46.6,-5.5,85.3,8.5,15,-26.6,0.475966674,-0.568315683,-0.00476088748,-0.671102023
583,1460948,73050,1.33,-0.046,0.445,46.6,-5.5,85.3,8.5,15,-26.6,0.475966674,-0.568315683,-0.00476088748,-0.671102023
584,1463442,73050,1.33,-0.046,0.445,46.6,-5.5,85.3,8.5,15,-26.6,0.475966674,-0.568315683,-0.00476088748,-0.671102023
585,1466067,73050,1.33,-0.046,0.445,46.6,-5.5,85.3,8.5,15,-26.6,0.475966674,-0.568315683,-0.00476088748,-0.671102023
586,1468459,73050,1.33,-0.046,0.445,46.6,-5.5,85.3,8.5,15,-26.6,0.475966674,-0.568315683,-0.00476088748,-0.671102023
587,1471041,73060,1.33,-0.046,0.445,46.6,-5.5,85.3,8.5,15,-26.6,0.475966674,-0.568315683,-0.00476088748,-0.671102023
588,1475602,73060,1.33,-0.046,0.445,46.6,-5.5,85.3,8.5,15,-26.6,0.475966674,-0.568315683,-0.00476088748,-0.671102023
589,1476023,73060,1.33,-0.046,0.445,46.6,-5.5,85.3,8.5,15,-26.6,0.475966674,-0.568315683,-0.00476088748,-0.671102023
590,1478803,73060,1.33,-0.046,0.445,46.6,-5.5,85.3,8.5,15,-26.6,0.475966674,-0.568315683,-0.00476088748,-0.671102023
591,1483237,73070,1.33,-0.046,0.445,46.6,-5.5,85.3,8.5,15,-26.6,0.475966674,-0.568315683,-0.00476088748,-0.671102023
592,1483669,73070,0.802,-0.389,0.42,-33.8,48.3,54.1,8.7,15.3,-26.5,0.486922819,-0.564683981,0.00683614612,-0.666280099
593,1486012,73070,0.802,-0.389,0.42,-33.8,48.3,54.1,8.7,15.3,-26.5,0.486922819,-0.564683981,0.00683614612,-0.666280099
594,1490597,73070,0.802,-0.389,0.42,-33.8,48.3,54.1,8.7,15.3,-26.5,0.486922819,-0.564683981,0.00683614612,-0.666280099
595,1490940,73080,0.94,-0.635,0.21,-71.7,33,50.8,8.8,15.6,-26.4,0.487166967,-0.564592425,0.0126651814,-0.666096988
596,1494554,73080,0.94,-0.635,0.21,-71.7,33,50.8,8.8,15.6,-26.4,0.487166967,-0.564592425,0.0126651814,-0.666096988
597,1496396,73080,0.94,-0.635,0.21,-71.7,33,50.8,8.8,15.6,-26.4,0.487166967,-0.564592425,0.0126651814,-0.666096988
598,1498670,73080,0.94,-0.635,0.21,-71.7,33,50.8,8.8,15.6,-26.4,0.487166967,-0.564592425,0.0126651814,-0.666096988
599,1500975,73090,0.94,-0.635,0.21,-71.7,33,50.8,8.8,15.6,-26.4,0.487166967,-0.564592425,0.0126651814,-0.666096988
600,1503513,73090,0.94,-0.635,0.21,-71.7,33,50.8,8.8,15.6,-26.4,0.487166967,-0.564592425,0.0126651814,-0.666096988
601,1505833,73090,0.94,-0.635,0.21,-71.7,33,50.8,8.8,15.6,-26.4,0.487166967,-0.564592425,0.0126651814,-0.666096988
602,1510813,73090,0.94,-0.635,0.21,-71.7,33,50.8,8.8,15.6,-26.4,0.487166967,-0.564592425,0.0126651814,-0.666096988
603,1511235,73100,0.887,-0.473,0.313,-65.4,13,57.3,9.3,17.2,-25,0.483993042,-0.572557756,0.0252388073,-0.661244545
604,1513550,73100,0.887,-0.473,0.313,-65.4,13,57.3,9.3,17.2,-25,0.483993042,-0.572557756,0.0252388073,-0.661244545
605,1516277,73100,0.887,-0.473,0.313,-65.4,13,57.3,9.3,17.2,-25,0.483993042,-0.572557756,0.0252388073,-0.661244545
606,1518870,73100,0.887,-0.473,0.313,-65.4,13,57.3,9.3,17.2,-25,0.483993042,-0.572557756,0.0252388073,-0.661244545
607,1522443,73110,0.887,-0.473,0.313,-65.4,13,57.3,9.3,17.2,-25,0.483993042,-0.572557756,0.0252388073,-0.661244545
608,1524712,73110,0.887,-0.473,0.313,-65.4,13,57.3,9.3,17.2,-25,0.483993042,-0.572557756,0.0252388073,-0.661244545
609,1526986,73110,0.795,-0.313,-0.006,-113.1,91.9,39.9,9.4,17.4,-25.3,0.481521043,-0.572801904,0.0411694693,-0.662038026
610,1528870,73110,0.795,-0.313,-0.006,-113.1,91.9,39.9,9.4,17.4,-25.3,0.481521043,-0.572801904,0.0411694693,-0.662038026
611,1530989,73120,0.795,-0.313,-0.006,-113.1,91.9,39.9,9.4,17.4,-25.3,0.481521043,-0.572801904,0.0411694693,-0.662038026
612,1533502,73120,0.795,-0.313,-0.006,-113.1,91.9,39.9,9.4,17.4,-25.3,0.481521043,-0.572801904,0.0411694693,-0.662038026
613,1537693,73120,0.795,-0.313,-0.006,-113.1,91.9,39.9,9.4,17.4,-25.3,0.481521043,-0.572801904,0.0411694693,-0.662038026
614,1539935,73120,0.795,-0.313,-0.006,-113.1,91.9,39.9,9.4,17.4,-25.3,0.481521043,-0.572801904,0.0411694693,-0.662038026
615,1542084,73130,0.795,-0.313,-0.006,-113.1,91.9,39.9,9.4,17.4,-25.3,0.481521043,-0.572801904,0.0411694693,-0.662038026
616,1544951,73130,0.487,-0.483,0.046,-47.6,89.5,-3.2,10.1,18.2,-24.8,0.474776452,-0.568712424,0.0593585009,-0.668996246
617,1547058,73130,0.487,-0.483,0.046,-47.6,89.5,-3.2,10.1,18.2,-24.8,0.474776452,-0.568712424,0.0593585009,-0.668996246
618,1549444,73130,0.487,-0.483,0.046,-47.6,89.5,-3.2,10.1,18.2,-24.8,0.474776452,-0.568712424,0.0593585009,-0.668996246
619,1551314,73140,0.487,-0.483,0.046,-47.6,89.5,-3.2,10.1,18.2,-24.8,0.474776452,-0.568712424,0.0593585009,-0.668996246
620,1553560,73140,0.487,-0.483,0.046,-47.6,89.5,-3.2,10.1,18.2,-24.8,0.474776452,-0.568712424,0.0593585009,-0.668996246
621,1556177,73140,0.331,-0.407,0.033,53.8,43.5,-22.9,10.7,17.4,-23.6,0.474166082,-0.563615833,0.0603961303,-0.67363506
622,1558897,73140,0.386,-0.314,0.044,71.4,35.3,-29.5,10.7,17.4,-23.6,0.474562822,-0.562395093,0.0593585009,-0.674489578
623,1562045,73150,0.358,-0.403,0.009,89.5,25.4,-36.1,10.7,17.4,-23.6,0.475081637,-0.561143834,0.057863094,-0.675283059
624,1563687,73150,0.499,-0.222,-0.004,108.8,12.1,-42.7,10.7,17.4,-23.6,0.475783563,-0.559892575,0.0558488723,-0.676015503
625,1567962,73150,0.464,-0.229,-0.023,128,-4.5,-50.9,11,17.4,-24,0.476607562,-0.558671834,0.053254799,-0.676625874
626,1568392,73150,0.55,-0.208,-0.044,144.9,-24,-63.5,11,17.4,-24,0.477462081,-0.557603687,0.0500808741,-0.677175207
627,1571002,73160,0.55,-0.208,-0.044,144.9,-24,-63.5,11,17.4,-24,0.477462081,-0.557603687,0.0500808741,-0.677175207
628,1575386,73160,1.079,0.174,0.148,168,-59.9,-108.3,11,17.4,-24,0.47871334,-0.555925169,0.0419019135,-0.678212836
629,1577565,73160,1.185,0.29,0.228,174.1,-66.2,-142.8,10,17,-24.9,0.478743858,-0.555192724,0.036896878,-0.679067354
630,1579893,73160,1.166,0.197,0.236,175,-57.7,-185.1,10,17,-24.9,0.478164006,-0.554368725,0.0314645833,-0.680410169
631,1582476,73170,1.119,0.167,0.292,170.5,-34.5,-231.6,10,17,-24.9,0.476821192,-0.55323954,0.025757622,-0.682515946
632,1584655,73170,1.084,0.214,0.3,161.2,-2.9,-274.7,10,17,-24.9,0.474654378,-0.551744133,0.0200201422,-0.685415204
633,1586839,73170,0.979,0.263,0.271,148.1,27.8,-306.5,9.4,16.4,-24.4,0.471846675,-0.549943541,0.0144047365,-0.68898587
634,1588523,73170,0.9,0.272,0.249,129.7,48.7,-321.5,9.4,16.4,-24.4,0.468520157,-0.547959838,0.00909451582,-0.692892239
635,1592722,73180,0.9,0.272,0.249,129.7,48.7,-321.5,9.4,16.4,-24.4,0.468520157,-0.547959838,0.00909451582,-0.692892239
636,1594924,73180,0.884,0.135,0.14,70.7,43.7,-296.6,9.4,16.4,-24.4,0.461256752,-0.544755394,0.000122074038,-0.700308237
637,1597937,73180,0.86,0.213,0.14,34.9,22.2,-263.8,8.3,16.9,-25,0.45762505,-0.544053468,-0.00329599902,-0.703207495
638,1600161,73180,0.79,0.151,0.075,0.1,-3.2,-226.1,8.3,16.9,-25,0.454176458,-0.544083987,-0.00601214637,-0.705435347
639,1602285,73190,0.465,0.114,-0.008,-32,-28.3,-189.8,8.3,16.9,-25,0.45084994,-0.544785913,-0.0080568865,-0.706961272
640,1604515,73190,0.41,0.06,-0.011,-62.6,-52.9,-159.5,8.3,16.9,-25,0.447645497,-0.546189764,-0.00952177496,-0.707907346
641,1606475,73190,0.477,0.043,0.026,-92.2,-79.2,-137.7,8.6,16.4,-25.1,0.444380016,-0.548295541,-0.0104983673,-0.708334605
642,1609075,73190,0.516,0.035,0.064,-120.3,-108,-126,8.6,16.4,-25.1,0.440961943,-0.551103244,-0.011200293,-0.708273568
643,1611343,73200,0.571,0.018,0.083,-146,-136.3,-124.6,8.6,16.4,-25.1,0.437238685,-0.554551836,-0.0117496261,-0.707876827
644,1613580,73200,0.571,0.018,0.083,-146,-136.3,-124.6,8.6,16.4,-25.1,0.437238685,-0.554551836,-0.0117496261,-0.707876827
645,1616485,73200,0.727,0.012,0.135,-189.1,-175.8,-150.6,6.8,18.7,-24.7,0.428418836,-0.5630665,-0.012878811,-0.706564531
646,1618734,73200,0.864,-0.032,0.183,-207.2,-181.9,-173.7,6.8,18.7,-24.7,0.423139134,-0.567735832,-0.0135196997,-0.70598468
647,1622875,73210,0.938,-0.045,0.202,-223.4,-178.3,-199.2,6.8,18.7,-24.7,0.417218543,-0.572466201,-0.0141911069,-0.705648976
648,1624791,73210,1.016,-0.07,0.2,-237.4,-166.3,-224.1,6.8,18.7,-24.7,0.410748619,-0.577105014,-0.0148319956,-0.705679495
649,1627128,73210,1.016,-0.07,0.2,-237.4,-166.3,-224.1,6.8,18.7,-24.7,0.410748619,-0.577105014,-0.0148319956,-0.705679495
650,1629383,73210,1.188,-0.116,0.185,-256.2,-124.3,-261.3,5.1,19.7,-24.4,0.396435438,-0.585558641,-0.0158696249,-0.706839198
651,1631059,73220,1.242,-0.132,0.169,-260.2,-97.6,-269.6,5.1,19.7,-24.4,0.388897366,-0.589220862,-0.01617481,-0.707998901
652,1633665,73220,1.242,-0.132,0.169,-260.2,-97.6,-269.6,5.1,19.7,-24.4,0.388897366,-0.589220862,-0.01617481,-0.707998901
653,1636332,73220,1.242,-0.132,0.169,-260.2,-97.6,-269.6,5.1,19.7,-24.4,0.388897366,-0.589220862,-0.01617481,-0.707998901
654,1640283,73220,1.316,-0.177,0.081,-251.7,-17.5,-247.9,3.6,20.7,-23.7,0.366801965,-0.597277749,-0.0154118473,-0.713034455
655,1642530,73230,1.312,-0.181,0.042,-243.9,4.4,-228.7,3.6,20.7,-23.7,0.360057375,-0.599078341,-0.014557329,-0.71498764
656,1644691,73230,1.312,-0.181,0.042,-243.9,4.4,-228.7,3.6,20.7,-23.7,0.360057375,-0.599078341,-0.014557329,-0.71498764
657,1647021,73230,1.312,-0.181,0.042,-243.9,4.4,-228.7,3.6,20.7,-23.7,0.360057375,-0.599078341,-0.014557329,-0.71498764
658,1648847,73230,1.229,-0.184,-0.022,-214,50.4,-167.1,3.2,21.9,-23.2,0.342509232,-0.602343822,-0.0104983673,-0.720908231
659,1651148,73240,1.229,-0.184,-0.022,-214,50.4,-167.1,3.2,21.9,-23.2,0.342509232,-0.602343822,-0.0104983673,-0.720908231
660,1653410,73240,1.229,-0.184,-0.022,-214,50.4,-167.1,3.2,21.9,-23.2,0.342509232,-0.602343822,-0.0104983673,-0.720908231
661,1656979,73240,1.229,-0.184,-0.022,-214,50.4,-167.1,3.2,21.9,-23.2,0.342509232,-0.602343822,-0.0104983673,-0.720908231
662,1658897,73240,1.104,-0.201,-0.051,-185.6,77.1,-139.7,4.9,22.1,-22.6,0.323252052,-0.603473006,-0.00378429518,-0.728873562
663,1661105,73250,1.104,-0.201,-0.051,-185.6,77.1,-139.7,4.9,22.1,-22.6,0.323252052,-0.603473006,-0.00378429518,-0.728873562
664,1663663,73250,1.104,-0.201,-0.051,-185.6,77.1,-139.7,4.9,22.1,-22.6,0.323252052,-0.603473006,-0.00378429518,-0.728873562
665,1667536,73250,1.057,-0.201,-0.073,-185.1,80.8,-167.8,3.2,23.4,-21.8,0.308511612,-0.603411969,0.000488296152,-0.735312967
666,1669776,73250,1.053,-0.181,-0.081,-189.7,80.4,-180.4,3.2,23.4,-21.8,0.303109836,-0.603381451,0.00167851802,-0.737571337
667,1671980,73260,1.053,-0.173,-0.077,-198.3,80,-190.8,3.2,23.4,-21.8,0.297433393,-0.603411969,0.0028992584,-0.739860225
668,1673970,73260,1.069,-0.22,-0.074,-211.6,79.6,-196.5,3.2,23.4,-21.8,0.291451765,-0.603503525,0.00424207282,-0.742149113
669,1676711,73260,1.069,-0.22,-0.074,-211.6,79.6,-196.5,3.2,23.4,-21.8,0.291451765,-0.603503525,0.00424207282,-0.742149113
670,1679682,73260,1.069,-0.22,-0.074,-211.6,79.6,-196.5,3.2,23.4,-21.8,0.291451765,-0.603503525,0.00424207282,-0.742149113
671,1682083,73270,1.069,-0.22,-0.074,-211.6,79.6,-196.5,3.2,23.4,-21.8,0.291451765,-0.603503525,0.00424207282,-0.742149113
672,1685825,73270,1.049,-0.384,-0.081,-280.4,68.4,-184.4,3.2,24.3,-21.5,0.265480514,-0.604998932,0.0126651814,-0.750541704
673,1686219,73270,1.041,-0.419,-0.073,-291,63.7,-181.6,2.8,25.2,-20.3,0.258613849,-0.605670339,0.0154118473,-0.752311777
674,1690339,73270,1.041,-0.419,-0.073,-291,63.7,-181.6,2.8,25.2,-20.3,0.258613849,-0.605670339,0.0154118473,-0.752311777
675,1690955,73280,0.974,-0.551,-0.048,-302.4,59.5,-181.3,2.8,25.2,-20.3,0.24466689,-0.607135228,0.0211798456,-0.755668813
676,1694769,73280,0.974,-0.551,-0.048,-302.4,59.5,-181.3,2.8,25.2,-20.3,0.24466689,-0.607135228,0.0211798456,-0.755668813
677,1697023,73280,0.974,-0.551,-0.048,-302.4,59.5,-181.3,2.8,25.2,-20.3,0.24466689,-0.607135228,0.0211798456,-0.755668813
678,1699391,73280,0.974,-0.551,-0.048,-302.4,59.5,-181.3,2.8,25.2,-20.3,0.24466689,-0.607135228,0.0211798456,-0.755668813
679,1701988,73290,0.974,-0.551,-0.048,-302.4,59.5,-181.3,2.8,25.2,-20.3,0.24466689,-0.607135228,0.0211798456,-0.755668813
680,1704886,73290,0.974,-0.551,-0.048,-302.4,59.5,-181.3,2.8,25.2,-20.3,0.24466689,-0.607135228,0.0211798456,-0.755668813
681,1706677,73290,0.974,-0.551,-0.048,-302.4,59.5,-181.3,2.8,25.2,-20.3,0.24466689,-0.607135228,0.0211798456,-0.755668813
682,1709264,73290,0.974,-0.551,-0.048,-302.4,59.5,-181.3,2.8,25.2,-20.3,0.24466689,-0.607135228,0.0211798456,-0.755668813
683,1711206,73300,0.974,-0.551,-0.048,-302.4,59.5,-181.3,2.8,25.2,-20.3,0.24466689,-0.607135228,0.0211798456,-0.755668813
684,1713511,73300,0.974,-0.551,-0.048,-302.4,59.5,-181.3,2.8,25.2,-20.3,0.24466689,-0.607135228,0.0211798456,-0.755668813
685,1716077,73300,0.974,-0.551,-0.048,-302.4,59.5,-181.3,2.8,25.2,-20.3,0.24466689,-0.607135228,0.0211798456,-0.755668813
686,1718753,73300,0.974,-0.551,-0.048,-302.4,59.5,-181.3,2.8,25.2,-20.3,0.24466689,-0.607135228,0.0211798456,-0.755668813
687,1721032,73310,0.974,-0.551,-0.048,-302.4,59.5,-181.3,2.8,25.2,-20.3,0.24466689,-0.607135228,0.0211798456,-0.755668813
688,1723575,73310,0.974,-0.551,-0.048,-302.4,59.5,-181.3,2.8,25.2,-20.3,0.24466689,-0.607135228,0.0211798456,-0.755668813
689,1726269,73310,0.974,-0.551,-0.048,-302.4,59.5,-181.3,2.8,25.2,-20.3,0.24466689,-0.607135228,0.0211798456,-0.755668813
690,1728472,73310,0.974,-0.551,-0.048,-302.4,59.5,-181.3,2.8,25.2,-20.3,0.24466689,-0.607135228,0.0211798456,-0.755668813
691,1731026,73320,0.974,-0.551,-0.048,-302.4,59.5,-181.3,2.8,25.2,-20.3,0.24466689,-0.607135228,0.0211798456,-0.755668813
692,1733321,73320,0.974,-0.551,-0.048,-302.4,59.5,-181.3,2.8,25.2,-20.3,0.24466689,-0.607135228,0.0211798456,-0.755668813
693,1737806,73320,0.974,-0.551,-0.048,-302.4,59.5,-181.3,2.8,25.2,-20.3,0.24466689,-0.607135228,0.0211798456,-0.755668813
694,1740076,73320,0.974,-0.551,-0.048,-302.4,59.5,-181.3,2.8,25.2,-20.3,0.24466689,-0.607135228,0.0211798456,-0.755668813
695,1742275,73330,0.974,-0.551,-0.048,-302.4,59.5,-181.3,2.8,25.2,-20.3,0.24466689,-0.607135228,0.0211798456,-0.755668813
696,1744443,73330,0.974,-0.551,-0.048,-302.4,59.5,-181.3,2.8,25.2,-20.3,0.24466689,-0.607135228,0.0211798456,-0.755668813
697,1746811,73330,0.974,-0.551,-0.048,-302.4,59.5,-181.3,2.8,25.2,-20.3,0.24466689,-0.607135228,0.0211798456,-0.755668813
698,1748845,73330,0.974,-0.551,-0.048,-302.4,59.5,-181.3,2.8,25.2,-20.3,0.24466689,-0.607135228,0.0211798456,-0.755668813
699,1752608,73340,1.182,-0.565,0.112,-139.4,23.5,-124.8,-0.8,28.7,-15.1,0.100772118,-0.607318339,0.0617999817,-0.785576952
700,1754916,73340,1.225,-0.551,0.056,-127.3,26.8,-122,-0.8,28.7,-15.1,0.0969573046,-0.60728782,0.0624103519,-0.78603473
701,1757135,73340,1.225,-0.551,0.056,-127.3,26.8,-122,-0.8,28.7,-15.1,0.0969573046,-0.60728782,0.0624103519,-0.78603473
702,1759542,73340,1.24,-0.61,0.013,-110.8,24.2,-125.3,-2,28.5,-14.5,0.0896633808,-0.607257302,0.0629902036,-0.786889248
703,1763203,73350,1.24,-0.61,0.013,-110.8,24.2,-125.3,-2,28.5,-14.5,0.0896633808,-0.607257302,0.0629902036,-0.786889248
704,1763496,73350,1.251,-0.626,-0.021,-98.9,17.4,-131.7,-2,28.5,-14.5,0.0824304941,-0.607348857,0.0630817591,-0.787591174
705,1767591,73350,1.251,-0.626,-0.021,-98.9,17.4,-131.7,-2,28.5,-14.5,0.0824304941,-0.607348857,0.0630817591,-0.787591174
706,1770101,73350,1.209,-0.574,-0.009,-85.4,15.3,-134.2,-1.6,28.8,-14,0.0754417554,-0.60750145,0.0626850185,-0.788232063
707,1772447,73360,1.209,-0.574,-0.009,-85.4,15.3,-134.2,-1.6,28.8,-14,0.0754417554,-0.60750145,0.0626850185,-0.788232063
708,1774612,73360,1.209,-0.574,-0.009,-85.4,15.3,-134.2,-1.6,28.8,-14,0.0754417554,-0.60750145,0.0626850185,-0.788232063
709,1776822,73360,1.209,-0.574,-0.009,-85.4,15.3,-134.2,-1.6,28.8,-14,0.0754417554,-0.60750145,0.0626850185,-0.788232063
710,1779024,73360,1.209,-0.574,-0.009,-85.4,15.3,-134.2,-1.6,28.8,-14,0.0754417554,-0.60750145,0.0626850185,-0.788232063
711,1781042,73370,1.209,-0.574,-0.009,-85.4,15.3,-134.2,-1.6,28.8,-14,0.0754417554,-0.60750145,0.0626850185,-0.788232063
712,1783553,73370,1.209,-0.574,-0.009,-85.4,15.3,-134.2,-1.6,28.8,-14,0.0754417554,-0.60750145,0.0626850185,-0.788232063
713,1788050,73370,1.011,-0.464,0.232,-68.9,-4.1,-127.6,-3,28.8,-13.5,0.0527359844,-0.608905301,0.0593279824,-0.789239174
714,1788407,73370,1,-0.452,0.256,-65.4,-1.2,-126.1,-3,28.8,-13.5,0.0496841334,-0.609179968,0.0587786493,-0.789269692
715,1790932,73380,1,-0.452,0.256,-65.4,-1.2,-126.1,-3,28.8,-13.5,0.0496841334,-0.609179968,0.0587786493,-0.789269692
716,1795391,73380,1,-0.452,0.256,-65.4,-1.2,-126.1,-3,28.8,-13.5,0.0496841334,-0.609179968,0.0587786493,-0.789269692
717,1797600,73380,1.015,-0.437,0.256,-69,9.4,-117.8,-3.4,28.7,-12.9,0.0408032472,-0.609485153,0.0573442793,-0.789635914
718,1799896,73380,1.015,-0.448,0.24,-77.8,11.1,-115.2,-3.4,28.7,-12.9,0.0377819147,-0.609515671,0.0571611682,-0.789788507
719,1802167,73390,0.984,-0.491,0.217,-88.2,13.2,-113.2,-3.4,28.7,-12.9,0.0346385083,-0.609485153,0.0571611682,-0.789941099
720,1804411,73390,0.984,-0.491,0.217,-88.2,13.2,-113.2,-3.4,28.7,-12.9,0.0346385083,-0.609485153,0.0571611682,-0.789941099
721,1806364,73390,0.984,-0.491,0.217,-88.2,13.2,-113.2,-3.4,28.7,-12.9,0.0346385083,-0.609485153,0.0571611682,-0.789941099
722,1810410,73390,0.944,-0.604,0.132,-106.7,27.5,-105.8,-5.6,28.5,-12.7,0.0248420667,-0.608874783,0.0582903531,-0.790704062
723,1813039,73400,0.971,-0.624,0.112,-107.2,32.6,-102.1,-5.6,28.5,-12.7,0.0216071047,-0.608478042,0.0588091678,-0.791070284
724,1813431,73400,0.971,-0.624,0.112,-107.2,32.6,-102.1,-5.6,28.5,-12.7,0.0216071047,-0.608478042,0.0588091678,-0.791070284
725,1815953,73400,0.971,-0.624,0.112,-107.2,32.6,-102.1,-5.6,28.5,-12.7,0.0216071047,-0.608478042,0.0588091678,-0.791070284
726,1820603,73400,0.971,-0.624,0.112,-107.2,32.6,-102.1,-5.6,28.5,-12.7,0.0216071047,-0.608478042,0.0588091678,-0.791070284
727,1821070,73410,0.971,-0.624,0.112,-107.2,32.6,-102.1,-5.6,28.5,-12.7,0.0216071047,-0.608478042,0.0588091678,-0.791070284
728,1823889,73410,0.971,-0.624,0.112,-107.2,32.6,-102.1,-5.6,28.5,-12.7,0.0216071047,-0.608478042,0.0588091678,-0.791070284
729,1825973,73410,0.971,-0.624,0.112,-107.2,32.6,-102.1,-5.6,28.5,-12.7,0.0216071047,-0.608478042,0.0588091678,-0.791070284
730,1828516,73410,0.971,-0.624,0.112,-107.2,32.6,-102.1,-5.6,28.5,-12.7,0.0216071047,-0.608478042,0.0588091678,-0.791070284
731,1830866,73420,0.971,-0.624,0.112,-107.2,32.6,-102.1,-5.6,28.5,-12.7,0.0216071047,-0.608478042,0.0588091678,-0.791070284
732,1835598,73420,0.971,-0.624,0.112,-107.2,32.6,-102.1,-5.6,28.5,-12.7,0.0216071047,-0.608478042,0.0588091678,-0.791070284
733,1836098,73420,0.956,-0.312,0.033,-79,17.9,-83.1,-4.8,29,-12.1,0.00372325816,0.602313303,-0.0602740562,0.795953246
734,1838900,73420,0.956,-0.312,0.033,-79,17.9,-83.1,-4.8,29,-12.1,0.00372325816,0.602313303,-0.0602740562,0.795953246
735,1842030,73430,0.956,-0.312,0.033,-79,17.9,-83.1,-4.8,29,-12.1,0.00372325816,0.602313303,-0.0602740562,0.795953246
736,1843706,73430,0.956,-0.312,0.033,-79,17.9,-83.1,-4.8,29,-12.1,0.00372325816,0.602313303,-0.0602740562,0.795953246
737,1846066,73430,0.956,-0.312,0.033,-79,17.9,-83.1,-4.8,29,-12.1,0.00372325816,0.602313303,-0.0602740562,0.795953246
738,1848715,73430,0.956,-0.312,0.033,-79,17.9,-83.1,-4.8,29,-12.1,0.00372325816,0.602313303,-0.0602740562,0.795953246
739,1850887,73440,0.956,-0.312,0.033,-79,17.9,-83.1,-4.8,29,-12.1,0.00372325816,0.602313303,-0.0602740562,0.795953246
740,1855396,73440,0.956,-0.312,0.033,-79,17.9,-83.1,-4.8,29,-12.1,0.00372325816,0.602313303,-0.0602740562,0.795953246
741,1857448,73440,0.956,-0.312,0.033,-79,17.9,-83.1,-4.8,29,-12.1,0.00372325816,0.602313303,-0.0602740562,0.795953246
742,1860190,73440,0.956,-0.312,0.033,-79,17.9,-83.1,-4.8,29,-12.1,0.00372325816,0.602313303,-0.0602740562,0.795953246
743,1862334,73450,0.956,-0.312,0.033,-79,17.9,-83.1,-4.8,29,-12.1,0.00372325816,0.602313303,-0.0602740562,0.795953246
744,1864685,73450,0.956,-0.312,0.033,-79,17.9,-83.1,-4.8,29,-12.1,0.00372325816,0.602313303,-0.0602740562,0.795953246
745,1867011,73450,0.956,-0.312,0.033,-79,17.9,-83.1,-4.8,29,-12.1,0.00372325816,0.602313303,-0.0602740562,0.795953246
746,1869842,73450,0.956,-0.312,0.033,-79,17.9,-83.1,-4.8,29,-12.1,0.00372325816,0.602313303,-0.0602740562,0.795953246
747,1872156,73460,0.956,-0.312,0.033,-79,17.9,-83.1,-4.8,29,-12.1,0.00372325816,0.602313303,-0.0602740562,0.795953246
748,1874338,73460,0.956,-0.312,0.033,-79,17.9,-83.1,-4.8,29,-12.1,0.00372325816,0.602313303,-0.0602740562,0.795953246
749,1876290,73460,0.956,-0.312,0.033,-79,17.9,-83.1,-4.8,29,-12.1,0.00372325816,0.602313303,-0.0602740562,0.795953246
750,1878483,73460,0.956,-0.312,0.033,-79,17.9,-83.1,-4.8,29,-12.1,0.00372325816,0.602313303,-0.0602740562,0.795953246
751,1882126,73470,0.956,-0.312,0.033,-79,17.9,-83.1,-4.8,29,-12.1,0.00372325816,0.602313303,-0.0602740562,0.795953246
752,1883975,73470,0.956,-0.312,0.033,-79,17.9,-83.1,-4.8,29,-12.1,0.00372325816,0.602313303,-0.0602740562,0.795953246
753,1886204,73470,0.956,-0.312,0.033,-79,17.9,-83.1,-4.8,29,-12.1,0.00372325816,0.602313303,-0.0602740562,0.795953246
754,1888550,73470,0.956,-0.312,0.033,-79,17.9,-83.1,-4.8,29,-12.1,0.00372325816,0.602313303,-0.0602740562,0.795953246
755,1891158,73480,0.956,-0.312,0.033,-79,17.9,-83.1,-4.8,29,-12.1,0.00372325816,0.602313303,-0.0602740562,0.795953246
756,1893713,73480,0.956,-0.312,0.033,-79,17.9,-83.1,-4.8,29,-12.1,0.00372325816,0.602313303,-0.0602740562,0.795953246
757,1896003,73480,0.956,-0.312,0.033,-79,17.9,-83.1,-4.8,29,-12.1,0.00372325816,0.602313303,-0.0602740562,0.795953246
758,1898619,73480,0.956,-0.312,0.033,-79,17.9,-83.1,-4.8,29,-12.1,0.00372325816,0.602313303,-0.0602740562,0.795953246
759,1901240,73490,0.956,-0.312,0.033,-79,17.9,-83.1,-4.8,29,-12.1,0.00372325816,0.602313303,-0.0602740562,0.795953246
760,1903953,73490,0.956,-0.312,0.033,-79,17.9,-83.1,-4.8,29,-12.1,0.00372325816,0.602313303,-0.0602740562,0.795953246
761,1906083,73490,0.956,-0.312,0.033,-79,17.9,-83.1,-4.8,29,-12.1,0.00372325816,0.602313303,-0.0602740562,0.795953246
762,1910499,73490,0.956,-0.312,0.033,-79,17.9,-83.1,-4.8,29,-12.1,0.00372325816,0.602313303,-0.0602740562,0.795953246
763,1910917,73500,0.956,-0.312,0.033,-79,17.9,-83.1,-4.8,29,-12.1,0.00372325816,0.602313303,-0.0602740562,0.795953246
764,1913538,73500,0.956,-0.312,0.033,-79,17.9,-83.1,-4.8,29,-12.1,0.00372325816,0.602313303,-0.0602740562,0.795953246
765,1917948,73500,0.956,-0.312,0.033,-79,17.9,-83.1,-4.8,29,-12.1,0.00372325816,0.602313303,-0.0602740562,0.795953246
766,1918358,73500,0.956,-0.312,0.033,-79,17.9,-83.1,-4.8,29,-12.1,0.00372325816,0.602313303,-0.0602740562,0.795953246
767,1920873,73510,0.956,-0.312,0.033,-79,17.9,-83.1,-4.8,29,-12.1,0.00372325816,0.602313303,-0.0602740562,0.795953246
768,1924581,73510,0.956,-0.312,0.033,-79,17.9,-83.1,-4.8,29,-12.1,0.00372325816,0.602313303,-0.0602740562,0.795953246
769,1926207,73510,0.956,-0.312,0.033,-79,17.9,-83.1,-4.8,29,-12.1,0.00372325816,0.602313303,-0.0602740562,0.795953246
770,1928514,73510,0.956,-0.312,0.033,-79,17.9,-83.1,-4.8,29,-12.1,0.00372325816,0.602313303,-0.0602740562,0.795953246
771,1931045,73520,0.956,-0.312,0.033,-79,17.9,-83.1,-4.8,29,-12.1,0.00372325816,0.602313303,-0.0602740562,0.795953246
772,1935341,73520,0.956,-0.312,0.033,-79,17.9,-83.1,-4.8,29,-12.1,0.00372325816,0.602313303,-0.0602740562,0.795953246
773,1935839,73520,0.956,-0.312,0.033,-79,17.9,-83.1,-4.8,29,-12.1,0.00372325816,0.602313303,-0.0602740562,0.795953246
774,1938362,73520,0.956,-0.312,0.033,-79,17.9,-83.1,-4.8,29,-12.1,0.00372325816,0.602313303,-0.0602740562,0.795953246
775,1942736,73530,0.956,-0.312,0.033,-79,17.9,-83.1,-4.8,29,-12.1,0.00372325816,0.602313303,-0.0602740562,0.795953246
776,1944921,73530,0.956,-0.312,0.033,-79,17.9,-83.1,-4.8,29,-12.1,0.00372325816,0.602313303,-0.0602740562,0.795953246
777,1947168,73530,0.956,-0.312,0.033,-79,17.9,-83.1,-4.8,29,-12.1,0.00372325816,0.602313303,-0.0602740562,0.795953246
778,1949390,73530,0.956,-0.312,0.033,-79,17.9,-83.1,-4.8,29,-12.1,0.00372325816,0.602313303,-0.0602740562,0.795953246
779,1951956,73540,0.956,-0.312,0.033,-79,17.9,-83.1,-4.8,29,-12.1,0.00372325816,0.602313303,-0.0602740562,0.795953246
780,1953583,73540,0.956,-0.312,0.033,-79,17.9,-83.1,-4.8,29,-12.1,0.00372325816,0.602313303,-0.0602740562,0.795953246
781,1956199,73540,0.956,-0.312,0.033,-79,17.9,-83.1,-4.8,29,-12.1,0.00372325816,0.602313303,-0.0602740562,0.795953246
782,1959036,73540,0.956,-0.312,0.033,-79,17.9,-83.1,-4.8,29,-12.1,0.00372325816,0.602313303,-0.0602740562,0.795953246
783,1961190,73550,0.956,-0.312,0.033,-79,17.9,-83.1,-4.8,29,-12.1,0.00372325816,0.602313303,-0.0602740562,0.795953246
784,1963621,73550,0.956,-0.312,0.033,-79,17.9,-83.1,-4.8,29,-12.1,0.00372325816,0.602313303,-0.0602740562,0.795953246
785,1965853,73550,0.956,-0.312,0.033,-79,17.9,-83.1,-4.8,29,-12.1,0.00372325816,0.602313303,-0.0602740562,0.795953246
786,1968519,73550,0.956,-0.312,0.033,-79,17.9,-83.1,-4.8,29,-12.1,0.00372325816,0.602313303,-0.0602740562,0.795953246
787,1972955,73560,0.956,-0.312,0.033,-79,17.9,-83.1,-4.8,29,-12.1,0.00372325816,0.602313303,-0.0602740562,0.795953246
788,1973379,73560,0.956,-0.312,0.033,-79,17.9,-83.1,-4.8,29,-12.1,0.00372325816,0.602313303,-0.0602740562,0.795953246
789,1975951,73560,0.956,-0.312,0.033,-79,17.9,-83.1,-4.8,29,-12.1,0.00372325816,0.602313303,-0.0602740562,0.795953246
790,1980321,73560,0.956,-0.312,0.033,-79,17.9,-83.1,-4.8,29,-12.1,0.00372325816,0.602313303,-0.0602740562,0.795953246
791,1982712,73570,0.956,-0.312,0.033,-79,17.9,-83.1,-4.8,29,-12.1,0.00372325816,0.602313303,-0.0602740562,0.795953246
792,1984548,73570,0.956,-0.312,0.033,-79,17.9,-83.1,-4.8,29,-12.1,0.00372325816,0.602313303,-0.0602740562,0.795953246
793,1986881,73570,0.956,-0.312,0.033,-79,17.9,-83.1,-4.8,29,-12.1,0.00372325816,0.602313303,-0.0602740562,0.795953246
794,1988925,73570,0.956,-0.312,0.033,-79,17.9,-83.1,-4.8,29,-12.1,0.00372325816,0.602313303,-0.0602740562,0.795953246
795,1991206,73580,0.956,-0.312,0.033,-79,17.9,-83.1,-4.8,29,-12.1,0.00372325816,0.602313303,-0.0602740562,0.795953246
796,1993525,73580,0.956,-0.312,0.033,-79,17.9,-83.1,-4.8,29,-12.1,0.00372325816,0.602313303,-0.0602740562,0.795953246
797,1996428,73580,0.956,-0.312,0.033,-79,17.9,-83.1,-4.8,29,-12.1,0.00372325816,0.602313303,-0.0602740562,0.795953246
798,1998577,73580,0.956,-0.312,0.033,-79,17.9,-83.1,-4.8,29,-12.1,0.00372325816,0.602313303,-0.0602740562,0.795953246
799,2000884,73590,0.956,-0.312,0.033,-79,17.9,-83.1,-4.8,29,-12.1,0.00372325816,0.602313303,-0.0602740562,0.795953246
800,2003553,73590,0.956,-0.312,0.033,-79,17.9,-83.1,-4.8,29,-12.1,0.00372325816,0.602313303,-0.0602740562,0.795953246
801,2005836,73590,0.956,-0.312,0.033,-79,17.9,-83.1,-4.8,29,-12.1,0.00372325816,0.602313303,-0.0602740562,0.795953246
802,2010302,73590,0.956,-0.312,0.033,-79,17.9,-83.1,-4.8,29,-12.1,0.00372325816,0.602313303,-0.0602740562,0.795953246
803,2012394,73600,0.956,-0.312,0.033,-79,17.9,-83.1,-4.8,29,-12.1,0.00372325816,0.602313303,-0.0602740562,0.795953246
804,2014590,73600,0.956,-0.312,0.033,-79,17.9,-83.1,-4.8,29,-12.1,0.00372325816,0.602313303,-0.0602740562,0.795953246
805,2016876,73600,0.956,-0.312,0.033,-79,17.9,-83.1,-4.8,29,-12.1,0.00372325816,0.602313303,-0.0602740562,0.795953246
806,2018824,73600,0.956,-0.312,0.033,-79,17.9,-83.1,-4.8,29,-12.1,0.00372325816,0.602313303,-0.0602740562,0.795953246
807,2021085,73610,0.956,-0.312,0.033,-79,17.9,-83.1,-4.8,29,-12.1,0.00372325816,0.602313303,-0.0602740562,0.795953246
808,2023590,73610,0.956,-0.312,0.033,-79,17.9,-83.1,-4.8,29,-12.1,0.00372325816,0.602313303,-0.0602740562,0.795953246
809,2025884,73610,0.956,-0.312,0.033,-79,17.9,-83.1,-4.8,29,-12.1,0.00372325816,0.602313303,-0.0602740562,0.795953246
810,2030318,73610,0.956,-0.312,0.033,-79,17.9,-83.1,-4.8,29,-12.1,0.00372325816,0.602313303,-0.0602740562,0.795953246
811,2032613,73620,0.956,-0.312,0.033,-79,17.9,-83.1,-4.8,29,-12.1,0.00372325816,0.602313303,-0.0602740562,0.795953246
812,2034876,73620,0.956,-0.312,0.033,-79,17.9,-83.1,-4.8,29,-12.1,0.00372325816,0.602313303,-0.0602740562,0.795953246
813,2037105,73620,0.956,-0.312,0.033,-79,17.9,-83.1,-4.8,29,-12.1,0.00372325816,0.602313303,-0.0602740562,0.795953246
814,2039363,73620,0.956,-0.312,0.033,-79,17.9,-83.1,-4.8,29,-12.1,0.00372325816,0.602313303,-0.0602740562,0.795953246
815,2041426,73630,0.956,-0.312,0.033,-79,17.9,-83.1,-4.8,29,-12.1,0.00372325816,0.602313303,-0.0602740562,0.795953246
816,2043633,73630,0.956,-0.312,0.033,-79,17.9,-83.1,-4.8,29,-12.1,0.00372325816,0.602313303,-0.0602740562,0.795953246
817,2045895,73630,0.956,-0.312,0.033,-79,17.9,-83.1,-4.8,29,-12.1,0.00372325816,0.602313303,-0.0602740562,0.795953246
818,2048405,73630,0.956,-0.312,0.033,-79,17.9,-83.1,-4.8,29,-12.1,0.00372325816,0.602313303,-0.0602740562,0.795953246
819,2052896,73640,0.956,-0.312,0.033,-79,17.9,-83.1,-4.8,29,-12.1,0.00372325816,0.602313303,-0.0602740562,0.795953246
820,2055163,73640,0.956,-0.312,0.033,-79,17.9,-83.1,-4.8,29,-12.1,0.00372325816,0.602313303,-0.0602740562,0.795953246
821,2057422,73640,0.956,-0.312,0.033,-79,17.9,-83.1,-4.8,29,-12.1,0.00372325816,0.602313303,-0.0602740562,0.795953246
822,2059652,73640,0.956,-0.312,0.033,-79,17.9,-83.1,-4.8,29,-12.1,0.00372325816,0.602313303,-0.0602740562,0.795953246
823,2061905,73650,0.956,-0.312,0.033,-79,17.9,-83.1,-4.8,29,-12.1,0.00372325816,0.602313303,-0.0602740562,0.795953246
824,2063922,73650,0.956,-0.312,0.033,-79,17.9,-83.1,-4.8,29,-12.1,0.00372325816,0.602313303,-0.0602740562,0.795953246
825,2067938,73650,0.956,-0.312,0.033,-79,17.9,-83.1,-4.8,29,-12.1,0.00372325816,0.602313303,-0.0602740562,0.795953246
826,2069996,73650,0.926,-0.244,0.257,-1.5,-9.4,36.4,-5.4,30.1,-7.7,0.0411084323,0.592364269,-0.139927366,0.792352062
827,2072246,73660,0.926,-0.244,0.257,-1.5,-9.4,36.4,-5.4,30.1,-7.7,0.0411084323,0.592364269,-0.139927366,0.792352062
828,2074923,73660,0.926,-0.244,0.257,-1.5,-9.4,36.4,-5.4,30.1,-7.7,0.0411084323,0.592364269,-0.139927366,0.792352062
829,2077273,73660,0.926,-0.244,0.257,-1.5,-9.4,36.4,-5.4,30.1,-7.7,0.0411084323,0.592364269,-0.139927366,0.792352062
830,2079434,73660,0.938,-0.283,0.237,1.4,-10.4,35,-5.3,30.3,-8,0.0384838404,0.592638936,-0.141758477,0.791924802
831,2081456,73670,0.938,-0.283,0.237,1.4,-10.4,35,-5.3,30.3,-8,0.0384838404,0.592638936,-0.141758477,0.791924802
832,2085596,73670,0.922,-0.294,0.234,6.4,-9,34.7,-5.3,30.3,-8,0.0371105075,0.59276101,-0.142521439,0.79177221
833,2085925,73670,0.922,-0.271,0.249,10.6,-8,35,-5.5,29.9,-8.1,0.0363475448,0.592791528,-0.142796106,0.791741691
834,2089973,73670,0.922,-0.271,0.249,10.6,-8,35,-5.5,29.9,-8.1,0.0363475448,0.592791528,-0.142796106,0.791741691
835,2092267,73680,0.891,-0.302,0.234,19.5,-6.2,34.5,-5.5,29.9,-8.1,0.0346385083,0.592822047,-0.143101291,0.791711173
836,2094590,73680,0.91,-0.31,0.23,22.8,-6.1,33.3,-5.5,29.9,-8.1,0.033722953,0.592852565,-0.143131809,0.791741691
837,2096885,73680,0.91,-0.31,0.23,22.8,-6.1,33.3,-5.5,29.9,-8.1,0.033722953,0.592852565,-0.143131809,0.791741691
838,2098820,73680,0.965,-0.287,0.245,28.4,-8.6,27.4,-4.9,30.1,-8.3,0.0320139164,0.592974639,-0.142979217,0.791741691
839,2101013,73690,0.965,-0.287,0.245,28.4,-8.6,27.4,-4.9,30.1,-8.3,0.0320139164,0.592974639,-0.142979217,0.791741691
840,2105529,73690,0.965,-0.287,0.245,28.4,-8.6,27.4,-4.9,30.1,-8.3,0.0320139164,0.592974639,-0.142979217,0.791741691
841,2107859,73690,0.985,-0.272,0.268,42.6,-13.8,19.4,-5,30.6,-7,0.028992584,0.593462935,-0.142368847,0.791619617
842,2108574,73690,0.988,-0.28,0.256,42.6,-13.8,19.4,-5,30.6,-7,0.0280465102,0.593676565,-0.141880551,0.79155858
843,2113297,73700,0.992,-0.241,0.252,42.8,-13.4,22.7,-5,30.6,-7,0.0270699179,0.593859676,-0.141453291,0.791528062
844,2113753,73700,1,-0.21,0.271,42.3,-12.9,25.6,-5,30.6,-7,0.0260017701,0.594042787,-0.141056551,0.791528062
845,2116954,73700,1,-0.21,0.271,42.3,-12.9,25.6,-5,30.6,-7,0.0260017701,0.594042787,-0.141056551,0.791528062
846,2118732,73700,1,-0.21,0.271,42.3,-12.9,25.6,-5,30.6,-7,0.0260017701,0.594042787,-0.141056551,0.791528062
847,2121118,73710,1,-0.21,0.271,42.3,-12.9,25.6,-5,30.6,-7,0.0260017701,0.594042787,-0.141056551,0.791528062
848,2123360,73710,1,-0.21,0.271,42.3,-12.9,25.6,-5,30.6,-7,0.0260017701,0.594042787,-0.141056551,0.791528062
849,2128546,73710,1,-0.21,0.271,42.3,-12.9,25.6,-5,30.6,-7,0.0260017701,0.594042787,-0.141056551,0.791528062
850,2129772,73710,0.977,-0.166,0.26,24.9,-8.9,24.5,-4.7,29.3,-9.7,0.0202642903,0.59480575,-0.13943907,0.791405988
851,2132711,73720,0.977,-0.166,0.26,24.9,-8.9,24.5,-4.7,29.3,-9.7,0.0202642903,0.59480575,-0.13943907,0.791405988
852,2135739,73720,0.981,-0.205,0.256,11.5,-6.5,21,-4.7,29.3,-9.7,0.0191045869,0.594927824,-0.139500107,0.791314432
853,2136132,73720,0.981,-0.205,0.256,11.5,-6.5,21,-4.7,29.3,-9.7,0.0191045869,0.594927824,-0.139500107,0.791314432
854,2138639,73720,0.981,-0.205,0.256,11.5,-6.5,21,-4.7,29.3,-9.7,0.0191045869,0.594927824,-0.139500107,0.791314432
855,2142613,73730,0.981,-0.205,0.256,11.5,-6.5,21,-4.7,29.3,-9.7,0.0191045869,0.594927824,-0.139500107,0.791314432
856,2144788,73730,0.981,-0.205,0.256,11.5,-6.5,21,-4.7,29.3,-9.7,0.0191045869,0.594927824,-0.139500107,0.791314432
857,2147005,73730,0.981,-0.205,0.256,11.5,-6.5,21,-4.7,29.3,-9.7,0.0191045869,0.594927824,-0.139500107,0.791314432
858,2148745,73730,0.981,-0.205,0.256,11.5,-6.5,21,-4.7,29.3,-9.7,0.0191045869,0.594927824,-0.139500107,0.791314432
859,2152721,73740,0.981,-0.205,0.256,11.5,-6.5,21,-4.7,29.3,-9.7,0.0191045869,0.594927824,-0.139500107,0.791314432
860,2154996,73740,0.946,-0.256,0.257,-0.4,-0.8,15.5,-4.4,30,-9.6,0.0166020692,0.595110935,-0.140598773,0.791070284
861,2157297,73740,0.946,-0.256,0.257,-0.4,-0.8,15.5,-4.4,30,-9.6,0.0166020692,0.595110935,-0.140598773,0.791070284
862,2160284,73740,0.946,-0.256,0.257,-3.5,0.5,15.4,-4.4,31.5,-7.8,0.015991699,0.594866787,-0.141392254,0.791100803
863,2162457,73750,0.946,-0.256,0.257,-3.5,0.5,15.4,-4.4,31.5,-7.8,0.015991699,0.594866787,-0.141392254,0.791100803
864,2164212,73750,0.949,-0.271,0.253,-4.1,0.3,13.5,-4.4,31.5,-7.8,0.0155949583,0.594775231,-0.141911069,0.791100803
865,2166816,73750,0.949,-0.271,0.257,-3.7,-0.2,12.4,-4.4,30.2,-9.3,0.0154423658,0.594714194,-0.142124699,0.791070284
866,2168496,73750,0.949,-0.271,0.257,-3.7,-0.2,12.4,-4.4,30.2,-9.3,0.0154423658,0.594714194,-0.142124699,0.791070284
867,2171195,73760,0.949,-0.271,0.257,-3.7,-0.2,12.4,-4.4,30.2,-9.3,0.0154423658,0.594714194,-0.142124699,0.791070284
868,2175641,73760,0.953,-0.275,0.26,-0.6,-2.4,9.9,-4.4,30.2,-9.3,0.0149235511,0.594714194,-0.142643513,0.791009247
869,2175979,73760,0.953,-0.268,0.257,0.3,-3.1,9.3,-4.4,30.9,-9.3,0.0147709586,0.594714194,-0.142765587,0.790978729
870,2180050,73760,0.953,-0.268,0.257,0.3,-3.1,9.3,-4.4,30.9,-9.3,0.0147709586,0.594714194,-0.142765587,0.790978729
871,2182099,73770,0.957,-0.264,0.26,1.8,-4.5,7.8,-4.4,30.9,-9.3,0.0144047365,0.594836268,-0.14291818,0.790887173
872,2184520,73770,0.961,-0.264,0.26,2.2,-5.1,7.1,-4.4,30.9,-9.3,0.0142521439,0.594897305,-0.142979217,0.790826136
873,2188311,73770,0.961,-0.264,0.26,2.2,-5.1,7.1,-4.4,30.9,-9.3,0.0142521439,0.594897305,-0.142979217,0.790826136
874,2188734,73770,0.961,-0.26,0.256,2.4,-6.1,5.8,-4.1,31.1,-9.1,0.0139164403,0.595080416,-0.143040254,0.790673544
875,2191016,73780,0.961,-0.26,0.256,2.4,-6.1,5.8,-4.1,31.1,-9.1,0.0139164403,0.595080416,-0.143040254,0.790673544
876,2195278,73780,0.961,-0.26,0.256,2.4,-6.1,5.8,-4.1,31.1,-9.1,0.0139164403,0.595080416,-0.143040254,0.790673544
877,2197430,73780,0.957,-0.244,0.26,2.3,-7.4,4.2,-4.2,31.4,-9.4,0.0135196997,0.595385601,-0.143131809,0.790429395
878,2199810,73780,0.957,-0.244,0.26,2.3,-7.4,4.2,-4.2,31.4,-9.4,0.0135196997,0.595385601,-0.143131809,0.790429395
879,2201966,73790,0.957,-0.244,0.26,2.3,-7.4,4.2,-4.2,31.4,-9.4,0.0135196997,0.595385601,-0.143131809,0.790429395
880,2203637,73790,0.957,-0.244,0.26,2.3,-7.4,4.2,-4.2,31.4,-9.4,0.0135196997,0.595385601,-0.143131809,0.790429395
881,2205965,73790,0.957,-0.244,0.26,2.3,-7.4,4.2,-4.2,31.4,-9.4,0.0135196997,0.595385601,-0.143131809,0.790429395
882,2208585,73790,0.957,-0.244,0.26,2.3,-7.4,4.2,-4.2,31.4,-9.4,0.0135196997,0.595385601,-0.143131809,0.790429395
883,2213076,73800,0.961,-0.299,0.233,12.8,-10.6,-1.5,-4.3,30.7,-8.6,0.0122989593,0.596148564,-0.143131809,0.789910581
884,2213452,73800,0.973,-0.276,0.241,18.8,-12.1,-2.5,-4.3,30.7,-8.6,0.0120853298,0.596362194,-0.142765587,0.789788507
885,2218166,73800,0.973,-0.276,0.241,18.8,-12.1,-2.5,-4.3,30.7,-8.6,0.0120853298,0.596362194,-0.142765587,0.789788507
886,2218498,73800,0.973,-0.225,0.252,29.8,-12.6,0.6,-4.4,30.5,-8.4,0.0112918485,0.596819971,-0.141819514,0.789635914
887,2222646,73810,0.973,-0.225,0.252,29.8,-12.6,0.6,-4.4,30.5,-8.4,0.0112918485,0.596819971,-0.141819514,0.789635914
888,2224535,73810,0.965,-0.162,0.264,31.9,-9.7,6.5,-4.4,30.5,-8.4,0.0102237007,0.597155675,-0.140842921,0.789544359
889,2226994,73810,0.95,-0.146,0.252,29,-7.7,8.5,-4,30.6,-8.5,0.0096743675,0.597277749,-0.140476699,0.789544359
890,2230096,73810,0.95,-0.146,0.252,29,-7.7,8.5,-4,30.6,-8.5,0.0096743675,0.597277749,-0.140476699,0.789544359
891,2232211,73820,0.95,-0.146,0.252,29,-7.7,8.5,-4,30.6,-8.5,0.0096743675,0.597277749,-0.140476699,0.789544359
892,2234537,73820,0.95,-0.146,0.252,29,-7.7,8.5,-4,30.6,-8.5,0.0096743675,0.597277749,-0.140476699,0.789544359
893,2236602,73820,0.942,-0.217,0.245,6.7,-4.7,2.7,-4.2,30.8,-8.5,0.00842310862,0.597552416,-0.139774773,0.789452803
894,2239935,73820,0.938,-0.216,0.253,5.8,-5.5,1.1,-4.2,30.8,-8.5,0.00833155309,0.597643971,-0.139713736,0.789422285
895,2242963,73830,0.938,-0.216,0.253,5.8,-5.5,1.1,-4.2,30.8,-8.5,0.00833155309,0.597643971,-0.139713736,0.789422285
896,2245875,73830,0.93,-0.228,0.257,8.4,-6.8,-0.2,-4.2,30.8,-8.5,0.00808740501,0.597888119,-0.13943907,0.789300211
897,2246302,73830,0.922,-0.24,0.253,9.2,-6.9,-0.4,-4.2,30.5,-8.7,0.00793481246,0.598010193,-0.139286477,0.789239174
898,2248518,73830,0.922,-0.244,0.253,9.3,-6.4,-0.4,-4.2,30.5,-8.7,0.00781273843,0.598132267,-0.139103366,0.789178137
899,2253478,73840,0.926,-0.244,0.253,9,-5.5,-0.6,-4.2,30.5,-8.7,0.00769066439,0.598223823,-0.138950774,0.7891171
900,2253478,73840,0.93,-0.244,0.245,8.7,-4.6,-0.7,-4.2,30.5,-8.7,0.00756859035,0.598315378,-0.138798181,0.789086581
901,2256000,73840,0.93,-0.244,0.245,8.7,-4.6,-0.7,-4.2,30.5,-8.7,0.00756859035,0.598315378,-0.138798181,0.789086581
902,2260287,73840,0.93,-0.244,0.245,8.7,-4.6,-0.7,-4.2,30.5,-8.7,0.00756859035,0.598315378,-0.138798181,0.789086581
903,2262504,73850,0.922,-0.24,0.234,8.2,-2.7,0,-4.2,30,-8.7,0.00701925718,0.598345897,-0.138584552,0.7891171
904,2264760,73850,0.922,-0.24,0.234,8.2,-2.7,0,-4.2,30,-8.7,0.00701925718,0.598345897,-0.138584552,0.7891171
905,2267180,73850,0.918,-0.236,0.222,8,-2.6,0.9,-4.4,30.6,-9,0.0067751091,0.598406934,-0.138309885,0.789086581
906,2270102,73850,0.918,-0.24,0.222,8.2,-2.8,0.8,-4.4,30.6,-9,0.00665303507,0.598467971,-0.138187811,0.789086581
907,2272253,73860,0.918,-0.24,0.222,8.2,-2.8,0.8,-4.4,30.6,-9,0.00665303507,0.598467971,-0.138187811,0.789086581
908,2273928,73860,0.926,-0.236,0.226,9.5,-3.5,0.4,-4.4,30.6,-9,0.00634784997,0.598590045,-0.137882626,0.789056063
909,2277922,73860,0.926,-0.236,0.226,9.5,-3.5,0.4,-4.4,30.6,-9,0.00634784997,0.598590045,-0.137882626,0.789056063
910,2280423,73860,0.926,-0.24,0.226,11.2,-4.1,0,-4.6,31,-9,0.00604266488,0.598712119,-0.137516404,0.788995025
911,2282497,73870,0.926,-0.24,0.226,11.2,-4.1,0,-4.6,31,-9,0.00604266488,0.598712119,-0.137516404,0.788995025
912,2284716,73870,0.93,-0.236,0.229,12.3,-4.4,-0.2,-4.6,31,-9,0.00570696127,0.598864711,-0.137089145,0.788964507
913,2286908,73870,0.926,-0.236,0.226,12.8,-4.4,-0.2,-5,31,-9.1,0.00552385022,0.598956267,-0.136875515,0.788933988
914,2288911,73870,0.926,-0.236,0.226,12.8,-4.4,-0.2,-5,31,-9.1,0.00552385022,0.598956267,-0.136875515,0.788933988
915,2292175,73880,0.926,-0.236,0.226,12.8,-4.4,-0.2,-5,31,-9.1,0.00552385022,0.598956267,-0.136875515,0.788933988
916,2294507,73880,0.938,-0.228,0.225,12.6,-3.7,0.1,-5,31,-9.1,0.00500503555,0.599169897,-0.136204108,0.78890347
917,2296369,73880,0.938,-0.228,0.225,12.6,-3.7,0.1,-5,31,-9.1,0.00500503555,0.599169897,-0.136204108,0.78890347
918,2299296,73880,0.938,-0.228,0.225,12.2,-3,0.4,-5.7,31,-9,0.00463881344,0.599291971,-0.135807367,0.78890347
919,2300940,73890,0.942,-0.228,0.225,12.1,-2.5,0.6,-5.7,31,-9,0.00445570238,0.599322489,-0.135593738,0.78890347
920,2305384,73890,0.942,-0.228,0.225,12.1,-2.5,0.6,-5.7,31,-9,0.00445570238,0.599322489,-0.135593738,0.78890347
921,2305845,73890,0.942,-0.228,0.225,12.1,-2.5,0.6,-5.7,31,-9,0.00445570238,0.599322489,-0.135593738,0.78890347
922,2310017,73890,0.942,-0.228,0.225,12.1,-2.5,0.6,-5.7,31,-9,0.00445570238,0.599322489,-0.135593738,0.78890347
923,2312207,73900,0.949,-0.221,0.229,11.7,-1.4,1.2,-5.7,31,-9,0.0035401471,0.599536119,-0.13513596,0.788842433
924,2313851,73900,0.957,-0.217,0.229,11.7,-1.3,1.2,-5.7,31,-9,0.00335703604,0.599536119,-0.134952849,0.788842433
925,2317978,73900,0.957,-0.217,0.229,11.7,-1.3,1.2,-5.7,31,-9,0.00335703604,0.599536119,-0.134952849,0.788842433
926,2318386,73900,0.957,-0.201,0.233,11.8,-1.4,1.3,-5.1,30.9,-9.1,0.00299081393,0.599597156,-0.134586627,0.788872951
927,2320966,73910,0.957,-0.201,0.233,11.8,-1.4,1.3,-5.1,30.9,-9.1,0.00299081393,0.599597156,-0.134586627,0.788872951
928,2325349,73910,0.961,-0.205,0.241,11.9,-1.9,1.5,-5.1,30.9,-9.1,0.00262459181,0.599627674,-0.134189886,0.78890347
929,2327742,73910,0.965,-0.205,0.237,12,-2.1,1.8,-5,30.6,-9.3,0.00244148076,0.599688711,-0.134006775,0.78890347
930,2329878,73910,0.965,-0.205,0.237,12,-2.1,1.8,-5,30.6,-9.3,0.00244148076,0.599688711,-0.134006775,0.78890347
931,2332180,73920,0.965,-0.205,0.237,12,-2.1,1.8,-5,30.6,-9.3,0.00244148076,0.599688711,-0.134006775,0.78890347
932,2333853,73920,0.965,-0.205,0.237,12,-2.1,1.8,-5,30.6,-9.3,0.00244148076,0.599688711,-0.134006775,0.78890347
933,2336293,73920,0.965,-0.205,0.237,12,-2.1,1.8,-5,30.6,-9.3,0.00244148076,0.599688711,-0.134006775,0.78890347
934,2338492,73920,0.965,-0.182,0.244,12.5,-2.3,3.2,-4.8,31,-9.4,0.00134281442,0.599841304,-0.133121738,0.788933988
935,2342952,73930,0.969,-0.178,0.244,12.6,-2.4,3.2,-4.8,31,-9.4,0.00112918485,0.599871822,-0.132938627,0.788964507
936,2345232,73930,0.965,-0.178,0.248,12.7,-2.5,3.3,-4.8,31,-9.4,0.000885036775,0.599902341,-0.132786035,0.788964507
937,2347646,73930,0.965,-0.182,0.244,12.9,-2.5,3.3,-4.3,30.9,-9.6,0.000671407208,0.599932859,-0.132602924,0.788964507
938,2349804,73930,0.965,-0.182,0.244,12.9,-2.5,3.3,-4.3,30.9,-9.6,0.000671407208,0.599932859,-0.132602924,0.788964507
939,2352033,73940,0.965,-0.178,0.248,13,-2.2,3.7,-4.3,30.9,-9.6,0.000183111057,0.599993896,-0.132236702,0.788964507
940,2353901,73940,0.965,-0.178,0.248,13,-2.2,3.7,-4.3,30.9,-9.6,0.000183111057,0.599993896,-0.132236702,0.788964507
941,2355953,73940,0.965,-0.178,0.248,13,-2.2,3.7,-4.3,30.9,-9.6,0.000183111057,0.599993896,-0.132236702,0.788964507
942,2358484,73940,0.965,-0.178,0.248,13,-2.2,3.7,-4.3,30.9,-9.6,0.000183111057,0.599993896,-0.132236702,0.788964507
943,2360850,73950,0.965,-0.178,0.248,13,-2.2,3.7,-4.3,30.9,-9.6,0.000183111057,0.599993896,-0.132236702,0.788964507
944,2365382,73950,0.965,-0.178,0.248,13,-2.2,3.7,-4.3,30.9,-9.6,0.000183111057,0.599993896,-0.132236702,0.788964507
945,2365947,73950,0.965,-0.178,0.248,13,-2.2,3.7,-4.3,30.9,-9.6,0.000183111057,0.599993896,-0.132236702,0.788964507
946,2370409,73950,0.965,-0.178,0.248,13,-2.2,3.7,-4.3,30.9,-9.6,0.000183111057,0.599993896,-0.132236702,0.788964507
947,2372702,73960,0.887,-0.227,0.222,13.2,-1,5.2,-3.8,30,-9.6,0.00164799951,-0.60011597,0.130680258,-0.7891171
948,2375071,73960,0.899,-0.224,0.214,13.7,-1.3,4.6,-3.8,30,-9.6,0.0019226661,-0.600146489,0.130497147,-0.789147618
949,2377243,73960,0.918,-0.224,0.218,15.2,-2.2,3,-4.3,30.1,-9.7,0.00216681417,-0.600177007,0.130283517,-0.789147618
950,2379343,73960,0.918,-0.224,0.218,15.2,-2.2,3,-4.3,30.1,-9.7,0.00216681417,-0.600177007,0.130283517,-0.789147618
951,2381376,73970,0.926,-0.232,0.222,21.8,-5.6,-2.2,-4.3,30.1,-9.7,0.00268562883,-0.6003296,0.129581591,-0.789147618
952,2385230,73970,0.926,-0.232,0.222,21.8,-5.6,-2.2,-4.3,30.1,-9.7,0.00268562883,-0.6003296,0.129581591,-0.789147618
953,2387207,73970,0.926,-0.252,0.218,29.9,-8.2,-4,-3.5,30.3,-9.5,0.00332651753,-0.600604266,0.128513443,-0.7891171
954,2389858,73970,0.945,-0.236,0.217,33.5,-9,-2.9,-3.5,30.3,-9.5,0.00375377667,-0.600787378,0.127903073,-0.789086581
955,2392200,73980,0.961,-0.201,0.237,36.7,-9.9,-1.1,-3.5,30.3,-9.5,0.00424207282,-0.60093997,0.127231666,-0.789056063
956,2394454,73980,0.977,-0.209,0.232,39.1,-10.5,1.1,-3.5,30.3,-9.5,0.00479140599,-0.601123081,0.126590777,-0.789025544
957,2396416,73980,0.965,-0.209,0.237,40.1,-10.6,3.8,-3.6,30.1,-9.9,0.00540177618,-0.601275674,0.125949889,-0.788995025
958,2398573,73980,0.965,-0.209,0.237,40.1,-10.6,3.8,-3.6,30.1,-9.9,0.00540177618,-0.601275674,0.125949889,-0.788995025
959,2403490,73990,0.965,-0.209,0.237,40.1,-10.6,3.8,-3.6,30.1,-9.9,0.00540177618,-0.601275674,0.125949889,-0.788995025
960,2403490,73990,0.985,-0.116,0.26,35.3,-8.3,12.4,-3.6,30.1,-9.9,0.00747703482,-0.601672414,0.124362926,-0.788933988
961,2406117,73990,0.985,-0.116,0.26,35.3,-8.3,12.4,-3.6,30.1,-9.9,0.00747703482,-0.601672414,0.124362926,-0.788933988
962,2410215,73990,0.993,-0.12,0.248,24.9,-5.8,12.4,-3.6,30.1,-9.9,0.00839259011,-0.601825007,0.123569445,-0.788933988
963,2412329,74000,0.981,-0.151,0.24,18.1,-4.1,10.8,-3.6,30.1,-9.9,0.00881984924,-0.601855525,0.123386334,-0.788933988
964,2414864,74000,0.981,-0.151,0.24,18.1,-4.1,10.8,-3.6,30.1,-9.9,0.00881984924,-0.601855525,0.123386334,-0.788933988
965,2416849,74000,0.981,-0.151,0.24,18.1,-4.1,10.8,-3.6,30.1,-9.9,0.00881984924,-0.601855525,0.123386334,-0.788933988
966,2418933,74000,0.946,-0.185,0.241,5,-0.4,6.4,-3.9,30.2,-10.2,0.00952177496,-0.601886044,0.12326426,-0.788933988
967,2421093,74010,0.946,-0.185,0.241,5,-0.4,6.4,-3.9,30.2,-10.2,0.00952177496,-0.601886044,0.12326426,-0.788933988
968,2424523,74010,0.942,-0.193,0.249,6.5,-0.9,5.5,-3.9,30.2,-10.2,0.00988799707,-0.601855525,0.123233741,-0.788933988
969,2426328,74010,0.942,-0.205,0.241,7.7,-1.3,5.2,-3.9,30.5,-10,0.0101016266,-0.601855525,0.123142186,-0.788933988
970,2428660,74010,0.938,-0.205,0.241,8.6,-1.3,4.8,-3.9,30.5,-10,0.0102847377,-0.601886044,0.123081149,-0.788964507
971,2432654,74020,0.95,-0.201,0.249,9,-1.1,4.4,-3.9,30.5,-10,0.0104983673,-0.601886044,0.122989593,-0.788964507
972,2434858,74020,0.946,-0.205,0.245,9.1,-0.7,4.1,-3.9,30.5,-10,0.0106814783,-0.601886044,0.122867519,-0.788964507
973,2436761,74020,0.946,-0.205,0.245,9.1,-0.7,4.1,-3.9,30.5,-10,0.0106814783,-0.601886044,0.122867519,-0.788964507
974,2439327,74020,0.95,-0.217,0.241,9,-0.1,3.7,-3.6,30.3,-9.9,0.0110477004,-0.601855525,0.12265389,-0.789025544
975,2441890,74030,0.953,-0.221,0.241,9.1,-0.1,3.5,-3.6,30.3,-9.9,0.0112308115,-0.601855525,0.122562334,-0.789025544
976,2443651,74030,0.953,-0.221,0.245,9.3,-0.3,3.4,-3.6,30.3,-9.9,0.0114139225,-0.601855525,0.12244026,-0.789056063
977,2447021,74030,0.953,-0.221,0.245,9.3,-0.3,3.4,-3.6,30.3,-9.9,0.0114139225,-0.601855525,0.12244026,-0.789056063
978,2450901,74030,0.953,-0.217,0.241,9.7,-1,3.5,-3.2,30.6,-10.1,0.0118106632,-0.601855525,0.122165593,-0.789086581
979,2450901,74040,0.957,-0.217,0.245,9.9,-1.4,3.5,-3.2,30.6,-10.1,0.0119937742,-0.601855525,0.122074038,-0.789086581
980,2454544,74040,0.957,-0.217,0.245,9.9,-1.4,3.5,-3.2,30.6,-10.1,0.0119937742,-0.601855525,0.122074038,-0.789086581
981,2456303,74040,0.965,-0.213,0.248,10,-1.9,3,-3.2,30.6,-10.1,0.0124515519,-0.601916562,0.121890927,-0.789086581
982,2460458,74040,0.965,-0.213,0.248,10,-1.9,3,-3.2,30.6,-10.1,0.0124515519,-0.601916562,0.121890927,-0.789086581
983,2462646,74050,0.969,-0.209,0.252,10.3,-1.9,2.6,-3.2,30.6,-10.1,0.012817774,-0.601947081,0.12161626,-0.789086581
984,2465152,74050,0.973,-0.209,0.256,10.3,-2,2.4,-3.2,30.6,-10.1,0.013000885,-0.601977599,0.121463668,-0.789086581
985,2467371,74050,0.969,-0.201,0.256,10.4,-2.1,2.2,-3,30.2,-10.1,0.0131839961,-0.602008118,0.121311075,-0.789086581
986,2469714,74050,0.973,-0.205,0.256,10.3,-2.2,2,-3,30.2,-10.1,0.0133671072,-0.602038636,0.121158483,-0.789086581
987,2471443,74060,0.973,-0.205,0.256,10.3,-2.2,2,-3,30.2,-10.1,0.0133671072,-0.602038636,0.121158483,-0.789086581
988,2474746,74060,0.973,-0.205,0.256,10.3,-2.2,2,-3,30.2,-10.1,0.0133671072,-0.602038636,0.121158483,-0.789086581
989,2477041,74060,0.977,-0.201,0.256,10,-2.5,1.5,-3.1,29.9,-10.6,0.0138554033,-0.602130192,0.120700705,-0.789056063
990,2480842,74060,0.977,-0.201,0.256,10,-2.5,1.5,-3.1,29.9,-10.6,0.0138554033,-0.602130192,0.120700705,-0.789056063
991,2481257,74070,0.973,-0.198,0.256,10.5,-2.6,1.6,-3.1,29.9,-10.6,0.0141911069,-0.602221747,0.120365001,-0.789056063
992,2483710,74070,0.973,-0.198,0.256,10.5,-2.6,1.6,-3.1,29.9,-10.6,0.0141911069,-0.602221747,0.120365001,-0.789056063
993,2486421,74070,0.973,-0.198,0.256,10.5,-2.6,1.6,-3.1,29.9,-10.6,0.0141911069,-0.602221747,0.120365001,-0.789056063
994,2491234,74070,0.973,-0.198,0.248,11.6,-2.6,1.6,-3.1,30,-10.1,0.0147404401,-0.602343822,0.119846187,-0.789025544
995,2491234,74080,0.973,-0.19,0.256,12,-2.7,1.6,-3.1,30,-10.1,0.0149540696,-0.60237434,0.119663076,-0.789025544
996,2493904,74080,0.973,-0.19,0.256,12,-2.7,1.6,-3.1,30,-10.1,0.0149540696,-0.60237434,0.119663076,-0.789025544
997,2496090,74080,0.973,-0.19,0.256,12,-2.7,1.6,-3.1,30,-10.1,0.0149540696,-0.60237434,0.119663076,-0.789025544
998,2500058,74080,0.965,-0.193,0.252,12.8,-2.9,1.4,-3.2,29.9,-10.4,0.0155339213,-0.602496414,0.119083224,-0.788995025
999,2502430,74090,0.965,-0.186,0.252,12.8,-2.7,1.5,-3.2,29.9,-10.4,0.0157475509,-0.602526933,0.118869594,-0.788995025
1000,2504526,74090,0.965,-0.186,0.252,12.8,-2.7,1.5,-3.2,29.9,-10.4,0.0157475509,-0.602526933,0.118869594,-0.788995025
1001,2506438,74090,0.965,-0.186,0.252,12.8,-2.7,1.5,-3.2,29.9,-10.4,0.0157475509,-0.602526933,0.118869594,-0.788995025
1002,2508736,74090,0.961,-0.186,0.252,13,-2.3,1.7,-3.2,29.9,-10.4,0.0162053285,-0.602618488,0.118076113,-0.789056063
1003,2512926,74100,0.957,-0.186,0.245,13,-2.2,1.8,-3.2,29.9,-10.4,0.0164189581,-0.602649007,0.117893002,-0.789056063
1004,2515128,74100,0.957,-0.186,0.248,13,-2,1.9,-3.2,29.9,-10.4,0.0166020692,-0.602679525,0.117679373,-0.789056063
1005,2517304,74100,0.957,-0.186,0.248,13,-2,1.9,-3.2,29.9,-10.4,0.0166020692,-0.602679525,0.117679373,-0.789056063
1006,2519545,74100,0.954,-0.178,0.241,12.8,-1.6,2.2,-4,29.7,-10.5,0.0170598468,-0.602710044,0.117282632,-0.789086581
1007,2521162,74110,0.957,-0.182,0.241,12.7,-1.3,2.4,-4,29.7,-10.5,0.0172734764,-0.602710044,0.117099521,-0.789086581
1008,2523574,74110,0.95,-0.178,0.249,12.5,-1,2.5,-4,29.7,-10.5,0.0174565874,-0.602740562,0.11691641,-0.7891171
1009,2527615,74110,0.957,-0.182,0.241,12.5,-0.7,2.5,-3.7,30.1,-10.7,0.0177007355,-0.602740562,0.116733299,-0.789147618
1010,2529789,74110,0.954,-0.174,0.245,12.5,-0.4,2.5,-3.7,30.1,-10.7,0.0179143651,-0.602710044,0.116550188,-0.789147618
1011,2531476,74120,0.954,-0.174,0.245,12.5,-0.4,2.5,-3.7,30.1,-10.7,0.0179143651,-0.602710044,0.116550188,-0.789147618
1012,2533827,74120,0.954,-0.174,0.245,12.5,-0.4,2.5,-3.7,30.1,-10.7,0.0179143651,-0.602710044,0.116550188,-0.789147618
1013,2536116,74120,0.954,-0.174,0.245,12.5,-0.4,2.5,-3.7,30.1,-10.7,0.0179143651,-0.602710044,0.116550188,-0.789147618
1014,2540263,74120,0.95,-0.174,0.245,11.9,0.7,2.1,-3.4,30,-10.4,0.0186773278,-0.602649007,0.115817743,-0.789300211
