sample_index,elapsed_us,device_time_ms,acc_x_g,acc_y_g,acc_z_g,gyro_x_dps,gyro_y_dps,gyro_z_dps,mag_x_ut,mag_y_ut,mag_z_ut,quat_w,quat_x,quat_y,quat_z
0,4610,1852430,-0.545,-0.588,0.606,0.5,2.3,-1.8,8.5,-8.7,-22,0.441267129,0.0962553789,0.437025056,-0.777794733
1,7634,1852430,-0.541,-0.584,0.61,0.3,2.4,-1.8,8.5,-8.7,-22,0.441206091,0.0962858974,0.437025056,-0.777825251
2,9176,1852440,-0.537,-0.584,0.614,0,2.4,-1.7,8.5,-8.7,-22,0.441175573,0.0962858974,0.437055574,-0.777825251
3,12943,1852440,-0.537,-0.584,0.61,0,2.5,-1.7,8.5,-8.7,-22,0.441114536,0.0963469344,0.437086093,-0.77785577
4,14400,1852440,-0.533,-0.585,0.61,-0.2,2.6,-1.6,8.5,-8.7,-22,0.441053499,0.0963469344,0.437116611,-0.77785577
5,17282,1852440,-0.537,-0.588,0.602,-0.3,2.7,-1.7,8.5,-8.7,-22,0.440992462,0.0963774529,0.43714713,-0.77785577
6,19104,1852450,-0.537,-0.592,0.606,-0.5,2.7,-1.7,8.5,-8.7,-22,0.440961943,0.0964079714,0.437208167,-0.77785577
7,21694,1852450,-0.537,-0.592,0.606,-0.5,2.7,-1.7,8.5,-8.7,-22,0.440961943,0.0964079714,0.437208167,-0.77785577
8,24917,1852450,-0.533,-0.6,0.606,-0.4,2.9,-2,9.5,-9.5,-22,0.440870388,0.096499527,0.437177648,-0.777916807
9,27825,1852450,-0.533,-0.596,0.613,-0.2,3.1,-2,9.5,-9.5,-22,0.440809351,0.0965300455,0.437238685,-0.777916807
10,29129,1852460,-0.533,-0.604,0.606,0,3.2,-2.1,9.5,-9.5,-22,0.440748314,0.096560564,0.437269204,-0.777916807
11,32374,1852460,-0.529,-0.596,0.613,0,3.2,-2.3,9.5,-9.5,-22,0.440656758,0.0965910825,0.437299722,-0.777947325
12,35200,1852460,-0.537,-0.596,0.606,0,3.2,-2.3,9.5,-9.5,-22,0.440595721,0.096621601,0.437330241,-0.777947325
13,36876,1852460,-0.529,-0.596,0.606,0.1,3.2,-2.4,9.5,-9.5,-22,0.440534684,0.0966521195,0.437360759,-0.777977844
14,39249,1852470,-0.533,-0.596,0.606,0.2,3.1,-2.5,9.5,-9.5,-22,0.440443129,0.096682638,0.437391278,-0.778008362
15,42081,1852470,-0.529,-0.596,0.606,0.4,3.2,-2.6,9.5,-9.5,-22,0.440382092,0.0967131565,0.437421796,-0.778008362
16,45000,1852470,-0.533,-0.596,0.606,0.6,3.2,-2.8,9.5,-9.5,-22,0.440290536,0.096743675,0.437452315,-0.778038881
17,46613,1852470,-0.537,-0.592,0.606,0.9,3.1,-2.9,9.5,-9.5,-22,0.440198981,0.0967741935,0.437482833,-0.778069399
18,49693,1852480,-0.537,-0.588,0.602,1.1,2.9,-2.9,9.5,-9.5,-22,0.440137944,0.0968352306,0.437482833,-0.778099918
19,52731,1852480,-0.537,-0.584,0.602,1.1,2.8,-3,9.5,-9.5,-22,0.440046388,0.0968657491,0.437513352,-0.778160955
20,54127,1852480,-0.541,-0.58,0.602,1.1,2.8,-3,9.5,-9.5,-22,0.439924314,0.0968962676,0.437513352,-0.778191473
21,57741,1852480,-0.541,-0.58,0.602,1.1,2.9,-3,9.5,-9.5,-22,0.439893796,0.0969267861,0.43754387,-0.778221992
22,59196,1852490,-0.537,-0.584,0.602,1,2.8,-3.1,9.5,-9.5,-22,0.43980224,0.0969573046,0.43754387,-0.77825251
23,62212,1852490,-0.537,-0.584,0.606,1,2.7,-3.2,9.5,-9.5,-22,0.439710685,0.0969573046,0.437574389,-0.778283029
24,65306,1852490,-0.541,-0.588,0.598,0.8,2.7,-3.3,9.5,-9.5,-22,0.439619129,0.0969878231,0.437574389,-0.778313547
25,66878,1852490,-0.541,-0.588,0.606,0.7,2.8,-3.4,9.5,-9.5,-22,0.439558092,0.0970183416,0.437604907,-0.778313547
26,69430,1852500,-0.537,-0.596,0.602,0.5,2.9,-3.5,9.5,-9.5,-22,0.439466536,0.0970488601,0.437635426,-0.778374584
27,71578,1852500,-0.537,-0.596,0.602,0.5,2.9,-3.5,9.5,-9.5,-22,0.439466536,0.0970488601,0.437635426,-0.778374584
28,74197,1852500,-0.533,-0.596,0.602,0.5,2.8,-3.7,8.7,-7.3,-21.9,0.439313944,0.0971404157,0.437604907,-0.77846614
29,77471,1852500,-0.537,-0.588,0.602,0.6,2.9,-3.7,8.7,-7.3,-21.9,0.439222388,0.0971404157,0.437635426,-0.778496658
30,79484,1852510,-0.533,-0.588,0.602,0.8,2.9,-3.7,8.7,-7.3,-21.9,0.439130833,0.0971709342,0.437665944,-0.778527177
31,82572,1852510,-0.537,-0.596,0.606,0.9,2.7,-3.7,9.1,-7.3,-22.1,0.439039277,0.0972014527,0.437665944,-0.778588214
32,84091,1852510,-0.537,-0.588,0.606,1.1,2.6,-3.7,9.1,-7.3,-22.1,0.438947722,0.0972014527,0.437696463,-0.778618732
33,86923,1852510,-0.537,-0.596,0.606,1.2,2.4,-3.6,9.1,-7.3,-22.1,0.438856166,0.0972319712,0.437696463,-0.778649251
34,90150,1852520,-0.533,-0.596,0.606,1.3,2.4,-3.6,9.1,-7.3,-22.1,0.438764611,0.0972624897,0.437696463,-0.778710288
35,91611,1852520,-0.537,-0.592,0.614,1.4,2.4,-3.4,8.9,-7.7,-22.3,0.438703574,0.0972624897,0.437696463,-0.778740806
36,94689,1852520,-0.537,-0.6,0.61,1.6,2.3,-3.4,8.9,-7.7,-22.3,0.438612018,0.0972624897,0.437726981,-0.778801843
37,96824,1852520,-0.537,-0.604,0.606,1.6,2.2,-3.4,8.9,-7.7,-22.3,0.438520463,0.0973235267,0.437726981,-0.778832362
38,99976,1852530,-0.537,-0.604,0.61,1.6,2.1,-3.4,8.9,-7.7,-22.3,0.438428907,0.0973540452,0.437726981,-0.77886288
39,102288,1852530,-0.533,-0.604,0.61,1.6,2,-3.4,8.8,-8,-22.3,0.43836787,0.0973540452,0.437726981,-0.778923917
40,104422,1852530,-0.533,-0.608,0.614,1.6,1.9,-3.6,8.8,-8,-22.3,0.438276315,0.0973845637,0.437726981,-0.778954436
41,107590,1852530,-0.538,-0.612,0.614,1.7,1.8,-3.6,8.8,-8,-22.3,0.438184759,0.0973845637,0.437696463,-0.779015473
42,109702,1852540,-0.534,-0.612,0.614,1.8,1.9,-3.5,8.8,-8,-22.3,0.438093204,0.0974150822,0.437696463,-0.77907651
43,112203,1852540,-0.534,-0.612,0.617,1.9,1.9,-3.5,8.8,-8,-22.3,0.438032167,0.0974150822,0.437696463,-0.779107028
44,114236,1852540,-0.533,-0.604,0.613,1.9,1.9,-3.4,8.8,-8,-22.3,0.437940611,0.0974456008,0.437696463,-0.779168065
45,116688,1852540,-0.538,-0.612,0.614,1.9,1.8,-3.4,8.8,-8,-22.3,0.437849055,0.0974456008,0.437665944,-0.779198584
46,120302,1852550,-0.533,-0.608,0.617,1.8,1.7,-3.4,8.8,-8,-22.3,0.437788018,0.0974761193,0.437665944,-0.779259621
47,122581,1852550,-0.533,-0.608,0.617,1.8,1.7,-3.4,8.8,-8,-22.3,0.437788018,0.0974761193,0.437665944,-0.779259621
48,124175,1852550,-0.533,-0.604,0.61,1.7,1.5,-3.5,9.4,-9.8,-21.9,0.437604907,0.0974150822,0.437604907,-0.779381695
49,126677,1852550,-0.529,-0.604,0.613,1.6,1.5,-3.5,9.4,-9.8,-21.9,0.43754387,0.0974150822,0.437604907,-0.779442732
50,130862,1852560,-0.533,-0.6,0.613,1.7,1.4,-3.5,9.4,-9.8,-21.9,0.437452315,0.0974456008,0.437574389,-0.779473251
51,133098,1852560,-0.529,-0.6,0.613,1.9,1.3,-3.4,8.9,-10.4,-22,0.437391278,0.0974456008,0.437574389,-0.779534288
52,135624,1852560,-0.529,-0.6,0.613,2,1.1,-3.5,8.9,-10.4,-22,0.437299722,0.0974456008,0.437574389,-0.779595325
53,137339,1852560,-0.533,-0.604,0.613,2.3,1,-3.4,8.9,-10.4,-22,0.437238685,0.0974456008,0.43754387,-0.779625843
54,139183,1852570,-0.529,-0.596,0.625,2.4,1,-3.4,8.9,-10.4,-22,0.43714713,0.0974761193,0.437513352,-0.77968688
55,142300,1852570,-0.533,-0.592,0.617,2.4,1.1,-3.3,8.6,-11.1,-21.7,0.437086093,0.0974761193,0.437482833,-0.779747917
56,144442,1852570,-0.529,-0.592,0.617,2.3,1.2,-3.3,8.6,-11.1,-21.7,0.436994537,0.0974761193,0.437482833,-0.779808954
57,148326,1852570,-0.529,-0.592,0.613,1.9,1.2,-3.3,8.6,-11.1,-21.7,0.4369335,0.0975066378,0.437452315,-0.779839473
58,150002,1852580,-0.533,-0.592,0.61,1.6,1.2,-3.4,8.6,-11.1,-21.7,0.436872463,0.0975066378,0.437452315,-0.77990051
59,151672,1852580,-0.529,-0.585,0.613,1.3,1.2,-3.5,8.6,-11.4,-21.6,0.436780908,0.0975066378,0.437452315,-0.779931028
60,155252,1852580,-0.533,-0.585,0.61,1.1,1.2,-3.5,8.6,-11.4,-21.6,0.436719871,0.0975066378,0.437452315,-0.779992065
61,157703,1852580,-0.533,-0.588,0.61,0.9,1,-3.6,8.6,-11.4,-21.6,0.436628315,0.0974761193,0.437452315,-0.780022584
62,159729,1852590,-0.533,-0.592,0.602,0.9,1,-3.6,8.6,-11.4,-21.6,0.436567278,0.0974761193,0.437452315,-0.780053102
63,162008,1852590,-0.537,-0.584,0.606,0.8,1,-3.6,8.6,-11.4,-21.6,0.436506241,0.0974761193,0.437452315,-0.780114139
64,164217,1852590,-0.533,-0.577,0.606,0.9,1,-3.6,8.6,-11.4,-21.6,0.436414686,0.0974761193,0.437452315,-0.780144658
65,166761,1852590,-0.537,-0.58,0.606,0.9,1.2,-3.5,8.6,-11.4,-21.6,0.436353648,0.0974456008,0.437452315,-0.780175176
66,169390,1852600,-0.537,-0.584,0.606,0.8,1.2,-3.5,8.6,-11.4,-21.6,0.436262093,0.0974456008,0.437452315,-0.780236213
67,172793,1852600,-0.537,-0.584,0.606,0.8,1.2,-3.5,8.6,-11.4,-21.6,0.436262093,0.0974456008,0.437452315,-0.780236213
68,174952,1852600,-0.537,-0.577,0.61,0.7,1.3,-3.5,9,-9.1,-23.3,0.436170537,0.0975066378,0.437360759,-0.780327769
69,176835,1852600,-0.537,-0.584,0.61,0.6,1.2,-3.4,9,-9.1,-23.3,0.4361095,0.0975066378,0.437360759,-0.780358287
70,179752,1852610,-0.541,-0.58,0.606,0.7,1.2,-3.4,9,-9.1,-23.3,0.436017945,0.0975066378,0.437360759,-0.780388806
71,181656,1852610,-0.537,-0.584,0.602,0.8,1.2,-3.5,8.6,-8.2,-23.3,0.435956908,0.0975066378,0.437391278,-0.780449843
72,185203,1852610,-0.537,-0.584,0.606,0.9,1.2,-3.6,8.6,-8.2,-23.3,0.435895871,0.0975066378,0.437391278,-0.780480361
73,186995,1852610,-0.537,-0.592,0.602,1,1.2,-3.7,8.6,-8.2,-23.3,0.435804315,0.0975066378,0.437391278,-0.78051088
74,189245,1852620,-0.541,-0.592,0.606,1.2,1,-3.7,8.6,-8.2,-23.3,0.435743278,0.0974761193,0.437391278,-0.780571917
75,192097,1852620,-0.537,-0.592,0.606,1.4,0.9,-3.7,9.1,-7.7,-23.5,0.435651723,0.0974761193,0.437360759,-0.780602435
76,194201,1852620,-0.533,-0.592,0.606,1.6,0.8,-3.6,9.1,-7.7,-23.5,0.435590686,0.0974761193,0.437360759,-0.780663472
77,196753,1852620,-0.537,-0.596,0.606,1.9,0.8,-3.6,9.1,-7.7,-23.5,0.43549913,0.0974761193,0.437330241,-0.780724509
78,200703,1852630,-0.533,-0.592,0.598,2.2,0.7,-3.7,9.1,-7.7,-23.5,0.435438093,0.0974761193,0.437330241,-0.780755028
79,203350,1852630,-0.537,-0.588,0.602,2.5,0.7,-3.9,9,-7.2,-23.7,0.435346538,0.0974761193,0.437299722,-0.780816065
80,205627,1852630,-0.541,-0.58,0.602,2.8,0.7,-4.1,9,-7.2,-23.7,0.435254982,0.0974761193,0.437269204,-0.78090762
81,207801,1852630,-0.537,-0.584,0.606,3,0.6,-4.1,9,-7.2,-23.7,0.435193945,0.0974761193,0.437208167,-0.780968657
82,210058,1852640,-0.537,-0.584,0.602,3.1,0.6,-4.1,9,-7.2,-23.7,0.43510239,0.0974761193,0.437177648,-0.781029695
83,211753,1852640,-0.541,-0.584,0.602,3.4,0.6,-4.1,9,-7.2,-23.7,0.435010834,0.0974761193,0.43714713,-0.781090732
84,214585,1852640,-0.541,-0.58,0.606,3.5,0.7,-4.1,9,-7.2,-23.7,0.434919279,0.0974761193,0.437086093,-0.781182287
85,216823,1852640,-0.537,-0.577,0.606,3.6,0.7,-4.2,9,-7.2,-23.7,0.434858242,0.0975066378,0.437055574,-0.781243324
86,220353,1852650,-0.537,-0.577,0.602,3.6,0.7,-4.3,9,-7.2,-23.7,0.434766686,0.0975066378,0.436994537,-0.781304361
87,221845,1852650,-0.537,-0.577,0.602,3.6,0.7,-4.3,9,-7.2,-23.7,0.434766686,0.0975066378,0.436994537,-0.781304361
88,224652,1852650,-0.541,-0.58,0.602,3.7,0.6,-4.4,8.9,-8.5,-22.2,0.434705649,0.0976897488,0.436719871,-0.781487472
89,226649,1852650,-0.541,-0.58,0.602,3.7,0.6,-4.3,8.9,-8.5,-22.2,0.434614093,0.0976897488,0.436689352,-0.781548509
90,229242,1852660,-0.537,-0.584,0.602,3.7,0.6,-4.2,8.9,-8.5,-22.2,0.434522538,0.0977202673,0.436628315,-0.781609546
91,232683,1852660,-0.541,-0.588,0.602,3.6,0.7,-4.2,9,-8.7,-21.5,0.434430982,0.0977202673,0.436597797,-0.781701102
92,234506,1852660,-0.537,-0.588,0.602,3.3,0.7,-4.2,9,-8.7,-21.5,0.434369945,0.0977202673,0.43653676,-0.781762139
93,236810,1852660,-0.537,-0.588,0.606,3,0.8,-4.3,9,-8.7,-21.5,0.43427839,0.0977202673,0.436506241,-0.781823176
94,240166,1852670,-0.541,-0.584,0.606,2.6,0.8,-4.3,9,-8.7,-21.5,0.434186834,0.0977202673,0.436475723,-0.781914731
95,241754,1852670,-0.545,-0.592,0.602,2.5,1,-4.3,8.6,-9,-20.9,0.43406476,0.0977202673,0.436445204,-0.781975768
96,244854,1852670,-0.545,-0.596,0.598,2.4,1.1,-4.3,8.6,-9,-20.9,0.434003723,0.0977202673,0.436445204,-0.782036805
97,247181,1852670,-0.541,-0.596,0.602,2.3,1.2,-4.4,8.6,-9,-20.9,0.433912168,0.0977202673,0.436414686,-0.782097842
98,249432,1852680,-0.545,-0.596,0.606,2.2,1.2,-4.4,8.6,-9,-20.9,0.433820612,0.0977202673,0.436414686,-0.782158879
99,251767,1852680,-0.541,-0.596,0.594,2.2,1.3,-4.4,9.2,-8.8,-20,0.433729057,0.0977202673,0.436384167,-0.782219916
100,254301,1852680,-0.549,-0.596,0.598,2.2,1.3,-4.2,9.2,-8.8,-20,0.433637501,0.0977202673,0.436353648,-0.782280953
101,257313,1852680,-0.541,-0.596,0.598,2.2,1.3,-4.1,9.2,-8.8,-20,0.433545946,0.0977202673,0.436353648,-0.78234199
102,259430,1852690,-0.545,-0.6,0.594,2.3,1.3,-4.1,9.2,-8.8,-20,0.43345439,0.0977507859,0.43632313,-0.782372509
103,263254,1852690,-0.541,-0.6,0.602,2.4,1.3,-4.1,9.2,-8.8,-20,0.433362835,0.0977507859,0.43632313,-0.782433546
104,265427,1852690,-0.545,-0.596,0.594,2.5,1.4,-4.1,9.2,-8.8,-20,0.433271279,0.0977507859,0.436292611,-0.782494583
105,267795,1852690,-0.549,-0.596,0.598,2.5,1.5,-3.9,9.2,-8.8,-20,0.433179724,0.0977507859,0.436262093,-0.78255562
106,270053,1852700,-0.545,-0.604,0.594,2.6,1.6,-3.8,9.2,-8.8,-20,0.433088168,0.0977507859,0.436262093,-0.782616657
107,272158,1852700,-0.545,-0.604,0.594,2.6,1.6,-3.8,9.2,-8.8,-20,0.433088168,0.0977507859,0.436262093,-0.782616657
108,274168,1852700,-0.545,-0.604,0.594,2.8,1.6,-3.6,8.9,-8.8,-20.5,0.432966094,0.0979338969,0.436262093,-0.782677694
109,276630,1852700,-0.545,-0.608,0.598,2.8,1.6,-3.4,8.9,-8.8,-20.5,0.432874538,0.0979644154,0.436231574,-0.782738731
110,280072,1852710,-0.545,-0.608,0.598,2.8,1.6,-3.4,8.9,-8.8,-20.5,0.432782983,0.0979644154,0.436201056,-0.782799768
111,282258,1852710,-0.542,-0.608,0.594,2.7,1.6,-3.4,9.1,-9,-20.6,0.432721946,0.0979949339,0.436170537,-0.782860805
112,284446,1852710,-0.538,-0.608,0.598,2.7,1.7,-3.5,9.1,-9,-20.6,0.43263039,0.0980254524,0.436140019,-0.782891324
113,286762,1852710,-0.541,-0.604,0.598,2.7,1.8,-3.3,9.1,-9,-20.6,0.432538835,0.0980559709,0.436140019,-0.782952361
114,289357,1852720,-0.538,-0.612,0.602,2.6,1.8,-3.1,9.1,-9,-20.6,0.432477798,0.0980559709,0.4361095,-0.783013398
115,292687,1852720,-0.546,-0.612,0.598,2.5,1.7,-2.9,8.9,-8.6,-20.9,0.432386242,0.0980864895,0.436078982,-0.783074435
116,294246,1852720,-0.542,-0.608,0.598,2.4,1.7,-2.7,8.9,-8.6,-20.9,0.432325205,0.098117008,0.436078982,-0.783104953
117,296966,1852720,-0.541,-0.604,0.594,2.3,1.6,-2.5,8.9,-8.6,-20.9,0.432264168,0.0981475265,0.436017945,-0.783135472
118,300195,1852730,-0.541,-0.604,0.598,2.2,1.7,-2.3,8.9,-8.6,-20.9,0.432203131,0.098178045,0.436017945,-0.783196509
119,302352,1852730,-0.542,-0.608,0.598,1.8,1.8,-2.1,9.1,-8.7,-21.9,0.432111576,0.0982085635,0.436017945,-0.783227027
120,304566,1852730,-0.538,-0.604,0.59,1.5,1.9,-1.9,9.1,-8.7,-21.9,0.432081057,0.098239082,0.436017945,-0.783257546
121,306892,1852730,-0.542,-0.604,0.586,1.2,2,-1.7,9.1,-8.7,-21.9,0.432050539,0.098239082,0.436017945,-0.783288064
122,309233,1852740,-0.541,-0.6,0.598,1,2,-1.5,9.1,-8.7,-21.9,0.431989502,0.098300119,0.436017945,-0.783288064
123,312024,1852740,-0.545,-0.604,0.594,0.8,2,-1.4,9.1,-8.7,-21.9,0.431928465,0.0983306375,0.436017945,-0.783318583
124,315083,1852740,-0.545,-0.6,0.59,0.5,2,-1.2,9.1,-8.7,-21.9,0.431897946,0.098361156,0.436017945,-0.783318583
125,317268,1852740,-0.549,-0.596,0.587,0.3,2,-1.1,9.1,-8.7,-21.9,0.431867428,0.0983916746,0.436017945,-0.783349101
126,319282,1852750,-0.545,-0.6,0.59,0,2.1,-1,9.1,-8.7,-21.9,0.431806391,0.0983916746,0.436078982,-0.783349101
127,321610,1852750,-0.545,-0.6,0.59,0,2.1,-1,9.1,-8.7,-21.9,0.431806391,0.0983916746,0.436078982,-0.783349101
128,324913,1852750,-0.545,-0.596,0.586,-0.1,2.3,-0.7,9,-8.7,-22.6,0.431775872,0.0986358226,0.436262093,-0.783227027
129,327064,1852750,-0.545,-0.596,0.594,-0.2,2.2,-0.6,9,-8.7,-22.6,0.431745354,0.0986663411,0.436292611,-0.783227027
130,329397,1852760,-0.545,-0.6,0.586,-0.4,2.2,-0.5,9,-8.7,-22.6,0.431714835,0.0986968596,0.43632313,-0.783227027
131,331833,1852760,-0.545,-0.6,0.59,-0.5,2.2,-0.4,9.2,-9,-22.9,0.431684317,0.0986968596,0.436353648,-0.783227027
132,334288,1852760,-0.549,-0.596,0.59,-0.6,2.3,-0.4,9.2,-9,-22.9,0.431653798,0.0987273782,0.436384167,-0.783227027
133,337439,1852760,-0.541,-0.596,0.586,-0.8,2.3,-0.5,9.2,-9,-22.9,0.43162328,0.0987273782,0.436445204,-0.783227027
134,339674,1852770,-0.541,-0.6,0.594,-0.9,2.3,-0.5,9.2,-9,-22.9,0.431592761,0.0987884152,0.436475723,-0.783196509
135,341775,1852770,-0.541,-0.596,0.586,-1,2.2,-0.5,9.1,-8.7,-22.7,0.431562243,0.0988189337,0.436506241,-0.783196509
136,345825,1852770,-0.541,-0.596,0.582,-1.1,2.1,-0.4,9.1,-8.7,-22.7,0.431531724,0.0988494522,0.43653676,-0.783196509
137,346886,1852770,-0.541,-0.596,0.59,-1.2,2,-0.4,9.1,-8.7,-22.7,0.431501205,0.0988494522,0.436597797,-0.78316599
138,349467,1852780,-0.545,-0.604,0.59,-1.4,2,-0.4,9.1,-8.7,-22.7,0.431470687,0.0988799707,0.436628315,-0.78316599
139,351612,1852780,-0.545,-0.588,0.586,-1.4,2.1,-0.5,9.2,-8.7,-22.6,0.431470687,0.0988799707,0.436689352,-0.783135472
140,354730,1852780,-0.545,-0.592,0.583,-1.3,2.3,-0.5,9.2,-8.7,-22.6,0.431440168,0.0989104892,0.436719871,-0.783135472
141,356876,1852780,-0.545,-0.592,0.586,-1.2,2.5,-0.6,9.2,-8.7,-22.6,0.43140965,0.0989410077,0.436780908,-0.783135472
142,359137,1852790,-0.545,-0.596,0.586,-1.3,2.5,-0.6,9.2,-8.7,-22.6,0.431379131,0.0989715262,0.436811426,-0.783104953
143,362677,1852790,-0.545,-0.596,0.59,-1.3,2.3,-0.6,9.2,-8.7,-22.6,0.431318094,0.0989715262,0.436872463,-0.783104953
144,365150,1852790,-0.549,-0.592,0.587,-1.2,2.2,-0.5,9.2,-8.7,-22.6,0.431318094,0.0990020447,0.436902982,-0.783074435
145,368018,1852790,-0.545,-0.596,0.586,-1.2,2,-0.5,9.2,-8.7,-22.6,0.431287576,0.0990325632,0.436964019,-0.783074435
146,370364,1852800,-0.545,-0.6,0.59,-1.1,1.8,-0.5,9.2,-8.7,-22.6,0.431257057,0.0990325632,0.436994537,-0.783074435
147,372630,1852800,-0.545,-0.6,0.59,-1.1,1.8,-0.5,9.2,-8.7,-22.6,0.431257057,0.0990325632,0.436994537,-0.783074435
148,374863,1852800,-0.545,-0.6,0.59,-1.1,1.8,-0.5,9.7,-8.7,-22.1,0.431226539,0.0992156743,0.437177648,-0.782952361
149,377093,1852800,-0.545,-0.604,0.59,-1.2,2,-0.5,9.7,-8.7,-22.1,0.43119602,0.0992767113,0.437208167,-0.782952361
150,379333,1852810,-0.541,-0.604,0.594,-1.2,2.3,-0.6,9.7,-8.7,-22.1,0.431165502,0.0992767113,0.437269204,-0.782921842
151,382232,1852810,-0.542,-0.608,0.59,-1.1,2.3,-0.6,9.4,-8.7,-22.2,0.431134983,0.0993072298,0.437299722,-0.782921842
152,384554,1852810,-0.542,-0.612,0.594,-1.1,2.1,-0.5,9.4,-8.7,-22.2,0.431134983,0.0993377483,0.437360759,-0.782891324
153,386832,1852810,-0.542,-0.612,0.594,-1.1,2,-0.4,9.4,-8.7,-22.2,0.431104465,0.0993682669,0.437391278,-0.782891324
154,389140,1852820,-0.545,-0.608,0.598,-0.9,2,-0.3,9.4,-8.7,-22.2,0.431073946,0.0993682669,0.437421796,-0.782891324
155,392634,1852820,-0.538,-0.608,0.594,-0.8,2,-0.4,9.2,-8.7,-22,0.431043428,0.0993987854,0.437452315,-0.782891324
156,394839,1852820,-0.542,-0.608,0.59,-0.8,2,-0.4,9.2,-8.7,-22,0.431012909,0.0994293039,0.437482833,-0.782860805
157,397022,1852820,-0.542,-0.608,0.594,-0.6,1.9,-0.2,9.2,-8.7,-22,0.431012909,0.0994598224,0.437513352,-0.782860805
158,399276,1852830,-0.538,-0.608,0.594,-0.6,1.8,-0.1,9.2,-8.7,-22,0.430982391,0.0994598224,0.43754387,-0.782860805
159,403412,1852830,-0.538,-0.612,0.598,-0.5,1.8,-0.1,9.4,-8.6,-22.1,0.430951872,0.0994903409,0.437574389,-0.782830287
160,404148,1852830,-0.538,-0.608,0.598,-0.6,1.7,0,9.4,-8.6,-22.1,0.430951872,0.0995208594,0.437604907,-0.782830287
161,407870,1852830,-0.542,-0.608,0.594,-0.7,1.6,0.1,9.4,-8.6,-22.1,0.430951872,0.0995513779,0.437635426,-0.782830287
162,410075,1852840,-0.538,-0.604,0.594,-0.8,1.6,0.4,9.4,-8.6,-22.1,0.430921354,0.0995818964,0.437665944,-0.782799768
163,411686,1852840,-0.541,-0.6,0.602,-1.1,1.6,0.5,9.4,-8.6,-22.1,0.430921354,0.0995818964,0.437696463,-0.782799768
164,414201,1852840,-0.538,-0.608,0.594,-1.3,1.7,0.5,9.4,-8.6,-22.1,0.430921354,0.0996124149,0.437726981,-0.78276925
165,417675,1852840,-0.538,-0.604,0.594,-1.5,1.7,0.5,9.4,-8.6,-22.1,0.430921354,0.0996429334,0.437788018,-0.782738731
166,419209,1852850,-0.534,-0.604,0.598,-1.7,1.7,0.6,9.4,-8.6,-22.1,0.430921354,0.0996429334,0.437818537,-0.782708213
167,422328,1852850,-0.534,-0.604,0.598,-1.7,1.7,0.6,9.4,-8.6,-22.1,0.430921354,0.0996429334,0.437818537,-0.782708213
168,425312,1852850,-0.537,-0.6,0.598,-2,1.7,0.8,10.6,-8.7,-21.5,0.430921354,0.0997039705,0.437940611,-0.782647176
169,426819,1852850,-0.534,-0.604,0.598,-2.1,1.7,0.8,10.6,-8.7,-21.5,0.430921354,0.0997039705,0.437971129,-0.782616657
170,429868,1852860,-0.53,-0.604,0.59,-2.2,1.6,0.9,10.6,-8.7,-21.5,0.430921354,0.0997039705,0.438062685,-0.782586138
171,431751,1852860,-0.534,-0.604,0.594,-2.4,1.4,1,11,-8.8,-21.3,0.430921354,0.0997039705,0.438093204,-0.782525101
172,435178,1852860,-0.533,-0.604,0.602,-2.6,1.4,1.1,11,-8.8,-21.3,0.430951872,0.0997650075,0.438154241,-0.782494583
173,436750,1852860,-0.53,-0.604,0.598,-2.8,1.3,1.2,11,-8.8,-21.3,0.430951872,0.0997650075,0.438215278,-0.782464064
174,439258,1852870,-0.538,-0.604,0.594,-3.1,1.4,1.3,11,-8.8,-21.3,0.430982391,0.0997650075,0.438276315,-0.782403027
175,442646,1852870,-0.537,-0.6,0.598,-3.4,1.4,1.3,10.8,-8.6,-21.5,0.430982391,0.0997650075,0.43836787,-0.782372509
176,444268,1852870,-0.53,-0.6,0.594,-3.7,1.6,1.2,10.8,-8.6,-21.5,0.431012909,0.099795526,0.438428907,-0.782311472
177,446889,1852870,-0.533,-0.6,0.602,-3.9,1.7,1.1,10.8,-8.6,-21.5,0.431012909,0.099795526,0.438520463,-0.782219916
178,449186,1852880,-0.533,-0.604,0.602,-3.9,1.7,1.3,10.8,-8.6,-21.5,0.431012909,0.099795526,0.4385815,-0.782189398
179,452548,1852880,-0.537,-0.604,0.598,-3.9,1.7,1.4,11,-8.7,-21.3,0.431043428,0.099795526,0.438673055,-0.782158879
180,454170,1852880,-0.537,-0.604,0.606,-3.9,1.6,1.6,11,-8.7,-21.3,0.431073946,0.099795526,0.438764611,-0.782097842
181,456725,1852880,-0.537,-0.604,0.606,-3.8,1.4,1.7,11,-8.7,-21.3,0.431073946,0.0998260445,0.438825648,-0.782036805
182,460142,1852890,-0.534,-0.608,0.602,-3.8,1.3,1.6,11,-8.7,-21.3,0.431104465,0.0998260445,0.438917203,-0.781975768
183,461707,1852890,-0.53,-0.604,0.598,-3.8,1.3,1.6,9.1,-8.4,-22,0.431134983,0.0998260445,0.43897824,-0.781914731
184,464196,1852890,-0.538,-0.612,0.61,-3.9,1.3,1.6,9.1,-8.4,-22,0.431165502,0.0998260445,0.439039277,-0.781853694
185,467555,1852890,-0.537,-0.604,0.602,-3.9,1.2,1.6,9.1,-8.4,-22,0.43119602,0.0998260445,0.439130833,-0.781823176
186,469191,1852900,-0.533,-0.604,0.602,-3.7,1.2,1.4,9.1,-8.4,-22,0.43119602,0.0998260445,0.43919187,-0.781762139
187,471581,1852900,-0.533,-0.604,0.602,-3.7,1.2,1.4,9.1,-8.4,-22,0.43119602,0.0998260445,0.43919187,-0.781762139
188,475085,1852900,-0.542,-0.612,0.602,-3.2,1.1,1.4,8.4,-8.7,-21.7,0.431257057,0.0997650075,0.439283425,-0.781701102
189,476719,1852900,-0.541,-0.604,0.598,-3,1.1,1.3,8.4,-8.7,-21.7,0.431257057,0.0997650075,0.439344462,-0.781640065
190,479930,1852910,-0.537,-0.604,0.606,-2.9,1.1,1.1,8.4,-8.7,-21.7,0.431287576,0.0997650075,0.439405499,-0.781609546
191,481624,1852910,-0.537,-0.604,0.598,-2.9,1.3,1.1,7.4,-8.9,-21.9,0.431287576,0.0997650075,0.439466536,-0.781579028
192,485155,1852910,-0.537,-0.604,0.598,-2.9,1.3,1.3,7.4,-8.9,-21.9,0.431318094,0.099795526,0.439527573,-0.781517991
193,486709,1852910,-0.541,-0.604,0.606,-2.8,1.2,1.4,7.4,-8.9,-21.9,0.431318094,0.099795526,0.43958861,-0.781487472
194,489152,1852920,-0.541,-0.6,0.606,-2.6,1,1.4,7.4,-8.9,-21.9,0.431348613,0.099795526,0.439619129,-0.781426435
195,492541,1852920,-0.541,-0.604,0.598,-2.5,0.9,1.3,6.3,-9,-21.8,0.431379131,0.099795526,0.439680166,-0.781395917
196,494134,1852920,-0.541,-0.604,0.602,-2.3,0.8,1.3,6.3,-9,-21.8,0.431379131,0.0998260445,0.439710685,-0.781365398
197,497125,1852920,-0.541,-0.608,0.602,-2.2,0.7,1.3,6.3,-9,-21.8,0.43140965,0.0998260445,0.439771722,-0.78133488
198,499480,1852930,-0.537,-0.604,0.61,-2,0.6,1.3,6.3,-9,-21.8,0.431440168,0.0998260445,0.43980224,-0.781304361
199,501599,1852930,-0.538,-0.608,0.606,-1.9,0.6,1.3,5.5,-8.8,-21.8,0.431440168,0.0998260445,0.439832759,-0.781273843
200,505131,1852930,-0.542,-0.612,0.598,-1.8,0.6,1.2,5.5,-8.8,-21.8,0.431470687,0.0998260445,0.439863277,-0.781243324
201,506607,1852930,-0.538,-0.612,0.602,-1.8,0.6,1.3,5.5,-8.8,-21.8,0.431501205,0.0998260445,0.439924314,-0.781212806
202,509073,1852940,-0.538,-0.608,0.606,-1.8,0.7,1.2,5.5,-8.8,-21.8,0.431501205,0.099856563,0.439924314,-0.781182287
203,512565,1852940,-0.538,-0.612,0.61,-1.8,0.7,1.3,10.4,-9.8,-21.8,0.431531724,0.099856563,0.439985351,-0.781151769
204,514221,1852940,-0.541,-0.608,0.606,-1.7,0.6,1.3,10.4,-9.8,-21.8,0.431531724,0.099856563,0.44001587,-0.78112125
205,516792,1852940,-0.541,-0.608,0.606,-1.7,0.6,1.3,10.4,-9.8,-21.8,0.431562243,0.099856563,0.440046388,-0.781090732
206,520152,1852950,-0.541,-0.604,0.606,-1.6,0.6,1.3,10.4,-9.8,-21.8,0.431592761,0.0998870815,0.440076907,-0.781060213
207,521623,1852950,-0.541,-0.604,0.606,-1.6,0.6,1.3,10.4,-9.8,-21.8,0.431592761,0.0998870815,0.440076907,-0.781060213
208,524597,1852950,-0.538,-0.608,0.602,-1.4,0.8,1.4,7.2,-7.3,-21.9,0.431653798,0.0998870815,0.440046388,-0.781029695
209,527642,1852950,-0.538,-0.612,0.606,-1.2,0.8,1.4,7.2,-7.3,-21.9,0.431653798,0.0998870815,0.440076907,-0.780999176
210,529152,1852960,-0.538,-0.612,0.606,-1.1,0.7,1.4,7.2,-7.3,-21.9,0.431684317,0.0999176,0.440107425,-0.780968657
211,531715,1852960,-0.534,-0.612,0.606,-1,0.6,1.4,8.3,-7,-21.5,0.431714835,0.0999176,0.440137944,-0.780938139
212,535074,1852960,-0.542,-0.616,0.606,-0.9,0.5,1.4,8.3,-7,-21.5,0.431714835,0.0999481185,0.440137944,-0.780938139
213,536626,1852960,-0.538,-0.612,0.606,-0.9,0.6,1.6,8.3,-7,-21.5,0.431745354,0.0999481185,0.440168462,-0.78090762
214,539686,1852970,-0.542,-0.612,0.606,-0.9,0.7,1.7,8.3,-7,-21.5,0.431775872,0.099978637,0.440168462,-0.780877102
215,542567,1852970,-0.546,-0.616,0.598,-1,0.9,1.9,8.9,-7.4,-21.5,0.431806391,0.100009156,0.440198981,-0.780846583
216,544105,1852970,-0.542,-0.616,0.606,-1.1,1.1,1.9,8.9,-7.4,-21.5,0.431836909,0.100009156,0.440229499,-0.780816065
217,546612,1852970,-0.542,-0.612,0.61,-1.1,1.1,1.9,8.9,-7.4,-21.5,0.431836909,0.100039674,0.440260018,-0.780785546
218,550001,1852980,-0.541,-0.608,0.602,-0.9,1.2,2,8.9,-7.4,-21.5,0.431867428,0.100070193,0.440290536,-0.780755028
219,551652,1852980,-0.542,-0.612,0.606,-0.7,1.2,2.2,9.6,-7.1,-21.9,0.431897946,0.10013123,0.440290536,-0.780724509
220,554531,1852980,-0.542,-0.612,0.598,-0.6,1.2,2.2,9.6,-7.1,-21.9,0.431928465,0.100161748,0.440321055,-0.780693991
221,557364,1852980,-0.546,-0.616,0.602,-0.5,1.2,2.3,9.6,-7.1,-21.9,0.431958983,0.100192267,0.440351573,-0.780663472
222,559096,1852990,-0.541,-0.608,0.606,-0.5,1.2,2.3,9.6,-7.1,-21.9,0.431989502,0.100192267,0.440351573,-0.780632954
223,561869,1852990,-0.542,-0.612,0.606,-0.6,1.2,2.5,9.1,-9.4,-22.1,0.43202002,0.100283822,0.440382092,-0.780602435
224,564722,1852990,-0.545,-0.612,0.606,-0.7,1.3,2.7,9.1,-9.4,-22.1,0.432050539,0.100314341,0.440382092,-0.780541398
225,567736,1852990,-0.541,-0.608,0.606,-0.9,1.4,2.9,9.1,-9.4,-22.1,0.432081057,0.100375378,0.44041261,-0.78051088
226,569226,1853000,-0.545,-0.608,0.606,-1.1,1.6,3,9.1,-9.4,-22.1,0.432111576,0.100405896,0.440443129,-0.780480361
227,573032,1853000,-0.545,-0.608,0.606,-1.1,1.6,3,9.1,-9.4,-22.1,0.432111576,0.100405896,0.440443129,-0.780480361
228,575373,1853000,-0.545,-0.608,0.606,-1.2,1.7,2.9,8.9,-8.2,-21.8,0.432203131,0.100466933,0.440443129,-0.780419324
229,577668,1853000,-0.538,-0.608,0.606,-1,1.8,2.8,8.9,-8.2,-21.8,0.432264168,0.10052797,0.440473647,-0.780388806
230,579878,1853010,-0.541,-0.604,0.606,-1,1.9,2.9,8.9,-8.2,-21.8,0.432294687,0.100558489,0.440504166,-0.780327769
231,582020,1853010,-0.541,-0.608,0.606,-1,2,3,9.1,-8.2,-21.9,0.432325205,0.100619526,0.440534684,-0.78029725
232,584650,1853010,-0.541,-0.604,0.606,-1.1,2,3,9.1,-8.2,-21.9,0.432355724,0.100680563,0.440565203,-0.780266732
233,586853,1853010,-0.542,-0.612,0.606,-1.2,2,3,9.1,-8.2,-21.9,0.432386242,0.100680563,0.440595721,-0.780205695
234,589441,1853020,-0.538,-0.608,0.606,-1.2,2,3.1,9.1,-8.2,-21.9,0.432416761,0.100772118,0.44062624,-0.780175176
235,591912,1853020,-0.541,-0.608,0.606,-1.2,1.9,3.1,9.2,-8.2,-21.7,0.432477798,0.100833155,0.440656758,-0.780114139
236,595729,1853020,-0.541,-0.604,0.606,-1.2,2,3.1,9.2,-8.2,-21.7,0.432508316,0.100894192,0.440687277,-0.780083621
237,598014,1853020,-0.541,-0.604,0.606,-1.2,2.3,3,9.2,-8.2,-21.7,0.432538835,0.100955229,0.440717795,-0.780022584
238,600160,1853030,-0.545,-0.604,0.606,-1.3,2.5,3,9.2,-8.2,-21.7,0.432569353,0.101016266,0.440748314,-0.779961547
239,601948,1853030,-0.542,-0.608,0.598,-1.3,2.7,2.9,9.1,-8.4,-22,0.432599872,0.101077303,0.440809351,-0.779931028
240,604333,1853030,-0.542,-0.608,0.598,-1.3,2.5,3,9.1,-8.4,-22,0.43263039,0.10113834,0.440839869,-0.779869991
241,608481,1853030,-0.537,-0.604,0.598,-1.2,2.5,3,9.1,-8.4,-22,0.432660909,0.101168859,0.440870388,-0.779839473
242,609237,1853040,-0.541,-0.604,0.594,-1.1,2.5,2.9,9.1,-8.4,-22,0.432691427,0.101260414,0.440931425,-0.779778436
243,612822,1853040,-0.546,-0.608,0.594,-1.1,2.5,2.8,9.1,-7.6,-21.6,0.432691427,0.101321451,0.440961943,-0.779747917
244,614400,1853040,-0.545,-0.604,0.59,-1.2,2.4,2.8,9.1,-7.6,-21.6,0.432721946,0.10135197,0.440992462,-0.779717399
245,617009,1853040,-0.541,-0.6,0.594,-1.2,2.3,2.8,9.1,-7.6,-21.6,0.432752464,0.101413007,0.44102298,-0.779656362
246,620085,1853050,-0.545,-0.6,0.594,-1.2,2.5,2.7,9.1,-7.6,-21.6,0.432782983,0.101474044,0.441084017,-0.779625843
247,621749,1853050,-0.545,-0.6,0.594,-1.2,2.5,2.7,9.1,-7.6,-21.6,0.432782983,0.101474044,0.441084017,-0.779625843
248,624598,1853050,-0.545,-0.6,0.586,-1.2,2.9,2.3,9.2,-10.4,-22,0.43284402,0.101626637,0.441145054,-0.779534288
249,626729,1853050,-0.549,-0.6,0.59,-1.1,3,2.3,9.2,-10.4,-22,0.43284402,0.101657155,0.441206091,-0.779473251
250,630807,1853060,-0.545,-0.596,0.59,-1,2.9,2.4,9.2,-10.4,-22,0.432874538,0.101748711,0.44123661,-0.779442732
251,632932,1853060,-0.545,-0.6,0.59,-0.9,2.8,2.4,9,-11.1,-22.4,0.432874538,0.101809748,0.441267129,-0.779412214
252,635437,1853060,-0.542,-0.604,0.586,-0.9,2.8,2.3,9,-11.1,-22.4,0.432905057,0.101870785,0.441297647,-0.779381695
253,637703,1853060,-0.542,-0.608,0.59,-0.7,2.6,2.3,9,-11.1,-22.4,0.432905057,0.101931822,0.441358684,-0.779320658
254,640013,1853070,-0.546,-0.608,0.586,-0.6,2.5,2.2,9,-11.1,-22.4,0.432935575,0.101992859,0.441389203,-0.779290139
255,642101,1853070,-0.546,-0.608,0.59,-0.4,2.3,2.1,9.1,-11.1,-21.7,0.432935575,0.102053896,0.441389203,-0.779259621
256,645147,1853070,-0.546,-0.608,0.586,-0.3,2.3,2,9.1,-11.1,-21.7,0.432935575,0.102114933,0.441419721,-0.779229102
257,647199,1853070,-0.545,-0.604,0.586,-0.3,2.3,1.9,9.1,-11.1,-21.7,0.432966094,0.102145451,0.44145024,-0.779229102
258,649358,1853080,-0.545,-0.604,0.586,-0.3,2.4,1.9,9.1,-11.1,-21.7,0.432966094,0.102206488,0.441480758,-0.779198584
259,652761,1853080,-0.546,-0.604,0.583,-0.3,2.4,1.9,8.7,-10.6,-21.9,0.432966094,0.102267525,0.441511277,-0.779168065
260,654380,1853080,-0.545,-0.6,0.59,-0.2,2.4,1.8,8.7,-10.6,-21.9,0.432996612,0.102328562,0.441511277,-0.779137547
261,657052,1853080,-0.545,-0.596,0.583,-0.1,2.4,1.7,8.7,-10.6,-21.9,0.432996612,0.102389599,0.441541795,-0.779107028
262,659210,1853090,-0.545,-0.596,0.586,0,2.4,1.6,8.7,-10.6,-21.9,0.432996612,0.102450636,0.441572314,-0.779107028
263,662676,1853090,-0.549,-0.604,0.59,0,2.3,1.6,9.1,-7.2,-20.4,0.432996612,0.102511673,0.441572314,-0.77907651
264,664952,1853090,-0.546,-0.604,0.583,0.1,2.3,1.7,9.1,-7.2,-20.4,0.432996612,0.102542192,0.441602832,-0.779045991
265,667178,1853090,-0.542,-0.604,0.582,0.2,2.2,1.6,9.1,-7.2,-20.4,0.433027131,0.102603229,0.441602832,-0.779045991
266,669486,1853100,-0.542,-0.608,0.582,0.2,2,1.5,9.1,-7.2,-20.4,0.433027131,0.102633747,0.441633351,-0.779015473
267,671794,1853100,-0.542,-0.608,0.582,0.2,2,1.5,9.1,-7.2,-20.4,0.433027131,0.102633747,0.441633351,-0.779015473
268,674306,1853100,-0.538,-0.612,0.586,0.2,1.7,1.7,8.8,-8.8,-23.3,0.433027131,0.102755821,0.441724906,-0.778954436
269,677362,1853100,-0.542,-0.608,0.586,0.1,1.8,1.7,8.8,-8.8,-23.3,0.433027131,0.102816858,0.441724906,-0.778923917
270,679317,1853110,-0.538,-0.612,0.586,0.1,1.8,1.7,8.8,-8.8,-23.3,0.433027131,0.102847377,0.441724906,-0.778923917
271,681747,1853110,-0.546,-0.612,0.575,0,1.8,1.6,9.1,-7.5,-23.1,0.433057649,0.102908414,0.441755425,-0.778893399
272,684158,1853110,-0.538,-0.608,0.586,0.1,1.7,1.6,9.1,-7.5,-23.1,0.433057649,0.102938932,0.441755425,-0.778893399
273,687352,1853110,-0.534,-0.608,0.586,0.1,1.5,1.7,9.1,-7.5,-23.1,0.433088168,0.102999969,0.441785943,-0.77886288
274,689723,1853120,-0.542,-0.608,0.586,0.2,1.5,1.7,9.1,-7.5,-23.1,0.433088168,0.103030488,0.441785943,-0.778832362
275,691859,1853120,-0.538,-0.608,0.582,0.4,1.4,1.7,9.2,-7,-23.5,0.433088168,0.103091525,0.441785943,-0.778832362
276,694152,1853120,-0.542,-0.604,0.586,0.5,1.3,1.7,9.2,-7,-23.5,0.433118686,0.103122044,0.441785943,-0.778801843
277,696824,1853120,-0.538,-0.604,0.582,0.5,1.1,1.7,9.2,-7,-23.5,0.433149205,0.103183081,0.441785943,-0.778801843
278,700924,1853130,-0.538,-0.604,0.582,0.4,0.9,1.8,9.2,-7,-23.5,0.433149205,0.103213599,0.441785943,-0.778771325
279,703183,1853130,-0.546,-0.604,0.583,0.3,0.9,1.9,9,-7.4,-23.1,0.433179724,0.103244118,0.441785943,-0.778771325
280,705443,1853130,-0.538,-0.604,0.582,0.3,0.9,1.9,9,-7.4,-23.1,0.433210242,0.103274636,0.441785943,-0.778740806
281,707699,1853130,-0.534,-0.604,0.582,0.2,0.8,1.9,9,-7.4,-23.1,0.433240761,0.103335673,0.441785943,-0.778740806
282,709943,1853140,-0.542,-0.604,0.582,0.1,0.9,2,9,-7.4,-23.1,0.433240761,0.103366192,0.441785943,-0.778710288
283,712224,1853140,-0.545,-0.6,0.579,0,0.8,2.1,9.3,-8.4,-21.7,0.433271279,0.10339671,0.441785943,-0.778679769
284,714444,1853140,-0.538,-0.6,0.582,-0.1,0.7,2.1,9.3,-8.4,-21.7,0.433301798,0.103427229,0.441785943,-0.778679769
285,716707,1853140,-0.537,-0.6,0.586,-0.3,0.4,2,9.3,-8.4,-21.7,0.433332316,0.103457747,0.441785943,-0.778649251
286,719367,1853150,-0.538,-0.604,0.59,-0.4,0.3,1.9,9.3,-8.4,-21.7,0.433362835,0.103488266,0.441785943,-0.778618732
287,723371,1853150,-0.538,-0.604,0.59,-0.4,0.3,1.9,9.3,-8.4,-21.7,0.433362835,0.103488266,0.441785943,-0.778618732
288,725600,1853150,-0.541,-0.6,0.582,-0.9,0.1,1.7,9.5,-8.7,-21.8,0.433393353,0.103457747,0.44184698,-0.778557695
289,727798,1853150,-0.541,-0.6,0.586,-0.9,0.1,1.7,9.5,-8.7,-21.8,0.433423872,0.103457747,0.441877499,-0.778557695
290,729316,1853160,-0.542,-0.604,0.582,-1,0,1.7,9.5,-8.7,-21.8,0.43345439,0.103457747,0.441877499,-0.778527177
291,733176,1853160,-0.545,-0.6,0.586,-1.1,0,1.6,9.4,-8,-20.8,0.433484909,0.103457747,0.441877499,-0.778496658
292,735420,1853160,-0.545,-0.604,0.594,-1.2,0,1.6,9.4,-8,-20.8,0.433515427,0.103488266,0.441877499,-0.77846614
293,737671,1853160,-0.545,-0.604,0.586,-1.2,0,1.5,9.4,-8,-20.8,0.433545946,0.103488266,0.441938536,-0.778435621
294,739167,1853170,-0.546,-0.608,0.586,-1.2,0,1.4,9.4,-8,-20.8,0.433576464,0.103488266,0.441938536,-0.778405103
295,741662,1853170,-0.542,-0.604,0.586,-1.3,0,1.5,9.4,-8.1,-20.1,0.433606983,0.103488266,0.441969054,-0.778374584
296,745962,1853170,-0.542,-0.608,0.59,-1.4,-0.1,1.5,9.4,-8.1,-20.1,0.433637501,0.103488266,0.441999573,-0.778313547
297,748198,1853170,-0.541,-0.604,0.59,-1.4,-0.1,1.5,9.4,-8.1,-20.1,0.43366802,0.103488266,0.441999573,-0.778313547
298,750438,1853180,-0.546,-0.612,0.59,-1.4,-0.2,1.4,9.4,-8.1,-20.1,0.433698538,0.103488266,0.442030091,-0.778313547
299,752714,1853180,-0.542,-0.616,0.586,-1.1,-0.4,1.3,9.2,-8.2,-19.4,0.433729057,0.103457747,0.442030091,-0.778283029
300,754886,1853180,-0.542,-0.612,0.59,-1.1,-0.4,1.3,9.2,-8.2,-19.4,0.433759575,0.103457747,0.44206061,-0.77825251
301,757261,1853180,-0.542,-0.616,0.586,-1,-0.5,1.2,9.2,-8.2,-19.4,0.433790094,0.103457747,0.44206061,-0.778221992
302,759392,1853190,-0.542,-0.616,0.59,-0.8,-0.5,1.1,9.2,-8.2,-19.4,0.433820612,0.103457747,0.44206061,-0.778221992
303,761943,1853190,-0.542,-0.612,0.59,-0.7,-0.4,1.1,9.2,-8.3,-23.9,0.433851131,0.103457747,0.442091128,-0.778191473
304,764219,1853190,-0.546,-0.612,0.594,-0.5,-0.4,1.1,9.2,-8.3,-23.9,0.433851131,0.103457747,0.442091128,-0.778191473
305,767598,1853190,-0.542,-0.612,0.59,-0.3,-0.4,1.2,9.2,-8.3,-23.9,0.433881649,0.103457747,0.442091128,-0.778160955
306,769176,1853200,-0.538,-0.604,0.594,-0.2,-0.6,1.2,9.2,-8.3,-23.9,0.433912168,0.103457747,0.44206061,-0.778160955
307,771702,1853200,-0.538,-0.604,0.594,-0.2,-0.6,1.2,9.2,-8.3,-23.9,0.433912168,0.103457747,0.44206061,-0.778160955
308,775858,1853200,-0.538,-0.604,0.59,0.1,-0.7,1.1,8.9,-8.8,-20.9,0.433942686,0.103366192,0.44206061,-0.778160955
309,778221,1853200,-0.541,-0.596,0.598,0.1,-0.7,1.1,8.9,-8.8,-20.9,0.433973205,0.103366192,0.44206061,-0.778160955
310,780346,1853210,-0.545,-0.596,0.59,0,-0.5,1.1,8.9,-8.8,-20.9,0.433973205,0.103366192,0.442030091,-0.778160955
311,781925,1853210,-0.541,-0.592,0.59,0,-0.3,1.1,8.9,-8.7,-21.2,0.434003723,0.103366192,0.442030091,-0.778130436
312,784236,1853210,-0.541,-0.596,0.594,-0.1,-0.4,1,8.9,-8.7,-21.2,0.434034242,0.103366192,0.442030091,-0.778130436
313,786778,1853210,-0.541,-0.592,0.594,-0.2,-0.6,0.9,8.9,-8.7,-21.2,0.43406476,0.103366192,0.442030091,-0.778130436
314,790894,1853220,-0.549,-0.596,0.598,-0.2,-0.7,0.9,8.9,-8.7,-21.2,0.43406476,0.103366192,0.442030091,-0.778099918
315,793279,1853220,-0.545,-0.596,0.598,-0.3,-0.9,0.9,8.9,-8.7,-21.9,0.43406476,0.103335673,0.442030091,-0.778099918
316,795396,1853220,-0.549,-0.596,0.594,-0.4,-0.8,0.8,8.9,-8.7,-21.9,0.434125797,0.103335673,0.442030091,-0.778099918
317,796940,1853220,-0.549,-0.596,0.594,-0.5,-0.6,0.7,8.9,-8.7,-21.9,0.434156316,0.103335673,0.442030091,-0.778069399
318,800943,1853230,-0.545,-0.604,0.598,-0.7,-0.6,0.6,8.9,-8.7,-21.9,0.434156316,0.103305155,0.442030091,-0.778069399
319,803238,1853230,-0.549,-0.596,0.59,-0.9,-0.7,0.6,8.7,-8.9,-22.8,0.434186834,0.103305155,0.442030091,-0.778038881
320,805404,1853230,-0.545,-0.596,0.594,-0.9,-0.7,0.6,8.7,-8.9,-22.8,0.434217353,0.103305155,0.442030091,-0.778038881
321,807690,1853230,-0.553,-0.6,0.591,-0.9,-0.7,0.5,8.7,-8.9,-22.8,0.434217353,0.103274636,0.44206061,-0.778008362
322,809714,1853240,-0.545,-0.6,0.594,-0.9,-0.6,0.4,8.7,-8.9,-22.8,0.434247871,0.103244118,0.44206061,-0.778008362
323,811700,1853240,-0.553,-0.596,0.591,-0.8,-0.6,0.2,9.1,-8.7,-22.1,0.434247871,0.103244118,0.44206061,-0.778008362
324,814206,1853240,-0.545,-0.596,0.594,-0.6,-0.6,0,9.1,-8.7,-22.1,0.43427839,0.103213599,0.44206061,-0.778008362
325,818471,1853240,-0.549,-0.596,0.594,-0.5,-0.6,0,9.1,-8.7,-22.1,0.43427839,0.103213599,0.44206061,-0.777977844
326,820735,1853250,-0.545,-0.6,0.598,-0.3,-0.6,-0.1,9.1,-8.7,-22.1,0.43427839,0.103183081,0.442091128,-0.777977844
327,822955,1853250,-0.545,-0.6,0.598,-0.3,-0.6,-0.1,9.1,-8.7,-22.1,0.43427839,0.103183081,0.442091128,-0.777977844
328,825183,1853250,-0.549,-0.6,0.598,0,-1,-0.3,8.6,-8.4,-22.2,0.434308908,0.103183081,0.441999573,-0.778008362
329,826718,1853250,-0.549,-0.608,0.59,0,-1,-0.3,8.6,-8.4,-22.2,0.434308908,0.103122044,0.441999573,-0.778008362
330,829293,1853260,-0.545,-0.6,0.59,0.1,-1.2,-0.5,8.6,-8.4,-22.2,0.434339427,0.103122044,0.441969054,-0.778038881
331,833146,1853260,-0.549,-0.604,0.594,0.2,-1.2,-0.6,8.8,-8.9,-22.5,0.434339427,0.103122044,0.441969054,-0.778038881
332,835440,1853260,-0.545,-0.604,0.598,0.3,-1,-0.6,8.8,-8.9,-22.5,0.434308908,0.103091525,0.441938536,-0.778038881
333,837671,1853260,-0.545,-0.604,0.598,0.4,-0.9,-0.6,8.8,-8.9,-22.5,0.434308908,0.103091525,0.441938536,-0.778069399
334,839422,1853270,-0.545,-0.6,0.594,0.4,-0.9,-0.6,8.8,-8.9,-22.5,0.434308908,0.103061007,0.441877499,-0.778069399
335,841714,1853270,-0.549,-0.6,0.602,0.4,-0.9,-0.6,8.5,-8.9,-22.3,0.434308908,0.103030488,0.441877499,-0.778099918
336,844322,1853270,-0.549,-0.6,0.594,0.5,-0.9,-0.7,8.5,-8.9,-22.3,0.434308908,0.103030488,0.441877499,-0.778099918
337,847677,1853270,-0.545,-0.6,0.598,0.5,-1,-0.7,8.5,-8.9,-22.3,0.434308908,0.102999969,0.441877499,-0.778130436
338,849536,1853280,-0.545,-0.6,0.598,0.6,-1.1,-0.7,8.5,-8.9,-22.3,0.434308908,0.102969451,0.44184698,-0.778130436
339,851753,1853280,-0.549,-0.604,0.602,0.5,-1,-0.8,8.7,-8.9,-22,0.434308908,0.102969451,0.441816462,-0.778160955
340,854335,1853280,-0.541,-0.604,0.602,0.5,-1,-0.8,8.7,-8.9,-22,0.434308908,0.102938932,0.441816462,-0.778160955
341,856555,1853280,-0.541,-0.604,0.602,0.4,-1,-0.7,8.7,-8.9,-22,0.43427839,0.102908414,0.441785943,-0.778191473
342,860047,1853290,-0.549,-0.608,0.598,0.2,-0.9,-0.8,8.7,-8.9,-22,0.43427839,0.102908414,0.441785943,-0.778191473
343,861784,1853290,-0.545,-0.604,0.598,0.2,-0.9,-0.8,8.3,-8.6,-22.1,0.43427839,0.102877895,0.441755425,-0.778191473
344,864085,1853290,-0.545,-0.604,0.594,0.2,-0.9,-0.8,8.3,-8.6,-22.1,0.43427839,0.102847377,0.441755425,-0.778221992
345,866593,1853290,-0.546,-0.608,0.594,0.2,-0.9,-0.7,8.3,-8.6,-22.1,0.43427839,0.102816858,0.441755425,-0.778221992
346,870047,1853300,-0.541,-0.6,0.594,0.1,-0.7,-0.7,8.3,-8.6,-22.1,0.434247871,0.102816858,0.441724906,-0.77825251
347,871690,1853300,-0.541,-0.6,0.594,0.1,-0.7,-0.7,8.3,-8.6,-22.1,0.434247871,0.102816858,0.441724906,-0.77825251
348,874300,1853300,-0.545,-0.6,0.594,0.1,-0.7,-0.6,9.6,-8.6,-21.8,0.434247871,0.102725303,0.441694388,-0.778283029
349,876604,1853300,-0.546,-0.608,0.594,0.1,-0.7,-0.6,9.6,-8.6,-21.8,0.434247871,0.102725303,0.441694388,-0.778283029
350,880505,1853310,-0.541,-0.6,0.594,0.2,-0.6,-0.6,9.6,-8.6,-21.8,0.434247871,0.102694784,0.441663869,-0.778313547
351,882652,1853310,-0.541,-0.604,0.59,0.4,-0.6,-0.5,9.7,-8.7,-22.1,0.434217353,0.102694784,0.441663869,-0.778313547
352,884816,1853310,-0.542,-0.608,0.594,0.5,-0.7,-0.4,9.7,-8.7,-22.1,0.434217353,0.102633747,0.441633351,-0.778313547
353,886990,1853310,-0.542,-0.608,0.598,0.6,-0.6,-0.4,9.7,-8.7,-22.1,0.434217353,0.102633747,0.441633351,-0.778313547
354,889401,1853320,-0.545,-0.604,0.602,0.6,-0.5,-0.4,9.7,-8.7,-22.1,0.434217353,0.102633747,0.441602832,-0.778313547
355,891575,1853320,-0.542,-0.612,0.598,0.5,-0.3,-0.4,9.4,-8.6,-21.6,0.434217353,0.102633747,0.441602832,-0.778374584
356,894160,1853320,-0.542,-0.608,0.594,0.5,-0.1,-0.4,9.4,-8.6,-21.6,0.434217353,0.102633747,0.441602832,-0.778374584
357,898300,1853320,-0.545,-0.604,0.598,0.5,0,-0.4,9.4,-8.6,-21.6,0.434186834,0.102633747,0.441572314,-0.778374584
358,900296,1853330,-0.545,-0.604,0.594,0.5,0.1,-0.4,9.4,-8.6,-21.6,0.434186834,0.102633747,0.441572314,-0.778405103
359,902059,1853330,-0.545,-0.604,0.598,0.7,0.1,-0.1,9.6,-8.5,-22.3,0.434186834,0.102633747,0.441572314,-0.778405103
360,904396,1853330,-0.545,-0.604,0.59,0.7,0.1,-0.1,9.6,-8.5,-22.3,0.434186834,0.102633747,0.441572314,-0.778405103
361,906633,1853330,-0.542,-0.608,0.594,0.7,0.1,-0.1,9.6,-8.5,-22.3,0.434186834,0.102633747,0.441541795,-0.778405103
362,909163,1853340,-0.545,-0.604,0.594,0.7,0.1,-0.2,9.6,-8.5,-22.3,0.434156316,0.102694784,0.441541795,-0.778435621
363,912834,1853340,-0.545,-0.6,0.59,0.6,0,-0.4,7.4,-8.7,-21.5,0.434156316,0.102694784,0.441511277,-0.778435621
364,915144,1853340,-0.541,-0.6,0.594,0.5,0,-0.6,7.4,-8.7,-21.5,0.434156316,0.102694784,0.441511277,-0.778435621
365,917377,1853340,-0.542,-0.604,0.586,0.5,0.1,-0.7,7.4,-8.7,-21.5,0.434125797,0.102694784,0.441511277,-0.77846614
366,919615,1853350,-0.537,-0.6,0.594,0.5,0.2,-0.7,7.4,-8.7,-21.5,0.434125797,0.102694784,0.441511277,-0.77846614
367,921834,1853350,-0.537,-0.6,0.594,0.5,0.2,-0.7,7.4,-8.7,-21.5,0.434125797,0.102694784,0.441511277,-0.77846614
368,924174,1853350,-0.541,-0.596,0.59,0.8,0.3,-0.8,10.3,-8.8,-21.7,0.43406476,0.102633747,0.441480758,-0.778527177
369,926736,1853350,-0.541,-0.6,0.582,0.8,0.3,-0.8,10.3,-8.8,-21.7,0.434034242,0.102633747,0.44145024,-0.778527177
370,930411,1853360,-0.541,-0.592,0.594,0.9,0.3,-0.9,10.3,-8.8,-21.7,0.434034242,0.102633747,0.44145024,-0.778557695
371,932644,1853360,-0.541,-0.604,0.59,1,0.3,-1.1,10.7,-8.5,-21.5,0.434003723,0.102633747,0.44145024,-0.778588214
372,934866,1853360,-0.537,-0.6,0.59,1.2,0.2,-1.4,10.7,-8.5,-21.5,0.433973205,0.102633747,0.441419721,-0.778588214
373,937165,1853360,-0.537,-0.596,0.59,1.3,0.1,-1.5,10.7,-8.5,-21.5,0.433942686,0.102633747,0.441389203,-0.778618732
374,939466,1853370,-0.541,-0.6,0.594,1.3,0.1,-1.6,10.7,-8.5,-21.5,0.433912168,0.102633747,0.441389203,-0.778649251
375,941690,1853370,-0.534,-0.6,0.586,1.3,0.2,-1.7,10.7,-8.1,-21.8,0.433881649,0.102633747,0.441358684,-0.778679769
376,944991,1853370,-0.537,-0.6,0.586,1.3,0.2,-1.7,10.7,-8.1,-21.8,0.433851131,0.102633747,0.441358684,-0.778710288
377,947097,1853370,-0.538,-0.604,0.59,1.3,0.3,-1.8,10.7,-8.1,-21.8,0.433790094,0.102633747,0.441328166,-0.778740806
378,949414,1853380,-0.538,-0.604,0.59,1.3,0.4,-1.8,10.7,-8.1,-21.8,0.433759575,0.102633747,0.441328166,-0.778771325
379,951702,1853380,-0.538,-0.6,0.582,1.4,0.6,-2.1,10.5,-8.4,-21.6,0.433729057,0.102694784,0.441297647,-0.778801843
380,955029,1853380,-0.537,-0.6,0.586,1.4,0.6,-2.1,10.5,-8.4,-21.6,0.43366802,0.102694784,0.441297647,-0.778832362
381,957308,1853380,-0.542,-0.604,0.579,1.5,0.5,-2.2,10.5,-8.4,-21.6,0.433637501,0.102694784,0.441267129,-0.77886288
382,959292,1853390,-0.538,-0.604,0.586,1.6,0.5,-2.3,10.5,-8.4,-21.6,0.433576464,0.102694784,0.441267129,-0.778923917
383,962275,1853390,-0.53,-0.604,0.586,1.6,0.4,-2.5,9.3,-8.6,-22,0.433515427,0.102694784,0.44123661,-0.778954436
384,964094,1853390,-0.534,-0.6,0.586,1.6,0.2,-2.5,9.3,-8.6,-22,0.433484909,0.102694784,0.44123661,-0.778984954
385,966768,1853390,-0.534,-0.6,0.586,1.6,0.1,-2.6,9.3,-8.6,-22,0.433423872,0.102633747,0.441206091,-0.779015473
386,969925,1853400,-0.53,-0.612,0.586,1.7,0.2,-2.6,9.3,-8.6,-22,0.433362835,0.102633747,0.441175573,-0.77907651
387,972555,1853400,-0.53,-0.612,0.586,1.7,0.2,-2.6,9.3,-8.6,-22,0.433362835,0.102633747,0.441175573,-0.77907651
388,974205,1853400,-0.53,-0.608,0.586,1.9,0.3,-2.6,7.6,-8.6,-22.2,0.433210242,0.102542192,0.441175573,-0.779198584
389,977366,1853400,-0.53,-0.612,0.59,1.9,0.3,-2.6,7.6,-8.6,-22.2,0.433149205,0.102542192,0.441145054,-0.779229102
390,980980,1853410,-0.526,-0.612,0.586,1.9,0.3,-2.5,7.6,-8.6,-22.2,0.433088168,0.102542192,0.441114536,-0.779259621
391,982637,1853410,-0.534,-0.616,0.586,1.8,0.4,-2.5,6.2,-8.2,-21.9,0.433057649,0.102542192,0.441114536,-0.779320658
392,984134,1853410,-0.53,-0.608,0.59,1.7,0.5,-2.5,6.2,-8.2,-21.9,0.432996612,0.102542192,0.441084017,-0.779351176
393,986868,1853410,-0.534,-0.604,0.582,1.6,0.7,-2.5,6.2,-8.2,-21.9,0.432935575,0.102542192,0.441084017,-0.779381695
394,989836,1853420,-0.534,-0.6,0.586,1.4,0.9,-2.6,6.2,-8.2,-21.9,0.432874538,0.102542192,0.441053499,-0.779442732
395,991718,1853420,-0.538,-0.604,0.586,1.3,0.8,-2.8,5.7,-8.6,-22.1,0.432813501,0.102542192,0.441053499,-0.779473251
396,995220,1853420,-0.534,-0.6,0.59,1.2,0.7,-2.9,5.7,-8.6,-22.1,0.432752464,0.102542192,0.441053499,-0.779503769
397,996750,1853420,-0.534,-0.608,0.59,1.3,0.5,-2.8,5.7,-8.6,-22.1,0.432691427,0.102542192,0.44102298,-0.779534288
398,999135,1853430,-0.538,-0.604,0.594,1.4,0.4,-2.8,5.7,-8.6,-22.1,0.432660909,0.102511673,0.44102298,-0.779595325
399,1001675,1853430,-0.538,-0.604,0.59,1.3,0.4,-2.7,5.4,-8.7,-22.1,0.432599872,0.102511673,0.44102298,-0.779625843
400,1005005,1853430,-0.538,-0.608,0.586,1.3,0.4,-2.7,5.4,-8.7,-22.1,0.432538835,0.102511673,0.440992462,-0.779656362
401,1006712,1853430,-0.538,-0.6,0.582,1.2,0.5,-2.8,5.4,-8.7,-22.1,0.432477798,0.102511673,0.440992462,-0.77968688
402,1010293,1853440,-0.541,-0.6,0.586,1,0.7,-2.9,5.4,-8.7,-22.1,0.432416761,0.102511673,0.440992462,-0.779747917
403,1011893,1853440,-0.545,-0.604,0.59,0.9,0.7,-3.2,10.7,-9.8,-21.8,0.432355724,0.102481155,0.440992462,-0.779778436
404,1014390,1853440,-0.538,-0.6,0.582,0.8,0.6,-3.4,10.7,-9.8,-21.8,0.432294687,0.102481155,0.440992462,-0.779808954
405,1017494,1853440,-0.538,-0.604,0.582,0.6,0.4,-3.6,10.7,-9.8,-21.8,0.43223365,0.102450636,0.440992462,-0.779839473
406,1019322,1853450,-0.538,-0.6,0.582,0.5,0,-3.6,10.7,-9.8,-21.8,0.432172613,0.102420118,0.440992462,-0.77990051
407,1021778,1853450,-0.538,-0.6,0.582,0.5,0,-3.6,10.7,-9.8,-21.8,0.432172613,0.102420118,0.440992462,-0.77990051
408,1025249,1853450,-0.546,-0.604,0.583,0.5,0,-3.9,7.3,-7.3,-21.9,0.431989502,0.102328562,0.441053499,-0.779961547
409,1027381,1853450,-0.538,-0.604,0.575,0.5,0,-3.9,7.3,-7.3,-21.9,0.431928465,0.102298044,0.441053499,-0.779992065
410,1029777,1853460,-0.538,-0.604,0.582,0.6,0.1,-3.9,7.3,-7.3,-21.9,0.431867428,0.102267525,0.441053499,-0.780053102
411,1031837,1853460,-0.534,-0.612,0.586,0.9,0.1,-3.8,8.2,-7.3,-21.7,0.431806391,0.102237007,0.441053499,-0.780083621
412,1034182,1853460,-0.534,-0.604,0.598,0.9,0.1,-3.8,8.2,-7.3,-21.7,0.431714835,0.102206488,0.44102298,-0.780114139
413,1037607,1853460,-0.534,-0.608,0.59,1,0,-3.7,8.2,-7.3,-21.7,0.431653798,0.102145451,0.44102298,-0.780175176
414,1039840,1853470,-0.53,-0.604,0.59,0.9,0,-3.7,8.2,-7.3,-21.7,0.431592761,0.102145451,0.44102298,-0.780205695
415,1042104,1853470,-0.538,-0.604,0.582,0.8,0,-3.7,9.5,-7,-21.7,0.431531724,0.102145451,0.44102298,-0.780266732
416,1044635,1853470,-0.534,-0.608,0.594,0.5,0.2,-3.6,9.5,-7,-21.7,0.431470687,0.102114933,0.44102298,-0.78029725
417,1047010,1853470,-0.538,-0.612,0.598,0.2,0.4,-3.6,9.5,-7,-21.7,0.431379131,0.102084414,0.44102298,-0.780327769
418,1049175,1853480,-0.53,-0.608,0.594,0,0.5,-3.4,9.5,-7,-21.7,0.431318094,0.102053896,0.44102298,-0.780358287
419,1051748,1853480,-0.53,-0.608,0.598,0.1,0.5,-3.4,10.3,-7.4,-21.3,0.431257057,0.102023377,0.441053499,-0.780388806
420,1056122,1853480,-0.534,-0.612,0.606,0.2,0.5,-3.4,10.3,-7.4,-21.3,0.43119602,0.102023377,0.441053499,-0.780449843
421,1056911,1853480,-0.534,-0.612,0.602,0.3,0.6,-3.4,10.3,-7.4,-21.3,0.431134983,0.101992859,0.441053499,-0.780480361
422,1059500,1853490,-0.533,-0.604,0.602,0.3,0.6,-3.4,10.3,-7.4,-21.3,0.431073946,0.10196234,0.441053499,-0.78051088
423,1062016,1853490,-0.53,-0.604,0.606,0.1,0.7,-3.3,9.2,-9.4,-21.9,0.431012909,0.10196234,0.441084017,-0.780541398
424,1064196,1853490,-0.538,-0.608,0.598,-0.2,1,-3.2,9.2,-9.4,-21.9,0.430951872,0.101931822,0.441114536,-0.780571917
425,1066849,1853490,-0.538,-0.608,0.598,-0.7,1.2,-3.2,9.2,-9.4,-21.9,0.430860317,0.101931822,0.441145054,-0.780571917
426,1069958,1853500,-0.541,-0.604,0.594,-1,1.5,-3.2,9.2,-9.4,-21.9,0.43079928,0.101901303,0.441175573,-0.780602435
427,1071744,1853500,-0.541,-0.604,0.594,-1,1.5,-3.2,9.2,-9.4,-21.9,0.43079928,0.101901303,0.441175573,-0.780602435
428,1074508,1853500,-0.538,-0.612,0.606,-1.2,2.4,-3.2,9.1,-7.9,-21.7,0.430646687,0.101840266,0.44123661,-0.780663472
429,1077581,1853500,-0.534,-0.608,0.598,-1.2,2.4,-3.2,9.1,-7.9,-21.7,0.43058565,0.101840266,0.441267129,-0.780663472
430,1079894,1853510,-0.538,-0.612,0.606,-0.9,2.3,-3.2,9.1,-7.9,-21.7,0.430494095,0.101840266,0.441328166,-0.780693991
431,1082901,1853510,-0.538,-0.616,0.606,-0.5,2.3,-3.2,8.9,-8.1,-21.9,0.430433058,0.101840266,0.441358684,-0.780724509
432,1085167,1853510,-0.538,-0.62,0.606,-0.1,2.3,-3.3,8.9,-8.1,-21.9,0.430341502,0.101840266,0.441389203,-0.780724509
433,1087433,1853510,-0.542,-0.616,0.61,0.2,2.4,-3.4,8.9,-8.1,-21.9,0.430249947,0.101870785,0.441419721,-0.780755028
434,1090385,1853520,-0.542,-0.616,0.602,0.5,2.6,-3.3,8.9,-8.1,-21.9,0.430158391,0.101870785,0.44145024,-0.780785546
435,1092989,1853520,-0.542,-0.612,0.602,0.9,2.7,-3.3,9.2,-8.4,-21.8,0.430097354,0.101901303,0.44145024,-0.780846583
436,1095291,1853520,-0.545,-0.612,0.61,1.1,2.7,-3.3,9.2,-8.4,-21.8,0.430005799,0.101931822,0.441480758,-0.780877102
437,1097517,1853520,-0.55,-0.616,0.606,1.2,2.7,-3.4,9.2,-8.4,-21.8,0.429914243,0.10196234,0.441480758,-0.78090762
438,1099814,1853530,-0.541,-0.608,0.61,1.3,2.8,-3.6,9.2,-8.4,-21.8,0.429822687,0.101992859,0.441511277,-0.780938139
439,1102471,1853530,-0.538,-0.608,0.606,1.6,2.9,-3.9,9.2,-9.1,-21.9,0.429731132,0.102023377,0.441511277,-0.780999176
440,1104254,1853530,-0.537,-0.604,0.602,2.1,2.9,-4.1,9.2,-9.1,-21.9,0.429609058,0.102053896,0.441511277,-0.781060213
441,1106773,1853530,-0.537,-0.604,0.598,2.5,2.7,-4.2,9.2,-9.1,-21.9,0.429517502,0.102084414,0.441511277,-0.781090732
442,1110242,1853540,-0.541,-0.6,0.594,2.7,2.6,-4.2,9.2,-9.1,-21.9,0.429395428,0.102114933,0.441480758,-0.781151769
443,1111809,1853540,-0.545,-0.596,0.59,2.8,2.7,-4.2,9.2,-7.3,-21.5,0.429303873,0.102145451,0.441480758,-0.781212806
444,1114863,1853540,-0.545,-0.596,0.586,2.7,2.9,-4.2,9.2,-7.3,-21.5,0.429181799,0.102145451,0.44145024,-0.781273843
445,1116788,1853540,-0.541,-0.6,0.586,2.5,3.2,-4.2,9.2,-7.3,-21.5,0.429090243,0.102206488,0.44145024,-0.78133488
446,1119222,1853550,-0.541,-0.592,0.59,2.4,3.5,-4.6,9.2,-7.3,-21.5,0.428968169,0.102237007,0.44145024,-0.781395917
447,1123405,1853550,-0.541,-0.592,0.59,2.4,3.5,-4.6,9.2,-7.3,-21.5,0.428968169,0.102237007,0.44145024,-0.781395917
448,1125567,1853550,-0.549,-0.596,0.59,2.7,3.9,-5.1,8.8,-10,-21.9,0.428724021,0.102389599,0.44145024,-0.781517991
449,1127805,1853550,-0.549,-0.596,0.587,2.7,3.9,-5.1,8.8,-10,-21.9,0.428601947,0.102420118,0.44145024,-0.781579028
450,1129345,1853560,-0.549,-0.592,0.59,2.7,3.8,-5.3,8.8,-10,-21.9,0.428479873,0.102450636,0.44145024,-0.781670583
451,1131715,1853560,-0.553,-0.596,0.583,2.8,3.7,-5.6,8.7,-10.2,-22.1,0.42832728,0.102511673,0.44145024,-0.78173162
452,1134928,1853560,-0.553,-0.604,0.583,2.7,3.6,-6,8.7,-10.2,-22.1,0.428174688,0.102542192,0.44145024,-0.781792657
453,1136709,1853560,-0.545,-0.6,0.59,2.5,3.5,-6.3,8.7,-10.2,-22.1,0.428022095,0.102542192,0.44145024,-0.781884213
454,1140129,1853570,-0.534,-0.6,0.59,2.5,3.6,-6.6,8.7,-10.2,-22.1,0.427869503,0.10257271,0.44145024,-0.78194525
455,1141723,1853570,-0.533,-0.596,0.594,2.6,3.7,-7.1,9.2,-10.3,-22,0.42771691,0.102603229,0.44145024,-0.782036805
456,1144776,1853570,-0.533,-0.596,0.586,2.8,3.6,-7.6,9.2,-10.3,-22,0.427533799,0.102603229,0.441480758,-0.782128361
457,1146628,1853570,-0.538,-0.6,0.571,2.6,3.5,-7.9,9.2,-10.3,-22,0.427381207,0.102603229,0.441480758,-0.782219916
458,1150102,1853580,-0.538,-0.612,0.578,2.2,3.4,-8,9.2,-10.3,-22,0.427198096,0.102633747,0.441480758,-0.782311472
459,1151859,1853580,-0.542,-0.608,0.586,1.8,3.6,-7.9,9.6,-10.2,-22.1,0.427014985,0.102633747,0.441511277,-0.782403027
460,1154120,1853580,-0.534,-0.612,0.59,1.5,4.2,-7.9,9.6,-10.2,-22.1,0.426831874,0.102633747,0.441541795,-0.782464064
461,1157608,1853580,-0.542,-0.62,0.594,1.6,4.7,-7.9,9.6,-10.2,-22.1,0.426648762,0.102633747,0.441572314,-0.78255562
462,1159233,1853590,-0.538,-0.62,0.59,1.8,5.2,-7.7,9.6,-10.2,-22.1,0.426465651,0.102694784,0.441602832,-0.782647176
463,1162171,1853590,-0.538,-0.62,0.594,1.9,5.5,-7.6,9.3,-7.6,-20.3,0.426252022,0.102725303,0.441633351,-0.782708213
464,1165083,1853590,-0.542,-0.616,0.59,1.9,5.6,-7.6,9.3,-7.6,-20.3,0.426099429,0.102755821,0.441663869,-0.782799768
465,1166743,1853590,-0.538,-0.616,0.594,1.7,5.7,-7.6,9.3,-7.6,-20.3,0.4258858,0.102816858,0.441724906,-0.782860805
466,1169586,1853600,-0.538,-0.62,0.598,1.7,6,-7.8,9.3,-7.6,-20.3,0.425702689,0.102847377,0.441755425,-0.782952361
467,1172650,1853600,-0.538,-0.62,0.598,1.7,6,-7.8,9.3,-7.6,-20.3,0.425702689,0.102847377,0.441755425,-0.782952361
468,1174167,1853600,-0.538,-0.616,0.594,2.2,6.5,-8.3,9.6,-8.6,-23.1,0.425244911,0.102908414,0.441877499,-0.783104953
469,1176865,1853600,-0.546,-0.612,0.598,2.5,6.5,-8.5,9.6,-8.6,-23.1,0.425031281,0.102969451,0.441877499,-0.783196509
470,1179932,1853610,-0.546,-0.612,0.594,2.8,6.5,-8.7,9.6,-8.6,-23.1,0.424817652,0.102999969,0.441938536,-0.783288064
471,1181834,1853610,-0.557,-0.608,0.587,2.8,6.6,-8.7,10.2,-7.8,-23.4,0.424604022,0.103061007,0.441969054,-0.78337962
472,1185393,1853610,-0.557,-0.608,0.595,2.5,6.8,-8.7,10.2,-7.8,-23.4,0.424390393,0.103122044,0.441999573,-0.783471175
473,1186880,1853610,-0.557,-0.608,0.591,2.3,7,-8.5,10.2,-7.8,-23.4,0.424146245,0.103183081,0.44206061,-0.783562731
474,1190087,1853620,-0.554,-0.612,0.591,2.3,7.1,-8.3,10.2,-7.8,-23.4,0.423932615,0.103244118,0.442091128,-0.783654286
475,1191648,1853620,-0.55,-0.62,0.587,2.5,6.9,-8.2,9.7,-7.4,-23.1,0.423718986,0.103305155,0.442121647,-0.783745842
476,1194910,1853620,-0.546,-0.627,0.59,2.7,6.6,-8.3,9.7,-7.4,-23.1,0.423505356,0.103366192,0.442152165,-0.783837397
477,1196978,1853620,-0.55,-0.635,0.587,3.1,6.3,-8.6,9.7,-7.4,-23.1,0.423291726,0.103427229,0.442182684,-0.783928953
478,1199313,1853630,-0.546,-0.627,0.594,3.5,6.1,-9.2,9.7,-7.4,-23.1,0.423078097,0.103457747,0.442213202,-0.784020508
479,1201974,1853630,-0.542,-0.631,0.594,4,5.9,-9.6,9.9,-7,-23.4,0.422833949,0.103518784,0.442213202,-0.784142582
480,1204153,1853630,-0.542,-0.628,0.598,4.3,5.9,-10,9.9,-7,-23.4,0.422589801,0.103549303,0.442213202,-0.784264657
481,1207620,1853630,-0.542,-0.624,0.594,4.5,6,-10.1,9.9,-7,-23.4,0.422345653,0.10361034,0.442213202,-0.784386731
482,1209804,1853640,-0.55,-0.627,0.594,4.5,6.2,-10,9.9,-7,-23.4,0.422132023,0.103671377,0.442213202,-0.784508805
483,1212033,1853640,-0.558,-0.627,0.595,4.5,6.4,-9.7,9.6,-8.7,-21.6,0.421887875,0.103732414,0.442213202,-0.784630879
484,1214266,1853640,-0.562,-0.627,0.595,4.5,6.7,-9.3,9.6,-8.7,-21.6,0.421643727,0.103793451,0.442213202,-0.784752953
485,1217028,1853640,-0.558,-0.627,0.599,4.7,6.8,-9,9.6,-8.7,-21.6,0.421399579,0.103854488,0.442213202,-0.784844508
486,1219180,1853650,-0.558,-0.627,0.595,5,6.8,-8.9,9.6,-8.7,-21.6,0.421185949,0.103946043,0.442213202,-0.784966582
487,1221871,1853650,-0.558,-0.627,0.595,5,6.8,-8.9,9.6,-8.7,-21.6,0.421185949,0.103946043,0.442213202,-0.784966582
488,1225189,1853650,-0.562,-0.627,0.595,5.7,6.6,-9,10.1,-8.2,-21.7,0.420697653,0.104098636,0.442243721,-0.785180212
489,1226760,1853650,-0.562,-0.635,0.599,5.9,6.5,-9.3,10.1,-8.2,-21.7,0.420484024,0.10422071,0.442243721,-0.785302286
490,1230096,1853660,-0.566,-0.627,0.591,6.2,6.4,-9.4,10.1,-8.2,-21.7,0.420239875,0.104281747,0.442213202,-0.785454878
491,1232391,1853660,-0.566,-0.639,0.595,6.6,6.4,-9.4,10,-8.8,-21.1,0.419995727,0.104373302,0.442182684,-0.785576952
492,1234576,1853660,-0.558,-0.639,0.587,7,6.1,-9.4,10,-8.8,-21.1,0.419751579,0.104464858,0.442121647,-0.785729545
493,1236778,1853660,-0.562,-0.647,0.583,7.3,5.9,-9.5,10,-8.8,-21.1,0.41953795,0.104525895,0.442091128,-0.785851619
494,1239271,1853670,-0.566,-0.639,0.583,7.6,5.9,-9.5,10,-8.8,-21.1,0.419293802,0.104586932,0.442030091,-0.786004212
495,1242012,1853670,-0.562,-0.643,0.579,7.8,5.8,-9.5,10.1,-8.3,-19.8,0.419049654,0.104678488,0.441969054,-0.786126286
496,1245126,1853670,-0.562,-0.647,0.587,8,5.9,-9.5,10.1,-8.3,-19.8,0.418805506,0.104770043,0.441877499,-0.786309397
497,1246691,1853670,-0.566,-0.643,0.583,8.1,6,-9.6,10.1,-8.3,-19.8,0.418561357,0.104861599,0.44184698,-0.786461989
498,1249387,1853680,-0.562,-0.639,0.583,8.2,6.2,-9.6,10.1,-8.3,-19.8,0.418317209,0.104953154,0.441785943,-0.786614582
499,1252623,1853680,-0.558,-0.643,0.583,8.4,6.4,-9.6,10.3,-8.4,-19,0.418073061,0.10504471,0.441724906,-0.786767174
500,1254324,1853680,-0.562,-0.643,0.579,8.7,6.4,-9.5,10.3,-8.4,-19,0.417828913,0.105136265,0.441633351,-0.786919767
501,1256662,1853680,-0.558,-0.643,0.583,9.1,6.4,-9.5,10.3,-8.4,-19,0.417584765,0.105258339,0.441572314,-0.787102878
502,1260143,1853690,-0.562,-0.647,0.575,9.5,6.4,-9.6,10.3,-8.4,-19,0.417340617,0.105349895,0.441480758,-0.78725547
503,1261882,1853690,-0.554,-0.647,0.571,9.9,6.3,-9.7,9.8,-8.6,-23.7,0.41706595,0.10544145,0.441389203,-0.787438581
504,1264107,1853690,-0.558,-0.643,0.579,10.4,6.2,-9.7,9.8,-8.6,-23.7,0.416821802,0.105563524,0.441297647,-0.787591174
505,1267646,1853690,-0.558,-0.647,0.575,10.7,6.2,-9.8,9.8,-8.6,-23.7,0.416577654,0.105685598,0.441175573,-0.787774285
506,1269129,1853700,-0.55,-0.655,0.579,11,6.1,-9.9,9.8,-8.6,-23.7,0.416302988,0.105777154,0.441084017,-0.787957396
507,1271694,1853700,-0.55,-0.655,0.579,11,6.1,-9.9,9.8,-8.6,-23.7,0.416302988,0.105777154,0.441084017,-0.787957396
508,1275130,1853700,-0.546,-0.663,0.583,11.7,6.1,-9.7,10.3,-8.5,-20.4,0.415662099,0.105990783,0.441267129,-0.788171026
509,1276658,1853700,-0.546,-0.655,0.591,12.1,6.3,-9.6,10.3,-8.5,-20.4,0.415387432,0.106112857,0.441145054,-0.788384655
510,1279748,1853710,-0.538,-0.659,0.594,12.4,6.6,-9.6,10.3,-8.5,-20.4,0.415143284,0.10626545,0.440992462,-0.788567766
511,1281609,1853710,-0.534,-0.659,0.598,12.8,7,-9.6,10.5,-9.1,-20.6,0.414868618,0.106387524,0.440870388,-0.788750877
512,1285151,1853710,-0.538,-0.655,0.606,13.1,7.3,-9.6,10.5,-9.1,-20.6,0.414593951,0.106540117,0.440717795,-0.788964507
513,1286683,1853710,-0.538,-0.651,0.598,13.3,7.5,-9.8,10.5,-9.1,-20.6,0.414319285,0.106692709,0.440595721,-0.789147618
514,1289252,1853720,-0.538,-0.643,0.594,13.5,7.7,-9.8,10.5,-9.1,-20.6,0.414044618,0.10687582,0.440443129,-0.789361248
515,1293332,1853720,-0.53,-0.64,0.602,13.6,7.9,-9.8,10.3,-8.5,-21.3,0.413769951,0.107028413,0.440321055,-0.789574877
516,1295698,1853720,-0.53,-0.632,0.606,13.7,8,-9.5,10.3,-8.5,-21.3,0.413495285,0.107211524,0.440168462,-0.789757988
517,1297919,1853720,-0.53,-0.632,0.613,13.7,8.2,-9.2,10.3,-8.5,-21.3,0.413220618,0.107394635,0.44001587,-0.789971618
518,1300140,1853730,-0.526,-0.632,0.613,13.7,8.5,-8.9,10.3,-8.5,-21.3,0.41297647,0.107577746,0.439893796,-0.790154729
519,1301781,1853730,-0.534,-0.628,0.617,13.7,8.7,-8.7,10.3,-8.7,-22.3,0.412701804,0.107760857,0.439741203,-0.79033784
520,1304964,1853730,-0.53,-0.628,0.617,13.6,9.1,-8.5,10.3,-8.7,-22.3,0.412427137,0.107943968,0.439619129,-0.790520951
521,1306887,1853730,-0.534,-0.628,0.621,13.3,9.4,-8.5,10.3,-8.7,-22.3,0.41215247,0.108157598,0.439497055,-0.790704062
522,1309279,1853740,-0.53,-0.624,0.621,13,9.9,-8.4,10.3,-8.7,-22.3,0.411877804,0.108371227,0.439374981,-0.790887173
523,1312265,1853740,-0.534,-0.628,0.625,12.7,10.4,-8.2,10.3,-8.9,-21.8,0.411603137,0.108584857,0.439252907,-0.791070284
524,1314419,1853740,-0.534,-0.624,0.621,12.3,10.8,-8,10.3,-8.9,-21.8,0.411328471,0.108798486,0.439161351,-0.791222877
525,1316710,1853740,-0.534,-0.62,0.621,11.9,11.1,-7.9,10.3,-8.9,-21.8,0.411084323,0.108981597,0.439069796,-0.791375469
526,1319377,1853750,-0.53,-0.62,0.625,11.6,11.4,-7.9,10.3,-8.9,-21.8,0.410809656,0.109256264,0.439008759,-0.791528062
527,1323480,1853750,-0.53,-0.62,0.625,11.6,11.4,-7.9,10.3,-8.9,-21.8,0.410809656,0.109256264,0.439008759,-0.791528062
528,1324147,1853750,-0.53,-0.62,0.621,11,11.9,-7.8,10.6,-8.7,-21.8,0.410229804,0.109561449,0.438734092,-0.791924802
529,1327301,1853750,-0.53,-0.62,0.617,10.7,12.1,-7.8,10.6,-8.7,-21.8,0.409955138,0.109805597,0.438673055,-0.792077395
530,1329411,1853760,-0.526,-0.616,0.613,10.7,12.3,-7.9,10.6,-8.7,-21.8,0.409680471,0.110019227,0.438612018,-0.792229987
531,1331812,1853760,-0.522,-0.62,0.617,10.6,12.5,-8,10.4,-8.7,-21.7,0.409405805,0.110263375,0.438550981,-0.79238258
532,1334507,1853760,-0.526,-0.616,0.613,10.7,12.7,-8.2,10.4,-8.7,-21.7,0.40910062,0.110507523,0.438520463,-0.792504654
533,1336690,1853760,-0.522,-0.62,0.609,10.8,12.9,-8.3,10.4,-8.7,-21.7,0.408795434,0.110751671,0.438459426,-0.792657247
534,1340079,1853770,-0.522,-0.624,0.609,11,13.2,-8.4,10.4,-8.7,-21.7,0.408520768,0.110995819,0.438398389,-0.792809839
535,1341987,1853770,-0.522,-0.62,0.598,11,13.5,-8.5,10.3,-9.2,-21.7,0.408215583,0.111239967,0.43836787,-0.792962432
536,1344183,1853770,-0.522,-0.624,0.594,10.8,13.8,-8.5,10.3,-9.2,-21.7,0.407910398,0.111484115,0.438306833,-0.793115024
537,1347595,1853770,-0.522,-0.628,0.594,10.7,14,-8.5,10.3,-9.2,-21.7,0.407605213,0.111758782,0.438276315,-0.793237098
538,1349506,1853780,-0.518,-0.628,0.582,10.5,14.1,-8.5,10.3,-9.2,-21.7,0.407269509,0.11200293,0.438245796,-0.793389691
539,1351806,1853780,-0.522,-0.628,0.566,10.4,14.2,-8.7,10.7,-8.7,-21.3,0.406964324,0.112247078,0.438215278,-0.793542283
540,1354633,1853780,-0.522,-0.624,0.566,10.5,14.5,-8.7,10.7,-8.7,-21.3,0.406659139,0.112521744,0.438184759,-0.793664357
541,1356693,1853780,-0.518,-0.616,0.57,10.7,14.5,-8.9,10.7,-8.7,-21.3,0.406323435,0.112796411,0.438123722,-0.79381695
542,1360104,1853790,-0.514,-0.616,0.566,10.7,14.7,-9.3,10.7,-8.7,-21.3,0.405987732,0.113040559,0.438093204,-0.793939024
543,1361725,1853790,-0.514,-0.601,0.558,10.4,14.8,-9.7,10.1,-9,-21.1,0.405652028,0.113284707,0.438093204,-0.794122135
544,1364270,1853790,-0.514,-0.593,0.566,9.8,15,-10.1,10.1,-9,-21.1,0.405316324,0.113559374,0.438062685,-0.794274728
545,1367691,1853790,-0.518,-0.589,0.558,9.1,15.2,-10.2,10.1,-9,-21.1,0.404980621,0.113803522,0.438062685,-0.794396802
546,1369845,1853800,-0.514,-0.581,0.562,8.4,15.6,-10.4,10.1,-9,-21.1,0.404614399,0.11404767,0.438093204,-0.794549394
547,1372092,1853800,-0.514,-0.581,0.562,8.4,15.6,-10.4,10.1,-9,-21.1,0.404614399,0.11404767,0.438093204,-0.794549394
548,1374277,1853800,-0.517,-0.565,0.574,6.8,16.4,-10.7,11.9,-8.7,-20.9,0.403881954,0.114505448,0.438215278,-0.794763024
549,1376677,1853800,-0.513,-0.565,0.582,6,16.6,-10.8,11.9,-8.7,-20.9,0.403515732,0.114749596,0.438276315,-0.794885098
550,1379182,1853810,-0.517,-0.565,0.59,5.2,16.9,-11,11.9,-8.7,-20.9,0.40314951,0.114993744,0.43836787,-0.795007172
551,1382662,1853810,-0.513,-0.573,0.589,4.3,17.1,-11,11.8,-8.7,-21.1,0.402783288,0.115207373,0.438489944,-0.795098727
552,1384173,1853810,-0.513,-0.577,0.593,3.2,17.2,-11.2,11.8,-8.7,-21.1,0.402417066,0.115421003,0.438612018,-0.795159764
553,1386923,1853810,-0.513,-0.577,0.597,1.9,17.5,-11.3,11.8,-8.7,-21.1,0.402050844,0.115634632,0.438764611,-0.79525132
554,1390175,1853820,-0.517,-0.585,0.601,0.7,18,-11.6,11.8,-8.7,-21.1,0.401684622,0.115817743,0.438917203,-0.795312357
555,1391785,1853820,-0.517,-0.589,0.597,-0.4,18.5,-11.8,11.9,-8.9,-21.1,0.401287881,0.116061892,0.439130833,-0.795373394
556,1394178,1853820,-0.525,-0.593,0.602,-1.4,18.9,-12.2,11.9,-8.9,-21.1,0.400921659,0.116245003,0.439344462,-0.795403912
557,1396649,1853820,-0.521,-0.597,0.601,-2,19.3,-12.5,11.9,-8.9,-21.1,0.400524918,0.116458632,0.43958861,-0.795464949
558,1399977,1853830,-0.518,-0.605,0.609,-2.3,19.8,-12.9,11.9,-8.9,-21.1,0.400097659,0.116641743,0.439832759,-0.795495468
559,1402042,1853830,-0.513,-0.597,0.609,-2.3,20.4,-13.2,12.2,-8.5,-21,0.3996704,0.116855373,0.440076907,-0.795525987
560,1404329,1853830,-0.518,-0.605,0.617,-2.1,20.9,-13.6,12.2,-8.5,-21,0.399243141,0.117069002,0.440351573,-0.795587024
561,1406965,1853830,-0.51,-0.605,0.625,-1.7,21.2,-13.9,12.2,-8.5,-21,0.398815882,0.117282632,0.440595721,-0.795617542
562,1409092,1853840,-0.517,-0.601,0.629,-1.4,21.5,-14.2,12.2,-8.5,-21,0.398358104,0.11752678,0.440839869,-0.795678579
563,1412611,1853840,-0.509,-0.601,0.628,-1,21.9,-14.6,9.9,-8.8,-20.8,0.397900327,0.11774041,0.441084017,-0.795739616
564,1414326,1853840,-0.51,-0.605,0.632,-0.6,22.4,-14.7,9.9,-8.8,-20.8,0.39741203,0.117984558,0.441328166,-0.795800653
565,1416595,1853840,-0.505,-0.601,0.632,0,22.9,-15,9.9,-8.8,-20.8,0.396954253,0.118259224,0.441572314,-0.795892209
566,1419706,1853850,-0.502,-0.605,0.632,0.6,23,-15.2,9.9,-8.8,-20.8,0.396465957,0.118503372,0.441785943,-0.795953246
567,1421669,1853850,-0.502,-0.605,0.632,0.6,23,-15.2,9.9,-8.8,-20.8,0.396465957,0.118503372,0.441785943,-0.795953246
568,1425167,1853850,-0.51,-0.609,0.609,2.7,23.3,-15.6,13.1,-9,-20.5,0.395458846,0.118930631,0.441999573,-0.796258431
569,1426709,1853850,-0.514,-0.612,0.601,3.8,23.5,-15.9,13.1,-9,-20.5,0.394940031,0.119235817,0.442182684,-0.796380505
570,1429765,1853860,-0.518,-0.608,0.594,5.1,23.8,-16.2,13.1,-9,-20.5,0.394421216,0.119541002,0.442335276,-0.796502579
571,1432672,1853860,-0.518,-0.608,0.594,6.3,24.1,-16.6,13.6,-8.9,-20.4,0.393871883,0.119846187,0.442487869,-0.796655171
572,1434126,1853860,-0.522,-0.608,0.586,7.8,24.4,-16.7,13.6,-8.9,-20.4,0.39332255,0.12018189,0.442609943,-0.796807764
573,1437273,1853860,-0.526,-0.608,0.578,9.4,24.6,-16.9,13.6,-8.9,-20.4,0.392773217,0.120517594,0.442701498,-0.796990875
574,1440197,1853870,-0.53,-0.6,0.57,11,24.7,-17.1,13.6,-8.9,-20.4,0.392193365,0.120883816,0.442762535,-0.797173986
575,1441726,1853870,-0.53,-0.593,0.566,12.3,24.8,-17.3,13.7,-8.6,-20.6,0.391644032,0.121250038,0.442793054,-0.797357097
576,1444712,1853870,-0.541,-0.58,0.551,13.5,25,-17.4,13.7,-8.6,-20.6,0.39106418,0.121646779,0.442823572,-0.797570727
577,1446577,1853870,-0.541,-0.577,0.547,14.6,25.3,-17.7,13.7,-8.6,-20.6,0.39045381,0.122043519,0.442823572,-0.797814875
578,1449940,1853880,-0.545,-0.565,0.543,15.7,25.6,-18.1,13.7,-8.6,-20.6,0.38984344,0.12244026,0.442823572,-0.798059023
579,1451636,1853880,-0.545,-0.561,0.536,16.7,25.8,-18.6,13.4,-8.5,-20.3,0.38923307,0.122837001,0.442793054,-0.798303171
580,1454268,1853880,-0.549,-0.553,0.532,17.5,25.8,-18.9,13.4,-8.5,-20.3,0.388592181,0.12326426,0.442762535,-0.798547319
581,1457292,1853880,-0.549,-0.549,0.532,18.1,25.8,-19.3,13.4,-8.5,-20.3,0.387981811,0.123691519,0.442732017,-0.798821986
582,1459083,1853890,-0.553,-0.549,0.524,18.5,25.8,-19.7,13.4,-8.5,-20.3,0.387310404,0.12408826,0.44267098,-0.799096652
583,1462531,1853890,-0.553,-0.549,0.532,18.7,25.9,-20,12.2,-9.1,-20.5,0.386669515,0.124515519,0.442609943,-0.799371319
584,1464237,1853890,-0.553,-0.541,0.524,18.7,26.1,-20.4,12.2,-9.1,-20.5,0.385998108,0.124942778,0.442579424,-0.799676504
585,1467758,1853890,-0.557,-0.541,0.528,18.5,26.2,-20.8,12.2,-9.1,-20.5,0.385357219,0.125339518,0.442518387,-0.79995117
586,1469427,1853900,-0.557,-0.545,0.528,18.1,26.3,-21.2,12.2,-9.1,-20.5,0.384655293,0.125736259,0.442487869,-0.800225837
587,1471826,1853900,-0.557,-0.545,0.528,18.1,26.3,-21.2,12.2,-9.1,-20.5,0.384655293,0.125736259,0.442487869,-0.800225837
588,1475259,1853900,-0.561,-0.56,0.544,16.8,26.4,-22.1,11.3,-8.8,-20.4,0.383342998,0.126682333,0.44245735,-0.800744652
589,1477658,1853900,-0.565,-0.564,0.544,16,26.4,-22.7,11.3,-8.8,-20.4,0.38267159,0.127079073,0.44245735,-0.8009888
590,1479215,1853910,-0.569,-0.564,0.556,15,26.4,-23.2,11.3,-8.8,-20.4,0.381969665,0.127445296,0.442487869,-0.801263466
591,1481688,1853910,-0.569,-0.572,0.556,13.8,26.4,-23.6,10.5,-8.9,-20.8,0.38123722,0.127780999,0.442518387,-0.801538133
592,1485141,1853910,-0.573,-0.576,0.564,12.6,26.4,-24,10.5,-8.9,-20.8,0.380535295,0.128116703,0.442579424,-0.801751762
593,1486649,1853910,-0.577,-0.584,0.572,11.4,26.5,-24.3,10.5,-8.9,-20.8,0.379833369,0.128452406,0.44267098,-0.801995911
594,1489150,1853920,-0.581,-0.58,0.572,10.3,26.7,-24.7,10.5,-8.9,-20.8,0.379100925,0.128757591,0.442793054,-0.802240059
595,1492607,1853920,-0.581,-0.583,0.58,9.3,26.9,-25.1,9.7,-9,-20.6,0.37836848,0.129062777,0.442915128,-0.802453688
596,1494185,1853920,-0.581,-0.587,0.583,8.6,27.1,-25.6,9.7,-9,-20.6,0.377636036,0.129367962,0.443067721,-0.802667318
597,1497135,1853920,-0.581,-0.583,0.591,8.2,27.3,-25.9,9.7,-9,-20.6,0.376903592,0.129673147,0.443220313,-0.802911466
598,1500168,1853930,-0.577,-0.58,0.591,7.8,27.4,-26.2,9.7,-9,-20.6,0.376140629,0.129947813,0.443372906,-0.803125095
599,1501695,1853930,-0.581,-0.58,0.595,7.5,27.6,-26.4,9.7,-9.1,-20.6,0.375408185,0.130252998,0.443556017,-0.803308206
600,1504172,1853930,-0.581,-0.576,0.603,7.3,27.6,-26.6,9.7,-9.1,-20.6,0.374645222,0.130527665,0.443708609,-0.803521836
601,1506611,1853930,-0.589,-0.575,0.603,7.3,27.5,-26.9,9.7,-9.1,-20.6,0.37388226,0.130802332,0.44389172,-0.803735466
602,1509938,1853940,-0.593,-0.579,0.599,7.4,27.3,-27.3,9.7,-9.1,-20.6,0.373119297,0.131076998,0.444074831,-0.803949095
603,1511648,1853940,-0.593,-0.583,0.599,7.7,27.1,-27.6,14.6,-10,-20,0.372356334,0.131351665,0.444227424,-0.804193243
604,1514390,1853940,-0.597,-0.579,0.596,8,26.8,-28,14.6,-10,-20,0.371562853,0.131626331,0.444380016,-0.804406873
605,1517482,1853940,-0.601,-0.583,0.596,8.2,26.5,-28.3,14.6,-10,-20,0.37079989,0.131870479,0.444532609,-0.804651021
606,1519803,1853950,-0.601,-0.583,0.6,8.2,26.3,-28.5,14.6,-10,-20,0.370006409,0.132145146,0.444685202,-0.804895169
607,1521870,1853950,-0.601,-0.583,0.6,8.2,26.3,-28.5,14.6,-10,-20,0.370006409,0.132145146,0.444685202,-0.804895169
608,1524973,1853950,-0.601,-0.595,0.588,7.6,26,-28.7,11.5,-7.7,-20.2,0.36854152,0.132755516,0.444898831,-0.805322428
609,1527081,1853950,-0.601,-0.599,0.588,7.4,25.8,-28.8,11.5,-7.7,-20.2,0.367748039,0.132999664,0.445051424,-0.805566576
610,1529348,1853960,-0.601,-0.607,0.572,7.4,25.6,-28.9,11.5,-7.7,-20.2,0.366985076,0.133213294,0.445234535,-0.805780206
611,1532077,1853960,-0.597,-0.611,0.568,7.6,25.4,-29,12.4,-7.5,-20.1,0.366191595,0.133426923,0.445387127,-0.806024354
612,1534173,1853960,-0.601,-0.611,0.568,8.1,25.2,-29.1,12.4,-7.5,-20.1,0.365428632,0.133671072,0.445509201,-0.806268502
613,1538163,1853960,-0.609,-0.61,0.565,8.6,25.2,-29.3,12.4,-7.5,-20.1,0.364635151,0.133884701,0.445661794,-0.80651265
614,1540248,1853970,-0.621,-0.61,0.549,9.1,25.2,-29.4,12.4,-7.5,-20.1,0.36384167,0.134128849,0.445783868,-0.806756798
615,1541756,1853970,-0.625,-0.614,0.55,9.4,25.1,-29.5,13.4,-7.4,-20.4,0.363048189,0.134342479,0.445905942,-0.807000946
616,1544600,1853970,-0.625,-0.61,0.546,9.9,25.1,-29.5,13.4,-7.4,-20.4,0.362254707,0.134586627,0.445997497,-0.807275613
617,1547811,1853970,-0.629,-0.606,0.542,10.5,25,-29.5,13.4,-7.4,-20.4,0.361461226,0.134830775,0.446119572,-0.807519761
618,1549307,1853980,-0.633,-0.602,0.546,11.4,24.8,-29.5,13.4,-7.4,-20.4,0.360667745,0.135074923,0.446180609,-0.807794427
619,1552584,1853980,-0.641,-0.602,0.55,12.5,24.7,-29.5,14.6,-7.6,-19.8,0.359843745,0.135319071,0.446241646,-0.808069094
620,1554646,1853980,-0.645,-0.602,0.55,13.8,24.4,-29.4,14.6,-7.6,-19.8,0.359080782,0.135563219,0.446272164,-0.808374279
621,1556926,1853980,-0.653,-0.59,0.55,15,24.3,-29.2,14.6,-7.6,-19.8,0.358287301,0.135837886,0.446302683,-0.808679464
622,1559369,1853990,-0.657,-0.586,0.554,15.9,24.1,-28.9,14.6,-7.6,-19.8,0.35749382,0.136082034,0.446302683,-0.808984649
623,1562829,1853990,-0.656,-0.582,0.554,16.7,23.8,-28.5,14,-9.1,-19.9,0.356700339,0.1363567,0.446272164,-0.809289834
624,1564389,1853990,-0.656,-0.574,0.558,17,23.3,-28,14,-9.1,-19.9,0.355906858,0.136631367,0.446241646,-0.809625538
625,1566614,1853990,-0.668,-0.554,0.574,17,22.8,-27.4,14,-9.1,-19.9,0.355174413,0.136906034,0.446180609,-0.809930723
626,1569400,1854000,-0.672,-0.546,0.578,16.8,22.4,-26.9,14,-9.1,-19.9,0.354411451,0.1371807,0.44615009,-0.810235908
627,1572663,1854000,-0.672,-0.546,0.578,16.8,22.4,-26.9,14,-9.1,-19.9,0.354411451,0.1371807,0.44615009,-0.810235908
628,1574153,1854000,-0.687,-0.522,0.582,15.6,21.8,-26.2,14.2,-8,-19.4,0.353526414,0.138889737,0.445875423,-0.810480056
629,1576787,1854000,-0.695,-0.522,0.59,14.7,21.5,-25.8,14.2,-8,-19.4,0.352824488,0.139133885,0.445844905,-0.810754723
630,1579903,1854010,-0.699,-0.518,0.59,13.4,21.2,-25.3,14.2,-8,-19.4,0.352122562,0.139378033,0.445844905,-0.811029389
631,1582203,1854010,-0.707,-0.51,0.598,11.9,21.2,-24.9,14,-8,-19.1,0.351420637,0.139591662,0.445875423,-0.811273537
632,1585172,1854010,-0.722,-0.486,0.61,10.3,21.1,-24.5,14,-8,-19.1,0.350749229,0.139805292,0.44593646,-0.811487167
633,1586673,1854010,-0.726,-0.478,0.61,8.4,20.8,-24.3,14,-8,-19.1,0.350077822,0.140018921,0.446028016,-0.811700797
634,1590246,1854020,-0.726,-0.466,0.622,6.2,20.5,-24.2,14,-8,-19.1,0.349467452,0.140202033,0.44615009,-0.811883908
635,1591628,1854020,-0.729,-0.45,0.626,3.5,20.2,-24.4,14.5,-8.3,-19.1,0.348826563,0.140324107,0.446302683,-0.8120365
636,1594471,1854020,-0.733,-0.434,0.626,0.6,20,-24.4,14.5,-8.3,-19.1,0.348185675,0.140446181,0.446516312,-0.812158574
637,1597539,1854020,-0.737,-0.43,0.626,-2.4,19.8,-24.2,14.5,-8.3,-19.1,0.347575304,0.140568255,0.446790979,-0.81225013
638,1600631,1854030,-0.741,-0.422,0.638,-5.3,19.4,-23.6,14.5,-8.3,-19.1,0.346964934,0.140629292,0.447096164,-0.812341685
639,1602406,1854030,-0.741,-0.426,0.642,-8.1,19,-23.1,14.7,-8.6,-19,0.346415601,0.140690329,0.447462386,-0.812372204
640,1604023,1854030,-0.757,-0.438,0.666,-10.6,18.7,-22.6,14.7,-8.6,-19,0.345835749,0.140720847,0.447859127,-0.812372204
641,1606879,1854030,-0.765,-0.445,0.674,-13,18.4,-22,14.7,-8.6,-19,0.345316935,0.140720847,0.448316904,-0.812372204
642,1609729,1854040,-0.781,-0.449,0.682,-15.2,18.1,-21.3,14.7,-8.6,-19,0.34479812,0.140720847,0.448774682,-0.812311167
643,1611500,1854040,-0.805,-0.46,0.691,-17.3,17.8,-20.6,14.7,-7.2,-19.2,0.344309824,0.140690329,0.449293497,-0.81225013
644,1614386,1854040,-0.817,-0.46,0.691,-19.3,17.4,-19.9,14.7,-7.2,-19.2,0.343852046,0.14065981,0.449812311,-0.812158574
645,1617350,1854040,-0.832,-0.456,0.687,-21.4,16.8,-19.2,14.7,-7.2,-19.2,0.343424787,0.140629292,0.450392163,-0.8120365
646,1619270,1854050,-0.84,-0.444,0.684,-23.8,16,-18.6,14.7,-7.2,-19.2,0.342997528,0.140537736,0.450972015,-0.811883908
647,1622625,1854050,-0.872,-0.431,0.653,-29.9,14.5,-17.6,14.8,-9.5,-19.7,0.342631306,0.140385144,0.451643422,-0.811670278
648,1624329,1854050,-0.884,-0.423,0.638,-29.9,14.5,-17.6,14.8,-9.5,-19.7,0.342265084,0.14026307,0.452375866,-0.811487167
649,1627927,1854050,-0.904,-0.415,0.631,-33.7,13.8,-17.4,14.8,-9.5,-19.7,0.34192938,0.140079958,0.45310831,-0.8112125
650,1629504,1854060,-0.911,-0.403,0.615,-37.6,13.1,-17,14.8,-9.5,-19.7,0.341624195,0.139866329,0.45393231,-0.810937834
651,1631726,1854060,-0.943,-0.406,0.612,-41.5,12.4,-16.5,14.8,-9.9,-19.5,0.34131901,0.139622181,0.454817347,-0.81060213
652,1634453,1854060,-0.963,-0.41,0.593,-45,11.6,-15.7,14.8,-9.9,-19.5,0.341074862,0.139316996,0.455732902,-0.810235908
653,1636715,1854060,-0.983,-0.409,0.586,-48.1,10.9,-14.6,14.8,-9.9,-19.5,0.340861232,0.139011811,0.456709494,-0.809839167
654,1639358,1854070,-1.003,-0.401,0.579,-50.5,10.1,-13.2,14.8,-9.9,-19.5,0.340678121,0.138676107,0.457747124,-0.809411908
655,1643436,1854070,-1.042,-0.369,0.576,-52.6,9.4,-11.6,15.2,-9.8,-19.9,0.340525529,0.138340403,0.458754234,-0.808923612
656,1645655,1854070,-1.062,-0.345,0.572,-54.3,8.8,-10.3,15.2,-9.8,-19.9,0.340433973,0.1380047,0.459822382,-0.808435316
657,1647904,1854070,-1.077,-0.324,0.569,-55.7,8.2,-9.1,15.2,-9.8,-19.9,0.340311899,0.137638478,0.46089053,-0.807916501
658,1650190,1854080,-1.112,-0.288,0.566,-57,7.3,-8.2,15.2,-9.8,-19.9,0.340281381,0.137241737,0.461989196,-0.807397687
659,1652411,1854080,-1.12,-0.276,0.57,-58.4,6.2,-7.2,15.2,-9.3,-20.1,0.340281381,0.136844996,0.463087863,-0.806848354
660,1654811,1854080,-1.136,-0.268,0.582,-60,4.7,-5.9,15.2,-9.3,-20.1,0.340311899,0.136448256,0.464186529,-0.806268502
661,1656784,1854080,-1.152,-0.272,0.59,-61.7,3.1,-4,15.2,-9.3,-20.1,0.340372936,0.13595996,0.465315714,-0.805658132
662,1659353,1854090,-1.16,-0.287,0.625,-62.8,1.4,-1.6,15.2,-9.3,-20.1,0.340525529,0.135532701,0.46641438,-0.805017243
663,1662109,1854090,-1.172,-0.291,0.641,-63.5,-0.3,0.9,15.3,-5.8,-18.3,0.340739158,0.135074923,0.467543565,-0.804376354
664,1664241,1854090,-1.175,-0.291,0.665,-64.1,-2.2,3.4,15.3,-5.8,-18.3,0.341013825,0.134586627,0.468642232,-0.803704947
665,1668262,1854090,-1.171,-0.295,0.68,-64.6,-3.9,5.7,15.3,-5.8,-18.3,0.341349528,0.134098331,0.469710379,-0.803003021
666,1670484,1854100,-1.191,-0.29,0.712,-65.1,-5.4,7.5,15.3,-5.8,-18.3,0.341715751,0.133579516,0.470809046,-0.802301096
667,1673044,1854100,-1.195,-0.27,0.724,-66.3,-7.7,10.9,15.2,-7.4,-21.3,0.342173528,0.133030183,0.471877194,-0.801538133
668,1675450,1854100,-1.198,-0.259,0.736,-66.3,-7.7,10.9,15.2,-7.4,-21.3,0.342661824,0.132541887,0.472945341,-0.800805689
669,1677625,1854100,-1.202,-0.243,0.747,-66.8,-8.8,12.8,15.2,-7.4,-21.3,0.343150121,0.132023072,0.474013489,-0.800042726
670,1679861,1854110,-1.221,-0.203,0.76,-67.3,-9.9,14.9,15.2,-7.4,-21.3,0.343699454,0.131504257,0.475051119,-0.799279763
671,1681979,1854110,-1.229,-0.183,0.764,-67.5,-11,17.5,15,-6.5,-21.5,0.344340342,0.130985443,0.476119266,-0.798455763
672,1684321,1854110,-1.24,-0.163,0.768,-67.2,-12.4,20.9,15,-6.5,-21.5,0.34501175,0.130497147,0.477126377,-0.797631764
673,1687274,1854110,-1.26,-0.124,0.772,-66.3,-13.9,25.1,15,-6.5,-21.5,0.345774712,0.13000885,0.478102969,-0.796807764
674,1689895,1854120,-1.283,-0.115,0.765,-64.9,-15.8,29.8,15,-6.5,-21.5,0.346659749,0.129551073,0.478988006,-0.795953246
675,1692714,1854120,-1.303,-0.095,0.758,-63.3,-17.6,34.8,14.9,-5.7,-21.8,0.347636341,0.129123814,0.479903562,-0.795068209
676,1694621,1854120,-1.331,-0.087,0.743,-62,-19.6,39.4,14.9,-5.7,-21.8,0.348673971,0.128727073,0.480697043,-0.794183172
677,1696864,1854120,-1.386,-0.074,0.725,-61.1,-21.7,43.6,14.9,-5.7,-21.8,0.349833674,0.128330332,0.481490524,-0.793267617
678,1699192,1854130,-1.406,-0.057,0.713,-60.8,-23.9,47.2,14.9,-5.7,-21.8,0.351084933,0.12796411,0.482222968,-0.792321543
679,1701736,1854130,-1.425,-0.045,0.71,-60.6,-26.2,50.2,14.5,-5.2,-21.8,0.352397229,0.12756737,0.482894375,-0.791375469
680,1705124,1854130,-1.441,-0.021,0.706,-60.5,-28.8,52.7,14.5,-5.2,-21.8,0.353770562,0.127170629,0.483596301,-0.790398877
681,1706706,1854130,-1.476,0.01,0.692,-60.7,-31.4,54.8,14.5,-5.2,-21.8,0.35523545,0.12674337,0.48423719,-0.789422285
682,1709099,1854140,-1.488,0.034,0.696,-61.1,-34.1,56.7,14.5,-5.2,-21.8,0.356730857,0.126255074,0.48484756,-0.788445692
683,1712600,1854140,-1.491,0.054,0.7,-61.7,-36.7,58.6,14.3,-6.6,-20.6,0.358287301,0.125766778,0.485488449,-0.787438581
684,1714290,1854140,-1.51,0.101,0.727,-62.4,-39.3,60.2,14.3,-6.6,-20.6,0.359904782,0.125217444,0.486098819,-0.786400952
685,1717195,1854140,-1.538,0.106,0.732,-63.3,-42,61.4,14.3,-6.6,-20.6,0.3615833,0.124668111,0.486678671,-0.785363323
686,1720156,1854150,-1.538,0.122,0.74,-64.7,-44.8,62,14.3,-6.6,-20.6,0.363292337,0.124057741,0.487258522,-0.784295175
687,1721735,1854150,-1.534,0.118,0.755,-68.2,-50.1,63.4,14.7,-5.9,-20.2,0.365123447,0.123325297,0.487868892,-0.783196509
688,1724621,1854150,-1.534,0.114,0.759,-68.2,-50.1,63.4,14.7,-5.9,-20.2,0.366893521,0.122592853,0.488448744,-0.782097842
689,1727605,1854150,-1.538,0.114,0.755,-69.7,-52.3,64.6,14.7,-5.9,-20.2,0.36875515,0.12182989,0.489059114,-0.780999176
690,1729157,1854160,-1.538,0.09,0.763,-70.7,-54.4,66,14.7,-5.9,-20.2,0.370647298,0.121066927,0.489638966,-0.779839473
691,1731640,1854160,-1.546,0.082,0.748,-71,-56.4,67.2,14,-6.1,-20.2,0.372569964,0.120212409,0.490218818,-0.778679769
692,1735172,1854160,-1.554,0.083,0.721,-71,-58.5,68.4,14,-6.1,-20.2,0.374553667,0.119388409,0.490768151,-0.777520066
693,1736669,1854160,-1.551,0.075,0.701,-70.6,-60.6,69.3,14,-6.1,-20.2,0.376567888,0.118533891,0.491286966,-0.776360363
694,1739146,1854170,-1.547,0.078,0.685,-69.7,-62.7,69.8,14,-6.1,-20.2,0.378612629,0.117648854,0.491775262,-0.775200659
695,1742645,1854170,-1.555,0.071,0.658,-67.6,-64.8,70.2,13.7,-6.2,-19.9,0.380657369,0.116733299,0.492202521,-0.774040956
696,1744158,1854170,-1.555,0.071,0.631,-64.1,-67,70.6,13.7,-6.2,-19.9,0.382732627,0.115817743,0.492538224,-0.772942289
697,1746785,1854170,-1.567,0.075,0.604,-59,-69.1,71,13.7,-6.2,-19.9,0.384807886,0.114932707,0.492782373,-0.77190466
698,1750082,1854180,-1.575,0.079,0.589,-52.9,-71.1,71.4,13.7,-6.2,-19.9,0.386913663,0.114078188,0.492904447,-0.770897549
699,1751704,1854180,-1.595,0.095,0.581,-46.2,-72.8,71.7,12.8,-6.2,-19.1,0.38901944,0.11322367,0.492873928,-0.769981994
700,1754107,1854180,-1.61,0.107,0.589,-39.3,-74.1,71.6,12.8,-6.2,-19.1,0.391094699,0.11239967,0.492721335,-0.769127476
701,1757606,1854180,-1.618,0.139,0.586,-32.4,-75.4,71,12.8,-6.2,-19.1,0.393200476,0.111636708,0.492446669,-0.768364513
702,1759132,1854190,-1.625,0.19,0.574,-25.7,-76.9,69.3,12.8,-6.2,-19.1,0.395245216,0.110873745,0.492049928,-0.767662587
703,1761712,1854190,-1.651,0.273,0.602,-19.3,-78.8,66.3,12.1,-6.3,-23.4,0.397259438,0.110080264,0.491531114,-0.767082736
704,1765136,1854190,-1.666,0.333,0.614,-13.9,-80.8,62,12.1,-6.3,-23.4,0.399182104,0.109286782,0.490920743,-0.766563921
705,1766885,1854190,-1.689,0.392,0.618,-10.7,-82.7,57,12.1,-6.3,-23.4,0.401074252,0.108401746,0.490249336,-0.76616718
706,1769209,1854200,-1.704,0.447,0.634,-10.2,-84.6,51.6,12.1,-6.3,-23.4,0.402813807,0.107455672,0.489547411,-0.765800958
707,1772616,1854200,-1.746,0.562,0.635,-16,-89.5,41.9,11.6,-6.7,-20.6,0.404553362,0.10626545,0.48893704,-0.765465255
708,1774138,1854200,-1.773,0.614,0.639,-16,-89.5,41.9,11.6,-6.7,-20.6,0.40623188,0.105075228,0.48832667,-0.765129551
709,1777134,1854200,-1.796,0.662,0.636,-20.8,-92.5,38.6,11.6,-6.7,-20.6,0.407910398,0.103762932,0.487746818,-0.764763329
710,1780193,1854210,-1.819,0.698,0.644,-25.9,-95.4,37.1,11.6,-6.7,-20.6,0.409619434,0.102328562,0.487258522,-0.764366588
711,1781707,1854210,-1.886,0.743,0.661,-31.9,-97.6,38.5,10.9,-6.5,-20.9,0.411358989,0.100833155,0.486800745,-0.763908811
712,1784071,1854210,-1.926,0.751,0.682,-39.1,-98.4,42.7,10.9,-6.5,-20.9,0.4131901,0.0993072298,0.48649556,-0.763328959
713,1787616,1854210,-1.965,0.748,0.702,-47.3,-97.9,48.9,10.9,-6.5,-20.9,0.415173803,0.0977507859,0.48628193,-0.762596515
714,1789152,1854220,-2.041,0.73,0.705,-55.1,-97.1,55.5,10.9,-6.5,-20.9,0.417218543,0.0962248604,0.486220893,-0.761711478
715,1791721,1854220,-2.069,0.7,0.709,-61.8,-96.8,60.8,10.4,-6.4,-21.9,0.419385357,0.0946989349,0.486220893,-0.760704367
716,1795225,1854220,-2.09,0.653,0.71,-67.3,-97.7,63.9,10.4,-6.4,-21.9,0.421643727,0.0931424909,0.486312449,-0.759605701
717,1796696,1854220,-2.118,0.591,0.703,-71.7,-99.8,65.1,10.4,-6.4,-21.9,0.423902097,0.0915250099,0.486465041,-0.758445997
718,1799268,1854230,-2.168,0.446,0.678,-75.1,-102.4,65.1,10.4,-6.4,-21.9,0.426221503,0.0898159734,0.486617634,-0.757225257
719,1801712,1854230,-2.186,0.364,0.674,-77.5,-105.4,64.6,9.8,-6.6,-22.6,0.428571429,0.0880458998,0.486800745,-0.756004517
720,1804862,1854230,-2.199,0.278,0.675,-78.6,-108.1,63.6,9.8,-6.6,-22.6,0.430921354,0.0861842708,0.486953337,-0.754783776
721,1806623,1854230,-2.212,0.188,0.679,-77.8,-110.2,61.8,9.8,-6.6,-22.6,0.433240761,0.0842921232,0.487075411,-0.753593554
722,1809426,1854240,-2.23,0.035,0.7,-74.6,-111.7,59.2,9.8,-6.6,-22.6,0.435529649,0.0823999756,0.487136448,-0.752433851
723,1811757,1854240,-2.231,-0.031,0.704,-68.7,-112.6,55.6,9,-6.4,-22.4,0.437788018,0.0804773095,0.48710593,-0.751365703
724,1814110,1854240,-2.228,-0.078,0.696,-60.4,-113.1,51.4,9,-6.4,-22.4,0.439924314,0.0785851619,0.486922819,-0.750450148
725,1817463,1854240,-2.237,-0.148,0.634,-50.1,-113.3,46.5,9,-6.4,-22.4,0.441969054,0.0767540513,0.486556597,-0.749656667
726,1819242,1854250,-2.234,-0.16,0.587,-38,-113.2,41.2,9,-6.4,-22.4,0.443922239,0.0749839778,0.486007263,-0.749046297
727,1821727,1854250,-2.226,-0.165,0.532,-8.2,-113.5,28.4,8.5,-6.2,-22.6,0.445600757,0.0733359783,0.485000153,-0.748863186
728,1824959,1854250,-2.215,-0.161,0.474,-8.2,-113.5,28.4,8.5,-6.2,-22.6,0.447279275,0.0717184973,0.483993042,-0.748680074
729,1826827,1854250,-2.179,-0.134,0.387,10,-113.9,20.8,8.5,-6.2,-22.6,0.4488052,0.0701620533,0.482680746,-0.748741111
730,1829176,1854260,-2.159,-0.107,0.355,30.7,-114.5,12.9,8.5,-6.2,-22.6,0.450178533,0.0687276833,0.481032746,-0.749107334
731,1833392,1854260,-2.135,-0.081,0.346,54.2,-115.1,5.3,7.6,-6.4,-22.7,0.451399274,0.0674459059,0.478988006,-0.749809259
732,1835617,1854260,-2.107,-0.065,0.353,79.6,-115.3,-1.5,7.6,-6.4,-22.7,0.452436903,0.0663167211,0.476577044,-0.75081637
733,1837938,1854260,-2.054,0.007,0.379,105.1,-115.1,-7.8,7.6,-6.4,-22.7,0.453352458,0.0654011658,0.473708304,-0.752159185
734,1840178,1854270,-2.037,0.058,0.402,129,-114.3,-14.1,7.6,-6.4,-22.7,0.454115421,0.0646382031,0.470473342,-0.753776666
735,1842426,1854270,-2.016,0.124,0.456,149.8,-112.6,-21.1,7,-6.7,-22.5,0.454725791,0.0640583514,0.466933195,-0.755668813
736,1844718,1854270,-1.995,0.191,0.502,166.6,-110.3,-29.4,7,-6.7,-22.5,0.455122532,0.0635700552,0.463118381,-0.757805109
737,1847022,1854270,-1.967,0.367,0.618,179.6,-107.3,-39.1,7,-6.7,-22.5,0.455305643,0.0632038331,0.459150975,-0.760155034
738,1849266,1854280,-1.954,0.461,0.687,188.9,-103.8,-50.4,7,-6.7,-22.5,0.455244606,0.062837611,0.455030976,-0.76268807
739,1851713,1854280,-1.936,0.559,0.769,195.4,-100.2,-62.4,6.2,-7.8,-22.1,0.454908902,0.0625019074,0.450880459,-0.765373699
740,1855212,1854280,-1.872,0.77,0.923,199.7,-96.4,-74.6,6.2,-7.8,-22.1,0.454359569,0.0621356853,0.446668905,-0.768211921
741,1856689,1854280,-1.851,0.86,0.988,202.2,-92.5,-86.7,6.2,-7.8,-22.1,0.453505051,0.0617389447,0.442487869,-0.771141697
742,1859817,1854290,-1.813,0.962,1.038,202.6,-88.6,-98.4,6.2,-7.8,-22.1,0.452436903,0.0613116855,0.438306833,-0.774193548
743,1861608,1854290,-1.784,1.016,1.068,200,-84.8,-109.9,5.5,-8.8,-21.6,0.451124607,0.0607928709,0.434247871,-0.777275918
744,1865179,1854290,-1.703,1.124,1.108,193.2,-81.3,-121.7,5.5,-8.8,-21.6,0.449568163,0.0601519822,0.430310984,-0.780419324
745,1866603,1854290,-1.622,1.225,1.11,180.8,-77.5,-134.7,5.5,-8.8,-21.6,0.447737053,0.0593585009,0.426648762,-0.783532212
746,1870196,1854300,-1.561,1.294,1.159,162.3,-72.8,-149.9,5.5,-8.8,-21.6,0.445661794,0.0582903531,0.423352763,-0.786584063
747,1872444,1854300,-1.469,1.363,1.242,139.1,-66.6,-166.2,6.4,-9.5,-21.3,0.443220313,0.0569780572,0.420514542,-0.789574877
748,1874675,1854300,-1.389,1.392,1.271,114.1,-58.8,-182,6.4,-9.5,-21.3,0.440473647,0.0553910947,0.418225654,-0.792443617
749,1876924,1854300,-1.317,1.414,1.292,89.6,-50.8,-196.1,6.4,-9.5,-21.3,0.437452315,0.0535905026,0.416394543,-0.795190283
750,1879132,1854310,-1.26,1.445,1.342,66,-43.5,-209.4,6.4,-9.5,-21.3,0.434125797,0.0515457625,0.415082247,-0.797845393
751,1881848,1854310,-1.201,1.447,1.391,42.3,-36.5,-223.5,7,-9.6,-20.6,0.430524613,0.0492873928,0.414258248,-0.80037843
752,1884151,1854310,-1.023,1.361,1.367,17.5,-29.3,-239.7,7,-9.6,-20.6,0.426557207,0.046784875,0.413922544,-0.802789392
753,1887539,1854310,-0.875,1.263,1.258,-8.8,-21.6,-259.2,7,-9.6,-20.6,0.422223579,0.0439771722,0.414136174,-0.805139317
754,1889745,1854320,-0.754,1.142,1.095,-35.7,-13.9,-282.5,7,-9.6,-20.6,0.417401654,0.0408032472,0.414899136,-0.807397687
755,1892052,1854320,-0.497,0.817,0.499,-60,-7.1,-308.2,7.1,-9.7,-20.7,0.412091433,0.0373851741,0.416150395,-0.809656056
756,1894418,1854320,-0.292,0.568,0.174,-77.3,-2.8,-333.6,7.1,-9.7,-20.7,0.406262398,0.0336008789,0.417737358,-0.811944945
757,1896590,1854320,-0.044,0.232,-0.089,-82.7,-1.8,-356.4,7.1,-9.7,-20.7,0.400036622,0.0296029542,0.419446394,-0.814325388
758,1899280,1854330,0.218,-0.123,-0.262,-72.4,-4.1,-375.1,7.1,-9.7,-20.7,0.393414106,0.0254524369,0.420911283,-0.816919462
759,1901714,1854330,0.533,-0.953,-0.62,-43.7,-7.6,-388,8.2,-8.7,-20.6,0.386608478,0.0213629566,0.421826838,-0.81981872
760,1905857,1854330,0.683,-1.227,-0.756,3.6,-10.8,-391.9,8.2,-8.7,-20.6,0.379680776,0.0175786615,0.421857356,-0.823114719
761,1906604,1854330,0.822,-1.474,-0.806,68.6,-12.6,-385,8.2,-8.7,-20.6,0.372814112,0.0144047365,0.420636616,-0.826929533
762,1909396,1854340,0.334,-2.685,-0.336,148.1,-11.3,-367.6,8.2,-8.7,-20.6,0.366252632,0.0120242927,0.417981506,-0.831232643
763,1911814,1854340,0.706,-2.08,-0.035,241.2,-8.1,-352.3,7.2,-8.7,-20.9,0.359843745,0.0105899228,0.413617359,-0.836237678
764,1914197,1854340,0.671,-1.753,0,346.9,-8.3,-362.5,7.2,-8.7,-20.9,0.35319071,0.00988799707,0.407269509,-0.842158269
765,1917601,1854340,0.761,-1.235,0.389,459.4,-13,-410.1,7.2,-8.7,-20.9,0.345652638,0.00955229347,0.398785363,-0.849330119
766,1919857,1854350,0.883,-0.585,0.701,568.3,-18.5,-487.5,7.2,-8.7,-20.9,0.33661916,0.00924710837,0.388164922,-0.857844783
767,1922085,1854350,0.584,-3.496,-5.317,667.2,-20.4,-571.4,11.7,-9.1,-20.3,0.325907163,0.00891140477,0.375560778,-0.86751915
768,1924503,1854350,0.301,-7.808,-7.956,777.3,-35.5,-639.1,11.7,-9.1,-20.3,0.313852351,0.00854518265,0.360637226,-0.878231147
769,1926703,1854350,1.666,-8.138,-7.972,973.1,-112.7,-649.7,11.7,-9.1,-20.3,0.30201117,0.00793481246,0.341227454,-0.890072329
770,1929268,1854360,7.946,-8.278,-5.367,1265,-309.8,-525.3,11.7,-9.1,-20.3,0.293771172,0.00631733146,0.314554277,-0.902584918
771,1932685,1854360,7.988,-7.434,2.812,1362.5,-553.4,-242.4,13.2,-11.1,-18.3,0.292428358,0.00250251778,0.284035768,-0.913083285
772,1934260,1854360,8.198,4.726,4.489,981.5,-613.8,81.8,13.2,-11.1,-18.3,0.297738578,-0.00292977691,0.260475478,-0.918393506
773,1936815,1854360,8.222,5.82,5.872,274.5,-395.2,152.7,13.2,-11.1,-18.3,0.303018281,-0.00820947905,0.252418592,-0.918881802
774,1940174,1854370,0.496,8.004,7.47,-325.4,-28.4,-169.6,13.2,-11.1,-18.3,0.299722282,-0.0118411817,0.258705405,-0.918179876
775,1941715,1854370,0.97,7.978,7.973,-502.6,282.9,-659.7,11.1,-13.5,-18.8,0.284737693,-0.0131839961,0.270424512,-0.919553209
776,1944850,1854370,0.375,8.002,4.352,-391.7,422.4,-873.9,11.1,-13.5,-18.8,0.264503922,-0.0122989593,0.280556658,-0.922574541
777,1947828,1854370,-2.053,8.054,1.304,-217.6,423.4,-642,11.1,-13.5,-18.8,0.248908963,-0.00897244179,0.287179174,-0.924893948
778,1950118,1854380,-3.247,7.629,-1.728,-127.5,314.2,-167.9,11.1,-13.5,-18.8,0.243507187,-0.00436414686,0.291421247,-0.925046541
779,1952374,1854380,-3.272,5.418,-3.697,-163.3,191.4,224.9,14.2,-11.9,-17.9,0.246803186,3.05185095e-05,0.295754875,-0.92281869
780,1954626,1854380,-2.86,2.9,-4.087,-252,115.2,404.4,14.2,-11.9,-17.9,0.254188665,0.00360118412,0.301431318,-0.918942839
781,1956892,1854380,-2.429,-0.134,-3.262,-314.3,86.8,403.6,14.2,-11.9,-17.9,0.261726737,0.00625629444,0.30814539,-0.914578692
782,1959362,1854390,-2.262,-0.789,-2.089,-294.1,89.6,321.5,14.2,-11.9,-17.9,0.267555773,0.00851466414,0.31449324,-0.910702841
783,1961624,1854390,-1.293,-1.595,-0.597,-183.7,99.7,237.5,12.7,-11.4,-17.9,0.271614734,0.0110477004,0.318674276,-0.908017212
784,1964702,1854390,-0.387,-4.246,1.195,-15.9,99.9,186.4,12.7,-11.4,-17.9,0.274636067,0.0142521439,0.319528794,-0.906765954
785,1967768,1854390,-0.745,-4.74,1.702,126.6,89.8,175.8,12.7,-11.4,-17.9,0.27744377,0.0180059206,0.317484054,-0.906552324
786,1969227,1854400,-1.781,-4.964,1.613,186.1,74.2,163.8,12.7,-11.4,-17.9,0.280068361,0.0217291787,0.314188055,-0.906826991
787,1971781,1854400,-2.42,-4.741,1.758,145.7,67.1,125.5,12.7,-11.4,-17.9,0.282021546,0.0247810297,0.311655019,-0.907010102
788,1974890,1854400,-2.372,-4.199,2.486,59.1,68.9,53.9,12.7,-11.4,-17.9,0.282601398,0.0269173254,0.310892056,-0.90704062
789,1976598,1854400,-1.472,-2.567,3.617,-13.6,76.1,-9,12.7,-11.4,-17.9,0.281899472,0.0282601398,0.3116245,-0.906949065
790,1980059,1854410,-1.073,-1.625,3.549,-44.6,81.1,-35.6,12.7,-11.4,-17.9,0.280678732,0.0293588061,0.313028352,-0.906826991
791,1981636,1854410,-0.903,-0.792,3.186,-44.8,83.9,-24.9,12.7,-11.4,-17.9,0.279641102,0.0305795465,0.314462722,-0.906613361
792,1985050,1854410,-1.116,-0.183,2.596,-41.1,89.1,6.8,12.7,-11.4,-17.9,0.279183325,0.0321359905,0.315805536,-0.90621662
793,1986578,1854410,-1.607,0.592,1.303,-53.1,98.1,36.7,12.7,-11.4,-17.9,0.27927488,0.033967101,0.317423017,-0.905545213
794,1990302,1854420,-1.288,1.242,1.96,-88,109.3,46.8,12.7,-11.4,-17.9,0.279519028,0.0359202857,0.319803461,-0.904568621
795,1991748,1854420,-1.224,0.874,1.604,-126.4,117.3,30.1,12.7,-11.4,-17.9,0.279396954,0.0377208777,0.322977386,-0.903408918
796,1994869,1854420,-0.928,-0.728,1.312,-130.9,105.5,-1.5,12.7,-11.4,-17.9,0.278725547,0.0389721366,0.326212348,-0.902401807
797,1996518,1854420,-0.671,-1.303,1.443,-88.5,75.2,-29,12.7,-11.4,-17.9,0.277687918,0.0397045808,0.328440199,-0.901882992
798,1999359,1854430,-0.451,-1.796,1.591,-18.4,35.7,-39.1,12.7,-11.4,-17.9,0.276680807,0.0400097659,0.329050569,-0.901974548
799,2002345,1854430,-0.417,-2.225,1.67,39.5,8.5,-32.4,12.7,-11.4,-17.9,0.275948363,0.040192877,0.328348643,-0.902432325
800,2005518,1854430,-0.437,-2.602,1.273,71.2,-3.3,-14.1,12.7,-11.4,-17.9,0.275612659,0.0404675436,0.326944792,-0.903042695
801,2006989,1854430,-0.339,-2.439,1.383,76.8,-4.5,3.9,12.7,-11.4,-17.9,0.275673696,0.0408642842,0.325388348,-0.90356151
802,2009995,1854440,-0.283,-2.153,1.424,63.8,0.8,12.5,12.7,-11.4,-17.9,0.275856807,0.0413525803,0.324137089,-0.903927732
803,2011593,1854440,-0.203,-1.872,1.417,43.1,8.7,7.3,14.7,-13.4,-17.5,0.275856807,0.0418408765,0.323313089,-0.90417188
804,2014423,1854440,0.037,-1.402,1.3,24.5,16.6,-3.2,14.7,-13.4,-17.5,0.275673696,0.0422681356,0.322946867,-0.904354991
805,2017345,1854440,0.154,-1.236,1.249,12.9,22.2,-11.3,14.7,-13.4,-17.5,0.275307474,0.0427259133,0.322824793,-0.904507584
806,2020412,1854450,0.256,-1.077,1.285,7.3,25.1,-14.9,14.7,-13.4,-17.5,0.274819178,0.0431531724,0.322855312,-0.904629658
807,2022019,1854450,0.381,-0.754,1.39,4.6,26.4,-15.4,14.7,-13.4,-17.5,0.274330882,0.04361095,0.322916349,-0.904721213
808,2024996,1854450,0.407,-0.585,1.377,3,26.7,-14.8,14.7,-13.4,-17.5,0.273842586,0.0440382092,0.323038423,-0.904812769
809,2026677,1854450,0.405,-0.424,1.334,1.4,26.2,-15.1,14.7,-13.4,-17.5,0.273354289,0.0444654683,0.323191015,-0.904873806
810,2030269,1854460,0.375,-0.31,1.268,0,24.7,-17.3,14.7,-13.4,-17.5,0.272835475,0.0448316904,0.323343608,-0.904965361
811,2031705,1854460,0.228,-0.236,1.162,-1.3,22.4,-20.9,14.7,-13.4,-17.5,0.272255623,0.045106357,0.323526719,-0.905056917
812,2034218,1854460,0.153,-0.242,1.114,-2.8,20.4,-24.4,14.7,-13.4,-17.5,0.271645253,0.0453199866,0.323740349,-0.905148473
813,2037752,1854460,0.109,-0.237,1.068,-6.1,19.1,-26.2,14.7,-13.4,-17.5,0.271004364,0.0455030976,0.323984497,-0.905240028
814,2040086,1854470,0.033,-0.247,0.964,-12.9,18.9,-25.3,14.7,-13.4,-17.5,0.270363475,0.0455946532,0.324381237,-0.905301065
815,2041913,1854470,-0.189,-0.199,0.744,-23,19,-22.8,14.7,-13.4,-17.5,0.269814142,0.0456862087,0.324961089,-0.905240028
816,2044254,1854470,-0.273,-0.186,0.609,-33.6,19,-20.4,14.7,-13.4,-17.5,0.269295328,0.0456862087,0.325785089,-0.905117954
817,2046754,1854470,-0.346,-0.208,0.482,-40.6,17.6,-19.8,14.7,-13.4,-17.5,0.26883755,0.0456862087,0.326700644,-0.904904324
818,2049223,1854480,-0.383,-0.254,0.37,-41.4,14.2,-21,14.7,-13.4,-17.5,0.268349254,0.0455641346,0.327616199,-0.904721213
819,2052761,1854480,-0.333,-0.366,0.24,-36.5,8.7,-22.4,14.7,-13.4,-17.5,0.267891476,0.0453810236,0.32840968,-0.904599139
820,2055142,1854480,-0.27,-0.395,0.235,-28.5,2.1,-22.3,14.7,-13.4,-17.5,0.267464217,0.045106357,0.329020051,-0.904507584
821,2057408,1854480,-0.186,-0.361,0.279,-20.1,-4.4,-20.9,14.7,-13.4,-17.5,0.267097995,0.0447096164,0.329416791,-0.904507584
822,2059634,1854490,-0.112,-0.209,0.386,-12.7,-10.4,-19.1,14.7,-13.4,-17.5,0.26679281,0.0443128758,0.329599902,-0.904538102
823,2061881,1854490,-0.114,-0.119,0.452,-6.3,-15.7,-18.5,14.2,-11,-17.5,0.266548662,0.0438245796,0.329660939,-0.904599139
824,2064519,1854490,-0.141,-0.079,0.516,-0.5,-20,-19.3,14.2,-11,-17.5,0.266304514,0.0433057649,0.329569384,-0.904721213
825,2066690,1854490,-0.184,-0.078,0.56,4.9,-23.6,-21.4,14.2,-11,-17.5,0.266060366,0.0426953948,0.329355754,-0.904904324
826,2070734,1854500,-0.27,-0.252,0.664,10.5,-27,-23.9,14.2,-11,-17.5,0.265755181,0.0420239875,0.329020051,-0.905148473
827,2073060,1854500,-0.296,-0.401,0.716,15.5,-29.9,-26.3,14.2,-11.1,-17.6,0.265449995,0.0413830988,0.328562273,-0.905453658
828,2075481,1854500,-0.313,-0.542,0.76,19.6,-32.5,-28,14.2,-11.1,-17.6,0.265114292,0.0406506546,0.32801294,-0.905789361
829,2077715,1854500,-0.323,-0.66,0.796,22.1,-34.2,-29.3,14.2,-11.1,-17.6,0.26474807,0.0398876919,0.32740257,-0.906125065
830,2079925,1854510,-0.337,-0.773,0.785,22.8,-34.9,-30.7,14.2,-11.1,-17.6,0.264381848,0.0390942106,0.326761681,-0.906491287
831,2082239,1854510,-0.336,-0.75,0.773,21.6,-34.5,-32.9,14.2,-11.6,-17.9,0.263954588,0.0383007294,0.326181829,-0.906888028
832,2084422,1854510,-0.331,-0.691,0.768,19.1,-33.3,-35.8,14.2,-11.6,-17.9,0.263466292,0.0375072481,0.325632496,-0.907223731
833,2086670,1854510,-0.322,-0.605,0.748,16,-31.6,-39,14.2,-11.6,-17.9,0.262916959,0.0366527299,0.325174718,-0.907620472
834,2089284,1854520,-0.276,-0.441,0.739,13,-29.9,-42,14.2,-11.6,-17.9,0.26227607,0.0358897671,0.324777978,-0.907956175
835,2091553,1854520,-0.24,-0.391,0.742,10.7,-28.2,-44.7,14.2,-12.4,-18,0.261574145,0.0350657674,0.324411756,-0.908322398
836,2094668,1854520,-0.2,-0.376,0.733,9.6,-26.6,-47.3,14.2,-12.4,-18,0.260811182,0.0342112491,0.324106571,-0.90868862
837,2096549,1854520,-0.086,-0.426,0.722,9.9,-25.3,-49.7,14.2,-12.4,-18,0.260017701,0.0334482864,0.323801386,-0.909054842
838,2100053,1854530,-0.015,-0.467,0.724,11.3,-24.4,-51.9,14.2,-12.4,-18,0.259132664,0.0326548051,0.3234962,-0.909451582
839,2101649,1854530,0.055,-0.511,0.734,13,-23.7,-53.9,14.2,-12.4,-18,0.258217109,0.0318918424,0.323129978,-0.909848323
840,2104402,1854530,0.11,-0.548,0.756,14.3,-22.9,-55.3,14.2,-12.4,-18,0.257271035,0.0311288797,0.322733238,-0.910275582
841,2108333,1854530,0.206,-0.554,0.801,14.3,-21.6,-56.3,14.2,-12.4,-18,0.256294443,0.0303659169,0.322397534,-0.910702841
842,2109784,1854540,0.218,-0.531,0.816,13,-19.6,-57.1,14.2,-12.4,-18,0.255287332,0.0296639912,0.322061831,-0.9111301
843,2112088,1854540,0.211,-0.487,0.82,10.6,-17,-58,14.6,-12.5,-17.6,0.254249702,0.028931547,0.321787164,-0.91155736
844,2114294,1854540,0.184,-0.443,0.82,7,-13.8,-59.2,14.6,-12.5,-17.6,0.253181555,0.0283211768,0.321604053,-0.911923582
845,2117806,1854540,0.094,-0.351,0.826,2.8,-10.4,-60.9,14.6,-12.5,-17.6,0.252021851,0.0277108066,0.321543016,-0.912289804
846,2120087,1854550,0.058,-0.331,0.823,-1.5,-7,-62.8,14.6,-12.5,-17.6,0.250831629,0.0271004364,0.321573534,-0.912625507
847,2122297,1854550,0.011,-0.329,0.821,-5.6,-3.9,-64.7,14.3,-12.8,-18,0.24958037,0.0265511032,0.321695608,-0.912961211
848,2124555,1854550,-0.032,-0.34,0.818,-9.5,-1.3,-66.3,14.3,-12.8,-18,0.248268075,0.0260017701,0.321909238,-0.913235878
849,2126818,1854550,-0.077,-0.426,0.812,-13.3,0.8,-67.7,14.3,-12.8,-18,0.24692526,0.0254829554,0.322214423,-0.913510544
850,2129190,1854560,-0.082,-0.485,0.792,-16.7,2.6,-68.9,14.3,-12.8,-18,0.245521409,0.0249031037,0.322611164,-0.913754692
851,2131908,1854560,-0.079,-0.563,0.773,-19.8,3.9,-70.1,15,-12,-18,0.244117557,0.0244148076,0.323068941,-0.91399884
852,2135106,1854560,-0.062,-0.729,0.703,-21.9,4.9,-71.2,15,-12,-18,0.242683187,0.0238959929,0.323557237,-0.91421247
853,2136881,1854560,-0.044,-0.808,0.671,-22.8,5.5,-72.5,15,-12,-18,0.24118778,0.0233771783,0.324076052,-0.914426099
854,2139106,1854570,-0.017,-0.864,0.624,-22.3,5.9,-73.6,15,-12,-18,0.239692373,0.0228278451,0.324594867,-0.914670248
855,2141825,1854570,0.009,-0.9,0.592,-20.7,6.1,-74.6,15.1,-11,-17.9,0.238166448,0.0223395489,0.325083163,-0.914914396
856,2145110,1854570,0.036,-0.896,0.521,-18.6,6,-75.2,15.1,-11,-17.9,0.236640522,0.0218512528,0.325510422,-0.915158544
857,2146891,1854570,0.048,-0.869,0.493,-16.7,5.5,-75.6,15.1,-11,-17.9,0.235084078,0.0213324381,0.325907163,-0.91543321
858,2149266,1854580,0.065,-0.842,0.489,-14.8,4.9,-75.6,15.1,-11,-17.9,0.233558153,0.0208136235,0.326273385,-0.915707877
859,2151985,1854580,0.065,-0.807,0.473,-12.7,3.9,-75.3,15.1,-11,-17.9,0.232032228,0.0202642903,0.32657857,-0.915982543
860,2155190,1854580,0.086,-0.729,0.453,-10.2,2.5,-74.6,15.1,-11,-17.9,0.230506302,0.0197454756,0.326853236,-0.916287729
861,2156695,1854580,0.09,-0.697,0.433,-7.4,0.9,-73.5,15.1,-11,-17.9,0.229041414,0.019226661,0.327036348,-0.916623432
862,2159786,1854590,0.103,-0.67,0.421,-4.2,-0.8,-72.1,15.1,-11,-17.9,0.227607044,0.0186773278,0.327127903,-0.916928617
863,2161855,1854590,0.139,-0.643,0.42,-0.6,-2.8,-70.4,15.7,-9.7,-18.5,0.226233711,0.0180669576,0.327158422,-0.917294839
864,2165130,1854590,0.17,-0.644,0.415,3.6,-5.2,-68.6,15.7,-9.7,-18.5,0.224890896,0.0175176244,0.327097385,-0.917661061
865,2167439,1854590,0.194,-0.649,0.407,8.4,-7.9,-66.3,15.7,-9.7,-18.5,0.223609119,0.0169377728,0.326914274,-0.918027284
866,2170076,1854600,0.23,-0.657,0.39,13.5,-11,-63.6,15.7,-9.7,-18.5,0.222418897,0.0163274026,0.326609088,-0.918454543
867,2172347,1854600,0.321,-0.675,0.419,18.3,-14.2,-60.6,15.5,-9.1,-18.5,0.221289712,0.0156865139,0.326181829,-0.918881802
868,2174146,1854600,0.352,-0.684,0.422,23,-17.3,-57.7,15.5,-9.1,-18.5,0.220252083,0.0150456252,0.325663015,-0.919339579
869,2176831,1854600,0.404,-0.704,0.448,27.5,-20.1,-55,15.5,-9.1,-18.5,0.219275491,0.014374218,0.325022126,-0.919797357
870,2180342,1854610,0.487,-0.714,0.473,32.1,-22.6,-52.4,15.5,-9.1,-18.5,0.218359935,0.0137028108,0.324289682,-0.920285653
871,2182603,1854610,0.828,-0.761,0.46,36.6,-25,-49.7,15.5,-9.3,-19,0.217535936,0.0130314035,0.323465682,-0.920773949
872,2184174,1854610,0.954,-0.804,0.465,41,-27.1,-47.3,15.5,-9.3,-19,0.216772973,0.0123294778,0.322519608,-0.921292764
873,2188244,1854610,0.962,-0.831,0.496,44.8,-28.8,-45.9,15.5,-9.3,-19,0.216040529,0.0116580706,0.321481979,-0.921842097
874,2190137,1854620,0.93,-0.878,0.536,48.3,-29.7,-44.9,15.5,-9.3,-19,0.215338603,0.0109561449,0.320383312,-0.92239143
875,2191758,1854620,1.007,-0.985,0.534,52.2,-29.6,-42.1,15.7,-9.5,-18.7,0.214667196,0.0103152562,0.319193091,-0.922971282
876,2194486,1854620,1.058,-1.046,0.557,57.1,-29.3,-35.8,15.7,-9.5,-18.7,0.214148381,0.00973540452,0.317911313,-0.923551134
877,2197858,1854620,1.097,-1.117,0.622,63,-29.5,-26.4,15.7,-9.5,-18.7,0.213812677,0.00927762688,0.316507462,-0.924100467
878,2200445,1854630,1.183,-1.237,0.745,70.2,-30.1,-15.7,15.7,-9.5,-18.7,0.213690603,0.00888088626,0.314920499,-0.924680319
879,2202809,1854630,1.222,-1.289,0.76,79,-30.5,-4.5,15.7,-9.5,-18.7,0.213782159,0.00860621967,0.313241981,-0.925229652
880,2205096,1854630,1.254,-1.313,0.755,88.1,-30.6,6.8,15.7,-9.5,-18.7,0.214087344,0.00842310862,0.311319315,-0.925809503
881,2206994,1854630,1.282,-1.302,0.719,94.7,-30.3,18.6,15.7,-9.5,-18.7,0.214667196,0.00839259011,0.309244057,-0.926358837
882,2209362,1854640,1.326,-1.232,0.644,96.2,-29.6,30.5,15.7,-9.5,-18.7,0.215460677,0.00845362712,0.307168798,-0.926877651
883,2212589,1854640,1.33,-1.17,0.597,91.7,-28.6,42.5,14.9,-10.5,-16.3,0.216498306,0.00857570116,0.305154576,-0.92730491
884,2214803,1854640,1.323,-1.111,0.561,82.5,-27,54.3,14.9,-10.5,-16.3,0.217780084,0.00878933073,0.303353984,-0.927610096
885,2216746,1854640,1.296,-1.051,0.527,70.7,-25,65.3,14.9,-10.5,-16.3,0.219244972,0.00906399731,0.30179754,-0.927762688
886,2220869,1854650,1.266,-0.932,0.508,58.3,-22.1,75.2,14.9,-10.5,-16.3,0.220892972,0.00936918241,0.300485244,-0.927793207
887,2221811,1854650,1.231,-0.892,0.524,46.7,-18.5,83.9,14.5,-11.4,-15.2,0.222724082,0.00979644154,0.299417096,-0.927701651
888,2225460,1854650,1.172,-0.879,0.491,36.2,-14.6,92.1,14.5,-11.4,-15.2,0.224677267,0.0102542192,0.298593097,-0.927488021
889,2227627,1854650,1.132,-0.874,0.472,27,-10.9,100.6,14.5,-11.4,-15.2,0.226752525,0.0108340709,0.297982727,-0.927152318
890,2229850,1854660,1.06,-0.9,0.49,18.8,-7.6,109.4,14.5,-11.4,-15.2,0.229010895,0.0114749596,0.297524949,-0.926725059
891,2232091,1854660,1.024,-0.927,0.51,12,-4.5,117.8,14.3,-11.1,-15.1,0.231421857,0.0122074038,0.297219764,-0.926236763
892,2234271,1854660,0.992,-0.958,0.507,6.5,-1.9,124.9,14.3,-11.1,-15.1,0.233954894,0.013000885,0.297067171,-0.925626392
893,2236581,1854660,0.927,-1.027,0.525,2.5,0.2,130.5,14.3,-11.1,-15.1,0.236610004,0.0138859218,0.296975616,-0.924985504
894,2239336,1854670,0.911,-1.05,0.525,-0.2,1.9,134.8,14.3,-11.1,-15.1,0.239295633,0.0148014771,0.296945097,-0.924283578
895,2243176,1854670,0.879,-1.061,0.538,-2.1,3.1,138,13.5,-11.7,-14.6,0.242072817,0.0157475509,0.296945097,-0.923551134
896,2245359,1854670,0.84,-1.072,0.551,-2.8,3.8,140.9,13.5,-11.7,-14.6,0.24488052,0.0167241432,0.296975616,-0.922757653
897,2247645,1854670,0.761,-1.054,0.576,-2.1,4.3,143.9,13.5,-11.7,-14.6,0.24774926,0.0177007355,0.297006134,-0.92199469
898,2249233,1854680,0.717,-1.038,0.605,0.2,4.6,147.5,13.5,-11.7,-14.6,0.250679037,0.0187688833,0.296945097,-0.92117069
899,2252701,1854680,0.69,-1.017,0.602,4,4.6,151.1,13.5,-11.7,-14.6,0.253700369,0.0198675497,0.296853542,-0.920377209
900,2254246,1854680,0.655,-0.989,0.622,8.9,4.1,154.4,13.5,-11.7,-14.6,0.25675222,0.0209967345,0.296609394,-0.919553209
901,2256807,1854680,0.6,-0.933,0.635,14.8,3.1,157.3,13.5,-11.7,-14.6,0.259895627,0.0221564379,0.29627369,-0.918790246
902,2259190,1854690,0.577,-0.905,0.635,21.5,1.7,159.7,13.5,-11.7,-14.6,0.263069552,0.0233161412,0.295754875,-0.917996765
903,2262498,1854690,0.549,-0.873,0.644,28.4,0,161.6,12,-12.3,-16.2,0.266304514,0.0245368816,0.295113987,-0.917264321
904,2264779,1854690,0.51,-0.825,0.668,35.4,-1.7,163.2,12,-12.3,-16.2,0.269539476,0.025757622,0.294289987,-0.916531877
905,2266982,1854690,0.511,-0.789,0.676,42.2,-3.4,164.3,12,-12.3,-16.2,0.272835475,0.0269783624,0.293343913,-0.915829951
906,2270139,1854700,0.507,-0.765,0.684,48.8,-4.8,165.1,12,-12.3,-16.2,0.276131474,0.0282601398,0.292245247,-0.915158544
907,2271872,1854700,0.52,-0.707,0.687,54.7,-6.1,165.4,11.7,-13.1,-16.1,0.279427473,0.0295419172,0.290993988,-0.914487136
908,2274562,1854700,0.521,-0.683,0.691,59.5,-7.1,165.4,11.7,-13.1,-16.1,0.28275399,0.0307626576,0.289651173,-0.913876766
909,2276828,1854700,0.525,-0.648,0.699,63,-7.9,165.5,11.7,-13.1,-16.1,0.286049989,0.0320749535,0.288247322,-0.913235878
910,2279984,1854710,0.522,-0.628,0.691,65.5,-8.1,165.8,11.7,-13.1,-16.1,0.289345988,0.0333567309,0.286782434,-0.912625507
911,2281751,1854710,0.53,-0.597,0.69,67,-7.9,166.1,11.1,-13.8,-17.1,0.292672506,0.0346690268,0.285256508,-0.911984619
912,2284279,1854710,0.538,-0.55,0.671,67.4,-7.4,166.2,11.1,-13.8,-17.1,0.295968505,0.0359813227,0.283730583,-0.91134373
913,2287555,1854710,0.543,-0.527,0.666,66.4,-6.7,165.9,11.1,-13.8,-17.1,0.299264504,0.0372936186,0.282235176,-0.910672323
914,2289159,1854720,0.539,-0.507,0.651,64,-5.7,165.3,11.1,-13.8,-17.1,0.302529984,0.0386059145,0.280800806,-0.910000916
915,2291817,1854720,0.532,-0.475,0.651,60.2,-4.2,164.3,10.2,-14.3,-18,0.305764946,0.0399487289,0.279427473,-0.909268471
916,2294705,1854720,0.497,-0.431,0.648,55.6,-2.2,162.9,10.2,-14.3,-18,0.308938871,0.0412610248,0.278176214,-0.908536027
917,2298023,1854720,0.473,-0.423,0.645,50.3,0.2,161.3,10.2,-14.3,-18,0.312112796,0.0426038392,0.277016511,-0.907742546
918,2300130,1854730,0.453,-0.411,0.633,44.3,3.1,159.7,10.2,-14.3,-18,0.315195166,0.0439161351,0.2760094,-0.906918546
919,2301844,1854730,0.41,-0.39,0.638,37.6,6.3,158,10.2,-14.3,-18,0.318247017,0.0452589496,0.275154881,-0.906033509
920,2304930,1854730,0.374,-0.377,0.647,30.3,9.5,156.4,10.2,-14.3,-18,0.321268349,0.046601764,0.274483474,-0.905117954
921,2307353,1854730,0.346,-0.381,0.652,22.7,12.7,154.8,10.2,-14.3,-18,0.324198126,0.0479445784,0.27396466,-0.904141362
922,2310278,1854740,0.315,-0.376,0.66,14.9,15.8,152.8,10.2,-14.3,-18,0.327127903,0.0492568743,0.273598437,-0.903134251
923,2312429,1854740,0.243,-0.374,0.666,6.8,18.7,150.4,9.1,-14.7,-16.7,0.329966124,0.0505691702,0.273445845,-0.902066103
924,2314886,1854740,0.208,-0.366,0.671,-1.5,21.4,147.4,9.1,-14.7,-16.7,0.332743309,0.0518814661,0.273476363,-0.900967437
925,2316759,1854740,0.16,-0.368,0.676,-10.2,24.1,144,9.1,-14.7,-16.7,0.335428938,0.053132725,0.273689993,-0.899838252
926,2320141,1854750,0.113,-0.359,0.681,-19,26.5,140.5,9.1,-14.7,-16.7,0.338053529,0.0543534654,0.274086734,-0.898678549
927,2321843,1854750,0.041,-0.374,0.707,-27.3,28.8,136.9,8.5,-14.7,-16.9,0.340586566,0.0555436872,0.274666585,-0.897457808
928,2325128,1854750,-0.013,-0.384,0.712,-34.6,31,133.3,8.5,-14.7,-16.9,0.343058565,0.0566728721,0.275429548,-0.896206549
929,2327537,1854750,-0.057,-0.395,0.721,-40.6,32.7,130.1,8.5,-14.7,-16.9,0.345439009,0.0578020569,0.276284066,-0.89495529
930,2329630,1854760,-0.097,-0.417,0.734,-45.1,34,126.9,8.5,-14.7,-16.9,0.347788934,0.0588702048,0.277260659,-0.893673513
931,2331942,1854760,-0.181,-0.451,0.756,-48.2,34.6,124,8.5,-14.7,-17,0.350047304,0.0599688711,0.278298288,-0.892391736
932,2334283,1854760,-0.217,-0.462,0.765,-49.9,34.6,121.1,8.5,-14.7,-17,0.352275155,0.0609759819,0.279396954,-0.891109958
933,2336913,1854760,-0.249,-0.469,0.777,-50.8,34.3,118.2,8.5,-14.7,-17,0.354411451,0.0619830927,0.280495621,-0.889858699
934,2339152,1854770,-0.305,-0.495,0.787,-51.1,33.7,115.2,8.5,-14.7,-17,0.356517228,0.0629291665,0.281594287,-0.88860744
935,2342166,1854770,-0.336,-0.502,0.792,-50.8,33,112,8.3,-14.4,-17,0.358561968,0.0638752403,0.282662435,-0.887356182
936,2344476,1854770,-0.356,-0.51,0.796,-50,32.2,108.7,8.3,-14.4,-17,0.360545671,0.0647907956,0.283730583,-0.88616596
937,2347091,1854770,-0.376,-0.525,0.808,-48.1,31.4,105.2,8.3,-14.4,-17,0.362437819,0.0656453139,0.284768212,-0.884975738
938,2349639,1854780,-0.396,-0.548,0.84,-45.1,30.6,101.7,8.3,-14.4,-17,0.364268929,0.0664998321,0.285744804,-0.883846553
939,2351921,1854780,-0.392,-0.556,0.86,-40.8,29.5,98.2,8.3,-14.4,-17,0.366039003,0.0673848689,0.286599322,-0.882778405
940,2354647,1854780,-0.392,-0.568,0.895,-35.4,28.3,95.1,8.3,-14.4,-17,0.367748039,0.0682393872,0.287392804,-0.881740776
941,2356793,1854780,-0.376,-0.564,0.926,-29.4,27.1,92.2,8.3,-14.4,-17,0.369396039,0.0690939055,0.288033692,-0.880764183
942,2360140,1854790,-0.36,-0.564,0.988,-23.2,26.2,89.7,8.3,-14.4,-17,0.370983001,0.0699789422,0.288552507,-0.879848628
943,2361760,1854790,-0.344,-0.561,1.015,-17.1,25.6,87.4,8.6,-15.2,-17.4,0.372539445,0.0708944975,0.288949248,-0.87899411
944,2364366,1854790,-0.336,-0.557,1.034,-11.6,25.4,85.2,8.6,-15.2,-17.4,0.374034852,0.0718100528,0.289254433,-0.878200629
945,2367495,1854790,-0.336,-0.545,1.038,-6.6,25.7,83.2,8.6,-15.2,-17.4,0.375469222,0.0727866451,0.289468062,-0.877437666
946,2369294,1854800,-0.324,-0.545,1.049,-2.1,26.2,81.2,8.6,-15.2,-17.4,0.376873074,0.0737937559,0.289590136,-0.876705222
947,2371608,1854800,-0.312,-0.534,1.06,1.8,27.1,79,8.6,-15,-17.6,0.378185369,0.0748008667,0.289651173,-0.876033815
948,2375060,1854800,-0.303,-0.526,1.088,5.7,28.1,76.5,8.6,-15,-17.6,0.379467147,0.0758995331,0.289651173,-0.875392926
949,2376834,1854800,-0.311,-0.502,1.092,8.9,29.2,74,8.6,-15,-17.6,0.380687887,0.0769981994,0.289590136,-0.874782556
950,2379074,1854810,-0.315,-0.491,1.092,11.4,30.7,71.4,8.6,-15,-17.6,0.381847591,0.0781273843,0.289498581,-0.874202704
951,2382557,1854810,-0.323,-0.475,1.068,12.6,32.4,69,8.3,-15.1,-17.4,0.382915738,0.0792870876,0.289407025,-0.873653371
952,2384377,1854810,-0.338,-0.459,1.038,12.4,34.6,66.5,8.3,-15.1,-17.4,0.383953368,0.0804773095,0.289345988,-0.873104038
953,2386832,1854810,-0.37,-0.419,0.984,11,37.1,63.9,8.3,-15.1,-17.4,0.38492996,0.0816370128,0.289345988,-0.872585223
954,2390229,1854820,-0.389,-0.399,0.957,8.5,39.8,61,8.3,-15.1,-17.4,0.385814997,0.0828882717,0.289407025,-0.872066408
955,2391738,1854820,-0.413,-0.375,0.938,5.2,42.3,57.8,8.4,-14.9,-17.2,0.386638997,0.0840784936,0.289529099,-0.871517075
956,2394979,1854820,-0.433,-0.354,0.915,1.3,44.7,54.7,8.4,-14.9,-17.2,0.387401959,0.085299234,0.289803766,-0.87099826
957,2396775,1854820,-0.48,-0.302,0.861,-2.9,47,51.6,8.4,-14.9,-17.2,0.388073366,0.0865199744,0.290169988,-0.870448927
958,2399241,1854830,-0.499,-0.278,0.838,-7.8,49.1,48.4,8.4,-14.9,-17.2,0.388714255,0.0876796777,0.290627766,-0.869899594
959,2402646,1854830,-0.511,-0.258,0.827,-13.3,51,45.2,8.4,-14.9,-17.2,0.389263588,0.0888393811,0.291238136,-0.869319742
960,2404091,1854830,-0.535,-0.23,0.816,-19.5,52.6,41.9,8.4,-14.9,-17.2,0.389751885,0.0899380474,0.29197058,-0.868739891
961,2406649,1854830,-0.594,-0.198,0.786,-26.4,53.9,38.8,8.4,-14.9,-17.2,0.390209662,0.0909756767,0.292855617,-0.868129521
962,2410072,1854840,-0.625,-0.177,0.767,-33.8,55.4,35.9,8.4,-14.9,-17.2,0.390606403,0.0919522691,0.293893246,-0.867488632
963,2411675,1854840,-0.649,-0.149,0.76,-41.7,56.9,33.1,8.5,-15,-18,0.390942106,0.0928678243,0.295113987,-0.866817225
964,2414270,1854840,-0.728,-0.128,0.77,-50.2,58.2,30.1,8.5,-15,-18,0.391247291,0.0937528611,0.29648732,-0.866145817
965,2417638,1854840,-0.752,-0.127,0.77,-58.6,59.5,26.8,8.5,-15,-18,0.39149144,0.0945463424,0.298043764,-0.865413373
966,2419095,1854850,-0.783,-0.127,0.787,-66.4,60.7,23.6,8.5,-15,-18,0.391674551,0.0952787866,0.299783319,-0.86465041
967,2422306,1854850,-0.839,-0.141,0.823,-77.9,62.1,17.3,8.6,-15,-17.9,0.391979736,0.096499527,0.3014008,-0.863795892
968,2424429,1854850,-0.859,-0.156,0.84,-77.9,62.1,17.3,8.6,-15,-17.9,0.392040773,0.0971098972,0.303353984,-0.863002411
969,2426680,1854850,-0.891,-0.171,0.848,-81.9,62.1,13.9,8.6,-15,-17.9,0.392071291,0.0976592303,0.305398724,-0.86220893
970,2429247,1854860,-0.923,-0.194,0.853,-85.6,61.4,10.3,8.6,-15,-17.9,0.392040773,0.098178045,0.307504501,-0.861415448
971,2432600,1854860,-0.947,-0.213,0.85,-89.4,60.5,6.8,8.5,-14.4,-18.1,0.391949217,0.0985747856,0.309701834,-0.860621967
972,2434155,1854860,-0.987,-0.244,0.847,-93.1,59.4,3.4,8.5,-14.4,-18.1,0.391827143,0.0989410077,0.311960204,-0.859828486
973,2436710,1854860,-1.003,-0.259,0.855,-96.3,58.3,0.3,8.5,-14.4,-18.1,0.391644032,0.0992156743,0.314249092,-0.859065523
974,2440076,1854870,-1.011,-0.267,0.856,-98.4,57.2,-2.6,8.5,-14.4,-18.1,0.391399884,0.0994293039,0.316599017,-0.858272042
975,2441650,1854870,-1.015,-0.278,0.883,-99.3,55.7,-5.4,8.7,-14.1,-18.2,0.391094699,0.0995818964,0.318948943,-0.857509079
976,2444266,1854870,-1.011,-0.282,0.91,-98.9,53.9,-7.8,8.7,-14.1,-18.2,0.390820032,0.0996734519,0.321268349,-0.856776635
977,2447643,1854870,-1.023,-0.274,0.934,-97.5,52,-9.7,8.7,-14.1,-18.2,0.390484329,0.0997650075,0.323557237,-0.856044191
978,2449302,1854880,-1.035,-0.27,0.958,-94.9,50.4,-11.2,8.7,-14.1,-18.2,0.390118107,0.099795526,0.325785089,-0.855372784
979,2452213,1854880,-1.058,-0.246,0.986,-91.6,49.4,-12.5,9,-13.6,-18.8,0.389751885,0.099856563,0.327921384,-0.854701376
980,2454068,1854880,-1.062,-0.242,0.998,-87.8,48.9,-14,9,-13.6,-18.8,0.389324625,0.0999176,0.330027161,-0.854091006
981,2457647,1854880,-1.061,-0.226,0.994,-84.2,48.5,-16.1,9,-13.6,-18.8,0.388866848,0.100009156,0.332041383,-0.853511155
982,2459335,1854890,-1.073,-0.222,0.982,-80.9,48.2,-18.8,9,-13.6,-18.8,0.388317515,0.100070193,0.333994568,-0.85299234
983,2461797,1854890,-1.101,-0.221,0.952,-77.6,47.6,-21.9,7.1,-13.1,-18.9,0.387737663,0.10013123,0.335886715,-0.852504044
984,2465132,1854890,-1.113,-0.229,0.948,-74.1,47,-25.1,7.1,-13.1,-18.9,0.387096774,0.100192267,0.337717826,-0.852076785
985,2466621,1854890,-1.125,-0.232,0.937,-70,46.3,-28.3,7.1,-13.1,-18.9,0.38636433,0.100253304,0.339487899,-0.851680044
986,2469242,1854900,-1.133,-0.236,0.925,-65.5,45.7,-31.7,7.1,-13.1,-18.9,0.385601367,0.100314341,0.341135899,-0.851374859
987,2472627,1854900,-1.141,-0.224,0.898,-60.8,45,-35,6.6,-13.2,-19.2,0.384746849,0.100405896,0.342722861,-0.851100192
988,2474245,1854900,-1.149,-0.224,0.871,-56.5,44.4,-38.6,6.6,-13.2,-19.2,0.383800775,0.100466933,0.344218268,-0.850917081
989,2476740,1854900,-1.157,-0.212,0.848,-52.9,43.8,-42.2,6.6,-13.2,-19.2,0.382824183,0.100497452,0.345683157,-0.850764489
990,2480163,1854910,-1.177,-0.184,0.805,-49.9,43.4,-45.9,6.6,-13.2,-19.2,0.381725517,0.100558489,0.34705649,-0.850672933
991,2481714,1854910,-1.189,-0.172,0.786,-47.2,43.2,-49.7,7,-12.9,-19.1,0.380596332,0.100589007,0.348429823,-0.850642415
992,2484869,1854910,-1.201,-0.16,0.778,-44.6,43,-53.3,7,-12.9,-19.1,0.379375591,0.100589007,0.3497116,-0.850642415
993,2486593,1854910,-1.205,-0.152,0.763,-42.2,42.8,-56.5,7,-12.9,-19.1,0.378093814,0.100619526,0.350993377,-0.850703452
994,2489364,1854920,-1.208,-0.125,0.755,-40.4,42.4,-59.3,7,-12.9,-19.1,0.376750999,0.100619526,0.352214118,-0.850795007
995,2492447,1854920,-1.208,-0.109,0.739,-39.3,41.9,-61.7,7.1,-12.4,-19.4,0.375347148,0.100589007,0.353434858,-0.850886563
996,2494184,1854920,-1.204,-0.097,0.739,-39,41.4,-64,7.1,-12.4,-19.4,0.373943297,0.100558489,0.35462508,-0.851039155
997,2497680,1854920,-1.2,-0.097,0.735,-39.6,41.2,-66.2,7.1,-12.4,-19.4,0.372478408,0.100466933,0.35584582,-0.851161229
998,2499238,1854930,-1.192,-0.086,0.747,-41,40.9,-68.6,7.1,-12.4,-19.4,0.370983001,0.100375378,0.357097079,-0.851313822
999,2502264,1854930,-1.18,-0.074,0.758,-43.1,40.8,-70.9,11.6,-13.6,-19.6,0.369426557,0.100192267,0.358378857,-0.851466414
1000,2505171,1854930,-1.179,-0.066,0.758,-45.9,40.8,-73,11.6,-13.6,-19.6,0.367839595,0.100039674,0.359721671,-0.851588488
1001,2506776,1854930,-1.168,-0.067,0.754,-49.4,40.8,-74.8,11.6,-13.6,-19.6,0.366252632,0.0998260445,0.361125523,-0.851710562
1002,2509078,1854940,-1.163,-0.063,0.765,-53.6,40.9,-76.3,11.6,-13.6,-19.6,0.364635151,0.0995513779,0.36262093,-0.851832636
1003,2512212,1854940,-1.156,-0.063,0.761,-58.3,40.9,-77.5,10.3,-10,-19.5,0.362987152,0.0992156743,0.364207892,-0.851893674
1004,2515226,1854940,-1.156,-0.071,0.761,-63.3,41,-78.3,10.3,-10,-19.5,0.361339152,0.0988799707,0.365855892,-0.851924192
1005,2516748,1854940,-1.144,-0.091,0.769,-68.3,41,-78.7,10.3,-10,-19.5,0.359691153,0.0984832301,0.367625965,-0.851893674
1006,2519104,1854950,-1.136,-0.091,0.769,-73.2,40.8,-78.3,10.3,-10,-19.5,0.358073672,0.0980254524,0.369487594,-0.851832636
1007,2521689,1854950,-1.132,-0.099,0.765,-78,40.6,-77.5,11.9,-9.9,-19.6,0.356456191,0.0975371563,0.37141026,-0.851710562
1008,2525122,1854950,-1.124,-0.107,0.772,-82.8,40.4,-76.4,11.9,-9.9,-19.6,0.354899747,0.0970183416,0.373424482,-0.85155797
1009,2526777,1854950,-1.105,-0.151,0.788,-87.8,40.3,-75.1,11.9,-9.9,-19.6,0.353343303,0.096499527,0.375530259,-0.85134434
1010,2529068,1854960,-1.098,-0.178,0.803,-92.9,40.2,-73.6,11.9,-9.9,-19.6,0.351847896,0.0959196753,0.377727592,-0.851039155
1011,2532473,1854960,-1.086,-0.214,0.811,-97.5,40.3,-72,13,-8.7,-19.8,0.350383007,0.0953093051,0.379985961,-0.850703452
1012,2534178,1854960,-1.083,-0.249,0.83,-101.1,40.2,-70.2,13,-8.7,-19.8,0.348948637,0.0946989349,0.382305368,-0.850306711
1013,2537718,1854960,-1.052,-0.329,0.857,-103.6,40.1,-68,13,-8.7,-19.8,0.347575304,0.0940885647,0.384685812,-0.849879452
1014,2539240,1854970,-1.033,-0.368,0.864,-105.3,39.5,-65.7,13,-8.7,-19.8,0.34623249,0.0934781945,0.387066256,-0.849421674
1015,2542313,1854970,-1.013,-0.396,0.872,-106.7,38.6,-63.3,13.3,-8.3,-20,0.344950713,0.0928678243,0.389477218,-0.84890286
1016,2545115,1854970,-1.01,-0.447,0.887,-107.7,37.7,-60.7,13.3,-8.3,-20,0.343729972,0.0922269356,0.391857662,-0.848384045
1017,2546609,1854970,-1.006,-0.471,0.891,-108.3,36.9,-57.9,13.3,-8.3,-20,0.34253975,0.0916165654,0.394268624,-0.847804193
1018,2549631,1854980,-1.006,-0.483,0.895,-108.2,36.4,-54.6,13.3,-8.3,-20,0.341441084,0.0910061953,0.396649068,-0.847193823
1019,2551638,1854980,-1.003,-0.499,0.895,-107.3,35.9,-51.1,12.6,-9.3,-20.4,0.340403455,0.0904263436,0.398998993,-0.846583453
1020,2554102,1854980,-0.999,-0.507,0.899,-105.3,35.3,-47.2,12.6,-9.3,-20.4,0.339426862,0.0898770104,0.4013184,-0.845942564
1021,2557621,1854980,-0.999,-0.511,0.895,-102.2,34.4,-43.3,12.6,-9.3,-20.4,0.338511307,0.0893887143,0.403515732,-0.845301675
