sample_index,elapsed_us,device_time_ms,acc_x_g,acc_y_g,acc_z_g,gyro_x_dps,gyro_y_dps,gyro_z_dps,mag_x_ut,mag_y_ut,mag_z_ut,quat_w,quat_x,quat_y,quat_z
0,4610,1852430,0.988,0.04,-0.03,0,0.2,0,-35.4,5.3,27.4,0.158421583,0.707113865,-0.135502182,0.675618763
1,7634,1852430,0.988,0.04,-0.034,-0.2,0.2,0,-36.3,7.9,27.2,0.15848262,0.707083346,-0.135502182,0.6756798
2,9176,1852440,0.985,0.04,-0.038,-0.1,0.1,0,-36.3,7.9,27.2,0.15848262,0.707083346,-0.135502182,0.6756798
3,12943,1852440,0.985,0.04,-0.038,0,0.1,0,-36.3,7.9,27.2,0.15848262,0.707052828,-0.135502182,0.6756798
4,14400,1852440,0.981,0.036,-0.038,0,0.1,-0.1,-37.3,7.5,27.1,0.15848262,0.707052828,-0.135471664,0.6756798
5,17282,1852440,0.988,0.04,-0.038,0,0,0,-37.3,7.5,27.1,0.15848262,0.707052828,-0.135471664,0.6756798
6,19104,1852450,0.985,0.04,-0.042,0,0,0,-37.3,7.5,27.1,0.15848262,0.707052828,-0.135471664,0.6756798
7,21694,1852450,0.988,0.036,-0.038,0,0,0,-37.3,7.5,27.1,0.15848262,0.707052828,-0.135471664,0.6756798
8,24917,1852450,0.985,0.044,-0.034,0,0,0,-37.4,7.8,27.1,0.15848262,0.707052828,-0.135502182,0.6756798
9,27825,1852450,0.985,0.044,-0.03,0,0.1,0,-37.4,7.8,27.1,0.15848262,0.707052828,-0.135502182,0.6756798
10,29129,1852460,0.985,0.04,-0.038,0,0.2,0,-37.4,7.8,27.1,0.15848262,0.707052828,-0.135502182,0.6756798
11,32374,1852460,0.988,0.044,-0.03,0,0.4,0,-37.4,7.8,27.1,0.15848262,0.707052828,-0.135502182,0.6756798
12,35200,1852460,0.981,0.036,-0.034,0,0.3,0,-37.5,7.8,27.4,0.158513138,0.707052828,-0.135471664,0.6756798
13,36876,1852460,0.985,0.04,-0.034,0,0.2,0,-37.5,7.8,27.4,0.158513138,0.707052828,-0.135471664,0.6756798
14,39249,1852470,0.985,0.04,-0.034,0,0.1,0,-37.5,7.8,27.4,0.158513138,0.707052828,-0.135471664,0.675710318
15,42081,1852470,0.985,0.04,-0.038,0,0.1,0,-37.5,7.8,27.4,0.158513138,0.707052828,-0.135471664,0.675710318
16,45000,1852470,0.985,0.04,-0.042,0,0.1,0,-34.5,5.6,27.1,0.15848262,0.707052828,-0.135471664,0.675710318
17,46613,1852470,0.988,0.036,-0.038,0,0,0,-34.5,5.6,27.1,0.15848262,0.707022309,-0.135471664,0.675710318
18,49693,1852480,0.988,0.044,-0.038,0,0,0,-34.5,5.6,27.1,0.15848262,0.707052828,-0.135471664,0.675710318
19,52731,1852480,0.985,0.04,-0.038,0,0,0,-34.5,5.6,27.1,0.15848262,0.707052828,-0.135471664,0.675710318
20,54127,1852480,0.985,0.04,-0.038,0,0,0,-34.5,5.6,27.1,0.15848262,0.707052828,-0.135471664,0.675710318
21,57741,1852480,0.988,0.036,-0.034,0,0,0,-37,7.2,27.2,0.15848262,0.707083346,-0.135471664,0.6756798
22,59196,1852490,0.985,0.044,-0.038,0,0,0,-37,7.2,27.2,0.15848262,0.707083346,-0.135471664,0.6756798
23,62212,1852490,0.985,0.04,-0.034,0,0,0.1,-37,7.2,27.2,0.15848262,0.707083346,-0.135471664,0.6756798
24,65306,1852490,0.985,0.04,-0.038,0,0.1,0.2,-36.7,7.6,27.3,0.15848262,0.707052828,-0.135502182,0.6756798
25,66878,1852490,0.985,0.04,-0.038,0,0.1,0,-36.7,7.6,27.3,0.15848262,0.707052828,-0.135502182,0.6756798
26,69430,1852500,0.988,0.044,-0.034,0,0,0,-36.7,7.6,27.3,0.15848262,0.707052828,-0.135502182,0.6756798
27,71578,1852500,0.985,0.04,-0.03,0,0,0,-36.7,7.6,27.3,0.15848262,0.707052828,-0.135502182,0.6756798
28,74197,1852500,0.985,0.036,-0.03,0,0,0,-35.7,7.3,27.5,0.15848262,0.707083346,-0.135502182,0.6756798
29,77471,1852500,0.988,0.04,-0.038,0.1,0.1,0,-35.7,7.3,27.5,0.15848262,0.707052828,-0.135502182,0.6756798
30,79484,1852510,0.988,0.04,-0.034,0.1,0.1,0,-35.7,7.3,27.5,0.15848262,0.707052828,-0.135502182,0.6756798
31,82572,1852510,0.988,0.04,-0.038,0.1,0.2,0,-35.7,7.3,27.5,0.15848262,0.707052828,-0.135502182,0.6756798
32,84091,1852510,0.985,0.04,-0.034,0.1,0.2,0,-35.3,7.1,27.4,0.15848262,0.707052828,-0.135502182,0.6756798
33,86923,1852510,0.985,0.04,-0.038,0.1,0.2,0.2,-35.3,7.1,27.4,0.15848262,0.707052828,-0.135502182,0.6756798
34,90150,1852520,0.988,0.04,-0.03,0,0,0.2,-35.3,7.1,27.4,0.158421583,0.707052828,-0.135502182,0.6756798
35,91611,1852520,0.988,0.04,-0.038,0,-0.1,0.2,-35.3,7.1,27.4,0.158421583,0.707052828,-0.135502182,0.6756798
36,94689,1852520,0.985,0.04,-0.038,0,-0.1,0,-34.8,6.5,27.4,0.158421583,0.707052828,-0.135502182,0.6756798
37,96824,1852520,0.988,0.04,-0.034,0,0,0,-34.8,6.5,27.4,0.158421583,0.707052828,-0.135502182,0.6756798
38,99976,1852530,0.981,0.04,-0.034,0,0,0,-34.8,6.5,27.4,0.158421583,0.707052828,-0.135502182,0.6756798
39,102288,1852530,0.985,0.04,-0.034,0,0,0,-34.8,6.5,27.4,0.158421583,0.707052828,-0.135502182,0.6756798
40,104422,1852530,0.985,0.04,-0.034,0,0,0,-34.8,6.5,27.4,0.158421583,0.707052828,-0.135502182,0.6756798
41,107590,1852530,0.988,0.04,-0.034,0,0,0.2,-34.9,6.5,27.2,0.158421583,0.707052828,-0.135502182,0.6756798
42,109702,1852540,0.992,0.04,-0.034,0,0,0.2,-34.9,6.5,27.2,0.158421583,0.707052828,-0.135502182,0.6756798
43,112203,1852540,0.988,0.036,-0.038,0.1,0,0,-34.9,6.5,27.2,0.158421583,0.707052828,-0.135502182,0.6756798
44,114236,1852540,0.988,0.04,-0.038,0.1,0,0,-34.5,6,27,0.158421583,0.707052828,-0.135502182,0.6756798
45,116688,1852540,0.988,0.04,-0.034,0.1,0,-0.1,-34.5,6,27,0.158421583,0.707052828,-0.135502182,0.6756798
46,120302,1852550,0.988,0.04,-0.034,0,0,0,-34.5,6,27,0.158421583,0.707052828,-0.135502182,0.6756798
47,122581,1852550,0.985,0.036,-0.038,0,0,0,-34.5,6,27,0.158421583,0.707052828,-0.135502182,0.6756798
48,124175,1852550,0.985,0.04,-0.034,0,0,0,-34.2,6.5,27.3,0.158421583,0.707052828,-0.135502182,0.6756798
49,126677,1852550,0.985,0.044,-0.034,0,0,0,-34.2,6.5,27.3,0.158421583,0.707052828,-0.135502182,0.6756798
50,130862,1852560,0.988,0.04,-0.038,0,0,0,-34.2,6.5,27.3,0.158421583,0.707052828,-0.135502182,0.6756798
51,133098,1852560,0.985,0.04,-0.042,0,0,0,-34.2,6.5,27.3,0.158421583,0.707052828,-0.135502182,0.6756798
52,135624,1852560,0.985,0.036,-0.038,0,0,0,-34.6,6.1,27.2,0.158421583,0.707052828,-0.135502182,0.6756798
53,137339,1852560,0.988,0.044,-0.038,0,0,-0.1,-34.6,6.1,27.2,0.158421583,0.707052828,-0.135502182,0.6756798
54,139183,1852570,0.988,0.04,-0.038,0,0,0,-34.6,6.1,27.2,0.158421583,0.707052828,-0.135502182,0.6756798
55,142300,1852570,0.988,0.044,-0.034,0,0.1,0,-34.6,6.1,27.2,0.158421583,0.707052828,-0.135502182,0.6756798
56,144442,1852570,0.988,0.04,-0.042,0,0.1,0,-36.2,6.4,27.4,0.158421583,0.707052828,-0.135502182,0.6756798
57,148326,1852570,0.988,0.04,-0.038,-0.1,0,0,-36.2,6.4,27.4,0.158421583,0.707052828,-0.135502182,0.6756798
58,150002,1852580,0.985,0.04,-0.038,0,0,0,-36.2,6.4,27.4,0.158421583,0.707052828,-0.135502182,0.6756798
59,151672,1852580,0.981,0.044,-0.042,0,0,0,-36.2,6.4,27.4,0.158421583,0.707052828,-0.135502182,0.6756798
60,155252,1852580,0.981,0.044,-0.042,0,0,0,-36.2,6.4,27.4,0.158421583,0.707052828,-0.135502182,0.6756798
61,157703,1852580,0.985,0.044,-0.034,0,0,0,-34.1,6.5,27.1,0.158421583,0.707113865,-0.135502182,0.675649281
62,159729,1852590,0.985,0.04,-0.034,0,0,0,-34.1,6.5,27.1,0.158421583,0.707113865,-0.135502182,0.675649281
63,162008,1852590,0.988,0.04,-0.042,0,0,0,-34.1,6.5,27.1,0.158421583,0.707113865,-0.135502182,0.675649281
64,164217,1852590,0.985,0.04,-0.038,0,0,0,-34.2,6.8,27.1,0.158421583,0.707113865,-0.135502182,0.675649281
65,166761,1852590,0.988,0.04,-0.038,0,0,0,-34.2,6.8,27.1,0.158421583,0.707113865,-0.135502182,0.675649281
66,169390,1852600,0.988,0.036,-0.038,0,0,0,-34.2,6.8,27.1,0.158421583,0.707113865,-0.135502182,0.675649281
67,172793,1852600,0.988,0.036,-0.038,0,-0.1,0,-34.2,6.8,27.1,0.158421583,0.707113865,-0.135502182,0.675649281
68,174952,1852600,0.988,0.044,-0.038,0,-0.1,0,-34.7,6,27.1,0.158421583,0.707113865,-0.135502182,0.675649281
69,176835,1852600,0.981,0.04,-0.034,0,-0.1,0,-34.7,6,27.1,0.158421583,0.707113865,-0.135502182,0.675649281
70,179752,1852610,0.985,0.04,-0.03,0,0,0,-34.7,6,27.1,0.158421583,0.707113865,-0.135502182,0.675649281
71,181656,1852610,0.985,0.04,-0.034,0,0.1,0,-34.7,6,27.1,0.158421583,0.707113865,-0.135502182,0.675649281
72,185203,1852610,0.988,0.036,-0.038,0,0.1,0,-34.4,6.4,27.2,0.158421583,0.707113865,-0.135502182,0.675649281
73,186995,1852610,0.981,0.036,-0.038,0,0.1,0,-34.4,6.4,27.2,0.158421583,0.707113865,-0.135502182,0.675649281
74,189245,1852620,0.988,0.036,-0.034,0,0,0,-34.4,6.4,27.2,0.158421583,0.707113865,-0.135502182,0.675649281
75,192097,1852620,0.985,0.044,-0.038,0,0,0,-34.4,6.4,27.2,0.158421583,0.707113865,-0.135502182,0.675649281
76,194201,1852620,0.981,0.036,-0.038,0,0,0,-36.3,6.3,27.2,0.158421583,0.707113865,-0.135502182,0.675649281
77,196753,1852620,0.988,0.036,-0.038,0,0,0,-36.3,6.3,27.2,0.158421583,0.707113865,-0.135502182,0.675649281
78,200703,1852630,0.988,0.044,-0.042,0,0,0,-36.3,6.3,27.2,0.158421583,0.707083346,-0.135502182,0.675649281
79,203350,1852630,0.988,0.04,-0.034,0,0,0.1,-36.3,6.3,27.2,0.158421583,0.707083346,-0.135502182,0.675649281
80,205627,1852630,0.988,0.04,-0.034,0,0,0.1,-36.3,6.3,27.2,0.158421583,0.707083346,-0.135502182,0.675649281
81,207801,1852630,0.988,0.04,-0.034,0.1,0,0,-34.7,6.5,27.2,0.158421583,0.707113865,-0.135502182,0.675618763
82,210058,1852640,0.988,0.044,-0.038,0,0,0,-34.7,6.5,27.2,0.158421583,0.707113865,-0.135502182,0.675618763
83,211753,1852640,0.988,0.044,-0.034,0,0,-0.1,-34.7,6.5,27.2,0.158421583,0.707113865,-0.135502182,0.675618763
84,214585,1852640,0.985,0.04,-0.034,0,-0.1,0,-34.7,6.2,27.2,0.158421583,0.707113865,-0.135502182,0.675618763
85,216823,1852640,0.981,0.04,-0.034,0,0,0,-34.7,6.2,27.2,0.158421583,0.707113865,-0.135502182,0.675618763
86,220353,1852650,0.981,0.04,-0.034,0,0,0,-34.7,6.2,27.2,0.158421583,0.707113865,-0.135502182,0.675618763
87,221845,1852650,0.985,0.04,-0.042,0,0.1,-0.1,-34.7,6.2,27.2,0.158421583,0.707113865,-0.135502182,0.675618763
88,224652,1852650,0.985,0.036,-0.038,0,0.2,-0.2,-34.6,6.7,27.1,0.158421583,0.707113865,-0.135502182,0.675618763
89,226649,1852650,0.985,0.036,-0.03,0,0.1,-0.1,-34.6,6.7,27.1,0.158421583,0.707113865,-0.135502182,0.675618763
90,229242,1852660,0.985,0.04,-0.038,0,0,-0.1,-34.6,6.7,27.1,0.158421583,0.707113865,-0.135502182,0.675618763
91,232683,1852660,0.988,0.04,-0.034,0,-0.1,0,-34.6,6.7,27.1,0.158421583,0.707113865,-0.135502182,0.675618763
92,234506,1852660,0.988,0.04,-0.034,0,-0.1,0,-34.8,6.4,27.4,0.158421583,0.707113865,-0.135502182,0.675618763
93,236810,1852660,0.988,0.04,-0.038,0,-0.1,0,-34.8,6.4,27.4,0.158421583,0.707113865,-0.135502182,0.675618763
94,240166,1852670,0.985,0.036,-0.034,0,-0.1,0,-34.8,6.4,27.4,0.158421583,0.707144383,-0.135502182,0.675618763
95,241754,1852670,0.988,0.04,-0.038,0,0,0,-34.8,6.4,27.4,0.158421583,0.707144383,-0.135502182,0.675618763
96,244854,1852670,0.985,0.04,-0.034,0,0,0,-35.4,6.5,27.2,0.158421583,0.707144383,-0.135502182,0.675618763
97,247181,1852670,0.985,0.04,-0.034,0,0,0,-35.4,6.5,27.2,0.158421583,0.707144383,-0.135502182,0.675618763
98,249432,1852680,0.985,0.036,-0.03,0,0,0,-35.4,6.5,27.2,0.158421583,0.707144383,-0.135502182,0.675618763
99,251767,1852680,0.988,0.036,-0.038,0,0,0,-35.4,6.5,27.2,0.158421583,0.707144383,-0.135502182,0.675618763
100,254301,1852680,0.988,0.036,-0.038,0,0,0,-35.4,6.5,27.2,0.158421583,0.707144383,-0.135502182,0.675618763
101,257313,1852680,0.988,0.04,-0.034,0,-0.1,0,-35.2,5.8,27.5,0.158421583,0.707113865,-0.135532701,0.675618763
102,259430,1852690,0.985,0.04,-0.034,0,0,0,-35.2,5.8,27.5,0.158421583,0.707113865,-0.135532701,0.675618763
103,263254,1852690,0.985,0.04,-0.03,0,0.1,0.1,-35.2,5.8,27.5,0.158421583,0.707113865,-0.135532701,0.675618763
104,265427,1852690,0.985,0.036,-0.034,0,0.2,0.2,-35.2,6.3,27.2,0.158421583,0.707113865,-0.135532701,0.675649281
105,267795,1852690,0.985,0.036,-0.034,0,0.3,0.2,-35.2,6.3,27.2,0.158421583,0.707113865,-0.135532701,0.675649281
106,270053,1852700,0.985,0.04,-0.026,0,0.2,0.1,-35.2,6.3,27.2,0.158421583,0.707083346,-0.135532701,0.675649281
107,272158,1852700,0.985,0.036,-0.034,0,0.1,0,-35.2,6.3,27.2,0.158421583,0.707083346,-0.135532701,0.675649281
108,274168,1852700,0.985,0.036,-0.034,0,0,0,-35.5,6.4,27.9,0.158421583,0.707083346,-0.135532701,0.675649281
109,276630,1852700,0.988,0.036,-0.038,0,0,0,-35.5,6.4,27.9,0.158421583,0.707083346,-0.135532701,0.675649281
110,280072,1852710,0.985,0.044,-0.038,0,-0.1,0,-35.5,6.4,27.9,0.158421583,0.707083346,-0.135532701,0.675649281
111,282258,1852710,0.988,0.04,-0.038,0,-0.1,0,-35.5,6.4,27.9,0.158421583,0.707113865,-0.135532701,0.675649281
112,284446,1852710,0.992,0.04,-0.034,0,-0.1,0,-35,6.6,28.3,0.158421583,0.707113865,-0.135532701,0.675649281
113,286762,1852710,0.988,0.04,-0.042,0,0,0,-35,6.6,28.3,0.158421583,0.707113865,-0.135532701,0.675649281
114,289357,1852720,0.985,0.04,-0.03,0,0,0,-35,6.6,28.3,0.158421583,0.707113865,-0.135532701,0.675649281
115,292687,1852720,0.985,0.036,-0.038,0,0,0,-35,6.6,28.3,0.158421583,0.707113865,-0.135532701,0.675649281
116,294246,1852720,0.988,0.044,-0.034,0,0,0,-35.4,6.3,25.9,0.158421583,0.707113865,-0.135532701,0.675649281
117,296966,1852720,0.985,0.04,-0.034,0,0,0,-35.4,6.3,25.9,0.158421583,0.707113865,-0.135532701,0.675649281
118,300195,1852730,0.985,0.04,-0.034,0,0.1,0,-35.4,6.3,25.9,0.158421583,0.707113865,-0.135532701,0.675649281
119,302352,1852730,0.985,0.04,-0.03,0,0.1,0,-35.4,6.3,25.9,0.158421583,0.707113865,-0.135532701,0.675649281
120,304566,1852730,0.985,0.04,-0.03,0,0.1,0,-35.4,6.3,25.9,0.158421583,0.707113865,-0.135532701,0.675649281
121,306892,1852730,0.985,0.036,-0.034,0,0.1,-0.1,-35.2,6.7,28.3,0.158421583,0.707083346,-0.135502182,0.6756798
122,309233,1852740,0.981,0.044,-0.042,0,0.1,0,-35.2,6.7,28.3,0.158421583,0.707083346,-0.135502182,0.6756798
123,312024,1852740,0.981,0.04,-0.038,-0.1,0,0,-35.2,6.7,28.3,0.158421583,0.707083346,-0.135502182,0.6756798
124,315083,1852740,0.985,0.04,-0.038,0,0,0.1,-35.2,6.2,28.3,0.158421583,0.707083346,-0.135502182,0.6756798
125,317268,1852740,0.985,0.036,-0.038,0,0,0.1,-35.2,6.2,28.3,0.158421583,0.707083346,-0.135502182,0.6756798
126,319282,1852750,0.985,0.044,-0.034,0.1,-0.1,0,-35.2,6.2,28.3,0.158421583,0.707083346,-0.135502182,0.6756798
127,321610,1852750,0.985,0.04,-0.038,0.1,-0.1,0,-35.2,6.2,28.3,0.158421583,0.707083346,-0.135502182,0.6756798
128,324913,1852750,0.988,0.04,-0.034,0,-0.1,-0.1,-35,6.7,29,0.158421583,0.707083346,-0.135502182,0.6756798
129,327064,1852750,0.985,0.04,-0.038,0,0,0,-35,6.7,29,0.158421583,0.707083346,-0.135502182,0.6756798
130,329397,1852760,0.985,0.04,-0.038,0,0,0,-35,6.7,29,0.158421583,0.707083346,-0.135502182,0.6756798
131,331833,1852760,0.985,0.036,-0.038,0,0,0,-35,6.7,29,0.158421583,0.707083346,-0.135502182,0.6756798
132,334288,1852760,0.988,0.04,-0.038,0,0,0,-35.2,6.8,28.6,0.158421583,0.707083346,-0.135502182,0.6756798
133,337439,1852760,0.985,0.04,-0.042,0,0.1,0,-35.2,6.8,28.6,0.158421583,0.707083346,-0.135502182,0.6756798
134,339674,1852770,0.985,0.04,-0.038,0.1,0.2,0,-35.2,6.8,28.6,0.158421583,0.707083346,-0.135502182,0.6756798
135,341775,1852770,0.988,0.04,-0.034,0,0.1,0,-35.2,6.8,28.6,0.158421583,0.707083346,-0.135502182,0.6756798
136,345825,1852770,0.988,0.04,-0.038,0,0,0,-35.4,6.2,25.7,0.158421583,0.707083346,-0.135502182,0.6756798
137,346886,1852770,0.988,0.036,-0.034,-0.1,-0.1,0,-35.4,6.2,25.7,0.158421583,0.707083346,-0.135502182,0.6756798
138,349467,1852780,0.985,0.04,-0.03,-0.1,-0.2,0,-35.4,6.2,25.7,0.158421583,0.707083346,-0.135502182,0.6756798
139,351612,1852780,0.985,0.036,-0.038,0,-0.2,0,-35.4,6.2,25.7,0.158421583,0.707083346,-0.135502182,0.675649281
140,354730,1852780,0.985,0.036,-0.038,0,-0.2,0,-35.4,6.2,25.7,0.158421583,0.707083346,-0.135502182,0.675649281
141,356876,1852780,0.988,0.044,-0.038,0,0,0,-35.6,6.7,27.3,0.158421583,0.707083346,-0.135532701,0.6756798
142,359137,1852790,0.985,0.04,-0.03,0,0.1,0,-35.6,6.7,27.3,0.158421583,0.707083346,-0.135532701,0.6756798
143,362677,1852790,0.988,0.044,-0.034,0.1,0.1,0,-35.6,6.7,27.3,0.158421583,0.707083346,-0.135532701,0.6756798
144,365150,1852790,0.988,0.044,-0.034,0.1,0.1,0,-35.6,6.5,26.7,0.158421583,0.707052828,-0.135532701,0.6756798
145,368018,1852790,0.992,0.04,-0.038,0.1,0.1,0,-35.6,6.5,26.7,0.158421583,0.707052828,-0.135532701,0.6756798
146,370364,1852800,0.985,0.036,-0.034,0,0.1,0,-35.6,6.5,26.7,0.158421583,0.707052828,-0.135532701,0.6756798
147,372630,1852800,0.988,0.036,-0.034,0,0.1,0,-35.6,6.5,26.7,0.158421583,0.707052828,-0.135502182,0.6756798
148,374863,1852800,0.981,0.04,-0.038,0,0.1,0,-35.5,6.6,26.2,0.158421583,0.707052828,-0.135502182,0.6756798
149,377093,1852800,0.985,0.036,-0.042,0,0,0,-35.5,6.6,26.2,0.158421583,0.707052828,-0.135502182,0.6756798
150,379333,1852810,0.985,0.036,-0.038,0,0,0,-35.5,6.6,26.2,0.158421583,0.707052828,-0.135502182,0.6756798
151,382232,1852810,0.988,0.04,-0.034,-0.1,0,0,-35.5,6.6,26.2,0.158421583,0.707052828,-0.135532701,0.6756798
152,384554,1852810,0.985,0.036,-0.034,-0.1,0,0,-35.5,6.4,25.7,0.158421583,0.707052828,-0.135532701,0.6756798
153,386832,1852810,0.985,0.04,-0.042,-0.1,0,0,-35.5,6.4,25.7,0.158421583,0.707052828,-0.135532701,0.6756798
154,389140,1852820,0.988,0.04,-0.042,0,0,0,-35.5,6.4,25.7,0.158421583,0.707052828,-0.135532701,0.6756798
155,392634,1852820,0.985,0.04,-0.034,0,0,0,-35.5,6.4,25.7,0.158421583,0.707052828,-0.135532701,0.6756798
156,394839,1852820,0.985,0.04,-0.03,0,0.1,0,-35.4,6.5,27.2,0.158421583,0.707052828,-0.135532701,0.6756798
157,397022,1852820,0.985,0.036,-0.03,0,0.2,0,-35.4,6.5,27.2,0.158421583,0.707052828,-0.135532701,0.6756798
158,399276,1852830,0.985,0.044,-0.038,0,0.1,0,-35.4,6.5,27.2,0.158421583,0.707052828,-0.135532701,0.6756798
159,403412,1852830,0.985,0.04,-0.038,0,0,0,-35.4,6.5,27.2,0.158421583,0.707052828,-0.135532701,0.6756798
160,404148,1852830,0.985,0.04,-0.038,0,0,0,-35.4,6.5,27.2,0.158421583,0.707052828,-0.135532701,0.6756798
161,407870,1852830,0.985,0.04,-0.034,0,-0.1,0,-35.6,6,27.1,0.158421583,0.707052828,-0.135502182,0.675710318
162,410075,1852840,0.988,0.036,-0.038,0,-0.1,-0.1,-35.6,6,27.1,0.158421583,0.707052828,-0.135502182,0.675710318
163,411686,1852840,0.985,0.04,-0.034,-0.1,0,-0.1,-35.6,6,27.1,0.158421583,0.707052828,-0.135502182,0.6756798
164,414201,1852840,0.985,0.04,-0.034,-0.1,0,-0.1,-35.4,6,27.1,0.158421583,0.707052828,-0.135502182,0.6756798
165,417675,1852840,0.985,0.036,-0.042,0,0,0,-35.4,6,27.1,0.158421583,0.707052828,-0.135532701,0.6756798
166,419209,1852850,0.985,0.04,-0.038,0,0,0,-35.4,6,27.1,0.158421583,0.707052828,-0.135532701,0.6756798
167,422328,1852850,0.985,0.04,-0.042,0,0,0.2,-35.4,6,27.1,0.158421583,0.707052828,-0.135532701,0.6756798
168,425312,1852850,0.981,0.04,-0.038,0,0,0.2,-35.7,6.2,27.3,0.158421583,0.707052828,-0.135532701,0.6756798
169,426819,1852850,0.985,0.04,-0.034,0,0.1,0.1,-35.7,6.2,27.3,0.158421583,0.707052828,-0.135532701,0.6756798
170,429868,1852860,0.985,0.04,-0.034,0.2,0.1,0,-35.7,6.2,27.3,0.158421583,0.707052828,-0.135532701,0.675710318
171,431751,1852860,0.988,0.04,-0.034,0.2,0.1,0,-35.7,6.2,27.3,0.158421583,0.707052828,-0.135532701,0.675710318
172,435178,1852860,0.992,0.04,-0.042,0.2,0.1,0,-35.5,5.4,27.3,0.158421583,0.707052828,-0.135502182,0.675710318
173,436750,1852860,0.988,0.04,-0.034,0,0,-0.1,-35.5,5.4,27.3,0.158421583,0.707052828,-0.135502182,0.675710318
174,439258,1852870,0.988,0.044,-0.034,-0.1,0.1,0,-35.5,5.4,27.3,0.158421583,0.707052828,-0.135502182,0.675710318
175,442646,1852870,0.985,0.04,-0.042,-0.1,0,0,-35.5,5.4,27.3,0.158421583,0.707052828,-0.135532701,0.675710318
176,444268,1852870,0.985,0.044,-0.034,-0.1,0,0,-35.2,7.4,28.4,0.158421583,0.707052828,-0.135532701,0.675710318
177,446889,1852870,0.988,0.04,-0.042,0,0,0,-35.2,7.4,28.4,0.158421583,0.707052828,-0.135532701,0.675710318
178,449186,1852880,0.985,0.044,-0.034,0,0,-0.1,-35.2,7.4,28.4,0.158421583,0.707052828,-0.135532701,0.675710318
179,452548,1852880,0.985,0.044,-0.034,0,0,0,-35.2,7.4,28.4,0.158421583,0.707052828,-0.135532701,0.675710318
180,454170,1852880,0.985,0.044,-0.034,0,0,0,-35.2,7.4,28.4,0.158421583,0.707052828,-0.135532701,0.675710318
181,456725,1852880,0.985,0.04,-0.03,0,0,0,-35.3,4.9,26,0.158421583,0.707052828,-0.135502182,0.6756798
182,460142,1852890,0.988,0.036,-0.034,-0.1,0.1,0,-35.3,4.9,26,0.158421583,0.707052828,-0.135502182,0.6756798
183,461707,1852890,0.985,0.04,-0.038,0,0.1,0,-35.3,4.9,26,0.158421583,0.707052828,-0.135502182,0.675710318
184,464196,1852890,0.985,0.044,-0.034,0,0.1,0.1,-35.2,4.3,25.7,0.158421583,0.707052828,-0.135502182,0.675710318
185,467555,1852890,0.988,0.036,-0.042,0,0,0.1,-35.2,4.3,25.7,0.158421583,0.707052828,-0.135502182,0.675710318
186,469191,1852900,0.988,0.04,-0.034,0,0,0.1,-35.2,4.3,25.7,0.158421583,0.707052828,-0.135502182,0.675710318
187,471581,1852900,0.988,0.04,-0.038,0,0,0,-35.2,4.3,25.7,0.158421583,0.707052828,-0.135502182,0.675710318
188,475085,1852900,0.988,0.04,-0.03,0,0.1,0,-35.2,4.5,26.1,0.158421583,0.707052828,-0.135502182,0.675710318
189,476719,1852900,0.988,0.04,-0.03,0,0.1,0,-35.2,4.5,26.1,0.158421583,0.707052828,-0.135502182,0.675710318
190,479930,1852910,0.985,0.04,-0.034,0,0.1,0,-35.2,4.5,26.1,0.158421583,0.707022309,-0.135502182,0.675710318
191,481624,1852910,0.985,0.04,-0.034,0,0.1,-0.1,-35.2,4.5,26.1,0.158421583,0.707022309,-0.135502182,0.675710318
192,485155,1852910,0.981,0.036,-0.038,0,0.1,0,-35.3,4.8,26.4,0.158421583,0.707022309,-0.135502182,0.675710318
193,486709,1852910,0.981,0.036,-0.038,0,0.1,0,-35.3,4.8,26.4,0.158421583,0.707022309,-0.135502182,0.675710318
194,489152,1852920,0.985,0.04,-0.034,0,0.2,0,-35.3,4.8,26.4,0.158421583,0.707022309,-0.135502182,0.675710318
195,492541,1852920,0.981,0.036,-0.042,0,0.2,0,-35.3,4.8,26.4,0.158421583,0.707022309,-0.135502182,0.675710318
196,494134,1852920,0.985,0.036,-0.034,0,0.2,0,-35.2,8.1,27.2,0.158421583,0.707022309,-0.135502182,0.675710318
197,497125,1852920,0.981,0.04,-0.038,0,0.2,0,-35.2,8.1,27.2,0.158421583,0.707022309,-0.135502182,0.675740837
198,499480,1852930,0.981,0.04,-0.034,0,0.1,-0.1,-35.2,8.1,27.2,0.158421583,0.707022309,-0.135471664,0.675740837
199,501599,1852930,0.985,0.04,-0.042,0.1,0,-0.1,-35.2,8.1,27.2,0.158421583,0.707022309,-0.135471664,0.675740837
200,505131,1852930,0.985,0.04,-0.042,0.1,0,-0.1,-35.2,8.1,27.2,0.158421583,0.707022309,-0.135471664,0.675740837
201,506607,1852930,0.988,0.04,-0.034,0,0.1,0,-35.5,6.2,26.7,0.158421583,0.707022309,-0.135471664,0.675710318
202,509073,1852940,0.988,0.04,-0.034,0,0.2,0,-35.5,6.2,26.7,0.158421583,0.707022309,-0.135471664,0.675710318
203,512565,1852940,0.988,0.044,-0.03,0,0.2,0,-35.5,6.2,26.7,0.158421583,0.707022309,-0.135471664,0.675740837
204,514221,1852940,0.992,0.04,-0.034,0,0.1,0.1,-35.1,6.8,26.8,0.158421583,0.707022309,-0.135502182,0.675740837
205,516792,1852940,0.988,0.044,-0.034,0,0,0,-35.1,6.8,26.8,0.158421583,0.707022309,-0.135502182,0.675740837
206,520152,1852950,0.988,0.04,-0.034,0,0,0,-35.1,6.8,26.8,0.158421583,0.707022309,-0.135502182,0.675740837
207,521623,1852950,0.985,0.04,-0.034,0,0,-0.1,-35.1,6.8,26.8,0.158421583,0.707022309,-0.135502182,0.675740837
208,524597,1852950,0.985,0.04,-0.03,-0.1,0,-0.1,-35.2,7.5,26.7,0.158421583,0.707022309,-0.135502182,0.675740837
209,527642,1852950,0.988,0.036,-0.03,0,0.1,-0.1,-35.2,7.5,26.7,0.15848262,0.707022309,-0.135502182,0.675740837
210,529152,1852960,0.985,0.036,-0.038,-0.1,0,0,-35.2,7.5,26.7,0.15848262,0.707022309,-0.135502182,0.675740837
211,531715,1852960,0.985,0.04,-0.042,-0.1,-0.1,-0.1,-35.2,7.5,26.7,0.15848262,0.707022309,-0.135502182,0.675740837
212,535074,1852960,0.985,0.044,-0.038,-0.1,-0.3,-0.1,-35,8.1,26.7,0.15848262,0.707022309,-0.135502182,0.675710318
213,536626,1852960,0.985,0.044,-0.038,0,-0.3,-0.1,-35,8.1,26.7,0.15848262,0.707022309,-0.135502182,0.675710318
214,539686,1852970,0.985,0.044,-0.038,0,-0.2,-0.1,-35,8.1,26.7,0.15848262,0.707022309,-0.135502182,0.675710318
215,542567,1852970,0.992,0.04,-0.034,0.1,-0.1,0,-35,8.1,26.7,0.15848262,0.707022309,-0.135471664,0.675710318
216,544105,1852970,0.988,0.04,-0.034,0,0,0,-35.3,6.2,27.1,0.15848262,0.707022309,-0.135471664,0.675710318
217,546612,1852970,0.992,0.036,-0.034,0,0,0,-35.3,6.2,27.1,0.15848262,0.707022309,-0.135502182,0.675710318
218,550001,1852980,0.988,0.036,-0.038,0,0,0,-35.3,6.2,27.1,0.15848262,0.707022309,-0.135502182,0.675710318
219,551652,1852980,0.985,0.04,-0.034,0,0,0,-35.3,6.2,27.1,0.15848262,0.707022309,-0.135502182,0.675710318
220,554531,1852980,0.985,0.04,-0.034,0,0,0,-35.3,6.2,27.1,0.15848262,0.707022309,-0.135502182,0.675710318
221,557364,1852980,0.981,0.036,-0.034,0,0,0,-35.1,6.2,27.6,0.158421583,0.707022309,-0.135502182,0.675710318
222,559096,1852990,0.981,0.036,-0.038,0,0,0,-35.1,6.2,27.6,0.158421583,0.707022309,-0.135502182,0.675710318
223,561869,1852990,0.985,0.032,-0.034,0,0,0,-35.1,6.2,27.6,0.158421583,0.707022309,-0.135502182,0.675710318
224,564722,1852990,0.985,0.044,-0.034,0,0,0,-35.1,6.3,27.1,0.158421583,0.707022309,-0.135502182,0.675710318
225,567736,1852990,0.985,0.04,-0.034,0,0.1,0,-35.1,6.3,27.1,0.158421583,0.707022309,-0.135502182,0.675740837
226,569226,1853000,0.988,0.04,-0.034,0,0.1,0,-35.1,6.3,27.1,0.158421583,0.707022309,-0.135502182,0.675740837
227,573032,1853000,0.988,0.04,-0.042,0,0,0,-35.1,6.3,27.1,0.158421583,0.707022309,-0.135502182,0.675740837
228,575373,1853000,0.988,0.04,-0.034,0,0,0,-35.3,6.5,27.3,0.158421583,0.707022309,-0.135502182,0.675740837
229,577668,1853000,0.988,0.04,-0.038,0,0,0,-35.3,6.5,27.3,0.158421583,0.707022309,-0.135502182,0.675740837
230,579878,1853010,0.988,0.04,-0.03,0,0,0,-35.3,6.5,27.3,0.158421583,0.707022309,-0.135502182,0.675740837
231,582020,1853010,0.985,0.044,-0.046,0,0.1,0,-35.3,6.5,27.3,0.158421583,0.707022309,-0.135502182,0.675740837
232,584650,1853010,0.985,0.04,-0.034,0,0,0,-36.1,6.5,27.2,0.158421583,0.707022309,-0.135502182,0.675740837
233,586853,1853010,0.985,0.04,-0.038,0,0,0,-36.1,6.5,27.2,0.158421583,0.707022309,-0.135502182,0.675740837
234,589441,1853020,0.981,0.04,-0.034,0,0,0,-36.1,6.5,27.2,0.158421583,0.707022309,-0.135502182,0.675740837
235,591912,1853020,0.985,0.04,-0.03,0,0,0,-36.1,6.5,27.2,0.158421583,0.706991791,-0.135502182,0.675740837
236,595729,1853020,0.988,0.036,-0.034,-0.1,0,0,-34.6,5.1,27.3,0.158421583,0.706991791,-0.135502182,0.675740837
237,598014,1853020,0.985,0.04,-0.034,-0.1,0,0,-34.6,5.1,27.3,0.158421583,0.707022309,-0.135502182,0.675740837
238,600160,1853030,0.985,0.04,-0.038,0,-0.1,0,-34.6,5.1,27.3,0.158421583,0.707022309,-0.135532701,0.675740837
239,601948,1853030,0.981,0.044,-0.034,0,-0.1,0,-34.6,5.1,27.3,0.158421583,0.707022309,-0.135532701,0.675740837
240,604333,1853030,0.981,0.044,-0.034,0,-0.1,0,-34.6,5.1,27.3,0.158421583,0.707022309,-0.135532701,0.675740837
241,608481,1853030,0.985,0.044,-0.034,0,-0.1,0,-36.6,8,27.3,0.15848262,0.707022309,-0.135502182,0.675710318
242,609237,1853040,0.988,0.04,-0.042,0,0,0,-36.6,8,27.3,0.15848262,0.707022309,-0.135532701,0.675710318
243,612822,1853040,0.985,0.044,-0.038,0,0,0.1,-36.6,8,27.3,0.158421583,0.707022309,-0.135532701,0.675710318
244,614400,1853040,0.992,0.036,-0.038,0,0,0.1,-37.1,8.1,27.4,0.158421583,0.707022309,-0.135532701,0.675710318
245,617009,1853040,0.988,0.04,-0.034,0,0,0.1,-37.1,8.1,27.4,0.158421583,0.707022309,-0.135532701,0.675740837
246,620085,1853050,0.988,0.04,-0.034,-0.1,0,0,-37.1,8.1,27.4,0.158421583,0.707022309,-0.135532701,0.675740837
247,621749,1853050,0.988,0.036,-0.034,-0.1,0,0,-37.1,8.1,27.4,0.158421583,0.707022309,-0.135532701,0.675740837
248,624598,1853050,0.985,0.032,-0.034,-0.1,0,0,-37.5,7.8,27.1,0.15848262,0.707022309,-0.135532701,0.675740837
249,626729,1853050,0.985,0.04,-0.038,-0.1,0.1,0,-37.5,7.8,27.1,0.15848262,0.706991791,-0.135532701,0.675740837
250,630807,1853060,0.988,0.04,-0.038,0,0.2,0.1,-37.5,7.8,27.1,0.15848262,0.706991791,-0.135532701,0.675740837
251,632932,1853060,0.985,0.044,-0.034,0,0.2,0,-37.5,7.8,27.1,0.15848262,0.706991791,-0.135532701,0.675740837
252,635437,1853060,0.985,0.036,-0.038,0,0.2,0,-37.5,7.8,27.2,0.15848262,0.706991791,-0.135532701,0.675740837
253,637703,1853060,0.985,0.036,-0.038,0,0.1,0,-37.5,7.8,27.2,0.15848262,0.706991791,-0.135532701,0.675740837
254,640013,1853070,0.985,0.036,-0.034,0,0.1,0,-37.5,7.8,27.2,0.15848262,0.706991791,-0.135532701,0.675740837
255,642101,1853070,0.981,0.036,-0.03,0,0.1,0,-37.5,7.8,27.2,0.15848262,0.706991791,-0.135532701,0.675740837
256,645147,1853070,0.985,0.036,-0.038,0,0,0.1,-34.3,6,27.1,0.158421583,0.706991791,-0.135532701,0.675740837
257,647199,1853070,0.985,0.044,-0.034,0,0,0.1,-34.3,6,27.1,0.158421583,0.706991791,-0.135532701,0.675740837
258,649358,1853080,0.985,0.036,-0.034,0,0.1,0,-34.3,6,27.1,0.158421583,0.706991791,-0.135532701,0.675740837
259,652761,1853080,0.988,0.036,-0.042,0,0.1,0,-34.3,6,27.1,0.158421583,0.706991791,-0.135532701,0.675740837
260,654380,1853080,0.988,0.036,-0.042,0,0.1,0,-34.3,6,27.1,0.158421583,0.706991791,-0.135532701,0.675740837
261,657052,1853080,0.988,0.04,-0.03,0,0,-0.1,-36.5,7.1,27.3,0.158421583,0.706991791,-0.135563219,0.675740837
262,659210,1853090,0.988,0.044,-0.038,-0.1,0,-0.1,-36.5,7.1,27.3,0.158421583,0.706991791,-0.135563219,0.675740837
263,662676,1853090,0.988,0.04,-0.034,-0.1,0,-0.1,-36.5,7.1,27.3,0.158421583,0.706991791,-0.135563219,0.675740837
264,664952,1853090,0.985,0.04,-0.042,-0.1,0,-0.1,-36.1,7,27.2,0.158421583,0.706991791,-0.135563219,0.675740837
265,667178,1853090,0.985,0.04,-0.03,0,0,-0.1,-36.1,7,27.2,0.15848262,0.706991791,-0.135563219,0.675740837
266,669486,1853100,0.988,0.04,-0.034,0,0,0,-36.1,7,27.2,0.15848262,0.706991791,-0.135563219,0.675740837
267,671794,1853100,0.985,0.04,-0.038,0,0,0,-36.1,7,27.2,0.15848262,0.706991791,-0.135563219,0.675740837
268,674306,1853100,0.985,0.044,-0.038,0,0,0,-34.8,7.1,27.2,0.15848262,0.706991791,-0.135563219,0.675740837
269,677362,1853100,0.988,0.036,-0.034,0,0,0,-34.8,7.1,27.2,0.15848262,0.706991791,-0.135563219,0.675740837
270,679317,1853110,0.985,0.04,-0.034,0,0,0.1,-34.8,7.1,27.2,0.158421583,0.706991791,-0.135563219,0.675740837
271,681747,1853110,0.988,0.036,-0.034,0,0,0.1,-34.8,7.1,27.2,0.158421583,0.706991791,-0.135563219,0.675740837
272,684158,1853110,0.985,0.04,-0.034,0,0,0,-34.5,6.7,27.2,0.158421583,0.706991791,-0.135563219,0.675740837
273,687352,1853110,0.988,0.04,-0.038,0,0.1,0,-34.5,6.7,27.2,0.158421583,0.706991791,-0.135563219,0.675740837
274,689723,1853120,0.988,0.04,-0.034,0,0.1,0,-34.5,6.7,27.2,0.158421583,0.706991791,-0.135563219,0.675740837
275,691859,1853120,0.988,0.04,-0.038,0,0.1,0,-34.5,6.7,27.2,0.158421583,0.706991791,-0.135563219,0.675740837
276,694152,1853120,0.985,0.04,-0.038,0,0.1,-0.1,-35.5,6.3,27.2,0.15848262,0.706991791,-0.135563219,0.675740837
277,696824,1853120,0.985,0.04,-0.034,0,0.1,-0.1,-35.5,6.3,27.2,0.15848262,0.706991791,-0.135563219,0.675740837
278,700924,1853130,0.985,0.044,-0.034,0,0.1,-0.1,-35.5,6.3,27.2,0.15848262,0.706991791,-0.135563219,0.675740837
279,703183,1853130,0.985,0.04,-0.038,0,0.1,0,-35.5,6.3,27.2,0.15848262,0.706991791,-0.135563219,0.675740837
280,705443,1853130,0.985,0.04,-0.038,0,0.1,0,-35.5,6.3,27.2,0.15848262,0.706991791,-0.135563219,0.675740837
281,707699,1853130,0.985,0.036,-0.026,0,0,0,-35.2,6.5,27.6,0.15848262,0.706991791,-0.135532701,0.675740837
282,709943,1853140,0.981,0.044,-0.038,-0.1,-0.1,0,-35.2,6.5,27.6,0.15848262,0.706991791,-0.135532701,0.675740837
283,712224,1853140,0.988,0.036,-0.038,0,-0.1,0,-35.2,6.5,27.6,0.15848262,0.706991791,-0.135563219,0.675740837
284,714444,1853140,0.985,0.04,-0.034,0,0,0,-35.3,6.2,27.2,0.15848262,0.706991791,-0.135563219,0.675740837
285,716707,1853140,0.981,0.04,-0.038,0,0,0,-35.3,6.2,27.2,0.15848262,0.706991791,-0.135563219,0.675740837
286,719367,1853150,0.985,0.036,-0.042,0,0,0,-35.3,6.2,27.2,0.15848262,0.706991791,-0.135532701,0.675740837
287,723371,1853150,0.988,0.04,-0.042,0,0.1,0,-35.3,6.2,27.2,0.15848262,0.706991791,-0.135532701,0.675740837
288,725600,1853150,0.985,0.04,-0.038,0,0.1,0,-35.3,6.2,27.3,0.15848262,0.706991791,-0.135532701,0.675740837
289,727798,1853150,0.985,0.04,-0.038,0,0.1,0,-35.3,6.2,27.3,0.15848262,0.706991791,-0.135532701,0.675740837
290,729316,1853160,0.985,0.04,-0.038,0,0.1,0.2,-35.3,6.2,27.3,0.15848262,0.706991791,-0.135563219,0.675740837
291,733176,1853160,0.988,0.032,-0.03,0,0.1,0.2,-35.3,6.2,27.3,0.15848262,0.706991791,-0.135563219,0.675740837
292,735420,1853160,0.985,0.04,-0.034,0,0.1,0.2,-35.5,6.5,27.5,0.15848262,0.706991791,-0.135563219,0.675740837
293,737671,1853160,0.988,0.044,-0.038,-0.1,0.2,0,-35.5,6.5,27.5,0.15848262,0.706961272,-0.135563219,0.675740837
294,739167,1853170,0.985,0.04,-0.026,-0.1,0.2,0,-35.5,6.5,27.5,0.15848262,0.706961272,-0.135563219,0.675771355
295,741662,1853170,0.981,0.04,-0.03,-0.1,0.1,0,-35.5,6.5,27.5,0.15848262,0.706961272,-0.135563219,0.675771355
296,745962,1853170,0.985,0.04,-0.034,0,0,0.1,-36.7,6.2,27.1,0.15848262,0.706961272,-0.135563219,0.675771355
297,748198,1853170,0.985,0.04,-0.034,0,-0.2,0.1,-36.7,6.2,27.1,0.15848262,0.706961272,-0.135563219,0.675740837
298,750438,1853180,0.981,0.04,-0.034,0,-0.4,0,-36.7,6.2,27.1,0.15848262,0.706991791,-0.135563219,0.675740837
299,752714,1853180,0.985,0.04,-0.042,0.1,-0.4,0,-36.7,6.2,27.1,0.15848262,0.706991791,-0.135563219,0.675740837
300,754886,1853180,0.985,0.04,-0.042,0.1,-0.4,0,-36.7,6.2,27.1,0.15848262,0.706991791,-0.135563219,0.675740837
301,757261,1853180,0.981,0.04,-0.038,0,-0.1,-0.1,-34.5,6.3,27.3,0.15848262,0.706991791,-0.135563219,0.675740837
302,759392,1853190,0.985,0.04,-0.034,0,0,0,-34.5,6.3,27.3,0.15848262,0.706991791,-0.135563219,0.675740837
303,761943,1853190,0.985,0.032,-0.042,0,0,0,-34.5,6.3,27.3,0.15848262,0.706991791,-0.135563219,0.675740837
304,764219,1853190,0.985,0.04,-0.034,0,0,0,-33.8,6.4,27.3,0.15848262,0.706991791,-0.135563219,0.675740837
305,767598,1853190,0.985,0.036,-0.034,0,0,0,-33.8,6.4,27.3,0.15848262,0.706991791,-0.135563219,0.675710318
306,769176,1853200,0.985,0.048,-0.038,0.1,0,0,-33.8,6.4,27.3,0.15848262,0.706991791,-0.135563219,0.675710318
307,771702,1853200,0.992,0.044,-0.034,0,-0.1,0,-33.8,6.4,27.3,0.15848262,0.706991791,-0.135563219,0.675710318
308,775858,1853200,0.988,0.044,-0.038,0,0,0,-34,6.8,27.3,0.15848262,0.707022309,-0.135563219,0.675710318
309,778221,1853200,0.988,0.036,-0.038,0,0,0,-34,6.8,27.3,0.15848262,0.707022309,-0.135563219,0.675710318
310,780346,1853210,0.988,0.044,-0.03,0,0,0,-34,6.8,27.3,0.15848262,0.707022309,-0.135563219,0.675710318
311,781925,1853210,0.988,0.036,-0.042,0,0,0,-34,6.8,27.3,0.15848262,0.707022309,-0.135563219,0.675710318
312,784236,1853210,0.981,0.044,-0.038,0,0,0,-34.1,6,27.2,0.15848262,0.707022309,-0.135563219,0.675710318
313,786778,1853210,0.985,0.036,-0.03,0,0,0,-34.1,6,27.2,0.15848262,0.707022309,-0.135563219,0.675710318
314,790894,1853220,0.985,0.04,-0.034,0,0.1,0,-34.1,6,27.2,0.15848262,0.706991791,-0.135563219,0.675710318
315,793279,1853220,0.985,0.036,-0.03,0,0.3,0,-34.1,6,27.2,0.15848262,0.706991791,-0.135563219,0.675740837
316,795396,1853220,0.985,0.04,-0.034,-0.1,0.4,0,-36,6.3,27.4,0.15848262,0.706991791,-0.135563219,0.675740837
317,796940,1853220,0.988,0.044,-0.034,0,0.2,0,-36,6.3,27.4,0.15848262,0.706991791,-0.135563219,0.675740837
318,800943,1853230,0.988,0.04,-0.034,0,0,0,-36,6.3,27.4,0.15848262,0.706991791,-0.135563219,0.675740837
319,803238,1853230,0.988,0.036,-0.034,0,-0.1,0,-36,6.3,27.4,0.15848262,0.706991791,-0.135563219,0.675740837
320,805404,1853230,0.988,0.036,-0.034,0,-0.1,0,-36,6.3,27.4,0.15848262,0.706991791,-0.135563219,0.675740837
321,807690,1853230,0.988,0.04,-0.038,0,-0.1,0,-34.6,6.2,26.8,0.15848262,0.706991791,-0.135563219,0.675740837
322,809714,1853240,0.985,0.04,-0.038,0,-0.1,0,-34.6,6.2,26.8,0.15848262,0.706991791,-0.135563219,0.675740837
323,811700,1853240,0.985,0.04,-0.034,0,0,0,-34.6,6.2,26.8,0.15848262,0.706991791,-0.135563219,0.675740837
324,814206,1853240,0.988,0.036,-0.038,0,0,0,-34.9,6.5,27.3,0.15848262,0.706991791,-0.135563219,0.675740837
325,818471,1853240,0.985,0.04,-0.038,0,0,0,-34.9,6.5,27.3,0.15848262,0.706991791,-0.135563219,0.675740837
326,820735,1853250,0.985,0.04,-0.038,0,0,0,-34.9,6.5,27.3,0.15848262,0.706991791,-0.135563219,0.675740837
327,822955,1853250,0.985,0.04,-0.042,0,0,0,-34.9,6.5,27.3,0.15848262,0.706991791,-0.135563219,0.675740837
328,825183,1853250,0.985,0.04,-0.042,0,0.1,0,-34.7,6.3,27.1,0.15848262,0.706991791,-0.135563219,0.675740837
329,826718,1853250,0.988,0.036,-0.034,0,0.1,0,-34.7,6.3,27.1,0.15848262,0.706991791,-0.135563219,0.675740837
330,829293,1853260,0.985,0.036,-0.038,0,0.1,0,-34.7,6.3,27.1,0.15848262,0.706991791,-0.135563219,0.675740837
331,833146,1853260,0.988,0.036,-0.038,0,0,0,-34.7,6.3,27.1,0.15848262,0.706991791,-0.135563219,0.675740837
332,835440,1853260,0.985,0.036,-0.034,0,-0.1,-0.1,-34.7,6.3,27.2,0.15848262,0.706991791,-0.135563219,0.675740837
333,837671,1853260,0.988,0.04,-0.038,0,-0.1,0,-34.7,6.3,27.2,0.15848262,0.706991791,-0.135563219,0.675740837
334,839422,1853270,0.985,0.04,-0.038,0,-0.1,0,-34.7,6.3,27.2,0.15848262,0.706991791,-0.135563219,0.675740837
335,841714,1853270,0.992,0.04,-0.042,0,-0.1,0,-34.7,6.3,27.2,0.15848262,0.706991791,-0.135563219,0.675740837
336,844322,1853270,0.988,0.04,-0.038,0,-0.1,0,-35.4,6.3,27.2,0.15848262,0.706991791,-0.135563219,0.675740837
337,847677,1853270,0.988,0.04,-0.03,0,0,0,-35.4,6.3,27.2,0.15848262,0.706991791,-0.135563219,0.675740837
338,849536,1853280,0.992,0.036,-0.038,0,0,-0.1,-35.4,6.3,27.2,0.15848262,0.706991791,-0.135563219,0.675740837
339,851753,1853280,0.988,0.04,-0.038,0.1,0,0,-35.4,6.3,27.2,0.15848262,0.706991791,-0.135563219,0.675740837
340,854335,1853280,0.988,0.04,-0.038,0.1,0,0,-35.4,6.3,27.2,0.15848262,0.706991791,-0.135563219,0.675740837
341,856555,1853280,0.981,0.04,-0.038,0,0,0,-35.2,6.1,27.6,0.158421583,0.706991791,-0.135563219,0.675740837
342,860047,1853290,0.985,0.04,-0.034,0,0.1,0,-35.2,6.1,27.6,0.15848262,0.706991791,-0.135563219,0.675740837
343,861784,1853290,0.981,0.04,-0.038,-0.1,0.1,0,-35.2,6.1,27.6,0.15848262,0.706991791,-0.135563219,0.675740837
344,864085,1853290,0.985,0.04,-0.042,0,0.1,0,-35.5,6.5,27.8,0.15848262,0.706991791,-0.135563219,0.675740837
345,866593,1853290,0.981,0.036,-0.034,0,0.1,0,-35.5,6.5,27.8,0.15848262,0.706991791,-0.135563219,0.675740837
346,870047,1853300,0.985,0.04,-0.038,0,0.1,0,-35.5,6.5,27.8,0.15848262,0.706991791,-0.135563219,0.675740837
347,871690,1853300,0.985,0.04,-0.034,0,0.1,0,-35.5,6.5,27.8,0.15848262,0.706991791,-0.135563219,0.675740837
348,874300,1853300,0.988,0.04,-0.038,0,0.1,0,-35.2,6.1,28.2,0.15848262,0.706991791,-0.135563219,0.675740837
349,876604,1853300,0.988,0.04,-0.034,0,0,0,-35.2,6.1,28.2,0.15848262,0.706991791,-0.135563219,0.675740837
350,880505,1853310,0.988,0.04,-0.034,0,0,0,-35.2,6.1,28.2,0.15848262,0.706991791,-0.135563219,0.675740837
351,882652,1853310,0.988,0.04,-0.034,0,-0.1,0,-35.2,6.1,28.2,0.15848262,0.706991791,-0.135563219,0.675740837
352,884816,1853310,0.985,0.04,-0.034,0,-0.2,0,-35.3,6.2,29,0.15848262,0.706991791,-0.135563219,0.675740837
353,886990,1853310,0.988,0.036,-0.038,0,-0.2,0,-35.3,6.2,29,0.15848262,0.706991791,-0.135563219,0.675740837
354,889401,1853320,0.988,0.04,-0.042,0,-0.1,-0.1,-35.3,6.2,29,0.15848262,0.706991791,-0.135563219,0.675740837
355,891575,1853320,0.985,0.036,-0.034,0,0,-0.1,-35.3,6.2,29,0.15848262,0.706991791,-0.135563219,0.675740837
356,894160,1853320,0.981,0.04,-0.034,0,0,-0.1,-35.4,6.6,25.5,0.15848262,0.706991791,-0.135563219,0.675710318
357,898300,1853320,0.981,0.04,-0.038,0,0,0,-35.4,6.6,25.5,0.15848262,0.706991791,-0.135563219,0.675710318
358,900296,1853330,0.985,0.036,-0.03,0,0,0,-35.4,6.6,25.5,0.15848262,0.706991791,-0.135563219,0.675710318
359,902059,1853330,0.981,0.036,-0.034,0,0,0,-35.4,6.6,25.5,0.15848262,0.706991791,-0.135563219,0.675710318
360,904396,1853330,0.981,0.036,-0.034,0,0,0,-35.4,6.6,25.5,0.15848262,0.706991791,-0.135563219,0.675710318
361,906633,1853330,0.988,0.04,-0.034,0,-0.1,-0.1,-35.3,6.4,27.8,0.15848262,0.706991791,-0.135563219,0.675740837
362,909163,1853340,0.985,0.04,-0.042,0,-0.1,0,-35.3,6.4,27.8,0.15848262,0.706991791,-0.135563219,0.675740837
363,912834,1853340,0.988,0.036,-0.038,0,-0.2,0,-35.3,6.4,27.8,0.15848262,0.706991791,-0.135563219,0.675740837
364,915144,1853340,0.988,0.044,-0.034,0,-0.1,0,-35.4,6.4,28.1,0.15848262,0.706991791,-0.135563219,0.675710318
365,917377,1853340,0.985,0.04,-0.034,0,0,0,-35.4,6.4,28.1,0.15848262,0.706991791,-0.135563219,0.675710318
366,919615,1853350,0.985,0.044,-0.038,0,0,0.1,-35.4,6.4,28.1,0.158421583,0.706991791,-0.135563219,0.675710318
367,921834,1853350,0.985,0.036,-0.038,0,0,0.1,-35.4,6.4,28.1,0.158421583,0.706991791,-0.135563219,0.675740837
368,924174,1853350,0.985,0.044,-0.042,0,0,0.1,-35.2,6.1,28.1,0.158421583,0.706991791,-0.135563219,0.675740837
369,926736,1853350,0.985,0.044,-0.038,0.1,0,0,-35.2,6.1,28.1,0.158421583,0.706991791,-0.135563219,0.675740837
370,930411,1853360,0.985,0.044,-0.038,0,0,0,-35.2,6.1,28.1,0.158421583,0.706991791,-0.135563219,0.675740837
371,932644,1853360,0.988,0.044,-0.034,0,0.1,0,-35.2,6.1,28.1,0.158421583,0.706991791,-0.135563219,0.675740837
372,934866,1853360,0.985,0.04,-0.034,0,0.1,0.1,-35.4,6.3,27.1,0.158421583,0.706991791,-0.135563219,0.675740837
373,937165,1853360,0.981,0.04,-0.038,-0.1,0,0,-35.4,6.3,27.1,0.158421583,0.706991791,-0.135593738,0.675740837
374,939466,1853370,0.985,0.04,-0.038,-0.2,0,0,-35.4,6.3,27.1,0.158421583,0.706991791,-0.135593738,0.675740837
375,941690,1853370,0.985,0.04,-0.034,-0.2,-0.2,-0.1,-35.4,6.3,27.1,0.158421583,0.706991791,-0.135593738,0.675740837
376,944991,1853370,0.985,0.036,-0.03,-0.2,-0.3,-0.1,-35.3,6.5,26.3,0.15848262,0.706991791,-0.135593738,0.675710318
377,947097,1853370,0.985,0.04,-0.034,-0.1,-0.3,0,-35.3,6.5,26.3,0.15848262,0.707022309,-0.135593738,0.675710318
378,949414,1853380,0.988,0.044,-0.034,-0.1,-0.3,0,-35.3,6.5,26.3,0.15848262,0.707022309,-0.135593738,0.675710318
379,951702,1853380,0.988,0.04,-0.038,0,-0.2,0,-35.3,6.5,26.3,0.15848262,0.707022309,-0.135593738,0.675710318
380,955029,1853380,0.988,0.04,-0.038,0,-0.2,0,-35.3,6.5,26.3,0.15848262,0.707022309,-0.135593738,0.675710318
381,957308,1853380,0.988,0.04,-0.038,0,0,0,-35.4,6.4,27,0.15848262,0.706991791,-0.135593738,0.675710318
382,959292,1853390,0.985,0.04,-0.038,0,0,0,-35.4,6.4,27,0.15848262,0.706991791,-0.135593738,0.675710318
383,962275,1853390,0.985,0.036,-0.038,0,0,0,-35.4,6.4,27,0.15848262,0.706991791,-0.135593738,0.675710318
384,964094,1853390,0.981,0.04,-0.038,0,0.1,0,-35,6.7,26.7,0.15848262,0.706991791,-0.135593738,0.675710318
385,966768,1853390,0.985,0.04,-0.038,0,0.1,0.1,-35,6.7,26.7,0.15848262,0.706991791,-0.135593738,0.675710318
386,969925,1853400,0.985,0.04,-0.038,0,0.1,0,-35,6.7,26.7,0.15848262,0.706991791,-0.135593738,0.675740837
387,972555,1853400,0.985,0.04,-0.038,0,0,0,-35,6.7,26.7,0.15848262,0.706991791,-0.135593738,0.675740837
388,974205,1853400,0.985,0.04,-0.034,0,0,-0.1,-35.2,6.9,26.5,0.15848262,0.706991791,-0.135593738,0.675740837
389,977366,1853400,0.985,0.04,-0.03,0,-0.2,-0.2,-35.2,6.9,26.5,0.15848262,0.706991791,-0.135593738,0.675710318
390,980980,1853410,0.985,0.044,-0.038,0,-0.2,-0.2,-35.2,6.9,26.5,0.15848262,0.706991791,-0.135593738,0.675710318
391,982637,1853410,0.985,0.04,-0.034,0,-0.2,0,-35.2,6.9,26.5,0.15848262,0.707022309,-0.135593738,0.675710318
392,984134,1853410,0.985,0.044,-0.034,0,-0.1,0,-35.2,6.8,26.4,0.15848262,0.707022309,-0.135593738,0.675710318
393,986868,1853410,0.985,0.04,-0.038,0,0,0,-35.2,6.8,26.4,0.15848262,0.707022309,-0.135593738,0.675710318
394,989836,1853420,0.988,0.036,-0.038,0,0,0,-35.2,6.8,26.4,0.15848262,0.707022309,-0.135593738,0.675710318
395,991718,1853420,0.992,0.04,-0.034,0,-0.1,0,-35.2,6.8,26.4,0.15848262,0.707022309,-0.135593738,0.675710318
396,995220,1853420,0.988,0.036,-0.038,0,-0.2,0,-35.5,6.3,27.7,0.158421583,0.707022309,-0.135593738,0.675710318
397,996750,1853420,0.988,0.04,-0.034,0.1,-0.2,0,-35.5,6.3,27.7,0.158421583,0.707022309,-0.135593738,0.675710318
398,999135,1853430,0.985,0.04,-0.038,0.1,-0.2,0,-35.5,6.3,27.7,0.158421583,0.707022309,-0.135593738,0.675710318
399,1001675,1853430,0.988,0.04,-0.038,0.1,-0.2,-0.1,-35.5,6.3,27.7,0.158421583,0.707022309,-0.135593738,0.675710318
400,1005005,1853430,0.988,0.04,-0.038,0.1,-0.2,-0.1,-35.5,6.3,27.7,0.158421583,0.707022309,-0.135593738,0.675710318
401,1006712,1853430,0.981,0.036,-0.042,0,0,0,-35,6.3,26.8,0.158421583,0.707052828,-0.135593738,0.6756798
402,1010293,1853440,0.981,0.04,-0.034,0,0,0,-35,6.3,26.8,0.158421583,0.707052828,-0.135593738,0.6756798
403,1011893,1853440,0.985,0.04,-0.03,0,0.1,0.1,-35,6.3,26.8,0.158421583,0.707052828,-0.135593738,0.6756798
404,1014390,1853440,0.985,0.04,-0.038,0,0.1,0.2,-35.7,5.5,26.7,0.158421583,0.707052828,-0.135593738,0.6756798
405,1017494,1853440,0.981,0.036,-0.042,0,0.1,0.1,-35.7,5.5,26.7,0.158421583,0.707052828,-0.135593738,0.6756798
406,1019322,1853450,0.985,0.04,-0.034,0,0.1,0.1,-35.7,5.5,26.7,0.158421583,0.707022309,-0.135593738,0.6756798
407,1021778,1853450,0.988,0.04,-0.034,0,0.1,0,-35.7,5.5,26.7,0.158421583,0.707022309,-0.135593738,0.6756798
408,1025249,1853450,0.988,0.04,-0.034,0,0.1,0,-35.5,5.4,26.8,0.158421583,0.707022309,-0.135593738,0.675710318
409,1027381,1853450,0.992,0.036,-0.038,0,0.1,0.1,-35.5,5.4,26.8,0.158421583,0.707022309,-0.135593738,0.675710318
410,1029777,1853460,0.988,0.04,-0.042,0,0,0.1,-35.5,5.4,26.8,0.158421583,0.707022309,-0.135593738,0.675710318
411,1031837,1853460,0.992,0.036,-0.034,0,0,0,-35.5,5.4,26.8,0.158421583,0.707022309,-0.135593738,0.675710318
412,1034182,1853460,0.985,0.04,-0.038,0,0,0,-35.5,4.2,27.4,0.158421583,0.707022309,-0.135593738,0.675710318
413,1037607,1853460,0.988,0.036,-0.042,0,0,0,-35.5,4.2,27.4,0.158421583,0.707022309,-0.135593738,0.675710318
414,1039840,1853470,0.985,0.036,-0.038,0,0,-0.1,-35.5,4.2,27.4,0.158421583,0.707022309,-0.135593738,0.675710318
415,1042104,1853470,0.985,0.036,-0.03,0,0,-0.1,-35.5,4.2,27.4,0.158421583,0.707022309,-0.135593738,0.675710318
416,1044635,1853470,0.988,0.04,-0.038,0,0,-0.1,-35.5,8.1,28.4,0.158421583,0.707022309,-0.135593738,0.675710318
417,1047010,1853470,0.985,0.04,-0.034,0,0.1,0,-35.5,8.1,28.4,0.158421583,0.707022309,-0.135593738,0.675710318
418,1049175,1853480,0.985,0.032,-0.038,0,0.2,0,-35.5,8.1,28.4,0.158421583,0.707022309,-0.135593738,0.675710318
419,1051748,1853480,0.985,0.036,-0.038,0,0.2,0,-35.5,8.1,28.4,0.158421583,0.707022309,-0.135593738,0.675710318
420,1056122,1853480,0.985,0.036,-0.038,0,0.2,0,-35.5,8.1,28.4,0.158421583,0.707022309,-0.135593738,0.675710318
421,1056911,1853480,0.985,0.04,-0.038,0,0,0,-35.5,4.9,26.3,0.158421583,0.707022309,-0.135624256,0.675710318
422,1059500,1853490,0.988,0.044,-0.03,0,-0.1,0,-35.5,4.9,26.3,0.158421583,0.707022309,-0.135624256,0.675710318
423,1062016,1853490,0.985,0.036,-0.03,0,-0.2,0,-35.5,4.9,26.3,0.158421583,0.707022309,-0.135624256,0.675710318
424,1064196,1853490,0.985,0.04,-0.038,0,-0.1,0,-35.5,4.8,26,0.158421583,0.707022309,-0.135624256,0.6756798
425,1066849,1853490,0.985,0.036,-0.038,0,0,0,-35.5,4.8,26,0.158421583,0.707022309,-0.135624256,0.6756798
426,1069958,1853500,0.988,0.04,-0.038,0,0,0,-35.5,4.8,26,0.158421583,0.707022309,-0.135624256,0.6756798
427,1071744,1853500,0.988,0.04,-0.034,0,0,0,-35.5,4.8,26,0.158421583,0.707022309,-0.135624256,0.6756798
428,1074508,1853500,0.988,0.044,-0.034,0,0,0,-35.3,5.1,26.2,0.158421583,0.707022309,-0.135624256,0.6756798
429,1077581,1853500,0.988,0.04,-0.038,0,-0.1,-0.1,-35.3,5.1,26.2,0.158421583,0.707052828,-0.135624256,0.6756798
430,1079894,1853510,0.985,0.036,-0.034,0,-0.2,-0.1,-35.3,5.1,26.2,0.158421583,0.707052828,-0.135624256,0.6756798
431,1082901,1853510,0.985,0.044,-0.038,0,-0.1,-0.1,-35.3,5.1,26.2,0.158421583,0.707052828,-0.135624256,0.6756798
432,1085167,1853510,0.985,0.044,-0.034,0,0,0,-35.5,5.5,26.1,0.158421583,0.707052828,-0.135624256,0.6756798
433,1087433,1853510,0.985,0.04,-0.038,0.1,0.1,0,-35.5,5.5,26.1,0.158421583,0.707052828,-0.135624256,0.6756798
434,1090385,1853520,0.988,0.036,-0.034,0.1,0.1,0.1,-35.5,5.5,26.1,0.158421583,0.707052828,-0.135624256,0.6756798
435,1092989,1853520,0.988,0.04,-0.034,0,0.1,0,-35.5,5.5,26.1,0.158421583,0.707052828,-0.135624256,0.6756798
436,1095291,1853520,0.992,0.04,-0.034,0,0.2,0,-35.2,7.7,27.4,0.158421583,0.707022309,-0.135624256,0.675710318
437,1097517,1853520,0.988,0.04,-0.034,0,0.2,0,-35.2,7.7,27.4,0.158421583,0.707022309,-0.135624256,0.675710318
438,1099814,1853530,0.985,0.036,-0.034,0,0.1,0,-35.2,7.7,27.4,0.158421583,0.707022309,-0.135624256,0.675710318
439,1102471,1853530,0.985,0.036,-0.038,0,0.1,0,-35.2,7.7,27.4,0.158421583,0.707022309,-0.135624256,0.675710318
440,1104254,1853530,0.985,0.036,-0.038,0,0.1,0,-35.2,7.7,27.4,0.158421583,0.707022309,-0.135624256,0.675710318
441,1106773,1853530,0.985,0.036,-0.034,0,0,-0.1,-35.5,7,27.6,0.158391064,0.707022309,-0.135624256,0.675710318
442,1110242,1853540,0.988,0.036,-0.034,0,0,0,-35.5,7,27.6,0.158391064,0.707022309,-0.135624256,0.675710318
443,1111809,1853540,0.988,0.036,-0.038,0,0,0,-35.5,7,27.6,0.158391064,0.707022309,-0.135624256,0.675710318
444,1114863,1853540,0.985,0.04,-0.038,0,0,0,-35,7,27.6,0.158391064,0.707022309,-0.135624256,0.675710318
445,1116788,1853540,0.988,0.04,-0.034,0,0,0,-35,7,27.6,0.158391064,0.707022309,-0.135624256,0.675710318
446,1119222,1853550,0.988,0.04,-0.034,0,0,0,-35,7,27.6,0.158391064,0.707022309,-0.135624256,0.675710318
447,1123405,1853550,0.985,0.04,-0.038,0,0,0,-35,7,27.6,0.158391064,0.707022309,-0.135624256,0.675710318
448,1125567,1853550,0.985,0.036,-0.034,0,0,0,-35.2,7.3,27.6,0.158391064,0.707022309,-0.135624256,0.675710318
449,1127805,1853550,0.985,0.04,-0.046,0,0,0,-35.2,7.3,27.6,0.158391064,0.707022309,-0.135624256,0.675710318
450,1129345,1853560,0.988,0.036,-0.038,0.1,0.1,0.1,-35.2,7.3,27.6,0.158391064,0.707022309,-0.135624256,0.675710318
451,1131715,1853560,0.985,0.04,-0.038,0.1,0.1,0,-35.2,7.3,27.6,0.158391064,0.707022309,-0.135624256,0.675710318
452,1134928,1853560,0.985,0.044,-0.034,0,0.1,0,-35.1,7.5,27.5,0.158391064,0.707022309,-0.135624256,0.675710318
453,1136709,1853560,0.985,0.04,-0.038,0,0,-0.1,-35.1,7.5,27.5,0.158391064,0.707022309,-0.135624256,0.675710318
454,1140129,1853570,0.988,0.04,-0.038,0,0,0,-35.1,7.5,27.5,0.158391064,0.707022309,-0.135624256,0.675710318
455,1141723,1853570,0.985,0.036,-0.03,0,0,0,-35.1,7.5,27.5,0.158391064,0.707022309,-0.135624256,0.675710318
456,1144776,1853570,0.985,0.036,-0.038,0,0.1,0.1,-35.1,6,27.2,0.158391064,0.707022309,-0.135624256,0.675740837
457,1146628,1853570,0.988,0.032,-0.034,-0.1,0.1,0.2,-35.1,6,27.2,0.158391064,0.707022309,-0.135624256,0.675740837
458,1150102,1853580,0.981,0.04,-0.042,-0.1,0.1,0.2,-35.1,6,27.2,0.158391064,0.706991791,-0.135624256,0.675740837
459,1151859,1853580,0.981,0.036,-0.034,0,0.1,0.1,-35.1,6,27.2,0.158391064,0.706991791,-0.135624256,0.675740837
460,1154120,1853580,0.981,0.036,-0.034,0,0.1,0.1,-35.1,6,27.2,0.158391064,0.706991791,-0.135624256,0.675740837
461,1157608,1853580,0.988,0.032,-0.034,0,0.2,-0.1,-35.2,7.1,27.1,0.158360546,0.706991791,-0.135654775,0.675740837
462,1159233,1853590,0.981,0.044,-0.034,0,0.2,0,-35.2,7.1,27.1,0.158360546,0.706991791,-0.135654775,0.675740837
463,1162171,1853590,0.981,0.04,-0.034,0,0.1,0,-35.2,7.1,27.1,0.158360546,0.706991791,-0.135654775,0.675740837
464,1165083,1853590,0.992,0.04,-0.034,-0.1,0,0,-35.6,6.7,27.4,0.158360546,0.706991791,-0.135654775,0.675740837
465,1166743,1853590,0.985,0.04,-0.042,-0.1,0,0,-35.6,6.7,27.4,0.158360546,0.706991791,-0.135654775,0.675740837
466,1169586,1853600,0.988,0.044,-0.034,0,0,0,-35.6,6.7,27.4,0.158360546,0.706991791,-0.135654775,0.675740837
467,1172650,1853600,0.985,0.04,-0.038,0,0,0,-35.6,6.7,27.4,0.158360546,0.706991791,-0.135654775,0.675740837
468,1174167,1853600,0.988,0.04,-0.034,0,0,0,-36,6.8,27.3,0.158360546,0.706991791,-0.135654775,0.675740837
469,1176865,1853600,0.988,0.04,-0.034,0,0,0,-36,6.8,27.3,0.158360546,0.706991791,-0.135654775,0.675740837
470,1179932,1853610,0.988,0.044,-0.034,0,0,0,-36,6.8,27.3,0.158360546,0.706991791,-0.135654775,0.675740837
471,1181834,1853610,0.988,0.04,-0.038,0,0.1,0,-36,6.8,27.3,0.158360546,0.706991791,-0.135654775,0.675740837
472,1185393,1853610,0.988,0.04,-0.042,0,0.1,0,-35,6.8,27.4,0.158360546,0.706991791,-0.135654775,0.675740837
473,1186880,1853610,0.985,0.04,-0.03,0,0,0,-35,6.8,27.4,0.158360546,0.706991791,-0.135654775,0.675740837
474,1190087,1853620,0.985,0.036,-0.038,0,0,0,-35,6.8,27.4,0.158360546,0.706991791,-0.135654775,0.675740837
475,1191648,1853620,0.981,0.036,-0.038,0,0.1,0,-35,6.8,27.4,0.158360546,0.706991791,-0.135654775,0.675740837
476,1194910,1853620,0.985,0.036,-0.038,0,0.1,0,-34.4,5.2,27.2,0.158360546,0.706991791,-0.135654775,0.675740837
477,1196978,1853620,0.985,0.036,-0.034,0,0.1,0,-34.4,5.2,27.2,0.158360546,0.706991791,-0.135654775,0.675740837
478,1199313,1853630,0.985,0.04,-0.034,0,0.1,0,-34.4,5.2,27.2,0.158360546,0.706991791,-0.135654775,0.675740837
479,1201974,1853630,0.988,0.036,-0.03,0,0.2,-0.1,-34.4,5.2,27.2,0.158360546,0.706991791,-0.135654775,0.675740837
480,1204153,1853630,0.988,0.036,-0.03,0,0.2,-0.1,-34.4,5.2,27.2,0.158360546,0.706991791,-0.135654775,0.675740837
481,1207620,1853630,0.985,0.04,-0.042,0,0,-0.2,-36.7,8.2,27.4,0.158360546,0.706961272,-0.135654775,0.675771355
482,1209804,1853640,0.985,0.036,-0.038,0,0,-0.1,-36.7,8.2,27.4,0.158360546,0.706961272,-0.135654775,0.675771355
483,1212033,1853640,0.988,0.04,-0.042,0,0,0,-36.7,8.2,27.4,0.158360546,0.706961272,-0.135654775,0.675771355
484,1214266,1853640,0.985,0.04,-0.038,0,0,0,-36.7,7.6,27.2,0.158360546,0.706961272,-0.135654775,0.675771355
485,1217028,1853640,0.988,0.044,-0.038,0,0,0.1,-36.7,7.6,27.2,0.158360546,0.706961272,-0.135654775,0.675771355
486,1219180,1853650,0.985,0.044,-0.042,0,0,0,-36.7,7.6,27.2,0.158360546,0.706961272,-0.135654775,0.675771355
487,1221871,1853650,0.988,0.04,-0.038,0.1,0,0,-36.7,7.6,27.2,0.158360546,0.706961272,-0.135654775,0.675771355
488,1225189,1853650,0.988,0.04,-0.038,0,0,-0.1,-37,7.6,27.2,0.158360546,0.706961272,-0.135654775,0.675771355
489,1226760,1853650,0.988,0.04,-0.034,0,-0.1,-0.1,-37,7.6,27.2,0.158360546,0.706991791,-0.135654775,0.675771355
490,1230096,1853660,0.985,0.044,-0.038,0,-0.1,0,-37,7.6,27.2,0.158360546,0.706991791,-0.135654775,0.675771355
491,1232391,1853660,0.985,0.04,-0.042,0,0,0,-37,7.6,27.2,0.158360546,0.706991791,-0.135654775,0.675771355
492,1234576,1853660,0.981,0.036,-0.034,0,0.1,0,-36.5,7.7,27,0.158360546,0.706991791,-0.135654775,0.675771355
493,1236778,1853660,0.981,0.036,-0.038,0,0.2,0,-36.5,7.7,27,0.158360546,0.706961272,-0.135654775,0.675771355
494,1239271,1853670,0.985,0.04,-0.038,-0.1,0.1,0,-36.5,7.7,27,0.158360546,0.706961272,-0.135654775,0.675771355
495,1242012,1853670,0.985,0.04,-0.034,0,0,0,-36.5,7.7,27,0.158360546,0.706961272,-0.135654775,0.675771355
496,1245126,1853670,0.985,0.04,-0.034,0,-0.1,0.1,-34.5,6.2,27.2,0.158360546,0.706961272,-0.135685293,0.675771355
497,1246691,1853670,0.985,0.04,-0.038,0,-0.1,0.1,-34.5,6.2,27.2,0.158360546,0.706961272,-0.135685293,0.675771355
498,1249387,1853680,0.985,0.04,-0.038,0,-0.3,0,-34.5,6.2,27.2,0.158360546,0.706991791,-0.135685293,0.675771355
499,1252623,1853680,0.988,0.036,-0.03,0,-0.2,0,-34.5,6.2,27.2,0.158360546,0.706991791,-0.135685293,0.675740837
500,1254324,1853680,0.988,0.036,-0.03,0,-0.2,0,-34.5,6.2,27.2,0.158360546,0.706991791,-0.135685293,0.675740837
501,1256662,1853680,0.992,0.04,-0.03,0.1,0,0,-36.1,6.3,27.3,0.158330027,0.706961272,-0.135685293,0.675771355
502,1260143,1853690,0.985,0.04,-0.038,0.1,0.1,0,-36.1,6.3,27.3,0.158330027,0.706961272,-0.135685293,0.675771355
503,1261882,1853690,0.992,0.044,-0.038,0,0,0,-36.1,6.3,27.3,0.158330027,0.706961272,-0.135685293,0.675771355
504,1264107,1853690,0.985,0.04,-0.042,0,0,0,-35.2,6.7,27.4,0.158330027,0.706961272,-0.135685293,0.675771355
505,1267646,1853690,0.985,0.036,-0.038,0,0,0,-35.2,6.7,27.4,0.158330027,0.706961272,-0.135685293,0.675771355
506,1269129,1853700,0.985,0.04,-0.03,0,-0.1,0,-35.2,6.7,27.4,0.158330027,0.706991791,-0.135685293,0.675771355
507,1271694,1853700,0.981,0.04,-0.038,0,-0.1,0,-35.2,6.7,27.4,0.158330027,0.706991791,-0.135685293,0.675771355
508,1275130,1853700,0.985,0.044,-0.042,0,0,0,-34.9,6.5,27.6,0.158330027,0.706991791,-0.135685293,0.675771355
509,1276658,1853700,0.985,0.04,-0.038,-0.1,0.1,0,-34.9,6.5,27.6,0.158330027,0.706991791,-0.135685293,0.675771355
510,1279748,1853710,0.988,0.036,-0.038,-0.1,0.1,0,-34.9,6.5,27.6,0.158330027,0.706961272,-0.135685293,0.675771355
511,1281609,1853710,0.985,0.044,-0.042,0,0.1,0,-34.9,6.5,27.6,0.158330027,0.706961272,-0.135685293,0.675771355
512,1285151,1853710,0.985,0.04,-0.038,0,0,0,-34.6,6.7,27.7,0.158330027,0.706961272,-0.135685293,0.675771355
513,1286683,1853710,0.985,0.04,-0.038,0,0,0,-34.6,6.7,27.7,0.158330027,0.706961272,-0.135685293,0.675771355
514,1289252,1853720,0.981,0.036,-0.034,0,0,0,-34.6,6.7,27.7,0.158330027,0.706961272,-0.135685293,0.675771355
515,1293332,1853720,0.985,0.04,-0.038,0,0,0,-34.6,6.7,27.7,0.158330027,0.706961272,-0.135685293,0.675771355
516,1295698,1853720,0.988,0.04,-0.038,0.1,0.1,0.1,-35.5,6.2,27.5,0.158330027,0.706961272,-0.135685293,0.675771355
517,1297919,1853720,0.988,0.04,-0.03,0.1,0.2,0,-35.5,6.2,27.5,0.158330027,0.706961272,-0.135685293,0.675771355
518,1300140,1853730,0.988,0.044,-0.038,0.1,0.1,0,-35.5,6.2,27.5,0.158330027,0.706961272,-0.135685293,0.675771355
519,1301781,1853730,0.985,0.036,-0.034,0.1,0,-0.1,-35.5,6.2,27.5,0.158330027,0.706961272,-0.135685293,0.675771355
520,1304964,1853730,0.985,0.036,-0.034,0.1,0,-0.1,-35.5,6.2,27.5,0.158330027,0.706961272,-0.135685293,0.675771355
521,1306887,1853730,0.985,0.036,-0.03,0,0,0,-35.2,6.3,27.5,0.158330027,0.706961272,-0.135654775,0.675771355
522,1309279,1853740,0.981,0.036,-0.042,0,0.1,0,-35.2,6.3,27.5,0.158360546,0.706961272,-0.135654775,0.675771355
523,1312265,1853740,0.985,0.04,-0.034,0,0.1,0,-35.2,6.3,27.5,0.158360546,0.706961272,-0.135654775,0.675771355
524,1314419,1853740,0.988,0.04,-0.03,0,0,0,-35,6.2,27.8,0.158360546,0.706961272,-0.135654775,0.675771355
525,1316710,1853740,0.992,0.044,-0.034,0,0,0,-35,6.2,27.8,0.158360546,0.706961272,-0.135654775,0.675771355
526,1319377,1853750,0.981,0.04,-0.034,0,-0.1,0,-35,6.2,27.8,0.158360546,0.706961272,-0.135654775,0.675771355
527,1323480,1853750,0.988,0.036,-0.026,0,0,0,-35,6.2,27.8,0.158360546,0.706961272,-0.135654775,0.675771355
528,1324147,1853750,0.981,0.036,-0.03,0,0,-0.1,-35.1,6.2,27.2,0.158360546,0.706961272,-0.135654775,0.675771355
529,1327301,1853750,0.988,0.04,-0.034,0,0,-0.1,-35.1,6.2,27.2,0.158360546,0.706961272,-0.135654775,0.675771355
530,1329411,1853760,0.985,0.036,-0.034,0.1,0,-0.1,-35.1,6.2,27.2,0.158360546,0.706961272,-0.135654775,0.675771355
531,1331812,1853760,0.981,0.036,-0.045,0,-0.1,0,-35.1,6.2,27.2,0.158360546,0.706961272,-0.135654775,0.675771355
532,1334507,1853760,0.981,0.036,-0.034,0,-0.1,0,-35,6.4,27.4,0.158360546,0.706961272,-0.135654775,0.675771355
533,1336690,1853760,0.988,0.04,-0.034,0,-0.1,0,-35,6.4,27.4,0.158360546,0.706961272,-0.135654775,0.675771355
534,1340079,1853770,0.988,0.04,-0.034,0,-0.1,0,-35,6.4,27.4,0.158330027,0.706961272,-0.135654775,0.675771355
535,1341987,1853770,0.985,0.04,-0.038,0,0,0,-35,6.4,27.4,0.158330027,0.706991791,-0.135654775,0.675771355
536,1344183,1853770,0.988,0.044,-0.038,0,0,0,-36.8,6.4,27.4,0.158330027,0.706991791,-0.135654775,0.675771355
537,1347595,1853770,0.988,0.036,-0.038,0,0,0,-36.8,6.4,27.4,0.158330027,0.706991791,-0.135685293,0.675771355
538,1349506,1853780,0.988,0.04,-0.034,0,0,0,-36.8,6.4,27.4,0.158330027,0.706991791,-0.135685293,0.675771355
539,1351806,1853780,0.985,0.04,-0.038,0,0,0,-36.8,6.4,27.4,0.158330027,0.706991791,-0.135685293,0.675771355
540,1354633,1853780,0.985,0.04,-0.038,0,0,0,-36.8,6.4,27.4,0.158330027,0.706991791,-0.135685293,0.675771355
541,1356693,1853780,0.985,0.036,-0.034,0,0.1,0,-33.7,6.6,27.3,0.158330027,0.706991791,-0.135654775,0.675740837
542,1360104,1853790,0.985,0.04,-0.038,0,0.1,0,-33.7,6.6,27.3,0.158330027,0.706991791,-0.135654775,0.675740837
543,1361725,1853790,0.985,0.04,-0.038,0,0.1,0,-33.7,6.6,27.3,0.158330027,0.706991791,-0.135654775,0.675740837
544,1364270,1853790,0.988,0.04,-0.034,0,0,0,-34.1,6.2,27.5,0.158330027,0.706991791,-0.135654775,0.675740837
545,1367691,1853790,0.985,0.04,-0.03,0,0,0,-34.1,6.2,27.5,0.158330027,0.706991791,-0.135654775,0.675740837
546,1369845,1853800,0.985,0.04,-0.038,0,0,0,-34.1,6.2,27.5,0.158330027,0.706991791,-0.135685293,0.675740837
547,1372092,1853800,0.988,0.036,-0.034,0,0,0,-34.1,6.2,27.5,0.158330027,0.706991791,-0.135654775,0.675740837
548,1374277,1853800,0.985,0.036,-0.034,0,0,0,-33.8,6.5,27.2,0.158330027,0.706991791,-0.135685293,0.675740837
549,1376677,1853800,0.988,0.04,-0.034,0,0,0,-33.8,6.5,27.2,0.158330027,0.706991791,-0.135685293,0.675740837
550,1379182,1853810,0.988,0.04,-0.034,0,0,0,-33.8,6.5,27.2,0.158330027,0.706991791,-0.135685293,0.675740837
551,1382662,1853810,0.985,0.04,-0.038,0,0,0,-33.8,6.5,27.2,0.158330027,0.706991791,-0.135685293,0.675740837
552,1384173,1853810,0.988,0.04,-0.034,0,0,-0.1,-34.2,6.3,27.3,0.158330027,0.706991791,-0.135654775,0.675740837
553,1386923,1853810,0.988,0.04,-0.034,0,0,-0.1,-34.2,6.3,27.3,0.158330027,0.706991791,-0.135654775,0.675740837
554,1390175,1853820,0.985,0.04,-0.034,0,0,0,-34.2,6.3,27.3,0.158330027,0.706991791,-0.135654775,0.675740837
555,1391785,1853820,0.988,0.036,-0.034,0,0,0,-34.2,6.3,27.3,0.158330027,0.706991791,-0.135654775,0.675740837
556,1394178,1853820,0.985,0.04,-0.03,0,0,0,-35.7,6.4,27.4,0.158330027,0.706991791,-0.135654775,0.675740837
557,1396649,1853820,0.985,0.036,-0.034,0,0,0,-35.7,6.4,27.4,0.158330027,0.706991791,-0.135654775,0.675740837
558,1399977,1853830,0.985,0.032,-0.038,0,0,0,-35.7,6.4,27.4,0.158330027,0.706991791,-0.135654775,0.675740837
559,1402042,1853830,0.985,0.04,-0.034,0,-0.1,0,-35.7,6.4,27.4,0.158330027,0.706991791,-0.135654775,0.675740837
560,1404329,1853830,0.985,0.04,-0.034,0,-0.1,0,-35.7,6.4,27.4,0.158330027,0.706991791,-0.135654775,0.675740837
561,1406965,1853830,0.988,0.04,-0.03,0,-0.2,0,-35.3,6.5,27.3,0.158330027,0.706991791,-0.135685293,0.675771355
562,1409092,1853840,0.988,0.04,-0.038,0,-0.2,0,-35.3,6.5,27.3,0.158330027,0.706991791,-0.135685293,0.675771355
563,1412611,1853840,0.985,0.04,-0.038,0.1,-0.1,0,-35.3,6.5,27.3,0.158330027,0.706991791,-0.135685293,0.675740837
564,1414326,1853840,0.985,0.04,-0.034,0.1,0,0,-35,6,27.5,0.158330027,0.706991791,-0.135685293,0.675740837
565,1416595,1853840,0.985,0.036,-0.034,0.1,0,-0.1,-35,6,27.5,0.158299509,0.706991791,-0.135685293,0.675740837
566,1419706,1853850,0.985,0.04,-0.034,0.1,0,0,-35,6,27.5,0.158299509,0.706991791,-0.135685293,0.675740837
567,1421669,1853850,0.985,0.044,-0.038,0,0,0,-35,6,27.5,0.158299509,0.706991791,-0.135685293,0.675740837
568,1425167,1853850,0.985,0.04,-0.038,0.1,0,0,-35.1,6.2,27.5,0.158299509,0.706991791,-0.135685293,0.675740837
569,1426709,1853850,0.988,0.044,-0.03,0.1,0,0,-35.1,6.2,27.5,0.158299509,0.706991791,-0.135685293,0.675740837
570,1429765,1853860,0.985,0.04,-0.03,0,0,0,-35.1,6.2,27.5,0.158299509,0.706991791,-0.135685293,0.675740837
571,1432672,1853860,0.988,0.036,-0.034,0,0,0,-35.1,6.2,27.5,0.158299509,0.706991791,-0.135685293,0.675740837
572,1434126,1853860,0.985,0.04,-0.03,0,0,0,-34.8,6.3,27.6,0.158299509,0.706991791,-0.135685293,0.675740837
573,1437273,1853860,0.985,0.044,-0.034,0,0,0,-34.8,6.3,27.6,0.158299509,0.706991791,-0.135685293,0.675740837
574,1440197,1853870,0.988,0.04,-0.034,0,0,0,-34.8,6.3,27.6,0.158299509,0.706991791,-0.135685293,0.675740837
575,1441726,1853870,0.985,0.04,-0.038,0,0,0,-34.8,6.3,27.6,0.158299509,0.706991791,-0.135685293,0.675740837
576,1444712,1853870,0.985,0.036,-0.038,0,0,0,-35.3,6.3,26.8,0.158299509,0.706991791,-0.135685293,0.675740837
577,1446577,1853870,0.985,0.04,-0.042,0,0,0,-35.3,6.3,26.8,0.158299509,0.706991791,-0.135685293,0.675740837
578,1449940,1853880,0.985,0.04,-0.038,0,0,0,-35.3,6.3,26.8,0.158299509,0.706991791,-0.135685293,0.675740837
579,1451636,1853880,0.985,0.04,-0.034,0,0,0,-35.3,6.3,26.8,0.158299509,0.706991791,-0.135685293,0.675740837
580,1454268,1853880,0.985,0.04,-0.034,0,0,0,-35.3,6.3,26.8,0.158299509,0.706991791,-0.135685293,0.675740837
581,1457292,1853880,0.988,0.04,-0.038,0,0,0,-35.4,6.6,27.6,0.158299509,0.707022309,-0.135685293,0.675710318
582,1459083,1853890,0.988,0.04,-0.038,0,0,0,-35.4,6.6,27.6,0.158299509,0.707022309,-0.135685293,0.675710318
583,1462531,1853890,0.985,0.044,-0.034,0.1,0,0,-35.4,6.6,27.6,0.158299509,0.707022309,-0.135685293,0.675710318
584,1464237,1853890,0.988,0.044,-0.038,0.1,-0.1,0,-35.3,6.4,28.3,0.158299509,0.707022309,-0.135685293,0.675710318
585,1467758,1853890,0.988,0.04,-0.034,0,0,0,-35.3,6.4,28.3,0.158299509,0.707022309,-0.135685293,0.675710318
586,1469427,1853900,0.981,0.04,-0.034,0,0,0,-35.3,6.4,28.3,0.158299509,0.707022309,-0.135685293,0.675710318
587,1471826,1853900,0.981,0.044,-0.042,-0.1,0,0,-35.3,6.4,28.3,0.158299509,0.707022309,-0.135685293,0.675710318
588,1475259,1853900,0.985,0.036,-0.038,-0.1,0,0,-35,6.8,28.8,0.158299509,0.707022309,-0.135685293,0.675710318
589,1477658,1853900,0.988,0.036,-0.038,0,0,0,-35,6.8,28.8,0.158299509,0.707022309,-0.135685293,0.675710318
590,1479215,1853910,0.985,0.04,-0.034,0,0,0,-35,6.8,28.8,0.158299509,0.707022309,-0.135685293,0.675710318
591,1481688,1853910,0.988,0.04,-0.034,0,0,0,-35,6.8,28.8,0.158299509,0.707022309,-0.135685293,0.675710318
592,1485141,1853910,0.985,0.04,-0.038,0,0,0,-35.3,6.2,28.9,0.158299509,0.707022309,-0.135685293,0.675710318
593,1486649,1853910,0.988,0.04,-0.038,0,0,0,-35.3,6.2,28.9,0.158299509,0.707022309,-0.135685293,0.675710318
594,1489150,1853920,0.985,0.04,-0.034,0,0,0,-35.3,6.2,28.9,0.158299509,0.707022309,-0.135685293,0.675710318
595,1492607,1853920,0.985,0.04,-0.038,0,0,0,-35.3,6.2,28.9,0.158299509,0.707022309,-0.135685293,0.675710318
596,1494185,1853920,0.985,0.036,-0.034,0,0.1,0,-35.2,6.6,25.6,0.158299509,0.707022309,-0.135685293,0.675710318
597,1497135,1853920,0.988,0.04,-0.03,0,0.1,0,-35.2,6.6,25.6,0.158299509,0.707022309,-0.135685293,0.675710318
598,1500168,1853930,0.988,0.04,-0.03,0.1,0.2,0,-35.2,6.6,25.6,0.158299509,0.707022309,-0.135685293,0.675740837
599,1501695,1853930,0.985,0.04,-0.038,0.1,0.2,0,-35.2,6.6,25.6,0.158299509,0.707022309,-0.135685293,0.675740837
600,1504172,1853930,0.985,0.04,-0.038,0.1,0.2,0,-35.2,6.6,25.6,0.158299509,0.707022309,-0.135685293,0.675740837
601,1506611,1853930,0.985,0.04,-0.038,0,0,0,-35.3,6.1,27.7,0.158299509,0.706991791,-0.135685293,0.675771355
602,1509938,1853940,0.985,0.04,-0.034,0,0,0,-35.3,6.1,27.7,0.158299509,0.706991791,-0.135685293,0.675771355
603,1511648,1853940,0.985,0.04,-0.038,0,0,0,-35.3,6.1,27.7,0.158299509,0.706991791,-0.135685293,0.675771355
604,1514390,1853940,0.985,0.04,-0.042,0,0,0,-35,6.4,27.3,0.158299509,0.706991791,-0.135685293,0.675771355
605,1517482,1853940,0.985,0.04,-0.038,0,-0.1,0,-35,6.4,27.3,0.158299509,0.706991791,-0.135685293,0.675771355
606,1519803,1853950,0.985,0.04,-0.038,0,-0.1,0.1,-35,6.4,27.3,0.158299509,0.706991791,-0.135685293,0.675771355
607,1521870,1853950,0.985,0.04,-0.042,0,-0.1,0.1,-35,6.4,27.3,0.158299509,0.706991791,-0.135685293,0.675740837
608,1524973,1853950,0.985,0.04,-0.034,0,0,0.1,-35.3,6.2,26.9,0.158299509,0.706991791,-0.135685293,0.675771355
609,1527081,1853950,0.992,0.04,-0.038,0,0.1,0,-35.3,6.2,26.9,0.158299509,0.706991791,-0.135685293,0.675771355
610,1529348,1853960,0.988,0.04,-0.034,0,0.1,0,-35.3,6.2,26.9,0.158299509,0.706991791,-0.135685293,0.675771355
611,1532077,1853960,0.988,0.036,-0.038,0,0.1,-0.1,-35.3,6.2,26.9,0.158299509,0.706991791,-0.135685293,0.675771355
612,1534173,1853960,0.985,0.036,-0.038,0,0.1,-0.1,-35.2,6.3,26.2,0.158299509,0.706991791,-0.135685293,0.675771355
613,1538163,1853960,0.981,0.036,-0.03,0,0,-0.1,-35.2,6.3,26.2,0.158299509,0.706991791,-0.135685293,0.675771355
614,1540248,1853970,0.985,0.044,-0.034,0,0,0,-35.2,6.3,26.2,0.158299509,0.706991791,-0.135685293,0.675771355
615,1541756,1853970,0.985,0.04,-0.042,0,0,0,-35.2,6.3,26.2,0.158299509,0.706991791,-0.135685293,0.675771355
616,1544600,1853970,0.985,0.044,-0.034,0,0,0,-35.3,6.3,27,0.158299509,0.706991791,-0.135685293,0.675771355
617,1547811,1853970,0.985,0.044,-0.034,0.1,0,-0.1,-35.3,6.3,27,0.158299509,0.706991791,-0.135685293,0.675771355
618,1549307,1853980,0.985,0.044,-0.03,0.1,0,-0.1,-35.3,6.3,27,0.158299509,0.706991791,-0.135685293,0.675771355
619,1552584,1853980,0.985,0.036,-0.038,0,0,-0.1,-35.3,6.3,27,0.158299509,0.706991791,-0.135685293,0.675771355
620,1554646,1853980,0.985,0.036,-0.038,0,0,-0.1,-35.3,6.3,27,0.158299509,0.706991791,-0.135685293,0.675771355
621,1556926,1853980,0.985,0.036,-0.038,0,0,0,-35.3,6.2,26.5,0.158330027,0.706991791,-0.135654775,0.675771355
622,1559369,1853990,0.988,0.036,-0.038,0,-0.1,0,-35.3,6.2,26.5,0.158330027,0.706991791,-0.135654775,0.675771355
623,1562829,1853990,0.985,0.04,-0.038,0,-0.2,0,-35.3,6.2,26.5,0.158330027,0.706991791,-0.135654775,0.675771355
624,1564389,1853990,0.985,0.036,-0.038,0,-0.1,0,-35.5,6.2,26.8,0.158330027,0.706991791,-0.135654775,0.675740837
625,1566614,1853990,0.988,0.044,-0.034,0,-0.1,0,-35.5,6.2,26.8,0.158330027,0.706991791,-0.135654775,0.675740837
626,1569400,1854000,0.985,0.04,-0.038,0,-0.1,0,-35.5,6.2,26.8,0.158330027,0.706991791,-0.135654775,0.675740837
627,1572663,1854000,0.988,0.04,-0.038,0,-0.1,0,-35.5,6.2,26.8,0.158330027,0.706991791,-0.135654775,0.675740837
628,1574153,1854000,0.985,0.04,-0.042,0,0,0,-35.5,6.4,26.7,0.158330027,0.706991791,-0.135654775,0.675740837
629,1576787,1854000,0.985,0.036,-0.038,0,0,0.1,-35.5,6.4,26.7,0.158330027,0.706991791,-0.135654775,0.675740837
630,1579903,1854010,0.988,0.044,-0.038,0,0,0.1,-35.5,6.4,26.7,0.158330027,0.706991791,-0.135654775,0.675740837
631,1582203,1854010,0.985,0.036,-0.034,0,-0.1,0.1,-35.5,6.4,26.7,0.158330027,0.706991791,-0.135654775,0.675740837
632,1585172,1854010,0.985,0.04,-0.042,0,-0.2,0.1,-35.6,6.4,27.1,0.158299509,0.706991791,-0.135654775,0.675740837
633,1586673,1854010,0.985,0.04,-0.034,0,-0.1,0,-35.6,6.4,27.1,0.158299509,0.707022309,-0.135654775,0.675740837
634,1590246,1854020,0.988,0.04,-0.038,0,-0.1,0,-35.6,6.4,27.1,0.158299509,0.707022309,-0.135654775,0.675740837
635,1591628,1854020,0.992,0.044,-0.042,0,0,0,-35.6,6.4,27.1,0.158299509,0.707022309,-0.135654775,0.675740837
636,1594471,1854020,0.985,0.044,-0.038,0,0,-0.1,-35.6,6.4,27.1,0.158299509,0.707022309,-0.135654775,0.675740837
637,1597539,1854020,0.985,0.036,-0.038,-0.1,0,-0.1,-35.6,6.4,27.1,0.158330027,0.707022309,-0.135654775,0.675740837
638,1600631,1854030,0.985,0.04,-0.038,-0.1,0,0,-35.6,6.4,27.1,0.158330027,0.707022309,-0.135654775,0.675740837
639,1602406,1854030,0.988,0.048,-0.034,0,0,0,-35.6,6.4,27.1,0.158330027,0.707022309,-0.135654775,0.675740837
640,1604023,1854030,0.988,0.048,-0.034,0,0,0,-35.6,6.4,27.1,0.158330027,0.707022309,-0.135654775,0.675740837
641,1606879,1854030,0.985,0.04,-0.034,0,0,0,-35.5,6.3,26.7,0.158330027,0.707022309,-0.135654775,0.675710318
642,1609729,1854040,0.981,0.04,-0.034,0,0,0.1,-35.5,6.3,26.7,0.158330027,0.707022309,-0.135654775,0.675710318
643,1611500,1854040,0.988,0.044,-0.038,0,0.1,0,-35.5,6.3,26.7,0.158330027,0.707022309,-0.135654775,0.675710318
644,1614386,1854040,0.988,0.036,-0.034,0,0.1,-0.1,-35.2,5.6,26.4,0.158330027,0.707022309,-0.135654775,0.675710318
645,1617350,1854040,0.988,0.036,-0.038,0,0.1,-0.1,-35.2,5.6,26.4,0.158360546,0.707022309,-0.135624256,0.675710318
646,1619270,1854050,0.988,0.036,-0.03,0,0,-0.1,-35.2,5.6,26.4,0.158360546,0.707022309,-0.135624256,0.675710318
647,1622625,1854050,0.992,0.04,-0.034,0,0.1,0,-35.2,5.6,26.4,0.158360546,0.707022309,-0.135624256,0.675710318
648,1624329,1854050,0.985,0.04,-0.042,0,0.1,0.1,-35.4,4.2,26.8,0.158330027,0.707022309,-0.135624256,0.675710318
649,1627927,1854050,0.988,0.04,-0.038,0,0.1,0.1,-35.4,4.2,26.8,0.158330027,0.707022309,-0.135654775,0.675710318
650,1629504,1854060,0.985,0.04,-0.03,0,0,0,-35.4,4.2,26.8,0.158330027,0.707022309,-0.135654775,0.675710318
651,1631726,1854060,0.985,0.036,-0.034,-0.1,0,0,-35.4,4.2,26.8,0.158330027,0.707022309,-0.135654775,0.675710318
652,1634453,1854060,0.988,0.04,-0.034,-0.1,0,0,-35.5,3.8,27,0.158360546,0.707022309,-0.135654775,0.675710318
653,1636715,1854060,0.988,0.04,-0.034,0,0,0,-35.5,3.8,27,0.158360546,0.707022309,-0.135654775,0.675710318
654,1639358,1854070,0.985,0.04,-0.034,0,0,-0.1,-35.5,3.8,27,0.158360546,0.707022309,-0.135654775,0.675710318
655,1643436,1854070,0.985,0.044,-0.042,0,0,0,-35.5,3.8,27,0.158360546,0.707022309,-0.135654775,0.675710318
656,1645655,1854070,0.981,0.04,-0.03,0,0,0,-35.5,3.8,27,0.158360546,0.707022309,-0.135654775,0.675710318
657,1647904,1854070,0.985,0.04,-0.034,0,0,0,-35.5,3.8,27,0.158360546,0.707022309,-0.135654775,0.675710318
658,1650190,1854080,0.985,0.04,-0.038,0,0,0,-35.5,3.8,27,0.158360546,0.707022309,-0.135654775,0.675710318
659,1652411,1854080,0.985,0.04,-0.038,0,0,0,-35.5,3.8,27,0.158360546,0.707022309,-0.135654775,0.675710318
660,1654811,1854080,0.985,0.04,-0.038,0,0,0,-35.5,3.8,27,0.158360546,0.707022309,-0.135654775,0.675710318
661,1656784,1854080,0.988,0.04,-0.034,0,0,-0.1,-35.6,5.3,26.6,0.158360546,0.707022309,-0.135624256,0.675710318
662,1659353,1854090,0.988,0.048,-0.03,0,0,-0.1,-35.6,5.3,26.6,0.158360546,0.707022309,-0.135624256,0.675710318
663,1662109,1854090,0.988,0.04,-0.038,0,0,-0.1,-35.6,5.3,26.6,0.158360546,0.707022309,-0.135624256,0.675710318
664,1664241,1854090,0.981,0.036,-0.034,0.1,0,0,-35.2,5.6,26.4,0.158360546,0.707022309,-0.135624256,0.675710318
665,1668262,1854090,0.985,0.04,-0.042,0.1,0,0,-35.2,5.6,26.4,0.158360546,0.707022309,-0.135624256,0.675710318
666,1670484,1854100,0.985,0.036,-0.038,0,0,0,-35.2,5.6,26.4,0.158360546,0.707022309,-0.135624256,0.675710318
667,1673044,1854100,0.988,0.044,-0.03,0,0,0,-35.2,5.6,26.4,0.158360546,0.707022309,-0.135624256,0.675710318
668,1675450,1854100,0.985,0.04,-0.038,0,0.1,0,-35.4,5.8,26.3,0.158360546,0.707022309,-0.135624256,0.675710318
669,1677625,1854100,0.985,0.04,-0.038,0,0.1,0,-35.4,5.8,26.3,0.158360546,0.707022309,-0.135624256,0.675710318
670,1679861,1854110,0.985,0.036,-0.038,0,0.1,0,-35.4,5.8,26.3,0.158360546,0.707022309,-0.135624256,0.675710318
671,1681979,1854110,0.988,0.04,-0.034,0.1,0.1,0,-35.4,5.8,26.3,0.158360546,0.707022309,-0.135624256,0.675740837
672,1684321,1854110,0.985,0.044,-0.034,0.1,0.1,0,-35.3,6.3,26.3,0.158330027,0.707022309,-0.135624256,0.675740837
673,1687274,1854110,0.981,0.036,-0.038,0,0.1,0.1,-35.3,6.3,26.3,0.158330027,0.707022309,-0.135624256,0.675740837
674,1689895,1854120,0.985,0.044,-0.038,-0.1,0,0.1,-35.3,6.3,26.3,0.158330027,0.707022309,-0.135624256,0.675740837
675,1692714,1854120,0.985,0.036,-0.034,-0.1,0,0,-35.3,6.3,26.3,0.158330027,0.707022309,-0.135624256,0.675740837
676,1694621,1854120,0.985,0.036,-0.038,-0.1,0,0,-35.3,6.3,26.3,0.158360546,0.707022309,-0.135624256,0.675740837
677,1696864,1854120,0.985,0.04,-0.034,-0.1,0,0,-35.3,6.3,26.3,0.158360546,0.707022309,-0.135624256,0.675740837
678,1699192,1854130,0.988,0.04,-0.034,0,0,0,-35.3,6.3,26.3,0.158360546,0.707022309,-0.135654775,0.675740837
679,1701736,1854130,0.988,0.04,-0.042,0,0,0,-35.3,6.3,26.3,0.158360546,0.707022309,-0.135624256,0.675740837
680,1705124,1854130,0.988,0.04,-0.042,0,0,0,-35.3,6.3,26.3,0.158360546,0.707022309,-0.135624256,0.675740837
681,1706706,1854130,0.988,0.04,-0.038,0,0.1,0,-35.3,6.7,27.3,0.158330027,0.707022309,-0.135654775,0.675710318
682,1709099,1854140,0.988,0.04,-0.034,0,0.1,0,-35.3,6.7,27.3,0.158330027,0.707022309,-0.135654775,0.675710318
683,1712600,1854140,0.988,0.04,-0.03,0.1,0.2,0,-35.3,6.7,27.3,0.158330027,0.707022309,-0.135654775,0.675710318
684,1714290,1854140,0.981,0.036,-0.038,0,0.2,0,-35.4,6.6,27.3,0.158330027,0.707022309,-0.135654775,0.675710318
685,1717195,1854140,0.985,0.036,-0.042,0,0.1,0,-35.4,6.6,27.3,0.158330027,0.707022309,-0.135654775,0.675740837
686,1720156,1854150,0.985,0.036,-0.038,0,0,0,-35.4,6.6,27.3,0.158330027,0.707022309,-0.135654775,0.675740837
687,1721735,1854150,0.985,0.04,-0.038,0,0,0,-35.4,6.6,27.3,0.158330027,0.707022309,-0.135654775,0.675740837
688,1724621,1854150,0.988,0.036,-0.038,0.1,0.1,0,-35,7,27.5,0.158330027,0.707022309,-0.135624256,0.675740837
689,1727605,1854150,0.985,0.036,-0.034,0,0.1,0.1,-35,7,27.5,0.158330027,0.707022309,-0.135624256,0.675740837
690,1729157,1854160,0.988,0.044,-0.038,0,0.1,0.1,-35,7,27.5,0.158330027,0.707022309,-0.135654775,0.675740837
691,1731640,1854160,0.988,0.044,-0.034,0,0.1,0.1,-35,7,27.5,0.158330027,0.706991791,-0.135654775,0.675740837
692,1735172,1854160,0.988,0.036,-0.038,0,0.1,0,-35.2,7.1,27.1,0.158330027,0.706991791,-0.135654775,0.675740837
693,1736669,1854160,0.985,0.04,-0.034,0,0,-0.1,-35.2,7.1,27.1,0.158330027,0.706991791,-0.135654775,0.675740837
694,1739146,1854170,0.981,0.04,-0.034,0,0,-0.1,-35.2,7.1,27.1,0.158330027,0.706991791,-0.135654775,0.675740837
695,1742645,1854170,0.988,0.036,-0.038,0,0.1,0,-35.2,7.1,27.1,0.158330027,0.706991791,-0.135654775,0.675740837
696,1744158,1854170,0.985,0.04,-0.042,0,0.1,0,-35.2,7.1,27.1,0.158330027,0.706991791,-0.135654775,0.675740837
697,1746785,1854170,0.985,0.04,-0.038,0,0,0,-35.2,7.1,27.1,0.158330027,0.706991791,-0.135654775,0.675740837
698,1750082,1854180,0.985,0.044,-0.03,0,0,-0.1,-35.2,7.1,27.1,0.158330027,0.706991791,-0.135654775,0.675740837
699,1751704,1854180,0.985,0.036,-0.034,0,0.1,0,-35.2,7.1,27.1,0.158330027,0.706991791,-0.135624256,0.675740837
700,1754107,1854180,0.985,0.036,-0.034,0,0.1,0,-35.2,7.1,27.1,0.158330027,0.706991791,-0.135624256,0.675740837
701,1757606,1854180,0.985,0.036,-0.038,0,0.2,0,-36,6.9,27.1,0.158330027,0.706991791,-0.135624256,0.675740837
702,1759132,1854190,0.985,0.044,-0.038,0,0.1,0,-36,6.9,27.1,0.158330027,0.706991791,-0.135624256,0.675740837
703,1761712,1854190,0.985,0.04,-0.042,0,0.1,0,-36,6.9,27.1,0.158330027,0.706991791,-0.135624256,0.675771355
704,1765136,1854190,0.985,0.036,-0.034,0,0.1,0,-36.4,7,27.1,0.158330027,0.706991791,-0.135624256,0.675771355
705,1766885,1854190,0.985,0.044,-0.034,0,0.1,0,-36.4,7,27.1,0.158330027,0.706991791,-0.135624256,0.675771355
706,1769209,1854200,0.988,0.044,-0.034,0,0.1,0,-36.4,7,27.1,0.158330027,0.706991791,-0.135624256,0.675771355
707,1772616,1854200,0.988,0.036,-0.038,0,0.1,0,-36.4,7,27.1,0.158360546,0.706991791,-0.135624256,0.675771355
708,1774138,1854200,0.988,0.04,-0.034,0,0.1,0,-37.4,7.1,27.2,0.158360546,0.706991791,-0.135624256,0.675771355
709,1777134,1854200,0.988,0.044,-0.038,0,0.1,-0.1,-37.4,7.1,27.2,0.158360546,0.706991791,-0.135624256,0.675771355
710,1780193,1854210,0.985,0.04,-0.03,0,0.1,-0.1,-37.4,7.1,27.2,0.158360546,0.706991791,-0.135624256,0.675771355
711,1781707,1854210,0.981,0.04,-0.038,0,0.1,0,-37.4,7.1,27.2,0.158360546,0.706961272,-0.135624256,0.675771355
712,1784071,1854210,0.985,0.04,-0.042,0,0,0,-38,6.9,26.8,0.158360546,0.706961272,-0.135624256,0.675771355
713,1787616,1854210,0.985,0.04,-0.038,0,0,0,-38,6.9,26.8,0.158360546,0.706961272,-0.135624256,0.675771355
714,1789152,1854220,0.985,0.04,-0.038,0,0,0,-38,6.9,26.8,0.158360546,0.706961272,-0.135624256,0.675771355
715,1791721,1854220,0.985,0.04,-0.038,0,-0.1,-0.1,-38,6.9,26.8,0.158360546,0.706991791,-0.135624256,0.675771355
716,1795225,1854220,0.988,0.04,-0.034,0,-0.1,-0.1,-38,6.9,26.8,0.158360546,0.706991791,-0.135624256,0.675771355
717,1796696,1854220,0.988,0.044,-0.038,0,-0.1,-0.1,-38,6.9,26.8,0.158360546,0.706991791,-0.135624256,0.675771355
718,1799268,1854230,0.988,0.036,-0.034,0,-0.1,0,-38,6.9,26.8,0.158360546,0.706991791,-0.135624256,0.675771355
719,1801712,1854230,0.988,0.044,-0.038,0,0,0,-38,6.9,26.8,0.158360546,0.706991791,-0.135624256,0.675771355
720,1804862,1854230,0.988,0.044,-0.038,0,0,0,-38,6.9,26.8,0.158360546,0.706991791,-0.135624256,0.675771355
721,1806623,1854230,0.981,0.04,-0.042,0,0,0,-36.7,7.7,27.2,0.158360546,0.706991791,-0.135624256,0.675740837
722,1809426,1854240,0.985,0.04,-0.042,0,0.1,0,-36.7,7.7,27.2,0.158360546,0.706991791,-0.135624256,0.675740837
723,1811757,1854240,0.981,0.036,-0.038,0,0.2,0,-36.7,7.7,27.2,0.158360546,0.706991791,-0.135624256,0.675771355
724,1814110,1854240,0.981,0.044,-0.038,0,0.2,0,-36.7,7.4,27.2,0.158360546,0.706991791,-0.135624256,0.675771355
725,1817463,1854240,0.985,0.04,-0.042,0,0.2,-0.1,-36.7,7.4,27.2,0.158360546,0.706991791,-0.135593738,0.675771355
726,1819242,1854250,0.985,0.04,-0.03,0,0.1,-0.1,-36.7,7.4,27.2,0.158360546,0.706991791,-0.135593738,0.675771355
727,1821727,1854250,0.985,0.044,-0.03,0,0,-0.1,-36.7,7.4,27.2,0.158360546,0.706991791,-0.135593738,0.675771355
728,1824959,1854250,0.985,0.036,-0.038,0,0,0,-35.9,7.9,27.5,0.158360546,0.706991791,-0.135593738,0.675771355
729,1826827,1854250,0.988,0.044,-0.038,0,-0.1,0,-35.9,7.9,27.5,0.158360546,0.706991791,-0.135593738,0.675771355
730,1829176,1854260,0.985,0.036,-0.042,0,-0.1,0,-35.9,7.9,27.5,0.158360546,0.706991791,-0.135593738,0.675771355
731,1833392,1854260,0.988,0.04,-0.046,0,-0.1,0,-35.9,7.9,27.5,0.158360546,0.706991791,-0.135593738,0.675771355
732,1835617,1854260,0.985,0.04,-0.042,0,-0.1,0,-35.5,7.5,27.5,0.158360546,0.706991791,-0.135593738,0.675771355
733,1837938,1854260,0.985,0.04,-0.034,0,-0.1,0,-35.5,7.5,27.5,0.158360546,0.706991791,-0.135593738,0.675771355
734,1840178,1854270,0.985,0.04,-0.042,0,0,0,-35.5,7.5,27.5,0.158360546,0.706991791,-0.135624256,0.675771355
735,1842426,1854270,0.985,0.04,-0.03,0,0,0,-35.5,7.5,27.5,0.158360546,0.706991791,-0.135624256,0.675771355
736,1844718,1854270,0.988,0.032,-0.038,0,0.1,0,-35.5,7.5,27.5,0.158360546,0.706991791,-0.135624256,0.675771355
737,1847022,1854270,0.988,0.04,-0.038,0,0.1,0,-35.5,7.5,27.5,0.158360546,0.706991791,-0.135624256,0.675771355
738,1849266,1854280,0.985,0.044,-0.03,0,0.1,0,-35.5,7.5,27.5,0.158360546,0.706991791,-0.135593738,0.675771355
739,1851713,1854280,0.985,0.04,-0.034,0,0.1,0,-35.5,7.5,27.5,0.158360546,0.706991791,-0.135624256,0.675771355
740,1855212,1854280,0.985,0.04,-0.034,0,0.1,0,-35.5,7.5,27.5,0.158360546,0.706991791,-0.135624256,0.675771355
741,1856689,1854280,0.981,0.04,-0.03,-0.1,0.1,0,-35.3,6.4,27.2,0.158360546,0.706961272,-0.135624256,0.675771355
742,1859817,1854290,0.985,0.04,-0.038,-0.1,0.1,0,-35.3,6.4,27.2,0.158360546,0.706961272,-0.135624256,0.675771355
743,1861608,1854290,0.988,0.04,-0.034,-0.1,0,0,-35.3,6.4,27.2,0.158360546,0.706961272,-0.135624256,0.675771355
744,1865179,1854290,0.988,0.04,-0.042,-0.1,0,0,-34.8,6.7,27.3,0.158360546,0.706961272,-0.135624256,0.675771355
745,1866603,1854290,0.988,0.044,-0.038,0,0.1,0,-34.8,6.7,27.3,0.158360546,0.706961272,-0.135624256,0.675771355
746,1870196,1854300,0.985,0.04,-0.038,0,0.1,0,-34.8,6.7,27.3,0.158360546,0.706961272,-0.135624256,0.675771355
747,1872444,1854300,0.988,0.04,-0.034,0.1,0.1,0,-34.8,6.7,27.3,0.158360546,0.706961272,-0.135624256,0.675801874
748,1874675,1854300,0.988,0.04,-0.03,0.1,0.1,0.1,-34.5,6.5,27.3,0.158360546,0.706961272,-0.135624256,0.675801874
749,1876924,1854300,0.985,0.036,-0.034,0.1,0.1,0.1,-34.5,6.5,27.3,0.158360546,0.706961272,-0.135624256,0.675801874
750,1879132,1854310,0.985,0.04,-0.03,0,0.1,0,-34.5,6.5,27.3,0.158360546,0.706961272,-0.135624256,0.675801874
751,1881848,1854310,0.985,0.04,-0.03,0,0.1,0,-34.5,6.5,27.3,0.158360546,0.706961272,-0.135624256,0.675801874
752,1884151,1854310,0.985,0.044,-0.038,0,0,0,-34.6,6.5,27.1,0.158360546,0.706961272,-0.135624256,0.675801874
753,1887539,1854310,0.981,0.04,-0.034,0,0,0,-34.6,6.5,27.1,0.158360546,0.706961272,-0.135624256,0.675801874
754,1889745,1854320,0.985,0.036,-0.038,0,0,0,-34.6,6.5,27.1,0.158360546,0.706930754,-0.135624256,0.675801874
755,1892052,1854320,0.985,0.036,-0.042,-0.1,0,0,-34.6,6.5,27.1,0.158360546,0.706930754,-0.135624256,0.675801874
756,1894418,1854320,0.981,0.04,-0.042,-0.1,-0.1,0,-34.6,6.5,27.1,0.158360546,0.706961272,-0.135624256,0.675801874
757,1896590,1854320,0.981,0.044,-0.042,-0.1,-0.2,0,-34.6,6.5,27.1,0.158360546,0.706961272,-0.135624256,0.675801874
758,1899280,1854330,0.988,0.04,-0.038,0,-0.3,-0.1,-34.6,6.5,27.1,0.158360546,0.706961272,-0.135624256,0.675771355
759,1901714,1854330,0.985,0.04,-0.038,0,-0.3,-0.1,-34.6,6.5,27.1,0.158360546,0.706961272,-0.135624256,0.675771355
760,1905857,1854330,0.985,0.04,-0.038,0,-0.3,-0.1,-34.6,6.5,27.1,0.158360546,0.706961272,-0.135624256,0.675771355
761,1906604,1854330,0.988,0.04,-0.034,0,-0.2,-0.1,-34.6,6.4,27.1,0.158391064,0.707022309,-0.135624256,0.675710318
762,1909396,1854340,0.985,0.04,-0.038,0,-0.1,0,-34.6,6.4,27.1,0.158391064,0.707022309,-0.135624256,0.675710318
763,1911814,1854340,0.988,0.04,-0.034,-0.1,-0.1,0,-34.6,6.4,27.1,0.158391064,0.707022309,-0.135624256,0.675710318
764,1914197,1854340,0.988,0.04,-0.038,0,0,0,-34.8,6.7,26.9,0.158391064,0.707022309,-0.135624256,0.675710318
765,1917601,1854340,0.58,-0.05,0.01,0,0.1,0,-34.8,6.7,26.9,0.158391064,0.707022309,-0.135624256,0.675710318
766,1919857,1854350,-1.806,-1.099,0.448,-3.8,7.2,-0.8,-34.8,6.7,26.9,0.15848262,0.706900235,-0.135654775,0.675801874
767,1922085,1854350,7.862,-3.832,-8.222,-16.1,76.1,-8.8,-34.8,6.7,26.9,0.15909299,0.705740532,-0.135471664,0.67690054
768,1924503,1854350,3.958,-2.274,-8.071,10,224.4,-31.5,-37.3,7.6,25.9,0.160069582,0.702566607,-0.134067812,0.680288095
769,1926703,1854350,4.339,3.569,-8.13,140,367.3,-61.3,-37.3,7.6,25.9,0.159886471,0.697744682,-0.129764702,0.686086612
770,1929268,1854360,-0.194,8.061,8.044,335.2,361.7,-81.2,-37.3,7.6,25.9,0.157017731,0.69368572,-0.12222663,0.692220832
771,1932685,1854360,7.122,-1.961,7.839,360.5,163.4,-72.2,-37.3,7.6,25.9,0.153080844,0.692617573,-0.115115818,0.695364238
772,1934260,1854360,5.233,-8.125,0.825,78.6,-107.7,-23.4,-34.6,6.1,27.5,0.151982177,0.694570757,-0.113956114,0.693868831
773,1936815,1854360,-0.503,-3.744,2.71,-247,-222.4,35.7,-34.6,6.1,27.5,0.154637288,0.697012238,-0.11896115,0.689962462
774,1940174,1854370,-5.342,2.911,5.603,-341.7,-107.9,60.1,-34.6,6.1,27.5,0.158635212,0.697317423,-0.125370037,0.687612537
775,1941715,1854370,-1.362,-2.777,-5.621,-201.4,86.3,38.2,-34.6,6.1,27.5,0.16135136,0.695211646,-0.128666036,0.688467055
776,1944850,1854370,0.308,-3.903,-4.233,-83.9,146.4,-0.8,-34.6,6.1,27.5,0.163060396,0.692709128,-0.12939848,0.690481277
777,1947828,1854370,1.439,-3.878,-0.805,-54.8,42.6,-18.1,-34.6,6.1,27.5,0.164281137,0.691915647,-0.129825739,0.690908536
778,1950118,1854380,0.993,0.166,-1.915,-19.6,-71.2,-19.4,-34.6,6.1,27.5,0.164677877,0.692983795,-0.130069887,0.689718314
779,1952374,1854380,-0.059,-0.84,-1.938,39.2,-87.2,-13.7,-34.6,6.1,27.5,0.164036988,0.694479202,-0.129581591,0.688467055
780,1954626,1854380,-0.059,-0.84,-1.938,39.2,-87.2,-13.7,-34.6,6.1,27.5,0.164036988,0.694479202,-0.129581591,0.688467055
781,1956892,1854380,-0.738,-1.491,1.705,33.8,59.5,7.4,-37.7,6.5,27.6,0.162602618,0.694174017,-0.127994629,0.689382611
782,1959362,1854390,0.99,2.109,2.737,-0.2,70.5,16.2,-37.7,6.5,27.6,0.1625721,0.69307535,-0.127994629,0.690481277
783,1961624,1854390,2.661,2.902,2.831,0.7,3.3,17.4,-37.7,6.5,27.6,0.162297433,0.692983795,-0.128238777,0.690603351
784,1964702,1854390,2.512,-0.085,0.775,13.3,-79.6,13.7,-37.7,6.5,27.6,0.161656545,0.694174017,-0.128543962,0.689474166
785,1967768,1854390,0.7,0.66,-0.743,10.9,-104.3,8.7,-37.7,6.5,27.6,0.161076693,0.695760979,-0.128879666,0.687978759
786,1969227,1854400,0.377,1.778,0.078,5.9,-58.2,4.1,-37.7,6.5,27.6,0.160771508,0.696646016,-0.129062777,0.687124241
787,1971781,1854400,0.852,0.689,-0.893,10.7,6.1,0,-37.7,6.5,27.6,0.160618915,0.696584979,-0.128879666,0.687246315
788,1974890,1854400,1.531,-0.1,-1.387,11.2,35.7,-1.7,-35.7,6.5,27.7,0.160557878,0.696096683,-0.128543962,0.687795648
789,1976598,1854400,1.358,0.591,-0.662,0.1,24.4,-0.8,-35.7,6.5,27.7,0.160649434,0.695730461,-0.128452406,0.68816187
790,1980059,1854410,1.019,0.13,-0.302,-10.3,1.1,0.6,-35.7,6.5,27.7,0.160802026,0.695669424,-0.128604999,0.68816187
791,1981636,1854410,0.885,-0.762,-0.581,-14.5,-11.3,1.8,-35.7,6.5,27.7,0.160954619,0.695791498,-0.128910184,0.687948241
792,1985050,1854410,1.291,-0.009,-0.333,-14,-12.7,2.5,-35.7,6.5,27.7,0.161107212,0.69594409,-0.129184851,0.687734611
793,1986578,1854410,1.405,0.281,-0.044,-7.4,-11.7,2.6,-35.7,6.5,27.7,0.16113773,0.696066164,-0.12939848,0.6875515
794,1990302,1854420,1.381,0.032,-0.321,3.3,-10.4,2.2,-35.7,6.5,27.7,0.161015656,0.696249275,-0.12939848,0.687398907
795,1991748,1854420,0.955,0.765,-0.086,12,-4.9,1.5,-35.7,6.5,27.7,0.160802026,0.696340831,-0.129276406,0.687368389
796,1994869,1854420,0.819,0.692,0.051,14.7,5.1,0.9,-35.7,6.5,27.7,0.160588397,0.696279794,-0.129032258,0.687490463
797,1996518,1854420,0.868,0.257,-0.301,11.8,13.8,0.3,-35.7,6.5,27.7,0.160435804,0.69615772,-0.128818628,0.687734611
798,1999359,1854430,0.938,0.202,-0.182,4.8,15,0,-35.7,6.5,27.7,0.160374767,0.69594409,-0.128696554,0.687978759
799,2002345,1854430,1.152,-0.011,0.203,-3.3,7.9,0.1,-35.7,6.5,27.7,0.160466323,0.695822016,-0.128727073,0.688100833
800,2005518,1854430,1.152,-0.011,0.203,-3.3,7.9,0.1,-35.7,6.5,27.7,0.160466323,0.695822016,-0.128727073,0.688100833
801,2006989,1854430,1.098,-0.187,0.307,-10.4,-7.4,0.1,-36.3,6.6,27.7,0.160740989,0.695883053,-0.129062777,0.687887204
802,2009995,1854440,1.06,0.108,0.441,-8.1,-7.4,-0.1,-36.3,6.6,27.7,0.160832545,0.695974609,-0.129184851,0.68776513
803,2011593,1854440,1.032,0.064,0.387,-3.4,-3.3,-0.6,-36.3,6.6,27.7,0.160893582,0.696005127,-0.129245888,0.687704093
804,2014423,1854440,0.993,0.167,0.411,0.9,0.9,-1.2,-36.3,6.6,27.7,0.160893582,0.696005127,-0.129215369,0.687704093
805,2017345,1854440,0.981,0.214,0.153,3.1,3.7,-1.6,-36.3,6.6,27.7,0.160893582,0.69594409,-0.129123814,0.68776513
806,2020412,1854450,0.848,0.01,-0.217,3.1,5.3,-1.9,-36.3,6.6,27.7,0.160893582,0.695883053,-0.129032258,0.687856685
807,2022019,1854450,0.86,0.053,-0.116,1.7,6.2,-2,-36.3,6.6,27.7,0.160893582,0.695822016,-0.128940703,0.687948241
808,2024996,1854450,0.954,0.072,0.04,0,5.1,-2,-36.3,6.6,27.7,0.160954619,0.695730461,-0.128910184,0.688009278
809,2026677,1854450,1.106,-0.097,0.377,-1.7,1.4,-1.8,-36.3,6.6,27.7,0.161015656,0.695730461,-0.128910184,0.688039796
810,2030269,1854460,1.129,-0.082,0.145,-2.8,-3.5,-1.7,-36.3,6.6,27.7,0.161076693,0.695760979,-0.128940703,0.687948241
811,2031705,1854460,1.051,-0.011,-0.079,-2.6,-5.8,-1.6,-36.3,6.6,27.7,0.161107212,0.695852535,-0.128971221,0.687856685
812,2034218,1854460,0.945,0.025,-0.189,-0.9,-3.5,-1.7,-36.3,6.6,27.7,0.16113773,0.695913572,-0.128971221,0.687795648
813,2037752,1854460,0.938,0.056,-0.201,1.4,0.9,-1.8,-36.3,6.6,27.7,0.161168249,0.695913572,-0.128910184,0.687795648
814,2040086,1854470,0.985,0.119,0.051,3.1,3.4,-1.7,-36.3,6.6,27.7,0.16113773,0.695852535,-0.128818628,0.687856685
815,2041913,1854470,1.016,0.127,0.246,3.4,1.9,-1.6,-36.3,6.6,27.7,0.16113773,0.695852535,-0.128727073,0.687887204
816,2044254,1854470,0.993,0.072,0.306,2.8,-1.1,-1.2,-36.3,6.6,27.7,0.161107212,0.695883053,-0.128696554,0.687887204
817,2046754,1854470,0.977,0.061,0.204,1.6,-2.8,-1,-36.3,6.6,27.7,0.161076693,0.69594409,-0.128666036,0.687856685
818,2049223,1854480,0.969,0.025,0.044,0.5,-2.2,-1,-36.3,6.6,27.7,0.161076693,0.695974609,-0.128635517,0.687795648
819,2052761,1854480,0.965,0.005,0.005,0.1,-0.4,-1,-36.3,6.6,27.7,0.161107212,0.695974609,-0.128604999,0.687795648
820,2055142,1854480,0.965,0.005,0.005,0.1,-0.4,-1,-36.3,6.6,27.7,0.161107212,0.695974609,-0.128604999,0.687795648
821,2057408,1854480,0.984,0.044,-0.144,0.3,0.6,-0.7,-36.6,6.3,26.9,0.16113773,0.695852535,-0.12857448,0.687948241
822,2059634,1854490,0.926,0.076,-0.06,0.7,0.6,-0.4,-36.6,6.3,26.9,0.16113773,0.695852535,-0.128543962,0.687948241
823,2061881,1854490,0.922,0.068,-0.071,0.9,0.8,0,-36.6,6.3,26.9,0.16113773,0.695822016,-0.128513443,0.687948241
824,2064519,1854490,0.953,0.048,-0.068,0.8,1,0.4,-36.6,6.3,26.9,0.161107212,0.695822016,-0.128513443,0.687978759
825,2066690,1854490,0.984,0.036,-0.093,0.1,0.4,0.8,-36.6,6.3,26.9,0.161107212,0.695822016,-0.128513443,0.687978759
826,2070734,1854500,1.012,0.044,-0.117,-0.5,-0.4,1.2,-36.6,6.3,26.9,0.161076693,0.695822016,-0.128543962,0.687978759
827,2073060,1854500,1.012,0.032,-0.093,-1,-0.9,1.5,-36.6,6.3,26.9,0.161076693,0.695822016,-0.128604999,0.687978759
828,2075481,1854500,1.019,0.016,-0.098,-1.3,-0.9,1.7,-36.6,6.3,26.9,0.161076693,0.695822016,-0.128635517,0.687948241
829,2077715,1854500,1.016,0.016,-0.097,-1.4,-0.6,1.9,-36.6,6.3,26.9,0.161046175,0.695822016,-0.128696554,0.687948241
830,2079925,1854510,0.977,-0.002,-0.112,-1.3,-0.4,1.9,-36.6,6.3,26.9,0.161046175,0.695822016,-0.128757591,0.687948241
831,2082239,1854510,0.969,-0.006,-0.104,-1.1,-0.2,2,-36.6,6.3,26.9,0.161046175,0.695822016,-0.12878811,0.687948241
832,2084422,1854510,0.965,0.001,-0.076,-0.8,-0.1,2.1,-36.6,6.3,26.9,0.161015656,0.695791498,-0.128849147,0.687948241
833,2086670,1854510,0.957,0.005,-0.017,-0.8,-0.1,2.1,-36.6,6.3,26.9,0.160985137,0.695791498,-0.128879666,0.687948241
834,2089284,1854520,0.961,0.041,0.119,-0.4,-0.3,2.2,-36.6,6.3,26.9,0.160954619,0.695791498,-0.128940703,0.687948241
835,2091553,1854520,0.969,0.053,0.205,-0.1,-0.9,2.3,-36.6,6.3,26.9,0.1609241,0.695791498,-0.128971221,0.687948241
836,2094668,1854520,0.981,0.057,0.228,0.1,-1.5,2.3,-36.6,6.3,26.9,0.160893582,0.695822016,-0.129032258,0.687948241
837,2096549,1854520,1.001,0.064,0.2,0.2,-2.1,2.2,-36.6,6.3,26.9,0.160832545,0.695852535,-0.129062777,0.687917722
838,2100053,1854530,1.001,0.06,0.149,0.3,-2.4,1.9,-36.6,6.3,26.9,0.160802026,0.695883053,-0.129093295,0.687887204
839,2101649,1854530,1,0.06,0.082,0.3,-2.4,1.8,-36.6,6.3,26.9,0.160771508,0.695913572,-0.129123814,0.687856685
840,2104402,1854530,1,0.06,0.082,0.3,-2.4,1.8,-36.6,6.3,26.9,0.160771508,0.695913572,-0.129123814,0.687856685
841,2108333,1854530,0.961,0.025,-0.006,0,-1.5,1.6,-36.4,6.3,26,0.160863063,0.695455794,-0.129032258,0.688314463
842,2109784,1854540,0.953,0.005,-0.06,-0.2,-1,1.6,-36.4,6.3,26,0.160832545,0.695455794,-0.129062777,0.688283944
843,2112088,1854540,0.949,-0.006,-0.099,-0.5,-0.9,1.7,-36.4,6.3,26,0.160802026,0.695486312,-0.129123814,0.688283944
844,2114294,1854540,0.942,-0.006,-0.091,-0.9,-1.3,1.9,-36.4,6.3,26,0.160802026,0.695486312,-0.129123814,0.688253426
845,2117806,1854540,0.957,-0.029,-0.095,-1.1,-1.8,2.1,-36.4,6.3,26,0.160771508,0.695516831,-0.129215369,0.688253426
846,2120087,1854550,0.941,-0.065,-0.111,-1.5,-2.6,2.2,-36.4,6.3,26,0.160771508,0.695547349,-0.129276406,0.688192389
847,2122297,1854550,0.941,-0.065,-0.095,-1.8,-3.5,2.4,-36.4,6.3,26,0.160740989,0.695577868,-0.129367962,0.68816187
848,2124555,1854550,0.942,-0.013,-0.021,-2.2,-4,2.7,-36.4,6.3,26,0.160710471,0.695608386,-0.129459517,0.688100833
849,2126818,1854550,0.938,-0.025,-0.017,-2.1,-4.1,2.9,-36.4,6.3,26,0.160710471,0.695669424,-0.129551073,0.688039796
850,2129190,1854560,0.946,-0.029,-0.013,-1.7,-4,3.2,-36.4,6.3,26,0.160679952,0.695699942,-0.129642628,0.687978759
851,2131908,1854560,0.969,-0.01,0.001,-1.3,-4.1,3.3,-36.4,6.3,26,0.160618915,0.695760979,-0.129734184,0.687917722
852,2135106,1854560,0.985,0.025,0.028,-1.2,-4.9,3.5,-36.4,6.3,26,0.160588397,0.695822016,-0.129825739,0.687856685
853,2136881,1854560,1.008,0.028,0.047,-1.1,-5.9,3.7,-36.4,6.3,26,0.16052736,0.695883053,-0.129917295,0.68776513
854,2139106,1854570,1.008,0.052,0.074,-1,-7.2,3.8,-36.4,6.3,26,0.160466323,0.695974609,-0.13000885,0.687673574
855,2141825,1854570,1.02,0.056,0.07,-0.9,-8.4,4,-36.4,6.3,26,0.160374767,0.696096683,-0.130100406,0.6875515
856,2145110,1854570,1.016,0.056,0.042,-1.2,-9.5,4.3,-36.4,6.3,26,0.16031373,0.696218757,-0.13022248,0.687429426
857,2146891,1854570,1.024,0.064,0.042,-1.8,-10.4,4.6,-36.4,6.3,26,0.160252693,0.696371349,-0.130375072,0.687276833
858,2149266,1854580,1.008,0.076,0.054,-2.5,-11,4.9,-36.4,6.3,26,0.160161138,0.696493423,-0.130527665,0.687124241
859,2151985,1854580,0.985,0.056,0.083,-3.2,-11.4,5.2,-36.4,6.3,26,0.160100101,0.696646016,-0.130680258,0.686971648
860,2155190,1854580,0.985,0.056,0.083,-3.2,-11.4,5.2,-36.4,6.3,26,0.160100101,0.696646016,-0.130680258,0.686971648
861,2156695,1854580,0.977,0.033,0.091,-4.6,-12,5.7,-36.2,6.1,27.7,0.160069582,0.696829127,-0.131015961,0.6867275
862,2159786,1854590,0.95,0.037,0.088,-5.2,-12.6,5.9,-36.2,6.1,27.7,0.160039064,0.696981719,-0.131229591,0.686544389
863,2161855,1854590,0.946,0.029,0.084,-5.5,-13.5,5.9,-36.2,6.1,27.7,0.159978027,0.69716483,-0.13144322,0.68633076
864,2165130,1854590,0.95,0.045,0.103,-5.5,-15,5.9,-36.2,6.3,27.3,0.159947508,0.697347942,-0.131687368,0.68611713
865,2167439,1854590,0.954,0.053,0.123,-5.1,-16.4,5.8,-36.2,6.3,27.3,0.159886471,0.697561571,-0.131900998,0.685872982
866,2170076,1854600,0.946,0.045,0.139,-4.7,-17.2,5.7,-36.2,6.3,27.3,0.159825434,0.697775201,-0.132114628,0.685598315
867,2172347,1854600,0.954,0.057,0.131,-4.4,-17,5.6,-36.2,6.3,27.3,0.159764397,0.69798883,-0.132328257,0.685354167
868,2174146,1854600,0.954,0.088,0.158,-4.3,-15.6,5.2,-35.9,5.9,27.8,0.15970336,0.69820246,-0.132541887,0.685110019
869,2176831,1854600,0.938,0.148,0.186,-4,-13.5,4.9,-35.9,5.9,27.8,0.159642323,0.698385571,-0.132724998,0.684926908
870,2180342,1854610,0.958,0.167,0.185,-3.5,-11.7,4.4,-35.9,5.9,27.8,0.159611805,0.698538163,-0.13287759,0.684743797
871,2182603,1854610,0.911,0.163,0.175,-3.1,-11.2,3.8,-35.9,5.9,27.8,0.159550768,0.698690756,-0.133030183,0.684560686
872,2184174,1854610,0.896,0.14,0.132,-2.7,-12.3,3,-35.5,6.2,27.8,0.159520249,0.698843348,-0.133152257,0.684377575
873,2188244,1854610,0.892,0.152,0.062,-2.7,-14.4,2.2,-35.5,6.2,27.8,0.159489731,0.699056978,-0.133274331,0.684163945
874,2190137,1854620,0.896,0.183,0.105,-2.8,-16.6,1.5,-35.5,6.2,27.8,0.159459212,0.699270608,-0.133396405,0.683919797
875,2191758,1854620,0.966,0.175,0.095,-2.5,-17.8,0.9,-35.5,6.2,27.8,0.159398175,0.699545274,-0.133518479,0.683645131
876,2194486,1854620,0.86,0.12,0.051,-1.8,-17.6,0.4,-35.8,6.3,27.5,0.159398175,0.699789422,-0.133610034,0.683370464
877,2197858,1854620,0.884,0.108,0.023,-0.9,-16.3,0.1,-35.8,6.3,27.5,0.159367656,0.70003357,-0.13370159,0.683126316
878,2200445,1854630,0.915,0.104,0.026,-0.5,-15.5,0,-35.8,6.3,27.5,0.159337138,0.7002472,-0.133762627,0.682882168
879,2202809,1854630,0.958,0.072,0.033,-0.4,-16.4,-0.1,-35.8,6.3,27.5,0.159276101,0.700491348,-0.133823664,0.682607501
880,2205096,1854630,0.958,0.072,0.033,-0.4,-16.4,-0.1,-35.8,6.3,27.5,0.159276101,0.700491348,-0.133823664,0.682607501
881,2206994,1854630,1.027,-0.014,-0.019,-1,-22.9,0.1,-35.8,6.5,28.9,0.159337138,0.701101718,-0.133854183,0.681997131
882,2209362,1854640,1.031,-0.026,-0.027,-1.7,-25.9,0.4,-35.8,6.5,28.9,0.159276101,0.70146794,-0.133976257,0.681569872
883,2212589,1854640,1.035,-0.026,-0.063,-1.9,-27,0.8,-35.8,6.5,28.9,0.159215064,0.701864681,-0.134128849,0.681173132
884,2214803,1854640,1.027,-0.026,-0.09,-1.6,-26.3,1,-35.1,5.1,26.6,0.159154027,0.702261422,-0.134250923,0.680745872
885,2216746,1854640,1.027,-0.03,-0.125,-0.8,-24.4,1,-35.1,5.1,26.6,0.15909299,0.702597125,-0.134372997,0.68037965
886,2220869,1854650,1.027,-0.022,-0.149,-0.1,-22.5,0.9,-35.1,5.1,26.6,0.159001434,0.702932829,-0.134464553,0.680043947
887,2221811,1854650,1.05,-0.003,-0.185,0.4,-21.3,0.6,-35.1,5.1,26.6,0.158940397,0.703268532,-0.13452559,0.679708243
888,2225460,1854650,1.05,0,-0.204,0.9,-20.4,0.2,-35.3,4.5,26.5,0.158848842,0.703573717,-0.134586627,0.679403058
889,2227627,1854650,1.054,0.012,-0.224,1.3,-19.6,0,-35.3,4.5,26.5,0.158757286,0.703848384,-0.134647664,0.679097873
890,2229850,1854660,1.046,0.027,-0.279,1.8,-18.5,-0.2,-35.3,4.5,26.5,0.158696249,0.704153569,-0.134678182,0.678823206
891,2232091,1854660,1.042,0.035,-0.29,2.3,-17.2,-0.4,-35.3,4.5,26.5,0.158604694,0.704397717,-0.134708701,0.678579058
892,2234271,1854660,1.05,0.047,-0.295,2.7,-15.7,-0.4,-35,4.1,26.4,0.158543657,0.704641865,-0.134708701,0.67833491
893,2236581,1854660,1.058,0.055,-0.299,3.1,-14.2,-0.3,-35,4.1,26.4,0.158421583,0.704886013,-0.134708701,0.678121281
894,2239336,1854670,1.054,0.067,-0.314,3.4,-12.6,-0.2,-35,4.1,26.4,0.158360546,0.705069124,-0.134678182,0.677938169
895,2243176,1854670,1.054,0.075,-0.318,3.5,-11.2,-0.1,-35,4.1,26.4,0.15826899,0.705252235,-0.134678182,0.677785577
896,2245359,1854670,1.05,0.079,-0.322,3.4,-10,0,-34.9,4.2,26.3,0.158177435,0.705404828,-0.134647664,0.677632984
897,2247645,1854670,1.039,0.09,-0.302,3.2,-8.6,0,-34.9,4.2,26.3,0.158116398,0.705557421,-0.134647664,0.67751091
898,2249233,1854680,1.043,0.087,-0.287,3,-7.3,0,-34.9,4.2,26.3,0.158055361,0.705679495,-0.134617145,0.677388836
899,2252701,1854680,1.035,0.083,-0.282,2.7,-5.8,0,-34.9,4.2,26.3,0.157994324,0.70577105,-0.134586627,0.677327799
900,2254246,1854680,1.035,0.083,-0.282,2.7,-5.8,0,-34.9,4.2,26.3,0.157994324,0.70577105,-0.134586627,0.677327799
901,2256807,1854680,1.031,0.079,-0.22,1.8,-3.1,0.2,-35.5,7.7,27.7,0.157902768,0.706137272,-0.134586627,0.676992096
902,2259190,1854690,1.027,0.071,-0.204,1.4,-2.2,0.2,-35.5,7.7,27.7,0.157841731,0.706167791,-0.134556108,0.676961577
903,2262498,1854690,1.027,0.079,-0.176,1,-1.4,0.3,-35.5,7.7,27.7,0.157841731,0.706198309,-0.134556108,0.676931059
904,2264779,1854690,1.023,0.071,-0.133,0.6,-0.5,0.3,-35.1,5.1,26.7,0.157811213,0.706198309,-0.134556108,0.676931059
905,2266982,1854690,1.019,0.067,-0.109,0.2,0.2,0.3,-35.1,5.1,26.7,0.157811213,0.706198309,-0.134556108,0.676931059
906,2270139,1854700,1.016,0.064,-0.09,-0.1,1.1,0.3,-35.1,5.1,26.7,0.157811213,0.706167791,-0.134556108,0.676961577
907,2271872,1854700,1.008,0.064,-0.058,-0.3,1.8,0.3,-35.1,5.1,26.7,0.157811213,0.706137272,-0.134556108,0.676992096
908,2274562,1854700,1,0.06,-0.034,-0.7,2.5,0.2,-35.2,5.7,26.6,0.157841731,0.706106754,-0.134586627,0.677022614
909,2276828,1854700,0.989,0.052,-0.01,-1.2,3,0.2,-35.2,5.7,26.6,0.157841731,0.706045717,-0.134586627,0.677053133
910,2279984,1854710,0.977,0.048,-0.006,-1.5,3.5,0.2,-35.2,5.7,26.6,0.15787225,0.70598468,-0.134617145,0.67711417
911,2281751,1854710,0.969,0.041,0.001,-1.8,3.9,0.3,-35.2,5.7,26.6,0.157902768,0.705923643,-0.134617145,0.677175207
912,2284279,1854710,0.957,0.037,0.013,-2,4.1,0.3,-35.5,6,26.6,0.157963805,0.705862606,-0.134647664,0.677236244
913,2287555,1854710,0.957,0.029,0.021,-2,4.1,0.3,-35.5,6,26.6,0.157994324,0.705801569,-0.134647664,0.677297281
914,2289159,1854720,0.954,0.025,0.025,-1.9,4.1,0.3,-35.5,6,26.6,0.158024842,0.705710013,-0.134678182,0.677358318
915,2291817,1854720,0.95,0.021,0.025,-1.8,3.8,0.1,-35.5,6,26.6,0.158055361,0.705648976,-0.134708701,0.677388836
916,2294705,1854720,0.954,0.021,0.029,-1.6,3.2,0,-35.3,5.8,27,0.158085879,0.705587939,-0.134708701,0.677449873
917,2298023,1854720,0.961,0.021,0.033,-1.4,2.5,0,-35.3,5.8,27,0.158116398,0.705557421,-0.134739219,0.677480392
918,2300130,1854730,0.969,0.025,0.036,-1,1.8,0.1,-35.3,5.8,27,0.158146916,0.705526902,-0.134739219,0.67751091
919,2301844,1854730,0.977,0.029,0.036,-0.7,1.1,0.3,-35.3,5.8,27,0.158146916,0.705496384,-0.134739219,0.67751091
920,2304930,1854730,0.977,0.029,0.036,-0.7,1.1,0.3,-35.3,5.8,27,0.158146916,0.705496384,-0.134739219,0.67751091
921,2307353,1854730,0.985,0.033,0.036,0,-0.1,0.1,-35.4,6.1,27.6,0.158146916,0.705404828,-0.134769738,0.677602466
922,2310278,1854740,0.989,0.044,0.028,0.2,-0.3,0,-35.4,6.1,27.6,0.158146916,0.705435347,-0.134769738,0.677602466
923,2312429,1854740,0.985,0.044,0.028,0.4,-0.3,0,-35.4,6.1,27.6,0.158146916,0.705435347,-0.134769738,0.677602466
924,2314886,1854740,0.981,0.048,0.024,0.4,-0.3,-0.1,-35.6,6,27.2,0.158146916,0.705435347,-0.134739219,0.677602466
925,2316759,1854740,0.973,0.048,0.024,0.6,-0.2,0,-35.6,6,27.2,0.158116398,0.705435347,-0.134739219,0.677602466
926,2320141,1854750,0.957,0.045,0.017,0.6,-0.3,0,-35.6,6,27.2,0.158116398,0.705435347,-0.134739219,0.677602466
927,2321843,1854750,0.957,0.041,0.005,0.6,-0.4,0,-35.6,6,27.2,0.158116398,0.705465865,-0.134708701,0.677602466
928,2325128,1854750,0.95,0.037,0.002,0.4,-0.7,0,-35.2,6,27.4,0.158085879,0.705465865,-0.134708701,0.677571947
929,2327537,1854750,0.953,0.037,-0.013,0.4,-1.1,0,-35.2,6,27.4,0.158085879,0.705496384,-0.134708701,0.677571947
930,2329630,1854760,0.961,0.033,-0.021,0.3,-1.6,0.2,-35.2,6,27.4,0.158055361,0.705526902,-0.134708701,0.677541429
931,2331942,1854760,0.969,0.033,-0.025,0.3,-2.2,0.2,-35.2,6,27.4,0.158055361,0.705557421,-0.134739219,0.67751091
932,2334283,1854760,0.981,0.032,-0.03,0.3,-2.9,0.2,-35.4,6.1,27.5,0.158024842,0.705587939,-0.134739219,0.677480392
933,2336913,1854760,1,0.036,-0.046,0.3,-3.6,0.2,-35.4,6.1,27.5,0.158024842,0.705648976,-0.134739219,0.677419355
934,2339152,1854770,1.004,0.04,-0.058,0.4,-4,0.2,-35.4,6.1,27.5,0.157994324,0.705710013,-0.134769738,0.677358318
935,2342166,1854770,1.012,0.04,-0.062,0.4,-4.3,0.1,-35.4,6.1,27.5,0.157963805,0.70577105,-0.134769738,0.677297281
936,2344476,1854770,1.016,0.044,-0.066,0.3,-4.2,0,-35.1,6.2,27.3,0.157963805,0.705832087,-0.134769738,0.677236244
937,2347091,1854770,1.012,0.044,-0.07,0.3,-4,0,-35.1,6.2,27.3,0.157933287,0.705893124,-0.134800256,0.677175207
938,2349639,1854780,1.008,0.052,-0.078,0.4,-3.4,0,-35.1,6.2,27.3,0.157933287,0.705954161,-0.134800256,0.67711417
939,2351921,1854780,1.008,0.044,-0.074,0.4,-2.7,0,-35.1,6.2,27.3,0.157902768,0.70598468,-0.134800256,0.677053133
940,2354647,1854780,1.008,0.044,-0.074,0.4,-2.7,0,-35.1,6.2,27.3,0.157902768,0.70598468,-0.134800256,0.677053133
941,2356793,1854780,0.988,0.044,-0.085,0.4,-1.5,0,-35.1,5.1,27.2,0.15787225,0.706137272,-0.134800256,0.67690054
942,2360140,1854790,0.988,0.044,-0.089,0.3,-1.1,0,-35.1,5.1,27.2,0.15787225,0.706167791,-0.134800256,0.67690054
943,2361760,1854790,0.981,0.044,-0.085,0.2,-0.8,0.1,-35.1,5.1,27.2,0.157841731,0.706198309,-0.134800256,0.676870022
944,2364366,1854790,0.981,0.036,-0.081,0.1,-0.6,0.2,-35.5,7.2,27.4,0.157841731,0.706198309,-0.134800256,0.676870022
945,2367495,1854790,0.984,0.04,-0.077,0,-0.6,0.1,-35.5,7.2,27.4,0.157841731,0.706198309,-0.134800256,0.676870022
946,2369294,1854800,0.984,0.044,-0.081,0,-0.8,0,-35.5,7.2,27.4,0.157841731,0.706228828,-0.134830775,0.676839503
947,2371608,1854800,0.996,0.04,-0.066,0.1,-0.8,0,-35.5,7.2,27.4,0.157841731,0.706228828,-0.134830775,0.676839503
948,2375060,1854800,0.996,0.048,-0.062,0.2,-0.8,0.1,-36.4,7,27.2,0.157811213,0.706228828,-0.134830775,0.676808985
949,2376834,1854800,1.004,0.048,-0.062,0.2,-0.8,0.1,-36.4,7,27.2,0.157811213,0.706259346,-0.134830775,0.676808985
950,2379074,1854810,1.004,0.048,-0.054,0.2,-0.6,0.1,-36.4,7,27.2,0.157811213,0.706259346,-0.134830775,0.676808985
951,2382557,1854810,1.004,0.052,-0.054,0.1,-0.4,0.2,-36.4,7,27.2,0.157811213,0.706259346,-0.134830775,0.676808985
952,2384377,1854810,1,0.048,-0.046,0.1,-0.3,0.1,-37.1,7.3,27.2,0.157780694,0.706289865,-0.134830775,0.676747948
953,2386832,1854810,1,0.048,-0.046,0,0,0,-37.1,7.3,27.2,0.157780694,0.706289865,-0.134830775,0.676747948
954,2390229,1854820,0.981,0.044,-0.038,-0.1,0.3,0,-37.1,7.3,27.2,0.157780694,0.706259346,-0.134830775,0.676808985
955,2391738,1854820,0.977,0.04,-0.034,-0.1,0.7,0,-37.1,7.3,27.2,0.157811213,0.706259346,-0.134830775,0.676808985
956,2394979,1854820,0.973,0.04,-0.033,-0.1,0.8,0,-36.8,7.3,27,0.157811213,0.706259346,-0.134830775,0.676808985
957,2396775,1854820,0.965,0.037,-0.033,-0.1,0.9,0,-36.8,7.3,27,0.157811213,0.706228828,-0.134830775,0.676839503
958,2399241,1854830,0.969,0.037,-0.033,-0.2,0.8,0,-36.8,7.3,27,0.157811213,0.706228828,-0.134830775,0.676839503
959,2402646,1854830,0.973,0.033,-0.022,-0.3,0.7,0,-36.8,7.3,27,0.157811213,0.706198309,-0.134830775,0.676870022
960,2404091,1854830,0.973,0.033,-0.022,-0.3,0.7,0,-36.8,7.3,27,0.157811213,0.706198309,-0.134830775,0.676870022
961,2406649,1854830,0.988,0.04,-0.026,-0.1,0,0.1,-34.4,5.1,27.4,0.157811213,0.706198309,-0.134861293,0.676870022
962,2410072,1854840,0.988,0.04,-0.018,-0.1,-0.3,0.1,-34.4,5.1,27.4,0.157811213,0.706198309,-0.134861293,0.676870022
963,2411675,1854840,0.996,0.036,-0.019,-0.1,-0.4,0,-34.4,5.1,27.4,0.157811213,0.706198309,-0.134861293,0.676870022
964,2414270,1854840,0.996,0.048,-0.019,0,-0.4,0,-36.4,7.1,27.5,0.157811213,0.706198309,-0.134861293,0.676839503
965,2417638,1854840,0.996,0.044,-0.015,0,-0.3,0.1,-36.4,7.1,27.5,0.157811213,0.706198309,-0.134861293,0.676839503
966,2419095,1854850,0.989,0.048,-0.014,0,-0.1,0.1,-36.4,7.1,27.5,0.157811213,0.706228828,-0.134861293,0.676839503
967,2422306,1854850,0.988,0.04,-0.022,0,-0.1,0.1,-36.4,7.1,27.5,0.157811213,0.706228828,-0.134861293,0.676839503
968,2424429,1854850,0.981,0.04,-0.014,0,0,0,-36.2,7,27.5,0.157811213,0.706228828,-0.134861293,0.676839503
969,2426680,1854850,0.973,0.04,-0.022,0,0.1,0,-36.2,7,27.5,0.157811213,0.706228828,-0.134861293,0.676839503
970,2429247,1854860,0.973,0.04,-0.018,0,0.2,0,-36.2,7,27.5,0.157811213,0.706198309,-0.134861293,0.676839503
971,2432600,1854860,0.973,0.044,-0.03,0,0.2,0,-36.2,7,27.5,0.157811213,0.706198309,-0.134861293,0.676839503
972,2434155,1854860,0.973,0.04,-0.026,0,0.1,0,-35.8,6.7,27.2,0.157811213,0.706198309,-0.134861293,0.676870022
973,2436710,1854860,0.977,0.04,-0.03,0,0,0,-35.8,6.7,27.2,0.157811213,0.706198309,-0.134861293,0.676839503
974,2440076,1854870,0.977,0.04,-0.026,0,-0.3,0,-35.8,6.7,27.2,0.157780694,0.706198309,-0.134861293,0.676839503
975,2441650,1854870,0.992,0.04,-0.034,0,-0.6,0,-35.8,6.7,27.2,0.157780694,0.706228828,-0.134861293,0.676839503
976,2444266,1854870,0.992,0.04,-0.034,0,-0.8,0,-36,6.9,27.3,0.157780694,0.706228828,-0.134861293,0.676839503
977,2447643,1854870,0.996,0.04,-0.03,0,-0.8,0,-36,6.9,27.3,0.157780694,0.706259346,-0.134861293,0.676808985
978,2449302,1854880,0.992,0.044,-0.03,0.1,-0.9,0,-36,6.9,27.3,0.157780694,0.706259346,-0.134861293,0.676808985
979,2452213,1854880,0.988,0.044,-0.038,0.1,-0.9,-0.1,-36,6.9,27.3,0.157780694,0.706289865,-0.134861293,0.676747948
980,2454068,1854880,0.988,0.044,-0.038,0.1,-0.9,-0.1,-36,6.9,27.3,0.157780694,0.706289865,-0.134861293,0.676747948
981,2457647,1854880,0.988,0.044,-0.038,0,-0.7,0,-35.2,5.8,27.2,0.157780694,0.706289865,-0.134861293,0.676747948
982,2459335,1854890,0.985,0.044,-0.042,0,-0.5,0,-35.2,5.8,27.2,0.157780694,0.706320383,-0.134861293,0.676747948
983,2461797,1854890,0.981,0.04,-0.042,0,-0.3,0.2,-35.2,5.8,27.2,0.157780694,0.706320383,-0.134861293,0.676747948
984,2465132,1854890,0.981,0.036,-0.042,0,-0.3,0.1,-34.7,6.1,27.5,0.157780694,0.706320383,-0.134861293,0.676747948
985,2466621,1854890,0.977,0.04,-0.045,0.1,-0.3,0.1,-34.7,6.1,27.5,0.157780694,0.706320383,-0.134891812,0.676747948
986,2469242,1854900,0.985,0.036,-0.038,0.1,-0.1,0.1,-34.7,6.1,27.5,0.157750175,0.706320383,-0.134891812,0.676747948
987,2472627,1854900,0.981,0.04,-0.045,0,-0.1,0.1,-34.7,6.1,27.5,0.157750175,0.706320383,-0.134891812,0.676747948
988,2474245,1854900,0.985,0.044,-0.038,0,-0.3,0,-35,6.1,27.3,0.157750175,0.706320383,-0.134891812,0.676717429
989,2476740,1854900,0.988,0.04,-0.038,0,-0.5,0,-35,6.1,27.3,0.157750175,0.706350902,-0.134891812,0.676717429
990,2480163,1854910,0.988,0.04,-0.038,0,-0.7,0,-35,6.1,27.3,0.157750175,0.706350902,-0.134891812,0.676717429
991,2481714,1854910,0.988,0.044,-0.042,0,-0.7,0,-35,6.1,27.3,0.157750175,0.706350902,-0.134891812,0.676686911
992,2484869,1854910,0.996,0.044,-0.042,0,-0.7,0.1,-34.7,6,27.3,0.157750175,0.70638142,-0.134891812,0.676686911
993,2486593,1854910,0.996,0.044,-0.042,0.1,-0.6,0,-34.7,6,27.3,0.157750175,0.70638142,-0.134891812,0.676686911
994,2489364,1854920,0.988,0.044,-0.042,0.1,-0.4,0,-34.7,6,27.3,0.157750175,0.70638142,-0.134891812,0.676686911
995,2492447,1854920,0.992,0.04,-0.042,0.1,-0.2,0,-34.7,6,27.3,0.157750175,0.70638142,-0.134891812,0.676656392
996,2494184,1854920,0.988,0.04,-0.038,0.1,-0.1,0,-35.3,5.7,27.4,0.157750175,0.70638142,-0.134891812,0.676656392
997,2497680,1854920,0.985,0.04,-0.042,0.1,-0.1,0,-35.3,5.7,27.4,0.157719657,0.706411939,-0.134891812,0.676656392
998,2499238,1854930,0.985,0.04,-0.034,0,0,0,-35.3,5.7,27.4,0.157719657,0.706411939,-0.134891812,0.676656392
999,2502264,1854930,0.981,0.04,-0.038,0,0.1,0,-35.3,5.7,27.4,0.157719657,0.70638142,-0.134891812,0.676656392
1000,2505171,1854930,0.981,0.04,-0.038,0,0.1,0,-35.3,5.7,27.4,0.157719657,0.70638142,-0.134891812,0.676656392
1001,2506776,1854930,0.985,0.04,-0.034,0,0.1,-0.1,-36.4,6,27.3,0.157750175,0.706442457,-0.134891812,0.676625874
1002,2509078,1854940,0.985,0.036,-0.038,0,0,0,-36.4,6,27.3,0.157750175,0.706442457,-0.134891812,0.676625874
1003,2512212,1854940,0.988,0.036,-0.038,0,-0.1,0,-36.4,6,27.3,0.157750175,0.706442457,-0.134891812,0.676625874
1004,2515226,1854940,0.985,0.044,-0.03,0,-0.1,0,-34,6.1,27.1,0.157750175,0.706442457,-0.134891812,0.676625874
1005,2516748,1854940,0.988,0.04,-0.038,0,-0.1,0,-34,6.1,27.1,0.157750175,0.706442457,-0.134891812,0.676625874
1006,2519104,1854950,0.992,0.04,-0.034,0,-0.1,0.1,-34,6.1,27.1,0.157750175,0.706442457,-0.134891812,0.676625874
1007,2521689,1854950,0.985,0.044,-0.034,0,-0.1,0,-34,6.1,27.1,0.157750175,0.706442457,-0.134891812,0.676625874
1008,2525122,1854950,0.988,0.044,-0.034,0,-0.1,0.1,-34.6,5.7,27,0.157719657,0.706442457,-0.13492233,0.676625874
1009,2526777,1854950,0.985,0.04,-0.042,0,-0.1,0.1,-34.6,5.7,27,0.157719657,0.706442457,-0.13492233,0.676625874
1010,2529068,1854960,0.985,0.04,-0.038,0.1,-0.1,0.1,-34.6,5.7,27,0.157719657,0.706442457,-0.13492233,0.676625874
1011,2532473,1854960,0.988,0.036,-0.034,0.1,-0.3,0.1,-34.6,5.7,27,0.157719657,0.706442457,-0.13492233,0.676595355
1012,2534178,1854960,0.981,0.04,-0.034,0,-0.3,0,-34.1,5.7,27.1,0.157719657,0.706442457,-0.13492233,0.676595355
1013,2537718,1854960,0.985,0.04,-0.03,0,-0.2,0,-34.1,5.7,27.1,0.157719657,0.706442457,-0.13492233,0.676595355
1014,2539240,1854970,0.988,0.04,-0.03,0,-0.2,0,-34.1,5.7,27.1,0.157719657,0.706472976,-0.13492233,0.676595355
1015,2542313,1854970,0.988,0.036,-0.03,0,-0.3,-0.1,-34.1,5.7,27.1,0.157719657,0.706472976,-0.13492233,0.676595355
1016,2545115,1854970,0.988,0.04,-0.03,0,-0.4,-0.2,-34.3,5.9,26.9,0.157719657,0.706472976,-0.13492233,0.676595355
1017,2546609,1854970,0.992,0.04,-0.034,0,-0.3,-0.1,-34.3,5.9,26.9,0.157719657,0.706472976,-0.13492233,0.676564837
1018,2549631,1854980,0.985,0.044,-0.034,0,-0.3,0,-34.3,5.9,26.9,0.157719657,0.706472976,-0.13492233,0.676564837
1019,2551638,1854980,0.985,0.04,-0.034,0,-0.3,0,-34.3,5.9,26.9,0.157719657,0.706503494,-0.13492233,0.676564837
1020,2554102,1854980,0.985,0.04,-0.034,0,-0.3,0,-34.3,5.9,26.9,0.157719657,0.706503494,-0.13492233,0.676564837
1021,2557621,1854980,0.985,0.04,-0.034,0,-0.1,0,-36.2,5.9,27,0.157750175,0.706503494,-0.134891812,0.676564837
1022,2559155,1854990,0.985,0.044,-0.03,0,-0.1,0,-36.2,5.9,27,0.157750175,0.706503494,-0.134891812,0.676564837
1023,2561648,1854990,0.985,0.044,-0.034,0,0,0,-36.2,5.9,27,0.157750175,0.706503494,-0.134891812,0.676564837
1024,2565124,1854990,0.981,0.04,-0.038,0,0,0,-34.1,5.9,27.4,0.157750175,0.706503494,-0.134891812,0.676564837
1025,2566637,1854990,0.981,0.04,-0.038,0,0,0,-34.1,5.9,27.4,0.157750175,0.706503494,-0.134891812,0.676564837
1026,2569078,1855000,0.985,0.04,-0.038,0.1,0,0,-34.1,5.9,27.4,0.157750175,0.706503494,-0.134891812,0.676564837
1027,2573112,1855000,0.985,0.04,-0.038,0.1,0,0,-34.1,5.9,27.4,0.157750175,0.706503494,-0.134891812,0.676564837
1028,2574666,1855000,0.988,0.044,-0.038,0,0,0,-34.2,5.9,27.1,0.157719657,0.706503494,-0.134891812,0.676564837
1029,2576640,1855000,0.985,0.04,-0.038,0,-0.1,0.1,-34.2,5.9,27.1,0.157719657,0.706503494,-0.134891812,0.676564837
1030,2579967,1855010,0.985,0.044,-0.038,0.1,-0.3,0.1,-34.2,5.9,27.1,0.157719657,0.706503494,-0.134891812,0.676564837
1031,2581802,1855010,0.988,0.048,-0.034,0,-0.4,0,-34.2,5.9,27.1,0.157719657,0.706503494,-0.134891812,0.676564837
1032,2584762,1855010,0.988,0.044,-0.038,0.1,-0.5,0,-34.3,5.8,27.5,0.157719657,0.706503494,-0.134891812,0.676534318
1033,2586574,1855010,0.985,0.04,-0.03,0,-0.4,0,-34.3,5.8,27.5,0.157719657,0.706534013,-0.134891812,0.676534318
1034,2590112,1855020,0.985,0.044,-0.038,0,-0.3,0,-34.3,5.8,27.5,0.157719657,0.706534013,-0.134891812,0.676534318
1035,2591789,1855020,0.985,0.044,-0.046,0,-0.2,0,-34.3,5.8,27.5,0.157719657,0.706534013,-0.134891812,0.676534318
1036,2594110,1855020,0.985,0.04,-0.038,0,-0.1,0,-34.2,6.3,27.2,0.157719657,0.706534013,-0.134891812,0.676534318
1037,2597621,1855020,0.985,0.04,-0.038,0,0,0,-34.2,6.3,27.2,0.157719657,0.706534013,-0.134891812,0.676534318
1038,2599188,1855030,0.985,0.04,-0.042,0,0,0,-34.2,6.3,27.2,0.157719657,0.706534013,-0.134891812,0.676534318
1039,2602763,1855030,0.985,0.04,-0.03,0,0,0,-34.2,6.3,27.2,0.157719657,0.706534013,-0.134891812,0.676534318
1040,2604364,1855030,0.985,0.04,-0.03,0,0,0,-34.2,6.3,27.2,0.157719657,0.706534013,-0.134891812,0.676534318
1041,2606676,1855030,0.988,0.04,-0.038,0,0.1,0.3,-35.3,5.9,27.2,0.157719657,0.706564531,-0.134891812,0.6765038
1042,2610154,1855040,0.988,0.04,-0.042,0,0,0.3,-35.3,5.9,27.2,0.157689138,0.706564531,-0.13492233,0.6765038
1043,2611731,1855040,0.988,0.036,-0.038,0,0,0.2,-35.3,5.9,27.2,0.157689138,0.706564531,-0.13492233,0.6765038
1044,2614169,1855040,0.988,0.032,-0.034,0,-0.2,0,-35.1,5.9,27,0.157689138,0.706564531,-0.13492233,0.6765038
1045,2616578,1855040,0.988,0.036,-0.038,0.1,-0.3,0,-35.1,5.9,27,0.157689138,0.706564531,-0.13492233,0.676473281
1046,2620101,1855050,0.992,0.044,-0.038,0.1,-0.2,0,-35.1,5.9,27,0.157689138,0.706564531,-0.13492233,0.676473281
1047,2622172,1855050,0.988,0.044,-0.038,0.1,-0.1,0,-35.1,5.9,27,0.157689138,0.706564531,-0.13492233,0.676473281
1048,2625182,1855050,0.988,0.044,-0.034,0.1,0,0.1,-35.5,5.8,27,0.157689138,0.70659505,-0.13492233,0.676473281
1049,2626673,1855050,0.985,0.04,-0.038,0,0,0,-35.5,5.8,27,0.157689138,0.70659505,-0.13492233,0.676473281
1050,2629645,1855060,0.985,0.044,-0.03,0,0,0,-35.5,5.8,27,0.157689138,0.70659505,-0.13492233,0.676473281
1051,2632650,1855060,0.981,0.044,-0.038,0,0,0,-35.5,5.8,27,0.157689138,0.70659505,-0.13492233,0.676473281
1052,2634203,1855060,0.977,0.036,-0.037,0,-0.1,0,-35.6,6.2,27.2,0.157689138,0.70659505,-0.13492233,0.676473281
1053,2637189,1855060,0.981,0.04,-0.038,0,-0.1,0,-35.6,6.2,27.2,0.157689138,0.70659505,-0.13492233,0.676473281
1054,2640155,1855070,0.985,0.04,-0.038,0,-0.1,0,-35.6,6.2,27.2,0.157689138,0.70659505,-0.13492233,0.676473281
1055,2641610,1855070,0.981,0.036,-0.038,-0.1,-0.1,0,-35.6,6.2,27.2,0.157689138,0.70659505,-0.13492233,0.676473281
1056,2644657,1855070,0.981,0.036,-0.038,0,-0.2,0,-35.2,6.2,27.8,0.157689138,0.70659505,-0.13492233,0.676473281
1057,2647739,1855070,0.985,0.04,-0.034,0,-0.1,0,-35.2,6.2,27.8,0.157689138,0.70659505,-0.13492233,0.676473281
1058,2649088,1855080,0.985,0.04,-0.034,0,-0.1,0,-35.2,6.2,27.8,0.157689138,0.70659505,-0.13492233,0.676473281
1059,2652583,1855080,0.992,0.04,-0.038,0,-0.1,0,-35.2,6.2,27.8,0.157689138,0.70659505,-0.13492233,0.676473281
1060,2654115,1855080,0.992,0.04,-0.038,0,-0.1,0,-35.2,6.2,27.8,0.157689138,0.70659505,-0.13492233,0.676473281
1061,2657537,1855080,0.992,0.044,-0.038,0,-0.3,-0.1,-35.2,6.2,26,0.15765862,0.706625568,-0.13492233,0.676412244
1062,2659053,1855090,0.985,0.04,-0.03,0,-0.3,-0.1,-35.2,6.2,26,0.15765862,0.706625568,-0.13492233,0.676412244
1063,2662067,1855090,0.985,0.04,-0.034,0,-0.3,-0.1,-35.2,6.2,26,0.15765862,0.706656087,-0.13492233,0.676412244
1064,2664965,1855090,0.981,0.04,-0.038,0,-0.2,0,-35.1,6.1,27.9,0.15765862,0.706656087,-0.13492233,0.676412244
1065,2666559,1855090,0.981,0.04,-0.034,0,-0.1,0,-35.1,6.1,27.9,0.15765862,0.706656087,-0.13492233,0.676412244
1066,2669643,1855100,0.977,0.044,-0.034,0,0,0,-35.1,6.1,27.9,0.15765862,0.706656087,-0.13492233,0.676412244
1067,2671719,1855100,0.981,0.04,-0.038,0,0,0,-35.1,6.1,27.9,0.15765862,0.706656087,-0.13492233,0.676412244
1068,2674712,1855100,0.985,0.04,-0.034,0.1,0,0.1,-35.1,6.1,28.1,0.15765862,0.706656087,-0.13492233,0.676412244
1069,2676596,1855100,0.985,0.04,-0.038,0,0,0.1,-35.1,6.1,28.1,0.15765862,0.706656087,-0.13492233,0.676412244
1070,2680354,1855110,0.985,0.04,-0.038,0,0,0.1,-35.1,6.1,28.1,0.15765862,0.706656087,-0.13492233,0.676412244
1071,2681812,1855110,0.985,0.04,-0.03,0,-0.1,0.1,-35.1,6.1,28.1,0.15765862,0.706656087,-0.13492233,0.676412244
1072,2685849,1855110,0.985,0.04,-0.038,0,-0.1,0.1,-35.3,5.9,28.1,0.15765862,0.706656087,-0.134952849,0.676412244
1073,2686634,1855110,0.985,0.036,-0.034,0.1,-0.1,0,-35.3,5.9,28.1,0.15765862,0.706656087,-0.13492233,0.676412244
1074,2689456,1855120,0.988,0.04,-0.038,0.1,-0.1,0,-35.3,5.9,28.1,0.15765862,0.706656087,-0.13492233,0.676412244
1075,2691937,1855120,0.988,0.044,-0.038,0.1,-0.1,0,-35.3,5.9,28.1,0.15765862,0.706656087,-0.13492233,0.676412244
1076,2694683,1855120,0.988,0.048,-0.038,0.1,0,0,-35.3,6.1,28.4,0.157628101,0.706656087,-0.13492233,0.676412244
1077,2696980,1855120,0.981,0.04,-0.034,0,0,0.1,-35.3,6.1,28.4,0.157628101,0.706656087,-0.13492233,0.676412244
1078,2699182,1855130,0.985,0.04,-0.038,0,0.1,0.1,-35.3,6.1,28.4,0.157628101,0.706656087,-0.13492233,0.676412244
1079,2701802,1855130,0.981,0.04,-0.03,-0.1,0,0,-35.3,6.1,28.4,0.157628101,0.706656087,-0.134952849,0.676412244
1080,2704123,1855130,0.981,0.04,-0.03,-0.1,0,0,-35.3,6.1,28.4,0.157628101,0.706656087,-0.134952849,0.676412244
1081,2708023,1855130,0.981,0.04,-0.038,-0.1,-0.1,0,-35.4,6,25.6,0.15765862,0.706686605,-0.13492233,0.676381726
1082,2710280,1855140,0.981,0.036,-0.034,-0.1,-0.2,-0.1,-35.4,6,25.6,0.157689138,0.706686605,-0.13492233,0.676381726
1083,2712515,1855140,0.981,0.04,-0.038,0,-0.3,-0.1,-35.4,6,25.6,0.157689138,0.706686605,-0.13492233,0.676381726
1084,2714748,1855140,0.988,0.036,-0.042,0,-0.3,-0.1,-35.3,5.6,27,0.157689138,0.706686605,-0.13492233,0.676351207
1085,2716905,1855140,0.988,0.044,-0.038,0,-0.2,0,-35.3,5.6,27,0.157689138,0.706686605,-0.13492233,0.676351207
1086,2719162,1855150,0.985,0.04,-0.038,0.1,-0.1,0,-35.3,5.6,27,0.15765862,0.706686605,-0.13492233,0.676351207
1087,2721842,1855150,0.988,0.044,-0.034,0.1,0,0,-35.3,5.6,27,0.15765862,0.706686605,-0.13492233,0.676351207
