sample_index,elapsed_us,device_time_ms,acc_x_g,acc_y_g,acc_z_g,gyro_x_dps,gyro_y_dps,gyro_z_dps,mag_x_ut,mag_y_ut,mag_z_ut,quat_w,quat_x,quat_y,quat_z
0,3968,1520770,-0.529,-0.573,0.645,-1.3,3.8,-3.9,5.3,-6.7,-22.7,0.448622089,0.0910367138,0.412396619,-0.787591174
1,6116,1520770,-0.525,-0.577,0.648,-1.3,3.8,-3.7,5.3,-6.7,-22.7,0.448530534,0.0910672323,0.412457656,-0.787621693
2,8407,1520770,-0.533,-0.577,0.645,-1.4,3.7,-3.4,5.3,-6.7,-22.7,0.448438978,0.0910672323,0.412549211,-0.787621693
3,10681,1520780,-0.533,-0.569,0.649,-1.4,3.7,-3.1,5.3,-6.7,-22.7,0.448347423,0.0910977508,0.41257973,-0.787652211
4,12900,1520780,-0.533,-0.577,0.645,-1.3,3.6,-3,6.6,-7.2,-22.8,0.448286386,0.0911282693,0.412671285,-0.787652211
5,15061,1520780,-0.529,-0.565,0.645,-1.3,3.5,-2.9,6.6,-7.2,-22.8,0.44819483,0.0911282693,0.412732322,-0.787652211
6,17601,1520780,-0.529,-0.569,0.641,-1.2,3.4,-2.9,6.6,-7.2,-22.8,0.448103275,0.0911587878,0.412793359,-0.78768273
7,21083,1520790,-0.529,-0.565,0.645,-1.1,3.5,-2.8,6.6,-7.2,-22.8,0.448042238,0.0911893063,0.412854396,-0.78768273
8,22577,1520790,-0.529,-0.561,0.644,-1.1,3.6,-2.6,6.7,-7,-22.8,0.447950682,0.0912198248,0.412915433,-0.78768273
9,25243,1520790,-0.529,-0.565,0.648,-1.1,3.7,-2.5,6.7,-7,-22.8,0.447889645,0.0912503433,0.41297647,-0.787713248
10,28649,1520790,-0.525,-0.561,0.648,-1.1,3.7,-2.4,6.7,-7,-22.8,0.44779809,0.0912808618,0.413037507,-0.787713248
11,30797,1520800,-0.529,-0.565,0.648,-1.2,3.7,-2.3,6.7,-7,-22.8,0.447737053,0.0913113804,0.413098544,-0.787713248
12,33120,1520800,-0.525,-0.565,0.648,-1.3,3.6,-2.3,6.8,-7,-22.8,0.447737053,0.0914944914,0.413098544,-0.78768273
13,35270,1520800,-0.525,-0.565,0.648,-1.4,3.6,-2.4,6.8,-7,-22.8,0.447676016,0.0915250099,0.413159581,-0.78768273
14,38361,1520800,-0.529,-0.561,0.644,-1.5,3.6,-2.4,6.8,-7,-22.8,0.447614978,0.0915555284,0.413220618,-0.78768273
15,41317,1520810,-0.533,-0.561,0.645,-1.5,3.7,-2.3,6.8,-7,-22.8,0.447523423,0.0915860469,0.413281655,-0.78768273
16,42838,1520810,-0.533,-0.561,0.641,-1.5,3.7,-2.4,5.5,-8.9,-22.5,0.447462386,0.0916165654,0.413373211,-0.78768273
17,45656,1520810,-0.525,-0.557,0.644,-1.4,3.7,-2.5,5.5,-8.9,-22.5,0.447401349,0.091647084,0.413434248,-0.787713248
18,48794,1520810,-0.533,-0.565,0.645,-1.3,3.6,-2.6,5.5,-8.9,-22.5,0.447309793,0.0916776025,0.413495285,-0.787713248
19,50320,1520820,-0.533,-0.565,0.649,-1.3,3.6,-2.6,5.5,-8.9,-22.5,0.447248756,0.0916776025,0.413556322,-0.787713248
20,53651,1520820,-0.533,-0.561,0.648,-0.9,3.6,-2.6,5.9,-8.9,-22.7,0.447157201,0.091708121,0.413617359,-0.787713248
21,56826,1520820,-0.525,-0.565,0.648,-0.8,3.5,-2.6,5.9,-8.9,-22.7,0.447065645,0.0917386395,0.413678396,-0.787743767
22,59124,1520820,-0.525,-0.565,0.652,-0.7,3.5,-2.7,5.9,-8.9,-22.7,0.447004608,0.091769158,0.413708914,-0.787743767
23,61208,1520830,-0.525,-0.569,0.644,-0.7,3.5,-2.7,5.9,-8.9,-22.7,0.446913053,0.0917996765,0.413769951,-0.787774285
24,62749,1520830,-0.529,-0.569,0.648,-0.6,3.6,-2.7,6,-9.4,-22.6,0.446852016,0.091830195,0.413830988,-0.787774285
25,65653,1520830,-0.529,-0.573,0.648,-0.5,3.6,-2.8,6,-9.4,-22.6,0.44676046,0.0918607135,0.413861507,-0.787804804
26,68714,1520830,-0.525,-0.569,0.644,-0.3,3.5,-2.9,6,-9.4,-22.6,0.446668905,0.091891232,0.413922544,-0.787804804
27,70262,1520840,-0.529,-0.573,0.648,-0.3,3.5,-2.9,6,-9.4,-22.6,0.446607868,0.091891232,0.413983581,-0.787835322
28,72731,1520840,-0.529,-0.569,0.648,-0.2,3.5,-3,5.7,-10.6,-22.9,0.446516312,0.0919522691,0.4140141,-0.787835322
29,75069,1520840,-0.525,-0.573,0.648,0,3.6,-3.1,5.7,-10.6,-22.9,0.446424757,0.0920133061,0.414044618,-0.787865841
30,78511,1520840,-0.525,-0.577,0.652,0,3.5,-3,5.7,-10.6,-22.9,0.446333201,0.0920438246,0.414105655,-0.787896359
31,80031,1520850,-0.525,-0.569,0.652,0.2,3.5,-2.9,5.7,-10.6,-22.9,0.446272164,0.0920743431,0.414136174,-0.787926878
32,82970,1520850,-0.529,-0.577,0.652,0.1,3.6,-3,5.8,-11.3,-22.8,0.446241646,0.0921964171,0.414105655,-0.787926878
33,85220,1520850,-0.525,-0.573,0.656,0.1,3.6,-3,5.8,-11.3,-22.8,0.44615009,0.0922269356,0.414136174,-0.787957396
34,88171,1520850,-0.525,-0.573,0.652,0.1,3.5,-3.1,5.8,-11.3,-22.8,0.446058535,0.0922574541,0.414197211,-0.787987915
35,91078,1520860,-0.529,-0.569,0.648,0.1,3.5,-3.3,5.8,-11.3,-22.8,0.445966979,0.0923184912,0.414227729,-0.788018433
36,92600,1520860,-0.525,-0.581,0.652,0.2,3.5,-3.3,5.9,-6.7,-21.6,0.445875423,0.0923490097,0.414258248,-0.788048952
37,96000,1520860,-0.521,-0.577,0.648,0.3,3.5,-3.3,5.9,-6.7,-21.6,0.445783868,0.0923795282,0.414288766,-0.78807947
38,97660,1520860,-0.521,-0.577,0.648,0.3,3.5,-3.3,5.9,-6.7,-21.6,0.445692312,0.0923795282,0.414319285,-0.788109989
39,100230,1520870,-0.521,-0.573,0.652,0.5,3.4,-3.1,5.9,-6.7,-21.6,0.445600757,0.0924405652,0.414349803,-0.788140507
40,103439,1520870,-0.521,-0.581,0.656,0.6,3.4,-3.1,5.8,-9.6,-23.5,0.445509201,0.0924710837,0.414380322,-0.788171026
41,106635,1520870,-0.521,-0.577,0.652,0.7,3.3,-3,5.8,-9.6,-23.5,0.445448164,0.0925016022,0.41441084,-0.788171026
42,108360,1520870,-0.521,-0.577,0.644,0.7,3.2,-3,5.8,-9.6,-23.5,0.445356609,0.0925626392,0.414441359,-0.788201544
43,110065,1520880,-0.521,-0.573,0.648,0.7,3.2,-3,5.8,-9.6,-23.5,0.445265053,0.0925931578,0.414471877,-0.788232063
44,112673,1520880,-0.525,-0.569,0.648,0.5,3.1,-3,6.1,-9.4,-23.7,0.445173498,0.0926236763,0.414502396,-0.788262581
45,115772,1520880,-0.525,-0.569,0.644,0.5,3.1,-3,6.1,-9.4,-23.7,0.445112461,0.0926541948,0.414502396,-0.7882931
46,117544,1520880,-0.521,-0.569,0.648,0.4,3,-2.9,6.1,-9.4,-23.7,0.445020905,0.0926847133,0.414532914,-0.788323618
47,121134,1520890,-0.521,-0.569,0.64,0.4,2.8,-2.8,6.1,-9.4,-23.7,0.444959868,0.0927152318,0.414532914,-0.788354137
48,122715,1520890,-0.525,-0.569,0.644,0.3,2.6,-2.8,6.1,-8.3,-24,0.444868313,0.0927457503,0.414593951,-0.788384655
49,125067,1520890,-0.521,-0.565,0.648,0.3,2.4,-2.8,6.1,-8.3,-24,0.444807276,0.0927457503,0.41462447,-0.788415174
50,128514,1520890,-0.521,-0.569,0.648,0.2,2.3,-2.7,6.1,-8.3,-24,0.444746239,0.0927762688,0.414654988,-0.788445692
51,130129,1520900,-0.525,-0.573,0.648,0.2,2.3,-2.7,6.1,-8.3,-24,0.444654683,0.0927762688,0.414654988,-0.788445692
52,133428,1520900,-0.533,-0.569,0.652,0,2.6,-2.9,6.3,-7.5,-23.7,0.444654683,0.0928678243,0.41462447,-0.788476211
53,135646,1520900,-0.533,-0.569,0.652,0,2.6,-2.9,6.3,-7.5,-23.7,0.444563128,0.0928678243,0.414654988,-0.788506729
54,137985,1520900,-0.525,-0.577,0.644,0,2.6,-3.1,6.3,-7.5,-23.7,0.444502091,0.0929288614,0.414685507,-0.788537248
55,140240,1520910,-0.521,-0.577,0.648,0,2.6,-3.4,6.3,-7.5,-23.7,0.444410535,0.0929288614,0.414716025,-0.788567766
56,142656,1520910,-0.529,-0.581,0.648,-0.1,2.6,-3.7,5.8,-8.6,-21.7,0.444318979,0.0929288614,0.414746544,-0.788598285
57,146262,1520910,-0.529,-0.569,0.652,0,2.5,-3.8,5.8,-8.6,-21.7,0.444227424,0.0929593799,0.414777062,-0.788628803
58,147887,1520910,-0.525,-0.573,0.641,0.2,2.3,-3.7,5.8,-8.6,-21.7,0.444135868,0.0929593799,0.414807581,-0.788659322
59,150445,1520920,-0.521,-0.573,0.644,0.3,2.3,-3.7,5.8,-8.6,-21.7,0.444044313,0.0929593799,0.414838099,-0.78868984
60,153770,1520920,-0.525,-0.577,0.644,0.4,2.3,-3.9,6,-8.7,-23.4,0.443952757,0.0929898984,0.414838099,-0.788720359
61,155568,1520920,-0.525,-0.573,0.644,0.4,2.1,-4.1,6,-8.7,-23.4,0.443830683,0.0929898984,0.414868618,-0.788781396
62,157773,1520920,-0.529,-0.573,0.641,0.5,2,-4.1,6,-8.7,-23.4,0.443769646,0.0929898984,0.414899136,-0.788811914
63,160138,1520930,-0.525,-0.577,0.644,0.6,1.8,-3.9,6,-8.7,-23.4,0.443708609,0.0929898984,0.414899136,-0.788842433
64,163486,1520930,-0.529,-0.569,0.641,0.8,1.8,-3.7,6.1,-8.7,-23.8,0.443617054,0.0929898984,0.414929655,-0.78890347
65,165773,1520930,-0.525,-0.569,0.644,1,1.6,-3.6,6.1,-8.7,-23.8,0.443525498,0.0929898984,0.414929655,-0.788933988
66,168737,1520930,-0.529,-0.565,0.641,1.1,1.5,-3.6,6.1,-8.7,-23.8,0.443464461,0.0930204169,0.414929655,-0.788964507
67,170935,1520940,-0.525,-0.561,0.64,0.9,1.4,-3.5,6.1,-8.7,-23.8,0.443372906,0.0930204169,0.414929655,-0.789025544
68,173199,1520940,-0.525,-0.565,0.64,0.8,1.4,-3.6,5.7,-8.5,-23.4,0.443311869,0.0930204169,0.414929655,-0.789056063
69,175601,1520940,-0.525,-0.573,0.641,0.8,1.4,-3.6,5.7,-8.5,-23.4,0.443220313,0.0930204169,0.414929655,-0.789086581
70,177671,1520940,-0.517,-0.569,0.64,0.8,1.3,-3.7,5.7,-8.5,-23.4,0.443159276,0.0930204169,0.414960173,-0.789147618
71,180103,1520950,-0.521,-0.577,0.637,0.9,1.3,-3.9,5.7,-8.5,-23.4,0.443067721,0.0929898984,0.414960173,-0.789178137
72,182518,1520950,-0.521,-0.569,0.636,1.1,1.1,-4.2,5.9,-8.5,-22.8,0.443006684,0.0930814539,0.414929655,-0.789208655
73,185758,1520950,-0.521,-0.569,0.64,1.1,1.1,-4.2,5.9,-8.5,-22.8,0.442915128,0.0930814539,0.414929655,-0.789269692
74,187767,1520950,-0.529,-0.573,0.641,1.2,0.9,-4.3,5.9,-8.5,-22.8,0.442854091,0.0930509354,0.414929655,-0.789300211
75,191238,1520960,-0.517,-0.569,0.632,1.2,0.7,-4.2,5.9,-8.5,-22.8,0.442762535,0.0930509354,0.414929655,-0.789361248
76,193313,1520960,-0.521,-0.565,0.636,1.1,0.8,-4.1,5.8,-8.8,-23.9,0.44267098,0.0930204169,0.414929655,-0.789422285
77,196568,1520960,-0.521,-0.569,0.636,1,0.9,-3.9,5.8,-8.8,-23.9,0.442609943,0.0930204169,0.414929655,-0.789452803
78,198613,1520960,-0.525,-0.577,0.641,0.9,1,-3.9,5.8,-8.8,-23.9,0.442518387,0.0930204169,0.414929655,-0.78951384
79,200298,1520970,-0.521,-0.573,0.644,0.9,1.2,-3.8,5.8,-8.8,-23.9,0.442426832,0.0930204169,0.414929655,-0.789544359
80,204063,1520970,-0.521,-0.565,0.644,0.8,1.2,-3.7,5.9,-8.4,-21.6,0.442365795,0.0930204169,0.414929655,-0.789574877
81,206096,1520970,-0.521,-0.569,0.64,0.7,1.3,-3.6,5.9,-8.4,-21.6,0.442274239,0.0929898984,0.414929655,-0.789635914
82,207488,1520970,-0.521,-0.577,0.64,0.7,1.2,-3.4,5.9,-8.4,-21.6,0.442213202,0.0929898984,0.414929655,-0.789666433
83,210576,1520980,-0.521,-0.569,0.64,0.8,1.1,-3.3,5.9,-8.4,-21.6,0.442152165,0.0929898984,0.414960173,-0.789696951
84,212702,1520980,-0.521,-0.577,0.644,0.8,0.9,-3.1,5.9,-8.9,-20.8,0.442091128,0.0929898984,0.414960173,-0.78972747
85,216535,1520980,-0.521,-0.577,0.644,0.8,0.9,-3,5.9,-8.9,-20.8,0.442030091,0.0929898984,0.414960173,-0.789757988
86,218705,1520980,-0.517,-0.577,0.64,0.8,0.7,-2.8,5.9,-8.9,-20.8,0.441969054,0.0929898984,0.414960173,-0.789788507
87,220103,1520990,-0.525,-0.577,0.644,0.7,0.7,-2.6,5.9,-8.9,-20.8,0.441877499,0.0929898984,0.414960173,-0.789819025
88,223253,1520990,-0.525,-0.577,0.644,0.6,0.7,-2.5,6,-8.4,-20.3,0.44184698,0.0929898984,0.414960173,-0.789849544
89,225315,1520990,-0.525,-0.581,0.644,0.7,0.7,-2.4,6,-8.4,-20.3,0.441816462,0.0929898984,0.414960173,-0.789880062
90,228315,1520990,-0.525,-0.581,0.644,0.7,0.8,-2.3,6,-8.4,-20.3,0.441755425,0.0929898984,0.414960173,-0.789910581
91,230086,1521000,-0.525,-0.577,0.648,0.8,0.9,-2.2,6,-8.4,-20.3,0.441694388,0.0929898984,0.414960173,-0.789941099
92,232499,1521000,-0.525,-0.581,0.652,0.8,1,-2.1,6.1,-8.6,-20.8,0.441694388,0.0930509354,0.414929655,-0.789971618
93,236888,1521000,-0.529,-0.581,0.648,0.8,1,-2.1,6.1,-8.6,-20.8,0.441633351,0.0930509354,0.414929655,-0.789971618
94,238819,1521000,-0.525,-0.577,0.644,0.9,0.9,-2.2,6.1,-8.6,-20.8,0.441572314,0.0930814539,0.414929655,-0.790002136
95,240188,1521010,-0.525,-0.581,0.644,1,1,-2.1,6.1,-8.6,-20.8,0.441541795,0.0930814539,0.414929655,-0.790032655
96,244057,1521010,-0.525,-0.581,0.652,1,1.1,-2,6.1,-8.6,-24.5,0.441480758,0.0930814539,0.414929655,-0.790032655
97,245725,1521010,-0.529,-0.581,0.648,1.1,1.2,-1.7,6.1,-8.6,-24.5,0.44145024,0.0931119724,0.414929655,-0.790093692
98,247839,1521010,-0.525,-0.581,0.648,1.1,1,-1.5,6.1,-8.6,-24.5,0.441419721,0.0931119724,0.414929655,-0.79012421
99,250083,1521020,-0.529,-0.577,0.648,1.1,0.9,-1.4,6.1,-8.6,-24.5,0.441358684,0.0931424909,0.414899136,-0.79012421
100,253777,1521020,-0.525,-0.581,0.648,1,0.7,-1.4,5.7,-8.3,-22.9,0.441328166,0.0931424909,0.414899136,-0.790154729
101,255839,1521020,-0.533,-0.581,0.649,1,0.7,-1.3,5.7,-8.3,-22.9,0.441297647,0.0931730094,0.414899136,-0.790185247
102,259038,1521020,-0.529,-0.581,0.648,1,0.9,-1.2,5.7,-8.3,-22.9,0.441267129,0.0931730094,0.414868618,-0.790185247
103,261240,1521030,-0.529,-0.581,0.641,1,1,-1.1,5.7,-8.3,-22.9,0.44123661,0.0932035279,0.414868618,-0.790215766
104,263316,1521030,-0.533,-0.581,0.649,1,1.1,-1,6.3,-8.9,-23.8,0.441206091,0.0932035279,0.414868618,-0.790246284
105,264961,1521030,-0.533,-0.573,0.649,0.9,1.1,-1,6.3,-8.9,-23.8,0.441175573,0.0932340464,0.414868618,-0.790246284
106,267823,1521030,-0.541,-0.572,0.649,0.8,1.1,-1,6.3,-8.9,-23.8,0.441145054,0.093264565,0.414868618,-0.790276803
107,271558,1521040,-0.533,-0.573,0.645,0.8,1,-0.9,6.3,-8.9,-23.8,0.441114536,0.093264565,0.414868618,-0.790276803
108,273145,1521040,-0.537,-0.569,0.645,0.8,1,-0.9,6.1,-8.8,-24.4,0.441084017,0.0932950835,0.414868618,-0.790307321
109,275313,1521040,-0.533,-0.573,0.645,0.7,1,-0.9,6.1,-8.8,-24.4,0.441053499,0.0932950835,0.414868618,-0.790307321
110,278176,1521040,-0.533,-0.565,0.645,0.7,0.9,-0.9,6.1,-8.8,-24.4,0.441053499,0.093325602,0.414868618,-0.79033784
111,281367,1521050,-0.529,-0.569,0.648,0.5,0.9,-0.9,6.1,-8.8,-24.4,0.44102298,0.093325602,0.414868618,-0.79033784
112,283564,1521050,-0.525,-0.569,0.648,0.5,0.9,-0.7,6,-8.6,-24.4,0.441084017,0.0935697501,0.414807581,-0.790307321
113,285125,1521050,-0.525,-0.569,0.648,0.5,0.9,-0.7,6,-8.6,-24.4,0.441084017,0.0936002686,0.414807581,-0.790307321
114,288889,1521050,-0.525,-0.573,0.641,0.4,0.9,-0.7,6,-8.6,-24.4,0.441053499,0.0936002686,0.414807581,-0.790307321
115,290146,1521060,-0.521,-0.569,0.644,0.3,0.9,-0.7,6,-8.6,-24.4,0.44102298,0.0936307871,0.414807581,-0.79033784
116,293145,1521060,-0.529,-0.573,0.641,0.2,0.9,-0.6,6.2,-8.8,-22.5,0.440992462,0.0936307871,0.414807581,-0.79033784
117,296206,1521060,-0.529,-0.573,0.641,0.1,1.1,-0.5,6.2,-8.8,-22.5,0.440992462,0.0936613056,0.414838099,-0.79033784
118,297802,1521060,-0.529,-0.573,0.637,0.1,1.1,-0.4,6.2,-8.8,-22.5,0.440961943,0.0936613056,0.414838099,-0.79033784
119,300260,1521070,-0.529,-0.577,0.645,0.2,1.2,-0.3,6.2,-8.8,-22.5,0.440931425,0.0936918241,0.414838099,-0.79033784
120,302702,1521070,-0.525,-0.581,0.641,0.3,1.3,-0.3,6.1,-9.2,-22.9,0.440931425,0.0937223426,0.414838099,-0.79033784
121,306659,1521070,-0.525,-0.577,0.648,0.4,1.4,-0.3,6.1,-9.2,-22.9,0.440900906,0.0937223426,0.414868618,-0.79033784
122,309081,1521070,-0.525,-0.577,0.641,0.4,1.5,-0.4,6.1,-9.2,-22.9,0.440870388,0.0937528611,0.414868618,-0.790368358
123,311166,1521080,-0.521,-0.573,0.637,0.5,1.5,-0.4,6.1,-9.2,-22.9,0.440870388,0.0937833796,0.414868618,-0.790368358
124,313579,1521080,-0.525,-0.573,0.644,0.5,1.4,-0.3,6.3,-9.1,-22.5,0.440839869,0.0938138981,0.414868618,-0.790368358
125,315911,1521080,-0.529,-0.569,0.641,0.6,1.4,-0.1,6.3,-9.1,-22.5,0.440809351,0.0938444166,0.414868618,-0.790368358
126,318623,1521080,-0.529,-0.577,0.641,0.7,1.4,-0.1,6.3,-9.1,-22.5,0.440809351,0.0938444166,0.414868618,-0.790368358
127,320001,1521090,-0.529,-0.569,0.641,0.7,1.5,0,6.3,-9.1,-22.5,0.440778832,0.0939054537,0.414899136,-0.790368358
128,323228,1521090,-0.525,-0.569,0.641,0.7,1.5,0,6,-9.4,-23,0.440778832,0.0939359722,0.414899136,-0.790368358
129,325326,1521090,-0.533,-0.565,0.641,0.7,1.4,0.1,6,-9.4,-23,0.440778832,0.0939664907,0.414899136,-0.790398877
130,328398,1521090,-0.529,-0.569,0.637,0.7,1.4,0.2,6,-9.4,-23,0.440748314,0.0939970092,0.414899136,-0.790398877
131,330666,1521100,-0.529,-0.573,0.637,0.6,1.3,0.3,6,-9.4,-23,0.440748314,0.0940275277,0.414899136,-0.790398877
132,332832,1521100,-0.533,-0.569,0.637,0.5,1.4,0.3,6.2,-8.9,-22.5,0.440809351,0.0942716758,0.414868618,-0.79033784
133,335079,1521100,-0.525,-0.569,0.637,0.5,1.4,0.3,6.2,-8.9,-22.5,0.440809351,0.0943021943,0.414899136,-0.79033784
134,338824,1521100,-0.529,-0.573,0.645,0.4,1.4,0.4,6.2,-8.9,-22.5,0.440809351,0.0943327128,0.414899136,-0.79033784
135,340198,1521110,-0.529,-0.573,0.645,0.4,1.4,0.4,6.2,-8.9,-22.5,0.440778832,0.0943327128,0.414899136,-0.790307321
136,344069,1521110,-0.529,-0.577,0.641,0.2,1.4,0.4,4.4,-8.8,-22.7,0.440778832,0.0943937498,0.414899136,-0.790307321
137,345548,1521110,-0.521,-0.581,0.648,0.2,1.4,0.6,4.4,-8.8,-22.7,0.440778832,0.0944242683,0.414899136,-0.790307321
138,348709,1521110,-0.529,-0.581,0.641,0.2,1.5,0.8,4.4,-8.8,-22.7,0.440778832,0.0944853053,0.414929655,-0.790307321
139,350777,1521120,-0.525,-0.585,0.644,0.3,1.6,0.9,4.4,-8.8,-22.7,0.440778832,0.0945158238,0.414929655,-0.790276803
140,352998,1521120,-0.525,-0.585,0.648,0.4,1.6,0.9,7.8,-8.4,-22.7,0.440778832,0.0945463424,0.414929655,-0.790276803
141,355991,1521120,-0.525,-0.585,0.641,0.4,1.7,1,7.8,-8.4,-22.7,0.440778832,0.0946073794,0.414929655,-0.790276803
142,357385,1521120,-0.529,-0.581,0.641,0.4,1.6,1.1,7.8,-8.4,-22.7,0.440778832,0.0946378979,0.414960173,-0.790246284
143,360039,1521130,-0.529,-0.585,0.645,0.3,1.7,1.1,7.8,-8.4,-22.7,0.440809351,0.0946684164,0.414960173,-0.790246284
144,364363,1521130,-0.529,-0.581,0.645,0.2,1.7,1,7.6,-8.6,-22.5,0.440809351,0.0947294534,0.414960173,-0.790246284
145,365120,1521130,-0.529,-0.577,0.637,0.2,1.6,0.9,7.6,-8.6,-22.5,0.440809351,0.0947599719,0.414960173,-0.790215766
146,367737,1521130,-0.525,-0.577,0.644,0.4,1.6,1,7.6,-8.6,-22.5,0.440809351,0.0947904904,0.414990692,-0.790215766
147,370725,1521140,-0.525,-0.581,0.641,0.4,1.5,1.1,7.6,-8.6,-22.5,0.440809351,0.0948210089,0.414990692,-0.790215766
148,373961,1521140,-0.525,-0.573,0.641,0.5,1.4,1.2,7.7,-8.8,-22.2,0.440809351,0.094882046,0.414990692,-0.790185247
149,375302,1521140,-0.525,-0.577,0.641,0.6,1.2,1.2,7.7,-8.8,-22.2,0.440809351,0.094943083,0.414990692,-0.790185247
150,378306,1521140,-0.525,-0.573,0.641,0.7,1.1,1.2,7.7,-8.8,-22.2,0.440839869,0.0949736015,0.414990692,-0.790185247
151,379998,1521150,-0.525,-0.577,0.641,0.6,1.1,1.2,7.7,-8.8,-22.2,0.440839869,0.09500412,0.414990692,-0.790185247
152,384066,1521150,-0.521,-0.573,0.633,0.2,1.2,1.3,7.5,-8.2,-22.5,0.440870388,0.0950956755,0.414990692,-0.790154729
153,385670,1521150,-0.521,-0.569,0.636,0.2,1.2,1.3,7.5,-8.2,-22.5,0.440900906,0.0951567125,0.414990692,-0.79012421
154,388670,1521150,-0.525,-0.573,0.637,0.1,1.4,1.4,7.5,-8.2,-22.5,0.440900906,0.0951872311,0.414990692,-0.79012421
155,390379,1521160,-0.525,-0.569,0.641,0,1.5,1.5,7.5,-8.2,-22.5,0.440900906,0.0952177496,0.414990692,-0.790093692
156,392547,1521160,-0.525,-0.569,0.641,-0.1,1.5,1.6,6,-8.9,-22.7,0.440931425,0.0952787866,0.41502121,-0.790032655
157,395407,1521160,-0.525,-0.573,0.641,-0.2,1.5,1.5,6,-8.9,-22.7,0.440931425,0.0953093051,0.41502121,-0.790032655
158,398479,1521160,-0.525,-0.569,0.641,-0.1,1.5,1.4,6,-8.9,-22.7,0.440961943,0.0953093051,0.415051729,-0.790032655
159,400008,1521170,-0.529,-0.573,0.641,-0.2,1.5,1.4,6,-8.9,-22.7,0.440961943,0.0953703421,0.415082247,-0.790002136
160,403899,1521170,-0.525,-0.573,0.641,-0.2,1.4,1.4,6.2,-8.7,-22.1,0.440961943,0.0954008606,0.415082247,-0.790002136
161,406480,1521170,-0.525,-0.573,0.637,-0.3,1.4,1.4,6.2,-8.7,-22.1,0.440992462,0.0954618976,0.415112766,-0.789971618
162,408115,1521170,-0.525,-0.569,0.644,-0.4,1.2,1.4,6.2,-8.7,-22.1,0.440992462,0.0954924162,0.415112766,-0.789941099
163,411287,1521180,-0.525,-0.569,0.637,-0.5,1.2,1.3,6.2,-8.7,-22.1,0.44102298,0.0955229347,0.415143284,-0.789941099
164,412721,1521180,-0.525,-0.569,0.637,-0.6,1.1,1.2,5.9,-8.7,-22.2,0.44102298,0.0955229347,0.415143284,-0.789910581
165,415086,1521180,-0.529,-0.569,0.637,-0.7,1,1.1,5.9,-8.7,-22.2,0.44102298,0.0955534532,0.415173803,-0.789880062
166,417582,1521180,-0.521,-0.569,0.636,-0.7,0.9,1.1,5.9,-8.7,-22.2,0.441053499,0.0955839717,0.415204321,-0.789880062
167,420679,1521190,-0.529,-0.573,0.641,-0.6,0.8,1.1,5.9,-8.7,-22.2,0.441053499,0.0955839717,0.415204321,-0.789849544
168,423758,1521190,-0.525,-0.565,0.637,-0.5,0.8,1.1,3.4,-9,-22.2,0.441084017,0.0956144902,0.41523484,-0.789849544
169,425259,1521190,-0.525,-0.569,0.641,-0.5,0.9,1,3.4,-9,-22.2,0.441084017,0.0956450087,0.41523484,-0.789819025
170,428959,1521190,-0.525,-0.573,0.641,-0.3,0.9,1,3.4,-9,-22.2,0.441084017,0.0956450087,0.415265358,-0.789819025
171,430481,1521200,-0.525,-0.569,0.637,-0.2,0.9,0.9,3.4,-9,-22.2,0.441114536,0.0956755272,0.415265358,-0.789788507
172,433409,1521200,-0.525,-0.565,0.637,0,0.6,0.8,4,-8.8,-22.3,0.441175573,0.0957976012,0.41523484,-0.789757988
173,435097,1521200,-0.525,-0.565,0.637,0,0.6,0.8,4,-8.8,-22.3,0.441175573,0.0957976012,0.41523484,-0.789757988
174,438057,1521200,-0.529,-0.569,0.637,0.1,0.6,0.6,4,-8.8,-22.3,0.441175573,0.0957976012,0.41523484,-0.789757988
175,440172,1521210,-0.525,-0.569,0.637,0.1,0.6,0.6,4,-8.8,-22.3,0.441175573,0.0958586383,0.415265358,-0.78972747
176,443343,1521210,-0.525,-0.569,0.637,0.1,0.5,0.6,7.4,-9,-22.4,0.441175573,0.0958586383,0.415265358,-0.78972747
177,445274,1521210,-0.525,-0.565,0.637,0,0.4,0.6,7.4,-9,-22.4,0.441206091,0.0958891568,0.415265358,-0.78972747
178,447546,1521210,-0.525,-0.565,0.637,0.1,0.4,0.6,7.4,-9,-22.4,0.441206091,0.0958891568,0.415265358,-0.78972747
179,451110,1521220,-0.521,-0.573,0.64,0.2,0.3,0.6,7.4,-9,-22.4,0.441206091,0.0959196753,0.415265358,-0.78972747
180,453159,1521220,-0.521,-0.573,0.637,0.2,0.3,0.6,3.8,-8.4,-22.5,0.441206091,0.0959196753,0.415265358,-0.789696951
181,455553,1521220,-0.517,-0.569,0.636,0.2,0.2,0.6,3.8,-8.4,-22.5,0.441206091,0.0959501938,0.41523484,-0.789696951
182,458397,1521220,-0.517,-0.573,0.64,0.2,0.1,0.4,3.8,-8.4,-22.5,0.44123661,0.0959501938,0.41523484,-0.789696951
183,460067,1521230,-0.521,-0.573,0.637,0.4,0,0.5,3.8,-8.4,-22.5,0.44123661,0.0959501938,0.41523484,-0.789696951
184,462916,1521230,-0.521,-0.577,0.637,0.4,0,0.5,3.6,-8.1,-22.6,0.44123661,0.0959807123,0.41523484,-0.789696951
185,465924,1521230,-0.521,-0.573,0.637,0.3,0,0.5,3.6,-8.1,-22.6,0.441267129,0.0959807123,0.41523484,-0.789696951
186,468148,1521230,-0.521,-0.573,0.64,0.1,0,0.5,3.6,-8.1,-22.6,0.441267129,0.0959807123,0.415204321,-0.789696951
187,471168,1521240,-0.521,-0.573,0.633,0.1,0,0.5,3.6,-8.1,-22.6,0.441267129,0.0959807123,0.415204321,-0.789696951
188,472513,1521240,-0.521,-0.573,0.637,0.1,0,0.5,5.5,-8.1,-22.3,0.441267129,0.0959807123,0.415204321,-0.789696951
189,475562,1521240,-0.517,-0.569,0.636,0.2,0,0.5,5.5,-8.1,-22.3,0.441297647,0.0960112308,0.415204321,-0.789696951
190,477638,1521240,-0.517,-0.573,0.636,0.3,-0.1,0.5,5.5,-8.1,-22.3,0.441297647,0.0960112308,0.415204321,-0.789666433
191,480524,1521250,-0.513,-0.569,0.636,0.3,-0.3,0.6,5.5,-8.1,-22.3,0.441328166,0.0960112308,0.415173803,-0.789666433
192,483267,1521250,-0.517,-0.569,0.648,0.2,-0.4,0.8,4.8,-8.2,-22.2,0.441328166,0.0960112308,0.415143284,-0.789666433
193,486026,1521250,-0.517,-0.573,0.644,0.2,-0.4,0.8,4.8,-8.2,-22.2,0.441358684,0.0960112308,0.415143284,-0.789666433
194,487534,1521250,-0.521,-0.569,0.64,0.1,-0.4,0.8,4.8,-8.2,-22.2,0.441389203,0.0960112308,0.415143284,-0.789666433
195,490839,1521260,-0.521,-0.569,0.64,0.1,-0.2,0.8,4.8,-8.2,-22.2,0.441389203,0.0960112308,0.415143284,-0.789666433
196,493250,1521260,-0.521,-0.573,0.644,0.1,-0.2,0.8,6.6,-10.2,-22.6,0.441419721,0.0960112308,0.415112766,-0.789666433
197,495243,1521260,-0.517,-0.573,0.648,0.1,-0.2,0.8,6.6,-10.2,-22.6,0.441419721,0.0960112308,0.415112766,-0.789635914
198,497750,1521260,-0.521,-0.577,0.648,0.1,-0.2,0.8,6.6,-10.2,-22.6,0.44145024,0.0960417493,0.415112766,-0.789635914
199,501851,1521270,-0.521,-0.581,0.648,0.1,-0.3,0.8,6.6,-10.2,-22.6,0.44145024,0.0960417493,0.415112766,-0.789635914
200,504072,1521270,-0.513,-0.581,0.644,0,-0.2,0.8,6.7,-7.3,-22.4,0.441480758,0.0960417493,0.415112766,-0.789635914
201,506304,1521270,-0.521,-0.581,0.644,0,-0.2,0.9,6.7,-7.3,-22.4,0.441480758,0.0960417493,0.415082247,-0.789635914
202,508361,1521270,-0.521,-0.581,0.644,0,-0.1,0.8,6.7,-7.3,-22.4,0.441511277,0.0960417493,0.415082247,-0.789605396
203,510789,1521280,-0.517,-0.581,0.648,0,-0.2,0.7,6.7,-7.3,-22.4,0.441541795,0.0960417493,0.415082247,-0.789605396
204,513141,1521280,-0.521,-0.581,0.644,0.1,-0.3,0.6,6.3,-7.3,-22.6,0.441541795,0.0960417493,0.415082247,-0.789605396
205,515186,1521280,-0.525,-0.581,0.644,0.1,-0.6,0.5,6.3,-7.3,-22.6,0.441541795,0.0960417493,0.415082247,-0.789605396
206,517847,1521280,-0.525,-0.573,0.648,0.2,-0.6,0.3,6.3,-7.3,-22.6,0.441572314,0.0960417493,0.415051729,-0.789605396
207,520262,1521290,-0.525,-0.577,0.644,0.2,-0.6,0.1,6.3,-7.3,-22.6,0.441572314,0.0960417493,0.415051729,-0.789605396
208,523560,1521290,-0.525,-0.573,0.644,0.2,-0.4,0.1,6.7,-7.4,-22.2,0.441572314,0.0960417493,0.415051729,-0.789605396
209,526024,1521290,-0.521,-0.569,0.644,0.2,-0.5,0.1,6.7,-7.4,-22.2,0.441572314,0.0960112308,0.41502121,-0.789605396
210,528095,1521290,-0.521,-0.577,0.64,0.4,-0.5,0.1,6.7,-7.4,-22.2,0.441602832,0.0960112308,0.41502121,-0.789605396
211,530158,1521300,-0.521,-0.573,0.637,0.5,-0.5,0.1,6.7,-7.4,-22.2,0.441602832,0.0960112308,0.414990692,-0.789605396
212,532825,1521300,-0.521,-0.573,0.64,0.5,-0.6,-0.1,7.1,-7.1,-22.2,0.441602832,0.0960417493,0.414960173,-0.789635914
213,535357,1521300,-0.521,-0.573,0.637,0.5,-0.6,-0.1,7.1,-7.1,-22.2,0.441633351,0.0960112308,0.414929655,-0.789635914
214,537826,1521300,-0.521,-0.573,0.64,0.5,-0.7,-0.2,7.1,-7.1,-22.2,0.441633351,0.0960112308,0.414929655,-0.789635914
215,540314,1521310,-0.521,-0.573,0.64,0.5,-0.9,-0.2,7.1,-7.1,-22.2,0.441633351,0.0960112308,0.414899136,-0.789666433
216,543556,1521310,-0.521,-0.573,0.637,0.3,-0.8,-0.1,6.2,-8.6,-22.7,0.441633351,0.0959807123,0.414899136,-0.789666433
217,545954,1521310,-0.525,-0.569,0.641,0.2,-0.7,-0.2,6.2,-8.6,-22.7,0.441633351,0.0959807123,0.414868618,-0.789666433
218,549072,1521310,-0.525,-0.569,0.644,0.1,-0.5,-0.3,6.2,-8.6,-22.7,0.441633351,0.0959501938,0.414868618,-0.789666433
219,551724,1521320,-0.525,-0.565,0.64,0,-0.4,-0.3,6.2,-8.6,-22.7,0.441633351,0.0959501938,0.414868618,-0.789666433
220,553388,1521320,-0.529,-0.561,0.637,0,-0.4,-0.1,6.1,-9.6,-22.4,0.441633351,0.0959501938,0.414868618,-0.789666433
221,556388,1521320,-0.529,-0.569,0.629,0,-0.6,0,6.1,-9.6,-22.4,0.441633351,0.0959501938,0.414868618,-0.789666433
222,557834,1521320,-0.533,-0.573,0.625,0,-0.7,0.1,6.1,-9.6,-22.4,0.441633351,0.0959196753,0.414868618,-0.789666433
223,560176,1521330,-0.529,-0.577,0.621,0,-0.9,0.1,6.1,-9.6,-22.4,0.441663869,0.0959196753,0.414838099,-0.789666433
224,562675,1521330,-0.533,-0.577,0.625,0,-1,0.1,6.2,-10.7,-22.9,0.441663869,0.0958891568,0.414838099,-0.789666433
225,565676,1521330,-0.533,-0.581,0.633,0.1,-1.2,0.1,6.2,-10.7,-22.9,0.441694388,0.0958891568,0.414807581,-0.789666433
226,567662,1521330,-0.537,-0.584,0.629,0.3,-1.5,0.1,6.2,-10.7,-22.9,0.441694388,0.0958586383,0.414807581,-0.789696951
227,570514,1521340,-0.533,-0.588,0.629,0.5,-1.8,0,6.2,-10.7,-22.9,0.441724906,0.0957976012,0.414777062,-0.789696951
228,572810,1521340,-0.537,-0.584,0.637,0.8,-2.1,-0.2,6,-11.9,-22.6,0.441724906,0.0957976012,0.414746544,-0.789696951
229,575995,1521340,-0.529,-0.581,0.637,1.3,-2.5,-0.4,6,-11.9,-22.6,0.441755425,0.0957670827,0.414685507,-0.78972747
230,577849,1521340,-0.541,-0.576,0.633,1.6,-3,-0.6,6,-11.9,-22.6,0.441755425,0.0957060457,0.41462447,-0.789757988
231,580152,1521350,-0.541,-0.576,0.629,2,-3.4,-0.6,6,-11.9,-22.6,0.441755425,0.0956755272,0.414532914,-0.789788507
232,582866,1521350,-0.545,-0.572,0.641,2.7,-4.5,-0.5,5.6,-11.6,-22.7,0.441816462,0.0957365642,0.414593951,-0.789757988
233,586046,1521350,-0.541,-0.569,0.641,2.7,-4.5,-0.5,5.6,-11.6,-22.7,0.441816462,0.0956755272,0.414502396,-0.789788507
234,588328,1521350,-0.537,-0.561,0.633,3.1,-5.3,-0.6,5.6,-11.6,-22.7,0.44184698,0.0956144902,0.414380322,-0.789849544
235,591334,1521360,-0.529,-0.565,0.629,3.2,-6.2,-0.7,5.6,-11.6,-22.7,0.441877499,0.0955229347,0.414288766,-0.789880062
236,593602,1521360,-0.529,-0.561,0.637,3.2,-6.9,-0.7,6.2,-7.1,-21.2,0.441938536,0.0954313791,0.414166692,-0.789941099
237,595343,1521360,-0.517,-0.569,0.64,3.2,-7.3,-0.8,6.2,-7.1,-21.2,0.441999573,0.0953093051,0.4140141,-0.790002136
238,597507,1521360,-0.521,-0.569,0.644,3.4,-7.4,-0.9,6.2,-7.1,-21.2,0.442030091,0.0952177496,0.413892026,-0.790032655
239,601142,1521370,-0.513,-0.569,0.644,3.6,-7.3,-1.1,6.2,-7.1,-21.2,0.44206061,0.095126194,0.413769951,-0.790093692
240,603248,1521370,-0.509,-0.569,0.652,3.8,-7,-1.3,6,-9.5,-23.7,0.442091128,0.0950346385,0.413647877,-0.790185247
241,605515,1521370,-0.513,-0.565,0.652,4,-6.7,-1.5,6,-9.5,-23.7,0.442121647,0.094943083,0.413495285,-0.790246284
242,607339,1521370,-0.505,-0.565,0.656,4.2,-6.4,-1.8,6,-9.5,-23.7,0.442152165,0.0948210089,0.413373211,-0.790307321
243,610902,1521380,-0.505,-0.565,0.659,4,-6,-1.8,6,-9.5,-23.7,0.442152165,0.0947599719,0.413251137,-0.790368358
244,612671,1521380,-0.513,-0.561,0.664,3.6,-5.5,-1.8,6.1,-8.4,-24.1,0.442182684,0.0946989349,0.413129063,-0.790429395
245,615851,1521380,-0.513,-0.565,0.66,3,-5,-1.5,6.1,-8.4,-24.1,0.442182684,0.0946073794,0.413037507,-0.790490432
246,617893,1521380,-0.505,-0.569,0.66,2.3,-4.3,-1.1,6.1,-8.4,-24.1,0.442182684,0.0945463424,0.412945952,-0.790520951
247,620169,1521390,-0.501,-0.573,0.652,1.8,-3.7,-0.9,6.1,-8.4,-24.1,0.442213202,0.0945158238,0.412884915,-0.790551469
248,622523,1521390,-0.505,-0.581,0.652,1.5,-3.3,-0.7,6.1,-6.5,-23.8,0.442213202,0.0944547868,0.412823878,-0.790581988
249,625114,1521390,-0.513,-0.581,0.652,1.4,-3.1,-0.8,6.1,-6.5,-23.8,0.442243721,0.0943937498,0.412793359,-0.790612506
250,628502,1521390,-0.517,-0.577,0.656,1.3,-2.9,-0.9,6.1,-6.5,-23.8,0.442243721,0.0943327128,0.412732322,-0.790643025
251,630914,1521400,-0.544,-0.561,0.672,1.2,-2.8,-1.1,6.1,-6.5,-23.8,0.442243721,0.0943021943,0.412671285,-0.790673544
252,632996,1521400,-0.513,-0.569,0.648,0.6,-2,-1.9,6.4,-7.2,-24,0.442243721,0.0942716758,0.41257973,-0.790734581
253,635154,1521400,-0.513,-0.573,0.652,0.6,-2,-1.9,6.4,-7.2,-24,0.442243721,0.0942106388,0.412549211,-0.790765099
254,638168,1521400,-0.501,-0.581,0.648,0.1,-1.7,-2.5,6.4,-7.2,-24,0.442213202,0.0941801202,0.412518693,-0.790795618
255,640105,1521410,-0.497,-0.589,0.648,0,-1.5,-2.8,6.4,-7.2,-24,0.442182684,0.0941190832,0.412518693,-0.790826136
256,643902,1521410,-0.505,-0.585,0.663,0.7,-1.5,-2.3,5.9,-8.7,-22.1,0.442152165,0.0940580462,0.412488174,-0.790856655
257,645999,1521410,-0.501,-0.585,0.652,1.8,-1.5,-1.5,5.9,-8.7,-22.1,0.442121647,0.0940580462,0.412457656,-0.790887173
258,647651,1521410,-0.501,-0.581,0.648,2.6,-1.4,-1,5.9,-8.7,-22.1,0.442121647,0.0940275277,0.412396619,-0.790917692
259,650376,1521420,-0.505,-0.581,0.648,2.8,-1,-1,5.9,-8.7,-22.1,0.442091128,0.0940275277,0.412335582,-0.79094821
260,653624,1521420,-0.513,-0.577,0.652,2.5,-0.6,-1.4,6.3,-8.4,-22.9,0.442091128,0.0940275277,0.412305063,-0.791009247
261,655499,1521420,-0.505,-0.569,0.644,2,-0.2,-1.8,6.3,-8.4,-22.9,0.442030091,0.0940275277,0.412274545,-0.791039766
262,657542,1521420,-0.509,-0.569,0.652,1.8,0,-2,6.3,-8.4,-22.9,0.441999573,0.0940275277,0.412244026,-0.791070284
263,661445,1521430,-0.509,-0.569,0.652,1.9,0,-1.7,6.3,-8.4,-22.9,0.441969054,0.0940580462,0.412213507,-0.791100803
264,663630,1521430,-0.513,-0.573,0.664,2.2,0.2,-1.2,5.9,-8.6,-22.9,0.441938536,0.0940580462,0.41215247,-0.791131321
265,665208,1521430,-0.505,-0.569,0.66,2.5,0.3,-0.9,5.9,-8.6,-22.9,0.441877499,0.0940885647,0.412121952,-0.79116184
266,667785,1521430,-0.505,-0.565,0.656,2.7,0.5,-0.8,5.9,-8.6,-22.9,0.441877499,0.0941190832,0.412091433,-0.791192358
267,670303,1521440,-0.501,-0.573,0.652,2.5,0.8,-1,5.9,-8.6,-22.9,0.441877499,0.0941496017,0.412060915,-0.791222877
268,674234,1521440,-0.501,-0.577,0.648,2.2,1,-1.5,6.3,-8.7,-21.2,0.441816462,0.0941496017,0.412030396,-0.791253395
269,676432,1521440,-0.497,-0.577,0.648,1.9,1.2,-2.1,6.3,-8.7,-21.2,0.441755425,0.0941801202,0.411999878,-0.791314432
270,678695,1521440,-0.497,-0.577,0.64,1.8,1.4,-2.2,6.3,-8.7,-21.2,0.441724906,0.0942106388,0.411999878,-0.791344951
271,681147,1521450,-0.493,-0.581,0.64,1.9,1.6,-2.1,6.3,-8.7,-21.2,0.441663869,0.0942411573,0.411999878,-0.791375469
272,683091,1521450,-0.505,-0.585,0.64,1.9,2.3,-1.9,6,-8.6,-21.7,0.441541795,0.0941190832,0.411969359,-0.791467025
273,685122,1521450,-0.505,-0.585,0.64,1.9,2.3,-1.9,6,-8.6,-21.7,0.441480758,0.0941801202,0.411969359,-0.791497543
274,688767,1521450,-0.505,-0.581,0.644,2,2.6,-1.8,6,-8.6,-21.7,0.44145024,0.0942106388,0.411938841,-0.791528062
275,690295,1521460,-0.509,-0.585,0.632,2.1,2.7,-1.9,6,-8.6,-21.7,0.441358684,0.0942716758,0.411938841,-0.79155858
276,692666,1521460,-0.513,-0.589,0.64,2.3,3,-2,6.2,-9.3,-24,0.441297647,0.0943327128,0.411938841,-0.791589099
277,695071,1521460,-0.505,-0.589,0.644,2.5,3.4,-2.2,6.2,-9.3,-24,0.44123661,0.0943937498,0.411938841,-0.791619617
278,699187,1521460,-0.509,-0.585,0.644,2.7,3.7,-2.3,6.2,-9.3,-24,0.441145054,0.0944547868,0.411938841,-0.791650136
279,701384,1521470,-0.509,-0.585,0.644,2.9,3.7,-2.4,6.2,-9.3,-24,0.441053499,0.0945463424,0.411908322,-0.791711173
280,703168,1521470,-0.505,-0.589,0.64,3.2,3.6,-2.7,6.1,-8.8,-20.8,0.440992462,0.0946073794,0.411908322,-0.791741691
281,704984,1521470,-0.501,-0.589,0.648,3.5,3.4,-2.9,6.1,-8.8,-20.8,0.440900906,0.0946684164,0.411877804,-0.791802728
282,708438,1521470,-0.493,-0.585,0.648,3.8,3.3,-3,6.1,-8.8,-20.8,0.440809351,0.0947294534,0.411847285,-0.791863765
283,709968,1521480,-0.493,-0.585,0.64,4,3.2,-3.1,6.1,-8.8,-20.8,0.440717795,0.0948210089,0.411816767,-0.791924802
284,714244,1521480,-0.497,-0.585,0.636,4.2,3.3,-3.3,6,-8.6,-20.7,0.44062624,0.094882046,0.411786248,-0.791985839
285,716729,1521480,-0.493,-0.581,0.636,4.2,3.3,-3.4,6,-8.6,-20.7,0.440504166,0.094943083,0.41175573,-0.792046876
286,718957,1521480,-0.493,-0.581,0.644,4.2,3.4,-3.5,6,-8.6,-20.7,0.44041261,0.09500412,0.411725211,-0.792107913
287,721000,1521490,-0.497,-0.585,0.632,4.3,3.5,-3.5,6,-8.6,-20.7,0.440321055,0.0950956755,0.411694693,-0.79216895
288,722562,1521490,-0.497,-0.585,0.64,4.3,3.6,-3.5,6.4,-8.9,-22,0.440198981,0.0951567125,0.411664174,-0.792260506
289,725684,1521490,-0.497,-0.577,0.636,4.3,3.8,-3.6,6.4,-8.9,-22,0.440107425,0.0952482681,0.411633656,-0.792321543
290,728162,1521490,-0.497,-0.577,0.632,4.2,4,-3.7,6.4,-8.9,-22,0.439985351,0.0953093051,0.411603137,-0.79238258
291,730563,1521500,-0.501,-0.577,0.636,4.1,4.2,-3.8,6.4,-8.9,-22,0.439863277,0.0954008606,0.411572619,-0.792443617
292,732607,1521500,-0.501,-0.577,0.64,3.8,4.4,-3.8,6.3,-9,-21.6,0.439680166,0.0953093051,0.411603137,-0.792535173
293,735500,1521500,-0.497,-0.577,0.648,3.8,4.4,-3.8,6.3,-9,-21.6,0.43958861,0.0954008606,0.411603137,-0.79259621
294,737613,1521500,-0.501,-0.577,0.64,3.7,4.4,-3.6,6.3,-9,-21.6,0.439466536,0.0954924162,0.411572619,-0.792657247
295,740131,1521510,-0.497,-0.581,0.64,3.6,4.5,-3.5,6.3,-9,-21.6,0.439374981,0.0955839717,0.411572619,-0.792718284
296,742590,1521510,-0.501,-0.581,0.64,3.5,4.6,-3.5,6,-9.2,-23.7,0.439252907,0.0956450087,0.4115421,-0.792779321
297,745907,1521510,-0.501,-0.577,0.632,3.3,4.7,-3.5,6,-9.2,-23.7,0.439130833,0.0957365642,0.4115421,-0.792809839
298,748060,1521510,-0.505,-0.581,0.632,3.2,4.7,-3.6,6,-9.2,-23.7,0.439039277,0.0957976012,0.4115421,-0.792870876
299,751042,1521520,-0.505,-0.581,0.64,3.2,4.7,-3.8,6,-9.2,-23.7,0.438917203,0.0958891568,0.4115421,-0.792931913
300,752820,1521520,-0.501,-0.577,0.636,3.2,4.7,-3.8,6.1,-8.6,-22.7,0.438795129,0.0959807123,0.4115421,-0.79299295
301,757264,1521520,-0.501,-0.577,0.64,3,4.7,-3.9,6.1,-8.6,-22.7,0.438673055,0.0960417493,0.4115421,-0.793053987
302,757840,1521520,-0.509,-0.577,0.64,3,4.7,-3.9,6.1,-8.6,-22.7,0.438550981,0.0961333048,0.4115421,-0.793084506
303,761553,1521530,-0.505,-0.573,0.64,3.1,4.7,-3.9,6.1,-8.6,-22.7,0.438428907,0.0961943419,0.4115421,-0.793145543
304,763214,1521530,-0.501,-0.573,0.636,3.1,4.6,-3.9,6.7,-8.9,-23.7,0.438337352,0.0962858974,0.4115421,-0.79320658
305,765517,1521530,-0.509,-0.573,0.632,3.2,4.6,-4.1,6.7,-8.9,-23.7,0.438215278,0.0963469344,0.4115421,-0.793267617
306,768424,1521530,-0.505,-0.569,0.632,3.1,4.6,-4.3,6.7,-8.9,-23.7,0.438093204,0.0964384899,0.4115421,-0.793328654
307,770786,1521540,-0.501,-0.573,0.636,3.1,4.6,-4.3,6.7,-8.9,-23.7,0.437971129,0.096499527,0.4115421,-0.793389691
308,773371,1521540,-0.505,-0.569,0.644,3.2,4.6,-4.3,6.3,-8.7,-23.8,0.437818537,0.096560564,0.4115421,-0.793450728
309,776470,1521540,-0.509,-0.565,0.648,3.2,4.6,-4.3,6.3,-8.7,-23.8,0.437696463,0.0966521195,0.4115421,-0.793511765
310,778496,1521540,-0.505,-0.569,0.652,3.2,4.8,-4.2,6.3,-8.7,-23.8,0.437574389,0.0967131565,0.4115421,-0.793572802
311,780147,1521550,-0.505,-0.565,0.656,3.2,5,-4.2,6.3,-8.7,-23.8,0.437452315,0.0967741935,0.4115421,-0.793633839
312,782581,1521550,-0.509,-0.561,0.656,3,5.3,-4.3,6.2,-8.8,-23.6,0.437330241,0.0967741935,0.411420026,-0.793755913
313,786188,1521550,-0.505,-0.565,0.663,3,5.3,-4.3,6.2,-8.8,-23.6,0.437208167,0.0968962676,0.411420026,-0.79381695
314,788613,1521550,-0.501,-0.562,0.663,3,5.3,-4.4,6.2,-8.8,-23.6,0.437086093,0.0969878231,0.411450545,-0.793877987
315,790447,1521560,-0.501,-0.562,0.659,2.8,5.2,-4.5,6.2,-8.8,-23.6,0.436964019,0.0970488601,0.411450545,-0.793908506
316,792484,1521560,-0.505,-0.569,0.663,2.8,5.2,-4.6,6.1,-9.1,-22.4,0.436811426,0.0971404157,0.411450545,-0.793939024
317,795760,1521560,-0.501,-0.562,0.667,2.6,5.3,-4.7,6.1,-9.1,-22.4,0.436689352,0.0972014527,0.411481063,-0.79403058
318,797904,1521560,-0.501,-0.566,0.659,2.5,5.5,-4.8,6.1,-9.1,-22.4,0.43653676,0.0972624897,0.411511582,-0.794091617
319,800050,1521570,-0.505,-0.565,0.659,2.4,5.8,-4.8,6.1,-9.1,-22.4,0.436384167,0.0973540452,0.411511582,-0.794152654
320,803704,1521570,-0.509,-0.569,0.66,2.5,6.1,-4.9,6.6,-8.8,-22.3,0.436262093,0.0974456008,0.4115421,-0.794213691
321,806034,1521570,-0.509,-0.573,0.66,2.5,6.4,-5,6.6,-8.8,-22.3,0.4361095,0.0975371563,0.411572619,-0.794274728
322,808219,1521570,-0.509,-0.573,0.664,2.6,6.7,-5.2,6.6,-8.8,-22.3,0.435956908,0.0976287118,0.411603137,-0.794335765
323,810531,1521580,-0.509,-0.577,0.664,2.9,6.8,-5.4,6.6,-8.8,-22.3,0.435773797,0.0977202673,0.411633656,-0.794396802
324,813525,1521580,-0.513,-0.577,0.668,3.3,6.9,-5.7,6.6,-8.7,-22.4,0.435621204,0.0978423414,0.411633656,-0.794457839
325,815860,1521580,-0.505,-0.581,0.663,3.7,6.9,-5.9,6.6,-8.7,-22.4,0.435438093,0.0979338969,0.411664174,-0.794518876
326,817871,1521580,-0.509,-0.581,0.671,4,7.1,-6,6.6,-8.7,-22.4,0.435254982,0.0980559709,0.411664174,-0.794610431
327,820028,1521590,-0.509,-0.581,0.66,4.3,7.3,-6.2,6.6,-8.7,-22.4,0.435071871,0.0981475265,0.411664174,-0.794701987
328,823171,1521590,-0.509,-0.581,0.675,4.6,7.5,-6.3,6.8,-8.6,-22.3,0.43488876,0.098239082,0.411694693,-0.794793542
329,825138,1521590,-0.509,-0.581,0.671,5,7.7,-6.5,6.8,-8.6,-22.3,0.434705649,0.0983916746,0.411694693,-0.794885098
330,827767,1521590,-0.509,-0.573,0.671,5.5,7.8,-6.7,6.8,-8.6,-22.3,0.434492019,0.0985137486,0.411664174,-0.794976653
331,830843,1521600,-0.505,-0.577,0.667,6,8,-6.8,6.8,-8.6,-22.3,0.43427839,0.0986663411,0.411664174,-0.795068209
332,833118,1521600,-0.509,-0.573,0.671,6.7,8.3,-7,6.6,-8.8,-22.5,0.43406476,0.0986968596,0.411481063,-0.79525132
333,835374,1521600,-0.509,-0.573,0.671,6.7,8.3,-7,6.6,-8.8,-22.5,0.433881649,0.0988494522,0.411481063,-0.795373394
334,837709,1521600,-0.509,-0.565,0.667,6.9,8.6,-7.3,6.6,-8.8,-22.5,0.43366802,0.0990020447,0.411450545,-0.795495468
335,840414,1521610,-0.513,-0.565,0.668,7.1,8.8,-7.5,6.6,-8.8,-22.5,0.433423872,0.0991546373,0.411420026,-0.795587024
336,842930,1521610,-0.513,-0.565,0.664,7.4,9,-7.5,4.9,-8.9,-22.4,0.433210242,0.0993072298,0.411389508,-0.795709098
337,845252,1521610,-0.509,-0.561,0.663,7.5,9.2,-7.3,4.9,-8.9,-22.4,0.432966094,0.0994903409,0.411358989,-0.795831172
338,847604,1521610,-0.513,-0.553,0.66,7.5,9.3,-7.3,4.9,-8.9,-22.4,0.432752464,0.0996429334,0.411328471,-0.795953246
339,850469,1521620,-0.509,-0.557,0.656,7.5,9.4,-7.5,4.9,-8.9,-22.4,0.432508316,0.0998260445,0.411328471,-0.79607532
340,852745,1521620,-0.509,-0.554,0.652,7.4,9.5,-7.8,8.2,-8.9,-22.3,0.432294687,0.099978637,0.411297952,-0.796197394
341,856426,1521620,-0.505,-0.554,0.648,7.3,9.6,-8,8.2,-8.9,-22.3,0.432050539,0.100161748,0.411267434,-0.796319468
342,858750,1521620,-0.509,-0.554,0.644,7.3,9.7,-8.3,8.2,-8.9,-22.3,0.431775872,0.100314341,0.411267434,-0.796441542
343,861040,1521630,-0.513,-0.553,0.644,7.4,9.8,-8.5,8.2,-8.9,-22.3,0.431531724,0.100466933,0.411236915,-0.796563616
344,863008,1521630,-0.517,-0.553,0.64,7.4,9.8,-8.8,8.8,-8.6,-22.1,0.431287576,0.100650044,0.411236915,-0.79668569
345,865406,1521630,-0.521,-0.553,0.64,7.5,9.7,-9.2,8.8,-8.6,-22.1,0.431012909,0.100802637,0.411206397,-0.796807764
346,869306,1521630,-0.521,-0.557,0.644,7.6,9.6,-9.6,8.8,-8.6,-22.1,0.430738243,0.100955229,0.411175878,-0.796960356
347,870932,1521640,-0.525,-0.561,0.644,7.5,9.4,-10,8.8,-8.6,-22.1,0.430463576,0.101107822,0.411175878,-0.797112949
348,873306,1521640,-0.525,-0.557,0.64,7.3,9.2,-10.3,8.5,-8.6,-22.2,0.430158391,0.101229896,0.41114536,-0.797235023
349,875132,1521640,-0.521,-0.557,0.636,7,8.9,-10.8,8.5,-8.6,-22.2,0.429914243,0.10135197,0.411114841,-0.797387616
350,878339,1521640,-0.517,-0.549,0.636,6.7,8.7,-11.3,8.5,-8.6,-22.2,0.429609058,0.101474044,0.411114841,-0.797540208
351,880523,1521650,-0.517,-0.549,0.629,6.2,8.5,-11.7,8.5,-8.6,-22.2,0.429303873,0.1015656,0.411114841,-0.797692801
352,882734,1521650,-0.524,-0.545,0.637,5.4,8.5,-12.4,8.8,-8.8,-22.1,0.429059725,0.101748711,0.411084323,-0.797814875
353,885119,1521650,-0.52,-0.542,0.632,5.4,8.5,-12.4,8.8,-8.8,-22.1,0.42875454,0.101840266,0.411084323,-0.797967467
354,888100,1521650,-0.525,-0.549,0.625,5.1,8.7,-12.8,8.8,-8.8,-22.1,0.428418836,0.101931822,0.411114841,-0.79812006
355,890206,1521660,-0.525,-0.553,0.633,4.6,8.9,-13.1,8.8,-8.8,-22.1,0.428113651,0.101992859,0.41114536,-0.798272652
356,893080,1521660,-0.533,-0.569,0.641,4.2,9.1,-13.5,6.8,-9,-22.3,0.427777947,0.102084414,0.411206397,-0.798394726
357,895499,1521660,-0.533,-0.565,0.641,3.8,9.3,-13.8,6.8,-9,-22.3,0.427442244,0.102145451,0.411236915,-0.798547319
358,897674,1521660,-0.533,-0.565,0.641,3.6,9.5,-14,6.8,-9,-22.3,0.42710654,0.102237007,0.411297952,-0.798699911
359,900969,1521670,-0.529,-0.573,0.645,3.4,9.7,-14.1,6.8,-9,-22.3,0.426770837,0.102298044,0.411358989,-0.798821986
360,902687,1521670,-0.533,-0.569,0.637,3.1,9.7,-14.4,7,-9.5,-21.9,0.426435133,0.102359081,0.411420026,-0.798974578
361,905837,1521670,-0.533,-0.577,0.621,2.7,9.7,-14.7,7,-9.5,-21.9,0.426068911,0.102420118,0.411511582,-0.799096652
362,907977,1521670,-0.537,-0.573,0.613,2.4,9.5,-15,7,-9.5,-21.9,0.425733207,0.102481155,0.411572619,-0.799249245
363,910281,1521680,-0.537,-0.577,0.614,2.1,9.1,-15.3,7,-9.5,-21.9,0.425366985,0.102542192,0.411664174,-0.799401837
364,912763,1521680,-0.537,-0.577,0.614,2,8.7,-15.8,6.8,-9.2,-22.2,0.425000763,0.10257271,0.41175573,-0.799523911
365,915274,1521680,-0.533,-0.577,0.613,2.2,8.5,-16.3,6.8,-9.2,-22.2,0.424634541,0.10257271,0.411816767,-0.799676504
366,918413,1521680,-0.541,-0.58,0.621,2.6,8.6,-16.6,6.8,-9.2,-22.2,0.424268319,0.102603229,0.411877804,-0.799859615
367,920074,1521690,-0.537,-0.577,0.621,3,8.9,-17.1,6.8,-9.2,-22.2,0.423871578,0.102633747,0.411969359,-0.800012207
368,922868,1521690,-0.533,-0.569,0.625,3.3,9.2,-17.3,5.6,-9.1,-22,0.423474837,0.102633747,0.412030396,-0.800195318
369,926115,1521690,-0.533,-0.573,0.625,3.2,9.5,-17.5,5.6,-9.1,-22,0.423078097,0.102725303,0.412091433,-0.800347911
370,928152,1521690,-0.533,-0.569,0.629,3,9.7,-17.5,5.6,-9.1,-22,0.422681356,0.102755821,0.412182989,-0.800531022
371,930429,1521700,-0.537,-0.58,0.617,2.7,9.7,-17.7,5.6,-9.1,-22,0.422284616,0.10278634,0.412244026,-0.800683615
372,932759,1521700,-0.533,-0.584,0.617,2.2,9.8,-17.9,5.6,-9.1,-22,0.421887875,0.102969451,0.412427137,-0.80077517
373,935221,1521700,-0.529,-0.585,0.613,2.2,9.8,-17.9,5.6,-9.1,-22,0.421491134,0.102999969,0.412518693,-0.800927763
374,937719,1521700,-0.529,-0.589,0.613,2.2,10,-18.1,5.6,-9.1,-22,0.421094394,0.103030488,0.41257973,-0.801110874
375,940059,1521710,-0.537,-0.6,0.617,2.2,10.1,-18.2,5.6,-9.1,-22,0.420667135,0.103061007,0.412701804,-0.801263466
376,943850,1521710,-0.545,-0.6,0.618,2.3,10.1,-18.2,8.8,-9.9,-22.2,0.420239875,0.103122044,0.412823878,-0.801446577
377,945165,1521710,-0.545,-0.604,0.622,2.6,10.1,-17.9,8.8,-9.9,-22.2,0.419843135,0.103122044,0.412884915,-0.80159917
378,949250,1521710,-0.553,-0.6,0.618,2.7,10.3,-17.6,8.8,-9.9,-22.2,0.419415876,0.103213599,0.41297647,-0.801751762
379,951346,1521720,-0.553,-0.596,0.606,3,10.6,-17.2,8.8,-9.9,-22.2,0.419019135,0.103244118,0.413068026,-0.801934874
380,953474,1521720,-0.557,-0.604,0.61,3.3,10.8,-16.9,8.8,-9.9,-22.2,0.418622394,0.103335673,0.413159581,-0.802087466
381,956673,1521720,-0.553,-0.6,0.598,3.7,10.8,-16.8,8.8,-9.9,-22.2,0.418225654,0.10339671,0.413220618,-0.802240059
382,957503,1521720,-0.553,-0.6,0.606,4.1,10.8,-16.8,8.8,-9.9,-22.2,0.417828913,0.103457747,0.413281655,-0.80242317
383,961320,1521730,-0.557,-0.608,0.606,4.5,10.8,-16.9,8.8,-9.9,-22.2,0.417401654,0.103549303,0.413342692,-0.802575762
384,963645,1521730,-0.557,-0.604,0.618,5.1,10.8,-17.1,8.8,-9.9,-22.2,0.417004913,0.10361034,0.413403729,-0.802758873
385,965913,1521730,-0.553,-0.604,0.614,5.6,10.9,-17.2,8.8,-9.9,-22.2,0.416577654,0.103732414,0.413434248,-0.802941984
386,967776,1521730,-0.557,-0.611,0.622,6.2,11,-17.3,8.8,-9.9,-22.2,0.416180914,0.103823969,0.413464766,-0.803125095
387,971017,1521740,-0.557,-0.615,0.622,6.8,11,-17.3,8.8,-9.9,-22.2,0.415753655,0.103915525,0.413464766,-0.803338725
388,973398,1521740,-0.553,-0.615,0.626,7.3,10.9,-17.5,8.8,-9.9,-22.2,0.415326395,0.10400708,0.413495285,-0.803521836
389,975820,1521740,-0.553,-0.612,0.634,7.8,10.7,-17.7,8.8,-9.9,-22.2,0.414899136,0.104098636,0.413495285,-0.803735466
390,977802,1521740,-0.549,-0.619,0.637,8.3,10.5,-17.8,8.8,-9.9,-22.2,0.414471877,0.10422071,0.413464766,-0.803949095
391,980211,1521750,-0.553,-0.615,0.645,8.8,10.5,-17.9,8.8,-9.9,-22.2,0.414044618,0.104312265,0.413464766,-0.804162725
392,982828,1521750,-0.549,-0.623,0.657,9.8,10.4,-17.9,8.8,-9.9,-22.2,0.413617359,0.104495376,0.413556322,-0.804315317
393,986276,1521750,-0.549,-0.623,0.657,9.8,10.4,-17.9,8.8,-9.9,-22.2,0.4131901,0.104586932,0.413525803,-0.804559465
394,988575,1521750,-0.545,-0.62,0.661,10.1,10.3,-18,8.8,-9.9,-22.2,0.412732322,0.104739525,0.413464766,-0.804773095
395,990132,1521760,-0.549,-0.616,0.669,10.3,10.2,-18,8.8,-9.9,-22.2,0.412305063,0.10483108,0.413434248,-0.805017243
396,993545,1521760,-0.549,-0.619,0.676,10.5,10.2,-18.1,8.3,-10.2,-22,0.411877804,0.104953154,0.413373211,-0.805230873
397,995113,1521760,-0.541,-0.616,0.68,10.5,10.2,-18.1,8.3,-10.2,-22,0.411450545,0.105075228,0.413312174,-0.805475021
398,998315,1521760,-0.541,-0.62,0.684,10.5,10.3,-18.1,8.3,-10.2,-22,0.410992767,0.105166784,0.413251137,-0.805719169
399,1000335,1521770,-0.537,-0.616,0.688,10.4,10.3,-17.9,8.3,-10.2,-22,0.410565508,0.105288858,0.413220618,-0.805932798
400,1004245,1521770,-0.537,-0.612,0.688,10.5,10.3,-17.8,8.4,-7.9,-22.1,0.410138249,0.105410932,0.413159581,-0.806176946
401,1006572,1521770,-0.545,-0.616,0.7,10.7,10.4,-17.8,8.4,-7.9,-22.1,0.40971099,0.105533006,0.413098544,-0.806421094
402,1008874,1521770,-0.545,-0.616,0.708,10.9,10.6,-17.8,8.4,-7.9,-22.1,0.409283731,0.10565508,0.413068026,-0.806634724
403,1011004,1521780,-0.545,-0.619,0.704,11.1,10.7,-17.8,8.4,-7.9,-22.1,0.408825953,0.105777154,0.413006989,-0.806878872
404,1013076,1521780,-0.545,-0.623,0.708,11.5,10.8,-17.7,8.7,-8,-21.9,0.408398694,0.105899228,0.412915433,-0.80712302
405,1015169,1521780,-0.541,-0.627,0.704,11.9,10.9,-17.7,8.7,-8,-21.9,0.407940916,0.10605182,0.412854396,-0.807367168
406,1017591,1521780,-0.541,-0.631,0.7,12.5,11,-17.7,8.7,-8,-21.9,0.407513657,0.106204413,0.412762841,-0.807611316
407,1020601,1521790,-0.537,-0.635,0.704,13.3,11,-17.5,8.7,-8,-21.9,0.407086398,0.106357006,0.412671285,-0.807855464
408,1022928,1521790,-0.525,-0.636,0.703,14.3,10.8,-17.5,8.8,-8.3,-21.7,0.40662862,0.106509598,0.412549211,-0.808099612
409,1025137,1521790,-0.526,-0.636,0.699,15.3,10.8,-17.6,8.8,-8.3,-21.7,0.406201361,0.106692709,0.412427137,-0.808374279
410,1027925,1521790,-0.518,-0.632,0.699,16.4,10.7,-17.9,8.8,-8.3,-21.7,0.405743583,0.106845302,0.412274545,-0.808648946
411,1030084,1521800,-0.517,-0.628,0.699,17.4,10.8,-18.2,8.8,-8.3,-21.7,0.405285806,0.107028413,0.412091433,-0.808954131
412,1034151,1521800,-0.513,-0.62,0.695,18.9,11.6,-18.6,8.8,-8.3,-21.7,0.404766991,0.107119968,0.411847285,-0.809320353
413,1036318,1521800,-0.521,-0.616,0.695,18.9,11.6,-18.6,8.8,-8.3,-21.7,0.404309214,0.107333598,0.411664174,-0.809625538
414,1037950,1521800,-0.509,-0.605,0.691,19.4,12.1,-18.7,8.8,-8.3,-21.7,0.403820917,0.107516709,0.411481063,-0.809930723
415,1040277,1521810,-0.513,-0.601,0.687,19.9,12.7,-18.9,8.8,-8.3,-21.7,0.403332621,0.107791375,0.411267434,-0.810266427
416,1043116,1521810,-0.505,-0.589,0.679,20.3,13.2,-18.9,8.8,-10.9,-21.7,0.402813807,0.108005005,0.411084323,-0.810571612
417,1044974,1521810,-0.513,-0.585,0.675,20.6,13.6,-18.8,8.8,-10.9,-21.7,0.40232551,0.108279672,0.410870693,-0.810907315
418,1049326,1521810,-0.505,-0.577,0.675,20.9,14,-18.6,8.8,-10.9,-21.7,0.401806696,0.108554338,0.410626545,-0.8112125
419,1051478,1521820,-0.501,-0.569,0.671,21.1,14.4,-18.4,8.8,-10.9,-21.7,0.401287881,0.108829005,0.410473952,-0.811517685
420,1053728,1521820,-0.497,-0.55,0.667,21.1,14.9,-18.4,8.3,-11.1,-21.4,0.400799585,0.109103671,0.410260323,-0.811853389
421,1055934,1521820,-0.497,-0.554,0.663,21,15.4,-18.3,8.3,-11.1,-21.4,0.40028077,0.109408856,0.410077212,-0.812158574
422,1058174,1521820,-0.501,-0.55,0.663,20.8,16,-18.3,8.3,-11.1,-21.4,0.399761956,0.109714042,0.409894101,-0.812463759
423,1060408,1521830,-0.501,-0.546,0.663,20.4,16.5,-18.1,8.3,-11.1,-21.4,0.399243141,0.110019227,0.40971099,-0.812768944
424,1063418,1521830,-0.496,-0.542,0.667,20,17,-18,8.9,-11.5,-21.6,0.398724326,0.110324412,0.409558397,-0.813074129
425,1065106,1521830,-0.5,-0.538,0.655,19.6,17.5,-18,8.9,-11.5,-21.6,0.398205512,0.110660115,0.409405805,-0.813348796
426,1067661,1521830,-0.497,-0.546,0.647,19.3,18,-18,8.9,-11.5,-21.6,0.397656178,0.110934782,0.409253212,-0.813623463
427,1070872,1521840,-0.497,-0.546,0.644,19,18.4,-18,8.9,-11.5,-21.6,0.397137364,0.111301004,0.409131138,-0.813928648
428,1072623,1521840,-0.497,-0.546,0.647,18.6,18.9,-18.2,8.8,-11.9,-21.2,0.396588031,0.111636708,0.408978545,-0.814203314
429,1075936,1521840,-0.489,-0.55,0.643,18.2,19.4,-18.4,8.8,-11.9,-21.2,0.396038697,0.111972411,0.40888699,-0.814477981
430,1077603,1521840,-0.489,-0.558,0.647,18,19.9,-18.6,8.8,-11.9,-21.2,0.395489364,0.112338633,0.408764916,-0.814752647
431,1081236,1521850,-0.489,-0.554,0.636,17.8,20.2,-18.7,8.8,-11.9,-21.2,0.394940031,0.112674337,0.40867336,-0.815027314
432,1082958,1521850,-0.493,-0.542,0.64,17.1,20.9,-19,8.8,-11.9,-21.2,0.394390698,0.113040559,0.408520768,-0.815301981
433,1085694,1521850,-0.493,-0.542,0.64,17.1,20.9,-19,8.8,-11.9,-21.2,0.393841365,0.113376263,0.408459731,-0.815576647
434,1088821,1521850,-0.493,-0.542,0.643,16.7,21.3,-19.2,8.8,-11.9,-21.2,0.393261513,0.113742485,0.408398694,-0.815820795
435,1090372,1521860,-0.497,-0.538,0.64,16.3,21.8,-19.4,8.8,-11.9,-21.2,0.392681661,0.114078188,0.408337657,-0.816095462
436,1093478,1521860,-0.497,-0.534,0.636,15.9,22.3,-19.7,8.9,-10.1,-22.9,0.392071291,0.114444411,0.40827662,-0.81633961
437,1095081,1521860,-0.493,-0.538,0.64,15.5,22.7,-20,8.9,-10.1,-22.9,0.39149144,0.114810633,0.408246101,-0.816583758
438,1099488,1521860,-0.489,-0.534,0.632,15.1,22.8,-20.3,8.9,-10.1,-22.9,0.390881069,0.115176855,0.408246101,-0.816858425
439,1100150,1521870,-0.489,-0.534,0.632,14.8,23,-20.9,8.9,-10.1,-22.9,0.390270699,0.115512558,0.408215583,-0.817102573
440,1103892,1521870,-0.493,-0.542,0.628,14.5,23.3,-21.6,9.4,-9.3,-22.4,0.38962981,0.11587878,0.408215583,-0.817346721
441,1106190,1521870,-0.489,-0.554,0.628,14.3,23.6,-22.2,9.4,-9.3,-22.4,0.388988922,0.116214484,0.408215583,-0.817621387
442,1108366,1521870,-0.489,-0.55,0.624,14,23.8,-23,9.4,-9.3,-22.4,0.388317515,0.116550188,0.408215583,-0.817865535
443,1110583,1521880,-0.493,-0.562,0.624,13.8,24,-23.7,9.4,-9.3,-22.4,0.387646107,0.116885891,0.408246101,-0.818140202
444,1112886,1521880,-0.497,-0.566,0.624,13.8,24.2,-24.4,9.4,-8.4,-22.6,0.3869747,0.117221595,0.408246101,-0.818414869
445,1115172,1521880,-0.497,-0.562,0.628,13.8,24.7,-24.9,9.4,-8.4,-22.6,0.386272774,0.117557299,0.40827662,-0.818689535
446,1117714,1521880,-0.501,-0.562,0.624,14,25,-25.3,9.4,-8.4,-22.6,0.385570849,0.117893002,0.408307138,-0.818964202
447,1120007,1521890,-0.501,-0.558,0.624,14.1,25.2,-25.5,9.4,-8.4,-22.6,0.384838404,0.118228706,0.408337657,-0.819238868
448,1124180,1521890,-0.505,-0.558,0.62,14.2,25.3,-25.7,10.1,-7.9,-22.1,0.38410596,0.118594928,0.408368175,-0.819513535
449,1126407,1521890,-0.505,-0.558,0.624,14.3,25.3,-25.8,10.1,-7.9,-22.1,0.383404035,0.118930631,0.408368175,-0.819788202
450,1128579,1521890,-0.505,-0.558,0.62,14.4,25.4,-26,10.1,-7.9,-22.1,0.38267159,0.119235817,0.408398694,-0.820062868
451,1130803,1521900,-0.505,-0.558,0.628,14.7,25.4,-26.2,10.1,-7.9,-22.1,0.381939146,0.119602039,0.408429212,-0.820337535
452,1133213,1521900,-0.497,-0.562,0.632,15.4,25.4,-26.6,10.1,-7.9,-22.1,0.38123722,0.120059816,0.408368175,-0.820612201
453,1135148,1521900,-0.501,-0.558,0.628,15.4,25.4,-26.6,10.1,-7.9,-22.1,0.380504776,0.120426038,0.408368175,-0.820917386
454,1137579,1521900,-0.497,-0.562,0.632,15.7,25.3,-27,10.1,-7.9,-22.1,0.379741813,0.120761742,0.408368175,-0.821222571
455,1140670,1521910,-0.509,-0.561,0.624,16,25.1,-27.3,10.1,-7.9,-22.1,0.378978851,0.121097446,0.408368175,-0.821527757
456,1142678,1521910,-0.505,-0.562,0.628,16.3,24.9,-27.8,9.7,-9.3,-21.1,0.378215888,0.121433149,0.408337657,-0.821832942
457,1146831,1521910,-0.501,-0.55,0.632,16.7,24.9,-28.1,9.7,-9.3,-21.1,0.377422407,0.121768853,0.408337657,-0.822138127
458,1147536,1521910,-0.505,-0.546,0.628,17.1,24.9,-28.3,9.7,-9.3,-21.1,0.376689962,0.122104556,0.408307138,-0.822443312
459,1150078,1521920,-0.501,-0.546,0.624,17.4,24.7,-28.6,9.7,-9.3,-21.1,0.375896481,0.12244026,0.40827662,-0.822779015
460,1153518,1521920,-0.501,-0.542,0.632,17.7,24.5,-28.7,10.4,-9.5,-20.8,0.375133518,0.122775964,0.408215583,-0.823114719
461,1156542,1521920,-0.501,-0.53,0.62,17.8,24.1,-28.8,10.4,-9.5,-20.8,0.374340037,0.123081149,0.408185064,-0.823450423
462,1158801,1521920,-0.504,-0.522,0.616,17.7,24,-28.9,10.4,-9.5,-20.8,0.373516037,0.123416852,0.408124027,-0.823755608
463,1160290,1521930,-0.505,-0.53,0.613,17.6,23.8,-29.1,10.4,-9.5,-20.8,0.372783593,0.123722037,0.408093509,-0.824091311
464,1162509,1521930,-0.5,-0.53,0.624,17.6,23.7,-29.3,10.5,-9.4,-20.1,0.371990112,0.124027223,0.408032472,-0.824427015
465,1165071,1521930,-0.493,-0.534,0.624,17.8,23.5,-29.7,10.5,-9.4,-20.1,0.371196631,0.124332408,0.408001953,-0.824762719
466,1168524,1521930,-0.493,-0.542,0.624,18.1,23.3,-30.2,10.5,-9.4,-20.1,0.37040315,0.124607074,0.407940916,-0.825098422
467,1170068,1521940,-0.493,-0.538,0.628,18.1,23.2,-30.6,10.5,-9.4,-20.1,0.36957915,0.124942778,0.407879879,-0.825464644
468,1172598,1521940,-0.508,-0.526,0.62,17.8,23.3,-30.9,10.4,-9.6,-19.6,0.36875515,0.125217444,0.407849361,-0.825800348
469,1175049,1521940,-0.512,-0.522,0.617,16.9,23.5,-30.9,10.4,-9.6,-19.6,0.367961669,0.125492111,0.407818842,-0.826136052
470,1178325,1521940,-0.516,-0.518,0.609,15.9,23.6,-30.7,10.4,-9.6,-19.6,0.367137669,0.125766778,0.407788324,-0.826471755
471,1180150,1521950,-0.52,-0.51,0.613,14.8,23.6,-30.7,10.4,-9.6,-19.6,0.366344188,0.126041444,0.407788324,-0.82677694
472,1184421,1521950,-0.524,-0.514,0.617,13.2,23.3,-31.2,10.4,-9.6,-19.6,0.365672781,0.126590777,0.407635731,-0.827051607
473,1185762,1521950,-0.532,-0.518,0.625,13.2,23.3,-31.2,10.4,-9.6,-19.6,0.364879299,0.126834925,0.407696768,-0.827356792
474,1188785,1521950,-0.532,-0.514,0.629,12.6,23.2,-31.4,10.4,-9.6,-19.6,0.3640553,0.127079073,0.407727287,-0.827661977
475,1190303,1521960,-0.532,-0.518,0.629,12.3,23.2,-31.5,10.4,-9.6,-19.6,0.363261818,0.127323222,0.407788324,-0.827936644
476,1193275,1521960,-0.536,-0.518,0.641,11.9,23.2,-31.8,11.3,-9.2,-19.6,0.362437819,0.127536851,0.407818842,-0.828241829
477,1195036,1521960,-0.536,-0.518,0.641,11.4,23.1,-32,11.3,-9.2,-19.6,0.361613819,0.127780999,0.407910398,-0.828547014
478,1199350,1521960,-0.544,-0.513,0.637,10.7,22.9,-32.3,11.3,-9.2,-19.6,0.360820338,0.127994629,0.407971435,-0.82882168
479,1201414,1521970,-0.548,-0.502,0.637,9.9,22.9,-32.6,11.3,-9.2,-19.6,0.359996338,0.128147221,0.40806299,-0.829096347
480,1202992,1521970,-0.552,-0.498,0.633,9,22.8,-32.9,11.5,-9.4,-19.2,0.359172338,0.128360851,0.408185064,-0.829371014
481,1206555,1521970,-0.555,-0.494,0.629,8.1,22.6,-33.2,11.5,-9.4,-19.2,0.35831782,0.128543962,0.408307138,-0.82964568
482,1208200,1521970,-0.559,-0.49,0.629,7.5,22.5,-33.4,11.5,-9.4,-19.2,0.35749382,0.128727073,0.408429212,-0.829920347
483,1211068,1521980,-0.567,-0.489,0.637,6.8,22.4,-33.5,11.5,-9.4,-19.2,0.35666982,0.128879666,0.408581805,-0.830164495
484,1212684,1521980,-0.571,-0.493,0.626,6.3,22.3,-33.5,11.9,-9.3,-19.3,0.35584582,0.129032258,0.408734397,-0.830439161
485,1215073,1521980,-0.575,-0.501,0.622,5.7,22.2,-33.6,11.9,-9.3,-19.3,0.355021821,0.129184851,0.40888699,-0.830683309
486,1217767,1521980,-0.576,-0.513,0.622,5.3,21.9,-33.9,11.9,-9.3,-19.3,0.354197821,0.129306925,0.409070101,-0.830927458
487,1220812,1521990,-0.58,-0.528,0.618,4.9,21.5,-34.1,11.9,-9.3,-19.3,0.353373821,0.129459517,0.409222694,-0.831171606
488,1222628,1521990,-0.58,-0.536,0.622,4.6,21.1,-34.4,12.2,-9.2,-19.9,0.352549821,0.129551073,0.409405805,-0.831415754
489,1225371,1521990,-0.58,-0.54,0.63,4.5,20.8,-34.6,12.2,-9.2,-19.9,0.351725822,0.129673147,0.409588916,-0.831659902
490,1228364,1521990,-0.58,-0.552,0.626,4.3,20.5,-34.8,12.2,-9.2,-19.9,0.350901822,0.129764702,0.409772027,-0.83190405
491,1229983,1522000,-0.584,-0.548,0.626,4.1,20.3,-34.8,12.2,-9.2,-19.9,0.350077822,0.129856258,0.409955138,-0.832148198
492,1233729,1522000,-0.584,-0.54,0.638,3.7,20.2,-35.1,12.2,-9.2,-19.9,0.349406415,0.130314035,0.410046693,-0.832331309
493,1235189,1522000,-0.584,-0.54,0.638,3.7,20.2,-35.1,12.2,-9.2,-19.9,0.348582415,0.130375072,0.410229804,-0.832575457
494,1237938,1522000,-0.592,-0.528,0.646,3.7,20,-35.5,12.2,-9.2,-19.9,0.347727897,0.130466628,0.410412915,-0.832819605
495,1241266,1522010,-0.595,-0.52,0.654,3.8,19.9,-35.8,12.2,-9.2,-19.9,0.346903897,0.130527665,0.410596026,-0.833063753
496,1242537,1522010,-0.599,-0.512,0.65,4.1,19.5,-35.9,11.9,-9,-20.7,0.346049379,0.130588702,0.410779138,-0.833307901
497,1245536,1522010,-0.595,-0.508,0.658,4.7,19.2,-35.9,11.9,-9,-20.7,0.345194861,0.130649739,0.41093173,-0.833582568
498,1249297,1522010,-0.607,-0.496,0.674,5.4,19,-35.6,11.9,-9,-20.7,0.344370861,0.130710776,0.411084323,-0.833826716
499,1250857,1522020,-0.611,-0.496,0.674,6.3,18.7,-35.3,11.9,-9,-20.7,0.343546861,0.130802332,0.411206397,-0.834101382
500,1252502,1522020,-0.615,-0.488,0.678,7.2,18.3,-34.9,11.9,-9.5,-21.5,0.342722861,0.130863369,0.411297952,-0.834376049
501,1256754,1522020,-0.615,-0.492,0.674,7.9,17.8,-34.4,11.9,-9.5,-21.5,0.34192938,0.130924406,0.411389508,-0.834650716
502,1258281,1522020,-0.623,-0.5,0.69,8.2,17.3,-34,11.9,-9.5,-21.5,0.34110538,0.131015961,0.411481063,-0.834925382
503,1259925,1522030,-0.619,-0.504,0.69,8.5,16.9,-33.5,11.9,-9.5,-21.5,0.340311899,0.131076998,0.4115421,-0.835200049
504,1262903,1522030,-0.631,-0.507,0.69,8.8,16.5,-33,12.3,-9.4,-21.1,0.339548936,0.131138035,0.411603137,-0.835474715
505,1265058,1522030,-0.639,-0.503,0.702,9,16,-32.5,12.3,-9.4,-21.1,0.338785974,0.131229591,0.411633656,-0.835749382
506,1267897,1522030,-0.651,-0.507,0.706,9.1,15.6,-31.8,12.3,-9.4,-21.1,0.338053529,0.131290628,0.411694693,-0.836024049
507,1270904,1522040,-0.65,-0.499,0.71,8.9,15.1,-31.1,12.3,-9.4,-21.1,0.337321085,0.131351665,0.411725211,-0.836298715
508,1272502,1522040,-0.658,-0.503,0.71,8.8,14.7,-30.3,12.2,-9.4,-21.1,0.336588641,0.131412702,0.41175573,-0.836573382
509,1275292,1522040,-0.67,-0.495,0.718,8.5,14.1,-29.3,12.2,-9.4,-21.1,0.335917234,0.131473739,0.411786248,-0.83681753
510,1278457,1522040,-0.686,-0.487,0.719,8.2,13.4,-28.2,12.2,-9.4,-21.1,0.335245827,0.131534776,0.411816767,-0.837061678
511,1279965,1522050,-0.686,-0.483,0.719,7.7,12.6,-27.1,12.2,-9.4,-21.1,0.334604938,0.131565294,0.411847285,-0.837275307
512,1283020,1522050,-0.702,-0.482,0.723,7.2,11.9,-26.1,12.2,-9.4,-21.1,0.334025086,0.131595813,0.411877804,-0.837519456
513,1285834,1522050,-0.706,-0.486,0.711,6.7,11.1,-25.2,12.2,-9.4,-21.1,0.333445235,0.131626331,0.411908322,-0.837733085
514,1287638,1522050,-0.714,-0.482,0.72,6.1,10.4,-24.1,12.2,-9.4,-21.1,0.332865383,0.13165685,0.411938841,-0.837916196
515,1290227,1522060,-0.721,-0.478,0.724,5.6,9.8,-23.1,12.2,-9.4,-21.1,0.332346568,0.13165685,0.411969359,-0.838099307
516,1293431,1522060,-0.733,-0.478,0.716,5,9.2,-22.1,12.5,-9.2,-20.2,0.331858272,0.13165685,0.411999878,-0.838282418
517,1294924,1522060,-0.749,-0.481,0.72,4.7,8.5,-21,12.5,-9.2,-20.2,0.331369976,0.13165685,0.412060915,-0.838465529
518,1297719,1522060,-0.753,-0.481,0.721,4.4,7.9,-19.9,12.5,-9.2,-20.2,0.330912198,0.13165685,0.412091433,-0.838618122
519,1301025,1522070,-0.757,-0.477,0.725,4.2,7.1,-18.8,12.5,-9.2,-20.2,0.330515458,0.13165685,0.412121952,-0.838770714
520,1302841,1522070,-0.765,-0.477,0.733,4.1,6.4,-17.9,12.7,-9.1,-20.2,0.330118717,0.13165685,0.412121952,-0.838923307
521,1306796,1522070,-0.777,-0.473,0.733,3.9,5.6,-16.9,12.7,-9.1,-20.2,0.329721976,0.131626331,0.41215247,-0.8390759
522,1308419,1522070,-0.773,-0.473,0.737,3.8,4.8,-16,12.7,-9.1,-20.2,0.329386273,0.131595813,0.41215247,-0.839197974
523,1310763,1522080,-0.773,-0.469,0.733,3.8,4,-15.1,12.7,-9.1,-20.2,0.329050569,0.131565294,0.41215247,-0.839320048
524,1312824,1522080,-0.777,-0.465,0.729,3.8,3.3,-14.3,13.4,-9.2,-20.1,0.328745384,0.131504257,0.41215247,-0.83947264
525,1315935,1522080,-0.785,-0.457,0.729,4.1,2.5,-13.5,13.4,-9.2,-20.1,0.328470717,0.131473739,0.41215247,-0.839594714
526,1318252,1522080,-0.789,-0.461,0.729,4.7,2,-12.8,13.4,-9.2,-20.1,0.328196051,0.131412702,0.412091433,-0.839716788
527,1320479,1522090,-0.789,-0.453,0.725,5.5,1.4,-12.2,13.4,-9.2,-20.1,0.327951903,0.131382183,0.412060915,-0.839838862
528,1323394,1522090,-0.792,-0.449,0.722,6.7,0.8,-11.6,12.9,-9.1,-20.3,0.327707755,0.131351665,0.411969359,-0.839991455
529,1325068,1522090,-0.793,-0.457,0.722,8,0,-11.2,12.9,-9.1,-20.3,0.327494125,0.131290628,0.411847285,-0.840144047
530,1328777,1522090,-0.797,-0.453,0.718,9.6,-0.8,-10.8,12.9,-9.1,-20.3,0.327249977,0.131260109,0.411694693,-0.840327158
531,1330060,1522100,-0.801,-0.46,0.722,11.4,-1.6,-10.4,12.9,-9.1,-20.3,0.327066866,0.131229591,0.411511582,-0.840479751
532,1333153,1522100,-0.797,-0.456,0.726,13.3,-2.1,-9.9,12.9,-9.1,-20.3,0.326853236,0.131168554,0.411267434,-0.840693381
533,1335059,1522100,-0.804,-0.456,0.726,15.4,-2.5,-9.4,12.9,-9.1,-20.3,0.326639607,0.131168554,0.410992767,-0.84090701
534,1338940,1522100,-0.808,-0.452,0.726,17.5,-2.8,-8.8,12.9,-9.1,-20.3,0.326456496,0.131168554,0.410687582,-0.84112064
535,1341177,1522110,-0.82,-0.432,0.73,19.5,-3.1,-8.2,12.9,-9.1,-20.3,0.326303903,0.131168554,0.41032136,-0.841364788
536,1343455,1522110,-0.828,-0.42,0.73,21.2,-3.5,-7.3,14.8,-9,-20.1,0.326120792,0.131199072,0.409924619,-0.841639454
537,1345237,1522110,-0.828,-0.413,0.734,22.7,-3.9,-6.2,14.8,-9,-20.1,0.3259682,0.131229591,0.40949736,-0.841883602
538,1348614,1522110,-0.839,-0.397,0.734,23.7,-4.3,-5.1,14.8,-9,-20.1,0.325846126,0.131260109,0.409039583,-0.842158269
539,1350321,1522120,-0.855,-0.361,0.731,24.4,-4.7,-3.7,14.8,-9,-20.1,0.32575457,0.131321146,0.408581805,-0.842402417
540,1352636,1522120,-0.866,-0.349,0.735,24.7,-5.1,-2.2,14.7,-8.8,-19.8,0.325693533,0.131382183,0.408093509,-0.842646565
541,1356382,1522120,-0.882,-0.333,0.739,24.9,-5.8,-0.4,14.7,-8.8,-19.8,0.325663015,0.13144322,0.407605213,-0.842890713
542,1357944,1522120,-0.894,-0.317,0.743,24.9,-6.5,1.4,14.7,-8.8,-19.8,0.325693533,0.131504257,0.407086398,-0.843134861
543,1360018,1522130,-0.917,-0.3,0.744,24.6,-7.4,3.4,14.7,-8.8,-19.8,0.32575457,0.131565294,0.406567583,-0.843348491
544,1362866,1522130,-0.929,-0.292,0.752,24.2,-8.3,5.5,14.7,-9.4,-19.5,0.325846126,0.13165685,0.406048769,-0.843531602
545,1365883,1522130,-0.937,-0.284,0.752,23.4,-9.3,7.6,14.7,-9.4,-19.5,0.325998718,0.131717887,0.405529954,-0.843714713
546,1367727,1522130,-0.952,-0.276,0.757,22.5,-10.3,9.7,14.7,-9.4,-19.5,0.326212348,0.131778924,0.405011139,-0.843897824
547,1370218,1522140,-0.964,-0.264,0.765,21.4,-11.5,12,14.7,-9.4,-19.5,0.326456496,0.131809442,0.404492325,-0.844019898
548,1374223,1522140,-0.972,-0.264,0.769,20.2,-12.8,14.4,14.5,-9.2,-19.4,0.326792199,0.131839961,0.404004028,-0.844141972
549,1376526,1522140,-0.98,-0.26,0.788,18.8,-14.3,17.1,14.5,-9.2,-19.4,0.32718894,0.131870479,0.403485214,-0.844233528
550,1378673,1522140,-0.987,-0.248,0.793,17.3,-15.6,19.7,14.5,-9.2,-19.4,0.327616199,0.131870479,0.402996918,-0.844264046
551,1380651,1522150,-0.987,-0.244,0.804,15.6,-16.9,22.5,14.5,-9.2,-19.4,0.328135014,0.131870479,0.40253914,-0.844294565
552,1382758,1522150,-0.983,-0.24,0.8,14.2,-18.2,25.2,14.5,-9.2,-19.4,0.328745384,0.131870479,0.402050844,-0.844294565
553,1386051,1522150,-0.987,-0.24,0.808,13.1,-19.6,27.9,14.5,-9.2,-19.4,0.329386273,0.131839961,0.401593066,-0.844264046
554,1387603,1522150,-0.979,-0.244,0.812,12.4,-21.2,30.4,14.5,-9.2,-19.4,0.330088198,0.131809442,0.401135289,-0.844233528
555,1389933,1522160,-0.983,-0.248,0.816,12.1,-22.8,32.9,14.5,-9.2,-19.4,0.33088168,0.131748405,0.400646992,-0.844141972
556,1392688,1522160,-0.979,-0.248,0.824,12,-24.3,35.2,11.5,-10.1,-19.2,0.331705679,0.131717887,0.400158696,-0.844080935
557,1395812,1522160,-0.972,-0.256,0.827,12.2,-25.6,37.3,11.5,-10.1,-19.2,0.332560198,0.13165685,0.399639882,-0.84398938
558,1398762,1522160,-0.971,-0.256,0.847,12.7,-26.7,39.1,11.5,-10.1,-19.2,0.333475753,0.131595813,0.399090548,-0.843897824
559,1400303,1522170,-0.967,-0.248,0.854,13.8,-27.6,40.8,11.5,-10.1,-19.2,0.334452345,0.131534776,0.398510697,-0.84377575
560,1402648,1522170,-0.971,-0.244,0.858,15.4,-28.2,42.2,10.4,-10,-19.4,0.335428938,0.131504257,0.397900327,-0.843684194
561,1405579,1522170,-0.971,-0.216,0.866,17.8,-28.7,43.3,10.4,-10,-19.4,0.33640553,0.131473739,0.397228919,-0.843623157
562,1408454,1522170,-0.978,-0.201,0.874,20.6,-29,44.1,10.4,-10,-19.4,0.337412641,0.131473739,0.396526994,-0.84356212
563,1410094,1522180,-0.986,-0.193,0.867,23.6,-29.2,44.7,10.4,-10,-19.4,0.338419752,0.131504257,0.395733512,-0.843501083
564,1413604,1522180,-0.994,-0.169,0.863,26.7,-29.4,45.1,9.1,-10.5,-19.3,0.339426862,0.131534776,0.394909513,-0.843501083
565,1415094,1522180,-1.017,-0.125,0.855,29.7,-29.5,45.5,9.1,-10.5,-19.3,0.340433973,0.131626331,0.393993957,-0.843501083
566,1417988,1522180,-1.029,-0.113,0.852,32.7,-29.6,45.8,9.1,-10.5,-19.3,0.341441084,0.131717887,0.393047884,-0.843531602
567,1421092,1522190,-1.041,-0.097,0.84,35.6,-29.5,45.9,9.1,-10.5,-19.3,0.342448195,0.131809442,0.392040773,-0.84356212
568,1422593,1522190,-1.056,-0.089,0.825,38.1,-29.4,46.1,8,-10.4,-19.2,0.343424787,0.131962035,0.390972625,-0.843623157
569,1425644,1522190,-1.088,-0.057,0.806,40.2,-29.3,46,8,-10.4,-19.2,0.344431898,0.132114628,0.389904477,-0.843714713
570,1427850,1522190,-1.107,-0.037,0.795,41.8,-29.3,45.9,8,-10.4,-19.2,0.34540849,0.13226722,0.388775292,-0.843806269
571,1430057,1522200,-1.127,-0.024,0.776,42.9,-29.2,45.8,8,-10.4,-19.2,0.346354564,0.132450331,0.387615589,-0.843897824
572,1432533,1522200,-1.15,0.011,0.757,43.7,-29,45.8,12.3,-11.7,-19.5,0.347331156,0.132633442,0.386455885,-0.844019898
573,1436003,1522200,-1.17,0.027,0.75,43.7,-28.9,45.7,12.3,-11.7,-19.5,0.34827723,0.132816553,0.385296182,-0.844111454
574,1437824,1522200,-1.178,0.043,0.734,43.2,-28.9,45.5,12.3,-11.7,-19.5,0.349253822,0.132999664,0.384166997,-0.844233528
575,1440157,1522210,-1.19,0.051,0.723,42.3,-29.1,45.4,12.3,-11.7,-19.5,0.350199896,0.133152257,0.383037812,-0.844325083
576,1443616,1522210,-1.205,0.079,0.711,40.9,-29.5,45.4,9.2,-10.2,-19.6,0.351176489,0.133304849,0.381908628,-0.84438612
577,1445723,1522210,-1.205,0.086,0.708,39.1,-29.9,45.3,9.2,-10.2,-19.6,0.352122562,0.133426923,0.38084048,-0.844447157
578,1447859,1522210,-1.221,0.118,0.708,36.8,-30.4,45,9.2,-10.2,-19.6,0.353099155,0.133518479,0.379772332,-0.844508194
579,1450513,1522220,-1.205,0.09,0.704,34.1,-31.1,44.7,9.2,-10.2,-19.6,0.354106265,0.133579516,0.37879574,-0.844538713
580,1452922,1522220,-1.212,0.13,0.723,31,-32.1,44,8.6,-10.3,-19.6,0.355082858,0.133610034,0.377849666,-0.844538713
581,1455744,1522220,-1.212,0.122,0.735,28.1,-32.8,43.2,8.6,-10.3,-19.6,0.35605945,0.133579516,0.376934111,-0.844538713
582,1457492,1522220,-1.208,0.122,0.723,25.8,-33.5,42.1,8.6,-10.3,-19.6,0.357036042,0.13348796,0.376079592,-0.844508194
583,1461086,1522230,-1.212,0.13,0.731,24.1,-33.9,41.3,8.6,-10.3,-19.6,0.358012635,0.133396405,0.375255593,-0.844508194
584,1462928,1522230,-1.204,0.141,0.723,22.7,-34.2,40.6,9.6,-10.1,-19.2,0.358989227,0.133274331,0.374431593,-0.844447157
585,1465118,1522230,-1.192,0.149,0.703,21.4,-34.8,39.8,9.6,-10.1,-19.2,0.359935301,0.133121738,0.37366863,-0.844416639
586,1467856,1522230,-1.18,0.149,0.691,20.3,-35.5,38.9,9.6,-10.1,-19.2,0.360881375,0.132938627,0.372905667,-0.84438612
587,1469980,1522240,-1.165,0.14,0.667,19.5,-36.6,37.7,9.6,-10.1,-19.2,0.36179693,0.132724998,0.372142705,-0.844355602
588,1473841,1522240,-1.153,0.128,0.655,19.3,-37.9,36.1,10.3,-10.8,-19.4,0.362743004,0.13248085,0.371379742,-0.844325083
589,1476143,1522240,-1.145,0.116,0.651,19.9,-39.4,34.5,10.3,-10.8,-19.4,0.36362804,0.132206183,0.370586261,-0.844325083
590,1478547,1522240,-1.142,0.093,0.647,21.2,-41.1,32.9,10.3,-10.8,-19.4,0.364513077,0.131870479,0.369792779,-0.844355602
591,1480737,1522250,-1.131,0.03,0.643,23.3,-42.6,31.7,10.3,-10.8,-19.4,0.365367595,0.131534776,0.368907743,-0.844416639
592,1482970,1522250,-1.131,0.002,0.651,25.8,-44,31,9.8,-12.9,-19.3,0.366222114,0.131168554,0.367992187,-0.844508194
593,1485245,1522250,-1.116,-0.033,0.659,28.9,-45.5,30.5,9.8,-12.9,-19.3,0.367076632,0.130802332,0.367015595,-0.844630268
594,1488059,1522250,-1.112,-0.068,0.67,32.1,-46.9,30.3,9.8,-12.9,-19.3,0.367900632,0.13043611,0.365947447,-0.844782861
595,1490725,1522260,-1.097,-0.112,0.678,35.2,-47.9,30.2,9.8,-12.9,-19.3,0.36875515,0.130100406,0.364848781,-0.844935453
596,1493003,1522260,-1.09,-0.135,0.682,38.1,-48.7,30.2,9.3,-11,-18.9,0.36957915,0.129734184,0.363658559,-0.845149083
597,1495506,1522260,-1.082,-0.163,0.678,40.6,-49.3,29.9,9.3,-11,-18.9,0.37040315,0.12939848,0.362437819,-0.845362712
598,1497752,1522260,-1.078,-0.183,0.674,42.3,-50.1,29.2,9.3,-11,-18.9,0.371227149,0.129032258,0.361156041,-0.845606861
599,1500848,1522270,-1.071,-0.203,0.677,43.4,-50.8,28.1,9.3,-11,-18.9,0.372020631,0.128666036,0.359843745,-0.845851009
600,1503617,1522270,-1.071,-0.211,0.681,43.7,-51.3,26.8,9.2,-10.6,-18.8,0.372814112,0.128299814,0.358561968,-0.846125675
601,1505920,1522270,-1.071,-0.218,0.678,43.6,-51.6,25.4,9.2,-10.6,-18.8,0.373516037,0.127903073,0.357249672,-0.846400342
602,1508110,1522270,-1.071,-0.222,0.689,43,-51.8,23.7,9.2,-10.6,-18.8,0.374279,0.127475814,0.355937376,-0.846705527
603,1510327,1522280,-1.067,-0.218,0.693,42.3,-51.8,21.9,9.2,-10.6,-18.8,0.374980926,0.127048555,0.354716636,-0.846980193
604,1512515,1522280,-1.067,-0.218,0.693,41.3,-51.6,20,8.9,-11.2,-18.6,0.375621815,0.126560259,0.353465377,-0.847285379
605,1515875,1522280,-1.075,-0.203,0.693,40,-51.5,17.9,8.9,-11.2,-18.6,0.376232185,0.126071963,0.352244636,-0.847590564
606,1517989,1522280,-1.066,-0.171,0.689,38,-51.2,15.3,8.9,-11.2,-18.6,0.376812037,0.125583666,0.351084933,-0.847895749
607,1520154,1522290,-1.066,-0.152,0.697,35.5,-50.8,12.3,8.9,-11.2,-18.6,0.377330851,0.125003815,0.349986267,-0.848200934
608,1522792,1522290,-1.066,-0.124,0.701,32.5,-50.1,9,8.4,-11.6,-18.6,0.377788629,0.124423963,0.348948637,-0.848506119
609,1525921,1522290,-1.061,-0.097,0.704,29.3,-49.2,5.4,8.4,-11.6,-18.6,0.378185369,0.123783074,0.347972045,-0.848841823
610,1528134,1522290,-1.057,-0.077,0.712,26.4,-48.2,1.7,8.4,-11.6,-18.6,0.378521073,0.123142186,0.347087008,-0.849147008
611,1530292,1522300,-1.056,-0.058,0.716,23.8,-47.4,-1.7,8.4,-11.6,-18.6,0.378765221,0.12244026,0.346263009,-0.849452193
612,1532643,1522300,-1.048,-0.038,0.723,21.6,-46.7,-5,7.7,-12.2,-18.6,0.378978851,0.121677297,0.345469527,-0.849787896
613,1535235,1522300,-1.044,-0.034,0.727,19.4,-46.1,-7.9,7.7,-12.2,-18.6,0.379131443,0.120944853,0.344767602,-0.8501236
614,1538536,1522300,-1.032,-0.031,0.731,17.1,-45.6,-10.5,7.7,-12.2,-18.6,0.379222999,0.12018189,0.344096194,-0.850459304
615,1540297,1522310,-1.036,-0.03,0.742,14.9,-45.2,-12.9,7.7,-12.2,-18.6,0.379284036,0.119357891,0.343455306,-0.850795007
616,1542705,1522310,-1.036,-0.026,0.758,12.7,-44.8,-14.9,7.6,-14.1,-18.9,0.379314554,0.118503372,0.342905972,-0.851130711
617,1546043,1522310,-1.036,-0.03,0.778,10.5,-44.3,-16.8,7.6,-14.1,-18.9,0.379314554,0.117648854,0.342387158,-0.851466414
618,1547568,1522310,-1.036,-0.026,0.785,8.1,-43.5,-18.9,7.6,-14.1,-18.9,0.379253517,0.116763817,0.34192938,-0.851802118
619,1550306,1522320,-1.04,-0.026,0.797,5.5,-42.6,-21.6,7.6,-14.1,-18.9,0.379161962,0.115817743,0.341502121,-0.852137822
620,1553531,1522320,-1.032,-0.03,0.805,2.6,-41.7,-24.7,7.3,-15.2,-18.4,0.379009369,0.114932707,0.341196936,-0.852473525
621,1556623,1522320,-1.028,-0.042,0.805,-0.2,-40.9,-28.5,7.3,-15.2,-18.4,0.378765221,0.113956114,0.340922269,-0.852809229
622,1558872,1522320,-1.032,-0.058,0.805,-2.8,-40.2,-32.7,7.3,-15.2,-18.4,0.378490555,0.112887967,0.34070864,-0.853144932
623,1560245,1522330,-1.036,-0.07,0.801,-4.9,-39.5,-37.1,7.3,-15.2,-18.4,0.378093814,0.111880856,0.340586566,-0.853511155
624,1563381,1522330,-1.037,-0.081,0.786,-6.3,-38.9,-41.5,7.3,-15.2,-18.5,0.377636036,0.110782189,0.340464492,-0.853907895
625,1565048,1522330,-1.045,-0.093,0.723,-7.3,-38.5,-46.2,7.3,-15.2,-18.5,0.377056185,0.109683523,0.340403455,-0.854335154
626,1567859,1522330,-1.041,-0.093,0.676,-7.9,-38.5,-51.3,7.3,-15.2,-18.5,0.376415296,0.108493301,0.340372936,-0.854762413
627,1570314,1522340,-1.034,-0.09,0.618,-8.3,-39.2,-56.9,7.3,-15.2,-18.5,0.375652333,0.107272561,0.340311899,-0.855281228
628,1573512,1522340,-1.011,-0.094,0.484,-8.4,-40.7,-62.9,7.5,-15.4,-18.8,0.374797815,0.105990783,0.340311899,-0.855830561
629,1575191,1522340,-0.987,-0.095,0.425,-7.7,-42.8,-69.3,7.5,-15.4,-18.8,0.373851741,0.104586932,0.340250862,-0.856440931
630,1578305,1522340,-0.964,-0.096,0.366,-5.5,-45.5,-75.7,7.5,-15.4,-18.8,0.372783593,0.103122044,0.340159307,-0.857112339
631,1580022,1522350,-0.932,-0.104,0.314,-0.6,-48.6,-81.5,7.5,-15.4,-18.8,0.37162389,0.101626637,0.339945677,-0.857875301
632,1583515,1522350,-0.858,-0.173,0.262,18.6,-55.3,-89.1,7.6,-10.7,-16.8,0.370616779,0.100985748,0.33927427,-0.858668783
633,1585065,1522350,-0.823,-0.225,0.261,18.6,-55.3,-89.1,7.6,-10.7,-16.8,0.369304483,0.0994293039,0.3386639,-0.859645375
634,1587557,1522350,-0.776,-0.277,0.283,32.7,-58.7,-90.4,7.6,-10.7,-16.8,0.367961669,0.0979338969,0.337778863,-0.860744041
635,1590983,1522360,-0.749,-0.336,0.306,48.3,-61.9,-90.4,7.6,-10.7,-16.8,0.366618854,0.096499527,0.336558123,-0.861934263
636,1593388,1522360,-0.687,-0.44,0.355,64.2,-64.8,-89.6,7.9,-13.6,-20,0.36527604,0.095126194,0.335001679,-0.863277078
637,1595470,1522360,-0.66,-0.495,0.37,79,-67.3,-88.6,7.9,-13.6,-20,0.363933226,0.0938444166,0.333170568,-0.864680929
638,1597717,1522360,-0.637,-0.535,0.39,91.4,-69.3,-88.5,7.9,-13.6,-20,0.362590411,0.0926236763,0.331064791,-0.866206854
639,1600041,1522370,-0.617,-0.575,0.416,100.9,-70.8,-89.8,7.9,-13.6,-20,0.36118656,0.0914029359,0.328775903,-0.867763298
640,1602717,1522370,-0.59,-0.627,0.498,107.4,-71.9,-92.7,7.8,-12.7,-19.8,0.359721671,0.0902432325,0.32636494,-0.869411298
641,1605882,1522370,-0.578,-0.639,0.548,111.4,-72.5,-97.1,7.8,-12.7,-19.8,0.358195746,0.0890530107,0.323862423,-0.871120334
642,1607486,1522370,-0.562,-0.643,0.599,113.4,-72.7,-102.6,7.8,-12.7,-19.8,0.356517228,0.0878322703,0.321359905,-0.87285989
643,1610981,1522380,-0.517,-0.616,0.695,114,-72.4,-109,7.8,-12.7,-19.8,0.354747154,0.0865810114,0.318826868,-0.874629963
644,1612633,1522380,-0.501,-0.589,0.757,113.4,-71.8,-115.6,8.3,-12.7,-19.6,0.352824488,0.0852687155,0.316324351,-0.876430555
645,1614988,1522380,-0.468,-0.554,0.815,111.8,-71.1,-122.4,8.3,-12.7,-19.6,0.350749229,0.0839259011,0.313852351,-0.878292184
646,1617672,1522380,-0.443,-0.523,0.873,109.1,-70.2,-128.5,8.3,-12.7,-19.6,0.348551897,0.0825220496,0.311471908,-0.880123295
647,1620983,1522390,-0.405,-0.406,0.969,105.1,-69.3,-134,8.3,-12.7,-19.6,0.346263009,0.0810876797,0.309152501,-0.881984924
648,1623273,1522390,-0.349,-0.368,1.002,99.7,-68.4,-138.7,8.4,-12.2,-19.2,0.343882565,0.0795922727,0.306955168,-0.883785516
649,1625430,1522390,-0.329,-0.365,1.017,92.2,-67.9,-143.3,8.4,-12.2,-19.2,0.341410566,0.0780053102,0.304910428,-0.885616626
650,1627666,1522390,-0.324,-0.306,1.037,83.1,-67.5,-147.9,8.4,-12.2,-19.2,0.338847011,0.0763573107,0.303048799,-0.8873867
651,1630167,1522400,-0.287,-0.224,1.051,73.2,-66.8,-152.4,8.4,-12.2,-19.2,0.336222419,0.0745872372,0.3014008,-0.889095737
652,1633463,1522400,-0.275,-0.209,1.047,63.6,-65.7,-156.3,8,-13.9,-17.2,0.333506272,0.0727561266,0.299935911,-0.890774255
653,1635063,1522400,-0.263,-0.17,1.035,54.4,-64.6,-159.8,8,-13.9,-17.2,0.330729087,0.0708334605,0.298654134,-0.892391736
654,1637556,1522400,-0.234,-0.151,1.026,45.5,-63.6,-163.2,8,-13.9,-17.2,0.327921384,0.0688497574,0.297555467,-0.89394818
655,1641080,1522410,-0.202,-0.12,1.009,36.8,-62.5,-166.8,8,-13.9,-17.2,0.324991607,0.0668355358,0.296639912,-0.895474105
656,1642612,1522410,-0.174,-0.113,1.009,28.5,-61.3,-170.9,8.7,-13.8,-17.3,0.322000793,0.0647297586,0.295907468,-0.896938993
657,1645032,1522410,-0.155,-0.113,1.012,20.3,-59.9,-175.6,8.7,-13.8,-17.3,0.318918424,0.0625629444,0.295327616,-0.898403882
658,1648515,1522410,-0.111,-0.11,1.034,12.5,-58.1,-180.9,8.7,-13.8,-17.3,0.315744499,0.0603350932,0.294900357,-0.899807733
659,1650125,1522420,-0.091,-0.115,1.038,5.1,-55.9,-186.5,8.7,-13.8,-17.3,0.312417982,0.0580767235,0.294656209,-0.901181066
660,1652582,1522420,-0.063,-0.127,1.049,-1.7,-53.5,-192.1,8.9,-13.4,-17.3,0.308999908,0.0557573168,0.294595172,-0.902554399
661,1656088,1522420,-0.048,-0.139,1.052,-7.8,-51.1,-197.5,8.9,-13.4,-17.3,0.305429243,0.0534379101,0.29462569,-0.903866695
662,1658263,1522420,-0.028,-0.151,0.993,-13.4,-48.5,-202.8,8.9,-13.4,-17.3,0.301767022,0.0510574664,0.294808802,-0.905178991
663,1660665,1522430,-0.017,-0.14,0.926,-18.5,-46.3,-208.8,8.9,-13.4,-17.3,0.297952208,0.0487075411,0.295083468,-0.906491287
664,1662858,1522430,-0.001,-0.133,0.848,-23.5,-44.5,-216,9.7,-13.2,-16.6,0.293984802,0.0462660604,0.295510727,-0.907773064
665,1665135,1522430,0.03,-0.122,0.769,-28.2,-43.7,-225,9.7,-13.2,-16.6,0.289834284,0.0437940611,0.295999023,-0.90908536
666,1667739,1522430,0.101,-0.096,0.642,-31.3,-43.8,-235.8,9.7,-13.2,-16.6,0.285470138,0.0411999878,0.296578875,-0.910397656
667,1671188,1522440,0.14,-0.089,0.606,-31.2,-44.9,-248,9.7,-13.2,-16.6,0.280861843,0.0384838404,0.297128208,-0.911770989
668,1672745,1522440,0.199,-0.102,0.585,-26.3,-46.4,-260.8,10.8,-12.6,-16,0.275978881,0.0356761376,0.297585986,-0.913205359
669,1675179,1522440,0.346,-0.141,0.561,-15.5,-47.9,-273.1,10.8,-12.6,-16,0.270851772,0.0328989532,0.297799615,-0.914761803
670,1678619,1522440,0.424,-0.186,0.575,0.8,-49.1,-283.8,10.8,-12.6,-16,0.265511032,0.0300912503,0.29770806,-0.91647084
671,1680148,1522450,0.507,-0.247,0.604,21.6,-49.9,-292.2,10.8,-12.6,-16,0.259987182,0.027314066,0.297158727,-0.918332469
672,1684049,1522450,0.68,-0.369,0.709,45,-49.8,-299.2,11.5,-12.1,-19.5,0.254280221,0.0246284371,0.296151616,-0.920316172
673,1686082,1522450,0.763,-0.417,0.785,68.5,-48.8,-306,11.5,-12.1,-19.5,0.248390149,0.0220343638,0.294656209,-0.922452467
674,1687649,1522450,0.855,-0.443,0.873,90.4,-46.9,-313.7,11.5,-12.1,-19.5,0.242347484,0.0195318461,0.292733543,-0.924741356
675,1690798,1522460,0.947,-0.449,0.964,109,-44.3,-322.9,11.5,-12.1,-19.5,0.236060671,0.0171819208,0.290414136,-0.927152318
676,1693074,1522460,1.039,-0.427,1.028,123.3,-41,-333.6,12.9,-11.6,-16.4,0.229499191,0.0148930326,0.287820063,-0.929624317
677,1695278,1522460,0.909,-0.642,-0.303,132.5,-37.4,-345.4,12.9,-11.6,-16.4,0.222693564,0.0126041444,0.285042879,-0.932187872
678,1697580,1522460,0.822,-1.256,-2.088,138.8,-36.3,-357.7,12.9,-11.6,-16.4,0.215582751,0.0103152562,0.28214362,-0.934751427
679,1700770,1522470,0.912,-2.297,-3.177,155.9,-47.2,-367.1,12.9,-11.6,-16.4,0.208349864,0.00784325694,0.278817103,-0.937406537
680,1702674,1522470,1.518,-5.252,-3.887,224.9,-84.4,-362.7,13.6,-11.4,-16,0.201391644,0.00491348003,0.273873104,-0.940397351
681,1706974,1522470,5.135,-8.207,-0.542,401.8,-156.2,-319.2,13.6,-11.4,-16,0.195715201,0.00155644398,0.264961699,-0.944151128
682,1707552,1522470,7.268,-8.249,-0.833,647.2,-238.9,-198.6,13.6,-11.4,-16,0.192968535,-0.00170903653,0.250587481,-0.948637349
683,1710787,1522480,7.966,-8.273,-1.61,770.9,-321.3,-12.7,13.6,-11.4,-16,0.194463942,-0.00518814661,0.233222449,-0.952757347
684,1713074,1522480,8.013,-5.863,0.197,610.3,-376.2,165.5,12.8,-14.1,-16.2,0.199865719,-0.00955229347,0.218939787,-0.954985199
685,1715310,1522480,8.104,-0.924,3.04,201.5,-373,249.8,12.8,-14.1,-16.2,0.206884976,-0.0152592547,0.213110752,-0.954710532
686,1717698,1522480,8.142,1.949,2.089,-228,-264.4,195.4,12.8,-14.1,-16.2,0.212103641,-0.0208746605,0.216772973,-0.952665792
687,1720234,1522490,7.508,2.216,2.179,-460,-78.4,21.8,12.8,-14.1,-16.2,0.212683493,-0.0245368816,0.225959044,-0.950285348
688,1723547,1522490,3.278,5.483,1.294,-464.3,113.8,-217.1,12.7,-12.2,-17.2,0.207373272,-0.0253913999,0.235999634,-0.949003571
689,1725028,1522490,2.012,6.011,1.405,-332.9,257.4,-436.1,12.7,-12.2,-17.2,0.196813868,-0.0238044374,0.243781854,-0.949339274
690,1727652,1522490,0.402,5.562,2.222,-198.2,352.8,-532.2,12.7,-12.2,-17.2,0.183782464,-0.0202032533,0.249092074,-0.95065157
691,1729928,1522500,-0.331,5.751,1.706,-118,398.2,-461.6,12.7,-12.2,-17.2,0.171971801,-0.0149235511,0.252937407,-0.951933348
692,1732950,1522500,-2.011,5.083,-0.066,-91.6,378.6,-259.4,15.1,-11.3,-17.4,0.164464248,-0.00881984924,0.25614185,-0.952482681
693,1735161,1522500,-2.868,4.662,-0.382,-100.2,299.5,-25.6,15.1,-11.3,-17.4,0.162236396,-0.00311288797,0.259285257,-0.952055422
694,1737827,1522500,-3.434,4.023,-0.384,-116.1,198.1,153.5,15.1,-11.3,-17.4,0.164281137,0.00143436995,0.262428663,-0.950834681
695,1740140,1522510,-3.574,3.189,-0.542,-118.3,114.2,243.8,15.1,-11.3,-17.4,0.16870632,0.00476088748,0.265266884,-0.949278237
696,1744290,1522510,-2.7,1.326,-0.302,-102.8,61.9,252.6,14.7,-11.1,-17,0.173558763,0.00714133122,0.267586291,-0.947721793
697,1746010,1522510,-2.167,0.374,-0.228,-73.1,35,211.5,14.7,-11.1,-17,0.177739799,0.00881984924,0.269203772,-0.946470534
698,1747589,1522510,-1.39,-0.503,-0.156,-30.7,20.2,155.6,14.7,-11.1,-17,0.180852687,0.0100405896,0.269875179,-0.945677053
699,1750183,1522520,-0.103,-1.556,1.335,26.5,8.2,111.1,14.7,-11.1,-17,0.183080538,0.0109561449,0.269356365,-0.945402387
700,1752548,1522520,-0.232,-3.38,1.672,87.6,-4.5,90.6,14.6,-12,-17.4,0.184972686,0.0117496261,0.267494736,-0.945554979
701,1756548,1522520,-0.48,-4.129,2.068,127.6,-12.8,97.6,14.6,-12,-17.4,0.187017426,0.0125736259,0.264778588,-0.945890683
702,1758734,1522520,-0.312,-3.697,1.839,127.5,-12.7,104,14.6,-12,-17.4,0.189214759,0.0134281442,0.262062441,-0.946195868
703,1760262,1522530,-0.676,-3.633,1.794,88.6,-2.5,86.3,14.6,-12,-17.4,0.190984832,0.0142521439,0.260200812,-0.94634846
704,1762566,1522530,-0.874,-3.279,1.67,36,9.5,35.9,14.7,-12.1,-16.9,0.191625721,0.0148014771,0.259498886,-0.946409497
705,1765057,1522530,-1.034,-2.812,1.587,-5.6,17.4,-20.3,14.7,-12.1,-16.9,0.191137425,0.0150151067,0.259681997,-0.946440016
706,1769383,1522530,-1.11,-2.319,1.529,-22.6,17.2,-59.7,14.7,-12.1,-16.9,0.18979461,0.0149235511,0.26023133,-0.94656209
707,1771486,1522540,-1.048,-1.318,1.426,-14.8,9.4,-75,14.7,-12.1,-16.9,0.188207648,0.0146488845,0.260628071,-0.946775719
708,1773744,1522540,-0.951,-0.908,1.344,6.9,-3,-70.3,14.9,-11.9,-16.8,0.186742759,0.0142216254,0.260475478,-0.947111423
709,1775852,1522540,-0.951,-0.908,1.344,6.9,-3,-70.3,14.9,-11.9,-16.8,0.186742759,0.0142216254,0.260475478,-0.947111423
710,1778076,1522540,-0.429,-0.244,1.239,47.5,-25.8,-37.2,14.9,-11.9,-16.8,0.18509476,0.0131229591,0.258735923,-0.947935423
711,1780266,1522550,-0.227,-0.229,1.241,54.8,-30.9,-23.4,14.9,-11.9,-16.8,0.184759056,0.0125736259,0.257454146,-0.948362682
712,1783279,1522550,-0.049,-0.32,1.248,53.5,-31.6,-15.8,14.2,-12,-16.1,0.184606464,0.0120548112,0.256233406,-0.948728904
713,1785131,1522550,0.098,-0.48,1.252,46.3,-29.5,-14.9,14.2,-12,-16.1,0.184423353,0.0115359966,0.255165258,-0.949064608
714,1788503,1522550,0.27,-0.901,1.175,35.4,-26.2,-19.8,14.2,-12,-16.1,0.184148686,0.0110477004,0.254341258,-0.949339274
715,1790118,1522560,0.302,-1.098,1.132,22.8,-22.3,-28.4,14.2,-12,-16.1,0.183690909,0.0104983673,0.253761406,-0.949583422
716,1792510,1522560,0.32,-1.252,1.12,9.7,-18.3,-38.3,15.1,-12.1,-16.3,0.182988983,0.00994903409,0.253517258,-0.949797052
717,1796002,1522560,0.318,-1.354,1.124,-2.3,-14.5,-47.4,15.1,-12.1,-16.3,0.182103946,0.00939970092,0.253517258,-0.949980163
718,1797715,1522560,0.274,-1.381,1.094,-12.5,-11,-54,15.1,-12.1,-16.3,0.181035798,0.00881984924,0.253730888,-0.950132756
719,1800789,1522570,0.215,-1.312,1.053,-21.3,-7.6,-57.1,15.1,-12.1,-16.3,0.179906613,0.00823999756,0.254158147,-0.950193793
720,1803727,1522570,0.145,-1.193,1.007,-29.4,-4.3,-56.5,15.2,-11.7,-16.3,0.17874691,0.0077211829,0.254768517,-0.950285348
721,1806854,1522570,0.056,-1.038,0.966,-36.9,-0.9,-53.1,15.2,-11.7,-16.3,0.177678762,0.00726340526,0.25553148,-0.950285348
722,1807353,1522570,-0.093,-0.751,0.911,-43,2.2,-48.3,15.2,-11.7,-16.3,0.176671651,0.00686666463,0.256447035,-0.950193793
723,1810321,1522580,-0.139,-0.644,0.912,-46.2,4.5,-43.7,15.2,-11.7,-16.3,0.175725578,0.00656147954,0.257423627,-0.950132756
724,1812680,1522580,-0.15,-0.565,0.916,-46.3,5.3,-40.3,15.7,-11.1,-16.7,0.174871059,0.00625629444,0.25840022,-0.9500412
725,1815183,1522580,-0.101,-0.511,0.965,-44,4.1,-38.5,15.7,-11.1,-16.7,0.17404706,0.00595110935,0.259346294,-0.949919126
726,1818549,1522580,-0.05,-0.52,0.987,-40.9,1.3,-38.3,15.7,-11.1,-16.7,0.173253578,0.00561540574,0.260200812,-0.949858089
727,1820121,1522590,-0.002,-0.537,1.009,-38.4,-2.1,-39,15.7,-11.1,-16.7,0.172460097,0.00521866512,0.260994293,-0.949766533
728,1822754,1522590,0.032,-0.554,1.004,-37.4,-5.4,-40.7,15.4,-11.3,-16.9,0.171666616,0.00473036897,0.261757256,-0.949705496
729,1826056,1522590,0.056,-0.59,1.023,-38.1,-7.8,-43,15.4,-11.3,-16.9,0.170812098,0.0041810358,0.262520219,-0.949644459
730,1827673,1522590,0.048,-0.593,1.031,-39.9,-9.4,-45.6,15.4,-11.3,-16.9,0.169927061,0.00357066561,0.2633137,-0.949583422
731,1830269,1522600,0.036,-0.589,1.036,-42,-10.1,-48.1,15.4,-11.3,-16.9,0.168980987,0.00292977691,0.2641377,-0.949522385
732,1832589,1522600,0.024,-0.569,1.055,-43.5,-10.3,-50,13.7,-11,-16.8,0.168004395,0.0022583697,0.265022736,-0.949461348
733,1836749,1522600,0.017,-0.545,1.052,-44,-10.4,-51.3,13.7,-11,-16.8,0.166997284,0.00158696249,0.265907773,-0.949400311
734,1838953,1522600,0.025,-0.506,1.047,-43.9,-10.8,-51.7,13.7,-11,-16.8,0.165990173,0.000885036775,0.266762291,-0.949339274
735,1840964,1522610,0.038,-0.475,1.047,-42.9,-11.4,-50.9,13.7,-11,-16.8,0.165013581,0.000213629566,0.26761681,-0.949278237
736,1842690,1522610,0.046,-0.432,1.039,-41.2,-12.3,-49.1,17.3,-10.9,-17,0.164067507,-0.000457777642,0.268410291,-0.9492172
737,1845367,1522610,0.055,-0.346,1.003,-39,-13.4,-46.4,17.3,-10.9,-17,0.16318247,-0.00112918485,0.269173254,-0.949125645
738,1847515,1522610,0.056,-0.311,0.987,-36.5,-14.7,-43.5,17.3,-10.9,-17,0.162327952,-0.00183111057,0.269875179,-0.949064608
739,1851598,1522620,0.06,-0.279,0.976,-33.9,-15.8,-40.6,17.3,-10.9,-17,0.161626026,-0.00253303629,0.270546587,-0.949034089
740,1853854,1522620,0.064,-0.252,0.944,-31.2,-16.8,-37.8,17.3,-10.7,-17.2,0.1609241,-0.00320444349,0.271126438,-0.948973052
741,1856102,1522620,0.076,-0.256,0.924,-28.4,-17.7,-35.5,17.3,-10.7,-17.2,0.16031373,-0.0038758507,0.271645253,-0.948912015
742,1858426,1522620,0.084,-0.268,0.92,-25.8,-18.4,-33.3,17.3,-10.7,-17.2,0.15970336,-0.00454725791,0.27210303,-0.948881497
743,1860990,1522630,0.087,-0.3,0.912,-23.3,-18.8,-31.3,17.3,-10.7,-17.2,0.159184545,-0.00521866512,0.27253029,-0.948850978
744,1863179,1522630,0.09,-0.367,0.893,-20.9,-19,-29.4,17.3,-10.2,-17.2,0.158665731,-0.00585955382,0.272896512,-0.94882046
745,1865411,1522630,0.089,-0.41,0.881,-18.5,-19,-27.5,17.3,-10.2,-17.2,0.158207953,-0.00646992401,0.273201697,-0.94882046
746,1867751,1522630,0.093,-0.441,0.866,-16,-18.9,-25.7,17.3,-10.2,-17.2,0.157811213,-0.0070802942,0.273476363,-0.948789941
747,1870063,1522640,0.1,-0.481,0.854,-13.2,-18.9,-24.1,17.3,-10.2,-17.2,0.157414472,-0.00766014588,0.273659474,-0.948789941
748,1872692,1522640,0.119,-0.528,0.818,-10.2,-18.9,-22.5,17.4,-10.4,-17.4,0.15704825,-0.00823999756,0.273812067,-0.94882046
749,1876104,1522640,0.13,-0.541,0.799,-7,-18.9,-21.1,17.4,-10.4,-17.4,0.156712546,-0.00875881222,0.273903623,-0.948850978
750,1877639,1522640,0.142,-0.553,0.787,-3.8,-18.6,-19.7,17.4,-10.4,-17.4,0.15643788,-0.00927762688,0.273903623,-0.948881497
751,1880364,1522650,0.162,-0.529,0.759,-0.9,-18.1,-18.1,17.4,-10.4,-17.4,0.156163213,-0.00976592303,0.273873104,-0.948942534
752,1882635,1522650,0.178,-0.522,0.747,1.6,-17.4,-16.6,15.8,-10.2,-17.1,0.155919065,-0.0102237007,0.27375103,-0.949003571
753,1885092,1522650,0.19,-0.495,0.754,4,-16.5,-15.4,15.8,-10.2,-17.1,0.155705435,-0.0106509598,0.273628956,-0.949064608
754,1888500,1522650,0.207,-0.464,0.769,6.6,-15.6,-14.4,15.8,-10.2,-17.1,0.155491806,-0.0110477004,0.273415326,-0.949156163
755,1890087,1522660,0.263,-0.418,0.783,9.2,-14.5,-13.9,15.8,-10.2,-17.1,0.155308695,-0.011383404,0.273171178,-0.949247719
756,1893210,1522660,0.363,-0.396,0.804,11.5,-13.3,-13.4,15.2,-10.2,-16.9,0.155095065,-0.0117191076,0.272896512,-0.949369793
757,1895067,1522660,0.423,-0.398,0.829,13.2,-11.5,-13.3,15.2,-10.2,-16.9,0.154881436,-0.0119937742,0.272560808,-0.949491867
758,1898523,1522660,0.411,-0.417,0.877,14.4,-8.5,-13.8,15.2,-10.2,-16.9,0.154667806,-0.0122074038,0.272255623,-0.949613941
759,1900046,1522670,0.256,-0.417,0.92,16.6,-4.5,-14.5,15.2,-10.2,-16.9,0.154393139,-0.0123294778,0.271889401,-0.949766533
760,1903111,1522670,0.189,-0.388,0.886,21.4,-0.1,-14.7,14.2,-10.3,-17.2,0.154087954,-0.0123294778,0.271431623,-0.949949644
761,1905974,1522670,0.15,-0.333,0.829,28.1,3,-13.9,14.2,-10.3,-17.2,0.153782769,-0.0122684408,0.270851772,-0.950163274
762,1907499,1522670,0.131,-0.269,0.782,34.2,4.3,-12.7,14.2,-10.3,-17.2,0.153508103,-0.0121463668,0.270149846,-0.950407422
763,1910324,1522680,0.164,-0.121,0.699,37.9,3.7,-11.5,14.2,-10.3,-17.2,0.153263955,-0.0119937742,0.269386883,-0.95065157
764,1913287,1522680,0.355,-0.07,0.651,39.2,1.8,-10.2,13.3,-10.5,-17.1,0.153050325,-0.0118717002,0.268562883,-0.950926237
765,1916266,1522680,0.63,-0.014,0.592,38.1,-0.4,-9.3,13.3,-10.5,-17.1,0.152867214,-0.0118106632,0.267769402,-0.951170385
766,1917728,1522680,0.92,0.002,0.651,33.1,-1.4,-9.8,13.3,-10.5,-17.1,0.152684103,-0.0118106632,0.267067476,-0.951414533
767,1920836,1522690,0.905,0.026,0.741,22.9,0.4,-12.3,13.3,-10.5,-17.1,0.152439955,-0.0117801447,0.266609699,-0.951597644
768,1923824,1522690,0.83,0.012,0.841,10.2,5.7,-14.9,12.4,-10.2,-16.9,0.152073733,-0.0117191076,0.266396069,-0.951689199
769,1925252,1522690,0.687,-0.015,0.892,-0.3,13.5,-14.2,12.4,-10.2,-16.9,0.151707511,-0.0115359966,0.266457106,-0.951750237
770,1929096,1522690,0.687,-0.015,0.892,-0.3,13.5,-14.2,12.4,-10.2,-16.9,0.151707511,-0.0115359966,0.266457106,-0.951750237
771,1931291,1522700,0.513,-0.184,0.869,-9.7,27.5,-2.5,12.4,-10.2,-16.9,0.151188696,-0.0106204413,0.266945402,-0.951689199
772,1932743,1522700,0.535,-0.33,0.865,-13.5,31.5,4,17.1,-11.2,-17,0.150822474,-0.0109561449,0.266457106,-0.951902829
773,1935072,1522700,0.535,-0.33,0.865,-19,33.9,9.8,17.1,-11.2,-17,0.150822474,-0.0102542192,0.266945402,-0.951750237
774,1938336,1522700,0.544,-0.471,0.815,-25.4,35.1,15.9,17.1,-11.2,-17,0.150944548,-0.00952177496,0.26761681,-0.951567125
775,1940004,1522710,0.559,-0.546,0.795,-31.7,35.4,22.6,17.1,-11.2,-17,0.151219214,-0.00875881222,0.268379772,-0.951292459
776,1943634,1522710,0.578,-0.622,0.771,-36.6,35.3,28.9,13.8,-9.2,-16.6,0.151585437,-0.00799584948,0.269264809,-0.951017792
777,1945238,1522710,0.589,-0.685,0.756,-39.5,35.3,34.1,13.8,-9.2,-16.6,0.152104251,-0.00717184973,0.270210883,-0.95065157
778,1948490,1522710,0.595,-0.795,0.713,-40.1,35.6,37.9,13.8,-9.2,-16.6,0.152653584,-0.00634784997,0.271156957,-0.950315867
779,1950130,1522720,0.586,-0.838,0.694,-38.7,36.2,40.9,13.8,-9.2,-16.6,0.153294473,-0.00549333171,0.27210303,-0.949949644
780,1952795,1522720,0.566,-0.861,0.679,-35.7,36.8,43.4,13.9,-9.1,-16.9,0.15396588,-0.00457777642,0.272957549,-0.949583422
781,1956099,1522720,0.529,-0.896,0.664,-31.5,37.4,45.9,13.9,-9.1,-16.9,0.154698325,-0.00363170263,0.27375103,-0.949247719
782,1957598,1522720,0.513,-0.903,0.661,-26.3,37.7,48.5,13.9,-9.1,-16.9,0.155461287,-0.00265511032,0.274422437,-0.948942534
783,1960247,1522730,0.501,-0.903,0.661,-20.4,37.9,51.2,13.9,-9.1,-16.9,0.156315806,-0.001617481,0.27497177,-0.948637349
784,1963543,1522730,0.49,-0.887,0.657,-13.9,37.8,53.9,14.8,-9.1,-16.8,0.157200842,-0.00057985168,0.27539903,-0.948362682
785,1965148,1522730,0.474,-0.863,0.662,-7,37.4,56.6,14.8,-9.1,-16.8,0.158146916,0.000488296152,0.275673696,-0.948118534
786,1967788,1522730,0.47,-0.843,0.654,0,36.6,59.2,14.8,-9.1,-16.8,0.159154027,0.001617481,0.27579577,-0.947935423
787,1970819,1522740,0.463,-0.816,0.662,6.6,35.6,61.7,14.8,-9.1,-16.8,0.160222175,0.00274666585,0.27579577,-0.947752312
788,1972765,1522740,0.463,-0.808,0.662,12.9,34.4,64.1,16,-9.1,-16.3,0.161320841,0.0038758507,0.275643178,-0.947599719
789,1975120,1522740,0.456,-0.768,0.658,18.5,33.2,66.4,16,-9.1,-16.3,0.162511063,0.00503555406,0.275368511,-0.947477645
790,1978911,1522740,0.452,-0.756,0.662,23.7,32.1,69,16,-9.1,-16.3,0.163731803,0.00619525742,0.27497177,-0.947355571
791,1981156,1522750,0.456,-0.745,0.666,28.5,31.3,71.8,16,-9.1,-16.3,0.165013581,0.00738547929,0.274483474,-0.947264016
792,1982659,1522750,0.453,-0.701,0.681,32.7,30.6,74.7,15.6,-11.5,-16.3,0.166386914,0.00857570116,0.273903623,-0.947202979
793,1985261,1522750,0.461,-0.678,0.696,36.4,30,77.3,15.6,-11.5,-16.3,0.167790765,0.00979644154,0.273262734,-0.947111423
794,1988617,1522750,0.45,-0.658,0.705,39.4,29.7,79.7,15.6,-11.5,-16.3,0.169255654,0.0110171819,0.27253029,-0.947050386
795,1990133,1522760,0.454,-0.635,0.712,41.5,29.8,82,15.6,-11.5,-16.3,0.170751061,0.0122989593,0.271767327,-0.946989349
796,1992601,1522760,0.459,-0.599,0.716,42.7,30.3,83.9,15.4,-10,-16.2,0.172307505,0.0135807367,0.270973846,-0.946928312
797,1995051,1522760,0.455,-0.587,0.728,43.4,31.1,85.6,15.4,-10,-16.2,0.173894467,0.0148930326,0.270149846,-0.946836756
798,1997739,1522760,0.455,-0.579,0.731,43.4,31.8,87,15.4,-10,-16.2,0.175481429,0.0162053285,0.269356365,-0.946745201
799,2000975,1522770,0.459,-0.56,0.731,42.8,32.7,88.2,15.4,-10,-16.2,0.17709891,0.0175786615,0.268562883,-0.946653645
800,2003100,1522770,0.463,-0.552,0.731,41.8,33.6,89.3,15.1,-10.4,-16,0.178716391,0.0189214759,0.267799921,-0.946531571
801,2005617,1522770,0.467,-0.544,0.723,40.3,34.6,90.3,15.1,-10.4,-16,0.180364391,0.0203558458,0.267067476,-0.946409497
802,2007376,1522770,0.475,-0.545,0.727,38.3,35.7,91.2,15.1,-10.4,-16,0.182012391,0.0217902158,0.266365551,-0.946256905
803,2010962,1522780,0.483,-0.541,0.715,36,37,92.1,15.1,-10.4,-16,0.183690909,0.0231940672,0.265724662,-0.946073794
804,2012689,1522780,0.495,-0.537,0.707,33.3,38.5,92.9,14.9,-10.8,-15.6,0.185369427,0.0246589557,0.26514481,-0.945890683
805,2016289,1522780,0.503,-0.53,0.711,30.2,40.1,93.6,14.9,-10.8,-15.6,0.187047945,0.0261848811,0.264625996,-0.945646535
806,2017801,1522780,0.511,-0.526,0.706,26.6,41.8,94.2,14.9,-10.8,-15.6,0.188756981,0.0277108066,0.264198737,-0.945402387
807,2020925,1522790,0.523,-0.526,0.698,22.5,43.6,94.9,14.9,-10.8,-15.6,0.190435499,0.0292367321,0.263832514,-0.945097201
808,2022657,1522790,0.527,-0.526,0.69,17.9,45.5,95.6,14.6,-11.5,-15.8,0.192144536,0.0307626576,0.263618885,-0.944792016
809,2026102,1522790,0.535,-0.534,0.682,12.9,47.3,96.6,14.6,-11.5,-15.8,0.193853572,0.0323801386,0.263466292,-0.944425794
810,2027608,1522790,0.539,-0.538,0.678,7.6,49.1,97.7,14.6,-11.5,-15.8,0.19553209,0.033967101,0.263466292,-0.943998535
811,2030197,1522800,0.554,-0.562,0.655,1.9,51,99.1,14.6,-11.5,-15.8,0.197332682,0.0356151006,0.263557848,-0.943540757
812,2033286,1522800,0.554,-0.574,0.643,-4,52.9,100.6,14.3,-11.5,-15.7,0.198461867,0.0349436934,0.263863033,-0.943235572
813,2035190,1522800,0.561,-0.598,0.631,-10.1,54.9,102.1,14.3,-11.5,-15.7,0.200262459,0.0366527299,0.264229255,-0.942716758
814,2038477,1522800,0.565,-0.621,0.619,-16.1,56.6,103.9,14.3,-11.5,-15.7,0.20209357,0.0383312479,0.264717551,-0.942106388
815,2040223,1522810,0.556,-0.661,0.592,-22.2,58.2,105.8,14.3,-11.5,-15.7,0.203955199,0.0400402844,0.26535844,-0.941465499
816,2042607,1522810,0.548,-0.688,0.581,-28.4,59.6,108.1,14,-13.9,-15.3,0.205847346,0.0417798395,0.266090884,-0.940763573
817,2046121,1522810,0.536,-0.707,0.581,-34.5,60.9,110.3,14,-13.9,-15.3,0.207800531,0.043488876,0.266975921,-0.94000061
818,2048399,1522810,0.527,-0.731,0.574,-40.3,62.3,112.6,14,-13.9,-15.3,0.209784234,0.0452589496,0.267983032,-0.939207129
819,2050587,1522820,0.499,-0.769,0.559,-45.8,63.6,115.1,14,-13.9,-15.3,0.211798456,0.0470290231,0.269112217,-0.938322092
820,2052765,1522820,0.487,-0.789,0.563,-50.6,64.7,117.9,13.7,-14.5,-15.6,0.213904233,0.0488296152,0.270302438,-0.937406537
821,2056523,1522820,0.47,-0.816,0.564,-54.9,65.5,120.7,13.7,-14.5,-15.6,0.216040529,0.0506302072,0.271614734,-0.936460463
822,2058813,1522820,0.446,-0.851,0.537,-58.6,66,123.7,13.7,-14.5,-15.6,0.218237861,0.0524307993,0.272988067,-0.935453352
823,2061018,1522830,0.43,-0.862,0.518,-61.8,66.2,126.5,13.7,-14.5,-15.6,0.220496231,0.0542313913,0.274422437,-0.934385205
824,2062671,1522830,0.417,-0.874,0.499,-64.6,66,129.4,13.3,-15,-15.6,0.222815638,0.0560319834,0.275856807,-0.933286538
825,2064994,1522830,0.398,-0.881,0.5,-67.1,65.5,131.8,13.3,-15,-15.6,0.225196081,0.0578325755,0.277413251,-0.932157353
826,2068560,1522830,0.366,-0.884,0.481,-69,64.8,133.9,13.3,-15,-15.6,0.227607044,0.059602649,0.278969695,-0.93099765
827,2070027,1522840,0.354,-0.884,0.477,-70.1,63.8,135.4,13.3,-15,-15.6,0.230048524,0.0614032411,0.280526139,-0.929807428
828,2073330,1522840,0.334,-0.876,0.493,-70.4,62.6,136.5,13.4,-15.1,-15.8,0.232520524,0.0631733146,0.282082583,-0.928617206
829,2075017,1522840,0.31,-0.867,0.502,-69.7,61.4,137.3,13.4,-15.1,-15.8,0.235023041,0.0648823511,0.283608509,-0.927396466
830,2078624,1522840,0.275,-0.866,0.518,-68,60.1,138,13.4,-15.1,-15.8,0.237525559,0.0666219062,0.285103916,-0.926175726
831,2081006,1522850,0.255,-0.854,0.538,-65.2,58.7,138.8,13.4,-15.1,-15.8,0.240089114,0.0683309427,0.286538285,-0.924954985
832,2083162,1522850,0.22,-0.849,0.555,-61.5,57.2,139.8,12.9,-11,-14,0.241706595,0.0674764245,0.289468062,-0.923673208
833,2085261,1522850,0.208,-0.849,0.567,-57.1,55.7,140.9,12.9,-11,-14,0.24427015,0.0692159795,0.290719321,-0.922482986
834,2087691,1522850,0.192,-0.853,0.571,-52.2,54.3,141.9,12.9,-11,-14,0.246864223,0.0708944975,0.291848506,-0.921323283
835,2090055,1522860,0.188,-0.853,0.591,-47.1,52.9,142.7,12.9,-11,-14,0.249458296,0.0726340526,0.292855617,-0.920163579
836,2092509,1522860,0.176,-0.852,0.603,-41.9,51.6,143.4,12.5,-13.8,-17.8,0.252082888,0.0743736076,0.293740654,-0.919003876
837,2096093,1522860,0.161,-0.848,0.635,-36.8,50.2,143.6,12.5,-13.8,-17.8,0.25470748,0.0760826441,0.294534135,-0.91790521
838,2097646,1522860,0.153,-0.844,0.651,-32,49.1,143.5,12.5,-13.8,-17.8,0.257301553,0.0778221992,0.295205542,-0.916806543
839,2100116,1522870,0.145,-0.836,0.651,-27.5,48.3,143.1,12.5,-13.8,-17.8,0.259895627,0.0795617542,0.295785394,-0.915738395
840,2102863,1522870,0.137,-0.832,0.655,-23.6,47.7,142.4,11.9,-12.8,-17.4,0.2624897,0.0813013092,0.29627369,-0.914700766
841,2106137,1522870,0.118,-0.804,0.636,-20,47.2,141.7,11.9,-12.8,-17.4,0.265022736,0.0830408643,0.296700949,-0.913663137
842,2107765,1522870,0.114,-0.788,0.624,-16.9,46.6,140.6,11.9,-12.8,-17.4,0.267555773,0.0847804193,0.297036653,-0.912656026
843,2110621,1522880,0.114,-0.772,0.636,-14.3,46,139.3,11.9,-12.8,-17.4,0.27005829,0.0865199744,0.297341838,-0.911648915
844,2112862,1522880,0.099,-0.725,0.644,-12.1,45.6,137.7,12.3,-11.9,-17.5,0.27253029,0.0882290109,0.297585986,-0.910672323
845,2115391,1522880,0.099,-0.701,0.64,-10.4,45.4,136.1,12.3,-11.9,-17.5,0.27497177,0.0899380474,0.297799615,-0.90969573
846,2117508,1522880,0.096,-0.681,0.628,-9.4,45.8,134.4,12.3,-11.9,-17.5,0.277352214,0.0916776025,0.297982727,-0.908749657
847,2120097,1522890,0.088,-0.666,0.62,-9.4,46.5,132.9,12.3,-11.9,-17.5,0.279702139,0.0934171575,0.298196356,-0.907773064
848,2123351,1522890,0.084,-0.634,0.601,-10.4,47.3,131.4,11.4,-12.2,-17.7,0.282021546,0.0951567125,0.298409986,-0.906796472
849,2125244,1522890,0.065,-0.626,0.594,-12.1,48,129.9,11.4,-12.2,-17.7,0.284310434,0.0968657491,0.298684652,-0.90581988
850,2128465,1522890,0.053,-0.618,0.574,-14.4,48.6,128.4,11.4,-12.2,-17.7,0.286538285,0.0985747856,0.298989837,-0.904843287
851,2130638,1522900,0.029,-0.613,0.559,-17,49.4,127.1,11.4,-12.2,-17.7,0.288766137,0.100283822,0.299386578,-0.903805658
852,2133498,1522900,-0.034,-0.596,0.506,-20.1,50.4,125.9,11.2,-13.6,-15.7,0.290963469,0.10196234,0.299813837,-0.902768029
853,2135714,1522900,-0.065,-0.584,0.495,-23.8,51.3,124.7,11.2,-13.6,-15.7,0.293160802,0.10361034,0.300332652,-0.901699881
854,2137997,1522900,-0.097,-0.567,0.481,-28.3,52,123.6,11.2,-13.6,-15.7,0.295297098,0.105288858,0.300943022,-0.900601215
855,2140279,1522910,-0.137,-0.562,0.474,-33.2,52.6,122.3,11.2,-13.6,-15.7,0.297433393,0.106906339,0.301644948,-0.89947203
856,2142982,1522910,-0.22,-0.541,0.492,-38.2,53.2,120.9,11,-13.7,-16.3,0.299539171,0.108493301,0.302468947,-0.898312326
857,2146375,1522910,-0.263,-0.544,0.497,-42.7,53.7,119.6,11,-13.7,-16.3,0.301644948,0.110080264,0.303353984,-0.897122105
858,2148545,1522910,-0.303,-0.547,0.51,-46.5,54.1,118.4,11,-13.7,-16.3,0.303720206,0.111606189,0.304361095,-0.895901364
859,2150823,1522920,-0.343,-0.558,0.522,-49.7,54.3,117.4,11,-13.7,-16.3,0.305764946,0.113132115,0.305398724,-0.894650105
860,2152996,1522920,-0.406,-0.584,0.548,-52.7,54.2,116.8,10.9,-13.7,-16.3,0.307809687,0.114597003,0.306497391,-0.893368328
861,2155706,1522920,-0.438,-0.591,0.56,-55.5,53.9,116.3,10.9,-13.7,-16.3,0.309854427,0.116061892,0.307657094,-0.89208655
862,2157524,1522920,-0.462,-0.602,0.565,-58.2,53.3,115.8,10.9,-13.7,-16.3,0.311899167,0.117496261,0.308847316,-0.890774255
863,2160213,1522930,-0.506,-0.624,0.574,-60.7,52.6,115.1,10.9,-13.7,-16.3,0.313943907,0.118869594,0.310098575,-0.88943144
864,2164283,1522930,-0.522,-0.624,0.574,-63.1,51.7,113.8,10.9,-13.5,-16.2,0.315958129,0.120212409,0.311380352,-0.888088626
865,2165036,1522930,-0.534,-0.636,0.571,-65,50.8,112,10.9,-13.5,-16.2,0.317941832,0.121524705,0.312692648,-0.886745811
866,2167825,1522930,-0.546,-0.647,0.579,-66.1,49.6,109.5,10.9,-13.5,-16.2,0.319895016,0.122745445,0.314004944,-0.885402997
867,2170974,1522940,-0.57,-0.658,0.587,-66.2,48.3,106.4,10.9,-13.5,-16.2,0.321817682,0.123966185,0.315347758,-0.884060183
868,2172694,1522940,-0.57,-0.666,0.595,-64.9,47,103.1,10,-13.8,-15.5,0.323648793,0.125125889,0.316660054,-0.882778405
869,2174958,1522940,-0.57,-0.682,0.611,-62.4,45.8,99.6,10,-13.8,-15.5,0.325418867,0.126255074,0.317911313,-0.881496628
870,2178476,1522940,-0.574,-0.69,0.623,-58.7,45,96.3,10,-13.8,-15.5,0.327127903,0.12735374,0.319101535,-0.880275887
871,2180012,1522950,-0.574,-0.701,0.662,-54.3,44.3,93.3,10,-13.8,-15.5,0.328745384,0.128482925,0.320200201,-0.879116184
872,2182719,1522950,-0.578,-0.697,0.677,-49.7,43.9,90.7,10.2,-13.9,-18.7,0.330332347,0.12961211,0.321207312,-0.877986999
873,2185717,1522950,-0.578,-0.689,0.705,-45.4,43.5,88.4,10.2,-13.9,-18.7,0.331827754,0.130741295,0.322122868,-0.876918851
874,2187441,1522950,-0.585,-0.662,0.74,-41.6,43.3,85.9,10.2,-13.9,-18.7,0.333292642,0.131870479,0.323007904,-0.875881222
875,2191012,1522960,-0.589,-0.634,0.752,-37.9,43.5,83.4,10.2,-13.9,-18.7,0.334696493,0.132999664,0.323801386,-0.874874111
876,2192484,1522960,-0.596,-0.61,0.771,-34.3,44,80.4,10.1,-13.8,-15.7,0.336008789,0.134159368,0.32453383,-0.873897519
877,2195489,1522960,-0.604,-0.575,0.779,-30.6,44.6,77.1,10.1,-13.8,-15.7,0.337260048,0.135319071,0.325235755,-0.872981964
878,2198528,1522960,-0.618,-0.519,0.799,-27.1,45.3,73.6,10.1,-13.8,-15.7,0.338419752,0.136509293,0.325876644,-0.872127445
879,2200008,1522970,-0.634,-0.488,0.796,-24.2,45.9,70,10.1,-13.8,-15.7,0.339487899,0.137699515,0.326456496,-0.871303446
880,2202760,1522970,-0.653,-0.448,0.796,-22.2,46.6,66.4,9.9,-13.6,-15.5,0.34049501,0.138889737,0.327036348,-0.870509964
881,2205514,1522970,-0.672,-0.412,0.789,-21.2,47.4,62.7,9.9,-13.6,-15.5,0.341410566,0.140110477,0.327585681,-0.869747002
882,2208565,1522970,-0.735,-0.36,0.786,-21.1,48.2,58.9,9.9,-13.6,-15.5,0.342234565,0.14127018,0.328165532,-0.869014557
883,2210067,1522980,-0.766,-0.32,0.779,-21.8,49,55,9.9,-13.6,-15.5,0.342997528,0.142429884,0.328775903,-0.868282113
884,2212744,1522980,-0.81,-0.291,0.784,-23.3,49.8,51.4,10.3,-13.7,-15.8,0.343699454,0.143559069,0.329416791,-0.867580187
885,2216106,1522980,-0.861,-0.254,0.781,-25.4,50.6,47.9,10.3,-13.7,-15.8,0.344309824,0.144688253,0.330149236,-0.866878262
886,2217650,1522980,-0.955,-0.193,0.788,-27.9,51.5,44.9,10.3,-13.7,-15.8,0.344889676,0.14578692,0.330912198,-0.866176336
887,2220401,1522990,-1.006,-0.165,0.781,-30.6,52.2,42.4,10.3,-13.7,-15.8,0.34540849,0.146824549,0.331766717,-0.86547441
888,2223192,1522990,-1.061,-0.124,0.775,-33.6,52.9,40.2,10,-13.7,-16.8,0.345896786,0.147862178,0.332651753,-0.864741966
889,2225315,1522990,-1.14,-0.091,0.757,-36.4,53.2,38.3,10,-13.7,-16.8,0.346354564,0.148869289,0.333628346,-0.864009522
890,2229126,1522990,-1.18,-0.07,0.754,-39.1,53.3,36.6,10,-13.7,-16.8,0.346781823,0.149845882,0.334635456,-0.863277078
891,2230607,1523000,-1.219,-0.054,0.755,-41.1,52.8,35,10,-13.7,-16.8,0.347178564,0.150791955,0.335703604,-0.862544633
892,2232487,1523000,-1.262,-0.045,0.756,-42.8,51.9,33.5,10.2,-13.8,-18.2,0.347575304,0.151707511,0.336802271,-0.861812189
893,2236105,1523000,-1.278,-0.052,0.761,-44.1,50.8,32.1,10.2,-13.8,-18.2,0.347941527,0.152562029,0.337900937,-0.861049226
894,2238231,1523000,-1.287,-0.068,0.757,-45.5,49.8,30.7,10.2,-13.8,-18.2,0.348307749,0.15335551,0.339030122,-0.860316782
895,2240364,1523010,-1.291,-0.084,0.773,-46.8,49,29.4,10.2,-13.8,-18.2,0.348643452,0.154148991,0.340189825,-0.859584338
896,2243493,1523010,-1.295,-0.095,0.773,-48.1,48.1,28.1,10.3,-13.6,-17.7,0.348979156,0.154911954,0.341349528,-0.858851894
897,2245618,1523010,-1.3,-0.142,0.765,-49.7,47.4,26.6,10.3,-13.6,-17.7,0.349314859,0.15561388,0.342570269,-0.858119449
898,2248615,1523010,-1.3,-0.174,0.777,-51.8,46.5,25.1,10.3,-13.6,-17.7,0.349589526,0.156285287,0.343821528,-0.857387005
899,2250162,1523020,-1.304,-0.197,0.774,-54.7,45.8,23.3,10.3,-13.6,-17.7,0.349894711,0.156895657,0.345103305,-0.856624042
900,2252774,1523020,-1.317,-0.209,0.762,-58.1,45.5,21.2,10.2,-13.3,-18.2,0.350138859,0.15744499,0.346476638,-0.855891598
901,2256183,1523020,-1.329,-0.224,0.739,-61.9,45.3,18.9,10.2,-13.3,-18.2,0.350352489,0.157963805,0.347911008,-0.855098117
902,2258462,1523020,-1.337,-0.22,0.731,-65.9,45.1,16.4,10.2,-13.3,-18.2,0.3505356,0.158421583,0.349406415,-0.854335154
903,2260712,1523030,-1.353,-0.216,0.716,-70.2,44.8,13.8,10.2,-13.3,-18.2,0.350718711,0.158848842,0.351023896,-0.853511155
904,2262911,1523030,-1.368,-0.184,0.697,-74.4,44.4,11,10.2,-13.3,-18.7,0.350840785,0.159184545,0.352702414,-0.852717673
905,2265897,1523030,-1.376,-0.16,0.693,-78.6,44,8.2,10.2,-13.3,-18.7,0.35093234,0.159459212,0.354472488,-0.851893674
906,2268249,1523030,-1.379,-0.141,0.686,-82.1,43.6,5.6,10.2,-13.3,-18.7,0.350962859,0.159672842,0.356334117,-0.851069674
907,2270595,1523040,-1.375,-0.113,0.689,-85,43.2,3,10.2,-13.3,-18.7,0.350993377,0.159855953,0.358226264,-0.850215155
908,2272706,1523040,-1.363,-0.09,0.697,-87.4,42.7,0.7,10.7,-13,-19,0.350962859,0.159978027,0.360179449,-0.849391156
909,2274965,1523040,-1.351,-0.09,0.716,-89.3,42.2,-1.3,10.7,-13,-19,0.35093234,0.160069582,0.362163152,-0.848536637
910,2277996,1523040,-1.343,-0.086,0.735,-90.9,42,-3,10.7,-13,-19,0.350840785,0.160130619,0.364177374,-0.847682119
911,2280121,1523050,-1.339,-0.09,0.751,-92,42.2,-4.4,10.7,-13,-19,0.350749229,0.160191656,0.366191595,-0.846858119
912,2283126,1523050,-1.315,-0.099,0.789,-92.6,42.6,-5.8,10.9,-12.6,-18.4,0.350627155,0.160222175,0.368266854,-0.846003601
913,2285360,1523050,-1.311,-0.107,0.805,-92.6,43,-7.1,10.9,-12.6,-18.4,0.350474563,0.160252693,0.370342112,-0.845149083
914,2288560,1523050,-1.303,-0.122,0.808,-92.7,43.1,-8.4,10.9,-12.6,-18.4,0.350291452,0.160252693,0.372386853,-0.844325083
915,2290664,1523060,-1.299,-0.15,0.836,-92.6,42.9,-9.4,10.9,-12.6,-18.4,0.350077822,0.160252693,0.374462111,-0.843501083
916,2293659,1523060,-1.3,-0.166,0.84,-92.5,42.6,-10.4,11.4,-12.2,-18.5,0.349864193,0.160252693,0.37653737,-0.842677084
917,2295120,1523060,-1.296,-0.174,0.844,-91.9,42.2,-11.3,11.4,-12.2,-18.5,0.349650563,0.160222175,0.37858211,-0.841853084
918,2298150,1523060,-1.292,-0.186,0.847,-90.8,41.8,-12.3,11.4,-12.2,-18.5,0.349375896,0.160222175,0.380596332,-0.841029084
919,2301252,1523070,-1.288,-0.197,0.855,-88.9,41.3,-13.2,11.4,-12.2,-18.5,0.34910123,0.160191656,0.382610553,-0.840266121
920,2303405,1523070,-1.276,-0.202,0.859,-86.3,40.9,-14,11.7,-11.8,-18.6,0.348796045,0.160161138,0.384533219,-0.839503159
921,2306560,1523070,-1.272,-0.217,0.859,-83,40.3,-14.7,11.7,-11.8,-18.6,0.34849086,0.160130619,0.386425367,-0.838770714
922,2308627,1523070,-1.257,-0.218,0.862,-79.3,39.6,-15.3,11.7,-11.8,-18.6,0.348124638,0.160130619,0.388225959,-0.838068789
923,2310214,1523080,-1.229,-0.222,0.854,-75.4,38.7,-15.9,11.7,-11.8,-18.6,0.347788934,0.160130619,0.389965514,-0.8374279
924,2312612,1523080,-1.221,-0.226,0.846,-71.8,37.9,-16.4,11.9,-11.2,-18.8,0.347422712,0.160130619,0.391613514,-0.83681753
925,2316490,1523080,-1.213,-0.219,0.841,-68.4,37.2,-16.7,11.9,-11.2,-18.8,0.347025971,0.160161138,0.393200476,-0.83620716
926,2318750,1523080,-1.205,-0.207,0.837,-65.2,36.7,-17,11.9,-11.2,-18.8,0.346629231,0.160191656,0.394726402,-0.835657826
927,2321003,1523090,-1.193,-0.18,0.825,-62.3,36.2,-17.1,11.9,-11.2,-18.8,0.34623249,0.160222175,0.39619129,-0.835108493
928,2323270,1523090,-1.188,-0.16,0.813,-59.5,35.8,-17.1,12.2,-10.9,-19,0.345805231,0.160283212,0.39762566,-0.834620197
929,2325501,1523090,-1.18,-0.145,0.805,-56.7,35.2,-17,12.2,-10.9,-19,0.34540849,0.160344249,0.398968474,-0.834131901
930,2327800,1523090,-1.156,-0.11,0.785,-53.7,34.6,-16.9,12.2,-10.9,-19,0.344981231,0.160435804,0.40028077,-0.833643605
931,2330160,1523100,-1.148,-0.099,0.785,-50.8,33.9,-16.7,12.2,-10.9,-19,0.344553972,0.16052736,0.401501511,-0.833216346
932,2334233,1523100,-1.136,-0.099,0.78,-48,33.2,-16.4,10.4,-11,-19,0.344126713,0.160618915,0.402691733,-0.832789087
933,2336482,1523100,-1.124,-0.091,0.772,-45.3,32.6,-15.9,10.4,-11,-19,0.343699454,0.160710471,0.403820917,-0.832422864
934,2338623,1523100,-1.097,-0.104,0.772,-42.8,31.9,-15.3,10.4,-11,-19,0.343302713,0.160863063,0.404889065,-0.832026124
935,2340202,1523110,-1.089,-0.104,0.767,-40.4,31,-14.7,10.4,-11,-19,0.342905972,0.160985137,0.405896176,-0.83169042
936,2343230,1523110,-1.077,-0.112,0.755,-38.1,30.1,-14.1,14.1,-10.9,-19.5,0.342509232,0.161107212,0.406872768,-0.831354717
937,2345026,1523110,-1.069,-0.116,0.755,-36.3,29.2,-13.6,14.1,-10.9,-19.5,0.34214301,0.161259804,0.407788324,-0.831019013
938,2347736,1523110,-1.05,-0.132,0.743,-34.9,28.4,-12.9,14.1,-10.9,-19.5,0.341776788,0.16135136,0.40867336,-0.830713828
939,2349952,1523120,-1.042,-0.136,0.747,-33.8,27.7,-12.1,14.1,-10.9,-19.5,0.341410566,0.161534471,0.409558397,-0.830378124
940,2353224,1523120,-1.034,-0.144,0.751,-32.7,27.2,-11.3,14.4,-10,-19.4,0.341074862,0.161687063,0.410382397,-0.830072939
941,2357276,1523120,-1.022,-0.145,0.742,-31.6,26.6,-10.4,14.4,-10,-19.4,0.340769677,0.161839656,0.411206397,-0.829798273
942,2357743,1523120,-0.998,-0.157,0.746,-30.5,26,-9.3,14.4,-10,-19.4,0.340464492,0.161992248,0.411969359,-0.829493088
943,2361029,1523130,-0.994,-0.157,0.749,-29.4,25.3,-8.2,14.4,-10,-19.4,0.340189825,0.162175359,0.412732322,-0.829187902
944,2362529,1523130,-0.982,-0.153,0.745,-28.4,24.5,-7.1,14.7,-9.8,-19.5,0.339945677,0.162327952,0.413464766,-0.828913236
945,2366302,1523130,-0.963,-0.162,0.756,-27.5,23.9,-6,14.7,-9.8,-19.5,0.339732047,0.162511063,0.414166692,-0.828608051
946,2368244,1523130,-0.951,-0.166,0.76,-26.4,23.3,-4.7,14.7,-9.8,-19.5,0.339518418,0.162694174,0.414807581,-0.828333384
947,2370472,1523140,-0.931,-0.178,0.76,-25.3,22.8,-3.6,14.7,-9.8,-19.5,0.339335307,0.162877285,0.415448469,-0.828058718
948,2372418,1523140,-0.919,-0.186,0.767,-24.1,22.1,-2.5,14.6,-10,-19.6,0.339182714,0.163090915,0.41605884,-0.827753533
949,2375753,1523140,-0.892,-0.199,0.759,-23,21.5,-1.5,14.6,-10,-19.6,0.339030122,0.163274026,0.416638691,-0.827478866
950,2377546,1523140,-0.884,-0.203,0.762,-22.1,20.9,-0.6,14.6,-10,-19.6,0.338908048,0.163487655,0.417218543,-0.827234718
951,2380462,1523150,-0.884,-0.199,0.754,-21.6,20.4,0.1,14.6,-10,-19.6,0.338816492,0.163701285,0.417737358,-0.826960051
952,2383549,1523150,-0.872,-0.199,0.746,-21.3,20.1,0.8,13,-9.9,-19.3,0.338724937,0.163914914,0.418286691,-0.826685385
953,2385722,1523150,-0.872,-0.203,0.742,-21.1,19.8,1.4,13,-9.9,-19.3,0.338633381,0.164128544,0.418805506,-0.826410718
954,2387473,1523150,-0.876,-0.195,0.735,-20.9,19.6,1.8,13,-9.9,-19.3,0.338572344,0.164342174,0.41932432,-0.826136052
955,2390258,1523160,-0.872,-0.191,0.739,-20.7,19.5,2.1,13,-9.9,-19.3,0.338480789,0.164555803,0.419843135,-0.825861385
956,2392511,1523160,-0.868,-0.188,0.731,-20.4,19.4,2.2,13.3,-9.6,-19.5,0.338419752,0.164769433,0.420331431,-0.825586718
957,2395223,1523160,-0.856,-0.184,0.722,-20,19.1,2.3,13.3,-9.6,-19.5,0.338358715,0.165013581,0.420819727,-0.825312052
958,2398212,1523160,-0.848,-0.184,0.718,-19.5,18.6,2.3,13.3,-9.6,-19.5,0.338297678,0.16522721,0.421308023,-0.825037385
959,2400037,1523170,-0.84,-0.184,0.714,-19,18.1,2.5,13.3,-9.6,-19.5,0.338267159,0.165410321,0.421765801,-0.824793237
960,2403383,1523170,-0.828,-0.189,0.706,-18.7,17.6,2.6,12.6,-9.5,-19.7,0.338206122,0.165623951,0.422223579,-0.824518571
961,2406642,1523170,-0.824,-0.189,0.698,-18.8,17.1,2.5,12.6,-9.5,-19.7,0.338175604,0.165807062,0.422681356,-0.824274422
962,2408194,1523170,-0.824,-0.189,0.698,-19,16.6,2.3,12.6,-9.5,-19.7,0.338114566,0.165990173,0.423139134,-0.824030274
963,2411134,1523180,-0.813,-0.197,0.694,-19.3,16.3,2,12.6,-9.5,-19.7,0.338084048,0.166173284,0.423596912,-0.823755608
964,2412562,1523180,-0.801,-0.201,0.69,-19.5,16,1.9,11.5,-9.7,-19.7,0.338053529,0.166325877,0.424054689,-0.82351146
965,2415598,1523180,-0.797,-0.201,0.682,-19.6,15.7,1.7,11.5,-9.7,-19.7,0.337992492,0.166478469,0.424542985,-0.823267312
966,2418622,1523180,-0.797,-0.205,0.678,-19.6,15.4,1.7,11.5,-9.7,-19.7,0.337961974,0.166631062,0.425000763,-0.823023164
967,2420124,1523190,-0.789,-0.209,0.674,-19.6,14.9,1.9,11.5,-9.7,-19.7,0.337931455,0.166783654,0.425458541,-0.822748497
968,2423198,1523190,-0.789,-0.217,0.662,-19.3,14.4,2,9.8,-9.8,-19.9,0.337900937,0.166905728,0.4258858,-0.822504349
969,2426148,1523190,-0.781,-0.225,0.67,-18.8,13.9,2.2,9.8,-9.8,-19.9,0.337870418,0.167027802,0.426313059,-0.822260201
970,2428047,1523190,-0.774,-0.237,0.662,-17.9,13.5,2.4,9.8,-9.8,-19.9,0.337870418,0.167180395,0.426740318,-0.822046571
971,2429957,1523200,-0.762,-0.265,0.662,-16.8,13.3,2.4,9.8,-9.8,-19.9,0.3378399,0.167302469,0.427137059,-0.821802423
972,2433669,1523200,-0.754,-0.277,0.669,-15.3,13,2.4,15.2,-10,-19.3,0.338358715,0.168187506,0.426740318,-0.821619312
973,2435174,1523200,-0.747,-0.297,0.665,-13.7,12.7,2.5,15.2,-10,-19.3,0.338358715,0.168370617,0.427076022,-0.821405683
974,2437781,1523200,-0.739,-0.312,0.669,-12,12.2,2.6,15.2,-10,-19.3,0.338328196,0.168523209,0.427350688,-0.82125309
975,2440102,1523210,-0.732,-0.348,0.657,-10.3,11.8,2.7,15.2,-10,-19.3,0.338297678,0.16870632,0.427625355,-0.821069979
976,2442636,1523210,-0.724,-0.364,0.661,-8.5,11.6,2.7,11.5,-8.2,-19.2,0.338297678,0.168858913,0.427838984,-0.820947905
977,2446647,1523210,-0.724,-0.376,0.665,-6.6,11.3,2.8,11.5,-8.2,-19.2,0.338267159,0.169042024,0.428052614,-0.820825831
978,2448800,1523210,-0.724,-0.387,0.665,-4.5,10.9,2.8,11.5,-8.2,-19.2,0.338206122,0.169255654,0.428205206,-0.820703757
979,2450993,1523220,-0.724,-0.395,0.673,-2.3,10.6,2.8,11.5,-8.2,-19.2,0.338175604,0.169438765,0.428296762,-0.820612201
980,2452646,1523220,-0.721,-0.407,0.673,0.2,10.2,3,12.2,-8.2,-19.7,0.338145085,0.169652394,0.428357799,-0.820581683
981,2456828,1523220,-0.725,-0.403,0.673,3.2,9.8,3.4,12.2,-8.2,-19.7,0.338084048,0.169896542,0.428357799,-0.820520646
982,2457756,1523220,-0.713,-0.403,0.661,6.3,9.3,3.9,12.2,-8.2,-19.7,0.338053529,0.17014069,0.428296762,-0.820520646
983,2460112,1523230,-0.709,-0.411,0.664,9.4,8.7,4.2,12.2,-8.2,-19.7,0.338023011,0.170415357,0.428174688,-0.820551164
984,2463809,1523230,-0.705,-0.412,0.657,12.5,8,4.5,12.8,-8.1,-19.3,0.337961974,0.170690023,0.427991577,-0.820612201
985,2465370,1523230,-0.697,-0.412,0.656,15.6,7.2,4.9,12.8,-8.1,-19.3,0.337931455,0.17096469,0.427747429,-0.820703757
986,2467721,1523230,-0.689,-0.416,0.648,18.4,6.5,5.1,12.8,-8.1,-19.3,0.337900937,0.171269875,0.427472762,-0.820795312
987,2470221,1523240,-0.681,-0.416,0.648,20.9,6,5,12.8,-8.1,-19.3,0.3378399,0.17157506,0.42710654,-0.820947905
988,2472482,1523240,-0.677,-0.42,0.648,23.1,5.7,4.9,15.1,-8.1,-19.3,0.337809381,0.171910764,0.426709799,-0.821100497
989,2476573,1523240,-0.677,-0.424,0.644,25.1,5.2,4.8,15.1,-8.1,-19.3,0.337748344,0.172215949,0.426252022,-0.821283609
990,2478794,1523240,-0.67,-0.428,0.636,27.1,4.9,4.6,15.1,-8.1,-19.3,0.337687307,0.172551653,0.425824763,-0.82146672
991,2481008,1523250,-0.666,-0.432,0.636,29.1,4.5,4.5,15.1,-8.1,-19.3,0.337595752,0.172887356,0.425305948,-0.821680349
992,2482578,1523250,-0.654,-0.432,0.628,31,4.2,4.5,14.2,-10.8,-19.4,0.338328196,0.174352245,0.423657949,-0.821924497
993,2485241,1523250,-0.654,-0.432,0.628,32.6,4,4.5,14.2,-10.8,-19.4,0.338267159,0.174718467,0.423078097,-0.822199164
994,2488477,1523250,-0.654,-0.432,0.628,33.8,3.7,4.5,14.2,-10.8,-19.4,0.338175604,0.175023652,0.422498245,-0.822443312
995,2490074,1523260,-0.646,-0.429,0.628,34.7,3.5,4.4,14.2,-10.8,-19.4,0.338084048,0.175420392,0.421887875,-0.822717978
996,2492623,1523260,-0.638,-0.425,0.624,35.1,3.5,4.3,14.6,-8.4,-19.2,0.337992492,0.175786615,0.421246986,-0.822992645
997,2495651,1523260,-0.638,-0.425,0.624,35.3,3.7,4.2,14.6,-8.4,-19.2,0.337900937,0.176152837,0.420636616,-0.82329783
998,2497858,1523260,-0.63,-0.429,0.623,35.2,3.8,4.1,14.6,-8.4,-19.2,0.337809381,0.176519059,0.419995727,-0.823572497
999,2500144,1523270,-0.63,-0.433,0.627,35.2,4,3.9,14.6,-8.4,-19.2,0.337717826,0.176885281,0.419385357,-0.823847163
1000,2502858,1523270,-0.622,-0.441,0.631,35.2,4.2,3.6,14.5,-8.5,-19.1,0.337595752,0.177251503,0.418774987,-0.82412183
1001,2506827,1523270,-0.61,-0.461,0.642,35.5,4.3,3.4,14.5,-8.5,-19.1,0.337473678,0.177648244,0.418164617,-0.824396496
1002,2507431,1523270,-0.611,-0.469,0.65,35.7,4.3,3.4,14.5,-8.5,-19.1,0.337382122,0.178014466,0.417523728,-0.824671163
1003,2510527,1523280,-0.607,-0.485,0.646,35.5,4.5,3.4,14.5,-8.5,-19.1,0.337260048,0.178380688,0.416913358,-0.824976348
1004,2512610,1523280,-0.603,-0.492,0.642,35,4.8,3.3,14.6,-8.8,-19.1,0.337137974,0.17874691,0.416302988,-0.825251015
1005,2515104,1523280,-0.599,-0.504,0.642,34.2,5.1,3.3,14.6,-8.8,-19.1,0.3370159,0.179143651,0.415723136,-0.825495163
1006,2518490,1523280,-0.603,-0.508,0.642,33.2,5.3,3.4,14.6,-8.8,-19.1,0.336893826,0.179509873,0.415143284,-0.825769829
1007,2520040,1523290,-0.603,-0.508,0.639,32.1,5.4,3.5,14.6,-8.8,-19.1,0.336802271,0.179876095,0.414593951,-0.826013977
1008,2522476,1523290,-0.603,-0.508,0.639,31.2,5.6,3.6,14.7,-10,-19,0.336680197,0.180242317,0.414044618,-0.826227607
1009,2525998,1523290,-0.603,-0.504,0.639,30.4,5.8,3.7,14.7,-10,-19,0.336558123,0.180608539,0.413525803,-0.826471755
1010,2527545,1523290,-0.607,-0.5,0.635,29.6,5.8,3.8,14.7,-10,-19,0.336466567,0.180944243,0.413006989,-0.826685385
1011,2530022,1523300,-0.603,-0.496,0.638,28.8,5.9,4.1,14.7,-10,-19,0.336375011,0.181310465,0.412518693,-0.826899014
1012,2533511,1523300,-0.603,-0.504,0.635,28.1,6,4.6,13.8,-9.5,-18.9,0.33661916,0.181981872,0.411420026,-0.827173681
1013,2535983,1523300,-0.595,-0.504,0.638,27.3,6.1,5.1,13.8,-9.5,-18.9,0.336558123,0.182348094,0.410962249,-0.827356792
1014,2538187,1523300,-0.591,-0.508,0.634,26.3,6.3,5.4,13.8,-9.5,-18.9,0.336497085,0.182714316,0.410504471,-0.827539903
