sample_index,elapsed_us,device_time_ms,acc_x_g,acc_y_g,acc_z_g,gyro_x_dps,gyro_y_dps,gyro_z_dps,mag_x_ut,mag_y_ut,mag_z_ut,quat_w,quat_x,quat_y,quat_z
0,4162,780910,0.985,0.04,-0.022,0.1,-0.1,0,-34.6,5.9,26.7,0.174230171,0.699575793,-0.150791955,0.676351207
1,8609,780910,0.981,0.036,-0.022,0.1,-0.1,0,-34.6,5.9,26.7,0.174199652,0.699575793,-0.150791955,0.676351207
2,9076,780910,0.988,0.036,-0.022,0,-0.1,0,-34.6,5.9,26.7,0.174199652,0.699575793,-0.150791955,0.676351207
3,12246,780910,0.985,0.04,-0.022,-0.1,0,0,-34.6,5.9,26.7,0.174230171,0.699575793,-0.150791955,0.676351207
4,14502,780920,0.988,0.036,-0.022,0,0,0,-34.8,5.8,27.2,0.174230171,0.699575793,-0.150791955,0.676351207
5,16727,780920,0.988,0.04,-0.026,0,0,0,-34.8,5.8,27.2,0.174230171,0.699575793,-0.150791955,0.676351207
6,19743,780920,0.985,0.04,-0.022,0,0,0,-34.8,5.8,27.2,0.174230171,0.699575793,-0.150791955,0.676351207
7,22187,780920,0.985,0.036,-0.022,0,-0.1,0,-34.8,5.8,27.2,0.174230171,0.699575793,-0.150791955,0.676351207
8,25042,780930,0.985,0.036,-0.022,0,0,0,-35.1,6.3,26.8,0.174230171,0.699575793,-0.150791955,0.676351207
9,27876,780930,0.988,0.036,-0.022,0,0.1,0,-35.1,6.3,26.8,0.174230171,0.699575793,-0.150791955,0.676351207
10,29372,780930,0.988,0.036,-0.022,0,0.1,0,-35.1,6.3,26.8,0.174230171,0.699575793,-0.150791955,0.676351207
11,31723,780930,0.988,0.036,-0.022,0,0.2,0,-35.1,6.3,26.8,0.174230171,0.699575793,-0.150791955,0.676351207
12,34111,780940,0.985,0.036,-0.026,0,0.1,0,-35.3,5.7,28.2,0.174199652,0.699545274,-0.150822474,0.676381726
13,36891,780940,0.985,0.036,-0.026,0,0.1,0,-35.3,5.7,28.2,0.174199652,0.699545274,-0.150822474,0.676381726
14,39885,780940,0.985,0.036,-0.026,0,0.1,0,-35.3,5.7,28.2,0.174199652,0.699545274,-0.150822474,0.676381726
15,41444,780940,0.985,0.036,-0.026,0.1,0.1,0,-35.3,5.7,28.2,0.174199652,0.699545274,-0.150822474,0.676381726
16,44033,780950,0.985,0.04,-0.026,0.1,0.1,0,-35.6,6.1,28.7,0.174199652,0.699545274,-0.150822474,0.676381726
17,46349,780950,0.985,0.04,-0.03,0,0,0.1,-35.6,6.1,28.7,0.174199652,0.699545274,-0.150822474,0.676381726
18,50595,780950,0.988,0.044,-0.022,0,0,0.1,-35.6,6.1,28.7,0.174199652,0.699545274,-0.150822474,0.676381726
19,52847,780950,0.988,0.036,-0.022,0,-0.1,0,-35.6,6.1,28.7,0.174199652,0.699545274,-0.150822474,0.676381726
20,55059,780960,0.985,0.036,-0.022,0,-0.1,0,-35.5,5.9,29.1,0.174199652,0.699545274,-0.150822474,0.676381726
21,57330,780960,0.985,0.044,-0.022,0,-0.1,0,-35.5,5.9,29.1,0.174169134,0.699545274,-0.150822474,0.676381726
22,59592,780960,0.985,0.032,-0.026,0,0,0,-35.5,5.9,29.1,0.174169134,0.699545274,-0.150822474,0.676381726
23,61840,780960,0.985,0.036,-0.022,0,0.1,0,-35.5,5.9,29.1,0.174169134,0.699545274,-0.150822474,0.676381726
24,64177,780970,0.988,0.036,-0.022,0,0.2,0,-35,6,29.5,0.174169134,0.699545274,-0.150822474,0.676381726
25,66652,780970,0.988,0.044,-0.014,0,0.2,0,-35,6,29.5,0.174169134,0.699545274,-0.150822474,0.676381726
26,70269,780970,0.988,0.04,-0.022,0,0.1,0,-35,6,29.5,0.174169134,0.699545274,-0.150822474,0.676381726
27,71910,780970,0.985,0.04,-0.018,0,0,0,-35,6,29.5,0.174169134,0.699545274,-0.150822474,0.676381726
28,74119,780980,0.985,0.04,-0.026,0,0,0,-35.2,6.2,25.3,0.174169134,0.699545274,-0.150822474,0.676381726
29,78342,780980,0.985,0.04,-0.022,0,0,0,-35.2,6.2,25.3,0.174169134,0.699545274,-0.150822474,0.676381726
30,80083,780980,0.985,0.04,-0.026,0,0,0,-35.2,6.2,25.3,0.174169134,0.699545274,-0.150822474,0.676381726
31,82218,780980,0.985,0.036,-0.026,0,0,0,-35.2,6.2,25.3,0.174169134,0.699545274,-0.150822474,0.676381726
32,84290,780990,0.981,0.036,-0.026,0,0.1,0,-35.2,6.2,27.5,0.174199652,0.699575793,-0.150822474,0.676381726
33,86612,780990,0.985,0.036,-0.022,0,0.1,0,-35.2,6.2,27.5,0.174199652,0.699545274,-0.150822474,0.676381726
34,89728,780990,0.988,0.044,-0.022,0,0.1,0,-35.2,6.2,27.5,0.174199652,0.699545274,-0.150822474,0.676381726
35,92032,780990,0.992,0.036,-0.026,0,0,0,-35.2,6.2,27.5,0.174199652,0.699545274,-0.150822474,0.676381726
36,94215,781000,0.988,0.04,-0.022,0,0,0,-35.2,6,27,0.174199652,0.699545274,-0.150822474,0.676381726
37,97342,781000,0.988,0.036,-0.018,0,0,0,-35.2,6,27,0.174199652,0.699545274,-0.150822474,0.676381726
38,99173,781000,0.988,0.04,-0.026,0,0.1,-0.1,-35.2,6,27,0.174199652,0.699545274,-0.150822474,0.676381726
39,102218,781000,0.988,0.04,-0.026,0.1,0.1,-0.1,-35.2,6,27,0.174199652,0.699545274,-0.150822474,0.676381726
40,104604,781010,0.985,0.036,-0.026,0.1,0.1,-0.1,-35.3,5.9,26.2,0.174199652,0.699545274,-0.150791955,0.676381726
41,107226,781010,0.981,0.04,-0.022,0,0,0,-35.3,5.9,26.2,0.174199652,0.699545274,-0.150791955,0.676381726
42,109096,781010,0.981,0.036,-0.022,0,0,0,-35.3,5.9,26.2,0.174199652,0.699545274,-0.150791955,0.676381726
43,111702,781010,0.985,0.04,-0.022,0,0.1,0,-35.3,5.9,26.2,0.174199652,0.699545274,-0.150791955,0.676381726
44,115442,781020,0.985,0.04,-0.022,0,0.2,-0.1,-35.7,6,26.1,0.174199652,0.699545274,-0.150791955,0.676381726
45,117713,781020,0.985,0.04,-0.018,0,0.2,-0.1,-35.7,6,26.1,0.174199652,0.699545274,-0.150791955,0.676381726
46,120006,781020,0.985,0.04,-0.018,0,0.1,-0.1,-35.7,6,26.1,0.174199652,0.699545274,-0.150791955,0.676381726
47,122279,781020,0.981,0.036,-0.026,0,0.1,0,-35.7,6,26.1,0.174199652,0.699545274,-0.150791955,0.676381726
48,124535,781030,0.981,0.036,-0.022,0,0.1,0,-35.2,5.9,26,0.174199652,0.699545274,-0.150791955,0.676381726
49,126753,781030,0.985,0.036,-0.03,0,0.1,0,-35.2,5.9,26,0.174199652,0.699545274,-0.150791955,0.676381726
50,129441,781030,0.985,0.04,-0.026,0,0,0.1,-35.2,5.9,26,0.174199652,0.699545274,-0.150791955,0.676381726
51,131703,781030,0.985,0.044,-0.026,0,0,0,-35.2,5.9,26,0.174199652,0.699545274,-0.150791955,0.676381726
52,134987,781040,0.988,0.04,-0.022,0,-0.3,0,-34.8,5.7,26.3,0.174199652,0.699575793,-0.150791955,0.676351207
53,137233,781040,0.988,0.036,-0.018,0,-0.3,0,-34.8,5.7,26.3,0.174199652,0.699575793,-0.150791955,0.676351207
54,140162,781040,0.988,0.04,-0.018,0,-0.2,0,-34.8,5.7,26.3,0.174199652,0.699575793,-0.150791955,0.676351207
55,141765,781040,0.988,0.036,-0.03,0,-0.2,0,-34.8,5.7,26.3,0.174199652,0.699575793,-0.150791955,0.676351207
56,145337,781050,0.985,0.04,-0.022,0,-0.1,0,-35.1,6,26,0.174199652,0.699575793,-0.150791955,0.676351207
57,147583,781050,0.985,0.04,-0.026,0,0,0,-35.1,6,26,0.174199652,0.699575793,-0.150791955,0.676351207
58,149064,781050,0.985,0.04,-0.022,0,0,0,-35.1,6,26,0.174199652,0.699575793,-0.150791955,0.676351207
59,152112,781050,0.985,0.044,-0.018,0,0,0,-35.1,6,26,0.174199652,0.699575793,-0.150791955,0.676351207
60,154344,781060,0.985,0.036,-0.03,0,0,0,-35,5.9,26.2,0.174199652,0.699575793,-0.150791955,0.676351207
61,157088,781060,0.985,0.036,-0.026,0,0,0,-35,5.9,26.2,0.174199652,0.699575793,-0.150791955,0.676351207
62,159370,781060,0.981,0.04,-0.022,0,-0.2,0,-35,5.9,26.2,0.174199652,0.699606311,-0.150791955,0.676351207
63,162050,781060,0.985,0.036,-0.026,0,-0.3,0,-35,5.9,26.2,0.174199652,0.699606311,-0.150791955,0.676320688
64,164284,781070,0.985,0.04,-0.022,0,-0.2,0,-35.2,5.6,26.1,0.174199652,0.699606311,-0.150791955,0.676320688
65,167585,781070,0.985,0.04,-0.026,0,-0.1,0,-35.2,5.6,26.1,0.174199652,0.699606311,-0.150791955,0.676320688
66,169095,781070,0.985,0.036,-0.022,0,0,0,-35.2,5.6,26.1,0.174199652,0.699606311,-0.150791955,0.676320688
67,172763,781070,0.985,0.04,-0.022,0,0.1,0,-35.2,5.6,26.1,0.174199652,0.699606311,-0.150791955,0.676320688
68,174290,781080,0.985,0.04,-0.022,0,0.1,0,-35.4,6,27.9,0.174199652,0.699606311,-0.150791955,0.676320688
69,177059,781080,0.985,0.04,-0.022,0,0.1,0,-35.4,6,27.9,0.174199652,0.699606311,-0.150791955,0.676320688
70,179267,781080,0.985,0.04,-0.022,0,0.1,0,-35.4,6,27.9,0.174199652,0.699606311,-0.150791955,0.676320688
71,181529,781080,0.988,0.044,-0.026,0,0,0,-35.4,6,27.9,0.174199652,0.699606311,-0.150791955,0.676320688
72,184282,781090,0.988,0.044,-0.026,0,0,0,-35.4,6,27.9,0.174199652,0.699606311,-0.150791955,0.676320688
73,187052,781090,0.988,0.044,-0.022,-0.1,-0.1,0,-35.3,4.4,26,0.174230171,0.699606311,-0.150761437,0.676320688
74,190064,781090,0.985,0.04,-0.018,-0.1,0,0,-35.3,4.4,26,0.174230171,0.699606311,-0.150791955,0.676320688
75,193059,781090,0.985,0.04,-0.022,-0.1,0,0,-35.3,4.4,26,0.174230171,0.699606311,-0.150791955,0.676320688
76,194634,781100,0.988,0.036,-0.026,-0.1,0,0,-34.8,4.2,25.7,0.174230171,0.699606311,-0.150791955,0.676320688
77,197037,781100,0.981,0.04,-0.022,0,0,0,-34.8,4.2,25.7,0.174230171,0.699606311,-0.150791955,0.676320688
78,199042,781100,0.985,0.04,-0.022,-0.1,0.1,0,-34.8,4.2,25.7,0.174230171,0.699606311,-0.150791955,0.676320688
79,202089,781100,0.985,0.036,-0.022,0,0.1,0,-34.8,4.2,25.7,0.174230171,0.699606311,-0.150791955,0.676320688
80,204159,781110,0.988,0.04,-0.022,0,0.1,0,-35.2,3.4,25.7,0.174230171,0.699575793,-0.150791955,0.676320688
81,207791,781110,0.988,0.044,-0.022,0,0.1,0,-35.2,3.4,25.7,0.174230171,0.699575793,-0.150791955,0.676320688
82,209321,781110,0.985,0.044,-0.026,0,0.1,-0.1,-35.2,3.4,25.7,0.174230171,0.699575793,-0.150791955,0.676351207
83,212042,781110,0.985,0.04,-0.022,0.1,0.1,-0.1,-35.2,3.4,25.7,0.174230171,0.699575793,-0.150791955,0.676351207
84,215427,781120,0.985,0.04,-0.026,0.1,0.2,0,-35.2,2.9,25.9,0.174230171,0.699575793,-0.150791955,0.676351207
85,216931,781120,0.985,0.032,-0.034,0,0.2,0,-35.2,2.9,25.9,0.174230171,0.699575793,-0.150791955,0.676351207
86,221326,781120,0.985,0.04,-0.022,0,0.2,0,-35.2,2.9,25.9,0.174230171,0.699575793,-0.150791955,0.676351207
87,221686,781120,0.985,0.036,-0.022,0.1,0.2,0,-35.2,2.9,25.9,0.174230171,0.699575793,-0.150791955,0.676351207
88,225131,781130,0.985,0.04,-0.022,0.1,0.1,0,-35.1,7.6,27.5,0.174230171,0.699575793,-0.150761437,0.676351207
89,228199,781130,0.985,0.04,-0.026,0,0,0,-35.1,7.6,27.5,0.174230171,0.699575793,-0.150761437,0.676351207
90,229614,781130,0.985,0.04,-0.03,0,0,0,-35.1,7.6,27.5,0.174230171,0.699575793,-0.150791955,0.676351207
91,232616,781130,0.985,0.04,-0.026,-0.1,0,0,-35.1,7.6,27.5,0.174230171,0.699575793,-0.150791955,0.676351207
92,235701,781140,0.985,0.04,-0.026,-0.1,0,0,-35.1,7.6,27.5,0.174230171,0.699575793,-0.150791955,0.676351207
93,237157,781140,0.985,0.04,-0.022,0,0.2,0,-35.3,5.3,26.5,0.174230171,0.699575793,-0.150761437,0.676351207
94,239807,781140,0.988,0.044,-0.03,0.1,0.2,0,-35.3,5.3,26.5,0.174230171,0.699575793,-0.150761437,0.676351207
95,241504,781140,0.985,0.04,-0.026,0,0.1,0,-35.3,5.3,26.5,0.174230171,0.699575793,-0.150761437,0.676351207
96,245768,781150,0.988,0.036,-0.022,0,0,0,-35.2,5.8,26.5,0.174230171,0.699575793,-0.150761437,0.676351207
97,247179,781150,0.985,0.04,-0.022,0,0,0,-35.2,5.8,26.5,0.174230171,0.699575793,-0.150761437,0.676351207
98,250042,781150,0.985,0.04,-0.022,0,-0.1,0,-35.2,5.8,26.5,0.174230171,0.699575793,-0.150761437,0.676351207
99,251570,781150,0.985,0.036,-0.022,0,0,0,-35.2,5.8,26.5,0.174230171,0.699575793,-0.150761437,0.676351207
100,255297,781160,0.988,0.036,-0.03,0,0,0,-34.9,6.2,26.7,0.174230171,0.699575793,-0.150761437,0.676351207
101,256772,781160,0.985,0.04,-0.022,0,0,0,-34.9,6.2,26.7,0.174230171,0.699575793,-0.150761437,0.676320688
102,259071,781160,0.985,0.04,-0.034,0,0,0,-34.9,6.2,26.7,0.174230171,0.699575793,-0.150761437,0.676320688
103,261604,781160,0.981,0.04,-0.026,0,0.1,0,-34.9,6.2,26.7,0.174260689,0.699575793,-0.150761437,0.676351207
104,265854,781170,0.981,0.036,-0.022,0,0.2,0,-35.2,6.8,26.8,0.174230171,0.699575793,-0.150761437,0.676351207
105,266552,781170,0.985,0.032,-0.022,0,0.2,0,-35.2,6.8,26.8,0.174230171,0.699575793,-0.150761437,0.676351207
106,269604,781170,0.985,0.04,-0.022,0,0.2,0,-35.2,6.8,26.8,0.174230171,0.699575793,-0.150761437,0.676351207
107,271770,781170,0.988,0.04,-0.03,0.1,0.1,0,-35.2,6.8,26.8,0.174230171,0.699575793,-0.150761437,0.676351207
108,274386,781180,0.988,0.036,-0.022,0.1,0,0,-35.3,6.3,26.9,0.174230171,0.699575793,-0.150761437,0.676351207
109,276698,781180,0.988,0.04,-0.026,0.1,0,0,-35.3,6.3,26.9,0.174230171,0.699575793,-0.150761437,0.676351207
110,280214,781180,0.988,0.044,-0.03,0,0,0,-35.3,6.3,26.9,0.174230171,0.699575793,-0.150761437,0.676351207
111,282463,781180,0.985,0.032,-0.018,-0.1,0.1,0,-35.3,6.3,26.9,0.174230171,0.699575793,-0.150761437,0.676351207
112,284781,781190,0.985,0.032,-0.018,-0.1,0.1,0,-35.3,6.3,26.9,0.174230171,0.699575793,-0.150761437,0.676351207
113,286997,781190,0.985,0.04,-0.022,-0.1,0,0,-35.2,7,27.2,0.174230171,0.699575793,-0.150761437,0.676351207
114,289349,781190,0.985,0.036,-0.026,-0.1,-0.1,0,-35.2,7,27.2,0.174230171,0.699575793,-0.150761437,0.676351207
115,291675,781190,0.985,0.044,-0.022,-0.1,-0.1,0,-35.2,7,27.2,0.174260689,0.699575793,-0.150761437,0.676351207
116,294156,781200,0.988,0.036,-0.018,-0.1,0,0,-35.1,6.8,27.2,0.174260689,0.699575793,-0.150761437,0.676351207
117,297613,781200,0.985,0.04,-0.018,0,0,0,-35.1,6.8,27.2,0.174260689,0.699575793,-0.150791955,0.676351207
118,299185,781200,0.988,0.036,-0.014,0,0.1,0,-35.1,6.8,27.2,0.174230171,0.699575793,-0.150791955,0.676351207
119,303736,781200,0.988,0.04,-0.022,0,0.2,0,-35.1,6.8,27.2,0.174230171,0.699575793,-0.150761437,0.676351207
120,304227,781210,0.988,0.04,-0.026,0.1,0.1,0,-34.8,6.7,27.3,0.174230171,0.699575793,-0.150761437,0.676351207
121,307374,781210,0.985,0.036,-0.026,0.1,0,0,-34.8,6.7,27.3,0.174230171,0.699575793,-0.150761437,0.676351207
122,309569,781210,0.985,0.04,-0.026,0.1,-0.1,0,-34.8,6.7,27.3,0.174230171,0.699575793,-0.150761437,0.676351207
123,311883,781210,0.985,0.036,-0.026,0.1,-0.1,0,-34.8,6.7,27.3,0.174230171,0.699575793,-0.150761437,0.676351207
124,315483,781220,0.988,0.036,-0.022,0.1,0,0,-35.4,6.8,27,0.174230171,0.699575793,-0.150761437,0.676351207
125,317535,781220,0.988,0.036,-0.022,0,0.1,0,-35.4,6.8,27,0.174230171,0.699575793,-0.150761437,0.676351207
126,319944,781220,0.985,0.04,-0.026,0,0.1,0.1,-35.4,6.8,27,0.174230171,0.699575793,-0.150761437,0.676351207
127,321855,781220,0.988,0.04,-0.022,0,0.1,0.1,-35.4,6.8,27,0.174230171,0.699575793,-0.150761437,0.676351207
128,324079,781230,0.981,0.04,-0.018,0,0,0.1,-35.3,4.7,27,0.174230171,0.699575793,-0.150761437,0.676351207
129,327426,781230,0.985,0.04,-0.026,0,-0.1,0,-35.3,4.7,27,0.174230171,0.699575793,-0.150761437,0.676351207
130,329630,781230,0.985,0.04,-0.022,0,-0.2,0,-35.3,4.7,27,0.174230171,0.699575793,-0.150761437,0.676351207
131,331899,781230,0.985,0.036,-0.022,0,-0.1,0,-35.3,4.7,27,0.174230171,0.699575793,-0.150761437,0.676351207
132,334330,781240,0.988,0.04,-0.026,0,0,0,-37.3,7.1,26.8,0.174230171,0.699575793,-0.150761437,0.676351207
133,336940,781240,0.981,0.036,-0.022,0,0.1,0,-37.3,7.1,26.8,0.174230171,0.699575793,-0.150761437,0.676351207
134,339318,781240,0.985,0.036,-0.022,0.1,0.1,0,-37.3,7.1,26.8,0.174230171,0.699575793,-0.150761437,0.676351207
135,341694,781240,0.985,0.04,-0.026,0,0.1,0,-37.3,7.1,26.8,0.174230171,0.699575793,-0.150761437,0.676351207
136,344168,781250,0.988,0.04,-0.018,0,0.2,0,-37.9,7,26.9,0.174230171,0.699575793,-0.150761437,0.676351207
137,346943,781250,0.988,0.04,-0.022,-0.1,0.2,0,-37.9,7,26.9,0.174230171,0.699545274,-0.150761437,0.676381726
138,350005,781250,0.985,0.04,-0.026,0,0.2,0,-37.9,7,26.9,0.174230171,0.699545274,-0.150761437,0.676381726
139,352293,781250,0.985,0.044,-0.026,0,0.1,0,-37.9,7,26.9,0.174230171,0.699545274,-0.150761437,0.676381726
140,355134,781260,0.981,0.036,-0.026,0,0,0,-37.8,7.3,27,0.174230171,0.699545274,-0.150761437,0.676381726
141,357254,781260,0.985,0.04,-0.026,0,-0.1,0,-37.8,7.3,27,0.174230171,0.699545274,-0.150761437,0.676381726
142,360142,781260,0.992,0.04,-0.026,0,-0.1,0,-37.8,7.3,27,0.174230171,0.699545274,-0.150761437,0.676381726
143,362470,781260,0.985,0.044,-0.026,0,-0.1,0,-37.8,7.3,27,0.174230171,0.699575793,-0.150761437,0.676351207
144,364026,781270,0.988,0.036,-0.022,0,-0.1,0,-38.3,7.6,26.7,0.174230171,0.699575793,-0.150761437,0.676351207
145,367902,781270,0.988,0.036,-0.026,0,0,0,-38.3,7.6,26.7,0.174230171,0.699575793,-0.150761437,0.676351207
146,370222,781270,0.985,0.04,-0.026,0,0,0,-38.3,7.6,26.7,0.174230171,0.699575793,-0.150761437,0.676351207
147,372292,781270,0.985,0.04,-0.026,0,0,0,-38.3,7.6,26.7,0.174230171,0.699575793,-0.150761437,0.676351207
148,374600,781280,0.981,0.036,-0.022,0,0,0.1,-34.2,5.5,27,0.174230171,0.699575793,-0.150761437,0.676351207
149,377115,781280,0.985,0.036,-0.022,-0.1,0,0,-34.2,5.5,27,0.174230171,0.699575793,-0.150761437,0.676351207
150,379033,781280,0.985,0.036,-0.026,0,0,0,-34.2,5.5,27,0.174230171,0.699575793,-0.150761437,0.676351207
151,382165,781280,0.985,0.036,-0.026,0,0,0,-34.2,5.5,27,0.174230171,0.699575793,-0.150761437,0.676351207
152,384535,781290,0.985,0.036,-0.026,0,0,0,-34.2,5.5,27,0.174230171,0.699575793,-0.150761437,0.676351207
153,386389,781290,0.988,0.04,-0.026,0,0,0,-36.3,6.1,27.2,0.174230171,0.699575793,-0.150791955,0.676351207
154,390746,781290,0.988,0.04,-0.022,0,0.1,0,-36.3,6.1,27.2,0.174230171,0.699575793,-0.150791955,0.676351207
155,392838,781290,0.985,0.04,-0.022,0.1,0.1,0,-36.3,6.1,27.2,0.174230171,0.699575793,-0.150791955,0.676351207
156,394568,781300,0.985,0.04,-0.018,0.1,0.1,0,-35.5,6.5,27,0.174199652,0.699575793,-0.150791955,0.676351207
157,397429,781300,0.985,0.04,-0.026,0.1,0.1,0.1,-35.5,6.5,27,0.174199652,0.699575793,-0.150791955,0.676381726
158,399592,781300,0.985,0.04,-0.026,0,0.1,0.1,-35.5,6.5,27,0.174199652,0.699545274,-0.150791955,0.676381726
159,401832,781300,0.985,0.036,-0.026,0.1,0.1,0,-35.5,6.5,27,0.174199652,0.699545274,-0.150791955,0.676381726
160,405042,781310,0.981,0.04,-0.022,0.1,0,0,-35,6.7,27,0.174199652,0.699545274,-0.150791955,0.676381726
161,406691,781310,0.992,0.04,-0.026,0,0,0,-35,6.7,27,0.174199652,0.699545274,-0.150791955,0.676381726
162,409333,781310,0.985,0.04,-0.026,0,-0.1,0,-35,6.7,27,0.174199652,0.699545274,-0.150791955,0.676381726
163,413243,781310,0.988,0.04,-0.022,-0.1,-0.1,0,-35,6.7,27,0.174199652,0.699575793,-0.150791955,0.676381726
164,415498,781320,0.988,0.04,-0.026,0,0,0,-34.5,6.6,26.8,0.174199652,0.699575793,-0.150791955,0.676381726
165,417688,781320,0.988,0.036,-0.026,0,0,0,-34.5,6.6,26.8,0.174199652,0.699575793,-0.150791955,0.676381726
166,420010,781320,0.985,0.036,-0.03,0,0.1,0,-34.5,6.6,26.8,0.174199652,0.699545274,-0.150791955,0.676381726
167,422120,781320,0.981,0.036,-0.022,0.1,0.2,0.1,-34.5,6.6,26.8,0.174199652,0.699545274,-0.150791955,0.676381726
168,424749,781330,0.977,0.04,-0.022,0.1,0.2,0.1,-35.1,5.9,26.8,0.174199652,0.699545274,-0.150791955,0.676381726
169,426443,781330,0.988,0.04,-0.022,0.1,0.1,0.1,-35.1,5.9,26.8,0.174199652,0.699545274,-0.150791955,0.676381726
170,429298,781330,0.985,0.036,-0.026,0.1,0.1,0,-35.1,5.9,26.8,0.174199652,0.699545274,-0.150791955,0.676381726
171,431613,781330,0.985,0.04,-0.022,0,0,0,-35.1,5.9,26.8,0.174169134,0.699545274,-0.150791955,0.676381726
172,435351,781340,0.988,0.04,-0.03,0,0,0,-35.2,5.9,27,0.174199652,0.699545274,-0.150791955,0.676381726
173,436823,781340,0.985,0.04,-0.026,0,-0.1,0,-35.2,5.9,27,0.174199652,0.699545274,-0.150791955,0.676381726
174,439977,781340,0.985,0.032,-0.022,0,-0.3,0,-35.2,5.9,27,0.174199652,0.699545274,-0.150791955,0.676381726
175,442140,781340,0.988,0.04,-0.03,0,-0.2,0,-35.2,5.9,27,0.174199652,0.699545274,-0.150791955,0.676381726
176,444384,781350,0.988,0.036,-0.018,0,-0.1,0,-35.2,6.2,26.7,0.174199652,0.699575793,-0.150791955,0.676381726
177,448206,781350,0.985,0.04,-0.022,0,0,0,-35.2,6.2,26.7,0.174199652,0.699575793,-0.150791955,0.676381726
178,449611,781350,0.985,0.04,-0.022,0,0,0,-35.2,6.2,26.7,0.174199652,0.699575793,-0.150791955,0.676381726
179,452030,781350,0.988,0.036,-0.022,-0.1,0.1,0,-35.2,6.2,26.7,0.174199652,0.699545274,-0.150791955,0.676381726
180,454101,781360,0.988,0.036,-0.022,-0.1,0.1,0,-35.2,6.1,27.1,0.174199652,0.699545274,-0.150791955,0.676381726
181,456609,781360,0.988,0.04,-0.022,0,0.1,0,-35.2,6.1,27.1,0.174199652,0.699545274,-0.150791955,0.676381726
182,459584,781360,0.985,0.044,-0.022,0,0.1,0,-35.2,6.1,27.1,0.174199652,0.699545274,-0.150791955,0.676381726
183,461894,781360,0.985,0.032,-0.022,0,0.1,0,-35.2,6.1,27.1,0.174199652,0.699545274,-0.150791955,0.676381726
184,464121,781370,0.985,0.036,-0.018,0,0.2,-0.1,-35.1,6,26.9,0.174199652,0.699545274,-0.150791955,0.676381726
185,466690,781370,0.985,0.036,-0.018,0,0.2,-0.1,-35.1,6,26.9,0.174199652,0.699545274,-0.150791955,0.676381726
186,469074,781370,0.985,0.036,-0.026,0,0.1,-0.1,-35.1,6,26.9,0.174199652,0.699545274,-0.150791955,0.676381726
187,473482,781370,0.988,0.044,-0.03,0,0,0,-35.1,6,26.9,0.174199652,0.699545274,-0.150791955,0.676381726
188,474103,781380,0.985,0.036,-0.026,0,-0.1,0,-36.6,5.8,26.9,0.174199652,0.699545274,-0.150791955,0.676381726
189,477616,781380,0.988,0.04,-0.026,0,-0.1,0,-36.6,5.8,26.9,0.174199652,0.699545274,-0.150791955,0.676381726
190,479969,781380,0.985,0.04,-0.026,0,0,0.1,-36.6,5.8,26.9,0.174199652,0.699545274,-0.150791955,0.676381726
191,482189,781380,0.985,0.04,-0.022,0,0,0,-36.6,5.8,26.9,0.174199652,0.699545274,-0.150791955,0.676381726
192,484461,781390,0.985,0.04,-0.018,0.1,0,0,-34,6,26.8,0.174199652,0.699575793,-0.150791955,0.676381726
193,486735,781390,0.985,0.04,-0.026,0,0.1,0,-34,6,26.8,0.174199652,0.699545274,-0.150791955,0.676381726
194,489208,781390,0.985,0.04,-0.026,0,0.1,0,-34,6,26.8,0.174199652,0.699545274,-0.150791955,0.676381726
195,492588,781390,0.988,0.032,-0.026,0,0.1,0,-34,6,26.8,0.174199652,0.699545274,-0.150791955,0.676381726
196,494202,781400,0.985,0.036,-0.026,0,0,0,-33.5,6,26.9,0.174199652,0.699545274,-0.150791955,0.676381726
197,496680,781400,0.981,0.036,-0.018,0,0,0,-33.5,6,26.9,0.174199652,0.699545274,-0.150791955,0.676381726
198,500229,781400,0.988,0.04,-0.022,0,0,0,-33.5,6,26.9,0.174199652,0.699545274,-0.150791955,0.676381726
199,502560,781400,0.985,0.04,-0.026,0,0,0,-33.5,6,26.9,0.174199652,0.699545274,-0.150791955,0.676381726
200,504788,781410,0.988,0.036,-0.022,0.1,0,0,-33.7,6.3,27.1,0.174199652,0.699545274,-0.150791955,0.676381726
201,507075,781410,0.985,0.04,-0.026,0.1,0,0,-33.7,6.3,27.1,0.174199652,0.699545274,-0.150761437,0.676381726
202,509301,781410,0.981,0.04,-0.022,0.1,-0.1,0,-33.7,6.3,27.1,0.174199652,0.699575793,-0.150761437,0.676381726
203,511632,781410,0.985,0.036,-0.03,0.1,-0.1,0,-33.7,6.3,27.1,0.174199652,0.699575793,-0.150761437,0.676381726
204,514137,781420,0.988,0.036,-0.026,0.1,-0.1,0,-33.7,6,26.7,0.174199652,0.699575793,-0.150761437,0.676381726
205,517594,781420,0.985,0.04,-0.026,0.1,-0.1,0,-33.7,6,26.7,0.174199652,0.699575793,-0.150761437,0.676381726
206,519345,781420,0.988,0.04,-0.026,0,0,0,-33.7,6,26.7,0.174199652,0.699575793,-0.150761437,0.676381726
207,521719,781420,0.988,0.044,-0.022,0,0,0,-33.7,6,26.7,0.174199652,0.699575793,-0.150761437,0.676381726
208,525144,781430,0.985,0.036,-0.026,0,0.1,-0.1,-35.5,5.9,27,0.174199652,0.699575793,-0.150761437,0.676381726
209,526748,781430,0.985,0.036,-0.026,0,0,-0.1,-35.5,5.9,27,0.174199652,0.699575793,-0.150761437,0.676381726
210,530691,781430,0.988,0.04,-0.022,0,0,0,-35.5,5.9,27,0.174199652,0.699575793,-0.150761437,0.676381726
211,533003,781430,0.981,0.036,-0.026,0,-0.1,0,-35.5,5.9,27,0.174199652,0.699575793,-0.150761437,0.676351207
212,535208,781440,0.981,0.036,-0.026,0,-0.1,0,-35.5,5.9,27,0.174199652,0.699575793,-0.150761437,0.676351207
213,537516,781440,0.981,0.036,-0.026,0,-0.1,0,-35,6,27.1,0.174169134,0.699575793,-0.150791955,0.676351207
214,539665,781440,0.985,0.036,-0.022,0.1,0,0,-35,6,27.1,0.174169134,0.699575793,-0.150791955,0.676351207
215,541875,781440,0.985,0.036,-0.022,0.1,0.1,0,-35,6,27.1,0.174169134,0.699575793,-0.150791955,0.676351207
216,545773,781450,0.988,0.04,-0.018,0.1,0.2,0,-35.5,6.3,26.8,0.174169134,0.699575793,-0.150791955,0.676351207
217,547362,781450,0.988,0.04,-0.026,0.1,0.2,0,-35.5,6.3,26.8,0.174169134,0.699575793,-0.150791955,0.676351207
218,549537,781450,0.988,0.036,-0.026,0,0.1,-0.1,-35.5,6.3,26.8,0.174169134,0.699575793,-0.150791955,0.676351207
219,552304,781450,0.985,0.036,-0.03,0,0,-0.1,-35.5,6.3,26.8,0.174169134,0.699575793,-0.150791955,0.676351207
220,554155,781460,0.988,0.04,-0.022,0,0,-0.2,-35,6.4,26.7,0.174169134,0.699575793,-0.150761437,0.676351207
221,556637,781460,0.988,0.036,-0.018,0,0,-0.2,-35,6.4,26.7,0.174169134,0.699575793,-0.150761437,0.676351207
222,559622,781460,0.992,0.04,-0.022,0,0,-0.2,-35,6.4,26.7,0.174169134,0.699575793,-0.150761437,0.676351207
223,561913,781460,0.981,0.036,-0.026,0,-0.1,-0.1,-35,6.4,26.7,0.174199652,0.699606311,-0.150761437,0.676351207
224,564157,781470,0.985,0.036,-0.026,-0.1,0,0,-34.7,5.9,27.1,0.174199652,0.699606311,-0.150761437,0.676351207
225,566669,781470,0.985,0.04,-0.014,-0.1,0,0,-34.7,5.9,27.1,0.174199652,0.699606311,-0.150761437,0.676351207
226,570138,781470,0.985,0.04,-0.018,0,0.1,-0.1,-34.7,5.9,27.1,0.174199652,0.699575793,-0.150761437,0.676351207
227,571697,781470,0.985,0.04,-0.022,0,0.1,0,-34.7,5.9,27.1,0.174199652,0.699575793,-0.150761437,0.676351207
228,574238,781480,0.981,0.036,-0.026,0,0,0,-35.1,6,26.7,0.174199652,0.699575793,-0.150761437,0.676351207
229,577620,781480,0.985,0.036,-0.022,0,0,0,-35.1,6,26.7,0.174199652,0.699575793,-0.150761437,0.676351207
230,579978,781480,0.985,0.04,-0.022,0,-0.1,0,-35.1,6,26.7,0.174199652,0.699575793,-0.150761437,0.676351207
231,582184,781480,0.985,0.04,-0.026,0,-0.2,0,-35.1,6,26.7,0.174199652,0.699606311,-0.150761437,0.676351207
232,584521,781490,0.985,0.04,-0.026,0,-0.2,0,-35,6,27.7,0.174199652,0.699606311,-0.150761437,0.676351207
233,586674,781490,0.981,0.04,-0.026,0,-0.1,0,-35,6,27.7,0.174199652,0.699606311,-0.150791955,0.676320688
234,589152,781490,0.988,0.04,-0.026,0,-0.1,0,-35,6,27.7,0.174199652,0.699606311,-0.150791955,0.676320688
235,591917,781490,0.988,0.036,-0.022,-0.1,-0.1,0,-35,6,27.7,0.174199652,0.699606311,-0.150791955,0.676320688
236,594972,781500,0.985,0.04,-0.022,-0.1,-0.2,0.1,-35.1,5.8,28.3,0.174199652,0.699606311,-0.150791955,0.676320688
237,596736,781500,0.985,0.04,-0.022,0,-0.2,0.1,-35.1,5.8,28.3,0.174199652,0.699606311,-0.150791955,0.676320688
238,600203,781500,0.985,0.032,-0.022,0,-0.1,0.2,-35.1,5.8,28.3,0.174199652,0.699606311,-0.150791955,0.676320688
239,601713,781500,0.981,0.04,-0.026,0,0,0,-35.1,5.8,28.3,0.174199652,0.699606311,-0.150791955,0.676320688
240,604085,781510,0.985,0.04,-0.022,0,0.1,0,-35.3,6,28.9,0.174199652,0.699606311,-0.150791955,0.676320688
241,607718,781510,0.988,0.04,-0.03,0,0.1,-0.1,-35.3,6,28.9,0.174199652,0.699606311,-0.150791955,0.676320688
242,609235,781510,0.985,0.04,-0.022,0,0,0,-35.3,6,28.9,0.174199652,0.699606311,-0.150791955,0.676320688
243,611839,781510,0.988,0.036,-0.022,0,0,0,-35.3,6,28.9,0.174199652,0.699606311,-0.150791955,0.676320688
244,614039,781520,0.985,0.04,-0.022,-0.1,0,0,-35.1,5.8,29,0.174199652,0.699606311,-0.150791955,0.676320688
245,618260,781520,0.985,0.04,-0.022,-0.1,0,0,-35.1,5.8,29,0.174199652,0.699606311,-0.150791955,0.676320688
246,620537,781520,0.985,0.032,-0.026,0,0,0,-35.1,5.8,29,0.174199652,0.699606311,-0.150791955,0.676320688
247,621997,781520,0.985,0.04,-0.026,0,0,0,-35.1,5.8,29,0.174199652,0.699606311,-0.150791955,0.676320688
248,624262,781530,0.985,0.036,-0.022,0.1,0,0,-35.2,6.1,25,0.174199652,0.699606311,-0.150791955,0.676320688
249,626612,781530,0.985,0.036,-0.026,0.1,0,0,-35.2,6.1,25,0.174199652,0.699606311,-0.150791955,0.676320688
250,630030,781530,0.985,0.044,-0.022,0.1,0,0,-35.2,6.1,25,0.174199652,0.699606311,-0.150791955,0.676320688
251,631630,781530,0.988,0.036,-0.026,0,-0.1,0,-35.2,6.1,25,0.174199652,0.699606311,-0.150791955,0.676320688
252,634186,781540,0.988,0.036,-0.026,0,-0.1,0,-35.2,6.1,25,0.174199652,0.699606311,-0.150791955,0.676320688
253,638367,781540,0.985,0.04,-0.034,0,0,0,-35.1,6.2,27.7,0.174169134,0.69963683,-0.150791955,0.676320688
254,640625,781540,0.985,0.036,-0.03,0,0,0,-35.1,6.2,27.7,0.174169134,0.69963683,-0.150791955,0.676320688
255,642079,781540,0.981,0.04,-0.022,0,0,0,-35.1,6.2,27.7,0.174169134,0.69963683,-0.150822474,0.676320688
256,644355,781550,0.985,0.04,-0.026,-0.1,0,0,-35,6.1,27.3,0.174169134,0.69963683,-0.150822474,0.67629017
257,647298,781550,0.988,0.036,-0.022,-0.1,-0.1,0,-35,6.1,27.3,0.174169134,0.69963683,-0.150822474,0.67629017
258,649544,781550,0.988,0.044,-0.022,0,-0.1,0,-35,6.1,27.3,0.174169134,0.69963683,-0.150822474,0.67629017
259,651802,781550,0.985,0.04,-0.022,0.1,0,0,-35,6.1,27.3,0.174169134,0.69963683,-0.150822474,0.67629017
260,654909,781560,0.988,0.036,-0.026,0.1,0,0,-35.5,6.3,26.6,0.174169134,0.69963683,-0.150822474,0.67629017
261,657158,781560,0.988,0.04,-0.022,0.1,-0.1,0,-35.5,6.3,26.6,0.174169134,0.69963683,-0.150822474,0.67629017
262,659308,781560,0.992,0.036,-0.026,0.1,-0.1,0,-35.5,6.3,26.6,0.174169134,0.69963683,-0.150822474,0.67629017
263,662319,781560,0.988,0.04,-0.022,0,-0.1,0,-35.5,6.3,26.6,0.174169134,0.69963683,-0.150822474,0.67629017
264,664587,781570,0.985,0.036,-0.022,0.1,-0.1,-0.1,-35.3,6.2,26.1,0.174169134,0.69963683,-0.150791955,0.67629017
265,666796,781570,0.985,0.036,-0.026,0,-0.1,0,-35.3,6.2,26.1,0.174169134,0.69963683,-0.150791955,0.67629017
266,669816,781570,0.981,0.04,-0.022,0,0,-0.1,-35.3,6.2,26.1,0.174169134,0.69963683,-0.150791955,0.67629017
267,671640,781570,0.985,0.04,-0.026,0,0,0,-35.3,6.2,26.1,0.174169134,0.69963683,-0.150791955,0.67629017
268,675889,781580,0.981,0.04,-0.022,0,0,0,-35.2,6,26.7,0.174169134,0.69963683,-0.150791955,0.67629017
269,678132,781580,0.988,0.036,-0.026,0,0,0,-35.2,6,26.7,0.174169134,0.69963683,-0.150791955,0.67629017
270,679524,781580,0.988,0.04,-0.022,0,0,0,-35.2,6,26.7,0.174169134,0.69963683,-0.150822474,0.67629017
271,681843,781580,0.988,0.04,-0.03,0,0,0,-35.2,6,26.7,0.174169134,0.69963683,-0.150822474,0.67629017
272,684112,781590,0.988,0.04,-0.03,0,0,0,-35.2,6,26.7,0.174169134,0.69963683,-0.150822474,0.67629017
273,686661,781590,0.985,0.036,-0.022,0,-0.1,0,-35,5.8,26.9,0.174169134,0.699667348,-0.150822474,0.676259651
274,690057,781590,0.985,0.044,-0.022,0,-0.2,0,-35,5.8,26.9,0.174169134,0.699667348,-0.150822474,0.676259651
275,691611,781590,0.985,0.04,-0.03,0,-0.3,0,-35,5.8,26.9,0.174169134,0.699667348,-0.150822474,0.676259651
276,694111,781600,0.988,0.044,-0.026,0,-0.2,0,-35,6.5,26.5,0.174169134,0.699667348,-0.150822474,0.676259651
277,697583,781600,0.988,0.036,-0.026,0,-0.1,0,-35,6.5,26.5,0.174169134,0.699667348,-0.150822474,0.676259651
278,699112,781600,0.985,0.044,-0.026,0,0,0,-35,6.5,26.5,0.174169134,0.699667348,-0.150822474,0.676259651
279,702856,781600,0.988,0.036,-0.026,0,0,0,-35,6.5,26.5,0.174169134,0.699667348,-0.150822474,0.676259651
280,704418,781610,0.992,0.036,-0.022,0,0,-0.1,-34.9,6.5,26.5,0.174169134,0.699667348,-0.150822474,0.676259651
281,706580,781610,0.988,0.036,-0.018,0,0,-0.1,-34.9,6.5,26.5,0.174169134,0.699667348,-0.150822474,0.676259651
282,709068,781610,0.988,0.04,-0.022,0,-0.1,0,-34.9,6.5,26.5,0.174169134,0.699697867,-0.150822474,0.676259651
283,711609,781610,0.981,0.036,-0.018,0,-0.1,0,-34.9,6.5,26.5,0.174169134,0.699697867,-0.150822474,0.676229133
284,715616,781620,0.985,0.04,-0.022,0,0,0,-35,6,26.4,0.174169134,0.699697867,-0.150822474,0.676229133
285,717230,781620,0.985,0.04,-0.03,-0.1,0,0,-35,6,26.4,0.174169134,0.699697867,-0.150822474,0.676229133
286,719481,781620,0.985,0.032,-0.03,0,0.1,-0.1,-35,6,26.4,0.174169134,0.699697867,-0.150822474,0.676229133
287,721810,781620,0.988,0.036,-0.022,0,0.1,-0.1,-35,6,26.4,0.174169134,0.699697867,-0.150822474,0.676259651
288,724108,781630,0.985,0.04,-0.022,0,0.1,-0.1,-35.4,6.2,27.7,0.174169134,0.699667348,-0.150822474,0.676259651
289,726585,781630,0.988,0.04,-0.026,0,0.1,0,-35.4,6.2,27.7,0.174199652,0.699667348,-0.150822474,0.676259651
290,730102,781630,0.985,0.04,-0.018,0,0,0,-35.4,6.2,27.7,0.174199652,0.699667348,-0.150822474,0.676259651
291,731665,781630,0.985,0.04,-0.022,0,0,0,-35.4,6.2,27.7,0.174169134,0.699667348,-0.150822474,0.676259651
292,734141,781640,0.985,0.04,-0.022,0,0,0,-35.4,6.2,27.7,0.174169134,0.699667348,-0.150822474,0.676259651
293,736509,781640,0.981,0.036,-0.022,0,-0.1,0,-35.4,5.3,26,0.174199652,0.699667348,-0.150791955,0.676259651
294,739485,781640,0.985,0.04,-0.026,0,0,0,-35.4,5.3,26,0.174199652,0.699667348,-0.150791955,0.676259651
295,741786,781640,0.985,0.04,-0.022,0,0,0,-35.4,5.3,26,0.174199652,0.699667348,-0.150791955,0.676259651
296,744057,781650,0.988,0.04,-0.026,0,0,0,-35.5,4.6,26,0.174199652,0.699667348,-0.150791955,0.676259651
297,746561,781650,0.988,0.04,-0.022,0,0,0,-35.5,4.6,26,0.174199652,0.699667348,-0.150791955,0.676259651
298,750115,781650,0.988,0.04,-0.022,0,0,0,-35.5,4.6,26,0.174199652,0.699667348,-0.150791955,0.676259651
299,751647,781650,0.985,0.04,-0.022,0,0,0,-35.5,4.6,26,0.174199652,0.699667348,-0.150791955,0.676259651
300,754276,781660,0.985,0.036,-0.026,0,0,0.1,-35.5,4,26.1,0.174199652,0.699667348,-0.150791955,0.676259651
301,757535,781660,0.981,0.04,-0.026,0,0,0,-35.5,4,26.1,0.174199652,0.699667348,-0.150791955,0.676259651
302,759149,781660,0.981,0.04,-0.022,0,0,0,-35.5,4,26.1,0.174199652,0.699667348,-0.150791955,0.676259651
303,761786,781660,0.981,0.04,-0.022,0,0,0,-35.5,4,26.1,0.174199652,0.699667348,-0.150791955,0.676259651
304,765135,781670,0.985,0.036,-0.03,0,0,0,-35.2,3.5,25.5,0.174199652,0.699667348,-0.150791955,0.676259651
305,766623,781670,0.985,0.032,-0.026,0,0,0,-35.2,3.5,25.5,0.174199652,0.699667348,-0.150791955,0.676259651
306,769484,781670,0.981,0.036,-0.026,0,0.1,0,-35.2,3.5,25.5,0.174199652,0.699667348,-0.150791955,0.676259651
307,771766,781670,0.985,0.044,-0.022,0,0.2,0,-35.2,3.5,25.5,0.174199652,0.699667348,-0.150791955,0.676259651
308,774213,781680,0.985,0.036,-0.026,0,0.4,0,-35.3,7.6,27.6,0.174199652,0.699667348,-0.150791955,0.676259651
309,776842,781680,0.985,0.036,-0.026,0,0.3,0,-35.3,7.6,27.6,0.174199652,0.699667348,-0.150791955,0.676259651
310,779937,781680,0.985,0.032,-0.026,0,0.2,-0.1,-35.3,7.6,27.6,0.174199652,0.69963683,-0.150791955,0.67629017
311,781763,781680,0.985,0.036,-0.018,0,0.1,-0.1,-35.3,7.6,27.6,0.174199652,0.69963683,-0.150791955,0.67629017
312,784680,781690,0.985,0.036,-0.018,0,0.1,-0.1,-35.3,7.6,27.6,0.174199652,0.69963683,-0.150791955,0.67629017
313,787719,781690,0.988,0.036,-0.026,0,0,-0.1,-35.2,5.1,26.6,0.174169134,0.69963683,-0.150822474,0.67629017
314,789249,781690,0.992,0.04,-0.022,0,0,-0.1,-35.2,5.1,26.6,0.174169134,0.69963683,-0.150791955,0.67629017
315,792193,781690,0.985,0.04,-0.018,0,0,-0.2,-35.2,5.1,26.6,0.174199652,0.699667348,-0.150791955,0.67629017
316,795260,781700,0.985,0.04,-0.026,0,0,-0.2,-35.2,5.5,26.6,0.174199652,0.699667348,-0.150791955,0.67629017
317,796750,781700,0.985,0.036,-0.022,0.1,0,-0.1,-35.2,5.5,26.6,0.174199652,0.699667348,-0.150791955,0.67629017
318,799813,781700,0.985,0.036,-0.026,0.1,0.1,0,-35.2,5.5,26.6,0.174199652,0.69963683,-0.150791955,0.67629017
319,801572,781700,0.988,0.04,-0.026,0.1,0.1,0,-35.2,5.5,26.6,0.174199652,0.69963683,-0.150791955,0.67629017
320,804368,781710,0.985,0.04,-0.03,0.1,0.1,0,-35.1,6.5,26.7,0.174169134,0.69963683,-0.150791955,0.67629017
321,807380,781710,0.985,0.036,-0.026,0,0,0,-35.1,6.5,26.7,0.174169134,0.69963683,-0.150791955,0.67629017
322,809084,781710,0.985,0.04,-0.026,0,0,0,-35.1,6.5,26.7,0.174169134,0.69963683,-0.150791955,0.67629017
323,812016,781710,0.985,0.04,-0.022,0,-0.1,0,-35.1,6.5,26.7,0.174169134,0.69963683,-0.150791955,0.67629017
324,814357,781720,0.988,0.036,-0.018,0,-0.1,0,-35.3,6.9,26.5,0.174169134,0.699667348,-0.150791955,0.67629017
325,816821,781720,0.992,0.04,-0.026,0,-0.1,-0.1,-35.3,6.9,26.5,0.174169134,0.699667348,-0.150791955,0.67629017
326,819086,781720,0.988,0.036,-0.026,0,-0.1,-0.1,-35.3,6.9,26.5,0.174169134,0.699667348,-0.150791955,0.67629017
327,822551,781720,0.985,0.036,-0.026,0,0,-0.1,-35.3,6.9,26.5,0.174169134,0.699667348,-0.150791955,0.67629017
328,824087,781730,0.985,0.032,-0.022,0,0,0,-35,6.3,27.2,0.174169134,0.699667348,-0.150791955,0.676259651
329,827077,781730,0.985,0.04,-0.026,0,0,0,-35,6.3,27.2,0.174169134,0.699667348,-0.150791955,0.676259651
330,829282,781730,0.988,0.04,-0.026,0,-0.1,0,-35,6.3,27.2,0.174169134,0.699667348,-0.150791955,0.676259651
331,831533,781730,0.985,0.04,-0.03,0,0,0.1,-35,6.3,27.2,0.174169134,0.699667348,-0.150791955,0.676259651
332,834578,781740,0.988,0.04,-0.026,0,0,0.1,-35,6.5,27.1,0.174169134,0.699697867,-0.150791955,0.676259651
333,836699,781740,0.988,0.04,-0.026,0.1,0.1,0.1,-35,6.5,27.1,0.174169134,0.699697867,-0.150791955,0.676259651
334,839883,781740,0.985,0.04,-0.026,0.1,0,0.1,-35,6.5,27.1,0.174169134,0.699697867,-0.150791955,0.676259651
335,842053,781740,0.985,0.04,-0.018,0,0,0,-35,6.5,27.1,0.174138615,0.699697867,-0.150791955,0.676259651
336,845061,781750,0.985,0.036,-0.026,0,0,0,-35,6.4,26.9,0.174138615,0.699697867,-0.150791955,0.676259651
337,846688,781750,0.981,0.036,-0.026,0,0,0,-35,6.4,26.9,0.174169134,0.699667348,-0.150791955,0.676259651
338,849604,781750,0.985,0.04,-0.022,0,0,0,-35,6.4,26.9,0.174169134,0.699697867,-0.150791955,0.676259651
339,851920,781750,0.985,0.04,-0.022,0,0,0,-35,6.4,26.9,0.174169134,0.699697867,-0.150791955,0.676259651
340,854170,781760,0.985,0.036,-0.026,0,0,0,-35.3,6.7,27.1,0.174169134,0.699697867,-0.150791955,0.676259651
341,857308,781760,0.988,0.04,-0.022,0,0.1,0.1,-35.3,6.7,27.1,0.174169134,0.699667348,-0.150791955,0.676259651
342,859272,781760,0.985,0.04,-0.018,0,0.1,0,-35.3,6.7,27.1,0.174138615,0.699667348,-0.150791955,0.676259651
343,862771,781760,0.988,0.04,-0.018,0,0.1,0,-35.3,6.7,27.1,0.174138615,0.699667348,-0.150791955,0.676259651
344,864320,781770,0.988,0.04,-0.018,0,0,0,-34.9,6.8,27,0.174138615,0.699667348,-0.150791955,0.676259651
345,866628,781770,0.992,0.036,-0.018,0,0,0,-34.9,6.8,27,0.174138615,0.699667348,-0.150791955,0.676259651
346,869194,781770,0.985,0.04,-0.022,0,0,0,-34.9,6.8,27,0.174138615,0.699667348,-0.150791955,0.676259651
347,871653,781770,0.985,0.036,-0.026,0,0,0,-34.9,6.8,27,0.174138615,0.699667348,-0.150791955,0.676259651
348,874868,781780,0.985,0.036,-0.026,0,0,0,-34.9,4.9,26.7,0.174138615,0.699667348,-0.150791955,0.676259651
349,876856,781780,0.985,0.036,-0.03,0,0.1,0,-34.9,4.9,26.7,0.174138615,0.699667348,-0.150791955,0.676259651
350,879114,781780,0.985,0.04,-0.022,0.1,0,0,-34.9,4.9,26.7,0.174138615,0.699667348,-0.150791955,0.676259651
351,883357,781780,0.981,0.04,-0.022,0,0,0,-34.9,4.9,26.7,0.174138615,0.699667348,-0.150791955,0.676259651
352,885616,781790,0.981,0.04,-0.022,0,0,0,-34.9,4.9,26.7,0.174138615,0.699667348,-0.150791955,0.676259651
353,887947,781790,0.985,0.036,-0.022,0,-0.1,0.1,-36,7,26.8,0.174138615,0.699697867,-0.150791955,0.676259651
354,889576,781790,0.988,0.044,-0.026,0,-0.2,0.2,-36,7,26.8,0.174138615,0.699697867,-0.150822474,0.676259651
355,891721,781790,0.985,0.036,-0.026,0,-0.1,0.2,-36,7,26.8,0.174138615,0.699697867,-0.150822474,0.676229133
356,894097,781800,0.985,0.036,-0.03,0,-0.1,0.1,-37,7.1,26.8,0.174138615,0.699697867,-0.150822474,0.676229133
357,896630,781800,0.985,0.04,-0.022,0,0,0,-37,7.1,26.8,0.174138615,0.699697867,-0.150822474,0.676229133
358,900889,781800,0.985,0.044,-0.022,0,0,0,-37,7.1,26.8,0.174138615,0.699697867,-0.150822474,0.676229133
359,901761,781800,0.985,0.04,-0.03,0,0,0,-37,7.1,26.8,0.174138615,0.699697867,-0.150822474,0.676229133
360,904260,781810,0.988,0.036,-0.022,0,0,0,-37.1,7.1,27.2,0.174138615,0.699697867,-0.150822474,0.676229133
361,907362,781810,0.985,0.036,-0.03,0,-0.1,0,-37.1,7.1,27.2,0.174138615,0.699697867,-0.150822474,0.676229133
362,909426,781810,0.988,0.036,-0.026,0,-0.2,0,-37.1,7.1,27.2,0.174138615,0.699697867,-0.150822474,0.676229133
363,912125,781810,0.981,0.036,-0.026,0,-0.2,0,-37.1,7.1,27.2,0.174138615,0.699697867,-0.150822474,0.676229133
364,914361,781820,0.985,0.036,-0.022,0,-0.1,0,-37.3,6.9,27,0.174138615,0.699728385,-0.150822474,0.676229133
365,916661,781820,0.988,0.04,-0.022,0,-0.1,0,-37.3,6.9,27,0.174108097,0.699728385,-0.150822474,0.676229133
366,919275,781820,0.988,0.032,-0.026,0.1,0,0,-37.3,6.9,27,0.174108097,0.699728385,-0.150822474,0.676229133
367,923513,781820,0.985,0.036,-0.026,0,0.1,0,-37.3,6.9,27,0.174108097,0.699728385,-0.150822474,0.676229133
368,924270,781830,0.985,0.036,-0.026,0,0.1,0,-34.3,5.4,27,0.174108097,0.699728385,-0.150822474,0.676229133
369,926744,781830,0.985,0.036,-0.022,0,0,0,-34.3,5.4,27,0.174108097,0.699728385,-0.150822474,0.676229133
370,929850,781830,0.988,0.036,-0.022,0.1,0,0,-34.3,5.4,27,0.174108097,0.699728385,-0.150822474,0.676229133
371,932054,781830,0.985,0.036,-0.026,0.1,0,0,-34.3,5.4,27,0.174108097,0.699728385,-0.150822474,0.676229133
372,934296,781840,0.985,0.036,-0.026,0.1,0,0,-34.3,5.4,27,0.174108097,0.699728385,-0.150822474,0.676229133
373,938346,781840,0.988,0.036,-0.026,0,0,0.1,-36.7,6.9,26.9,0.17404706,0.699697867,-0.150852992,0.676229133
374,940641,781840,0.985,0.036,-0.03,0,0,0.1,-36.7,6.9,26.9,0.17404706,0.699697867,-0.150852992,0.676229133
375,942092,781840,0.985,0.04,-0.022,0,0,0.1,-36.7,6.9,26.9,0.17404706,0.699697867,-0.150852992,0.676229133
376,944494,781850,0.985,0.036,-0.022,0,0,0,-36.1,6.7,26.5,0.17404706,0.699697867,-0.150852992,0.676229133
377,946772,781850,0.985,0.036,-0.022,0,0,0,-36.1,6.7,26.5,0.17404706,0.699697867,-0.150852992,0.676229133
378,949114,781850,0.988,0.04,-0.018,0,0,0,-36.1,6.7,26.5,0.17404706,0.699697867,-0.150852992,0.676229133
379,951617,781850,0.985,0.04,-0.026,0,0,-0.1,-36.1,6.7,26.5,0.17404706,0.699697867,-0.150852992,0.676229133
380,955079,781860,0.985,0.04,-0.022,0,0,0,-35.7,6.8,26.9,0.17404706,0.699728385,-0.150852992,0.676229133
381,957263,781860,0.985,0.036,-0.026,0,0,0,-35.7,6.8,26.9,0.17404706,0.699728385,-0.150852992,0.676229133
382,959540,781860,0.985,0.032,-0.022,0,0.1,0,-35.7,6.8,26.9,0.17404706,0.699728385,-0.150852992,0.676229133
383,961859,781860,0.981,0.036,-0.022,0,0.1,0,-35.7,6.8,26.9,0.17404706,0.699697867,-0.150852992,0.676229133
384,964346,781870,0.981,0.04,-0.026,0,0.1,0,-35.2,6.8,26.5,0.17404706,0.699697867,-0.150822474,0.676229133
385,966621,781870,0.985,0.044,-0.026,0,0,-0.1,-35.2,6.8,26.5,0.17404706,0.699697867,-0.150822474,0.676229133
386,970706,781870,0.988,0.036,-0.026,0,0,-0.2,-35.2,6.8,26.5,0.17404706,0.699697867,-0.150822474,0.676229133
387,973042,781870,0.988,0.04,-0.026,0,0.1,-0.1,-35.2,6.8,26.5,0.17404706,0.699697867,-0.150822474,0.676229133
388,974626,781880,0.988,0.036,-0.018,0,0.1,0,-35.2,5.9,26.8,0.17404706,0.699697867,-0.150822474,0.676229133
389,976951,781880,0.985,0.036,-0.022,-0.1,0.1,0,-35.2,5.9,26.8,0.17404706,0.699697867,-0.150822474,0.676259651
390,979200,781880,0.988,0.044,-0.026,0,0.1,0,-35.2,5.9,26.8,0.174108097,0.699697867,-0.150822474,0.676259651
391,981764,781880,0.985,0.04,-0.022,0,0.1,0,-35.2,5.9,26.8,0.174108097,0.699697867,-0.150822474,0.676259651
392,985161,781890,0.985,0.04,-0.022,0,0.1,0,-35.2,5.9,26.8,0.174108097,0.699697867,-0.150822474,0.676259651
393,986712,781890,0.981,0.04,-0.026,0,0,0,-35,6,27,0.174108097,0.699667348,-0.150822474,0.676259651
394,989242,781890,0.985,0.04,-0.018,0,0,0,-35,6,27,0.174108097,0.699667348,-0.150822474,0.676259651
395,992652,781890,0.985,0.036,-0.018,0,0.1,0,-35,6,27,0.174108097,0.699667348,-0.150822474,0.676259651
396,994146,781900,0.985,0.032,-0.026,0.1,0.1,0,-35,6,26.9,0.174108097,0.699667348,-0.150822474,0.676259651
397,996742,781900,0.988,0.04,-0.022,0.2,0.1,0,-35,6,26.9,0.174108097,0.699667348,-0.150822474,0.676259651
398,1000161,781900,0.988,0.044,-0.026,0.1,0.1,0,-35,6,26.9,0.174108097,0.699667348,-0.150791955,0.67629017
399,1002416,781900,0.985,0.036,-0.026,0,0.2,0,-35,6,26.9,0.174108097,0.699667348,-0.150791955,0.67629017
400,1005001,781910,0.981,0.036,-0.022,0,0.2,0,-35.6,6.2,27,0.174108097,0.699667348,-0.150791955,0.67629017
401,1006780,781910,0.981,0.036,-0.026,0,0.3,0,-35.6,6.2,27,0.174108097,0.699667348,-0.150791955,0.67629017
402,1009862,781910,0.981,0.036,-0.022,0.1,0.2,0,-35.6,6.2,27,0.174108097,0.699667348,-0.150791955,0.67629017
403,1011695,781910,0.988,0.04,-0.026,0,0.1,0,-35.6,6.2,27,0.174108097,0.699667348,-0.150791955,0.67629017
404,1014071,781920,0.988,0.04,-0.022,0,0.1,0,-35,6.1,27,0.174108097,0.699667348,-0.150791955,0.67629017
405,1017703,781920,0.992,0.032,-0.022,0,0,0.1,-35,6.1,27,0.174108097,0.699667348,-0.150791955,0.67629017
406,1019184,781920,0.988,0.036,-0.022,0,0,0,-35,6.1,27,0.17404706,0.699667348,-0.150791955,0.67629017
407,1021828,781920,0.988,0.036,-0.022,0,0,-0.1,-35,6.1,27,0.174108097,0.699667348,-0.150791955,0.67629017
408,1025122,781930,0.988,0.032,-0.022,0,-0.1,-0.2,-35,6.1,27,0.174108097,0.699667348,-0.150791955,0.67629017
409,1026675,781930,0.988,0.036,-0.018,0,0,-0.1,-35,6.1,27,0.174108097,0.699667348,-0.150791955,0.67629017
410,1029158,781930,0.988,0.04,-0.03,0,0,0,-35,6.1,27,0.174108097,0.699667348,-0.150791955,0.67629017
411,1031743,781930,0.988,0.036,-0.026,-0.1,0,0.1,-35,6.1,27,0.174108097,0.699667348,-0.150791955,0.67629017
412,1034909,781940,0.981,0.036,-0.022,0,0,0,-34.3,5.8,26.9,0.17404706,0.699667348,-0.150822474,0.67629017
413,1036709,781940,0.985,0.036,-0.018,0,0,0,-34.3,5.8,26.9,0.17404706,0.699667348,-0.150822474,0.67629017
414,1039274,781940,0.985,0.044,-0.026,0,0,0,-34.3,5.8,26.9,0.17404706,0.699667348,-0.150822474,0.67629017
415,1041734,781940,0.981,0.036,-0.026,0,0,0,-34.3,5.8,26.9,0.17404706,0.699667348,-0.150822474,0.67629017
416,1045234,781950,0.985,0.032,-0.022,0,0,0,-33.7,5.9,27.1,0.17404706,0.699667348,-0.150822474,0.67629017
417,1047581,781950,0.988,0.036,-0.026,0,0,0,-33.7,5.9,27.1,0.17404706,0.699667348,-0.150822474,0.67629017
418,1049670,781950,0.988,0.036,-0.022,-0.1,0,0,-33.7,5.9,27.1,0.17404706,0.699667348,-0.150822474,0.67629017
419,1051893,781950,0.988,0.04,-0.018,-0.1,0,0,-33.7,5.9,27.1,0.17404706,0.699667348,-0.150822474,0.67629017
420,1054138,781960,0.981,0.04,-0.026,-0.1,0,0,-34,5.9,27,0.17404706,0.699667348,-0.150822474,0.67629017
421,1056821,781960,0.985,0.04,-0.03,-0.1,0,0,-34,5.9,27,0.17404706,0.699667348,-0.150822474,0.67629017
422,1060254,781960,0.988,0.036,-0.026,0,0,0,-34,5.9,27,0.17404706,0.699667348,-0.150822474,0.67629017
423,1061730,781960,0.985,0.036,-0.026,0,0.1,0,-34,5.9,27,0.17404706,0.699667348,-0.150822474,0.67629017
424,1064325,781970,0.985,0.04,-0.022,0.1,0.2,0,-34.2,5.8,27,0.17404706,0.69963683,-0.150822474,0.67629017
425,1066691,781970,0.988,0.036,-0.018,0.1,0.2,0,-34.2,5.8,27,0.17404706,0.69963683,-0.150822474,0.67629017
426,1070833,781970,0.985,0.04,-0.03,0,0.1,0,-34.2,5.8,27,0.17404706,0.69963683,-0.150822474,0.676320688
427,1073001,781970,0.985,0.036,-0.022,0,0,0,-34.2,5.8,27,0.17404706,0.69963683,-0.150822474,0.676320688
428,1075231,781980,0.981,0.033,-0.022,0,0,0,-34.2,5.8,27,0.17404706,0.69963683,-0.150822474,0.67629017
429,1077696,781980,0.981,0.04,-0.022,-0.1,0,0,-34.2,5.8,27,0.17404706,0.69963683,-0.150822474,0.67629017
430,1080150,781980,0.985,0.032,-0.026,-0.1,0,0.1,-34.2,5.8,27,0.17404706,0.69963683,-0.150852992,0.67629017
431,1082463,781980,0.988,0.036,-0.026,-0.1,0.1,0.1,-34.2,5.8,27,0.17404706,0.69963683,-0.150852992,0.67629017
432,1085244,781990,0.988,0.036,-0.026,-0.1,0.1,0.1,-34.2,5.8,27,0.17404706,0.69963683,-0.150852992,0.67629017
433,1087563,781990,0.992,0.04,-0.022,0,0.2,0,-34.6,5.8,27,0.17404706,0.69963683,-0.150883511,0.676320688
434,1089659,781990,0.992,0.044,-0.022,0,0.2,0,-34.6,5.8,27,0.17404706,0.69963683,-0.150883511,0.676320688
435,1092048,781990,0.985,0.036,-0.022,0,0.1,0,-34.6,5.8,27,0.17404706,0.69963683,-0.150883511,0.676320688
436,1094192,782000,0.985,0.044,-0.022,0.1,0,0,-34.9,6,27.5,0.17404706,0.69963683,-0.150852992,0.676320688
437,1096898,782000,0.988,0.04,-0.026,0.1,0,0,-34.9,6,27.5,0.17404706,0.69963683,-0.150852992,0.676320688
438,1100225,782000,0.985,0.036,-0.018,0.1,0,0,-34.9,6,27.5,0.17404706,0.69963683,-0.150852992,0.676320688
439,1101716,782000,0.988,0.036,-0.026,0,0,0,-34.9,6,27.5,0.17404706,0.69963683,-0.150852992,0.676320688
440,1105071,782010,0.981,0.04,-0.026,0,0,0,-35.1,5.9,27,0.17404706,0.69963683,-0.150852992,0.676320688
441,1106630,782010,0.985,0.04,-0.026,0,0.1,0,-35.1,5.9,27,0.17404706,0.69963683,-0.150852992,0.676320688
442,1109136,782010,0.985,0.036,-0.03,0,0.1,0,-35.1,5.9,27,0.17404706,0.699606311,-0.150852992,0.676320688
443,1111628,782010,0.981,0.036,-0.026,0,0.1,0,-35.1,5.9,27,0.17404706,0.699606311,-0.150852992,0.676320688
444,1115195,782020,0.988,0.044,-0.026,0,0,0,-34.5,6.3,27.2,0.17404706,0.699606311,-0.150852992,0.676320688
445,1117417,782020,0.988,0.036,-0.014,0,0,0,-34.5,6.3,27.2,0.17404706,0.699606311,-0.150852992,0.676320688
446,1119573,782020,0.985,0.04,-0.022,0.1,0,0,-34.5,6.3,27.2,0.17404706,0.699606311,-0.150852992,0.676320688
447,1122020,782020,0.988,0.04,-0.026,0,0,0,-34.5,6.3,27.2,0.17404706,0.699606311,-0.150852992,0.676320688
448,1124227,782030,0.992,0.036,-0.026,0,0,0,-34.5,6.3,27.2,0.17404706,0.699606311,-0.150852992,0.676320688
449,1127236,782030,0.985,0.04,-0.026,0,0,0,-34.5,6.3,27.2,0.17404706,0.699606311,-0.150852992,0.676320688
450,1129507,782030,0.988,0.036,-0.022,0,0,0,-34.5,6.3,27.2,0.17404706,0.699606311,-0.150852992,0.676320688
451,1131721,782030,0.988,0.04,-0.03,0,0,0,-34.5,6.3,27.2,0.17404706,0.699606311,-0.150852992,0.676320688
452,1134261,782040,0.988,0.04,-0.03,0,0,0,-34.5,6.3,27.2,0.17404706,0.699606311,-0.150852992,0.676320688
453,1136582,782040,0.985,0.04,-0.026,0,-0.1,-0.1,-34.9,6.2,27.9,0.17404706,0.69963683,-0.150852992,0.676320688
454,1140097,782040,0.985,0.036,-0.022,0,0,-0.1,-34.9,6.2,27.9,0.17404706,0.69963683,-0.150852992,0.676320688
455,1141659,782040,0.981,0.036,-0.026,0,0,-0.1,-34.9,6.2,27.9,0.17404706,0.69963683,-0.150852992,0.67629017
456,1144617,782050,0.985,0.04,-0.026,0,0,-0.1,-35.2,5.9,27.8,0.17404706,0.69963683,-0.150852992,0.67629017
457,1146919,782050,0.985,0.036,-0.022,0,-0.1,0,-35.2,5.9,27.8,0.17404706,0.69963683,-0.150852992,0.67629017
458,1149199,782050,0.988,0.044,-0.022,0,-0.1,0,-35.2,5.9,27.8,0.17404706,0.699667348,-0.150852992,0.67629017
459,1151591,782050,0.985,0.036,-0.026,0,-0.1,0,-35.2,5.9,27.8,0.17404706,0.699667348,-0.150852992,0.67629017
460,1155214,782060,0.988,0.04,-0.022,-0.1,-0.1,0,-35.2,6,28.4,0.17404706,0.699667348,-0.150852992,0.67629017
461,1156794,782060,0.988,0.036,-0.022,-0.1,-0.1,0,-35.2,6,28.4,0.17404706,0.699667348,-0.150852992,0.67629017
462,1159263,782060,0.988,0.036,-0.022,-0.1,0,0,-35.2,6,28.4,0.17404706,0.699667348,-0.150852992,0.67629017
463,1162764,782060,0.985,0.04,-0.022,0,0,0,-35.2,6,28.4,0.17404706,0.699667348,-0.150852992,0.67629017
464,1164230,782070,0.988,0.036,-0.022,0,0,0,-35.1,5.7,28.8,0.17404706,0.699667348,-0.150852992,0.67629017
465,1166517,782070,0.985,0.036,-0.026,0,0.1,0,-35.1,5.7,28.8,0.17404706,0.699667348,-0.150852992,0.67629017
466,1169010,782070,0.985,0.04,-0.026,0,0.1,0,-35.1,5.7,28.8,0.17404706,0.699667348,-0.150852992,0.67629017
467,1173201,782070,0.988,0.036,-0.026,0,0,0,-35.1,5.7,28.8,0.17404706,0.699667348,-0.150852992,0.67629017
468,1175460,782080,0.988,0.036,-0.022,0,-0.1,0.1,-35.1,5.7,28.8,0.17404706,0.699667348,-0.150852992,0.67629017
469,1176984,782080,0.988,0.04,-0.022,0,-0.3,0.1,-35.1,5.7,28.8,0.17404706,0.699667348,-0.150852992,0.67629017
470,1179257,782080,0.988,0.036,-0.026,0,-0.4,0,-35.1,5.7,28.8,0.17404706,0.699667348,-0.150852992,0.67629017
471,1181726,782080,0.988,0.04,-0.026,0,-0.3,0,-35.1,5.7,28.8,0.17404706,0.699667348,-0.150852992,0.676259651
472,1185197,782090,0.988,0.04,-0.026,0,-0.3,0,-35.1,5.7,28.8,0.17404706,0.699667348,-0.150852992,0.676259651
473,1186760,782090,0.985,0.036,-0.03,0,-0.1,0,-35.2,5.9,27.9,0.17404706,0.699667348,-0.150883511,0.676259651
474,1189190,782090,0.985,0.04,-0.026,-0.1,-0.1,0,-35.2,5.9,27.9,0.17404706,0.699697867,-0.150883511,0.676259651
475,1192693,782090,0.985,0.036,-0.026,0,-0.1,0,-35.2,5.9,27.9,0.17404706,0.699697867,-0.150883511,0.676259651
476,1194255,782100,0.985,0.04,-0.018,0,0,0,-35.1,6.2,28.6,0.17404706,0.699697867,-0.150883511,0.676259651
477,1196766,782100,0.985,0.04,-0.022,0.1,0.2,0,-35.1,6.2,28.6,0.17404706,0.699697867,-0.150852992,0.676259651
478,1200219,782100,0.992,0.04,-0.026,0.1,0.3,0,-35.1,6.2,28.6,0.17404706,0.699667348,-0.150852992,0.676259651
479,1201663,782100,0.988,0.04,-0.026,0,0.3,0,-35.1,6.2,28.6,0.17404706,0.699667348,-0.150852992,0.676259651
480,1204251,782110,0.985,0.04,-0.022,0,0.1,0,-34.9,6.4,27.9,0.17404706,0.699667348,-0.150852992,0.67629017
481,1207714,782110,0.985,0.04,-0.018,0,0,0,-34.9,6.4,27.9,0.17404706,0.699667348,-0.150852992,0.67629017
482,1209128,782110,0.985,0.036,-0.026,0,0,-0.1,-34.9,6.4,27.9,0.17404706,0.699667348,-0.150852992,0.67629017
483,1211782,782110,0.985,0.04,-0.022,0,0,-0.1,-34.9,6.4,27.9,0.17404706,0.699667348,-0.150852992,0.67629017
484,1215151,782120,0.985,0.04,-0.026,0,0.1,-0.1,-35.2,6.3,27.5,0.17404706,0.699667348,-0.150852992,0.67629017
485,1216736,782120,0.985,0.036,-0.026,0,0.1,0,-35.2,6.3,27.5,0.17404706,0.699667348,-0.150852992,0.67629017
486,1219431,782120,0.988,0.04,-0.026,0,0.1,0,-35.2,6.3,27.5,0.17404706,0.699667348,-0.150852992,0.67629017
487,1222664,782120,0.985,0.04,-0.026,0,0,0,-35.2,6.3,27.5,0.17404706,0.699667348,-0.150852992,0.67629017
488,1224116,782130,0.988,0.04,-0.022,0,-0.1,0,-35.2,6.3,27.5,0.17404706,0.699667348,-0.150852992,0.67629017
489,1226616,782130,0.981,0.04,-0.03,0,-0.2,0,-35.2,6.3,27.5,0.17404706,0.699667348,-0.150852992,0.676259651
490,1230092,782130,0.985,0.04,-0.026,0,-0.1,0,-35.2,6.3,27.5,0.17404706,0.699667348,-0.150852992,0.676259651
491,1231647,782130,0.985,0.032,-0.03,0,-0.1,0,-35.2,6.3,27.5,0.17404706,0.699667348,-0.150852992,0.676259651
492,1234530,782140,0.985,0.032,-0.03,0,-0.1,0,-35.2,6.3,27.5,0.17404706,0.699667348,-0.150852992,0.676259651
493,1236533,782140,0.985,0.036,-0.022,0,-0.1,0,-35.1,6,26.5,0.17404706,0.699728385,-0.150852992,0.676229133
494,1239641,782140,0.985,0.04,-0.03,0.1,-0.1,0,-35.1,6,26.5,0.17404706,0.699728385,-0.150852992,0.676229133
495,1242679,782140,0.988,0.036,-0.026,0.1,0,0,-35.1,6,26.5,0.17404706,0.699728385,-0.150852992,0.676229133
496,1244230,782150,0.985,0.036,-0.026,0.1,0,0,-35.2,5.7,26.1,0.17404706,0.699728385,-0.150852992,0.676229133
497,1246616,782150,0.988,0.04,-0.022,0,0,0,-35.2,5.7,26.1,0.17404706,0.699728385,-0.150852992,0.676229133
498,1249508,782150,0.985,0.032,-0.022,0,0,0,-35.2,5.7,26.1,0.17404706,0.699728385,-0.150852992,0.676229133
499,1252577,782150,0.988,0.036,-0.018,0,0,0,-35.2,5.7,26.1,0.17404706,0.699728385,-0.150852992,0.676229133
500,1255435,782160,-3.996,-2.336,-3.631,0,0.2,0,-35,6.2,26,0.17404706,0.699728385,-0.150852992,0.676229133
501,1256893,782160,3.665,-2.704,-8.092,-7.5,46.9,2.9,-35,6.2,26,0.174291208,0.698995941,-0.150822474,0.676931059
502,1259869,782160,4.537,-0.483,-8.102,-16.9,188.9,1.2,-35,6.2,26,0.175145726,0.696127201,-0.150364696,0.67976928
503,1261649,782160,5.743,7.098,-7.73,17.8,290.7,-9.3,-35,6.2,26,0.175969726,0.691885128,-0.148838771,0.684194464
504,1265099,782170,6.903,7.994,5.856,112.8,233.7,-29.2,-36.7,7.1,25.6,0.175450911,0.688924833,-0.145817438,0.687948241
505,1266703,782170,4.376,0.921,7.918,186.6,31.7,-43.8,-36.7,7.1,25.6,0.173406171,0.689291055,-0.142246773,0.688863796
506,1269074,782170,1.643,-8.082,6.36,101.2,-107.3,-34.9,-36.7,7.1,25.6,0.172093875,0.691396832,-0.140598773,0.687429426
507,1271675,782170,-6.328,7.863,8.238,-59,-69.3,-7,-36.7,7.1,25.6,0.172856838,0.692220832,-0.141636402,0.686178167
508,1274104,782180,-1.865,0.949,6.223,-145.3,68.2,14.9,-36.7,7.1,25.6,0.175023652,0.690603351,-0.143772698,0.686788537
509,1277738,782180,1.919,-5.084,-4.782,-115.4,135,16.7,-36.7,7.1,25.6,0.176946318,0.688070315,-0.145237587,0.688528092
510,1279218,782180,-0.382,1.215,2.352,-69.8,77.5,2.1,-36.7,7.1,25.6,0.178228095,0.686635945,-0.146031068,0.689474166
511,1281582,782180,0.102,-0.571,-2.821,-50.3,-30.6,-11,-36.7,7.1,25.6,0.179052095,0.68694113,-0.146702475,0.688833277
512,1284392,782190,0.576,-3.072,-4.867,-19.4,-69.7,-16.8,-37.3,6.2,27,0.17935728,0.687978759,-0.147068697,0.687643056
513,1287359,782190,-0.13,-3.524,-1.658,11.4,-30.6,-14.3,-37.3,6.2,27,0.179296243,0.688528092,-0.146794031,0.687154759
514,1289077,782190,1.176,-2.058,2.578,17.1,9.7,-4.1,-37.3,6.2,27,0.179143651,0.688467055,-0.146427808,0.68733787
515,1291726,782190,1.383,-2.11,2.889,8.9,12.5,6.3,-37.3,6.2,27,0.178930021,0.688283944,-0.146336253,0.687582018
516,1294009,782200,0.88,-0.113,2.7,4.9,-13.2,11.8,-37,6,27,0.178655354,0.688467055,-0.146488845,0.687459944
517,1297624,782200,0.175,1.796,0.26,9.6,-34.2,9.8,-37,6,27,0.178258614,0.68898587,-0.146641438,0.687002167
518,1299220,782200,0.688,0.345,-0.73,21.4,-27.6,3.3,-37,6,27,0.177800836,0.689474166,-0.146458327,0.686666463
519,1301588,782200,1.193,0.021,-0.679,30.2,-8.1,-2.7,-37,6,27,0.177343059,0.689718314,-0.146000549,0.686635945
520,1305139,782210,1.457,0.561,0.411,25.8,2.3,-4.8,-37.2,5.1,26.9,0.177037873,0.68980987,-0.145542772,0.6867275
521,1306627,782210,1.204,-0.336,-0.753,13.6,-0.3,-3.1,-37.2,5.1,26.9,0.176885281,0.689870907,-0.145298624,0.686758019
522,1309373,782210,0.932,-0.181,-1.093,4,-4.2,-0.1,-37.2,5.1,26.9,0.176824244,0.689931944,-0.145237587,0.686696982
523,1312406,782210,0.889,0.11,-1.038,-1.4,-2.6,2.4,-37.2,5.1,26.9,0.176793725,0.689962462,-0.145298624,0.686666463
524,1314172,782220,0.901,-0.424,-0.52,-4.7,-0.3,3.8,-37.2,4.8,27,0.176793725,0.689931944,-0.145451216,0.686666463
525,1317749,782220,0.921,-0.51,-0.379,-6.3,-2.3,4.2,-37.2,4.8,27,0.176824244,0.689931944,-0.145603809,0.686635945
526,1319166,782220,0.952,-0.274,-0.392,-7,-7.3,4.1,-37.2,4.8,27,0.176854762,0.690023499,-0.145817438,0.686513871
527,1322232,782220,1.011,-0.089,-0.336,-4.9,-9.7,4.1,-37.2,4.8,27,0.176824244,0.690115055,-0.145970031,0.686361278
528,1325247,782230,1.132,0.022,-0.458,0.9,-7.5,4,-37.2,4.8,27,0.176732688,0.690237129,-0.146061586,0.686269723
529,1326696,782230,1.152,0.306,-0.318,7.5,-2.6,3.8,-37.2,4.8,27,0.176549577,0.690298166,-0.146000549,0.686269723
530,1329718,782230,1.136,0.302,-0.294,11.4,2.3,3.5,-37.2,4.8,27,0.176335948,0.690267647,-0.145878475,0.686361278
531,1332768,782230,1.046,0.22,-0.393,10.9,6.5,3,-37.2,4.8,27,0.176152837,0.69020661,-0.145725883,0.686513871
532,1335599,782240,1.036,0.422,-0.08,7,9.1,2.5,-36.8,5.2,26.5,0.176000244,0.690084536,-0.145634327,0.686666463
533,1337116,782240,1.098,0.402,0.106,2.1,9.1,1.9,-36.8,5.2,26.5,0.176000244,0.689962462,-0.145603809,0.686819056
534,1340117,782240,1.192,0.279,0.138,-1.6,5.5,1.3,-36.8,5.2,26.5,0.176000244,0.689870907,-0.145634327,0.686910611
535,1343023,782240,1.192,0.473,0.392,-3.4,0,0.7,-36.8,5.2,26.5,0.176061281,0.689840388,-0.145695364,0.686910611
536,1344615,782250,1.138,0.371,0.606,-3.3,-4,0,-36.5,5.1,26.8,0.1760918,0.689901425,-0.145725883,0.686819056
537,1346642,782250,1.142,0.233,0.469,-2,-4.6,-0.6,-36.5,5.1,26.8,0.176122318,0.689962462,-0.14578692,0.686758019
538,1349597,782250,0.97,0.08,0.267,-0.4,-2.6,-1.2,-36.5,5.1,26.8,0.176122318,0.690023499,-0.14578692,0.686696982
539,1352622,782250,0.891,-0.037,-0.031,0,0.3,-1.7,-36.5,5.1,26.8,0.176152837,0.690023499,-0.145725883,0.686696982
540,1354147,782260,0.836,-0.021,-0.221,-0.4,3.1,-1.8,-36.7,6.2,26.8,0.176213874,0.689962462,-0.145725883,0.6867275
541,1356601,782260,0.821,0.081,-0.154,-1,5.1,-1.8,-36.7,6.2,26.8,0.176274911,0.689901425,-0.145695364,0.686819056
542,1360137,782260,0.965,0.08,0.071,-1.4,5,-1.7,-36.7,6.2,26.8,0.176335948,0.68980987,-0.145664846,0.686880093
543,1361641,782260,1.039,0.017,0.206,-1.8,2.1,-1.5,-36.7,6.2,26.8,0.176396985,0.689779351,-0.145664846,0.686880093
544,1364104,782270,1.082,-0.014,0.213,-2.6,-2.3,-1.1,-36.6,6.6,26.5,0.176458022,0.68980987,-0.145695364,0.686849574
545,1368450,782270,1.062,-0.046,-0.032,-3.7,-5.9,-0.7,-36.6,6.6,26.5,0.17648854,0.689870907,-0.145725883,0.6867275
546,1370760,782270,1.023,-0.042,-0.129,-4.2,-6.8,-0.2,-36.6,6.6,26.5,0.176549577,0.689962462,-0.145847957,0.686635945
547,1373291,782270,1.015,-0.046,-0.172,-3.5,-5.2,0,-36.6,6.6,26.5,0.176580096,0.690023499,-0.145939512,0.686544389
548,1375450,782280,1,-0.018,-0.101,-2.3,-3.2,0.4,-36.6,6.6,26.5,0.176580096,0.690084536,-0.146000549,0.686483352
549,1377822,782280,0.993,0.049,0.231,-1,-2.4,0.8,-36.6,6.6,26.5,0.176580096,0.690115055,-0.146031068,0.686452834
550,1380086,782280,1.009,0.08,0.313,-0.1,-3.2,1.4,-36.6,6.6,26.5,0.176549577,0.690145573,-0.146061586,0.686391797
551,1382108,782280,1.02,0.096,0.344,0.4,-5,2,-36.6,6.6,26.5,0.17648854,0.69020661,-0.146092105,0.68633076
552,1384424,782290,1.012,0.005,0.196,0.5,-6.7,2.5,-36.5,6.9,27.6,0.176427503,0.690328684,-0.146153142,0.686239204
553,1386817,782290,1.012,0.021,0.133,0,-7.5,2.8,-36.5,6.9,27.6,0.176366466,0.69042024,-0.146244697,0.686147649
554,1389211,782290,1.024,0.032,0.078,-0.7,-7.5,2.9,-36.5,6.9,27.6,0.176305429,0.690511795,-0.146305734,0.686025575
555,1393381,782290,1.035,-0.022,0.015,-1.4,-7.6,3,-36.5,6.9,27.6,0.176274911,0.690633869,-0.146427808,0.685934019
556,1395559,782300,1.039,-0.093,-0.055,-2.5,-8.4,3.3,-36.5,6.8,27.7,0.176213874,0.690725425,-0.146549883,0.685811945
557,1397023,782300,0.98,-0.116,-0.002,-4.2,-10.1,4,-36.5,6.8,27.7,0.176183355,0.690847499,-0.146702475,0.685659352
558,1400947,782300,0.945,-0.147,0.049,-6.1,-11.9,4.9,-36.5,6.8,27.7,0.176183355,0.691000092,-0.146916105,0.685476241
559,1403326,782300,0.887,-0.123,0.016,-7.4,-13.2,5.7,-36.5,6.8,27.7,0.176152837,0.691152684,-0.147160253,0.685262612
560,1405243,782310,0.875,-0.088,0.032,-7.6,-14.3,6.4,-36.7,6.8,27.6,0.176122318,0.691305277,-0.147434919,0.685048982
561,1407668,782310,0.887,-0.099,0.094,-7.2,-16,6.9,-36.7,6.8,27.6,0.1760918,0.691488388,-0.147679067,0.684804834
562,1409683,782310,0.914,-0.151,0.109,-6.9,-18.7,7.3,-36.7,6.8,27.6,0.176000244,0.691732536,-0.147984252,0.684530168
563,1412034,782310,0.84,-0.134,0.052,-7.2,-21.7,7.4,-36.7,6.8,27.6,0.175939207,0.692007202,-0.148289438,0.684224982
564,1414259,782320,0.848,-0.072,0.029,-7.6,-23.5,6.9,-36.1,6.8,27.7,0.17587817,0.692281869,-0.148594623,0.68385876
565,1416989,782320,0.88,-0.009,0.047,-7.1,-23.4,5.7,-36.1,6.8,27.7,0.175817133,0.692587054,-0.148869289,0.683492538
566,1419147,782320,0.911,0.022,0.12,-5.5,-21.5,4.1,-36.1,6.8,27.7,0.175786615,0.692892239,-0.149113437,0.683187353
567,1423209,782320,0.868,0.022,0.106,-4,-18.9,2.7,-36.1,6.8,27.7,0.175725578,0.693136387,-0.149296548,0.682882168
568,1425527,782330,0.895,0.069,0.109,-3.4,-16.3,1.7,-36.1,6.8,27.7,0.175725578,0.693380535,-0.149418622,0.68263802
569,1427845,782330,0.896,0.175,0.132,-3.1,-13.4,1,-36.1,6.8,27.7,0.175695059,0.693563646,-0.149540696,0.68242439
570,1430095,782330,0.826,0.156,0.15,-2.3,-10,0.6,-36.1,6.8,27.7,0.175695059,0.69368572,-0.149632252,0.682271798
571,1432133,782330,0.693,0.173,-0.001,-1.1,-7.1,0.1,-36.1,6.8,27.7,0.175695059,0.693807794,-0.149632252,0.682149724
572,1434424,782340,0.938,0.242,0.088,-0.2,-5.4,0,-36.1,5.1,27.7,0.175664541,0.693868831,-0.149693289,0.682058168
573,1436670,782340,0.81,0.294,0.26,0.6,-5.9,-0.4,-36.1,5.1,27.7,0.175634022,0.693960387,-0.149693289,0.681966613
574,1440176,782340,0.892,0.222,0.03,1.5,-8.5,-0.8,-36.1,5.1,27.7,0.175603504,0.69411298,-0.149693289,0.681844539
575,1442519,782340,0.907,0.246,0.061,2.2,-12.5,-1.2,-36.1,5.1,27.7,0.175542467,0.694296091,-0.149693289,0.681661428
576,1444645,782350,0.974,0.281,0.102,2.4,-16.8,-1.1,-36.1,5.1,27.7,0.175481429,0.694570757,-0.149693289,0.68141728
577,1447044,782350,1.071,0.221,0.056,2.9,-20.7,-0.9,-36.1,5.1,27.7,0.175389874,0.694875942,-0.149723807,0.681112094
578,1449447,782350,1.098,0.181,0.036,3.2,-23.4,-0.7,-36.1,5.1,27.7,0.1752678,0.695242164,-0.149754326,0.680745872
579,1451980,782350,1.109,0.142,0.031,2.9,-24.7,-0.4,-36.1,5.1,27.7,0.175145726,0.695638905,-0.149784845,0.68037965
580,1454277,782360,1.102,0.106,0.02,1.9,-24.4,0,-36.1,5.1,27.7,0.175023652,0.696005127,-0.1498764,0.680013428
581,1458369,782360,1.051,0.04,-0.032,0.8,-22.6,0.6,-36.1,5.1,27.7,0.174932096,0.696340831,-0.149937437,0.679677725
582,1459100,782360,1.019,-0.002,-0.062,-0.1,-20.1,1.2,-36.1,5.1,27.7,0.174871059,0.696615497,-0.150059511,0.679372539
583,1461688,782360,0.988,-0.042,-0.089,-1.1,-17.8,1.6,-36.1,5.1,27.7,0.174810022,0.696890164,-0.150151067,0.679128391
584,1465101,782370,0.961,-0.053,-0.135,-2.1,-16.2,1.6,-36.1,5.1,27.7,0.174748985,0.697103793,-0.150273141,0.678853725
585,1466606,782370,0.957,-0.041,-0.146,-2.7,-15.8,1.3,-36.1,5.1,27.7,0.174718467,0.697347942,-0.150395215,0.678609577
586,1469243,782370,0.957,-0.041,-0.17,-2.5,-16,0.9,-36.1,5.1,27.7,0.174687948,0.697561571,-0.150517289,0.678365429
587,1472657,782370,0.953,-0.03,-0.205,-1.9,-16.6,0.4,-36.1,5.1,27.7,0.17465743,0.697805719,-0.150608844,0.678121281
588,1475657,782380,0.992,-0.018,-0.253,-1.1,-17.2,0.1,-36.1,5.1,27.7,0.174626911,0.698049867,-0.1507004,0.677846614
589,1477638,782380,1.019,-0.015,-0.289,-0.3,-17.7,-0.1,-36.1,5.1,27.7,0.174565874,0.698294015,-0.150761437,0.677571947
590,1480741,782380,1.05,-0.003,-0.314,0.3,-18,-0.3,-36.1,5.1,27.7,0.174504837,0.698568682,-0.150822474,0.677297281
591,1483005,782380,1.097,0.007,-0.327,1,-17.9,-0.3,-36.1,5.1,27.7,0.1744438,0.698843348,-0.150852992,0.677022614
592,1484472,782390,1.101,0.015,-0.331,1.6,-17.1,-0.2,-34.5,5.2,27.2,0.174291208,0.699270608,-0.150975066,0.676595355
593,1486671,782390,1.112,0.027,-0.336,2.2,-15.8,-0.2,-34.5,5.2,27.2,0.174199652,0.699514756,-0.151005585,0.676351207
594,1489058,782390,1.112,0.046,-0.351,2.7,-13.9,-0.2,-34.5,5.2,27.2,0.174108097,0.699758904,-0.151005585,0.676168096
595,1491427,782390,1.109,0.066,-0.343,3.4,-11.7,-0.2,-34.5,5.2,27.2,0.174016541,0.699942015,-0.151005585,0.675984985
596,1495764,782400,1.101,0.07,-0.335,4,-9.2,-0.1,-34.5,5.2,27.2,0.173924986,0.700094607,-0.150975066,0.675862911
597,1497516,782400,1.093,0.078,-0.316,4.3,-6.6,-0.1,-34.5,5.2,27.2,0.173863948,0.700186163,-0.150944548,0.675771355
598,1499527,782400,1.066,0.086,-0.283,4.2,-4.1,-0.1,-34.5,5.2,27.2,0.173772393,0.700277718,-0.150883511,0.675710318
599,1502720,782400,1.05,0.083,-0.267,3.9,-2.1,-0.2,-34.5,5.2,27.2,0.173711356,0.700338755,-0.150822474,0.675710318
600,1504249,782410,1.035,0.083,-0.235,3.4,-0.6,-0.1,-34.5,5.2,27.2,0.173650319,0.700338755,-0.150761437,0.675710318
601,1508061,782410,1.015,0.079,-0.219,2.9,0.7,-0.1,-34.5,5.2,27.2,0.1736198,0.700338755,-0.150730918,0.675710318
602,1509501,782410,0.992,0.079,-0.152,2.2,2,0,-34.5,5.2,27.2,0.173589282,0.700338755,-0.1507004,0.675771355
603,1511728,782410,0.984,0.076,-0.124,1.6,3.2,0,-34.5,5.2,27.2,0.173589282,0.700277718,-0.150608844,0.675801874
604,1514371,782420,0.977,0.072,-0.1,1,3.9,0,-34.5,5.2,27.2,0.173589282,0.7002472,-0.150608844,0.675862911
605,1516569,782420,0.973,0.072,-0.037,0.4,4.3,0,-34.5,5.2,27.2,0.173589282,0.700155644,-0.150608844,0.675954466
606,1519735,782420,0.977,0.068,-0.014,0,4.3,0,-34.5,5.2,27.2,0.173589282,0.700094607,-0.150578326,0.676015503
607,1521976,782420,0.977,0.06,-0.006,-0.6,4.2,0,-34.5,5.2,27.2,0.1736198,0.70003357,-0.150578326,0.67607654
608,1524323,782430,0.985,0.064,0.008,-1.1,4.1,0,-34.5,5.2,27.2,0.173650319,0.699972533,-0.150578326,0.676137577
609,1526813,782430,0.985,0.06,0.024,-1.6,3.9,0.1,-34.5,5.2,27.2,0.173680837,0.699911496,-0.150578326,0.676198614
610,1530192,782430,0.989,0.052,0.028,-2.1,3.7,0.2,-34.5,5.2,27.2,0.173711356,0.699850459,-0.150608844,0.676229133
611,1531751,782430,0.992,0.048,0.031,-2.5,3.6,0.2,-34.5,5.2,27.2,0.173772393,0.699789422,-0.150608844,0.67629017
612,1534278,782440,0.981,0.037,0.044,-2.9,3.6,0.2,-35.5,6.2,27.2,0.173863948,0.699667348,-0.150608844,0.676381726
613,1537665,782440,0.973,0.025,0.04,-3,3.7,0.3,-35.5,6.2,27.2,0.173894467,0.699606311,-0.150669881,0.676412244
614,1539226,782440,0.961,0.021,0.044,-2.9,3.8,0.2,-35.5,6.2,27.2,0.173955504,0.699545274,-0.1507004,0.676473281
615,1542252,782440,0.954,0.013,0.048,-2.7,3.7,0.2,-35.5,6.2,27.2,0.174016541,0.699484237,-0.150730918,0.676534318
616,1544041,782450,0.938,0.013,0.053,-2.4,3.5,0.1,-35.5,6.2,27.2,0.17404706,0.6994232,-0.150761437,0.676564837
617,1546522,782450,0.938,0.013,0.053,-2,3,0.2,-35.5,6.2,27.2,0.174108097,0.699362163,-0.150791955,0.676595355
618,1550119,782450,0.934,0.009,0.053,-1.5,2.3,0.2,-35.5,6.2,27.2,0.174138615,0.699301126,-0.150791955,0.676625874
619,1551573,782450,0.938,0.013,0.049,-0.9,1.5,0.1,-35.5,6.2,27.2,0.174138615,0.699301126,-0.150822474,0.676656392
620,1554209,782460,0.95,0.017,0.041,-0.4,0.4,0,-35.5,6.2,27.2,0.174138615,0.699270608,-0.150822474,0.676656392
621,1557686,782460,0.961,0.017,0.04,0,-0.4,0,-35.5,6.2,27.2,0.174138615,0.699301126,-0.150822474,0.676656392
622,1559212,782460,0.977,0.025,0.04,0.5,-1.4,0,-35.5,6.2,27.2,0.174138615,0.699301126,-0.150822474,0.676625874
623,1561605,782460,0.996,0.036,0.027,0.9,-2,0,-35.5,6.2,27.2,0.174108097,0.699331645,-0.150822474,0.676625874
624,1565193,782470,1.004,0.036,0.027,1.2,-2.5,0,-35.5,6.2,27.2,0.17404706,0.699392682,-0.150791955,0.676564837
625,1566701,782470,1.004,0.04,0.023,1.5,-2.8,0,-35.5,6.2,27.2,0.17404706,0.6994232,-0.150791955,0.676534318
626,1569169,782470,1,0.052,0.019,1.6,-2.9,0,-35.5,6.2,27.2,0.174016541,0.699484237,-0.150791955,0.6765038
627,1572710,782470,0.992,0.056,0.012,1.6,-2.6,-0.1,-35.5,6.2,27.2,0.173986023,0.699545274,-0.150761437,0.676473281
628,1574271,782480,0.989,0.06,0.004,1.6,-2.1,-0.1,-35.5,6.2,27.2,0.173955504,0.699575793,-0.150730918,0.676442763
629,1576685,782480,0.985,0.056,0,1.5,-1.7,0,-35.5,6.2,27.2,0.173924986,0.699606311,-0.150730918,0.676412244
630,1580055,782480,0.973,0.048,-0.014,1.2,-1.5,0,-35.5,6.2,27.2,0.173894467,0.69963683,-0.150730918,0.676381726
631,1581617,782480,0.961,0.052,-0.021,0.9,-1.3,0,-35.5,6.2,27.2,0.173894467,0.699667348,-0.1507004,0.676381726
632,1584102,782490,0.961,0.052,-0.021,0.9,-1.3,0,-35.5,6.2,27.2,0.173894467,0.699667348,-0.1507004,0.676381726
633,1587555,782490,0.965,0.044,-0.049,0.1,-1.5,0,-36.5,5.8,27.1,0.173924986,0.699667348,-0.150608844,0.676381726
634,1589097,782490,0.969,0.036,-0.057,0,-1.9,0,-36.5,5.8,27.1,0.173924986,0.699697867,-0.150669881,0.676351207
635,1591601,782490,0.969,0.029,-0.061,-0.2,-2.4,0,-36.5,5.8,27.1,0.173894467,0.699728385,-0.150669881,0.67629017
636,1595869,782500,0.977,0.029,-0.057,-0.3,-2.8,0.1,-34.6,6,27.2,0.173894467,0.699758904,-0.1507004,0.676259651
637,1597985,782500,0.996,0.028,-0.073,-0.2,-3.2,0,-34.6,6,27.2,0.173894467,0.699819941,-0.1507004,0.676198614
638,1599481,782500,1,0.032,-0.077,-0.1,-3.5,0,-34.6,6,27.2,0.173894467,0.699880978,-0.150730918,0.676137577
639,1602497,782500,1.012,0.036,-0.078,0,-3.7,0,-34.6,6,27.2,0.173863948,0.699911496,-0.150730918,0.676107059
640,1604205,782510,1.023,0.036,-0.082,0.1,-3.6,0.1,-34.6,5.8,27.2,0.173863948,0.699972533,-0.150761437,0.676046022
641,1607705,782510,1.027,0.044,-0.078,0.2,-3.1,0,-34.6,5.8,27.2,0.17383343,0.70003357,-0.150761437,0.675984985
642,1609159,782510,1.023,0.044,-0.082,0.4,-2.4,0,-34.6,5.8,27.2,0.17383343,0.700064089,-0.150761437,0.675954466
643,1612289,782510,1.023,0.048,-0.082,0.5,-1.6,0,-34.6,5.8,27.2,0.173802911,0.700094607,-0.150761437,0.675923948
644,1614460,782520,1.008,0.044,-0.074,0.5,-0.9,0,-34.6,5.9,27.2,0.173802911,0.700094607,-0.150761437,0.675923948
645,1617530,782520,0.996,0.048,-0.077,0.4,-0.2,0,-34.6,5.9,27.2,0.173772393,0.700094607,-0.150761437,0.675923948
646,1619367,782520,0.984,0.044,-0.073,0.4,0.2,0,-34.6,5.9,27.2,0.173772393,0.700094607,-0.150761437,0.675923948
647,1621567,782520,0.981,0.036,-0.077,0.2,0.7,-0.1,-34.6,5.9,27.2,0.173772393,0.700094607,-0.150730918,0.675923948
648,1625055,782530,0.965,0.04,-0.061,0.1,0.9,0,-34.7,5.6,27,0.173772393,0.700094607,-0.150730918,0.675954466
649,1626678,782530,0.965,0.036,-0.061,0.1,0.9,0,-34.7,5.6,27,0.173772393,0.700064089,-0.150730918,0.675954466
650,1629781,782530,0.965,0.037,-0.049,0.1,0.7,0,-34.7,5.6,27,0.173772393,0.700064089,-0.150730918,0.675984985
651,1631974,782530,0.981,0.04,-0.053,0,0.4,0,-34.7,5.6,27,0.173772393,0.700064089,-0.150730918,0.675984985
652,1635207,782540,0.985,0.044,-0.03,0,0.1,0,-36.4,5.8,27,0.173772393,0.700125126,-0.150730918,0.675893429
653,1636657,782540,0.992,0.048,-0.026,0.1,0,0,-36.4,5.8,27,0.173741874,0.700125126,-0.150730918,0.675893429
654,1639699,782540,1.004,0.052,-0.019,0,-0.1,0.1,-36.4,5.8,27,0.173741874,0.700155644,-0.150730918,0.675893429
655,1642058,782540,1.012,0.044,-0.019,0,-0.1,0,-36.4,5.8,27,0.173741874,0.700155644,-0.150730918,0.675893429
656,1644214,782550,1.008,0.048,-0.007,0,0,0,-34.2,6,27.2,0.173741874,0.700155644,-0.150730918,0.675893429
657,1646872,782550,1.004,0.044,-0.011,-0.1,0.2,0,-34.2,6,27.2,0.173741874,0.700125126,-0.150761437,0.675893429
658,1649049,782550,0.992,0.048,-0.007,-0.1,0.6,0,-34.2,6,27.2,0.173772393,0.700125126,-0.150761437,0.675893429
659,1652560,782550,0.985,0.04,-0.006,-0.3,0.9,0,-34.2,6,27.2,0.173772393,0.700125126,-0.150761437,0.675923948
660,1654758,782560,0.977,0.037,-0.002,-0.4,1.2,0,-34.5,6.2,27.4,0.173772393,0.700094607,-0.150761437,0.675923948
661,1656962,782560,0.965,0.041,-0.002,-0.5,1.4,0,-34.5,6.2,27.4,0.173802911,0.700064089,-0.150761437,0.675954466
662,1659172,782560,0.957,0.033,0.001,-0.6,1.5,0,-34.5,6.2,27.4,0.173802911,0.70003357,-0.150761437,0.675984985
663,1661808,782560,0.957,0.029,0.001,-0.6,1.3,0,-34.5,6.2,27.4,0.173802911,0.70003357,-0.150761437,0.675984985
664,1664081,782570,0.957,0.029,-0.002,-0.5,1,0.1,-34.4,6,27.7,0.17383343,0.700003052,-0.150761437,0.676015503
665,1667479,782570,0.969,0.033,-0.006,-0.4,0.4,0.1,-34.4,6,27.7,0.17383343,0.700003052,-0.150791955,0.676015503
666,1669197,782570,0.977,0.029,-0.01,-0.1,-0.1,0.1,-34.4,6,27.7,0.17383343,0.700003052,-0.150791955,0.676015503
667,1672725,782570,0.981,0.033,-0.006,0,-0.8,0,-34.4,6,27.7,0.17383343,0.700003052,-0.150791955,0.676015503
668,1674144,782580,0.988,0.036,-0.007,0,-1.1,0,-34.4,5.8,27.2,0.17383343,0.70003357,-0.150791955,0.675984985
669,1676739,782580,1.004,0.036,-0.011,0.1,-1.2,0,-34.4,5.8,27.2,0.173802911,0.70003357,-0.150791955,0.675984985
670,1680297,782580,1.004,0.036,-0.015,0.1,-1.3,0,-34.4,5.8,27.2,0.173802911,0.700064089,-0.150791955,0.675954466
671,1682656,782580,1,0.04,-0.015,0.2,-1.3,0,-34.4,5.8,27.2,0.173802911,0.700094607,-0.150791955,0.675923948
672,1685047,782590,0.996,0.044,-0.022,0.3,-1.1,0,-35.8,6,27.2,0.173802911,0.700064089,-0.150791955,0.675954466
673,1687279,782590,0.992,0.044,-0.018,0.4,-0.6,0,-35.8,6,27.2,0.173772393,0.700064089,-0.150791955,0.675954466
674,1689487,782590,0.988,0.044,-0.022,0.4,-0.3,0.1,-35.8,6,27.2,0.173772393,0.700064089,-0.150791955,0.675954466
675,1691749,782590,0.981,0.044,-0.026,0.4,0,0,-35.8,6,27.2,0.173772393,0.700064089,-0.150791955,0.675954466
676,1694050,782600,0.973,0.04,-0.03,0.3,0.1,0,-35.6,6,27.1,0.173772393,0.700064089,-0.150791955,0.675954466
677,1696519,782600,0.977,0.04,-0.026,0.2,0.2,0,-35.6,6,27.1,0.173772393,0.700064089,-0.150761437,0.675954466
678,1700062,782600,0.969,0.037,-0.025,0.1,0,0.1,-35.6,6,27.1,0.173741874,0.700064089,-0.150791955,0.675954466
679,1701547,782600,0.981,0.036,-0.038,0,-0.3,0.1,-35.6,6,27.1,0.173741874,0.700064089,-0.150791955,0.675954466
680,1704013,782610,0.977,0.036,-0.03,-0.1,-0.6,0.1,-35.7,5.9,27,0.173741874,0.700094607,-0.150791955,0.675954466
681,1707503,782610,0.985,0.04,-0.03,-0.1,-0.8,0.1,-35.7,5.9,27,0.173741874,0.700094607,-0.150791955,0.675923948
682,1709079,782610,0.988,0.04,-0.026,-0.1,-1,0,-35.7,5.9,27,0.173741874,0.700094607,-0.150791955,0.675923948
683,1712752,782610,1,0.04,-0.034,-0.1,-1.1,0,-35.7,5.9,27,0.173741874,0.700125126,-0.150822474,0.675893429
684,1714304,782620,1.004,0.044,-0.027,0,-0.9,0,-35.6,5.8,27.5,0.173741874,0.700125126,-0.150822474,0.675893429
685,1716797,782620,1.008,0.04,-0.027,0,-0.8,0,-35.6,5.8,27.5,0.173741874,0.700155644,-0.150822474,0.675862911
686,1719102,782620,1,0.04,-0.03,0,-0.5,0,-35.6,5.8,27.5,0.173741874,0.700155644,-0.150822474,0.675862911
687,1722532,782620,0.992,0.04,-0.03,0,-0.2,0,-35.6,5.8,27.5,0.173741874,0.700155644,-0.150822474,0.675862911
688,1724089,782630,0.992,0.044,-0.03,0,0,0,-35.3,6,27.7,0.173741874,0.700155644,-0.150822474,0.675862911
689,1727781,782630,0.985,0.036,-0.03,0,0.2,0,-35.3,6,27.7,0.173741874,0.700155644,-0.150822474,0.675862911
690,1729243,782630,0.977,0.04,-0.03,0,0.4,0,-35.3,6,27.7,0.173741874,0.700155644,-0.150822474,0.675862911
691,1731577,782630,0.977,0.04,-0.034,0,0.4,0,-35.3,6,27.7,0.173741874,0.700155644,-0.150822474,0.675893429
692,1734021,782640,0.969,0.037,-0.029,0.1,0.4,0.1,-35.5,6,25.9,0.173741874,0.700186163,-0.150822474,0.675862911
693,1737204,782640,0.977,0.04,-0.03,0.1,0.2,0.1,-35.5,6,25.9,0.173741874,0.700155644,-0.150822474,0.675862911
694,1739493,782640,0.977,0.036,-0.026,0.1,0,0,-35.5,6,25.9,0.173741874,0.700155644,-0.150791955,0.675862911
695,1741725,782640,0.985,0.036,-0.03,0.1,-0.1,0,-35.5,6,25.9,0.173741874,0.700186163,-0.150791955,0.675862911
696,1744049,782650,0.985,0.044,-0.026,0.1,-0.3,0,-35.4,6,28.2,0.173711356,0.700186163,-0.150791955,0.675862911
697,1747737,782650,0.996,0.04,-0.019,0.1,-0.4,0.1,-35.4,6,28.2,0.173711356,0.700186163,-0.150822474,0.675832392
698,1749216,782650,1,0.04,-0.026,0,-0.4,0.1,-35.4,6,28.2,0.173711356,0.700186163,-0.150822474,0.675832392
699,1751745,782650,1.004,0.04,-0.023,0,-0.4,0.1,-35.4,6,28.2,0.173711356,0.700186163,-0.150822474,0.675832392
700,1754037,782660,0.992,0.044,-0.022,0,-0.2,0,-35.8,5.9,28.3,0.173711356,0.700186163,-0.150822474,0.675832392
701,1757594,782660,0.996,0.036,-0.022,0,-0.1,0,-35.8,5.9,28.3,0.173711356,0.700186163,-0.150822474,0.675832392
702,1759489,782660,0.985,0.04,-0.018,0,0,0,-35.8,5.9,28.3,0.173711356,0.700186163,-0.150822474,0.675832392
703,1761774,782660,0.985,0.044,-0.022,0,0.1,0,-35.8,5.9,28.3,0.173711356,0.700186163,-0.150822474,0.675832392
704,1765208,782670,0.977,0.036,-0.026,0,0.2,0,-35.8,5.7,28.2,0.173711356,0.700186163,-0.150822474,0.675832392
705,1767040,782670,0.977,0.036,-0.022,0,0.2,0,-35.8,5.7,28.2,0.173711356,0.700186163,-0.150822474,0.675832392
706,1769013,782670,0.977,0.04,-0.022,0,0.2,0,-35.8,5.7,28.2,0.173711356,0.700186163,-0.150822474,0.675832392
707,1772011,782670,0.981,0.036,-0.022,0,0.2,0,-35.8,5.7,28.2,0.173711356,0.700186163,-0.150822474,0.675832392
708,1774400,782680,0.981,0.032,-0.026,0.1,0.1,0,-35.7,5.9,28.2,0.173711356,0.700186163,-0.150822474,0.675832392
709,1776730,782680,0.985,0.04,-0.014,0.1,0,0,-35.7,5.9,28.2,0.173711356,0.700186163,-0.150822474,0.675832392
710,1779293,782680,0.981,0.04,-0.022,0.1,0,0,-35.7,5.9,28.2,0.173711356,0.700186163,-0.150822474,0.675832392
711,1782717,782680,0.996,0.032,-0.026,0,-0.2,0.1,-35.7,5.9,28.2,0.173711356,0.700186163,-0.150822474,0.675832392
712,1784206,782690,0.996,0.032,-0.026,0,-0.2,0.1,-35.7,5.9,28.2,0.173711356,0.700186163,-0.150822474,0.675832392
713,1787771,782690,0.996,0.044,-0.022,0.1,-0.3,0.1,-35.6,6.1,25.8,0.173680837,0.700186163,-0.150822474,0.675862911
714,1789258,782690,0.988,0.04,-0.022,0.1,-0.2,0,-35.6,6.1,25.8,0.173680837,0.700186163,-0.150822474,0.675862911
715,1791718,782690,0.988,0.044,-0.022,0,-0.1,0,-35.6,6.1,25.8,0.173680837,0.700186163,-0.150822474,0.675862911
716,1794011,782700,0.985,0.04,-0.026,0,0,-0.1,-35.6,5.7,27.2,0.173680837,0.700186163,-0.150822474,0.675862911
717,1797534,782700,0.981,0.036,-0.022,0,0.1,0,-35.6,5.7,27.2,0.173680837,0.700186163,-0.150822474,0.675862911
718,1799050,782700,0.981,0.04,-0.026,0,0,0,-35.6,5.7,27.2,0.173680837,0.700186163,-0.150822474,0.675862911
719,1801613,782700,0.977,0.044,-0.022,0.1,0,0,-35.6,5.7,27.2,0.173680837,0.700186163,-0.150822474,0.675862911
720,1804979,782710,0.981,0.036,-0.026,0,0,0,-35.8,5.4,26.7,0.173680837,0.700186163,-0.150822474,0.675862911
721,1806587,782710,0.973,0.033,-0.022,0.1,-0.1,0,-35.8,5.4,26.7,0.173680837,0.700186163,-0.150822474,0.675862911
722,1809613,782710,0.985,0.04,-0.022,0,-0.1,0,-35.8,5.4,26.7,0.173680837,0.700186163,-0.150822474,0.675862911
723,1811490,782710,0.981,0.04,-0.03,0,-0.2,0,-35.8,5.4,26.7,0.173680837,0.700186163,-0.150822474,0.675832392
724,1814890,782720,0.988,0.036,-0.022,0,-0.3,0,-35.8,5.8,26.1,0.173680837,0.700186163,-0.150822474,0.675832392
725,1816755,782720,0.988,0.036,-0.026,0,-0.3,0,-35.8,5.8,26.1,0.173680837,0.700186163,-0.150822474,0.675832392
726,1819484,782720,0.992,0.04,-0.026,0,-0.3,0,-35.8,5.8,26.1,0.173680837,0.700186163,-0.150822474,0.675832392
727,1822678,782720,0.996,0.036,-0.03,0.1,-0.3,0,-35.8,5.8,26.1,0.173680837,0.700186163,-0.150822474,0.675832392
728,1824809,782730,0.992,0.044,-0.03,0.1,-0.3,0,-35.8,5.9,26,0.173680837,0.700186163,-0.150822474,0.675832392
729,1827159,782730,0.988,0.044,-0.03,0,-0.3,0,-35.8,5.9,26,0.173680837,0.700186163,-0.150822474,0.675801874
730,1829407,782730,0.988,0.044,-0.022,0,-0.2,0,-35.8,5.9,26,0.173680837,0.700186163,-0.150822474,0.675801874
731,1832229,782730,0.985,0.044,-0.022,0,-0.2,0,-35.8,5.9,26,0.173680837,0.700186163,-0.150822474,0.675801874
732,1834599,782740,0.985,0.04,-0.022,0,-0.1,0,-35.6,5.7,27.4,0.173711356,0.7002472,-0.150791955,0.675801874
733,1838196,782740,0.985,0.036,-0.022,0,0,0,-35.6,5.7,27.4,0.173711356,0.7002472,-0.150791955,0.675771355
734,1839944,782740,0.985,0.036,-0.026,0,0.1,0,-35.6,5.7,27.4,0.173711356,0.7002472,-0.150791955,0.675801874
735,1842158,782740,0.981,0.036,-0.03,0,0.1,0,-35.6,5.7,27.4,0.173711356,0.7002472,-0.150791955,0.675801874
736,1844386,782750,0.981,0.036,-0.022,0,0.1,0.1,-35.9,5.7,27.2,0.173711356,0.7002472,-0.150791955,0.675801874
737,1848106,782750,0.985,0.036,-0.026,0,0,0.1,-35.9,5.7,27.2,0.173711356,0.7002472,-0.150791955,0.675801874
738,1849669,782750,0.985,0.036,-0.026,0.1,0,0.1,-35.9,5.7,27.2,0.173711356,0.7002472,-0.150791955,0.675801874
739,1851970,782750,0.988,0.04,-0.026,0,0,0.1,-35.9,5.7,27.2,0.173711356,0.7002472,-0.150791955,0.675801874
740,1854115,782760,0.985,0.04,-0.026,0,0.1,0.1,-35.5,5.5,27.3,0.173711356,0.7002472,-0.150791955,0.675801874
741,1856484,782760,0.988,0.04,-0.022,0,0,0.1,-35.5,5.5,27.3,0.173711356,0.7002472,-0.150791955,0.675801874
742,1859371,782760,0.985,0.044,-0.026,0.1,0,0,-35.5,5.5,27.3,0.173711356,0.7002472,-0.150791955,0.675801874
743,1862151,782760,0.985,0.04,-0.026,0.1,-0.1,0,-35.5,5.5,27.3,0.173680837,0.7002472,-0.150791955,0.675801874
744,1864190,782770,0.988,0.04,-0.03,0.1,0,0,-35.7,5.7,27.1,0.173680837,0.7002472,-0.150791955,0.675801874
745,1867438,782770,0.985,0.04,-0.03,0.1,0,0,-35.7,5.7,27.1,0.173680837,0.7002472,-0.150791955,0.675801874
746,1869079,782770,0.985,0.04,-0.026,0,0,0,-35.7,5.7,27.1,0.173680837,0.7002472,-0.150791955,0.675801874
747,1871912,782770,0.985,0.036,-0.026,0,0,0,-35.7,5.7,27.1,0.173680837,0.7002472,-0.150791955,0.675801874
748,1874118,782780,0.988,0.04,-0.026,0,0,0,-35.8,4.7,27.2,0.173680837,0.7002472,-0.150791955,0.675801874
749,1877254,782780,0.985,0.036,-0.026,0,-0.1,0,-35.8,4.7,27.2,0.173680837,0.7002472,-0.150791955,0.675801874
750,1879397,782780,0.985,0.04,-0.022,0,-0.2,-0.1,-35.8,4.7,27.2,0.173680837,0.7002472,-0.150791955,0.675801874
751,1882488,782780,0.988,0.044,-0.022,0,-0.2,0,-35.8,4.7,27.2,0.173680837,0.7002472,-0.150791955,0.675771355
752,1884154,782790,0.985,0.04,-0.022,0,-0.1,0,-35.6,6.9,28.3,0.173711356,0.7002472,-0.150761437,0.675801874
753,1887602,782790,0.992,0.044,-0.022,0,-0.1,0,-35.6,6.9,28.3,0.173711356,0.7002472,-0.150761437,0.675801874
754,1889685,782790,0.985,0.036,-0.022,0,0,0,-35.6,6.9,28.3,0.173711356,0.7002472,-0.150761437,0.675801874
755,1892010,782790,0.985,0.036,-0.03,0,0,0,-35.6,6.9,28.3,0.173711356,0.7002472,-0.150761437,0.675801874
756,1894103,782800,0.985,0.04,-0.022,0.1,0.1,0,-35.4,4.5,26,0.173711356,0.7002472,-0.150761437,0.675801874
757,1896921,782800,0.985,0.04,-0.022,0,0.2,0,-35.4,4.5,26,0.173711356,0.7002472,-0.150761437,0.675801874
758,1900247,782800,0.981,0.04,-0.026,0,0.2,0,-35.4,4.5,26,0.173711356,0.7002472,-0.150761437,0.675801874
759,1901702,782800,0.981,0.036,-0.026,0,0,0,-35.4,4.5,26,0.173711356,0.7002472,-0.150761437,0.675801874
760,1904062,782810,0.981,0.04,-0.018,0,-0.1,0,-35.2,4.2,25.7,0.173711356,0.7002472,-0.150761437,0.675801874
761,1906543,782810,0.985,0.036,-0.03,0,-0.3,0,-35.2,4.2,25.7,0.173711356,0.7002472,-0.150761437,0.675801874
762,1910070,782810,0.988,0.036,-0.034,0,-0.3,0,-35.2,4.2,25.7,0.173711356,0.7002472,-0.150761437,0.675771355
763,1911550,782810,0.985,0.044,-0.03,0,-0.4,0,-35.2,4.2,25.7,0.173711356,0.700277718,-0.150761437,0.675771355
764,1914932,782820,0.988,0.04,-0.03,0,-0.4,0,-35.4,4.7,25.9,0.173711356,0.700277718,-0.150761437,0.675771355
765,1916671,782820,0.988,0.04,-0.026,0,-0.4,0,-35.4,4.7,25.9,0.173711356,0.700277718,-0.150761437,0.675771355
766,1919421,782820,0.985,0.036,-0.018,0.1,-0.3,0,-35.4,4.7,25.9,0.173711356,0.700277718,-0.150761437,0.675771355
767,1922584,782820,0.992,0.036,-0.022,0.1,-0.1,0,-35.4,4.7,25.9,0.173711356,0.700277718,-0.150761437,0.675740837
768,1924740,782830,0.985,0.04,-0.026,0.1,0,-0.1,-35,4.7,26.2,0.173711356,0.700277718,-0.150761437,0.675740837
769,1926760,782830,0.985,0.044,-0.022,0,0.1,-0.2,-35,4.7,26.2,0.173711356,0.700277718,-0.150761437,0.675771355
770,1930509,782830,0.985,0.04,-0.022,0,0.2,-0.1,-35,4.7,26.2,0.173711356,0.700277718,-0.150730918,0.675771355
771,1932309,782830,0.985,0.04,-0.018,0,0.2,0,-35,4.7,26.2,0.173711356,0.700277718,-0.150730918,0.675771355
772,1934394,782840,0.981,0.032,-0.026,0,0,0,-35.8,7.3,27.3,0.173741874,0.7002472,-0.1507004,0.675801874
773,1936809,782840,0.981,0.036,-0.026,0,0,0,-35.8,7.3,27.3,0.173741874,0.7002472,-0.1507004,0.675801874
774,1939185,782840,0.985,0.04,-0.026,0,-0.1,0,-35.8,7.3,27.3,0.173741874,0.7002472,-0.1507004,0.675801874
775,1942440,782840,0.985,0.036,-0.022,0,-0.2,0,-35.8,7.3,27.3,0.173741874,0.7002472,-0.1507004,0.675801874
776,1944248,782850,0.985,0.036,-0.026,0,-0.2,0,-35.5,6.4,27.2,0.173741874,0.7002472,-0.1507004,0.675771355
777,1948291,782850,0.988,0.036,-0.022,0,-0.1,0,-35.5,6.4,27.2,0.173741874,0.7002472,-0.1507004,0.675771355
778,1950459,782850,0.988,0.036,-0.018,0,-0.1,0,-35.5,6.4,27.2,0.173741874,0.7002472,-0.1507004,0.675771355
779,1952062,782850,0.988,0.036,-0.026,0,-0.1,0,-35.5,6.4,27.2,0.173741874,0.700277718,-0.1507004,0.675771355
780,1954404,782860,0.988,0.04,-0.026,0,-0.2,0,-35.5,6.9,27.3,0.173741874,0.700277718,-0.1507004,0.675771355
781,1957749,782860,0.988,0.04,-0.022,0,-0.3,0,-35.5,6.9,27.3,0.173741874,0.700277718,-0.1507004,0.675771355
782,1959521,782860,0.988,0.04,-0.018,0,-0.4,0,-35.5,6.9,27.3,0.173741874,0.700277718,-0.1507004,0.675771355
783,1961652,782860,0.992,0.04,-0.022,0.1,-0.3,0,-35.5,6.9,27.3,0.173741874,0.700277718,-0.1507004,0.675740837
784,1964171,782870,0.988,0.04,-0.026,0.1,-0.1,0,-35.8,7.5,26.8,0.173741874,0.700277718,-0.1507004,0.675740837
785,1967661,782870,0.981,0.044,-0.026,0.1,0,0.1,-35.8,7.5,26.8,0.173741874,0.700277718,-0.1507004,0.675740837
786,1969957,782870,0.981,0.04,-0.022,0.1,0.1,0.2,-35.8,7.5,26.8,0.173741874,0.700277718,-0.1507004,0.675771355
787,1972070,782870,0.985,0.044,-0.026,0.1,0.2,0.2,-35.8,7.5,26.8,0.173741874,0.700277718,-0.1507004,0.675771355
788,1974389,782880,0.985,0.04,-0.03,0,0.2,0,-35.6,7.1,27,0.173741874,0.700277718,-0.1507004,0.675771355
789,1976612,782880,0.981,0.04,-0.03,0,0.1,0,-35.6,7.1,27,0.173741874,0.700277718,-0.1507004,0.675771355
790,1979057,782880,0.985,0.04,-0.026,0,0,0,-35.6,7.1,27,0.173741874,0.700277718,-0.1507004,0.675771355
791,1981918,782880,0.985,0.04,-0.026,0,-0.1,0,-35.6,7.1,27,0.173741874,0.700277718,-0.1507004,0.675771355
792,1985014,782890,0.985,0.04,-0.026,0,-0.1,0,-35.6,7.1,27,0.173741874,0.700277718,-0.1507004,0.675771355
793,1987232,782890,0.988,0.04,-0.026,0.1,-0.3,0,-35.7,5.7,27,0.173741874,0.700308237,-0.1507004,0.675740837
794,1989452,782890,0.985,0.04,-0.026,0.1,-0.2,0,-35.7,5.7,27,0.173741874,0.700338755,-0.1507004,0.675710318
795,1992586,782890,0.988,0.04,-0.018,0.1,-0.1,0,-35.7,5.7,27,0.173741874,0.700338755,-0.1507004,0.675710318
796,1994123,782900,0.985,0.04,-0.026,0.1,-0.1,0,-35.6,6.1,27.2,0.173741874,0.700338755,-0.1507004,0.675710318
797,1998131,782900,0.985,0.04,-0.022,0.1,-0.1,0,-35.6,6.1,27.2,0.173741874,0.700338755,-0.1507004,0.675710318
798,2000213,782900,0.985,0.04,-0.026,0,-0.1,0.1,-35.6,6.1,27.2,0.173711356,0.700338755,-0.1507004,0.675710318
799,2002458,782900,0.981,0.04,-0.026,0,-0.2,0,-35.6,6.1,27.2,0.173711356,0.700338755,-0.1507004,0.675710318
800,2004809,782910,0.981,0.04,-0.026,0,-0.1,0,-35.6,6.3,27.2,0.173711356,0.700338755,-0.1507004,0.675710318
801,2006936,782910,0.981,0.04,-0.022,0,0,0,-35.6,6.3,27.2,0.173711356,0.700338755,-0.1507004,0.675710318
802,2010105,782910,0.981,0.036,-0.022,-0.1,0,0,-35.6,6.3,27.2,0.173711356,0.700338755,-0.1507004,0.675710318
803,2011655,782910,0.985,0.04,-0.022,-0.1,0,0,-35.6,6.3,27.2,0.173741874,0.700338755,-0.1507004,0.675710318
804,2015078,782920,0.985,0.044,-0.026,0,0,0,-36,6.2,27.4,0.173741874,0.700338755,-0.1507004,0.675710318
805,2017250,782920,0.988,0.04,-0.022,0,-0.1,0,-36,6.2,27.4,0.173711356,0.700338755,-0.1507004,0.675710318
806,2019325,782920,0.992,0.036,-0.026,0.1,-0.3,0,-36,6.2,27.4,0.173711356,0.700338755,-0.1507004,0.675710318
807,2022800,782920,0.992,0.036,-0.022,0.1,-0.4,0.1,-36,6.2,27.4,0.173711356,0.700369274,-0.1507004,0.6756798
808,2024922,782930,0.992,0.04,-0.022,0.1,-0.3,0.1,-36.8,6.6,27.5,0.173711356,0.700369274,-0.1507004,0.6756798
809,2027173,782930,0.988,0.036,-0.026,0,-0.1,0.1,-36.8,6.6,27.5,0.173711356,0.700369274,-0.1507004,0.6756798
810,2029344,782930,0.985,0.04,-0.026,0,0,0.2,-36.8,6.6,27.5,0.173711356,0.700369274,-0.1507004,0.6756798
811,2033142,782930,0.985,0.036,-0.03,0,0.1,0,-36.8,6.6,27.5,0.173711356,0.700369274,-0.1507004,0.6756798
812,2035339,782940,0.977,0.036,-0.026,0,0.3,-0.1,-34.8,4.6,27.1,0.173711356,0.700369274,-0.1507004,0.6756798
813,2037624,782940,0.985,0.04,-0.022,0,0.3,-0.1,-34.8,4.6,27.1,0.173711356,0.700338755,-0.1507004,0.675710318
814,2039892,782940,0.985,0.036,-0.026,0.1,0.3,-0.1,-34.8,4.6,27.1,0.173711356,0.700338755,-0.1507004,0.675710318
815,2042117,782940,0.985,0.04,-0.022,0.1,0.2,0,-34.8,4.6,27.1,0.173711356,0.700338755,-0.1507004,0.675710318
816,2044342,782950,0.985,0.036,-0.026,0,0.1,0,-37.1,7.1,27.4,0.173711356,0.700338755,-0.1507004,0.675710318
817,2046588,782950,0.988,0.036,-0.022,0,0,0,-37.1,7.1,27.4,0.173711356,0.700338755,-0.1507004,0.675710318
818,2049197,782950,0.985,0.032,-0.026,0,0,0,-37.1,7.1,27.4,0.173711356,0.700338755,-0.1507004,0.675710318
819,2052516,782950,0.988,0.04,-0.022,0,-0.1,0,-37.1,7.1,27.4,0.173711356,0.700338755,-0.1507004,0.675710318
820,2054165,782960,0.985,0.04,-0.018,0,-0.1,0,-37,7.1,27,0.173711356,0.700338755,-0.1507004,0.675710318
821,2057130,782960,0.992,0.04,-0.026,0,-0.2,0,-37,7.1,27,0.173711356,0.700338755,-0.1507004,0.675710318
822,2059049,782960,0.988,0.04,-0.03,0,-0.3,0,-37,7.1,27,0.173711356,0.700369274,-0.1507004,0.675710318
823,2062253,782960,0.992,0.044,-0.026,0,-0.2,0,-37,7.1,27,0.173680837,0.700369274,-0.1507004,0.675710318
824,2064452,782970,0.985,0.036,-0.03,0,-0.1,0,-37.1,7.3,27.6,0.173711356,0.700369274,-0.1507004,0.6756798
825,2066597,782970,0.981,0.04,-0.026,0,-0.1,0,-37.1,7.3,27.6,0.173711356,0.700369274,-0.1507004,0.6756798
826,2069725,782970,0.985,0.036,-0.022,0,-0.1,0,-37.1,7.3,27.6,0.173711356,0.700369274,-0.1507004,0.6756798
827,2071801,782970,0.981,0.036,-0.03,0,0,0,-37.1,7.3,27.6,0.173680837,0.700369274,-0.1507004,0.6756798
828,2074103,782980,0.981,0.04,-0.022,0,0,0,-36.6,7.3,27,0.173680837,0.700369274,-0.1507004,0.6756798
829,2076497,782980,0.981,0.036,-0.026,0,0,0,-36.6,7.3,27,0.173680837,0.700369274,-0.1507004,0.6756798
830,2079437,782980,0.985,0.04,-0.022,0.1,0,0,-36.6,7.3,27,0.173680837,0.700369274,-0.1507004,0.6756798
831,2083280,782980,0.985,0.036,-0.022,0,-0.1,0,-36.6,7.3,27,0.173680837,0.700369274,-0.1507004,0.6756798
832,2085006,782990,0.988,0.036,-0.026,0,-0.2,0,-35.1,6,27.2,0.173680837,0.700338755,-0.1507004,0.675710318
833,2087035,782990,0.988,0.036,-0.026,0,-0.2,0,-35.1,6,27.2,0.173680837,0.700369274,-0.1507004,0.675710318
834,2089323,782990,0.988,0.04,-0.022,0,-0.2,0,-35.1,6,27.2,0.173711356,0.700369274,-0.1507004,0.675710318
835,2092414,782990,0.988,0.036,-0.022,0,-0.2,0,-35.1,6,27.2,0.173680837,0.700369274,-0.1507004,0.6756798
836,2094489,783000,0.988,0.04,-0.026,0,-0.1,0,-36.5,6,26.9,0.173680837,0.700369274,-0.1507004,0.6756798
837,2096698,783000,0.988,0.04,-0.022,0.1,-0.3,0,-36.5,6,26.9,0.173680837,0.700369274,-0.1507004,0.6756798
838,2100074,783000,0.985,0.036,-0.03,0.1,-0.3,0,-36.5,6,26.9,0.173680837,0.700369274,-0.1507004,0.6756798
839,2101522,783000,0.985,0.04,-0.022,0.1,-0.2,0,-36.5,6,26.9,0.173680837,0.700369274,-0.1507004,0.6756798
840,2104491,783010,0.985,0.036,-0.026,0.1,0,0,-36,5.9,27,0.173680837,0.700369274,-0.1507004,0.6756798
841,2106524,783010,0.985,0.044,-0.026,0,0,0,-36,5.9,27,0.173680837,0.700369274,-0.1507004,0.6756798
842,2110736,783010,0.988,0.04,-0.026,0,0.1,0,-36,5.9,27,0.173680837,0.700369274,-0.1507004,0.6756798
843,2111520,783010,0.985,0.036,-0.03,0,0.2,0,-36,5.9,27,0.173680837,0.700369274,-0.1507004,0.6756798
844,2114478,783020,0.985,0.036,-0.022,0,0.2,0.1,-35.7,5.9,26.8,0.173680837,0.700369274,-0.1507004,0.6756798
845,2116631,783020,0.988,0.036,-0.026,0,0.1,0.1,-35.7,5.9,26.8,0.173680837,0.700369274,-0.1507004,0.6756798
846,2119148,783020,0.985,0.036,-0.022,0,0,0,-35.7,5.9,26.8,0.173680837,0.700369274,-0.1507004,0.6756798
847,2121507,783020,0.992,0.04,-0.022,0,-0.1,0,-35.7,5.9,26.8,0.173680837,0.700369274,-0.1507004,0.6756798
848,2125981,783030,0.985,0.044,-0.018,0,-0.1,0,-35.1,6,26.9,0.173680837,0.700369274,-0.1507004,0.6756798
849,2127997,783030,0.988,0.036,-0.018,0.1,-0.1,0,-35.1,6,26.9,0.173680837,0.700369274,-0.1507004,0.6756798
850,2130346,783030,0.985,0.04,-0.026,0.1,0,0,-35.1,6,26.9,0.173680837,0.700369274,-0.1507004,0.6756798
851,2131690,783030,0.985,0.04,-0.022,0,0.1,0,-35.1,6,26.9,0.173680837,0.700369274,-0.1507004,0.6756798
852,2135110,783040,0.985,0.036,-0.026,0,0.2,0,-36,5.9,26.8,0.173711356,0.700338755,-0.150669881,0.675740837
853,2136797,783040,0.985,0.036,-0.022,0,0.2,0,-36,5.9,26.8,0.173711356,0.700308237,-0.150669881,0.675740837
854,2139059,783040,0.981,0.04,-0.026,0,0.1,-0.1,-36,5.9,26.8,0.173711356,0.700308237,-0.150669881,0.675740837
855,2142014,783040,0.981,0.036,-0.03,0,0,-0.1,-36,5.9,26.8,0.173711356,0.700308237,-0.150608844,0.675740837
856,2144186,783050,0.981,0.036,-0.022,0,-0.1,0,-35.2,6.2,27.2,0.173711356,0.700308237,-0.150608844,0.675740837
857,2146880,783050,0.981,0.032,-0.026,0,-0.3,0,-35.2,6.2,27.2,0.173711356,0.700338755,-0.150608844,0.675740837
858,2150319,783050,0.985,0.036,-0.026,0,-0.3,0,-35.2,6.2,27.2,0.173711356,0.700338755,-0.150608844,0.675740837
859,2152631,783050,0.992,0.04,-0.018,0.1,-0.2,0.1,-35.2,6.2,27.2,0.173711356,0.700338755,-0.150608844,0.675740837
860,2155136,783060,0.992,0.04,-0.022,0.1,-0.1,0,-35.4,6.2,27.3,0.173711356,0.700338755,-0.150608844,0.675740837
861,2156856,783060,0.988,0.04,-0.026,0,0,0,-35.4,6.2,27.3,0.173711356,0.700338755,-0.150608844,0.675740837
862,2158986,783060,0.992,0.036,-0.026,0,0,0,-35.4,6.2,27.3,0.173711356,0.700338755,-0.150608844,0.675740837
863,2162064,783060,0.988,0.044,-0.026,0,0,0,-35.4,6.2,27.3,0.173711356,0.700338755,-0.150608844,0.675710318
864,2164288,783070,0.985,0.044,-0.022,0.1,0,0,-34.9,6.2,27,0.173680837,0.700338755,-0.150608844,0.675710318
865,2166731,783070,0.985,0.04,-0.03,0.1,0,0,-34.9,6.2,27,0.173680837,0.700338755,-0.150608844,0.675710318
866,2169385,783070,0.985,0.044,-0.026,0,0.1,0.1,-34.9,6.2,27,0.173680837,0.700338755,-0.150608844,0.675740837
867,2171638,783070,0.985,0.036,-0.026,0,0.1,0,-34.9,6.2,27,0.173680837,0.700338755,-0.150608844,0.675740837
868,2175651,783080,0.985,0.04,-0.022,0,0,0,-35,5.9,27.2,0.173680837,0.700338755,-0.150608844,0.675740837
869,2178007,783080,0.985,0.04,-0.022,0,0,0,-35,5.9,27.2,0.173680837,0.700338755,-0.150608844,0.675740837
870,2180147,783080,0.988,0.036,-0.03,0,-0.1,0,-35,5.9,27.2,0.173680837,0.700338755,-0.150608844,0.675710318
871,2182315,783080,0.988,0.04,-0.026,0,-0.1,0,-35,5.9,27.2,0.173680837,0.700338755,-0.150608844,0.675710318
872,2184579,783090,0.992,0.04,-0.026,0,-0.2,0.2,-37.1,6,27.2,0.173680837,0.700338755,-0.150608844,0.675710318
873,2186797,783090,0.988,0.04,-0.026,0,-0.2,0.2,-37.1,6,27.2,0.173680837,0.700338755,-0.150608844,0.675710318
874,2189175,783090,0.988,0.04,-0.026,0,-0.1,0.2,-37.1,6,27.2,0.173680837,0.700338755,-0.150669881,0.675710318
875,2192560,783090,0.992,0.04,-0.022,0,-0.1,0.1,-37.1,6,27.2,0.173680837,0.700338755,-0.150669881,0.675710318
876,2194900,783100,0.988,0.04,-0.026,0,0,0,-34.3,6.2,27.5,0.173680837,0.700338755,-0.150669881,0.675710318
877,2196982,783100,0.988,0.04,-0.022,0,0.1,0,-34.3,6.2,27.5,0.173680837,0.700338755,-0.150669881,0.675710318
878,2200102,783100,0.988,0.04,-0.026,0,0.2,0,-34.3,6.2,27.5,0.173680837,0.700338755,-0.150669881,0.675710318
879,2201731,783100,0.985,0.04,-0.026,0,0.2,0,-34.3,6.2,27.5,0.173680837,0.700338755,-0.150669881,0.675740837
880,2204598,783110,0.985,0.04,-0.022,0,0.1,0,-34.2,6,27.8,0.173680837,0.700338755,-0.150669881,0.675740837
881,2206819,783110,0.981,0.036,-0.026,0,0,0,-34.2,6,27.8,0.173680837,0.700338755,-0.150669881,0.675740837
882,2209822,783110,0.981,0.04,-0.022,0,-0.1,0,-34.2,6,27.8,0.173680837,0.700338755,-0.150669881,0.675740837
883,2211570,783110,0.981,0.036,-0.03,0,-0.1,0,-34.2,6,27.8,0.173680837,0.700338755,-0.150669881,0.675740837
884,2215128,783120,0.985,0.036,-0.026,0,-0.1,0,-34.6,5.6,27.5,0.173680837,0.700338755,-0.150669881,0.675710318
885,2216664,783120,0.985,0.04,-0.022,0,-0.1,-0.1,-34.6,5.6,27.5,0.173680837,0.700338755,-0.150608844,0.675710318
886,2219173,783120,0.985,0.036,-0.026,0,0,0,-34.6,5.6,27.5,0.173680837,0.700338755,-0.150608844,0.675710318
887,2221621,783120,0.988,0.036,-0.03,0,0,0,-34.6,5.6,27.5,0.173680837,0.700338755,-0.150608844,0.675710318
888,2225882,783130,0.992,0.04,-0.026,0.1,0,0,-34.2,6.2,27.3,0.173680837,0.700338755,-0.150608844,0.675710318
889,2227594,783130,0.988,0.036,-0.026,0.1,0,0,-34.2,6.2,27.3,0.173680837,0.700338755,-0.150608844,0.675710318
890,2229160,783130,0.992,0.036,-0.03,0.1,0,0,-34.2,6.2,27.3,0.173680837,0.700369274,-0.150608844,0.675710318
891,2231745,783130,0.988,0.04,-0.026,0,0,0,-34.2,6.2,27.3,0.173680837,0.700369274,-0.150608844,0.675710318
892,2235081,783140,0.988,0.04,-0.026,0,0,0,-34.2,6.2,27.3,0.173680837,0.700369274,-0.150608844,0.675710318
893,2236633,783140,0.988,0.036,-0.026,0,0,0.1,-35.9,5.8,27.1,0.173650319,0.700369274,-0.150669881,0.675710318
894,2239078,783140,0.985,0.04,-0.026,0,-0.1,0.2,-35.9,5.8,27.1,0.173650319,0.700369274,-0.150669881,0.675710318
895,2242600,783140,0.985,0.032,-0.026,0,-0.1,0.1,-35.9,5.8,27.1,0.173650319,0.700369274,-0.150669881,0.675710318
896,2244120,783150,0.981,0.04,-0.026,0,-0.2,0.1,-35.5,6.1,27.2,0.173650319,0.700369274,-0.150669881,0.675710318
897,2246595,783150,0.985,0.04,-0.022,0,-0.3,0.1,-35.5,6.1,27.2,0.173650319,0.700369274,-0.150669881,0.6756798
898,2250139,783150,0.985,0.036,-0.022,0,-0.3,0.1,-35.5,6.1,27.2,0.173650319,0.700399792,-0.150669881,0.6756798
899,2251601,783150,0.988,0.04,-0.022,0,-0.2,0,-35.5,6.1,27.2,0.173650319,0.700399792,-0.150669881,0.6756798
900,2254115,783160,0.985,0.04,-0.026,0,-0.1,0,-35.3,6,27.2,0.173650319,0.700399792,-0.150669881,0.6756798
901,2257575,783160,0.985,0.04,-0.018,0.1,-0.1,0,-35.3,6,27.2,0.173650319,0.700399792,-0.150669881,0.6756798
902,2259093,783160,0.992,0.04,-0.022,0.1,0,0,-35.3,6,27.2,0.173650319,0.700399792,-0.150669881,0.6756798
903,2261588,783160,0.988,0.044,-0.022,0,0,0,-35.3,6,27.2,0.173650319,0.700399792,-0.150669881,0.6756798
904,2265076,783170,0.992,0.044,-0.022,0,0.1,0,-35.4,5.9,26.8,0.173650319,0.700399792,-0.150669881,0.6756798
905,2266594,783170,0.985,0.04,-0.018,0,0.1,0,-35.4,5.9,26.8,0.173650319,0.700399792,-0.150669881,0.6756798
906,2269077,783170,0.988,0.036,-0.022,0,0.1,0.1,-35.4,5.9,26.8,0.173650319,0.700399792,-0.150669881,0.6756798
907,2272588,783170,0.985,0.036,-0.026,0.1,0,0.1,-35.4,5.9,26.8,0.173650319,0.700399792,-0.150669881,0.6756798
908,2274058,783180,0.988,0.036,-0.026,0,0,0.1,-35.6,5.8,27,0.173650319,0.700399792,-0.150669881,0.6756798
909,2276600,783180,0.981,0.036,-0.022,0.1,0,0.1,-35.6,5.8,27,0.1736198,0.700399792,-0.150669881,0.6756798
910,2279350,783180,0.981,0.04,-0.018,0.1,0.1,0,-35.6,5.8,27,0.1736198,0.700399792,-0.150669881,0.6756798
911,2281535,783180,0.985,0.04,-0.022,0.1,0.1,0,-35.6,5.8,27,0.1736198,0.700399792,-0.150669881,0.6756798
912,2284277,783190,0.985,0.04,-0.022,0.1,0.1,0,-35.6,5.8,27,0.1736198,0.700399792,-0.150669881,0.6756798
913,2287105,783190,0.985,0.036,-0.026,0,-0.1,0,-35.7,5.9,26.4,0.173650319,0.700369274,-0.150669881,0.675710318
914,2289316,783190,0.985,0.036,-0.022,0,-0.1,0,-35.7,5.9,26.4,0.173650319,0.700369274,-0.150669881,0.675710318
915,2292303,783190,0.988,0.04,-0.03,0,-0.2,0,-35.7,5.9,26.4,0.173650319,0.700369274,-0.150669881,0.675710318
916,2294083,783200,0.992,0.04,-0.022,0,-0.1,0,-35.8,5.6,27.8,0.173650319,0.700369274,-0.150669881,0.675710318
917,2297554,783200,0.988,0.04,-0.026,0,-0.1,0,-35.8,5.6,27.8,0.173650319,0.700369274,-0.150669881,0.675710318
918,2299094,783200,0.988,0.04,-0.026,0,0,0,-35.8,5.6,27.8,0.173650319,0.700369274,-0.150669881,0.675710318
919,2301556,783200,0.985,0.04,-0.026,0,0,0,-35.8,5.6,27.8,0.173650319,0.700369274,-0.150669881,0.675710318
920,2304071,783210,0.985,0.04,-0.034,0,0,0,-35.9,5.7,28.1,0.173650319,0.700369274,-0.150669881,0.675710318
921,2306867,783210,0.985,0.044,-0.022,0,0,0,-35.9,5.7,28.1,0.173650319,0.700369274,-0.150669881,0.675710318
922,2309914,783210,0.985,0.036,-0.014,0,0,0,-35.9,5.7,28.1,0.173650319,0.700369274,-0.150669881,0.675710318
923,2312780,783210,0.985,0.04,-0.026,0,0,0,-35.9,5.7,28.1,0.173650319,0.700369274,-0.150669881,0.675710318
924,2314278,783220,0.988,0.04,-0.026,0,-0.1,0,-35.7,5.7,28.9,0.173650319,0.700369274,-0.150669881,0.675710318
925,2317315,783220,0.985,0.04,-0.026,0,-0.1,0,-35.7,5.7,28.9,0.1736198,0.700369274,-0.150669881,0.675710318
926,2320186,783220,0.985,0.036,-0.026,0,0,0.1,-35.7,5.7,28.9,0.1736198,0.700369274,-0.150669881,0.675710318
927,2321701,783220,0.985,0.04,-0.022,0,0.1,0.1,-35.7,5.7,28.9,0.1736198,0.700369274,-0.150669881,0.675710318
928,2324734,783230,0.985,0.036,-0.026,0,0.2,0.1,-35.7,5.8,28.3,0.1736198,0.700369274,-0.150669881,0.675710318
929,2327727,783230,0.988,0.04,-0.022,0,0.1,0,-35.7,5.8,28.3,0.1736198,0.700369274,-0.150669881,0.675710318
930,2329239,783230,0.988,0.04,-0.026,0,0,0,-35.7,5.8,28.3,0.1736198,0.700369274,-0.150669881,0.675710318
931,2332152,783230,0.988,0.036,-0.026,0,-0.1,0,-35.7,5.8,28.3,0.1736198,0.700369274,-0.150669881,0.675710318
932,2335659,783240,0.988,0.036,-0.026,0,-0.1,0,-35.7,5.8,28.3,0.1736198,0.700369274,-0.150669881,0.675710318
933,2337169,783240,0.985,0.044,-0.022,-0.1,-0.2,-0.1,-35.5,6,25.4,0.1736198,0.700369274,-0.150669881,0.675710318
934,2340148,783240,0.988,0.04,-0.022,0,-0.1,0,-35.5,6,25.4,0.173650319,0.700369274,-0.150669881,0.675710318
935,2341647,783240,0.985,0.036,-0.022,0,0,0,-35.5,6,25.4,0.173650319,0.700369274,-0.150669881,0.675710318
936,2344694,783250,0.985,0.04,-0.026,0,0,0,-35.4,5.9,27.8,0.173650319,0.700369274,-0.150669881,0.6756798
937,2347024,783250,0.981,0.04,-0.026,0,0,0,-35.4,5.9,27.8,0.173650319,0.700369274,-0.150669881,0.6756798
938,2349290,783250,0.988,0.04,-0.022,0,0,0,-35.4,5.9,27.8,0.173650319,0.700369274,-0.150669881,0.6756798
939,2351764,783250,0.985,0.036,-0.018,0,0,0,-35.4,5.9,27.8,0.1736198,0.700369274,-0.150669881,0.6756798
940,2356026,783260,0.985,0.036,-0.026,0.1,0.1,0,-35.7,5.9,27.2,0.1736198,0.700369274,-0.150669881,0.675710318
941,2356585,783260,0.985,0.04,-0.022,0,0.1,0.1,-35.7,5.9,27.2,0.1736198,0.700369274,-0.150669881,0.675710318
942,2359769,783260,0.985,0.036,-0.026,0,0,0,-35.7,5.9,27.2,0.1736198,0.700369274,-0.150669881,0.675710318
943,2362559,783260,0.985,0.04,-0.022,0,-0.2,0,-35.7,5.9,27.2,0.1736198,0.700369274,-0.150669881,0.6756798
944,2364761,783270,0.992,0.036,-0.026,0,-0.1,0,-35.5,5.8,26.5,0.1736198,0.700399792,-0.150669881,0.6756798
945,2367016,783270,0.988,0.036,-0.022,0,-0.1,0,-35.5,5.8,26.5,0.1736198,0.700399792,-0.150669881,0.6756798
946,2369284,783270,0.985,0.044,-0.026,0.1,0,0,-35.5,5.8,26.5,0.1736198,0.700399792,-0.150669881,0.6756798
947,2371610,783270,0.988,0.04,-0.022,0.1,0,0,-35.5,5.8,26.5,0.1736198,0.700399792,-0.150669881,0.6756798
948,2375798,783280,0.985,0.04,-0.026,0.1,0,0,-35.6,6,26.8,0.1736198,0.700399792,-0.150669881,0.6756798
949,2378030,783280,0.985,0.04,-0.03,0,0,0.1,-35.6,6,26.8,0.1736198,0.700399792,-0.150669881,0.6756798
950,2380232,783280,0.985,0.04,-0.022,0,0,0.1,-35.6,6,26.8,0.1736198,0.700399792,-0.150669881,0.6756798
951,2382469,783280,0.985,0.036,-0.026,0,0,0.1,-35.6,6,26.8,0.1736198,0.700399792,-0.150669881,0.6756798
952,2384778,783290,0.985,0.036,-0.026,0,0,0,-35.8,5.9,27.2,0.1736198,0.700399792,-0.150669881,0.6756798
953,2386902,783290,0.985,0.036,-0.026,0,0,0,-35.8,5.9,27.2,0.1736198,0.700399792,-0.150669881,0.6756798
954,2389355,783290,0.985,0.036,-0.026,0,0,0,-35.8,5.9,27.2,0.1736198,0.700399792,-0.150669881,0.6756798
955,2391722,783290,0.988,0.036,-0.03,0,0,0,-35.8,5.9,27.2,0.1736198,0.700399792,-0.150669881,0.6756798
956,2394052,783300,0.981,0.04,-0.026,0,0,0,-35.8,6,27,0.1736198,0.700399792,-0.150669881,0.6756798
957,2398315,783300,0.988,0.04,-0.022,0,0,0,-35.8,6,27,0.1736198,0.700399792,-0.150669881,0.6756798
958,2400425,783300,0.985,0.04,-0.03,0,-0.1,0,-35.8,6,27,0.1736198,0.700399792,-0.150669881,0.6756798
959,2402071,783300,0.985,0.04,-0.026,0,0,0,-35.8,6,27,0.1736198,0.700399792,-0.150669881,0.6756798
960,2404400,783310,0.988,0.04,-0.022,0,0,0,-35.7,5.8,27.1,0.1736198,0.700399792,-0.150669881,0.6756798
961,2407344,783310,0.981,0.04,-0.026,0,0,0.1,-35.7,5.8,27.1,0.173589282,0.700399792,-0.1507004,0.6756798
962,2410262,783310,0.988,0.04,-0.03,0,0,0.1,-35.7,5.8,27.1,0.173589282,0.700399792,-0.1507004,0.6756798
963,2412648,783310,0.981,0.04,-0.03,-0.1,0,0.1,-35.7,5.8,27.1,0.173589282,0.700399792,-0.1507004,0.6756798
964,2414890,783320,0.985,0.04,-0.022,0,0,0,-35.7,5.9,27.1,0.173589282,0.700399792,-0.1507004,0.6756798
965,2417120,783320,0.985,0.04,-0.026,0,0,0,-35.7,5.9,27.1,0.173589282,0.700399792,-0.1507004,0.6756798
966,2419314,783320,0.988,0.04,-0.022,0,0,0,-35.7,5.9,27.1,0.173589282,0.700399792,-0.1507004,0.6756798
967,2421844,783320,0.988,0.04,-0.018,0,0,0,-35.7,5.9,27.1,0.173589282,0.700399792,-0.1507004,0.6756798
968,2426157,783330,0.985,0.04,-0.026,0.1,0,0,-35.7,5.7,26.9,0.173589282,0.700399792,-0.1507004,0.6756798
969,2426831,783330,0.988,0.04,-0.022,0.1,0,0,-35.7,5.7,26.9,0.173589282,0.700399792,-0.1507004,0.6756798
970,2429297,783330,0.988,0.036,-0.022,0.1,0,0.1,-35.7,5.7,26.9,0.173589282,0.700399792,-0.1507004,0.6756798
971,2432682,783330,0.985,0.044,-0.018,0,0,0.2,-35.7,5.7,26.9,0.173589282,0.700399792,-0.1507004,0.6756798
972,2434875,783340,0.988,0.036,-0.022,0,-0.1,0.2,-35.5,6.8,28.6,0.1736198,0.700369274,-0.150669881,0.675710318
973,2437043,783340,0.988,0.04,-0.018,0,-0.1,0.2,-35.5,6.8,28.6,0.1736198,0.700369274,-0.150669881,0.675710318
974,2439348,783340,0.985,0.04,-0.03,0,-0.1,0.1,-35.5,6.8,28.6,0.1736198,0.700369274,-0.150669881,0.675710318
975,2443257,783340,0.985,0.04,-0.03,0,-0.1,0.1,-35.5,6.8,28.6,0.1736198,0.700369274,-0.150669881,0.675710318
976,2445558,783350,0.981,0.04,-0.022,0,-0.1,0,-35.6,4.8,26.1,0.1736198,0.700369274,-0.150669881,0.675710318
977,2447674,783350,0.985,0.036,-0.018,0,-0.1,0,-35.6,4.8,26.1,0.1736198,0.700369274,-0.150669881,0.675710318
978,2449978,783350,0.985,0.04,-0.026,0,-0.1,0,-35.6,4.8,26.1,0.1736198,0.700369274,-0.150669881,0.675710318
979,2452211,783350,0.985,0.036,-0.022,0,-0.1,0,-35.6,4.8,26.1,0.173589282,0.700369274,-0.150669881,0.675710318
980,2454452,783360,0.985,0.04,-0.026,0,-0.1,0,-35.3,4.6,26,0.173589282,0.700369274,-0.150669881,0.675710318
981,2456719,783360,0.985,0.04,-0.026,0,0,0,-35.3,4.6,26,0.1736198,0.700369274,-0.150669881,0.675710318
982,2459052,783360,0.985,0.044,-0.022,0,0,0,-35.3,4.6,26,0.1736198,0.700369274,-0.150669881,0.675710318
983,2462696,783360,0.985,0.04,-0.022,0,-0.1,0,-35.3,4.6,26,0.1736198,0.700369274,-0.150669881,0.675710318
984,2464310,783370,0.992,0.044,-0.026,0,-0.1,0,-36,4.1,26.3,0.1736198,0.700369274,-0.150669881,0.675710318
985,2466579,783370,0.985,0.04,-0.022,-0.1,0,0,-36,4.1,26.3,0.1736198,0.700369274,-0.150669881,0.675710318
986,2469979,783370,0.988,0.04,-0.026,-0.1,0,0,-36,4.1,26.3,0.1736198,0.700369274,-0.150669881,0.675710318
987,2471721,783370,0.985,0.04,-0.022,0,0,0,-36,4.1,26.3,0.1736198,0.700369274,-0.150669881,0.675710318
988,2474308,783380,0.988,0.04,-0.026,0,0,0,-35.6,4.5,26.2,0.1736198,0.700399792,-0.150669881,0.675710318
989,2476669,783380,0.985,0.04,-0.018,0,0,0,-35.6,4.5,26.2,0.1736198,0.700399792,-0.150669881,0.675710318
990,2480726,783380,0.988,0.036,-0.026,0,0,0.2,-35.6,4.5,26.2,0.1736198,0.700369274,-0.150669881,0.675710318
991,2482955,783380,0.988,0.036,-0.026,0,0.1,0.2,-35.6,4.5,26.2,0.1736198,0.700369274,-0.150669881,0.675710318
992,2485211,783390,0.981,0.036,-0.03,0,0,0.1,-35.7,7.4,27.5,0.1736198,0.700369274,-0.150669881,0.675710318
993,2487470,783390,0.985,0.036,-0.026,0,0,0.1,-35.7,7.4,27.5,0.1736198,0.700369274,-0.150669881,0.675710318
994,2489617,783390,0.988,0.04,-0.022,0,0,0,-35.7,7.4,27.5,0.1736198,0.700369274,-0.1507004,0.675710318
995,2491929,783390,0.985,0.04,-0.026,0,0,0,-35.7,7.4,27.5,0.1736198,0.700369274,-0.150669881,0.675710318
996,2494198,783400,0.988,0.036,-0.026,0,0,0,-35.7,5.7,26.8,0.1736198,0.700369274,-0.150669881,0.675710318
997,2496677,783400,0.988,0.036,-0.026,0.1,-0.1,0,-35.7,5.7,26.8,0.1736198,0.700369274,-0.150669881,0.675710318
998,2500205,783400,0.985,0.04,-0.026,0.1,0,0,-35.7,5.7,26.8,0.173589282,0.700369274,-0.150669881,0.675710318
999,2501715,783400,0.988,0.04,-0.022,0,0,0,-35.7,5.7,26.8,0.173589282,0.700369274,-0.150669881,0.675710318
1000,2505038,783410,0.985,0.04,-0.026,0,0,0,-35.6,6.5,26.6,0.173589282,0.700369274,-0.150669881,0.675710318
1001,2506626,783410,0.988,0.036,-0.022,0,0,0,-35.6,6.5,26.6,0.173589282,0.700369274,-0.150669881,0.675710318
1002,2509066,783410,0.985,0.04,-0.026,0,0,0,-35.6,6.5,26.6,0.173589282,0.700369274,-0.150669881,0.675710318
1003,2512280,783410,0.985,0.04,-0.026,0,0,0,-35.6,6.5,26.6,0.173589282,0.700369274,-0.150669881,0.675710318
1004,2514581,783420,0.988,0.04,-0.018,0,0,0.1,-35.6,7.2,26.8,0.173589282,0.700369274,-0.150669881,0.675710318
1005,2516790,783420,0.988,0.04,-0.03,0,0,0,-35.6,7.2,26.8,0.173589282,0.700369274,-0.150669881,0.675710318
1006,2519110,783420,0.988,0.044,-0.022,0,0,0,-35.6,7.2,26.8,0.173589282,0.700369274,-0.150669881,0.675710318
1007,2523156,783420,0.985,0.04,-0.03,0,0,0,-35.6,7.2,26.8,0.173589282,0.700369274,-0.150669881,0.675710318
1008,2525308,783430,0.985,0.04,-0.018,0,0,0,-35.7,6.5,26.4,0.173589282,0.700369274,-0.1507004,0.675710318
1009,2527569,783430,0.981,0.04,-0.022,0,0,0.1,-35.7,6.5,26.4,0.173589282,0.700369274,-0.1507004,0.675710318
1010,2529818,783430,0.985,0.032,-0.018,0,0.1,0.1,-35.7,6.5,26.4,0.173589282,0.700369274,-0.1507004,0.675710318
1011,2532122,783430,0.985,0.04,-0.022,0,0.1,0,-35.7,6.5,26.4,0.173589282,0.700369274,-0.1507004,0.675710318
1012,2534319,783440,0.985,0.036,-0.022,0,0.1,0,-35.7,5.8,27.2,0.1736198,0.700308237,-0.150669881,0.675771355
1013,2536626,783440,0.985,0.036,-0.022,0,0.1,0,-35.7,5.8,27.2,0.1736198,0.700308237,-0.150669881,0.675801874
1014,2539175,783440,0.985,0.04,-0.026,0.1,0,-0.1,-35.7,5.8,27.2,0.1736198,0.700308237,-0.150669881,0.675771355
1015,2542588,783440,0.985,0.036,-0.03,0.1,0,0,-35.7,5.8,27.2,0.1736198,0.700308237,-0.150669881,0.675771355
1016,2544183,783450,0.981,0.033,-0.022,0.1,0,0,-35.9,6,26.7,0.1736198,0.700308237,-0.150669881,0.675771355
1017,2546800,783450,0.985,0.04,-0.022,0,0,0.1,-35.9,6,26.7,0.173589282,0.700308237,-0.150669881,0.675771355
1018,2550021,783450,0.985,0.04,-0.022,0,0,0,-35.9,6,26.7,0.173589282,0.700308237,-0.150669881,0.675771355
1019,2551518,783450,0.985,0.04,-0.026,0,0.1,0,-35.9,6,26.7,0.173589282,0.700308237,-0.150669881,0.675801874
1020,2555159,783460,0.985,0.04,-0.022,0,0.2,-0.1,-35.6,6,27.1,0.1736198,0.700308237,-0.150669881,0.675801874
1021,2556708,783460,0.988,0.04,-0.022,0,0.1,0,-35.6,6,27.1,0.1736198,0.700308237,-0.150669881,0.675801874
1022,2559017,783460,0.985,0.04,-0.03,0,0,0,-35.6,6,27.1,0.1736198,0.700308237,-0.150669881,0.675801874
1023,2562700,783460,0.992,0.04,-0.026,0,0,0,-35.6,6,27.1,0.1736198,0.700308237,-0.150669881,0.675801874
1024,2564192,783470,0.985,0.04,-0.022,0,0,0,-35.8,6,27,0.1736198,0.700308237,-0.150669881,0.675801874
1025,2567154,783470,0.988,0.04,-0.026,0,0,-0.1,-35.8,6,27,0.1736198,0.700308237,-0.150669881,0.675801874
1026,2570295,783470,0.988,0.044,-0.03,0,0,-0.1,-35.8,6,27,0.1736198,0.700308237,-0.150669881,0.675801874
1027,2571894,783470,0.985,0.036,-0.026,-0.1,0,-0.1,-35.8,6,27,0.1736198,0.700308237,-0.150669881,0.675801874
1028,2575113,783480,0.985,0.044,-0.03,-0.1,0,0,-35.7,5.9,27.6,0.1736198,0.700308237,-0.150669881,0.675771355
1029,2576583,783480,0.988,0.04,-0.03,0,0,-0.1,-35.7,5.9,27.6,0.1736198,0.700308237,-0.150669881,0.675771355
1030,2578992,783480,0.988,0.036,-0.03,0,0,0,-35.7,5.9,27.6,0.1736198,0.700308237,-0.150669881,0.675771355
1031,2581953,783480,0.985,0.04,-0.026,0,0.1,0,-35.7,5.9,27.6,0.1736198,0.700308237,-0.150669881,0.675801874
1032,2585058,783490,0.985,0.04,-0.026,0,0.1,0,-35.7,5.9,27.6,0.1736198,0.700308237,-0.150669881,0.675801874
1033,2586601,783490,0.988,0.04,-0.022,0,0,0,-35.2,4.5,26.9,0.1736198,0.700338755,-0.150608844,0.675740837
1034,2589690,783490,0.985,0.04,-0.022,0,0,0,-35.2,4.5,26.9,0.1736198,0.700338755,-0.150608844,0.675740837
1035,2591966,783490,0.985,0.04,-0.022,0.1,0,0.1,-35.2,4.5,26.9,0.1736198,0.700338755,-0.150608844,0.675740837
1036,2595776,783500,0.988,0.036,-0.022,0.1,0,0.1,-37,7.6,26.7,0.1736198,0.700338755,-0.150608844,0.675740837
1037,2597883,783500,0.988,0.04,-0.026,0,0,0.1,-37,7.6,26.7,0.1736198,0.700338755,-0.150669881,0.675740837
1038,2599401,783500,0.988,0.04,-0.018,0,0,0,-37,7.6,26.7,0.1736198,0.700338755,-0.150669881,0.675740837
1039,2601675,783500,0.988,0.044,-0.03,0,0,0,-37,7.6,26.7,0.1736198,0.700338755,-0.150669881,0.675740837
1040,2604626,783510,0.985,0.036,-0.026,0,0,-0.1,-37.6,7.6,26.7,0.1736198,0.700338755,-0.150669881,0.675740837
1041,2606875,783510,0.985,0.04,-0.022,0,0.1,0,-37.6,7.6,26.7,0.1736198,0.700338755,-0.150669881,0.675740837
1042,2609929,783510,0.988,0.04,-0.026,0,0,0,-37.6,7.6,26.7,0.1736198,0.700338755,-0.150669881,0.675740837
1043,2612112,783510,0.985,0.04,-0.026,0,0,0,-37.6,7.6,26.7,0.1736198,0.700338755,-0.150669881,0.675740837
1044,2615219,783520,0.985,0.036,-0.022,0,-0.1,-0.1,-37.7,7.1,26.8,0.1736198,0.700338755,-0.150669881,0.675740837
1045,2616697,783520,0.988,0.04,-0.022,0,-0.1,-0.1,-37.7,7.1,26.8,0.1736198,0.700338755,-0.150608844,0.675740837
1046,2619086,783520,0.981,0.04,-0.026,0,-0.1,0,-37.7,7.1,26.8,0.1736198,0.700338755,-0.150608844,0.675740837
1047,2621995,783520,0.985,0.036,-0.022,0,0,0,-37.7,7.1,26.8,0.1736198,0.700338755,-0.150669881,0.675740837
1048,2624239,783530,0.988,0.04,-0.026,0,0.1,0.1,-37.5,7.4,26.6,0.1736198,0.700338755,-0.150669881,0.675740837
1049,2626674,783530,0.985,0.04,-0.034,0,0.2,0.1,-37.5,7.4,26.6,0.1736198,0.700338755,-0.150669881,0.675740837
1050,2629465,783530,0.985,0.04,-0.03,0,0.2,0,-37.5,7.4,26.6,0.1736198,0.700338755,-0.150669881,0.675740837
1051,2632559,783530,0.988,0.044,-0.03,0,0.1,0,-37.5,7.4,26.6,0.1736198,0.700338755,-0.150669881,0.675740837
1052,2634033,783540,0.985,0.044,-0.026,0,0,0,-35,5.7,27,0.173650319,0.700399792,-0.150608844,0.6756798
1053,2636542,783540,0.985,0.04,-0.03,0,0,0,-35,5.7,27,0.173650319,0.700399792,-0.150608844,0.6756798
1054,2640040,783540,0.985,0.04,-0.026,0,-0.1,0,-35,5.7,27,0.173650319,0.700399792,-0.150608844,0.6756798
1055,2641818,783540,0.981,0.036,-0.026,0,0,-0.1,-35,5.7,27,0.173650319,0.700399792,-0.150608844,0.6756798
1056,2644072,783550,0.985,0.04,-0.026,0,0.1,-0.1,-36.3,6.5,27,0.173650319,0.700399792,-0.150608844,0.6756798
1057,2647539,783550,0.985,0.04,-0.026,0,0.2,-0.1,-36.3,6.5,27,0.173650319,0.700399792,-0.150608844,0.6756798
1058,2649033,783550,0.985,0.04,-0.026,0,0.1,0,-36.3,6.5,27,0.173650319,0.700369274,-0.150608844,0.675710318
1059,2652763,783550,0.988,0.036,-0.026,0,0,0,-36.3,6.5,27,0.173650319,0.700399792,-0.150608844,0.675710318
1060,2654269,783560,0.985,0.04,-0.03,0,0,0,-35.8,6.2,27,0.173650319,0.700399792,-0.150608844,0.6756798
1061,2656819,783560,0.985,0.04,-0.026,0,-0.1,-0.1,-35.8,6.2,27,0.173650319,0.700399792,-0.150608844,0.6756798
1062,2660221,783560,0.985,0.04,-0.018,0,0,0,-35.8,6.2,27,0.173650319,0.700399792,-0.150608844,0.6756798
1063,2661725,783560,0.981,0.036,-0.026,0,-0.1,0,-35.8,6.2,27,0.173650319,0.700399792,-0.150608844,0.6756798
1064,2664746,783570,0.985,0.032,-0.03,0,-0.1,0,-35.4,6.1,27.2,0.173650319,0.700399792,-0.150608844,0.6756798
1065,2667021,783570,0.985,0.04,-0.026,0,-0.1,0,-35.4,6.1,27.2,0.173650319,0.700399792,-0.150608844,0.6756798
1066,2669231,783570,0.985,0.04,-0.026,0,-0.1,0,-35.4,6.1,27.2,0.173650319,0.700399792,-0.150608844,0.6756798
1067,2671803,783570,0.985,0.04,-0.022,0,-0.1,0,-35.4,6.1,27.2,0.173650319,0.700399792,-0.150608844,0.6756798
1068,2674030,783580,0.985,0.04,-0.022,0,-0.1,0,-35.5,6.4,27.5,0.173650319,0.700399792,-0.150608844,0.6756798
1069,2677544,783580,0.985,0.04,-0.022,0,0.1,0,-35.5,6.4,27.5,0.173650319,0.700399792,-0.150608844,0.6756798
1070,2679063,783580,0.988,0.036,-0.026,0,0.2,0,-35.5,6.4,27.5,0.173650319,0.700399792,-0.150608844,0.6756798
1071,2682745,783580,0.988,0.04,-0.03,0,0.2,0,-35.5,6.4,27.5,0.173650319,0.700399792,-0.150608844,0.6756798
1072,2684322,783590,0.981,0.04,-0.026,0,0.1,0,-35.5,5.8,27,0.173680837,0.700369274,-0.150608844,0.6756798
1073,2687383,783590,0.981,0.04,-0.026,0,0,-0.1,-35.5,5.8,27,0.173680837,0.700369274,-0.150608844,0.6756798
1074,2689101,783590,0.985,0.04,-0.026,0,0,-0.1,-35.5,5.8,27,0.173680837,0.700369274,-0.150608844,0.6756798
1075,2691876,783590,0.988,0.04,-0.026,0,0,-0.1,-35.5,5.8,27,0.173680837,0.700399792,-0.150608844,0.6756798
1076,2694908,783600,0.988,0.04,-0.026,0,-0.1,0,-35.5,5.7,27.1,0.173680837,0.700399792,-0.150608844,0.6756798
1077,2696618,783600,0.988,0.04,-0.022,0,0,0,-35.5,5.7,27.1,0.173680837,0.700399792,-0.150608844,0.6756798
1078,2700100,783600,0.988,0.04,-0.026,0,0,0,-35.5,5.7,27.1,0.173680837,0.700399792,-0.150608844,0.6756798
1079,2701649,783600,0.988,0.04,-0.026,0,0,0,-35.5,5.7,27.1,0.173680837,0.700399792,-0.150608844,0.6756798
1080,2704206,783610,0.985,0.036,-0.03,0,0,0,-35.4,5.4,27.2,0.173680837,0.700399792,-0.150608844,0.6756798
1081,2707582,783610,0.985,0.04,-0.022,0,0,0.1,-35.4,5.4,27.2,0.173680837,0.700399792,-0.150608844,0.6756798
1082,2709170,783610,0.985,0.04,-0.026,-0.1,0,0.1,-35.4,5.4,27.2,0.173680837,0.700399792,-0.150608844,0.6756798
1083,2711645,783610,0.981,0.04,-0.026,0,0,0.1,-35.4,5.4,27.2,0.173650319,0.700399792,-0.150608844,0.6756798
1084,2715088,783620,0.988,0.036,-0.022,0,0,0,-35.2,5.6,27.1,0.173650319,0.700369274,-0.150608844,0.6756798
1085,2716665,783620,0.981,0.044,-0.03,0,0,0,-35.2,5.6,27.1,0.173650319,0.700369274,-0.150608844,0.6756798
1086,2719353,783620,0.988,0.036,-0.03,0,0,0,-35.2,5.6,27.1,0.173650319,0.700369274,-0.150608844,0.6756798
1087,2721593,783620,0.985,0.044,-0.022,0,0,0,-35.2,5.6,27.1,0.173650319,0.700399792,-0.150608844,0.6756798
1088,2725694,783630,0.985,0.036,-0.018,0.1,0,0,-35.5,6,27.2,0.173650319,0.700399792,-0.150608844,0.6756798
1089,2727951,783630,0.988,0.04,-0.026,0,0,0,-35.5,6,27.2,0.173650319,0.700399792,-0.150608844,0.6756798
1090,2729374,783630,0.988,0.044,-0.03,0,0,-0.1,-35.5,6,27.2,0.173650319,0.700399792,-0.150608844,0.6756798
1091,2731625,783630,0.985,0.04,-0.022,0,0,-0.2,-35.5,6,27.2,0.173650319,0.700399792,-0.150608844,0.6756798
1092,2734152,783640,0.985,0.04,-0.022,0,0,-0.2,-35.5,6,27.2,0.173650319,0.700399792,-0.150608844,0.6756798
1093,2736528,783640,0.985,0.04,-0.03,0.1,-0.1,-0.1,-36.7,6,26.8,0.173680837,0.700369274,-0.150608844,0.675710318
1094,2739852,783640,0.985,0.04,-0.026,0,-0.2,-0.1,-36.7,6,26.8,0.173680837,0.700399792,-0.150608844,0.6756798
1095,2741498,783640,0.985,0.04,-0.022,0,-0.2,0,-36.7,6,26.8,0.173680837,0.700399792,-0.150608844,0.6756798
1096,2745018,783650,0.985,0.032,-0.022,0,-0.1,0,-34.4,6,27,0.173680837,0.700399792,-0.150608844,0.6756798
1097,2746525,783650,0.985,0.04,-0.022,0,0,0,-34.4,6,27,0.173680837,0.700399792,-0.150608844,0.6756798
1098,2749021,783650,0.988,0.04,-0.022,0,0,0,-34.4,6,27,0.173680837,0.700399792,-0.150608844,0.6756798
1099,2752513,783650,0.985,0.032,-0.018,0,0,0,-34.4,6,27,0.173680837,0.700399792,-0.150608844,0.6756798
1100,2754024,783660,0.985,0.04,-0.03,0,0,0,-34.5,6.4,27.2,0.173680837,0.700399792,-0.150608844,0.6756798
1101,2756579,783660,0.985,0.04,-0.03,0,0.1,0,-34.5,6.4,27.2,0.173680837,0.700399792,-0.150608844,0.6756798
1102,2760058,783660,0.985,0.036,-0.018,0,0.2,0.1,-34.5,6.4,27.2,0.173680837,0.700399792,-0.150608844,0.6756798
1103,2761665,783660,0.988,0.04,-0.022,0,0.2,0,-34.5,6.4,27.2,0.173680837,0.700369274,-0.150608844,0.6756798
1104,2764036,783670,0.985,0.04,-0.022,0,0.2,-0.1,-34.1,6,27,0.173680837,0.700369274,-0.150608844,0.675710318
1105,2767603,783670,0.985,0.036,-0.022,0,0.1,-0.1,-34.1,6,27,0.173680837,0.700369274,-0.150608844,0.675710318
1106,2769094,783670,0.985,0.036,-0.022,0,0.1,0,-34.1,6,27,0.173680837,0.700369274,-0.150608844,0.675710318
1107,2771600,783670,0.988,0.044,-0.03,0,0.1,0,-34.1,6,27,0.173680837,0.700369274,-0.150608844,0.675710318
