sample_index,elapsed_us,device_time_ms,acc_x_g,acc_y_g,acc_z_g,gyro_x_dps,gyro_y_dps,gyro_z_dps,mag_x_ut,mag_y_ut,mag_z_ut,quat_w,quat_x,quat_y,quat_z
0,4708,393720,0.949,-0.225,0.237,2.9,0.2,5.1,-1.3,30.5,-15.3,0.252418592,0.520035401,-0.340617084,0.741447188
1,6993,393720,0.949,-0.225,0.229,2.7,0.3,5.1,-1.3,30.5,-15.3,0.252327036,0.520004883,-0.340647603,0.741508225
2,9327,393720,0.949,-0.228,0.233,2.5,0.4,5.1,-1.3,30.5,-15.3,0.252204962,0.519974364,-0.340647603,0.741569262
3,13256,393730,0.946,-0.225,0.229,2.3,0.5,5,-0.9,30.6,-15.2,0.252113407,0.519943846,-0.340678121,0.74159978
4,15374,393730,0.949,-0.228,0.233,2.2,0.5,4.9,-0.9,30.6,-15.2,0.251991333,0.519913327,-0.340678121,0.741660817
5,17581,393730,0.942,-0.228,0.237,2.1,0.5,4.8,-0.9,30.6,-15.2,0.251899777,0.519882809,-0.34070864,0.741721854
6,19577,393730,0.946,-0.225,0.229,2,0.6,4.7,-0.9,30.6,-15.2,0.251808222,0.51985229,-0.34070864,0.741752373
7,21868,393740,0.942,-0.228,0.229,1.9,0.6,4.6,-1.1,30.3,-14.9,0.251716666,0.519821772,-0.340739158,0.74181341
8,25022,393740,0.946,-0.217,0.233,1.8,0.6,4.4,-1.1,30.3,-14.9,0.251625111,0.519791253,-0.340739158,0.741843928
9,27384,393740,0.946,-0.221,0.233,1.7,0.5,4.3,-1.1,30.3,-14.9,0.251533555,0.519730216,-0.340769677,0.741904965
10,29321,393740,0.946,-0.221,0.233,1.6,0.4,4.1,-1.1,30.3,-14.9,0.251472518,0.519699698,-0.340800195,0.741935484
11,32506,393750,0.942,-0.224,0.237,1.6,0.4,4,-0.9,30.6,-15,0.251380963,0.519699698,-0.340800195,0.741966002
12,34572,393750,0.938,-0.22,0.233,1.6,0.4,3.9,-0.9,30.6,-15,0.251289407,0.519669179,-0.340830714,0.742027039
13,37731,393750,0.946,-0.221,0.229,1.7,0.4,3.9,-0.9,30.6,-15,0.25122837,0.519638661,-0.340830714,0.742057558
14,40737,393750,0.946,-0.221,0.233,1.7,0.6,3.7,-0.9,30.6,-15,0.251136814,0.519608142,-0.340830714,0.742088076
15,42291,393760,0.946,-0.221,0.233,1.7,0.6,3.7,-0.9,30.6,-15,0.251136814,0.519608142,-0.340830714,0.742088076
16,44356,393760,0.942,-0.221,0.237,1.8,0.8,3.2,-0.9,30.6,-15,0.251319926,0.519699698,-0.340556047,0.742088076
17,47515,393760,0.946,-0.228,0.237,1.8,0.8,3.2,-0.9,30.6,-15,0.251258889,0.519669179,-0.340556047,0.742149113
18,49606,393760,0.946,-0.221,0.241,1.7,0.8,3.1,-0.9,30.6,-15,0.251197851,0.519638661,-0.340556047,0.742179632
19,52949,393770,0.946,-0.221,0.229,1.5,0.9,3,-0.9,30.6,-15,0.251136814,0.519608142,-0.340586566,0.74221015
20,55339,393770,0.942,-0.221,0.237,1.2,0.9,2.9,-0.2,30.6,-14.9,0.251075777,0.519577624,-0.340586566,0.742240669
21,57619,393770,0.942,-0.217,0.233,1.1,1,2.8,-0.2,30.6,-14.9,0.25101474,0.519547105,-0.340586566,0.742301706
22,59416,393770,0.946,-0.221,0.237,1.1,1.2,2.7,-0.2,30.6,-14.9,0.250984222,0.519516587,-0.340586566,0.742332224
23,61717,393780,0.946,-0.217,0.233,0.9,1.3,2.6,-0.2,30.6,-14.9,0.250923185,0.519486068,-0.340617084,0.742362743
24,64914,393780,0.946,-0.217,0.233,0.7,1.4,2.6,-0.2,30.3,-15.2,0.250892666,0.51945555,-0.340617084,0.742393262
25,66917,393780,0.942,-0.221,0.233,0.5,1.5,2.5,-0.2,30.3,-15.2,0.250862148,0.519394513,-0.340617084,0.74242378
26,69868,393780,0.942,-0.217,0.229,0.4,1.5,2.4,-0.2,30.3,-15.2,0.250831629,0.519363994,-0.340647603,0.742454299
27,72833,393790,0.946,-0.221,0.229,0.2,1.5,2.4,-0.2,30.3,-15.2,0.250801111,0.519333476,-0.340647603,0.742515336
28,74244,393790,0.942,-0.224,0.233,0.1,1.6,2.3,-0.3,30.5,-15.5,0.250770592,0.519272439,-0.340678121,0.742545854
29,77419,393790,0.946,-0.217,0.233,0,1.5,2.1,-0.3,30.5,-15.5,0.250740074,0.51924192,-0.340678121,0.742576373
30,79626,393790,0.942,-0.217,0.241,-0.1,1.3,2,-0.3,30.5,-15.5,0.250709555,0.519211402,-0.34070864,0.742576373
31,81775,393800,0.946,-0.221,0.241,-0.3,1.2,2,-0.3,30.5,-15.5,0.250709555,0.519150365,-0.340739158,0.742606891
32,84913,393800,0.946,-0.221,0.237,-0.5,1.2,1.9,-0.4,30.7,-15.1,0.250679037,0.519119846,-0.340739158,0.74263741
33,87736,393800,0.946,-0.217,0.241,-0.6,1.1,1.7,-0.4,30.7,-15.1,0.250679037,0.519089328,-0.340769677,0.74263741
34,89220,393800,0.95,-0.221,0.241,-0.9,1.2,1.4,-0.4,30.7,-15.1,0.250648518,0.519028291,-0.340830714,0.742667928
35,92335,393810,0.95,-0.221,0.241,-0.9,1.2,1.4,-0.4,30.7,-15.1,0.250648518,0.519028291,-0.340830714,0.742667928
36,95220,393810,0.95,-0.221,0.241,-0.9,1.2,1.4,-0.4,30.7,-15.1,0.250648518,0.519028291,-0.340830714,0.742667928
37,96706,393810,0.946,-0.221,0.237,-1.2,1.3,1.3,-1.7,30.4,-15.6,0.250953703,0.519089328,-0.340464492,0.742667928
38,99837,393810,0.95,-0.217,0.241,-1.3,1.5,1.1,-1.7,30.4,-15.6,0.250984222,0.519058809,-0.34049501,0.742698447
39,101963,393820,0.95,-0.221,0.241,-1.5,1.5,0.8,-1.7,30.4,-15.6,0.25101474,0.518967254,-0.340556047,0.742728965
40,105753,393820,0.95,-0.221,0.241,-1.5,1.5,0.8,-1.7,30.4,-15.6,0.25101474,0.518967254,-0.340556047,0.742728965
41,107279,393820,0.946,-0.221,0.237,-1.6,1.6,0.7,-1.2,30.4,-15.4,0.25101474,0.518936735,-0.340586566,0.742728965
42,110299,393820,0.95,-0.221,0.241,-1.7,1.6,0.6,-1.2,30.4,-15.4,0.251045259,0.518906217,-0.340617084,0.742728965
43,113144,393830,0.946,-0.221,0.241,-1.8,1.8,0.2,-1.2,30.4,-15.4,0.251106296,0.518814661,-0.340647603,0.742759484
44,114544,393830,0.946,-0.221,0.241,-1.8,1.8,0.2,-1.2,30.4,-15.4,0.251106296,0.518814661,-0.340647603,0.742759484
45,117545,393830,0.949,-0.225,0.241,-1.8,2,0,-1,30.9,-15.1,0.251136814,0.518784143,-0.340678121,0.742759484
46,120594,393830,0.949,-0.221,0.237,-1.8,2.2,0,-1,30.9,-15.1,0.251167333,0.518723106,-0.340678121,0.742759484
47,122147,393840,0.949,-0.225,0.241,-1.9,2.4,-0.1,-1,30.9,-15.1,0.251258889,0.51863155,-0.340739158,0.742790002
48,125173,393840,0.949,-0.225,0.241,-1.9,2.4,-0.1,-1,30.9,-15.1,0.251258889,0.51863155,-0.340739158,0.742790002
49,128160,393840,0.949,-0.232,0.233,-2.2,2.7,-0.5,-1.4,30.9,-15,0.251319926,0.518570513,-0.340739158,0.742820521
50,129552,393840,0.953,-0.229,0.237,-2.4,2.9,-0.7,-1.4,30.9,-15,0.251380963,0.518509476,-0.340769677,0.742820521
51,132687,393850,0.942,-0.232,0.233,-2.5,3.1,-0.9,-1.4,30.9,-15,0.251503037,0.518387402,-0.340769677,0.742851039
52,135725,393850,0.942,-0.232,0.233,-2.5,3.1,-0.9,-1.4,30.9,-15,0.251503037,0.518387402,-0.340769677,0.742851039
53,137261,393850,0.949,-0.232,0.237,-2.7,3.4,-1.2,-0.9,30.8,-15,0.251594592,0.518326365,-0.340800195,0.742851039
54,140172,393850,0.949,-0.228,0.233,-3,3.6,-1.4,-0.9,30.8,-15,0.251747185,0.518204291,-0.340830714,0.742881558
55,143218,393860,0.949,-0.232,0.237,-3,3.6,-1.4,-0.9,30.8,-15,0.25183874,0.518143254,-0.340830714,0.742881558
56,144610,393860,0.949,-0.232,0.237,-3,3.6,-1.4,-0.9,30.8,-15,0.25183874,0.518143254,-0.340830714,0.742881558
57,146892,393860,0.949,-0.232,0.237,-3,3.6,-1.4,-0.9,30.8,-15,0.25183874,0.518143254,-0.340830714,0.742881558
58,150031,393860,0.953,-0.232,0.229,-3.4,3.8,-1.6,-1.1,30.6,-15.7,0.252113407,0.518204291,-0.340647603,0.742851039
59,152159,393870,0.953,-0.236,0.233,-3.6,4.2,-1.9,-1.1,30.6,-15.7,0.252327036,0.518051698,-0.340678121,0.742851039
60,154439,393870,0.949,-0.24,0.233,-3.6,4.2,-1.9,-1.1,30.6,-15.7,0.252418592,0.517990661,-0.340678121,0.742881558
61,158405,393870,0.949,-0.24,0.233,-3.6,4.2,-1.9,-1.1,30.6,-15.7,0.252418592,0.517990661,-0.340678121,0.742881558
62,160604,393870,0.946,-0.236,0.237,-3.7,4.5,-2.2,-1.6,30.7,-14.8,0.252540666,0.517899106,-0.340678121,0.742881558
63,162955,393880,0.949,-0.232,0.233,-3.7,4.7,-2.1,-1.6,30.7,-14.8,0.25266274,0.517838069,-0.34070864,0.742881558
64,165117,393880,0.949,-0.236,0.237,-3.7,4.8,-2.2,-1.6,30.7,-14.8,0.25287637,0.517654958,-0.34070864,0.742912076
65,167112,393880,0.949,-0.236,0.237,-3.7,4.8,-2.2,-1.6,30.7,-14.8,0.25287637,0.517654958,-0.34070864,0.742912076
66,169320,393880,0.946,-0.228,0.229,-3.6,4.5,-2.3,-1.2,30.7,-13.7,0.252998444,0.517593921,-0.34070864,0.742942595
67,172373,393890,0.946,-0.232,0.233,-3.6,4.2,-2.5,-1.2,30.7,-13.7,0.253212073,0.517441328,-0.340739158,0.742942595
68,175352,393890,0.946,-0.228,0.237,-3.6,4.2,-2.5,-1.2,30.7,-13.7,0.253334147,0.517380291,-0.340739158,0.742973113
69,178262,393890,0.946,-0.228,0.237,-3.6,4.2,-2.5,-1.2,30.7,-13.7,0.253334147,0.517380291,-0.340739158,0.742973113
70,180246,393890,0.942,-0.232,0.233,-3.3,4.2,-2.6,-1.3,30.6,-13.3,0.253456221,0.517288736,-0.340739158,0.742973113
71,182102,393900,0.949,-0.232,0.233,-3.2,4.4,-2.7,-1.3,30.6,-13.3,0.253669851,0.517166662,-0.340739158,0.743003632
72,185739,393900,0.946,-0.228,0.233,-3.1,4.6,-2.8,-1.3,30.6,-13.3,0.253791925,0.517105625,-0.340739158,0.743003632
73,187659,393900,0.946,-0.228,0.233,-3.1,4.6,-2.8,-1.3,30.6,-13.3,0.253791925,0.517105625,-0.340739158,0.743003632
74,190620,393900,0.961,-0.252,0.229,-2.9,5.1,-3,-1,30.4,-13,0.253913999,0.517014069,-0.34070864,0.74303415
75,192565,393910,0.938,-0.236,0.245,-2.6,5.4,-2.8,-1,30.4,-13,0.254158147,0.516861476,-0.340678121,0.743064669
76,194290,393910,0.934,-0.224,0.245,-2.1,5.9,-2.2,-1,30.4,-13,0.254249702,0.516769921,-0.340647603,0.743125706
77,197795,393910,0.934,-0.224,0.245,-2.1,5.9,-2.2,-1,30.4,-13,0.254249702,0.516769921,-0.340647603,0.743125706
78,199499,393910,0.934,-0.224,0.245,-2.1,5.9,-2.2,-1,30.4,-13,0.254249702,0.516769921,-0.340647603,0.743125706
79,203107,393920,0.946,-0.228,0.229,-2.4,7.1,-1,-1.7,30.7,-17.1,0.254371776,0.516678365,-0.340556047,0.743156224
80,204387,393920,0.945,-0.228,0.225,-3.7,6.8,-1.7,-1.7,30.7,-17.1,0.254524369,0.516556291,-0.340556047,0.743156224
81,207820,393920,0.942,-0.224,0.225,-4.6,6.3,-2.4,-1.7,30.7,-17.1,0.254799036,0.516342662,-0.340586566,0.74324778
82,209558,393920,0.942,-0.224,0.225,-4.6,6.3,-2.4,-1.7,30.7,-17.1,0.254799036,0.516342662,-0.340586566,0.74324778
83,211784,393930,0.946,-0.228,0.237,-4.4,5.6,-3.3,-1.6,30.6,-14.5,0.254951628,0.516251106,-0.340586566,0.74324778
84,214736,393930,0.938,-0.232,0.237,-3.9,5.4,-3.4,-1.6,30.6,-14.5,0.255256813,0.516067995,-0.340586566,0.743278298
85,217719,393930,0.934,-0.228,0.241,-3.4,5.3,-3.3,-1.6,30.6,-14.5,0.255378887,0.516006958,-0.340556047,0.743308817
86,220680,393930,0.934,-0.228,0.241,-3.4,5.3,-3.3,-1.6,30.6,-14.5,0.255378887,0.516006958,-0.340556047,0.743308817
87,222513,393940,0.934,-0.228,0.237,-3.1,5.2,-3,-1.6,30.6,-14.5,0.255500961,0.515915403,-0.340556047,0.743308817
88,224466,393940,0.938,-0.232,0.237,-3.3,5.3,-2.9,-1.6,30.6,-14.5,0.255745109,0.51576281,-0.340525529,0.743339335
89,227484,393940,0.934,-0.228,0.237,-3.7,5.5,-2.8,-1.6,30.6,-14.5,0.255867183,0.515671255,-0.340525529,0.743369854
90,230409,393940,0.934,-0.228,0.237,-3.7,5.5,-2.8,-1.6,30.6,-14.5,0.255867183,0.515671255,-0.340525529,0.743369854
91,232198,393950,0.934,-0.232,0.233,-4.3,6.1,-2.7,-1.6,30.6,-14.5,0.256019776,0.515549181,-0.340525529,0.743400372
92,234279,393950,0.93,-0.228,0.233,-4.6,6.2,-2.7,-1.6,30.6,-14.5,0.256294443,0.515335551,-0.340556047,0.743430891
93,238091,393950,0.93,-0.228,0.233,-4.7,6.3,-2.7,-1.6,30.6,-14.5,0.256447035,0.515243995,-0.340556047,0.743461409
94,240214,393950,0.93,-0.228,0.233,-4.7,6.3,-2.7,-1.6,30.6,-14.5,0.256447035,0.515243995,-0.340556047,0.743461409
95,241741,393960,0.93,-0.232,0.229,-4.6,6.2,-2.4,-1.6,30.6,-14.5,0.256569109,0.515121921,-0.340586566,0.743461409
96,245048,393960,0.93,-0.228,0.233,-4.4,6.1,-2.3,-1.6,30.6,-14.5,0.256843776,0.514908292,-0.340617084,0.743522446
97,247038,393960,0.93,-0.228,0.233,-4.3,6,-2.2,-1.6,30.6,-14.5,0.256996368,0.514816736,-0.340617084,0.743552965
98,249359,393960,0.93,-0.228,0.233,-4.3,6,-2.2,-1.6,30.6,-14.5,0.256996368,0.514816736,-0.340617084,0.743552965
99,252961,393970,0.93,-0.228,0.233,-4.3,6,-2.2,-1.6,30.6,-14.5,0.256996368,0.514816736,-0.340617084,0.743552965
100,254438,393970,0.93,-0.228,0.233,-4.3,5.8,-1.7,-1.2,30.8,-16,0.257179479,0.514816736,-0.340556047,0.743491928
101,256842,393970,0.926,-0.22,0.23,-4.4,5.8,-1.6,-1.2,30.8,-16,0.257423627,0.514603107,-0.340617084,0.743552965
102,259290,393970,0.926,-0.22,0.23,-4.4,5.8,-1.4,-1.2,30.8,-16,0.257545701,0.514481033,-0.340647603,0.743583483
103,262900,393980,0.926,-0.22,0.23,-4.4,5.8,-1.4,-1.2,30.8,-16,0.257545701,0.514481033,-0.340647603,0.743583483
104,264396,393980,0.926,-0.224,0.233,-4.6,5.5,-1,-1.5,30.7,-16,0.257637257,0.514358959,-0.340678121,0.743583483
105,268041,393980,0.926,-0.216,0.233,-4.7,5.5,-0.8,-1.5,30.7,-16,0.257850887,0.514145329,-0.340739158,0.74364452
106,269362,393980,0.926,-0.216,0.237,-4.8,5.4,-0.7,-1.5,30.7,-16,0.257972961,0.514053774,-0.340769677,0.74364452
107,272504,393990,0.926,-0.216,0.237,-4.8,5.4,-0.7,-1.5,30.7,-16,0.257972961,0.514053774,-0.340769677,0.74364452
108,274247,393990,0.922,-0.22,0.234,-4.9,5.1,-0.4,-1.6,30.6,-16.1,0.258064516,0.5139317,-0.340830714,0.743675039
109,277800,393990,0.922,-0.216,0.234,-5.1,5,-0.3,-1.6,30.6,-16.1,0.258278146,0.51371807,-0.340922269,0.743705557
110,279291,393990,0.922,-0.216,0.234,-5.4,4.8,-0.2,-1.6,30.6,-16.1,0.258369701,0.513595996,-0.340983306,0.743736076
111,282297,394000,0.922,-0.216,0.234,-5.4,4.8,-0.2,-1.6,30.6,-16.1,0.258369701,0.513595996,-0.340983306,0.743736076
112,285263,394000,0.918,-0.22,0.234,-5.7,4.4,0,-1.5,30.6,-16.4,0.258552812,0.513412885,-0.34110538,0.743736076
113,288312,394000,0.918,-0.216,0.234,-5.8,4.1,0,-1.5,30.6,-16.4,0.258674886,0.513290811,-0.341196936,0.743736076
114,289862,394000,0.918,-0.22,0.234,-6,3.9,0.1,-1.5,30.6,-16.4,0.258766442,0.513199255,-0.341257973,0.743736076
115,292600,394010,0.918,-0.22,0.234,-6,3.9,0.1,-1.5,30.6,-16.4,0.258766442,0.513199255,-0.341257973,0.743736076
116,295808,394010,0.922,-0.212,0.23,-6.4,3.4,0.1,-1.5,30.6,-16.4,0.258949553,0.513016144,-0.341441084,0.743736076
117,297376,394010,0.922,-0.216,0.234,-6.6,3.3,0.1,-1.5,30.6,-16.4,0.259041108,0.512924589,-0.34153264,0.743705557
118,300212,394010,0.922,-0.216,0.234,-6.6,3.3,0.1,-1.5,30.6,-16.4,0.259132664,0.512833033,-0.341624195,0.743705557
119,301714,394020,0.922,-0.216,0.234,-6.6,3.3,0.1,-1.5,30.6,-16.4,0.259132664,0.512833033,-0.341624195,0.743705557
120,304897,394020,0.922,-0.216,0.234,-6.6,3.3,0.1,-1.5,30.6,-16.4,0.259132664,0.512833033,-0.341624195,0.743705557
121,307911,394020,0.922,-0.224,0.237,-6.9,3.1,0.4,-1.3,30.2,-15.9,0.259407331,0.51289407,-0.34153264,0.743583483
122,310850,394020,0.922,-0.22,0.234,-6.9,3.1,0.4,-1.3,30.2,-15.9,0.259590442,0.512680441,-0.341746269,0.743552965
123,312313,394030,0.914,-0.224,0.234,-7,3.1,0.4,-1.3,30.2,-15.9,0.259681997,0.512619404,-0.341837825,0.743552965
124,315592,394030,0.914,-0.224,0.234,-7,3.1,0.4,-1.3,30.2,-15.9,0.259681997,0.512619404,-0.341837825,0.743552965
125,317778,394030,0.918,-0.232,0.234,-7.1,2.9,0.1,-1.1,30.2,-15,0.259895627,0.512436293,-0.342051454,0.743522446
126,319959,394030,0.918,-0.228,0.234,-7.2,2.8,0.1,-1.1,30.2,-15,0.259987182,0.512344737,-0.34214301,0.743491928
127,323119,394040,0.918,-0.232,0.23,-7.4,2.6,0.1,-1.1,30.2,-15,0.260078738,0.512253182,-0.342265084,0.743461409
128,325564,394040,0.918,-0.232,0.23,-7.4,2.6,0.1,-1.1,30.2,-15,0.260078738,0.512253182,-0.342265084,0.743461409
129,327764,394040,0.918,-0.236,0.238,-7.6,2.5,0.1,-0.9,30.2,-15.2,0.260200812,0.512192145,-0.342356639,0.743430891
130,329427,394040,0.914,-0.243,0.238,-8,2.2,0,-0.9,30.2,-15.2,0.260383923,0.512009033,-0.342600787,0.743369854
131,332694,394050,0.918,-0.244,0.234,-8.1,2,0,-0.9,30.2,-15.2,0.260505997,0.511917478,-0.342722861,0.743339335
132,334276,394050,0.918,-0.244,0.234,-8.1,2,0,-0.9,30.2,-15.2,0.260505997,0.511917478,-0.342722861,0.743339335
133,338267,394050,0.922,-0.24,0.23,-8.3,1.8,0,-0.9,29.8,-15.3,0.260597552,0.511856441,-0.342844935,0.743308817
134,340202,394050,0.918,-0.24,0.234,-8.5,1.4,0,-0.9,29.8,-15.3,0.260811182,0.511703848,-0.343089084,0.743217261
135,343361,394060,0.926,-0.24,0.237,-8.5,1.2,0,-0.9,29.8,-15.3,0.260933256,0.511642811,-0.343241676,0.743156224
136,345490,394060,0.926,-0.24,0.237,-8.5,1.2,0,-0.9,29.8,-15.3,0.260933256,0.511642811,-0.343241676,0.743156224
137,346975,394060,0.926,-0.24,0.241,-8.4,0.8,0.1,-1.2,31.6,-13.8,0.261116367,0.511520737,-0.343485824,0.74303415
138,350073,394060,0.922,-0.24,0.241,-8.4,0.5,0.1,-1.2,31.6,-13.8,0.261207923,0.5114597,-0.343638417,0.743003632
139,352995,394070,0.93,-0.24,0.233,-8.4,0.2,0.1,-1.2,31.6,-13.8,0.261329997,0.511398663,-0.343760491,0.742942595
140,354702,394070,0.93,-0.24,0.233,-8.4,0.2,0.1,-1.2,31.6,-13.8,0.261329997,0.511398663,-0.343760491,0.742942595
141,356805,394070,0.93,-0.24,0.233,-8.4,0.2,0.1,-1.2,31.6,-13.8,0.261329997,0.511398663,-0.343760491,0.742942595
142,359897,394070,0.93,-0.236,0.241,-8.3,-0.1,0.1,-1.5,30.9,-16.3,0.261452071,0.511398663,-0.343882565,0.742851039
143,363222,394080,0.934,-0.228,0.241,-8.4,-0.5,0.2,-1.5,30.9,-16.3,0.261604663,0.511307108,-0.344157231,0.742698447
144,365200,394080,0.934,-0.232,0.245,-8.3,-0.7,0.3,-1.5,30.9,-16.3,0.261696219,0.511276589,-0.344309824,0.74263741
145,367564,394080,0.934,-0.232,0.245,-8.3,-0.7,0.3,-1.5,30.9,-16.3,0.261696219,0.511276589,-0.344309824,0.74263741
146,369546,394080,0.934,-0.22,0.241,-8.2,-0.9,0.2,-1.3,30.2,-15.9,0.261787774,0.511246071,-0.344462416,0.742576373
147,371956,394090,0.938,-0.22,0.241,-8.2,-1.3,0.2,-1.3,30.2,-15.9,0.261940367,0.511185034,-0.344737083,0.74242378
148,374334,394090,0.934,-0.216,0.241,-8.1,-1.3,0.2,-1.3,30.2,-15.9,0.262001404,0.511154515,-0.344889676,0.742332224
149,377086,394090,0.934,-0.216,0.241,-8.1,-1.3,0.2,-1.3,30.2,-15.9,0.262001404,0.511154515,-0.344889676,0.742332224
150,379328,394090,0.934,-0.216,0.241,-8.2,-1.1,0.3,-1.1,30.7,-15.9,0.262092959,0.511123997,-0.34501175,0.742271187
151,381756,394100,0.938,-0.217,0.245,-8.3,-0.7,0.4,-1.1,30.7,-15.9,0.262245552,0.51106296,-0.345316935,0.742118595
152,386040,394100,0.934,-0.216,0.245,-8.2,-0.7,0.4,-1.1,30.7,-15.9,0.262306589,0.511032441,-0.345469527,0.742057558
153,388348,394100,0.934,-0.216,0.245,-8.2,-0.7,0.4,-1.1,30.7,-15.9,0.262306589,0.511032441,-0.345469527,0.742057558
154,391366,394100,0.938,-0.213,0.237,-8.2,-0.7,0.4,-1,30.8,-15.9,0.262398144,0.510971404,-0.345591601,0.741996521
155,391868,394110,0.938,-0.22,0.237,-8.3,-0.8,0.2,-1,30.8,-15.9,0.262550737,0.510910367,-0.345896786,0.741843928
156,395585,394110,0.938,-0.217,0.233,-8.3,-0.7,0.3,-1,30.8,-15.9,0.262642293,0.510879849,-0.34601886,0.741782891
157,398115,394110,0.938,-0.217,0.233,-8.3,-0.7,0.3,-1,30.8,-15.9,0.262642293,0.510879849,-0.34601886,0.741782891
158,399967,394110,0.938,-0.22,0.233,-8.4,-0.5,0.2,-1.4,31.9,-14.4,0.262733848,0.510818812,-0.346171453,0.741721854
159,402018,394120,0.938,-0.224,0.225,-8.6,-0.3,0.1,-1.4,31.9,-14.4,0.262916959,0.510727256,-0.34644612,0.741569262
160,405337,394120,0.934,-0.22,0.233,-8.8,-0.2,0.1,-1.4,31.9,-14.4,0.263008515,0.510696738,-0.346598712,0.741508225
161,406954,394120,0.934,-0.22,0.233,-8.8,-0.2,0.1,-1.4,31.9,-14.4,0.263008515,0.510696738,-0.346598712,0.741508225
162,410600,394120,0.934,-0.22,0.233,-8.8,-0.2,0.1,-1.4,31.9,-14.4,0.263008515,0.510696738,-0.346598712,0.741508225
163,413086,394130,0.934,-0.224,0.225,-9,0,0,-1.4,30.9,-15,0.263344218,0.510910367,-0.346507157,0.741294595
164,416171,394130,0.938,-0.236,0.222,-9,0.2,-0.1,-1.4,30.9,-15,0.263527329,0.510788293,-0.346812342,0.741142003
165,418906,394130,0.938,-0.236,0.225,-9,0.5,0,-1.4,30.9,-15,0.263649403,0.510727256,-0.346934416,0.741080966
166,419304,394130,0.938,-0.236,0.225,-9,0.5,0,-1.4,30.9,-15,0.263649403,0.510727256,-0.346934416,0.741080966
167,423368,394140,0.938,-0.24,0.214,-9,0.8,-0.1,-1.6,31.1,-15,0.263771477,0.510666219,-0.347087008,0.741019929
168,425701,394140,0.942,-0.24,0.221,-9.2,0.9,-0.3,-1.6,31.1,-15,0.263985107,0.510544145,-0.347361675,0.740897855
169,427889,394140,0.945,-0.248,0.217,-9.3,1.1,-0.5,-1.6,31.1,-15,0.264107181,0.510483108,-0.347514267,0.740836818
170,429577,394140,0.945,-0.248,0.217,-9.3,1.1,-0.5,-1.6,31.1,-15,0.264107181,0.510483108,-0.347514267,0.740836818
171,431901,394150,0.945,-0.252,0.221,-9.4,1.1,-0.4,-1.3,31.7,-14.8,0.264229255,0.510391552,-0.347636341,0.740775781
172,434292,394150,0.945,-0.264,0.218,-9.7,1.4,-0.5,-1.3,31.7,-14.8,0.264473403,0.510269478,-0.347911008,0.740653706
173,437651,394150,0.941,-0.264,0.221,-9.8,1.6,-0.6,-1.3,31.7,-14.8,0.264625996,0.510177923,-0.348063601,0.740592669
174,439976,394150,0.941,-0.264,0.221,-9.8,1.6,-0.6,-1.3,31.7,-14.8,0.264625996,0.510177923,-0.348063601,0.740592669
175,442054,394160,0.945,-0.264,0.221,-10,1.7,-0.7,-1.3,31.7,-15.3,0.26474807,0.510086367,-0.348216193,0.740531632
176,444354,394160,0.945,-0.268,0.229,-10.1,1.8,-0.8,-1.3,31.7,-15.3,0.265022736,0.509933775,-0.34849086,0.740409558
177,447580,394160,0.945,-0.268,0.225,-10.1,1.8,-0.8,-1.3,31.7,-15.3,0.265175329,0.509842219,-0.348643452,0.740348521
178,449641,394160,0.945,-0.268,0.225,-10.1,1.8,-0.8,-1.3,31.7,-15.3,0.265175329,0.509842219,-0.348643452,0.740348521
179,451993,394170,0.945,-0.268,0.229,-10.2,1.8,-0.8,-1.3,30.9,-14.6,0.265297403,0.509750664,-0.348796045,0.740287484
180,454267,394170,0.945,-0.268,0.229,-10.2,1.7,-0.8,-1.3,30.9,-14.6,0.265449995,0.509689627,-0.348948637,0.740226447
181,457068,394170,0.949,-0.264,0.229,-10.5,1.2,-0.8,-1.3,30.9,-14.6,0.265724662,0.509537034,-0.349253822,0.740104373
182,459425,394170,0.949,-0.264,0.229,-10.5,1.2,-0.8,-1.3,30.9,-14.6,0.265724662,0.509537034,-0.349253822,0.740104373
183,461791,394180,0.949,-0.264,0.229,-10.5,1.2,-0.8,-1.3,30.9,-14.6,0.265724662,0.509537034,-0.349253822,0.740104373
184,464330,394180,0.945,-0.26,0.237,-10.9,0.8,-0.4,-1.3,31.4,-14.5,0.265816218,0.509506516,-0.349497971,0.739951781
185,468245,394180,0.942,-0.252,0.237,-10.9,0.8,-0.4,-1.3,31.4,-14.5,0.265938292,0.509445479,-0.349681082,0.739890744
186,469996,394180,0.942,-0.244,0.233,-11,0.3,-0.1,-1.3,31.4,-14.5,0.26618244,0.509292886,-0.350016785,0.739707633
187,472411,394190,0.942,-0.244,0.233,-11,0.3,-0.1,-1.3,31.4,-14.5,0.26618244,0.509292886,-0.350016785,0.739707633
188,474423,394190,0.946,-0.236,0.233,-11,0,0,-1.6,31.3,-14.1,0.266304514,0.509231849,-0.350199896,0.739646596
189,477555,394190,0.945,-0.236,0.229,-10.8,-0.4,0,-1.6,31.3,-14.1,0.266548662,0.509109775,-0.350566118,0.739463485
190,480658,394190,0.942,-0.228,0.233,-10.7,-0.5,0,-1.6,31.3,-14.1,0.266670736,0.509048738,-0.350718711,0.739371929
191,482899,394200,0.942,-0.228,0.233,-10.7,-0.5,0,-1.6,31.3,-14.1,0.266670736,0.509048738,-0.350718711,0.739371929
192,484296,394200,0.942,-0.228,0.233,-10.6,-0.6,-0.1,-2.2,31.4,-14.1,0.26679281,0.50901822,-0.350901822,0.739249855
193,487484,394200,0.946,-0.225,0.229,-10,-0.6,-0.2,-2.2,31.4,-14.1,0.267006439,0.508926664,-0.351237526,0.739097262
194,489465,394200,0.949,-0.225,0.225,-9.6,-0.6,-0.2,-2.2,31.4,-14.1,0.267128513,0.508865627,-0.351390118,0.739036225
195,492297,394210,0.949,-0.225,0.225,-9.6,-0.6,-0.2,-2.2,31.4,-14.1,0.267128513,0.508865627,-0.351390118,0.739036225
196,495457,394210,0.945,-0.225,0.221,-9.2,-0.5,-0.3,-2.2,31.4,-14.1,0.267220069,0.508835108,-0.351542711,0.73894467
197,498374,394210,0.949,-0.225,0.213,-8.7,-0.4,-0.7,-2.2,31.4,-14.1,0.267433699,0.508743553,-0.351817377,0.738792077
198,499957,394210,0.949,-0.225,0.213,-8.5,-0.1,-0.9,-2.2,31.4,-14.1,0.267555773,0.508713034,-0.351939451,0.73873104
199,502700,394220,0.949,-0.225,0.213,-8.5,-0.1,-0.9,-2.2,31.4,-14.1,0.267555773,0.508713034,-0.351939451,0.73873104
200,505664,394220,0.957,-0.229,0.209,-8.4,0,-0.9,-2.5,32.1,-13.9,0.267647328,0.508682516,-0.352031007,0.738639485
201,507003,394220,0.961,-0.233,0.209,-8.3,0.6,-0.9,-2.5,32.1,-13.9,0.267891476,0.508560442,-0.352305673,0.738517411
202,509857,394220,0.961,-0.229,0.213,-8.4,1.2,-0.9,-2.5,32.1,-13.9,0.267983032,0.508499405,-0.352427747,0.738456374
203,512976,394230,0.961,-0.229,0.213,-8.4,1.2,-0.9,-2.5,32.1,-13.9,0.267983032,0.508499405,-0.352427747,0.738456374
204,514367,394230,0.961,-0.229,0.213,-8.4,1.2,-0.9,-2.5,32.1,-13.9,0.267983032,0.508499405,-0.352427747,0.738456374
205,517347,394230,0.969,-0.233,0.209,-9.1,2.2,-0.9,-2.4,31.9,-13.8,0.268257698,0.508774071,-0.352488784,0.738151189
206,520653,394230,0.969,-0.245,0.205,-10.2,2.7,-0.7,-2.4,31.9,-13.8,0.268532365,0.50859096,-0.352763451,0.738059633
207,522711,394240,0.973,-0.249,0.213,-10.7,2.8,-0.6,-2.4,31.9,-13.8,0.268684957,0.508468886,-0.352916044,0.737998596
208,525646,394240,0.973,-0.249,0.213,-10.7,2.8,-0.6,-2.4,31.9,-13.8,0.268684957,0.508468886,-0.352916044,0.737998596
209,526953,394240,0.98,-0.249,0.213,-11.1,2.9,-0.5,-2.8,32.1,-14,0.26883755,0.508377331,-0.353068636,0.737937559
210,529885,394240,0.984,-0.253,0.209,-11.9,3,-0.2,-2.8,32.1,-14,0.269173254,0.508133183,-0.35340434,0.737846004
211,532769,394250,0.984,-0.253,0.217,-12.2,3.1,0,-2.8,32.1,-14,0.269325846,0.508011109,-0.353587451,0.737784967
212,535758,394250,0.984,-0.253,0.217,-12.2,3.1,0,-2.8,32.1,-14,0.269325846,0.508011109,-0.353587451,0.737784967
213,538066,394250,1.004,-0.28,0.22,-12.7,3.7,0.7,-2.3,31.9,-14,0.269631031,0.507736442,-0.353953673,0.737662893
214,540469,394250,1.004,-0.272,0.224,-12.7,4.3,1.8,-2.3,31.9,-14,0.269783624,0.50758385,-0.354167302,0.737632374
215,542589,394260,1.008,-0.272,0.232,-12.3,5.3,3.6,-2.3,31.9,-14,0.269905698,0.507400739,-0.354380932,0.737601856
216,545912,394260,1.008,-0.272,0.232,-12.3,5.3,3.6,-2.3,31.9,-14,0.269905698,0.507400739,-0.354380932,0.737601856
217,548115,394260,0.977,-0.237,0.244,-10.8,7.5,8.5,-0.5,31,-14,0.269997253,0.506912442,-0.354808191,0.737662893
218,550387,394260,0.973,-0.229,0.24,-10.3,8.2,10.7,-0.5,31,-14,0.269997253,0.506637776,-0.355052339,0.737754448
219,552519,394270,0.977,-0.217,0.24,-10.3,8.4,12.1,-0.5,31,-14,0.269997253,0.506363109,-0.355296487,0.737846004
220,555698,394270,0.977,-0.217,0.24,-10.3,8.4,12.1,-0.5,31,-14,0.269997253,0.506363109,-0.355296487,0.737846004
221,557875,394270,0.969,-0.19,0.244,-12.2,7.1,11.7,-2.2,31.7,-14.2,0.269997253,0.505783258,-0.35584582,0.737968078
222,560011,394270,0.969,-0.194,0.24,-13.7,6.1,10.1,-2.2,31.7,-14.2,0.269997253,0.505539109,-0.356151006,0.737998596
223,563035,394280,0.977,-0.186,0.244,-15.2,5.3,8.3,-2.2,31.7,-14.2,0.270119327,0.505294961,-0.356456191,0.737968078
224,565356,394280,0.977,-0.186,0.244,-15.2,5.3,8.3,-2.2,31.7,-14.2,0.270119327,0.505294961,-0.356456191,0.737968078
225,568102,394280,0.977,-0.186,0.244,-15.2,5.3,8.3,-2.2,31.7,-14.2,0.270119327,0.505294961,-0.356456191,0.737968078
226,569448,394280,0.977,-0.198,0.24,-17.2,3,4,-1.9,32,-14.2,0.270607624,0.505081332,-0.356852931,0.737754448
227,572483,394290,0.985,-0.202,0.24,-16.9,2.7,3.7,-1.9,32,-14.2,0.270760216,0.504867702,-0.357158116,0.737662893
228,575436,394290,0.977,-0.198,0.236,-16.3,2.6,3.8,-1.9,32,-14.2,0.27088229,0.504745628,-0.357432783,0.737571337
229,576944,394290,0.977,-0.198,0.236,-16.3,2.6,3.8,-1.9,32,-14.2,0.27088229,0.504745628,-0.357432783,0.737571337
230,579249,394290,0.969,-0.201,0.229,-15.5,3.1,4.2,-1.4,31.9,-14.1,0.271156957,0.504379406,-0.358012635,0.737449263
231,582409,394300,0.961,-0.205,0.229,-15.3,3.4,4.5,-1.4,31.9,-14.1,0.271279031,0.504196295,-0.358287301,0.737388226
232,585454,394300,0.957,-0.205,0.229,-15.3,3.7,4.7,-1.4,31.9,-14.1,0.271401105,0.504013184,-0.358561968,0.737357707
233,587662,394300,0.957,-0.205,0.229,-15.3,3.7,4.7,-1.4,31.9,-14.1,0.271401105,0.504013184,-0.358561968,0.737357707
234,589906,394300,0.949,-0.205,0.213,-15.7,4.5,4.8,-1.2,32.2,-13.8,0.271645253,0.503616443,-0.359111301,0.737266152
235,591976,394310,0.949,-0.205,0.217,-16,4.8,4.7,-1.2,32.2,-13.8,0.271797845,0.503402814,-0.359385968,0.737205115
236,594367,394310,0.945,-0.209,0.21,-16.2,5.2,4.7,-1.2,32.2,-13.8,0.271950438,0.503189184,-0.359691153,0.737174596
237,598266,394310,0.945,-0.209,0.21,-16.2,5.2,4.7,-1.2,32.2,-13.8,0.271950438,0.503189184,-0.359691153,0.737174596
238,600019,394310,0.934,-0.213,0.21,-16.6,5.7,4.9,-0.9,31.6,-13.6,0.272225105,0.502731407,-0.360240486,0.737083041
239,602071,394320,0.934,-0.213,0.21,-16.7,5.8,4.9,-0.9,31.6,-13.6,0.272377697,0.502487259,-0.360545671,0.737052522
240,604374,394320,0.926,-0.213,0.214,-16.7,5.8,4.9,-0.9,31.6,-13.6,0.27253029,0.502273629,-0.360820338,0.737022004
241,606784,394320,0.926,-0.213,0.214,-16.7,5.8,4.9,-0.9,31.6,-13.6,0.27253029,0.502273629,-0.360820338,0.737022004
242,609305,394320,0.922,-0.212,0.218,-17.4,5.6,5.3,-0.9,31.5,-13.9,0.272835475,0.501785333,-0.361430708,0.736930448
243,612551,394330,0.926,-0.217,0.206,-17.5,5.5,5.4,-0.9,31.5,-13.9,0.272988067,0.501571703,-0.361735893,0.73689993
244,614542,394330,0.918,-0.209,0.21,-17.5,5.5,5.4,-0.9,31.5,-13.9,0.27314066,0.501327555,-0.362041078,0.736838893
245,618028,394330,0.918,-0.209,0.21,-17.5,5.5,5.4,-0.9,31.5,-13.9,0.27314066,0.501327555,-0.362041078,0.736838893
246,620148,394330,0.918,-0.209,0.21,-17.5,5.5,5.4,-0.9,31.5,-13.9,0.27314066,0.501327555,-0.362041078,0.736838893
247,622432,394340,0.918,-0.208,0.218,-18.3,5.4,5.9,-1,31.9,-13.4,0.2735374,0.50102237,-0.362590411,0.736625263
248,624613,394340,0.918,-0.208,0.218,-18.6,5.4,6.1,-1,31.9,-13.4,0.273689993,0.500778222,-0.362926115,0.736564226
249,626859,394340,0.922,-0.209,0.214,-18.6,5.4,6.1,-1,31.9,-13.4,0.273842586,0.500534074,-0.363261818,0.736533708
250,630731,394340,0.922,-0.209,0.214,-18.6,5.4,6.1,-1,31.9,-13.4,0.273842586,0.500534074,-0.363261818,0.736533708
251,633129,394350,0.934,-0.213,0.214,-20.3,5.4,6.5,-0.7,32,-13.3,0.274147771,0.500015259,-0.363994263,0.736411634
252,635201,394350,0.934,-0.213,0.214,-20.8,5.4,6.9,-0.7,32,-13.3,0.274300363,0.499740593,-0.364360485,0.736350597
253,637461,394350,0.949,-0.217,0.217,-20.8,5.4,6.9,-0.7,32,-13.3,0.274483474,0.499465926,-0.364757225,0.736259041
254,639250,394350,0.949,-0.217,0.217,-20.8,5.4,6.9,-0.7,32,-13.3,0.274483474,0.499465926,-0.364757225,0.736259041
255,641791,394360,0.949,-0.201,0.229,-20,6.9,11.2,-0.7,32.2,-13.3,0.274697104,0.498855556,-0.365550707,0.736198004
256,645056,394360,0.949,-0.201,0.229,-18.7,8.2,14.2,-0.7,32.2,-13.3,0.274727622,0.498489334,-0.365947447,0.736228523
257,647155,394360,0.938,-0.189,0.237,-18.7,8.2,14.2,-0.7,32.2,-13.3,0.274788659,0.49815363,-0.366374706,0.736259041
258,649436,394360,0.918,-0.154,0.226,-17,10.3,19.3,-1.7,31.9,-13.3,0.274727622,0.497726371,-0.366771447,0.736350597
259,651788,394370,0.915,-0.142,0.23,-17.6,10.5,19.7,-1.7,31.9,-13.3,0.274697104,0.497268593,-0.367229225,0.736442152
260,654403,394370,0.915,-0.142,0.23,-19.4,10.2,18.3,-1.7,31.9,-13.3,0.274697104,0.496841334,-0.367656484,0.736503189
261,657987,394370,0.911,-0.134,0.226,-19.4,10.2,18.3,-1.7,31.9,-13.3,0.274697104,0.496414075,-0.368114261,0.736564226
262,660192,394370,0.911,-0.134,0.226,-19.4,10.2,18.3,-1.7,31.9,-13.3,0.274697104,0.496414075,-0.368114261,0.736564226
263,662129,394380,0.949,-0.166,0.209,-28.2,8,9.2,-0.2,31.9,-12.6,0.275063326,0.495651112,-0.369121372,0.736472671
264,665532,394380,0.95,-0.17,0.217,-30.6,7.3,6.6,-0.2,31.9,-12.6,0.275337992,0.495315409,-0.369609668,0.736320078
265,666986,394380,0.946,-0.174,0.221,-30.6,7.3,6.6,-0.2,31.9,-12.6,0.275612659,0.494949187,-0.370159001,0.736198004
266,669353,394380,0.946,-0.174,0.221,-30.6,7.3,6.6,-0.2,31.9,-12.6,0.275612659,0.494949187,-0.370159001,0.736198004
267,673237,394390,0.946,-0.174,0.221,-30.6,7.3,6.6,-0.2,31.9,-12.6,0.275612659,0.494949187,-0.370159001,0.736198004
268,675519,394390,0.938,-0.189,0.229,-30.5,8.4,4.7,-0.2,32.1,-12.8,0.27661977,0.494613483,-0.37079989,0.735740226
269,677703,394390,0.934,-0.193,0.229,-30.2,8.8,4.8,-0.2,32.1,-12.8,0.276924955,0.494247261,-0.371288186,0.735618152
270,680520,394390,0.93,-0.197,0.229,-30.2,8.8,4.8,-0.2,32.1,-12.8,0.277260659,0.493881039,-0.371776482,0.735496078
271,682767,394400,0.93,-0.197,0.229,-30.2,8.8,4.8,-0.2,32.1,-12.8,0.277260659,0.493881039,-0.371776482,0.735496078
272,685522,394400,0.918,-0.212,0.23,-32.4,10.1,4.5,-0.1,32.5,-12.7,0.277962584,0.493118076,-0.372753075,0.73525193
273,686875,394400,0.914,-0.216,0.226,-32.4,10.1,4.5,-0.1,32.5,-12.7,0.278298288,0.492721335,-0.373271889,0.735099338
274,689958,394400,0.91,-0.216,0.23,-33.6,10.7,4.3,-0.1,32.5,-12.7,0.278695029,0.492294076,-0.373790704,0.734977264
275,692966,394410,0.91,-0.216,0.23,-33.6,10.7,4.3,-0.1,32.5,-12.7,0.278695029,0.492294076,-0.373790704,0.734977264
276,694267,394410,0.899,-0.228,0.226,-36.3,11.8,3.4,-0.1,32.5,-12.7,0.279549547,0.49140904,-0.37488937,0.734702597
277,697482,394410,0.895,-0.231,0.23,-36.3,11.8,3.4,-0.1,32.5,-12.7,0.279976806,0.49098178,-0.375438704,0.734550005
278,700261,394410,0.891,-0.243,0.222,-36.9,11.9,2.9,-0.1,32.5,-12.7,0.280434584,0.490524003,-0.375988037,0.734366894
279,703260,394420,0.891,-0.243,0.222,-36.9,11.9,2.9,-0.1,32.5,-12.7,0.280434584,0.490524003,-0.375988037,0.734366894
280,704589,394420,0.887,-0.259,0.223,-38.3,12.3,2,-1.6,32.4,-12.8,0.281380657,0.489638966,-0.377086703,0.73403119
281,707995,394420,0.887,-0.259,0.223,-38.3,12.3,2,-1.6,32.4,-12.8,0.281838435,0.489181188,-0.377666555,0.733878597
282,709384,394420,0.883,-0.266,0.223,-38.5,12.3,1.7,-1.6,32.4,-12.8,0.282326731,0.488753929,-0.378215888,0.733695486
283,713445,394430,0.883,-0.266,0.223,-38.5,12.3,1.7,-1.6,32.4,-12.8,0.282326731,0.488753929,-0.378215888,0.733695486
284,715514,394430,0.879,-0.274,0.227,-38.5,11.3,0.9,-1.6,32.4,-12.8,0.283303323,0.487868892,-0.379345073,0.733329264
285,716979,394430,0.883,-0.278,0.227,-38.5,11.3,0.9,-1.6,32.4,-12.8,0.28379162,0.487441633,-0.379894406,0.733115635
286,719350,394430,0.879,-0.278,0.227,-38.6,10.9,0.7,-1.6,32.4,-12.8,0.284279916,0.487014374,-0.380443739,0.732932524
287,723330,394440,0.879,-0.278,0.227,-38.6,10.9,0.7,-1.6,32.4,-12.8,0.284279916,0.487014374,-0.380443739,0.732932524
288,725959,394440,0.879,-0.278,0.227,-38.6,10.9,0.7,-1.6,32.4,-12.8,0.284279916,0.487014374,-0.380443739,0.732932524
289,728130,394440,0.879,-0.282,0.231,-38.7,9.7,-0.1,-1.6,32.4,-12.8,0.285287027,0.486251411,-0.381572924,0.732474746
290,730310,394440,0.883,-0.282,0.234,-38.6,9.4,-0.3,-1.6,32.4,-12.8,0.285775323,0.485885189,-0.382122257,0.732230598
291,732634,394450,0.883,-0.282,0.23,-38.6,9.4,-0.3,-1.6,32.4,-12.8,0.286263619,0.485488449,-0.382702109,0.732016968
292,734611,394450,0.883,-0.282,0.23,-38.6,9.4,-0.3,-1.6,32.4,-12.8,0.286263619,0.485488449,-0.382702109,0.732016968
293,736960,394450,0.887,-0.282,0.226,-38.3,8.1,-1,0,32.6,-11.8,0.287240211,0.484756005,-0.383800775,0.731528672
294,740957,394450,0.891,-0.282,0.226,-38.3,8.1,-1,0,32.6,-11.8,0.287728507,0.484389782,-0.384350108,0.731315043
295,743101,394460,0.891,-0.278,0.23,-38.2,7.7,-1.1,0,32.6,-11.8,0.288216803,0.48402356,-0.384899442,0.731040376
296,744689,394460,0.891,-0.278,0.23,-38.2,7.7,-1.1,0,32.6,-11.8,0.288216803,0.48402356,-0.384899442,0.731040376
297,748082,394460,0.898,-0.267,0.226,-38.2,6.9,-1.5,0,32.6,-11.8,0.289193396,0.483352153,-0.385998108,0.73055208
298,750596,394460,0.902,-0.263,0.226,-38.2,6.9,-1.5,0,32.6,-11.8,0.289681692,0.483016449,-0.386547441,0.730277413
299,752844,394470,0.898,-0.267,0.226,-38.3,6.6,-1.9,0,32.6,-11.8,0.290169988,0.482680746,-0.387096774,0.730002747
300,755247,394470,0.898,-0.267,0.226,-38.3,6.6,-1.9,0,32.6,-11.8,0.290169988,0.482680746,-0.387096774,0.730002747
301,757072,394470,0.902,-0.267,0.222,-38.8,6,-2.7,-0.6,32.9,-11.2,0.291177099,0.482039857,-0.388195441,0.729453413
302,759276,394470,0.899,-0.259,0.222,-38.8,6,-2.7,-0.6,32.9,-11.2,0.291695914,0.481734672,-0.388744774,0.729178747
303,763445,394480,0.899,-0.259,0.23,-39,6.1,-3,-0.6,32.9,-11.2,0.29218421,0.481398968,-0.389294107,0.728873562
304,765673,394480,0.899,-0.259,0.23,-39,6.1,-3,-0.6,32.9,-11.2,0.29218421,0.481398968,-0.389294107,0.728873562
305,767536,394480,0.902,-0.267,0.222,-39.7,6,-4.3,-0.4,32.8,-10.9,0.293252358,0.480788598,-0.390392773,0.72829371
306,769463,394480,0.906,-0.263,0.218,-39.7,6,-4.3,-0.4,32.8,-10.9,0.293801691,0.480452895,-0.390942106,0.727988525
307,771832,394490,0.906,-0.263,0.218,-39.9,6,-4.6,-0.4,32.8,-10.9,0.294351024,0.48014771,-0.391460921,0.72768334
308,774419,394490,0.906,-0.263,0.218,-39.9,6,-4.6,-0.4,32.8,-10.9,0.294351024,0.48014771,-0.391460921,0.72768334
309,778081,394490,0.906,-0.263,0.218,-39.9,6,-4.6,-0.4,32.8,-10.9,0.294351024,0.48014771,-0.391460921,0.72768334
310,780214,394490,0.902,-0.271,0.21,-40.6,7.3,-6.4,-0.2,32.9,-10.4,0.295602283,0.479659413,-0.392468032,0.726950896
311,782192,394500,0.906,-0.271,0.21,-40.8,7.6,-6.9,-0.2,32.9,-10.4,0.296212653,0.47932371,-0.392986847,0.726645711
312,784414,394500,0.906,-0.279,0.21,-40.8,7.6,-6.9,-0.2,32.9,-10.4,0.296823023,0.478988006,-0.393505661,0.726310007
313,788409,394500,0.906,-0.279,0.21,-40.8,7.6,-6.9,-0.2,32.9,-10.4,0.296823023,0.478988006,-0.393505661,0.726310007
314,790632,394500,0.91,-0.287,0.203,-41.2,8.3,-8.1,-0.4,33.1,-10,0.298074282,0.478347118,-0.394543291,0.725669118
315,792933,394510,0.91,-0.294,0.203,-41.2,8.3,-8.1,-0.4,33.1,-10,0.298684652,0.478011414,-0.395062105,0.725363933
316,795193,394510,0.914,-0.294,0.202,-41.3,8.3,-8.4,-0.4,33.1,-10,0.299295022,0.477706229,-0.395550401,0.72502823
317,797054,394510,0.914,-0.294,0.202,-41.3,8.3,-8.4,-0.4,33.1,-10,0.299295022,0.477706229,-0.395550401,0.72502823
318,799355,394510,0.937,-0.322,0.198,-41,9.1,-8.9,-0.8,33.3,-11.9,0.300637837,0.477034822,-0.396557512,0.724387341
319,803308,394520,0.929,-0.33,0.194,-41,9.1,-8.9,-0.8,33.3,-11.9,0.301248207,0.476699118,-0.397045808,0.724082156
320,805381,394520,0.945,-0.334,0.194,-40.4,9.6,-8.3,-0.8,33.3,-11.9,0.301919614,0.476332896,-0.397534104,0.723776971
321,807240,394520,0.945,-0.334,0.194,-40.4,9.6,-8.3,-0.8,33.3,-11.9,0.301919614,0.476332896,-0.397534104,0.723776971
322,810239,394520,0.937,-0.318,0.198,-36.6,13.6,-5.8,-0.6,33.5,-9.8,0.303109836,0.475539415,-0.398419141,0.723319193
323,811831,394530,0.918,-0.314,0.195,-35.8,15.5,-6.1,-0.6,33.5,-9.8,0.303720206,0.475081637,-0.398815882,0.723105564
324,814862,394530,0.925,-0.326,0.187,-35.8,15.5,-6.1,-0.6,33.5,-9.8,0.304300058,0.474684896,-0.399212622,0.722922452
325,817884,394530,0.925,-0.326,0.187,-35.8,15.5,-6.1,-0.6,33.5,-9.8,0.304300058,0.474684896,-0.399212622,0.722922452
326,820002,394530,0.906,-0.302,0.195,-36,18.4,-9.8,-0.5,33.9,-9.2,0.305673391,0.47379986,-0.399914548,0.72255623
327,821831,394540,0.894,-0.298,0.187,-36.3,18.1,-11.3,-0.5,33.9,-9.2,0.306375317,0.4733726,-0.400250252,0.722342601
328,825104,394540,0.875,-0.282,0.191,-36.3,18.1,-11.3,-0.5,33.9,-9.2,0.307077242,0.472945341,-0.400585955,0.72215949
329,827387,394540,0.875,-0.282,0.191,-36.3,18.1,-11.3,-0.5,33.9,-9.2,0.307077242,0.472945341,-0.400585955,0.72215949
330,830458,394540,0.875,-0.282,0.191,-36.3,18.1,-11.3,-0.5,33.9,-9.2,0.307077242,0.472945341,-0.400585955,0.72215949
331,831803,394550,0.968,-0.323,0.166,-39.8,13.4,-12.9,-0.9,33.6,-9,0.30774865,0.472701193,-0.401135289,0.721732231
332,834797,394550,0.976,-0.335,0.174,-41.9,8.3,-13.2,-0.9,33.6,-9,0.30918302,0.472060305,-0.402050844,0.721030305
333,837858,394550,0.976,-0.327,0.178,-41.9,8.3,-13.2,-0.9,33.6,-9,0.309884945,0.471755119,-0.402508621,0.720633564
334,839295,394550,0.976,-0.327,0.178,-41.9,8.3,-13.2,-0.9,33.6,-9,0.309884945,0.471755119,-0.402508621,0.720633564
335,842225,394560,0.988,-0.335,0.182,-41,6.8,-13.8,-0.6,34,-8.9,0.310586871,0.471480453,-0.402966399,0.720267342
336,845260,394560,0.996,-0.331,0.185,-40,7.4,-13.6,-0.6,34,-8.9,0.311990722,0.470961638,-0.403851436,0.719504379
337,846781,394560,0.996,-0.331,0.185,-40,7.4,-13.6,-0.6,34,-8.9,0.31266213,0.470686972,-0.404278695,0.719138157
338,849656,394560,0.996,-0.331,0.185,-40,7.4,-13.6,-0.6,34,-8.9,0.31266213,0.470686972,-0.404278695,0.719138157
339,851796,394570,1,-0.331,0.189,-40.2,8,-13.2,-0.9,33.7,-11.7,0.313364055,0.470412305,-0.404736473,0.718771935
340,856065,394570,1.004,-0.327,0.185,-41.1,8.8,-12.7,-0.9,33.7,-11.7,0.314767907,0.469801935,-0.405621509,0.718070009
341,857972,394570,1.007,-0.331,0.189,-41.1,8.8,-12.7,-0.9,33.7,-11.7,0.315469832,0.46949675,-0.406079287,0.717703787
342,860361,394570,1.007,-0.331,0.189,-41.1,8.8,-12.7,-0.9,33.7,-11.7,0.315469832,0.46949675,-0.406079287,0.717703787
343,862368,394580,1.004,-0.32,0.189,-42.4,9.9,-12.5,-1,34,-9.1,0.316171758,0.469161046,-0.406537065,0.717337565
344,865430,394580,1,-0.323,0.193,-43.7,10.9,-12.3,-1,34,-9.1,0.317636647,0.468428602,-0.407513657,0.716605121
345,867535,394580,0.996,-0.323,0.197,-43.7,10.9,-12.3,-1,34,-9.1,0.318399609,0.46806238,-0.408001953,0.716269417
346,869399,394580,0.996,-0.323,0.197,-43.7,10.9,-12.3,-1,34,-9.1,0.318399609,0.46806238,-0.408001953,0.716269417
347,871952,394590,0.996,-0.331,0.193,-45.2,11.5,-12.6,-1,34.1,-9.4,0.319162572,0.467696158,-0.408490249,0.715872677
348,874300,394590,0.992,-0.331,0.197,-46.3,11.8,-13.2,-1,34.1,-9.4,0.320719016,0.466902676,-0.40949736,0.715109714
349,878126,394590,0.984,-0.331,0.197,-46.3,11.8,-13.2,-1,34.1,-9.4,0.321481979,0.466536454,-0.409985656,0.714743492
350,880320,394590,0.984,-0.331,0.197,-46.3,11.8,-13.2,-1,34.1,-9.4,0.321481979,0.466536454,-0.409985656,0.714743492
351,883019,394600,0.984,-0.331,0.197,-46.3,11.8,-13.2,-1,34.1,-9.4,0.321481979,0.466536454,-0.409985656,0.714743492
352,885303,394600,0.972,-0.346,0.205,-46.7,12.3,-14.3,-0.9,33.9,-9.3,0.32227546,0.466231269,-0.410565508,0.714255196
353,887244,394600,0.961,-0.35,0.198,-46.8,12.9,-15.1,-0.9,33.9,-9.3,0.32392346,0.465437788,-0.4115421,0.713461715
354,889434,394600,0.953,-0.35,0.202,-46.9,13.1,-15.4,-0.9,33.9,-9.3,0.324747459,0.465041047,-0.412030396,0.713064974
355,891747,394610,0.953,-0.35,0.202,-46.9,13.1,-15.4,-0.9,33.9,-9.3,0.324747459,0.465041047,-0.412030396,0.713064974
356,894240,394610,0.949,-0.362,0.198,-46.9,13.2,-15.7,-1.2,34.2,-9.7,0.325601978,0.464644307,-0.412518693,0.712668233
357,898745,394610,0.941,-0.365,0.198,-46.9,13.3,-16.1,-1.2,34.2,-9.7,0.327280496,0.463850826,-0.413434248,0.711844234
358,900881,394610,0.937,-0.369,0.194,-46.6,13.3,-16.4,-1.2,34.2,-9.7,0.328135014,0.463454085,-0.413922544,0.711447493
359,902507,394620,0.937,-0.369,0.194,-46.6,13.3,-16.4,-1.2,34.2,-9.7,0.328135014,0.463454085,-0.413922544,0.711447493
360,905737,394620,0.925,-0.373,0.195,-46.2,13.3,-16.6,-1.1,34.4,-9.6,0.328959014,0.463057344,-0.414380322,0.711050752
361,908224,394620,0.917,-0.373,0.187,-45.7,13.4,-16.8,-1.1,34.4,-9.6,0.329813532,0.462691122,-0.414807581,0.710654012
362,910449,394620,0.914,-0.377,0.191,-44.5,13.2,-17,-1.1,34.4,-9.6,0.33149205,0.461928159,-0.415662099,0.70986053
363,912452,394630,0.914,-0.377,0.191,-44.5,13.2,-17,-1.1,34.4,-9.6,0.33149205,0.461928159,-0.415662099,0.70986053
364,914639,394630,0.91,-0.373,0.187,-43.8,13.1,-17,-1.1,34.4,-9.6,0.33231605,0.461561937,-0.41605884,0.70946379
365,916805,394630,0.906,-0.376,0.191,-43.1,13,-17.1,-1.1,34.4,-9.6,0.333140049,0.461195715,-0.416486099,0.709097568
366,920675,394630,0.898,-0.376,0.187,-41.6,12.7,-17.2,-1.1,34.4,-9.6,0.33475753,0.460524308,-0.417249062,0.708334605
367,923022,394640,0.898,-0.376,0.187,-41.6,12.7,-17.2,-1.1,34.4,-9.6,0.33475753,0.460524308,-0.417249062,0.708334605
368,925219,394640,0.898,-0.38,0.179,-40.9,12.5,-17.2,-1.1,34.4,-9.6,0.335551012,0.460188604,-0.417615284,0.707968383
369,926859,394640,0.894,-0.376,0.18,-40.3,12.2,-17.2,-1.1,34.4,-9.6,0.336313974,0.459852901,-0.417981506,0.707571642
370,931001,394640,0.894,-0.376,0.18,-39.2,11.8,-16.8,-1.1,34.4,-9.6,0.3378399,0.459212012,-0.418683432,0.706839198
371,933273,394650,0.894,-0.376,0.18,-39.2,11.8,-16.8,-1.1,34.4,-9.6,0.3378399,0.459212012,-0.418683432,0.706839198
372,935332,394650,0.894,-0.376,0.18,-39.2,11.8,-16.8,-1.1,34.4,-9.6,0.3378399,0.459212012,-0.418683432,0.706839198
373,937853,394650,0.898,-0.38,0.164,-38.1,12,-16.3,-1.1,34.4,-9.6,0.338358715,0.45884579,-0.419293802,0.706472976
374,939495,394650,0.906,-0.388,0.168,-37.6,12.3,-15.7,-1.1,34.4,-9.6,0.339091159,0.458540605,-0.419629505,0.706137272
375,942646,394660,0.979,-0.448,0.143,-36,13.6,-14.1,-1.1,34.4,-9.6,0.340525529,0.457838679,-0.420270394,0.705496384
376,944433,394660,0.979,-0.448,0.143,-36,13.6,-14.1,-1.1,34.4,-9.6,0.340525529,0.457838679,-0.420270394,0.705496384
377,948596,394660,0.956,-0.417,0.163,-34.3,15.1,-13,-1.5,34.8,-7.2,0.341196936,0.457472457,-0.420545061,0.705252235
378,950639,394660,0.898,-0.376,0.164,-31.6,17.7,-12,-1.5,34.8,-7.2,0.341868343,0.457075716,-0.420789209,0.705038606
379,953076,394670,0.859,-0.372,0.153,-25.1,25,-10.5,-1.5,34.8,-7.2,0.343180639,0.456160161,-0.421033357,0.704855495
380,955199,394670,0.859,-0.372,0.153,-25.1,25,-10.5,-1.5,34.8,-7.2,0.343180639,0.456160161,-0.421033357,0.704855495
381,958538,394670,0.824,-0.328,0.157,-23.7,27.3,-9.4,-1.6,34.3,-8.4,0.343791009,0.455641346,-0.421094394,0.704824976
382,960487,394670,0.824,-0.321,0.153,-24.3,27.4,-8.4,-1.6,34.3,-8.4,0.344431898,0.455122532,-0.421185949,0.704824976
383,963162,394680,0.828,-0.317,0.149,-26.6,25.6,-8.3,-1.6,34.3,-8.4,0.345042268,0.454603717,-0.421338542,0.704763939
384,966087,394680,0.851,-0.325,0.141,-29.9,22.4,-9.4,-1.6,34.3,-8.4,0.345713675,0.454115421,-0.421521653,0.704641865
385,968273,394680,0.933,-0.365,0.136,-33.5,18.8,-11.7,-1.3,33.9,-7.9,0.346385083,0.453688162,-0.421796319,0.704428236
386,970113,394680,0.937,-0.366,0.14,-36.6,15.3,-14.5,-1.3,33.9,-7.9,0.347117527,0.45332194,-0.422070986,0.704092532
387,972387,394690,0.929,-0.361,0.151,-38.1,12.9,-17,-1.3,33.9,-7.9,0.34788049,0.452986236,-0.42240669,0.703787347
388,975649,394690,0.921,-0.361,0.152,-37.9,11.7,-18.3,-1.3,33.9,-7.9,0.348643452,0.452681051,-0.422711875,0.703421125
389,978466,394690,0.929,-0.365,0.171,-36.6,11.2,-18.6,-1.5,33.7,-8.4,0.349375896,0.452406384,-0.42301706,0.703024384
390,980244,394690,0.937,-0.365,0.175,-35.2,11.2,-18.4,-1.5,33.7,-8.4,0.350138859,0.452131718,-0.423291726,0.702688681
391,982517,394700,0.933,-0.361,0.179,-34.4,11.1,-18.2,-1.5,33.7,-8.4,0.350840785,0.451857051,-0.423535875,0.702322459
392,984742,394700,0.937,-0.369,0.179,-34.3,11.2,-17.9,-1.5,33.7,-8.4,0.351573229,0.451582385,-0.423810541,0.701986755
393,986857,394700,0.937,-0.369,0.179,-34.3,11.2,-17.9,-1.5,33.7,-8.4,0.351573229,0.451582385,-0.423810541,0.701986755
394,989371,394700,0.933,-0.365,0.183,-36,12.1,-17.6,-1.6,33.4,-7.9,0.352183599,0.451338237,-0.424268319,0.701559496
395,993427,394710,0.933,-0.377,0.183,-37.1,12.8,-17.7,-1.6,33.4,-7.9,0.352946562,0.451002533,-0.424573504,0.701223792
396,995432,394710,0.933,-0.377,0.171,-38.2,13.5,-17.8,-1.6,33.4,-7.9,0.353709525,0.450666829,-0.424878689,0.70085757
397,997506,394710,0.937,-0.385,0.183,-39.2,14.4,-17.9,-1.6,33.4,-7.9,0.354503006,0.450331126,-0.425183874,0.700491348
398,1000992,394710,0.933,-0.389,0.183,-39.9,15.2,-17.9,-1.7,36.1,-6.1,0.355327006,0.449934385,-0.425489059,0.700125126
399,1002838,394720,0.929,-0.404,0.183,-40.5,15.9,-17.9,-1.7,36.1,-6.1,0.356120487,0.449568163,-0.425824763,0.699789422
400,1004260,394720,0.933,-0.408,0.183,-40.7,16.3,-17.9,-1.7,36.1,-6.1,0.356975005,0.449140904,-0.426129948,0.6994232
401,1008019,394720,0.929,-0.416,0.183,-40.9,16.7,-17.9,-1.7,36.1,-6.1,0.357799005,0.448744163,-0.426465651,0.699056978
402,1010406,394720,0.933,-0.428,0.187,-40.8,16.9,-17.7,-1.5,34.4,-7.7,0.358623005,0.448347423,-0.426770837,0.698721274
403,1012584,394730,0.929,-0.439,0.191,-40.6,17.1,-17.7,-1.5,34.4,-7.7,0.359447005,0.447920164,-0.427076022,0.698355052
404,1014580,394730,0.929,-0.443,0.191,-40.3,17.3,-17.6,-1.5,34.4,-7.7,0.360271004,0.447492904,-0.427381207,0.698019349
405,1016955,394730,0.937,-0.455,0.187,-39.9,17.4,-17.7,-1.5,34.4,-7.7,0.361095004,0.447096164,-0.427686392,0.697683645
406,1020968,394730,0.933,-0.471,0.191,-39.6,17.5,-17.7,-1.5,34.4,-7.5,0.361919004,0.446668905,-0.427991577,0.697347942
407,1023177,394740,0.937,-0.482,0.195,-39.3,17.5,-17.7,-1.5,34.4,-7.5,0.362743004,0.446272164,-0.428266243,0.696981719
408,1025311,394740,0.941,-0.479,0.194,-39,17.4,-17.6,-1.5,34.4,-7.5,0.363536485,0.445844905,-0.42854091,0.696676534
409,1027449,394740,0.941,-0.494,0.195,-38.7,17.4,-17.6,-1.5,34.4,-7.5,0.364360485,0.445448164,-0.428815577,0.696340831
410,1029468,394740,0.952,-0.51,0.194,-38.2,17.4,-17.7,-1.3,34.9,-7.4,0.365153966,0.445051424,-0.429090243,0.696005127
411,1033336,394750,0.96,-0.518,0.202,-37.9,17.4,-17.7,-1.3,34.9,-7.4,0.365947447,0.444654683,-0.42936491,0.695669424
412,1035037,394750,0.956,-0.518,0.202,-37.3,17.6,-17.7,-1.3,34.9,-7.4,0.366740928,0.444227424,-0.429609058,0.695364238
413,1037078,394750,0.964,-0.53,0.202,-36.8,18,-17.6,-1.3,34.9,-7.4,0.36753441,0.443830683,-0.429853206,0.695028535
414,1039395,394750,0.964,-0.53,0.202,-36.8,18,-17.6,-1.3,34.9,-7.4,0.36753441,0.443830683,-0.429853206,0.695028535
415,1043080,394760,0.983,-0.557,0.206,-35,19.2,-17.7,-1.7,34.9,-7.2,0.369121372,0.443037202,-0.430280465,0.694448683
416,1044488,394760,0.991,-0.569,0.202,-35,19.2,-17.7,-1.7,34.9,-7.2,0.369914853,0.442609943,-0.430494095,0.694174017
417,1046781,394760,1.003,-0.577,0.201,-34.6,19.4,-18,-1.7,34.9,-7.2,0.370708335,0.442213202,-0.430677206,0.69389935
418,1049918,394760,1.003,-0.577,0.201,-34.6,19.4,-18,-1.7,34.9,-7.2,0.370708335,0.442213202,-0.430677206,0.69389935
419,1052678,394770,1.022,-0.613,0.201,-33.4,20.5,-18.9,-1.7,35.9,-6.1,0.372295297,0.441419721,-0.431012909,0.693350017
420,1055956,394770,1.022,-0.625,0.201,-33.4,20.5,-18.9,-1.7,35.9,-6.1,0.373088778,0.440992462,-0.431165502,0.69307535
421,1058047,394770,1.026,-0.632,0.201,-33,21.2,-18.8,-1.7,35.9,-6.1,0.373912778,0.440595721,-0.431318094,0.692800684
422,1059438,394770,1.026,-0.632,0.201,-33,21.2,-18.8,-1.7,35.9,-6.1,0.373912778,0.440595721,-0.431318094,0.692800684
423,1063384,394780,1.038,-0.68,0.185,-32,23.2,-18.7,-1.8,35.9,-6.3,0.375530259,0.439710685,-0.431531724,0.692342906
424,1064873,394780,1.034,-0.695,0.185,-32,23.2,-18.7,-1.8,35.9,-6.3,0.37632374,0.439283425,-0.431653798,0.692098758
425,1067907,394780,1.034,-0.707,0.178,-31.9,23.7,-18.9,-1.8,35.9,-6.3,0.37714774,0.438856166,-0.431775872,0.691885128
426,1070043,394780,1.034,-0.707,0.178,-31.9,23.7,-18.9,-1.8,35.9,-6.3,0.37714774,0.438856166,-0.431775872,0.691885128
427,1073164,394790,1.014,-0.754,0.174,-30.4,25.3,-19.5,-2.5,35.7,-5.4,0.37879574,0.437940611,-0.431897946,0.691457869
428,1075522,394790,0.99,-0.765,0.175,-30.4,25.3,-19.5,-2.5,35.7,-5.4,0.379619739,0.437482833,-0.431958983,0.69124424
429,1076942,394790,0.983,-0.78,0.179,-29.5,25.9,-19.6,-2.5,35.7,-5.4,0.380443739,0.437055574,-0.43202002,0.691061129
430,1080227,394790,0.983,-0.78,0.179,-29.5,25.9,-19.6,-2.5,35.7,-5.4,0.380443739,0.437055574,-0.43202002,0.691061129
431,1083306,394800,0.959,-0.815,0.171,-28.2,27.3,-19.8,-2.1,35.9,-5.7,0.381267739,0.436597797,-0.43202002,0.690878018
432,1085590,394800,0.935,-0.85,0.184,-27.9,28.3,-20.6,-2.1,35.9,-5.7,0.382946257,0.435651723,-0.43202002,0.690542314
433,1087814,394800,0.908,-0.865,0.184,-27.9,28.3,-20.6,-2.1,35.9,-5.7,0.383800775,0.435193945,-0.431989502,0.690389721
434,1089791,394800,0.908,-0.865,0.184,-27.9,28.3,-20.6,-2.1,35.9,-5.7,0.383800775,0.435193945,-0.431989502,0.690389721
435,1092666,394810,0.857,-0.923,0.189,-26.6,29.8,-21.5,-2.1,36,-6,0.384655293,0.434705649,-0.431958983,0.690237129
436,1094926,394810,0.841,-0.942,0.197,-26.6,29.8,-21.5,-2.1,36,-6,0.385509812,0.434247871,-0.431897946,0.690084536
437,1097748,394810,0.818,-0.957,0.194,-25.8,30.4,-21.8,-2.1,36,-6,0.38636433,0.433790094,-0.431806391,0.689931944
438,1099235,394810,0.802,-0.984,0.194,-24.9,30.9,-22.2,-2.1,36,-6,0.387249367,0.433301798,-0.431714835,0.68980987
439,1102292,394820,0.802,-0.984,0.194,-24.9,30.9,-22.2,-2.1,36,-6,0.387249367,0.433301798,-0.431714835,0.68980987
440,1105365,394820,0.72,-1.057,0.215,-20.7,32,-23.8,-2.1,34.9,-5.4,0.388958403,0.432416761,-0.431379131,0.689626759
441,1108086,394820,0.708,-1.076,0.22,-20.7,32,-23.8,-2.1,34.9,-5.4,0.389812922,0.431989502,-0.43119602,0.689504685
442,1109501,394820,0.708,-1.076,0.22,-18.5,32,-24.7,-2.1,34.9,-5.4,0.39066744,0.431592761,-0.430982391,0.689443648
443,1112522,394830,0.708,-1.076,0.22,-18.5,32,-24.7,-2.1,34.9,-5.4,0.39066744,0.431592761,-0.430982391,0.689443648
444,1115328,394830,0.689,-1.154,0.216,-14.2,31.1,-26.2,-2.8,36,-5.5,0.39149144,0.431257057,-0.430677206,0.689382611
445,1116760,394830,0.681,-1.189,0.216,-8.7,29.3,-26.6,-2.8,36,-5.5,0.393017365,0.430677206,-0.42997528,0.689291055
446,1119565,394830,0.688,-1.221,0.22,-8.7,29.3,-26.6,-2.8,36,-5.5,0.393780328,0.430402539,-0.429609058,0.689260537
447,1122869,394840,0.688,-1.221,0.22,-8.7,29.3,-26.6,-2.8,36,-5.5,0.393780328,0.430402539,-0.429609058,0.689260537
448,1125039,394840,0.708,-1.268,0.22,-1.2,26.8,-27,-3.3,35.7,-5.4,0.394451735,0.430249947,-0.42915128,0.689260537
449,1128042,394840,0.751,-1.315,0.235,6.9,23.8,-27.6,-3.3,35.7,-5.4,0.395641957,0.430097354,-0.428052614,0.689321574
450,1129367,394840,0.747,-1.331,0.235,6.9,23.8,-27.6,-3.3,35.7,-5.4,0.396221809,0.430066836,-0.427472762,0.689382611
451,1132516,394850,0.747,-1.331,0.235,6.9,23.8,-27.6,-3.3,35.7,-5.4,0.396221809,0.430066836,-0.427472762,0.689382611
452,1135401,394850,0.731,-1.378,0.227,15.2,22.4,-29.5,-3.9,35.8,-5.5,0.396740623,0.430127873,-0.426770837,0.689474166
453,1136837,394850,0.75,-1.409,0.215,19.4,22,-29.6,-3.9,35.8,-5.5,0.397198401,0.430249947,-0.426007874,0.689626759
454,1139943,394850,0.84,-1.501,0.194,30.1,19,-23.6,-3.9,35.8,-5.5,0.39783929,0.43058565,-0.424359874,0.690054018
455,1142006,394860,0.84,-1.501,0.194,30.1,19,-23.6,-3.9,35.8,-5.5,0.39783929,0.43058565,-0.424359874,0.690054018
456,1145044,394860,0.84,-1.501,0.194,30.1,19,-23.6,-3.9,35.8,-5.5,0.39783929,0.43058565,-0.424359874,0.690054018
457,1147938,394860,0.902,-1.572,0.17,54.9,11.1,-8.7,-4.4,35.3,-5.7,0.397442549,0.431287576,-0.422437208,0.69103061
458,1149522,394860,0.917,-1.584,0.158,54.9,11.1,-8.7,-4.4,35.3,-5.7,0.397167882,0.431684317,-0.421430097,0.691549425
459,1153075,394870,0.933,-1.6,0.146,64.3,9.8,-4.9,-4.4,35.3,-5.7,0.396710105,0.432111576,-0.420331431,0.692190313
460,1154566,394870,0.933,-1.6,0.146,64.3,9.8,-4.9,-4.4,35.3,-5.7,0.396710105,0.432111576,-0.420331431,0.692190313
461,1157539,394870,0.948,-1.624,0.13,82.9,9.6,1.5,-4,35.5,-6,0.396008179,0.432691427,-0.418988617,0.693044832
462,1160720,394870,0.917,-1.643,0.111,99.9,11,7.7,-4,35.5,-6,0.394207587,0.433912168,-0.416028321,0.69512009
463,1161979,394880,0.901,-1.643,0.107,99.9,11,7.7,-4,35.5,-6,0.393230995,0.434553056,-0.414502396,0.696188238
464,1164960,394880,0.901,-1.643,0.107,99.9,11,7.7,-4,35.5,-6,0.393230995,0.434553056,-0.414502396,0.696188238
465,1168013,394880,0.866,-1.635,0.096,114.6,13.3,14,-3.7,35.3,-7.1,0.392040773,0.435193945,-0.412762841,0.697470016
466,1169333,394880,0.85,-1.626,0.1,121.1,14.4,17.3,-3.7,35.3,-7.1,0.390758995,0.435865352,-0.410962249,0.698843348
467,1172514,394890,0.85,-1.627,0.065,132.7,15.5,24.6,-3.7,35.3,-7.1,0.387859737,0.437177648,-0.407177953,0.701834162
468,1175415,394890,0.85,-1.627,0.065,132.7,15.5,24.6,-3.7,35.3,-7.1,0.387859737,0.437177648,-0.407177953,0.701834162
469,1176946,394890,0.827,-1.607,0.05,138.5,16,29,-3.9,35.3,-7.7,0.386242256,0.437849055,-0.40519425,0.703482162
470,1180726,394890,0.846,-1.595,0.046,144.9,17.3,33.6,-3.9,35.3,-7.7,0.384502701,0.438520463,-0.403118992,0.705191198
471,1182353,394900,0.784,-1.563,0.039,152,20,36.9,-3.9,35.3,-7.7,0.382641072,0.439161351,-0.400982696,0.707022309
472,1185185,394900,0.733,-1.543,0.04,159.4,24.4,37.5,-3.9,35.3,-7.7,0.380748924,0.439771722,-0.398663289,0.708975494
473,1188070,394900,0.721,-1.586,0.013,166.5,30,35.8,-2.9,34.7,-8.4,0.378856777,0.440382092,-0.39619129,0.710989715
474,1189435,394900,0.663,-1.577,-0.001,173.5,35.8,33.1,-2.9,34.7,-8.4,0.376995148,0.440961943,-0.393505661,0.713126011
475,1193350,394910,0.616,-1.561,-0.012,180.9,40.6,30.6,-2.9,34.7,-8.4,0.375103,0.441541795,-0.39066744,0.715292825
476,1194834,394910,0.514,-1.512,-0.01,189.2,42.3,28.7,-2.9,34.7,-8.4,0.373180334,0.442182684,-0.387615589,0.717551195
477,1198047,394910,0.514,-1.512,-0.01,189.2,42.3,28.7,-2.9,34.7,-8.4,0.373180334,0.442182684,-0.387615589,0.717551195
478,1200069,394910,0.436,-1.562,-0.036,205.5,30.9,29.9,-2.9,34.7,-8.4,0.37101352,0.443128758,-0.384441664,0.719840083
479,1203079,394920,0.447,-1.597,-0.063,211.6,18,34.6,-2.9,34.7,-8.4,0.36854152,0.444257942,-0.381298257,0.722037416
480,1204438,394920,0.596,-1.549,-0.094,223,-10,49.6,-2.9,34.7,-8.4,0.362773522,0.447126682,-0.375286111,0.726340526
481,1207507,394920,0.596,-1.549,-0.094,223,-10,49.6,-2.9,34.7,-8.4,0.362773522,0.447126682,-0.375286111,0.726340526
482,1210705,394920,0.619,-1.51,-0.09,230.1,-19.6,56.7,-2.2,33,-10.3,0.359477523,0.448774682,-0.372356334,0.728476821
483,1212704,394930,0.666,-1.449,-0.123,237.5,-25.3,62,-2.2,33,-10.3,0.355937376,0.450544755,-0.36936552,0.730643635
484,1215524,394930,0.674,-1.425,-0.135,244.2,-27.5,66,-2.2,33,-10.3,0.352275155,0.452345347,-0.366344188,0.732840968
485,1217257,394930,0.682,-1.402,-0.143,249.9,-27.5,69.4,-2.2,33,-10.3,0.348460341,0.45414594,-0.3632313,0.735068819
486,1220035,394930,0.705,-1.34,-0.167,255,-26.2,72.9,-2,32.2,-11.8,0.344553972,0.455916013,-0.360057375,0.737388226
487,1223054,394940,0.725,-1.337,-0.187,259.7,-24.2,76.4,-2,32.2,-11.8,0.340525529,0.45762505,-0.356822413,0.739738151
488,1224406,394940,0.733,-1.325,-0.206,264.6,-22,79.9,-2,32.2,-11.8,0.33640553,0.459334086,-0.353495895,0.742149113
489,1227660,394940,0.752,-1.31,-0.23,270,-19.9,83.2,-2,32.2,-11.8,0.332224494,0.460982086,-0.350077822,0.744651631
490,1230420,394940,0.775,-1.264,-0.278,276.6,-18.1,86.9,-0.8,32.1,-12.9,0.327890866,0.462599567,-0.346598712,0.747184668
491,1233521,394950,0.799,-1.237,-0.302,284.4,-16.5,91.7,-0.8,32.1,-12.9,0.323374126,0.464217048,-0.342997528,0.749809259
492,1234856,394950,0.818,-1.214,-0.322,293,-15.3,97.7,-0.8,32.1,-12.9,0.318674276,0.46580401,-0.339304788,0.752525407
493,1237783,394950,0.826,-1.191,-0.337,301.7,-14.2,104.7,-0.8,32.1,-12.9,0.313791314,0.467329936,-0.335520493,0.75533311
494,1240806,394950,0.814,-1.073,-0.373,309.9,-13.1,112.4,-0.3,31.2,-14,0.308664205,0.468825343,-0.331614124,0.758201849
495,1242114,394960,0.818,-1.058,-0.388,317.6,-12,120.5,-0.3,31.2,-14,0.303323466,0.470290231,-0.327677236,0.761162145
496,1245233,394960,0.818,-1.058,-0.388,324.3,-11.2,128.4,-0.3,31.2,-14,0.297769097,0.471694082,-0.323679312,0.764213996
497,1248111,394960,0.81,-1.046,-0.408,329.6,-11,135.1,-0.3,31.2,-14,0.292062136,0.473036897,-0.31962035,0.767265847
498,1249613,394960,0.81,-1.046,-0.408,329.6,-11,135.1,-0.3,31.2,-14,0.292062136,0.473036897,-0.31962035,0.767265847
499,1253147,394970,0.9,-0.997,-0.457,337.3,-12.6,145.5,-0.6,30.2,-15.6,0.286049989,0.474379711,-0.315561388,0.770409253
500,1255000,394970,0.924,-0.978,-0.465,341.6,-14,151,-0.6,30.2,-15.6,0.279854732,0.475692007,-0.311441389,0.773522141
501,1257928,394970,0.943,-0.916,-0.442,346.8,-15.3,158.6,-0.6,30.2,-15.6,0.273476363,0.476973785,-0.30732139,0.776665548
502,1259560,394970,0.921,-0.751,-0.383,352.3,-16.2,168.9,-0.6,30.2,-15.6,0.266823328,0.478194525,-0.303201392,0.779839473
503,1262995,394980,0.944,-0.744,-0.407,356.1,-16.8,180.4,0.9,29,-16.8,0.259895627,0.479354228,-0.299111911,0.783043916
504,1265019,394980,0.999,-0.702,-0.424,356.7,-17.5,190.7,0.9,29,-16.8,0.252784814,0.480422376,-0.295113987,0.786217841
505,1267020,394980,1.121,-0.551,-0.36,354.6,-18.3,198.8,0.9,29,-16.8,0.238258003,0.482314524,-0.28727073,0.792474136
506,1269241,394980,1.121,-0.551,-0.36,354.6,-18.3,198.8,0.9,29,-16.8,0.238258003,0.482314524,-0.28727073,0.792474136
507,1273182,394990,1.152,-0.524,-0.372,348.5,-21.8,213.7,1.8,27.7,-17.7,0.23075045,0.483138524,-0.28357799,0.795525987
508,1275204,394990,1.187,-0.489,-0.353,345.8,-24.6,222.4,1.8,27.7,-17.7,0.223090304,0.483932005,-0.280037843,0.798486282
509,1278379,394990,1.273,-0.573,-0.394,343.1,-27.6,231,1.8,27.7,-17.7,0.215247047,0.48463393,-0.27661977,0.80138554
510,1280359,394990,1.273,-0.471,-0.343,342.5,-30.3,239,1.8,27.7,-17.7,0.207251198,0.485305338,-0.273293252,0.804223762
511,1283485,395000,1.289,-0.409,-0.332,345.8,-32.7,246.1,2.3,26.4,-19,0.199072237,0.485976745,-0.269966735,0.807000946
512,1285871,395000,1.402,-0.423,-0.365,353.2,-34.4,252.2,2.3,26.4,-19,0.190649129,0.486587115,-0.26657918,0.80977813
513,1287702,395000,1.469,-0.361,-0.355,363.4,-34.8,257.5,2.3,26.4,-19,0.182073428,0.487197485,-0.263008515,0.812555315
514,1289248,395000,1.535,-0.296,-0.384,375.5,-34,263.8,2.3,26.4,-19,0.173192541,0.487777337,-0.259285257,0.815363018
515,1292481,395010,1.754,-0.222,-0.47,389,-31.7,272.7,3,24.9,-20.3,0.16400647,0.488235115,-0.255378887,0.818201239
516,1294293,395010,1.895,-0.17,-0.504,403.1,-27.3,282.8,3,24.9,-20.3,0.154515213,0.488570818,-0.251258889,0.821131016
517,1297376,395010,2.089,-0.158,-0.566,416.1,-20.1,289.7,3,24.9,-20.3,0.14474929,0.488692892,-0.246955779,0.82412183
518,1300746,395010,2.148,-0.085,-0.619,427,-8.9,289.5,3,24.9,-20.3,0.134952849,0.488631855,-0.242378002,0.827204199
519,1302962,395020,2.148,-0.085,-0.619,427,-8.9,289.5,3,24.9,-20.3,0.134952849,0.488631855,-0.242378002,0.827204199
520,1305016,395020,2.269,0.192,-0.864,443.1,26.4,267.7,2.6,22.9,-21.8,0.116061892,0.487319559,-0.231879635,0.833796197
521,1307879,395020,2.26,0.141,-0.927,448.5,48.8,251.9,2.6,22.9,-21.8,0.106967376,0.486251411,-0.226264229,0.837183752
522,1309545,395020,2.096,0.089,-1.002,451.2,71.5,236.7,2.6,22.9,-21.8,0.0982085635,0.484817042,-0.220343638,0.840662862
523,1313201,395030,2.096,0.089,-1.002,451.2,71.5,236.7,2.6,22.9,-21.8,0.0982085635,0.484817042,-0.220343638,0.840662862
524,1315618,395030,1.807,0.285,-0.997,452.6,111.8,208.3,5.3,21.1,-22.7,0.0820337535,0.480513932,-0.20761742,0.84807886
525,1317526,395030,1.804,0.391,-0.958,454.6,127.6,195.1,5.3,21.1,-22.7,0.074221015,0.478072451,-0.200994903,0.851771599
526,1320526,395030,1.761,0.447,-0.914,457.5,140.2,184.6,5.3,21.1,-22.7,0.0666219062,0.475356304,-0.194189276,0.855464339
527,1322233,395040,1.761,0.447,-0.914,457.5,140.2,184.6,5.3,21.1,-22.7,0.0666219062,0.475356304,-0.194189276,0.855464339
528,1325495,395040,1.587,0.587,-0.758,460.7,158.7,179.8,6.4,18.7,-23.1,0.0591753899,0.472273934,-0.187200537,0.859279153
529,1327882,395040,1.49,0.652,-0.651,459.1,166.2,189.1,6.4,18.7,-23.1,0.0440687277,0.465742973,-0.173284097,0.866634114
530,1330212,395040,1.51,0.694,-0.698,453.6,172.1,206.9,6.4,18.7,-23.1,0.0361644337,0.46211127,-0.166631062,0.870235298
531,1331739,395050,1.51,0.694,-0.698,453.6,172.1,206.9,6.4,18.7,-23.1,0.0361644337,0.46211127,-0.166631062,0.870235298
532,1335251,395050,1.796,1.092,-0.708,427.3,173.7,255,7.3,16.3,-23.9,0.0276802881,0.458174383,-0.160954619,0.873683889
533,1336781,395050,1.82,1.459,-0.721,407.5,169.3,277.4,7.3,16.3,-23.9,0.0103762932,0.450178533,-0.150120548,0.880153813
534,1339725,395050,1.825,1.607,-0.733,382,163.1,295.6,7.3,16.3,-23.9,0.00149540696,0.446119572,-0.145634327,0.883022553
535,1342839,395060,1.825,1.607,-0.733,382,163.1,295.6,7.3,16.3,-23.9,0.00149540696,0.446119572,-0.145634327,0.883022553
536,1345973,395060,1.61,1.751,-0.761,302.2,155,319.1,7.9,14.2,-23.9,0.0070802942,-0.442121647,0.14291818,-0.885464034
537,1347958,395060,1.28,1.458,-0.308,245.2,160.3,327.2,7.9,14.2,-23.9,0.0238654744,-0.433820612,0.138584552,-0.889919736
538,1349529,395060,1.145,1.232,0.156,177.6,177.5,338.2,7.9,14.2,-23.9,0.0315866573,-0.429242836,0.138431959,-0.891933958
539,1352265,395070,1.145,1.232,0.156,177.6,177.5,338.2,7.9,14.2,-23.9,0.0315866573,-0.429242836,0.138431959,-0.891933958
540,1354414,395070,0.503,-0.191,0.692,24.9,235.7,377.9,8.5,12.9,-23.9,0.0384533219,-0.423474837,0.141636402,-0.893917661
541,1356994,395070,0.317,-0.778,0.653,-46.6,256.9,402.1,8.5,12.9,-23.9,0.0450758385,-0.417249062,0.146458327,-0.895748772
542,1360072,395070,0.196,-1.042,0.683,-99.3,261.1,420.8,8.5,12.9,-23.9,0.0515457625,-0.410870693,0.152500992,-0.897335734
543,1363275,395080,0.046,-1.477,0.734,-120.4,244.9,428.3,8.5,12.9,-23.9,0.058046205,-0.404766991,0.158970916,-0.898586993
544,1365194,395080,0.366,-1.533,0.63,-106.5,208.8,423.7,10.2,12.6,-23.5,0.0646687216,-0.399304178,0.165044099,-0.899502548
545,1366702,395080,0.683,-1.386,0.667,-69.7,157.8,413.9,10.2,12.6,-23.5,0.0716269417,-0.394817957,0.170232246,-0.899990844
546,1370134,395080,0.744,-1.521,0.549,-31.4,102.3,410.7,10.2,12.6,-23.5,0.0790429395,-0.391308329,0.174535356,-0.9000824
547,1371893,395090,0.653,-1.528,0.335,-5.5,54.9,422.5,10.2,12.6,-23.5,0.0870693075,-0.388592181,0.178350169,-0.899746696
548,1375097,395090,1.075,-1.243,0.139,8.2,23.8,446.4,11.2,11.9,-22.8,0.0957976012,-0.38636433,0.182012391,-0.899105808
549,1378228,395090,1.849,-0.516,1.317,20.7,8.5,471.5,11.2,11.9,-22.8,0.105197302,-0.384258553,0.185583056,-0.898220771
550,1380123,395090,2.967,0.38,3.076,38.3,5.8,488.8,11.2,11.9,-22.8,0.115054781,-0.38206122,0.188940092,-0.897244179
551,1381961,395100,5.143,1.679,3.816,61.5,13.3,494.4,11.2,11.9,-22.8,0.125186926,-0.379589221,0.191869869,-0.896328623
552,1385318,395100,5.143,1.679,3.816,61.5,13.3,494.4,11.2,11.9,-22.8,0.125186926,-0.379589221,0.191869869,-0.896328623
553,1387075,395100,7.985,6.392,-5.939,173,-32.3,418.3,11.7,11,-22.8,0.144993439,-0.37531663,0.193914609,-0.894680624
554,1390708,395100,7.087,7.721,-7.428,320.6,-169.2,299.9,11.7,11,-22.8,0.15417951,-0.37632374,0.189550462,-0.893642994
555,1392074,395110,4.361,7.853,-8.09,531.5,-363.5,137.1,11.7,11,-22.8,0.162694174,-0.381023591,0.179082614,-0.892330699
556,1396434,395110,4.361,7.853,-8.09,531.5,-363.5,137.1,11.7,11,-22.8,0.162694174,-0.381023591,0.179082614,-0.892330699
557,1398310,395110,1.922,7.91,-5.022,864.4,-506.7,-164.8,11.3,8.9,-23,0.168614765,-0.388378552,0.159031953,-0.891842402
558,1401050,395110,-0.647,7.974,-0.981,868.1,-318.6,-256.6,11.3,8.9,-23,0.177892392,-0.399090548,0.118594928,-0.891598254
559,1402964,395120,-2.354,8.006,-0.319,738.9,13.2,-293,11.3,8.9,-23,0.178563799,-0.396679586,0.101657155,-0.894650105
560,1405122,395120,-2.354,8.006,-0.319,738.9,13.2,-293,11.3,8.9,-23,0.178563799,-0.396679586,0.101657155,-0.894650105
561,1407168,395120,-3.509,2.892,0.671,58.7,678.1,-190.2,12.2,7.1,-21.8,0.17383343,-0.383587146,0.101535081,-0.901272622
562,1411023,395120,-2.93,2.034,0.63,-419.8,757.9,-112,12.2,7.1,-21.8,0.166386914,-0.370464187,0.111697745,-0.906949065
563,1413466,395130,-2.361,1.345,0.742,-840.1,614.4,-79.3,12.2,7.1,-21.8,0.156468398,-0.361430708,0.129886776,-0.90990936
564,1415877,395130,-1.675,1.041,0.82,-1083.3,334.7,-114.3,12.2,7.1,-21.8,0.144688253,-0.35871456,0.151585437,-0.909604175
565,1418039,395130,-1.675,1.041,0.82,-1083.3,334.7,-114.3,12.2,7.1,-21.8,0.144688253,-0.35871456,0.151585437,-0.909604175
566,1420408,395130,-0.349,0.284,0.816,-1114,42.1,-203.3,12.1,11.6,-21.2,0.131748405,-0.361949522,0.17218543,-0.906613361
567,1422179,395140,1.91,0.096,1.428,-815.5,-300.4,-383.1,12.1,11.6,-21.2,0.105563524,-0.378887295,0.200994903,-0.897122105
568,1424447,395140,1.91,0.096,1.428,-669.3,-339.7,-411.2,12.1,11.6,-21.2,0.0934781945,-0.388836329,0.20987579,-0.892178106
569,1426819,395140,1.91,0.096,1.428,-669.3,-339.7,-411.2,12.1,11.6,-21.2,0.0934781945,-0.388836329,0.20987579,-0.892178106
570,1430771,395140,3.528,-0.206,1.735,-613.3,-256.6,-333.1,10.6,15.1,-20.9,0.0829493088,-0.396557512,0.218420972,-0.887752922
571,1433718,395150,4.428,-1.648,0.742,-613.3,-256.6,-333.1,10.6,15.1,-20.9,0.072420423,-0.404156621,0.226935636,-0.883114109
572,1435808,395150,4.67,-4.23,-0.56,-809,-90.5,-109.2,10.6,15.1,-20.9,0.0536210211,-0.413037507,0.252265999,-0.873409223
573,1437686,395150,4.67,-4.23,-0.56,-809,-90.5,-109.2,10.6,15.1,-20.9,0.0536210211,-0.413037507,0.252265999,-0.873409223
574,1439866,395150,4.562,-7.476,-1.257,-939.7,-48.1,220.8,10.7,18.5,-19.5,0.0495925779,-0.413739433,0.272072512,-0.867336039
575,1441922,395160,3.642,-8.101,-1.27,-899.2,-93.7,369.1,10.7,18.5,-19.5,0.0490432447,-0.414197211,0.292245247,-0.86056093
576,1444438,395160,2.37,-8.078,-1.043,-899.2,-93.7,369.1,10.7,18.5,-19.5,0.0484328745,-0.414471877,0.312295907,-0.85338908
577,1447081,395160,0.966,-7.908,-0.719,-795.7,-155,472.2,10.7,18.5,-19.5,0.0510574664,-0.414899136,0.331156346,-0.845881527
578,1449592,395160,-0.404,-4.79,0.169,-482.2,-181.4,453.7,11.2,19.6,-21.9,0.056367687,-0.415448469,0.343913083,-0.840174566
579,1451855,395170,-0.899,-3.647,0.403,-301.5,-113.8,334.2,11.2,19.6,-21.9,0.0606402783,-0.415387432,0.352305673,-0.836420789
580,1454275,395170,-1.085,-3.113,0.339,-130.2,-21,195,11.2,19.6,-21.9,0.0631733146,-0.414441359,0.356425672,-0.834955901
581,1458394,395170,-1.424,-2.657,0.348,12.2,57,83.9,11.2,19.6,-21.9,0.0643635365,-0.412732322,0.357036042,-0.835444197
582,1461018,395170,-1.424,-2.657,0.348,12.2,57,83.9,11.2,19.6,-21.9,0.0643635365,-0.412732322,0.357036042,-0.835444197
583,1463786,395180,-0.894,-2.103,0.525,191.8,76.2,-2.3,12,19.2,-19.5,0.0654622028,-0.411084323,0.353617969,-0.83764153
584,1466134,395180,-0.595,-1.776,0.551,191.8,76.2,-2.3,12,19.2,-19.5,0.0664998321,-0.409436323,0.350199896,-0.839777825
585,1468366,395180,-0.157,-1.302,0.553,242.3,28.8,-1.9,12,19.2,-19.5,0.0684530168,-0.408551286,0.345774712,-0.841883602
586,1470551,395180,0.658,-1.001,0.31,273.9,-25,7.8,12,19.2,-19.5,0.0712302011,-0.408551286,0.340769677,-0.843714713
587,1472767,395190,0.982,-1.042,0.203,267.6,-74,44.1,11.2,18.5,-20.5,0.0749534593,-0.409161657,0.336130863,-0.844935453
588,1475208,395190,1.453,-1.024,-0.005,232.7,-59.4,71.1,11.2,18.5,-20.5,0.0787987915,-0.409344768,0.332377087,-0.846003601
589,1477036,395190,1.578,-0.932,-0.062,196.4,-28.3,99.8,11.2,18.5,-20.5,0.0825830866,-0.408795434,0.329569384,-0.846980193
590,1479300,395190,1.614,-0.808,-0.055,196.4,-28.3,99.8,11.2,18.5,-20.5,0.0863979003,-0.408246101,0.326792199,-0.847956786
591,1481744,395200,1.553,-0.606,0.183,170.8,37.1,154.1,11.7,17.4,-20.7,0.0904873806,-0.406140324,0.325052644,-0.849208045
592,1484281,395200,1.617,-0.388,0.28,183.4,53.5,178.3,11.7,17.4,-20.7,0.0950346385,-0.403515732,0.323343608,-0.850611896
593,1488755,395200,1.668,-0.393,0.29,207.3,53.2,197.3,11.7,17.4,-20.7,0.100161748,-0.400677511,0.321329386,-0.852107303
594,1490859,395200,1.789,-0.348,0.339,207.3,53.2,197.3,11.7,17.4,-20.7,0.105258339,-0.39783929,0.319315165,-0.85360271
595,1493091,395210,1.87,0.342,0.348,280.8,16.2,221.3,11.8,15.8,-22.6,0.111697745,-0.395336772,0.316049684,-0.855159154
596,1495327,395210,1.82,0.71,0.344,331.8,0.2,235.8,11.8,15.8,-22.6,0.11896115,-0.392895291,0.311868648,-0.856837672
597,1497715,395210,1.805,0.972,0.313,385.8,-3.4,251.8,11.8,15.8,-22.6,0.126987518,-0.390209662,0.306802576,-0.85872982
598,1499607,395210,1.817,0.987,0.297,385.8,-3.4,251.8,11.8,15.8,-22.6,0.134983367,-0.387524033,0.301675466,-0.86056093
599,1502015,395220,1.663,1.487,0.471,464.6,8.6,251.4,12.2,13.5,-22.4,0.143589587,-0.384289071,0.295083468,-0.862880337
600,1504468,395220,1.411,1.785,0.608,482.3,11.1,224.8,12.2,13.5,-22.4,0.151799066,-0.381115146,0.287911618,-0.865321818
601,1508374,395220,1.19,2.035,0.729,480.3,8.1,183.5,12.2,13.5,-22.4,0.159184545,-0.378185369,0.280373547,-0.86773278
602,1510291,395220,0.972,2.122,0.812,480.3,8.1,183.5,12.2,13.5,-22.4,0.166570025,-0.375225074,0.272804956,-0.870052187
603,1512608,395230,0.972,2.122,0.812,480.3,8.1,183.5,12.2,13.5,-22.4,0.166570025,-0.375225074,0.272804956,-0.870052187
604,1514507,395230,0.452,1.912,0.822,374.9,-14.4,81.9,12.5,11.7,-22.6,0.171269875,-0.373638112,0.266304514,-0.87182226
605,1516836,395230,0.069,1.034,0.564,144.4,-40.2,6.6,12.5,11.7,-22.6,0.17587817,-0.373149815,0.258522294,-0.87347026
606,1520786,395230,0.067,0.666,0.498,25.6,-44.2,-5.2,12.5,11.7,-22.6,0.176213874,-0.373912778,0.257820368,-0.873287149
607,1522913,395240,0.067,0.666,0.498,25.6,-44.2,-5.2,12.5,11.7,-22.6,0.176213874,-0.373912778,0.257820368,-0.873287149
608,1525142,395240,0.122,0.443,0.619,-62.7,-41.3,-3.6,12.3,11.8,-22.7,0.17587817,-0.374950407,0.258827479,-0.872585223
609,1528304,395240,0.227,0.274,0.711,-109.2,-23,7.9,12.3,11.8,-22.7,0.174626911,-0.376812037,0.262794885,-0.870876186
610,1529879,395240,0.29,0.167,0.746,-89.4,-13.9,10.4,12.3,11.8,-22.7,0.174169134,-0.37736137,0.26453444,-0.870204779
611,1533154,395250,0.29,0.167,0.746,-89.4,-13.9,10.4,12.3,11.8,-22.7,0.174169134,-0.37736137,0.26453444,-0.870204779
612,1534596,395250,0.418,0.021,0.795,-67.5,-9.5,10,12.1,11.9,-23,0.173863948,-0.377727592,0.265877255,-0.869685965
613,1536994,395250,0.512,-0.144,0.793,-53.7,-16.7,0.5,12.1,11.9,-23,0.173253578,-0.378612629,0.267891476,-0.868800928
614,1539259,395250,0.558,-0.258,0.765,-60.7,-25.2,-7,12.1,11.9,-23,0.172765282,-0.379375591,0.268868068,-0.868251595
615,1541784,395260,0.558,-0.258,0.765,-60.7,-25.2,-7,12.1,11.9,-23,0.172765282,-0.379375591,0.268868068,-0.868251595
616,1545473,395260,0.713,-0.527,0.723,-72.5,-33.8,-13.9,12.4,11.6,-22.9,0.172093875,-0.380352184,0.269997253,-0.867610706
617,1547650,395260,0.832,-0.889,0.565,-98,-44.8,-21.7,12.4,11.6,-22.9,0.170293283,-0.382915738,0.272835475,-0.865962706
618,1549903,395260,0.89,-1.043,0.502,-106.6,-46.1,-21.5,12.4,11.6,-22.9,0.169286172,-0.38431959,0.274483474,-0.865016633
619,1551887,395270,0.89,-1.043,0.502,-106.6,-46.1,-21.5,12.4,11.6,-22.9,0.169286172,-0.38431959,0.274483474,-0.865016633
620,1554375,395270,1.009,-1.339,0.379,-110,-45.1,-18.3,12.1,12.6,-21.5,0.168279061,-0.385662404,0.276253548,-0.86404004
621,1558203,395270,1.098,-1.587,0.28,-100.9,-40.9,-3.5,12.1,12.6,-21.5,0.166722617,-0.388103885,0.279732658,-0.862117374
622,1559576,395270,1.058,-1.653,0.241,-90.7,-38.7,8,12.1,12.6,-21.5,0.166356395,-0.389110996,0.281380657,-0.861201819
623,1563008,395280,1.058,-1.653,0.241,-90.7,-38.7,8,12.1,12.6,-21.5,0.166356395,-0.389110996,0.281380657,-0.861201819
624,1565300,395280,0.941,-1.58,0.271,-68.7,-32.9,38,11.7,12.1,-23.5,0.166692099,-0.389751885,0.282876064,-0.860347301
625,1567646,395280,0.871,-1.52,0.296,-62.7,-28.7,52.3,11.7,12.1,-23.5,0.167302469,-0.390209662,0.284371471,-0.859553819
626,1569635,395280,0.798,-1.452,0.324,-62.1,-24.2,62.8,11.7,12.1,-23.5,0.168126469,-0.390484329,0.285988952,-0.85872982
627,1571944,395290,0.747,-1.409,0.349,-62.1,-24.2,62.8,11.7,12.1,-23.5,0.16891995,-0.390789514,0.287575915,-0.85790582
628,1575822,395290,0.697,-1.271,0.381,-68.4,-15.4,68,11.5,12.2,-23.5,0.169682913,-0.390881069,0.289407025,-0.85708182
629,1578071,395290,0.658,-1.169,0.358,-67.1,-10.9,63.2,11.5,12.2,-23.5,0.170384838,-0.390942106,0.291177099,-0.856318857
630,1579519,395290,0.627,-1.059,0.319,-59.6,-6.2,55.5,11.5,12.2,-23.5,0.170934172,-0.390942106,0.292733543,-0.855677969
631,1581870,395300,0.611,-0.973,0.284,-59.6,-6.2,55.5,11.5,12.2,-23.5,0.171514023,-0.390911588,0.294289987,-0.85503708
632,1585911,395300,0.639,-0.794,0.259,-33.8,1.9,37.7,11.5,12.3,-23.5,0.171910764,-0.390758995,0.295236061,-0.854701376
633,1587927,395300,0.632,-0.692,0.259,-20.3,5.3,28.7,11.5,12.3,-23.5,0.172246467,-0.390545366,0.295907468,-0.854518265
634,1590189,395300,0.628,-0.582,0.255,-7.8,9,20.2,11.5,12.3,-23.5,0.172490616,-0.390301218,0.296243171,-0.854457228
635,1592477,395310,0.613,-0.508,0.252,-7.8,9,20.2,11.5,12.3,-23.5,0.172765282,-0.390026551,0.296609394,-0.85442671
636,1594855,395310,0.618,-0.297,0.349,10.2,18.1,5.4,12.2,12.2,-23.1,0.172826319,-0.389599292,0.296517838,-0.854609821
637,1596861,395310,0.618,-0.297,0.349,15,22.9,-1.8,12.2,12.2,-23.1,0.172765282,-0.389141514,0.296304209,-0.854915006
638,1599235,395310,0.611,-0.195,0.38,17.9,27.2,-9.7,12.2,12.2,-23.1,0.172551653,-0.3886227,0.295999023,-0.855311747
639,1601803,395320,0.616,0.047,0.462,17.9,27.2,-9.7,12.2,12.2,-23.1,0.172368542,-0.388103885,0.295693838,-0.855677969
640,1605483,395320,0.597,0.129,0.47,16.1,34,-25.5,11.9,14.3,-21.5,0.17178869,-0.38758507,0.295297098,-0.856166265
641,1607600,395320,0.604,0.153,0.462,8.5,35.9,-31.3,11.9,14.3,-21.5,0.171056246,-0.387066256,0.294991913,-0.856654561
642,1609637,395320,0.616,0.148,0.442,-3.4,36.8,-35.6,11.9,14.3,-21.5,0.170110172,-0.386638997,0.294900357,-0.857051302
643,1611926,395330,0.627,0.14,0.407,-17.1,37.3,-39.3,11.9,14.3,-21.5,0.168980987,-0.386242256,0.295022431,-0.857417524
644,1614228,395330,0.627,0.14,0.407,-17.1,37.3,-39.3,11.9,14.3,-21.5,0.168980987,-0.386242256,0.295022431,-0.857417524
645,1616759,395330,0.662,0.159,0.347,-35.6,39.5,-48.6,11.8,13.2,-23.2,0.167516099,-0.385937071,0.29544969,-0.85769219
646,1620401,395330,0.693,0.182,0.304,-35.6,39.5,-48.6,11.8,13.2,-23.2,0.16605121,-0.385662404,0.295846431,-0.857966857
647,1622712,395340,0.744,0.22,0.252,-38,41.1,-54.5,11.8,13.2,-23.2,0.164464248,-0.385357219,0.296243171,-0.858272042
648,1624998,395340,0.768,0.266,0.255,-37.4,42.6,-59.9,11.8,13.2,-23.2,0.162724693,-0.385082553,0.296578875,-0.858607746
649,1627044,395340,0.767,0.25,0.243,-34,44.3,-67.1,12.1,13.8,-22.9,0.160893582,-0.384807886,0.296823023,-0.859004486
650,1629381,395340,0.74,0.286,0.275,-34,44.3,-67.1,12.1,13.8,-22.9,0.159062471,-0.384533219,0.297036653,-0.859370708
651,1631769,395350,0.744,0.298,0.279,-33.5,44.2,-71,12.1,13.8,-22.9,0.157170324,-0.384289071,0.297250282,-0.859767449
652,1634591,395350,0.744,0.271,0.283,-33.9,43.1,-76.9,12.1,13.8,-22.9,0.155156102,-0.384075442,0.297341838,-0.860194708
653,1637662,395350,0.799,0.254,0.329,-36.3,35.8,-95.5,12.1,13.8,-22.9,0.152836695,-0.384166997,0.297341838,-0.86056093
654,1640710,395350,0.811,0.215,0.348,-36.3,35.8,-95.5,12.1,13.8,-22.9,0.150517289,-0.384228034,0.297341838,-0.860957671
655,1643096,395360,0.83,0.199,0.36,-37.7,31.1,-107.5,12.1,13.8,-22.9,0.147953734,-0.384441664,0.297280801,-0.861323893
656,1645293,395360,0.85,0.179,0.371,-39.7,27.5,-121.2,12.1,13.8,-22.9,0.14517655,-0.384838404,0.29709769,-0.861690115
657,1647707,395360,0.885,0.097,0.363,-49.3,27.5,-153.5,12.1,14.8,-23,0.141697439,-0.385479293,0.296823023,-0.862086856
658,1649636,395360,0.869,0.023,0.344,-49.3,27.5,-153.5,12.1,14.8,-23,0.138218329,-0.386089663,0.296548357,-0.862453078
659,1651880,395370,0.845,-0.027,0.313,-58.8,30.7,-170.8,12.1,14.8,-23,0.13431196,-0.386791589,0.296304209,-0.862849818
660,1654256,395370,0.81,-0.073,0.286,-70.6,34.4,-187.1,12.1,14.8,-23,0.129947813,-0.387554552,0.296151616,-0.863216041
661,1658096,395370,0.735,-0.088,0.28,-91.1,37.6,-213.2,12,15.1,-21.8,0.124942778,-0.388500626,0.296182134,-0.863551744
662,1659539,395370,0.712,-0.08,0.272,-91.1,37.6,-213.2,12,15.1,-21.8,0.119907224,-0.389416181,0.296182134,-0.863826411
663,1661899,395380,0.688,-0.072,0.265,-98,35.4,-224.7,12,15.1,-21.8,0.114597003,-0.39045381,0.296212653,-0.864070559
664,1664226,395380,0.669,-0.063,0.254,-104.4,30.7,-237.2,12,15.1,-21.8,0.109042634,-0.391644032,0.296212653,-0.86425367
665,1666895,395380,0.669,-0.063,0.254,-104.4,30.7,-237.2,12,15.1,-21.8,0.109042634,-0.391644032,0.296212653,-0.86425367
666,1670350,395380,0.676,-0.099,0.203,-123.9,15.7,-265.8,12,15.1,-21.8,0.102847377,-0.393353069,0.296334727,-0.864192633
667,1672622,395390,0.746,-0.175,0.162,-153.4,-4.9,-291.5,12,15.1,-21.8,0.0895718253,-0.397656178,0.29688406,-0.863521226
668,1674999,395390,0.785,-0.199,0.154,-167.5,-15.9,-299.6,12,15.1,-21.8,0.0825525681,-0.400219733,0.297402875,-0.862849818
669,1677018,395390,0.785,-0.199,0.154,-167.5,-15.9,-299.6,12,15.1,-21.8,0.0825525681,-0.400219733,0.297402875,-0.862849818
670,1679281,395390,0.859,-0.274,0.145,-178.1,-26,-303.5,10.4,18.3,-21.2,0.0754722739,-0.402966399,0.298043764,-0.8619953
671,1682436,395400,0.937,-0.342,0.132,-185.5,-40.8,-300.4,10.4,18.3,-21.2,0.0613116855,-0.40888699,0.299539171,-0.859828486
672,1684587,395400,0.956,-0.37,0.135,-183.4,-44.8,-294.8,10.4,18.3,-21.2,0.0544450209,-0.411877804,0.300271615,-0.858577227
673,1686852,395400,0.956,-0.37,0.135,-183.4,-44.8,-294.8,10.4,18.3,-21.2,0.0544450209,-0.411877804,0.300271615,-0.858577227
674,1690711,395400,0.96,-0.413,0.151,-178.7,-45.9,-287.3,9.6,19.5,-21.1,0.0477614673,-0.414838099,0.30097354,-0.857325968
675,1692084,395410,0.882,-0.454,0.149,-166.3,-41,-266.2,9.6,19.5,-21.1,0.0350657674,-0.420300913,0.302285836,-0.854792932
676,1695549,395410,0.886,-0.494,0.149,-160.7,-36.7,-252.2,9.6,19.5,-21.1,0.0291451765,-0.422772912,0.302926725,-0.853572192
677,1697809,395410,0.886,-0.494,0.149,-160.7,-36.7,-252.2,9.6,19.5,-21.1,0.0291451765,-0.422772912,0.302926725,-0.853572192
678,1700067,395410,0.882,-0.529,0.145,-156,-32.6,-236.4,9.6,19.5,-21.1,0.0235297708,-0.425031281,0.303628651,-0.85238197
679,1702122,395420,0.885,-0.54,0.141,-149,-24.7,-205.8,9.6,19.5,-21.1,0.0131534776,-0.428968169,0.305215613,-0.850062563
680,1704271,395420,0.823,-0.528,0.134,-146.6,-19.7,-194.4,9.6,19.5,-21.1,0.00830103458,-0.430677206,0.306131169,-0.848933378
681,1707395,395420,0.823,-0.528,0.134,-146.6,-19.7,-194.4,9.6,19.5,-21.1,0.00830103458,-0.430677206,0.306131169,-0.848933378
682,1710428,395420,0.792,-0.527,0.123,-145.7,-13.8,-186.1,7.9,21.4,-20.5,0.00357066561,-0.432203131,0.307077242,-0.84786523
683,1711903,395430,0.756,-0.531,0.084,-151.6,-0.7,-176.6,7.9,21.4,-20.5,0.00576799829,0.434736167,-0.309213538,0.845759453
684,1715157,395430,0.756,-0.543,0.073,-158.3,5.7,-174.3,7.9,21.4,-20.5,0.0105288858,0.435773797,-0.310464797,0.844721824
685,1718520,395430,0.756,-0.543,0.073,-158.3,5.7,-174.3,7.9,21.4,-20.5,0.0105288858,0.435773797,-0.310464797,0.844721824
686,1720004,395430,0.776,-0.535,0.068,-173.9,17.9,-173.2,7.4,22.8,-20.6,0.0154728843,0.436597797,-0.312021241,0.843653676
687,1723049,395440,0.783,-0.539,0.072,-173.9,17.9,-173.2,7.4,22.8,-20.6,0.0204474013,0.437360759,-0.313577685,0.84255501
688,1725418,395440,0.791,-0.531,0.076,-179.9,22.5,-174.4,7.4,22.8,-20.6,0.0255134739,0.438062685,-0.315195166,0.841456343
689,1727588,395440,0.795,-0.539,0.088,-184.1,25.6,-176.3,7.4,22.8,-20.6,0.0307016205,0.438703574,-0.316873684,0.840327158
690,1729867,395440,0.807,-0.531,0.119,-188.2,26.6,-181.5,6.8,24.2,-19.2,0.0360118412,0.439313944,-0.318552202,0.839136937
691,1731967,395450,0.831,-0.524,0.134,-188.2,26.6,-181.5,6.8,24.2,-19.2,0.0412915433,0.439924314,-0.32023072,0.837946715
692,1734241,395450,0.85,-0.528,0.145,-188.6,23.8,-185.9,6.8,24.2,-19.2,0.046662801,0.44062624,-0.321878719,0.836664937
693,1737416,395450,0.87,-0.532,0.153,-188.3,18.6,-192.7,6.8,24.2,-19.2,0.0521561327,0.44145024,-0.323435163,0.835322123
694,1740505,395450,0.909,-0.502,0.183,-186.1,4.5,-214.3,6.4,24.5,-19.2,0.0578936125,0.442640461,-0.324747459,0.833796197
695,1742555,395460,0.933,-0.494,0.191,-186.1,4.5,-214.3,6.4,24.5,-19.2,0.0636310923,0.443830683,-0.326059755,0.832209235
696,1745659,395460,0.972,-0.46,0.206,-184.7,-1.3,-227.6,6.4,24.5,-19.2,0.0695211646,0.445234535,-0.32718894,0.830561235
697,1747949,395460,1.019,-0.449,0.209,-183.8,-4.9,-240.7,6.4,24.5,-19.2,0.075655385,0.446729942,-0.328196051,0.82882168
698,1750212,395460,1.082,-0.391,0.227,-183.8,-5.6,-252,6.4,24.5,-19.2,0.0819421979,0.448347423,-0.329081088,0.827021088
699,1752577,395470,1.093,-0.395,0.223,-185,-3,-260.1,6.4,24.5,-19.2,0.0884426405,0.449903867,-0.32984405,0.825159459
700,1754471,395470,1.097,-0.399,0.242,-192.2,12.6,-261.9,6.4,24.5,-19.2,0.101748711,0.452620014,-0.33149205,0.821497238
701,1756826,395470,1.097,-0.399,0.242,-192.2,12.6,-261.9,6.4,24.5,-19.2,0.101748711,0.452620014,-0.33149205,0.821497238
702,1759914,395470,1.074,-0.43,0.204,-196.8,23.3,-255.5,5.2,26.6,-18.1,0.108432264,0.453596606,-0.332438124,0.819696646
703,1762021,395480,1.081,-0.446,0.18,-200.9,32.3,-245.3,5.2,26.6,-18.1,0.115024262,0.454329051,-0.333506272,0.817957091
704,1764371,395480,1.12,-0.497,0.187,-207.2,32.1,-222.8,5.2,26.6,-18.1,0.127750481,0.45536668,-0.336130863,0.814416944
705,1768197,395480,1.12,-0.497,0.187,-207.2,32.1,-222.8,5.2,26.6,-18.1,0.127750481,0.45536668,-0.336130863,0.814416944
706,1769857,395480,1.156,-0.497,0.277,-194.1,11.9,-213.4,4.6,27.3,-17.5,0.133548997,0.456160161,-0.337412641,0.812494278
707,1773232,395490,1.214,-0.502,0.295,-175.5,2.1,-217.5,4.6,27.3,-17.5,0.139164403,0.45719779,-0.338358715,0.81060213
708,1775666,395490,1.301,-0.476,0.305,-175.5,2.1,-217.5,4.6,27.3,-17.5,0.14474929,0.45823542,-0.33927427,0.808648946
709,1777809,395490,1.352,-0.446,0.339,-154.2,-5.8,-225.8,4.6,27.3,-17.5,0.150273141,0.459517197,-0.339762566,0.806695761
710,1780046,395490,1.398,-0.478,0.327,-123.3,-13.7,-245.4,4.6,28.4,-17,0.155705435,0.461165197,-0.339487899,0.804834132
711,1781995,395500,1.406,-0.474,0.323,-123.3,-13.7,-245.4,4.6,28.4,-17,0.161168249,0.462782678,-0.339243751,0.802941984
712,1784342,395500,1.414,-0.482,0.327,-117.2,-12.5,-253.3,4.6,28.4,-17,0.166692099,0.464461196,-0.338785974,0.801049837
713,1787861,395500,1.441,-0.49,0.334,-115.6,-8.2,-257.9,4.6,28.4,-17,0.172307505,0.466078677,-0.338206122,0.799157689
714,1789964,395500,1.469,-0.491,0.353,-115.9,-2.8,-258.6,3.9,28.7,-16.2,0.177953429,0.467604602,-0.337595752,0.797265542
715,1792030,395510,1.469,-0.53,0.345,-116.9,2.1,-255.1,3.9,28.7,-16.2,0.183629872,0.468977935,-0.3370159,0.795434431
716,1794419,395510,1.457,-0.557,0.334,-118.6,6.1,-248.4,3.9,28.7,-16.2,0.18918424,0.470229194,-0.336497085,0.79360332
717,1797687,395510,1.437,-0.568,0.322,-121.4,9.1,-240.2,3.9,28.7,-16.2,0.194647053,0.47132786,-0.336100345,0.791802728
718,1799994,395510,1.433,-0.564,0.323,-125.8,11.5,-232.4,3.9,28.7,-16.2,0.20004883,0.472273934,-0.335825678,0.790002136
719,1801971,395520,1.406,-0.572,0.319,-131.5,13.7,-225.9,3.9,28.7,-16.2,0.205389569,0.473128452,-0.335703604,0.788171026
720,1804377,395520,1.362,-0.622,0.269,-145.6,17.7,-215.7,3.9,28.7,-16.2,0.216040529,0.474440748,-0.335917234,0.784447768
721,1808267,395520,1.362,-0.622,0.269,-145.6,17.7,-215.7,3.9,28.7,-16.2,0.216040529,0.474440748,-0.335917234,0.784447768
722,1810579,395520,1.319,-0.657,0.25,-153.7,19.8,-210.7,2.4,30,-15.1,0.221381268,0.474898526,-0.336252937,0.782525101
723,1812841,395530,1.182,-0.682,0.23,-161,22.7,-205.2,2.4,30,-15.1,0.226722007,0.47523423,-0.336771752,0.780571917
724,1815012,395530,1.018,-0.699,0.217,-167.4,30.7,-192.1,2.4,30,-15.1,0.237250893,0.475447859,-0.338084048,0.776726585
725,1816983,395530,1.018,-0.699,0.217,-167.4,30.7,-192.1,2.4,30,-15.1,0.237250893,0.475447859,-0.338084048,0.776726585
726,1819233,395530,0.924,-0.768,0.184,-161,35.5,-178.6,1.4,30.4,-15.1,0.24222541,0.475325785,-0.338755455,0.774956511
727,1822328,395540,0.889,-0.794,0.173,-161,35.5,-178.6,1.4,30.4,-15.1,0.247169408,0.475203711,-0.339457381,0.773186438
728,1825524,395540,0.854,-0.802,0.173,-154.1,34.7,-172.3,1.4,30.4,-15.1,0.251930296,0.475051119,-0.340067751,0.771477401
729,1827782,395540,0.822,-0.762,0.185,-143.3,32.9,-165.9,1.4,30.4,-15.1,0.256447035,0.474929044,-0.340586566,0.769829402
730,1830058,395540,0.682,-0.596,0.156,-107.2,33.4,-150,1,30.9,-14.6,0.260322886,0.474868007,-0.340647603,0.768517106
731,1832328,395550,0.628,-0.544,0.122,-107.2,33.4,-150,1,30.9,-14.6,0.264198737,0.47480697,-0.340678121,0.76720481
732,1834511,395550,0.585,-0.504,0.095,-87,36.2,-140.9,1,30.9,-14.6,0.267738884,0.474745933,-0.340464492,0.766136662
733,1836740,395550,0.565,-0.461,0.064,-71.1,38.3,-133.2,1,30.9,-14.6,0.270973846,0.474684896,-0.340067751,0.765221107
734,1840282,395550,0.541,-0.434,0.03,-61,38,-128.7,0.4,31,-14.2,0.274025697,0.474654378,-0.339518418,0.764397107
735,1842584,395560,0.545,-0.434,0.014,-55.1,34.6,-128.6,0.4,31,-14.2,0.277016511,0.474684896,-0.338908048,0.763573107
736,1844826,395560,0.553,-0.426,0.01,-50.5,27.8,-133,0.4,31,-14.2,0.279946287,0.474898526,-0.338175604,0.76268807
737,1846873,395560,0.58,-0.423,0.005,-44.6,18.1,-141.1,0.4,31,-14.2,0.282906583,0.475356304,-0.337351604,0.76168096
738,1850504,395560,0.659,-0.381,0.055,-36.3,6.1,-151.5,0.4,31,-14.2,0.28583636,0.476149785,-0.336344493,0.760521256
739,1851946,395570,0.726,-0.358,0.1,-26.2,-6.9,-163.2,0.4,31,-14.2,0.288766137,0.47727897,-0.335123753,0.759239479
740,1854220,395570,0.785,-0.343,0.154,-16,-19.7,-175.3,0.4,31,-14.2,0.291695914,0.478804895,-0.333689383,0.757805109
741,1856676,395570,0.828,-0.32,0.196,-7.3,-30.9,-186.6,0.4,31,-14.2,0.29462569,0.480605487,-0.332071902,0.756218146
742,1860374,395570,0.926,-0.318,0.265,-1.6,-39.1,-195.7,-0.3,31.2,-14.2,0.297585986,0.482650227,-0.33027131,0.754539628
743,1862459,395580,0.973,-0.307,0.288,0.6,-44,-201.7,-0.3,31.2,-14.2,0.3005768,0.48484756,-0.328440199,0.752769555
744,1864575,395580,1.028,-0.308,0.302,-0.6,-45.5,-205,-0.3,31.2,-14.2,0.303628651,0.487044893,-0.32657857,0.750938444
745,1866919,395580,1.067,-0.289,0.313,-5.2,-44.6,-206,-0.3,31.2,-14.2,0.306741539,0.489211707,-0.324747459,0.749046297
746,1869932,395580,1.067,-0.289,0.313,-5.2,-44.6,-206,-0.3,31.2,-14.2,0.306741539,0.489211707,-0.324747459,0.749046297
747,1872975,395590,1.145,-0.243,0.288,-34,-36.5,-197.1,-1,31.3,-14.3,0.313303018,0.492873928,-0.321909238,0.745139927
748,1875274,395590,1.172,-0.209,0.284,-34,-36.5,-197.1,-1,31.3,-14.3,0.316629536,0.494613483,-0.320596942,0.743156224
749,1878163,395590,1.204,-0.193,0.275,-46.5,-33.9,-189.9,-1,31.3,-14.3,0.319956053,0.496169927,-0.319528794,0.741142003
750,1879527,395590,1.204,-0.193,0.275,-46.5,-33.9,-189.9,-1,31.3,-14.3,0.319956053,0.496169927,-0.319528794,0.741142003
751,1882824,395600,1.282,-0.093,0.238,-79.5,-23.9,-160.1,-1.9,31.2,-13.8,0.326548051,0.498275704,-0.318704794,0.737205115
752,1884934,395600,1.329,-0.09,0.218,-89.8,-19,-151.3,-1.9,31.2,-13.8,0.329813532,0.49897763,-0.318643757,0.735282449
753,1887880,395600,1.372,-0.083,0.209,-89.8,-19,-151.3,-1.9,31.2,-13.8,0.333109531,0.499679556,-0.31858272,0.733359783
754,1890880,395600,1.372,-0.083,0.209,-89.8,-19,-151.3,-1.9,31.2,-13.8,0.333109531,0.499679556,-0.31858272,0.733359783
755,1892275,395610,1.441,-0.139,0.169,-125.5,-1.8,-134.9,-2.8,31.8,-13.1,0.340006714,0.499984741,-0.319467757,0.729575488
756,1895456,395610,1.445,-0.179,0.157,-138.1,3.9,-130.2,-2.8,31.8,-13.1,0.343607898,0.49980163,-0.320200201,0.72768334
757,1896872,395610,1.441,-0.21,0.146,-138.1,3.9,-130.2,-2.8,31.8,-13.1,0.347209082,0.499618519,-0.320932646,0.725791192
758,1900045,395610,1.441,-0.21,0.146,-138.1,3.9,-130.2,-2.8,31.8,-13.1,0.347209082,0.499618519,-0.320932646,0.725791192
759,1903061,395620,1.398,-0.346,0.123,-170.5,20,-108.7,-2.8,31.8,-13.1,0.35462508,0.498123112,-0.323465682,0.722098453
760,1904443,395620,1.366,-0.4,0.112,-170.5,20,-108.7,-2.8,31.8,-13.1,0.358348338,0.497238075,-0.324808496,0.720267342
761,1906756,395620,1.335,-0.455,0.097,-178.9,25.8,-99.8,-2.8,31.8,-13.1,0.362041078,0.496139409,-0.326334422,0.718497269
762,1910167,395620,1.28,-0.54,0.086,-192,37.3,-84.8,-3.7,32.4,-12.2,0.365703299,0.494613483,-0.328104495,0.716849269
763,1912104,395630,1.248,-0.582,0.087,-196.2,42,-79.1,-3.7,32.4,-12.2,0.36936552,0.492965484,-0.329996643,0.715262307
764,1914266,395630,1.217,-0.613,0.103,-196.2,42,-79.1,-3.7,32.4,-12.2,0.372997223,0.491317484,-0.331858272,0.713644826
765,1918020,395630,1.186,-0.639,0.128,-198.7,45.7,-74.3,-3.7,32.4,-12.2,0.376598407,0.489516892,-0.333780938,0.712088382
766,1920491,395630,1.186,-0.639,0.128,-198.7,45.7,-74.3,-3.7,32.4,-12.2,0.376598407,0.489516892,-0.333780938,0.712088382
767,1922550,395640,1.018,-0.695,0.225,-199.8,51.5,-65.3,-4.2,32.8,-11.2,0.380138554,0.487533189,-0.335764641,0.710654012
768,1925716,395640,0.968,-0.709,0.253,-199.3,54.3,-61.2,-4.2,32.8,-11.2,0.383587146,0.485488449,-0.337748344,0.70925016
769,1928020,395640,0.886,-0.762,0.306,-198.3,58.5,-54.6,-4.2,32.8,-11.2,0.390362255,0.481185339,-0.341715751,0.706564531
770,1930160,395640,0.886,-0.762,0.306,-198.3,58.5,-54.6,-4.2,32.8,-11.2,0.390362255,0.481185339,-0.341715751,0.706564531
771,1932423,395650,0.796,-0.796,0.335,-197.7,59.5,-51.8,-4.2,33.2,-10.1,0.393688772,0.478957488,-0.343729972,0.705282754
772,1934519,395650,0.706,-0.83,0.333,-193.9,59.3,-46.1,-4.2,33.2,-10.1,0.400097659,0.474471267,-0.347697378,0.702749718
773,1936842,395650,0.667,-0.841,0.329,-190.3,58,-43.2,-4.2,33.2,-10.1,0.403180029,0.472243416,-0.349650563,0.701528977
774,1939330,395650,0.667,-0.841,0.329,-190.3,58,-43.2,-4.2,33.2,-10.1,0.403180029,0.472243416,-0.349650563,0.701528977
775,1943748,395660,0.6,-0.855,0.292,-185.5,55.6,-40.3,-4,33.8,-9.4,0.406140324,0.470046083,-0.351573229,0.700308237
776,1946084,395660,0.565,-0.855,0.245,-172.5,47.2,-35.4,-4,33.8,-9.4,0.411603137,0.465956603,-0.355327006,0.697958312
777,1948187,395660,0.557,-0.855,0.226,-172.5,47.2,-35.4,-4,33.8,-9.4,0.414258248,0.4639729,-0.357158116,0.69676809
778,1950557,395660,0.557,-0.855,0.226,-172.5,47.2,-35.4,-4,33.8,-9.4,0.414258248,0.4639729,-0.357158116,0.69676809
779,1952852,395670,0.513,-0.843,0.156,-144.5,28.6,-31,-4,33.8,-9.4,0.418744469,0.460768456,-0.360484634,0.69450972
780,1955220,395670,0.521,-0.839,0.125,-132.7,21.9,-29.8,-4,33.8,-9.4,0.420697653,0.45945616,-0.362010559,0.693411054
781,1957054,395670,0.482,-0.799,0.125,-132.7,21.9,-29.8,-4,33.8,-9.4,0.422650838,0.458143864,-0.363505966,0.692281869
782,1959476,395670,0.482,-0.799,0.125,-132.7,21.9,-29.8,-4,33.8,-9.4,0.422650838,0.458143864,-0.363505966,0.692281869
783,1962862,395680,0.459,-0.733,0.09,-90.6,0.5,-25.8,-5.4,33.9,-8.5,0.425489059,0.456617939,-0.365855892,0.690328684
784,1965121,395680,0.478,-0.725,0.086,-77.1,-6.9,-25.1,-5.4,33.9,-8.5,0.426557207,0.456221198,-0.366832484,0.689413129
785,1967179,395680,0.486,-0.702,0.098,-77.1,-6.9,-25.1,-5.4,33.9,-8.5,0.427655873,0.455793939,-0.367809076,0.688467055
786,1969525,395680,0.486,-0.702,0.098,-77.1,-6.9,-25.1,-5.4,33.9,-8.5,0.427655873,0.455793939,-0.367809076,0.688467055
787,1973378,395690,0.502,-0.651,0.133,-53.4,-21.1,-24.3,-5.4,33.5,-7.6,0.428388318,0.455824458,-0.368572039,0.687612537
788,1975800,395690,0.502,-0.651,0.133,-53.4,-21.1,-24.3,-5.4,33.5,-7.6,0.428388318,0.455824458,-0.368572039,0.687612537
789,1977934,395690,0.538,-0.57,0.171,-33.2,-33.1,-20.4,-5.4,33.5,-7.6,0.429303873,0.456373791,-0.369823298,0.685995056
790,1980200,395690,0.557,-0.55,0.174,-25.6,-37.8,-17.6,-5.4,33.5,-7.6,0.429517502,0.456831568,-0.37040315,0.685232093
791,1981727,395700,0.601,-0.512,0.181,-20,-41.9,-14.7,-5.4,34.1,-7.4,0.429609058,0.457380902,-0.370952483,0.684530168
792,1985283,395700,0.62,-0.493,0.189,-16.5,-45.3,-12.2,-5.4,34.1,-7.4,0.429578539,0.45802179,-0.371501816,0.683828242
793,1987489,395700,0.663,-0.462,0.207,-12.7,-50.8,-7.4,-5.4,34.1,-7.4,0.429303873,0.459364605,-0.372661519,0.682454909
794,1990061,395700,0.663,-0.462,0.207,-12.7,-50.8,-7.4,-5.4,34.1,-7.4,0.429303873,0.459364605,-0.372661519,0.682454909
795,1992798,395710,0.699,-0.431,0.226,-11.5,-53,-4.9,-5.4,34.3,-6.5,0.429059725,0.460097049,-0.373271889,0.681783502
796,1995124,395710,0.718,-0.432,0.234,-10.7,-54.5,-2.2,-5.4,34.3,-6.5,0.42875454,0.460829493,-0.373912778,0.681112094
797,1997413,395710,0.754,-0.417,0.229,-10.1,-55.8,3.1,-5.4,34.3,-6.5,0.427991577,0.462263863,-0.375286111,0.679860836
798,1999368,395710,0.754,-0.417,0.229,-10.1,-55.8,3.1,-5.4,34.3,-6.5,0.427991577,0.462263863,-0.375286111,0.679860836
799,2001817,395720,0.773,-0.405,0.233,-9.9,-55.9,5.7,-5.9,34.4,-9.4,0.427564318,0.46293527,-0.376018555,0.679280984
800,2005568,395720,0.781,-0.401,0.233,-10,-56,8.4,-5.9,34.4,-9.4,0.427076022,0.463606677,-0.376781518,0.678701132
801,2007860,395720,0.801,-0.394,0.236,-10.5,-56.2,13.4,-5.9,34.4,-9.4,0.426007874,0.464888455,-0.378398999,0.677632984
802,2010060,395720,0.801,-0.394,0.236,-10.5,-56.2,13.4,-5.9,34.4,-9.4,0.426007874,0.464888455,-0.378398999,0.677632984
803,2012122,395730,0.824,-0.379,0.232,-11.1,-56.6,15.7,-5.6,33.8,-7,0.425397504,0.465498825,-0.379222999,0.67711417
804,2014216,395730,0.832,-0.391,0.224,-13.1,-57.2,20.2,-5.6,33.8,-7,0.424146245,0.46662801,-0.381054109,0.67607654
805,2017313,395730,0.843,-0.387,0.216,-13.1,-57.2,20.2,-5.6,33.8,-7,0.423505356,0.467177343,-0.382000183,0.675588244
806,2020816,395730,0.843,-0.387,0.216,-13.1,-57.2,20.2,-5.6,33.8,-7,0.423505356,0.467177343,-0.382000183,0.675588244
807,2022988,395740,0.843,-0.387,0.216,-13.1,-57.2,20.2,-5.6,33.8,-7,0.423505356,0.467177343,-0.382000183,0.675588244
808,2024548,395740,0.875,-0.391,0.203,-17.2,-55.8,28.1,-5.9,34.3,-6.1,0.422986541,0.46806238,-0.382854701,0.674794763
809,2027041,395740,0.894,-0.388,0.207,-21.2,-54,33.4,-5.9,34.3,-6.1,0.421552171,0.468764306,-0.385113071,0.673940245
810,2031087,395740,0.906,-0.384,0.203,-23.1,-53.1,36.1,-5.9,34.3,-6.1,0.420789209,0.469008454,-0.386333811,0.673543504
811,2033178,395750,0.906,-0.384,0.203,-23.1,-53.1,36.1,-5.9,34.3,-6.1,0.420789209,0.469008454,-0.386333811,0.673543504
812,2035340,395750,0.918,-0.38,0.21,-25,-52.1,38.7,-5.8,34.3,-6.3,0.420056764,0.469222083,-0.387554552,0.673146764
813,2037568,395750,0.941,-0.385,0.214,-28.6,-49.6,43.6,-5.8,34.3,-6.3,0.418530839,0.469466231,-0.390179144,0.672414319
814,2039497,395750,0.953,-0.389,0.222,-29.9,-48,45.9,-5.8,34.3,-6.3,0.417737358,0.469527268,-0.391521958,0.672078616
815,2043435,395760,0.953,-0.389,0.222,-29.9,-48,45.9,-5.8,34.3,-6.3,0.417737358,0.469527268,-0.391521958,0.672078616
816,2044844,395760,0.972,-0.397,0.237,-30.8,-46,48,-5.8,34.6,-6.3,0.416943876,0.46949675,-0.392895291,0.671773431
817,2048168,395760,1,-0.401,0.248,-31.2,-41.1,52.4,-5.8,34.6,-6.3,0.415356914,0.46928312,-0.395611438,0.671315653
818,2050179,395760,1.015,-0.394,0.256,-30.8,-38.2,54.5,-5.8,34.6,-6.3,0.414532914,0.469100009,-0.396954253,0.671132542
819,2051801,395770,1.015,-0.394,0.256,-30.8,-38.2,54.5,-5.8,34.6,-6.3,0.414532914,0.469100009,-0.396954253,0.671132542
820,2055101,395770,1.039,-0.386,0.263,-30,-35.2,56.7,-5.1,34.6,-8.2,0.413708914,0.468855861,-0.398327586,0.671040986
821,2057911,395770,1.047,-0.382,0.267,-28.9,-32.2,58.6,-5.1,34.6,-8.2,0.412884915,0.468550676,-0.399639882,0.670979949
822,2059377,395770,1.09,-0.356,0.274,-26.7,-26.4,61.5,-5.1,34.6,-8.2,0.411175878,0.467818232,-0.402172918,0.671040986
823,2062627,395780,1.09,-0.356,0.274,-26.7,-26.4,61.5,-5.1,34.6,-8.2,0.411175878,0.467818232,-0.402172918,0.671040986
824,2065692,395780,1.094,-0.36,0.27,-25.6,-23.8,62.5,-4.9,34.4,-6.8,0.410290841,0.467390973,-0.403393658,0.671132542
825,2067183,395780,1.102,-0.344,0.273,-24.2,-21.4,63.4,-4.9,34.4,-6.8,0.409436323,0.466933195,-0.40458388,0.671254616
826,2069447,395780,1.113,-0.313,0.285,-21,-17.1,64.7,-4.9,34.4,-6.8,0.40766625,0.465926084,-0.406872768,0.671651357
827,2073168,395790,1.113,-0.313,0.285,-21,-17.1,64.7,-4.9,34.4,-6.8,0.40766625,0.465926084,-0.406872768,0.671651357
828,2075331,395790,1.121,-0.313,0.289,-17,-14.8,65.3,-5.1,34.6,-7.7,0.406720176,0.46540727,-0.407910398,0.671926023
829,2077076,395790,1.121,-0.305,0.281,-17,-14.8,65.3,-5.1,34.6,-7.7,0.405835139,0.464888455,-0.408978545,0.67220069
830,2079279,395790,1.129,-0.302,0.281,-14.8,-14.4,64.9,-5.1,34.6,-7.7,0.404919584,0.464400159,-0.409955138,0.672505875
831,2081717,395800,1.129,-0.294,0.289,-12,-14,64.1,-5.1,34.6,-7.7,0.40397351,0.463911863,-0.41093173,0.67281106
832,2084196,395800,1.125,-0.27,0.3,-4.8,-11.9,61.7,-4.6,35,-7.6,0.402996918,0.463484603,-0.411725211,0.673207801
833,2088336,395800,1.118,-0.266,0.3,-4.8,-11.9,61.7,-4.6,35,-7.6,0.402020325,0.463087863,-0.412518693,0.673574023
834,2090556,395800,1.118,-0.266,0.3,-1.1,-10.5,60.5,-4.6,35,-7.6,0.401043733,0.462660604,-0.413251137,0.674001282
835,2092069,395810,1.102,-0.266,0.297,1.9,-8.8,59,-4.6,35,-7.6,0.400097659,0.462294382,-0.413892026,0.674428541
836,2094224,395810,1.09,-0.27,0.293,4.9,-4.4,55.3,-4.3,35,-8.3,0.399182104,0.461897641,-0.41441084,0.674916837
837,2097519,395810,1.082,-0.266,0.293,5,-2,53.1,-4.3,35,-8.3,0.398327586,0.4615009,-0.414899136,0.675405133
838,2100273,395810,1.075,-0.258,0.289,5,-2,53.1,-4.3,35,-8.3,0.397473067,0.461073641,-0.415356914,0.675893429
839,2102962,395820,1.063,-0.257,0.286,4.3,0.5,51,-4.3,35,-8.3,0.396679586,0.460646382,-0.415814692,0.676381726
840,2105074,395820,1.063,-0.257,0.286,4.3,0.5,51,-4.3,35,-8.3,0.396679586,0.460646382,-0.415814692,0.676381726
841,2107292,395820,1.043,-0.273,0.255,-0.4,8.3,45.2,-4,35,-5.9,0.395428327,0.459608753,-0.416608173,0.677327799
842,2110048,395820,1.031,-0.277,0.247,-0.4,8.3,45.2,-4,35,-5.9,0.394848476,0.45905942,-0.417004913,0.677785577
843,2112268,395830,1.027,-0.277,0.236,-2.4,10.5,43.2,-4,35,-5.9,0.394329661,0.458510086,-0.417371136,0.678243355
844,2115064,395830,1.027,-0.277,0.236,-2.4,10.5,43.2,-4,35,-5.9,0.394329661,0.458510086,-0.417371136,0.678243355
845,2118057,395830,1.008,-0.288,0.209,-6.1,14.7,37.4,-3.7,34.8,-6.9,0.393566698,0.457289346,-0.418073061,0.679097873
846,2120389,395830,1,-0.284,0.201,-6.1,14.7,37.4,-3.7,34.8,-6.9,0.393230995,0.456678976,-0.418408765,0.679494613
847,2122524,395840,0.996,-0.284,0.205,-6.2,15.2,35.6,-3.7,34.8,-6.9,0.392895291,0.456068606,-0.41871395,0.679891354
848,2125267,395840,0.996,-0.284,0.205,-6.2,15.2,35.6,-3.7,34.8,-6.9,0.392895291,0.456068606,-0.41871395,0.679891354
849,2126714,395840,0.996,-0.284,0.205,-6.2,15.2,35.6,-3.7,34.8,-6.9,0.392895291,0.456068606,-0.41871395,0.679891354
850,2129780,395840,0.988,-0.28,0.193,-4.4,13.6,30.5,-3.6,35,-6.6,0.392529069,0.455641346,-0.419110691,0.680166021
851,2132645,395850,0.976,-0.276,0.201,-3.4,12.1,27.1,-3.6,35,-6.6,0.391979736,0.454695273,-0.419568468,0.680806909
852,2134788,395850,0.976,-0.276,0.201,-3.4,12.1,27.1,-3.6,35,-6.6,0.391735588,0.454237495,-0.419782098,0.681142613
853,2137841,395850,0.976,-0.276,0.201,-3.4,12.1,27.1,-3.6,35,-6.6,0.391735588,0.454237495,-0.419782098,0.681142613
854,2140046,395850,0.977,-0.264,0.209,-2.7,11,24.3,-3.6,34.2,-7.2,0.39149144,0.453810236,-0.419965209,0.681447798
855,2142800,395860,0.969,-0.256,0.217,-3.1,10.6,21.6,-3.6,34.2,-7.2,0.391094699,0.453047273,-0.420300913,0.681966613
856,2145668,395860,0.973,-0.256,0.217,-3.1,10.6,21.6,-3.6,34.2,-7.2,0.390911588,0.452650533,-0.420484024,0.682241279
857,2147834,395860,0.973,-0.256,0.217,-3.1,10.6,21.6,-3.6,34.2,-7.2,0.390911588,0.452650533,-0.420484024,0.682241279
858,2150036,395860,0.969,-0.244,0.229,-4.3,10.6,19.1,-3.3,34,-6.8,0.390758995,0.45228431,-0.420636616,0.682454909
859,2152920,395870,0.965,-0.244,0.233,-6.3,11,17.2,-3.3,34,-6.8,0.390545366,0.451521348,-0.42097232,0.682882168
860,2155058,395870,0.969,-0.237,0.233,-6.3,11,17.2,-3.3,34,-6.8,0.39045381,0.451155126,-0.421155431,0.683065279
861,2157828,395870,0.969,-0.237,0.233,-6.3,11,17.2,-3.3,34,-6.8,0.39045381,0.451155126,-0.421155431,0.683065279
862,2160099,395870,0.953,-0.229,0.233,-8.4,11.2,15.3,-3.1,36,-5.2,0.390423292,0.450788903,-0.421338542,0.683217872
863,2162957,395880,0.957,-0.236,0.237,-11,12.3,13.8,-3.1,36,-5.2,0.390423292,0.449964904,-0.421704764,0.683523057
864,2165095,395880,0.953,-0.236,0.237,-11,12.3,13.8,-3.1,36,-5.2,0.390423292,0.449568163,-0.421918394,0.683645131
865,2167786,395880,0.953,-0.236,0.237,-11,12.3,13.8,-3.1,36,-5.2,0.390423292,0.449568163,-0.421918394,0.683645131
866,2169196,395880,0.945,-0.244,0.229,-14.1,13.3,12.3,-3.4,34.8,-7.3,0.390514847,0.449140904,-0.422132023,0.683767205
867,2172020,395890,0.938,-0.244,0.233,-15.5,13.8,11.4,-3.4,34.8,-7.3,0.390606403,0.448683126,-0.422345653,0.68385876
868,2175449,395890,0.922,-0.255,0.238,-17.2,14.3,9.6,-3.4,34.8,-7.3,0.390911588,0.44779809,-0.42280343,0.683980834
869,2176836,395890,0.922,-0.255,0.238,-17.2,14.3,9.6,-3.4,34.8,-7.3,0.390911588,0.44779809,-0.42280343,0.683980834
870,2179884,395890,0.922,-0.255,0.238,-17.2,14.3,9.6,-3.4,34.8,-7.3,0.390911588,0.44779809,-0.42280343,0.683980834
871,2182873,395900,0.938,-0.252,0.225,-17.1,13.3,7.7,-3.4,34.6,-7.2,0.391033662,0.44737083,-0.423108615,0.684011353
872,2184979,395900,0.926,-0.252,0.222,-16.9,12.8,7.1,-3.4,34.6,-7.2,0.391186254,0.44697409,-0.423322245,0.684041871
873,2187745,395900,0.922,-0.263,0.23,-16.8,12.8,6,-3.4,34.6,-7.2,0.391582995,0.446180609,-0.423718986,0.68407239
874,2190510,395900,0.922,-0.263,0.23,-16.8,12.8,6,-3.4,34.6,-7.2,0.391582995,0.446180609,-0.423718986,0.68407239
875,2191870,395910,0.918,-0.275,0.234,-17,13.3,5.5,-2.9,34.7,-7.5,0.391766106,0.445783868,-0.423932615,0.684102908
876,2195344,395910,0.918,-0.283,0.234,-17.3,13.7,4.7,-2.9,34.7,-7.5,0.392010254,0.445387127,-0.424115726,0.684133427
877,2196771,395910,0.91,-0.29,0.242,-17.5,13.8,3.3,-2.9,34.7,-7.5,0.39249855,0.444624165,-0.424481948,0.684133427
878,2199429,395910,0.91,-0.29,0.242,-17.5,13.8,3.3,-2.9,34.7,-7.5,0.39249855,0.444624165,-0.424481948,0.684133427
879,2202563,395920,0.902,-0.294,0.234,-17.4,13.4,2.7,-3,36.4,-5.5,0.392742698,0.444227424,-0.424634541,0.684133427
880,2205384,395920,0.902,-0.298,0.234,-17.2,13.1,2.1,-3,36.4,-5.5,0.392986847,0.44389172,-0.424817652,0.684102908
881,2206826,395920,0.906,-0.302,0.234,-16.8,12.7,1.5,-3,36.4,-5.5,0.393261513,0.443525498,-0.424970244,0.684102908
882,2209905,395920,0.902,-0.31,0.234,-16.6,12.4,0.8,-3,36.4,-5.5,0.39353618,0.443189795,-0.425122837,0.68407239
883,2212844,395930,0.898,-0.317,0.234,-16.3,12,0.1,-2.9,35,-6.5,0.393780328,0.44288461,-0.425244911,0.684041871
884,2214344,395930,0.898,-0.314,0.234,-16.2,11.6,-0.5,-2.9,35,-6.5,0.394054994,0.442548906,-0.425397504,0.683980834
885,2217353,395930,0.898,-0.317,0.238,-16.1,11.2,-0.9,-2.9,35,-6.5,0.394329661,0.442274239,-0.425519578,0.683919797
886,2220519,395930,0.895,-0.325,0.246,-16.1,10.8,-1.4,-2.9,35,-6.5,0.394604328,0.441969054,-0.42567217,0.683889279
887,2221965,395940,0.894,-0.325,0.242,-16.2,10.4,-1.8,-3,35.2,-6.6,0.394909513,0.441694388,-0.425794244,0.683797723
888,2224380,395940,0.883,-0.329,0.242,-16.3,10,-2.1,-3,35.2,-6.6,0.395184179,0.441419721,-0.425946837,0.683736686
889,2228123,395940,0.883,-0.341,0.246,-16.4,9.6,-2.4,-3,35.2,-6.6,0.395458846,0.441175573,-0.426068911,0.683645131
890,2230288,395940,0.883,-0.348,0.242,-16.5,9.2,-2.5,-3,35.2,-6.6,0.395733512,0.440900906,-0.426221503,0.683584094
891,2232620,395950,0.883,-0.348,0.242,-16.5,9.2,-2.5,-3,35.2,-6.6,0.395733512,0.440900906,-0.426221503,0.683584094
892,2234622,395950,0.879,-0.344,0.242,-16.8,8.9,-2.7,-2.9,35.6,-6.3,0.395153661,0.439741203,-0.42732017,0.683980834
893,2237029,395950,0.875,-0.352,0.25,-16.8,8.8,-2.8,-2.9,35.6,-6.3,0.395428327,0.439497055,-0.427472762,0.683889279
894,2239327,395950,0.871,-0.36,0.243,-16.8,8.6,-2.8,-2.9,35.6,-6.3,0.395702994,0.439222388,-0.427594836,0.683797723
895,2243167,395960,0.867,-0.356,0.247,-16.8,8.1,-2.8,-2.9,35.6,-6.3,0.396008179,0.43897824,-0.427777947,0.683675649
896,2245486,395960,0.867,-0.368,0.247,-16.8,7.8,-2.8,-3.1,36.1,-6.5,0.396282846,0.438764611,-0.42793054,0.683584094
897,2247699,395960,0.859,-0.368,0.243,-16.8,7.5,-2.7,-3.1,36.1,-6.5,0.396557512,0.438520463,-0.428083132,0.68346202
898,2249446,395960,0.863,-0.368,0.247,-16.8,7.3,-2.7,-3.1,36.1,-6.5,0.396832179,0.438306833,-0.428205206,0.683370464
899,2251970,395970,0.855,-0.371,0.239,-16.9,7.2,-2.6,-3.1,36.1,-6.5,0.397076327,0.438062685,-0.428418836,0.68324839
900,2254159,395970,0.851,-0.379,0.243,-16.7,6.3,-2.3,-2.9,35.4,-5.8,0.397350993,0.437849055,-0.428571429,0.683126316
901,2256899,395970,0.855,-0.379,0.243,-16.7,6.3,-2.3,-2.9,35.4,-5.8,0.397595141,0.437635426,-0.42875454,0.683004242
902,2259779,395970,0.855,-0.383,0.243,-16.3,5.5,-2.1,-2.9,35.4,-5.8,0.39783929,0.437421796,-0.428937651,0.682912687
903,2262856,395980,0.859,-0.383,0.243,-15.9,4.8,-2,-2.9,35.4,-5.8,0.398052919,0.437238685,-0.429090243,0.682790613
904,2264195,395980,0.859,-0.379,0.247,-14.9,3.6,-1.9,-3.1,35.7,-6.3,0.398266549,0.437055574,-0.429273354,0.682668538
905,2267537,395980,0.863,-0.387,0.247,-14.9,3.6,-1.9,-3.1,35.7,-6.3,0.398480178,0.436902982,-0.429456465,0.682546464
906,2270702,395980,0.863,-0.383,0.251,-14.4,3,-1.8,-3.1,35.7,-6.3,0.398663289,0.436750389,-0.429609058,0.68242439
907,2272962,395990,0.859,-0.387,0.255,-14.1,2.5,-1.6,-3.1,35.7,-6.3,0.3988464,0.436597797,-0.429792169,0.682302316
908,2275187,395990,0.871,-0.383,0.258,-13.4,1.2,-0.7,-3.2,35.5,-6,0.398998993,0.436475723,-0.42997528,0.682180242
909,2277465,395990,0.867,-0.383,0.262,-13.4,1.2,-0.7,-3.2,35.5,-6,0.399151585,0.436353648,-0.430158391,0.682058168
910,2279440,395990,0.879,-0.383,0.262,-13.1,0.6,-0.1,-3.2,35.5,-6,0.399304178,0.436231574,-0.430341502,0.681936094
911,2281826,396000,0.875,-0.379,0.262,-12.7,0,0.2,-3.2,35.5,-6,0.399395734,0.4361095,-0.430524613,0.68181402
912,2285925,396000,0.875,-0.379,0.262,-12.7,0,0.2,-3.2,35.5,-6,0.399395734,0.4361095,-0.430524613,0.68181402
913,2288373,396000,0.875,-0.379,0.262,-12.7,0,0.2,-3.2,35.5,-6,0.399395734,0.4361095,-0.430524613,0.68181402
914,2290990,396000,0.902,-0.372,0.281,-11.3,-2.2,1.3,-3.4,35.4,-6,0.398541215,0.434705649,-0.431958983,0.682332835
915,2292965,396010,0.91,-0.364,0.289,-10.7,-3,1.7,-3.4,35.4,-6,0.398571734,0.434644612,-0.432111576,0.682210761
916,2295235,396010,0.914,-0.361,0.281,-9.9,-3.6,2.1,-3.4,35.4,-6,0.398602252,0.434583575,-0.432355724,0.682088687
917,2297424,396010,0.914,-0.361,0.281,-9.9,-3.6,2.1,-3.4,35.4,-6,0.398602252,0.434583575,-0.432355724,0.682088687
918,2300989,396010,0.93,-0.353,0.296,-8.4,-4.7,2.6,-3.4,35.7,-5.7,0.398602252,0.434522538,-0.432752464,0.681875057
919,2303145,396020,0.938,-0.353,0.296,-7.7,-5.1,2.9,-3.4,35.7,-5.7,0.398571734,0.434522538,-0.432935575,0.681783502
920,2305508,396020,0.938,-0.345,0.288,-6.9,-5.5,3.3,-3.4,35.7,-5.7,0.398541215,0.434492019,-0.433118686,0.681691946
921,2307674,396020,0.938,-0.345,0.288,-6.9,-5.5,3.3,-3.4,35.7,-5.7,0.398541215,0.434492019,-0.433118686,0.681691946
922,2309534,396020,0.942,-0.337,0.296,-5.6,-5.9,4.2,-2.5,34.9,-5.2,0.398480178,0.434492019,-0.433301798,0.681630909
923,2311989,396030,0.942,-0.33,0.292,-5.1,-5.9,4.7,-2.5,34.9,-5.2,0.398327586,0.434492019,-0.433637501,0.681508835
924,2314359,396030,0.949,-0.33,0.292,-4.6,-6,5.1,-2.5,34.9,-5.2,0.39823603,0.434492019,-0.433790094,0.681447798
925,2318227,396030,0.949,-0.33,0.292,-4.6,-6,5.1,-2.5,34.9,-5.2,0.39823603,0.434492019,-0.433790094,0.681447798
926,2320368,396030,0.945,-0.334,0.284,-3.8,-6.2,6,-4,36.6,-5.6,0.398113956,0.434492019,-0.433973205,0.68141728
927,2322646,396040,0.945,-0.322,0.28,-3.2,-6.2,6.7,-4,36.6,-5.6,0.397869808,0.434492019,-0.434308908,0.681356243
928,2324571,396040,0.942,-0.314,0.284,-2.5,-6,7.2,-4,36.6,-5.6,0.397717215,0.434492019,-0.434461501,0.681325724
929,2326973,396040,0.942,-0.314,0.284,-2.5,-6,7.2,-4,36.6,-5.6,0.397717215,0.434492019,-0.434461501,0.681325724
930,2329319,396040,0.942,-0.318,0.28,-0.9,-5.4,8.1,-3.8,36.3,-5.2,0.397564623,0.434492019,-0.434614093,0.681325724
931,2334011,396050,0.938,-0.318,0.269,0,-5,8.8,-3.8,36.3,-5.2,0.397198401,0.434492019,-0.434858242,0.681386761
932,2334370,396050,0.938,-0.314,0.265,0.7,-4.8,9.3,-3.8,36.3,-5.2,0.39701529,0.434461501,-0.434980316,0.68141728
933,2338476,396050,0.938,-0.314,0.265,0.7,-4.8,9.3,-3.8,36.3,-5.2,0.39701529,0.434461501,-0.434980316,0.68141728
934,2340648,396050,0.938,-0.314,0.265,0.7,-4.8,9.3,-3.8,36.3,-5.2,0.39701529,0.434461501,-0.434980316,0.68141728
935,2342730,396060,0.93,-0.318,0.261,3.1,-3.7,10.8,-4,36.4,-5,0.396618549,0.434186834,-0.435224464,0.681691946
936,2345026,396060,0.926,-0.322,0.253,3.7,-3.4,11.4,-4,36.4,-5,0.396374401,0.434156316,-0.435285501,0.681783502
937,2347100,396060,0.922,-0.318,0.253,4,-3.1,11.8,-4,36.4,-5,0.395886105,0.43406476,-0.435468612,0.681997131
938,2349436,396060,0.922,-0.318,0.253,4,-3.1,11.8,-4,36.4,-5,0.395886105,0.43406476,-0.435468612,0.681997131
939,2353296,396070,0.918,-0.329,0.246,4.4,-3,12.7,-4.1,36.2,-5.3,0.395641957,0.43406476,-0.435529649,0.682119205
940,2355500,396070,0.922,-0.326,0.249,4.4,-3.1,13,-4.1,36.2,-5.3,0.39536729,0.434034242,-0.435621204,0.682271798
941,2357053,396070,0.926,-0.334,0.249,4.4,-3.1,13.5,-4.1,36.2,-5.3,0.394817957,0.433942686,-0.435804315,0.682515946
942,2360687,396070,0.926,-0.334,0.249,4.4,-3.1,13.5,-4.1,36.2,-5.3,0.394817957,0.433942686,-0.435804315,0.682515946
943,2363278,396080,0.926,-0.33,0.245,4.1,-3.1,14.1,-3.8,36.1,-5.4,0.394543291,0.433881649,-0.435895871,0.68263802
944,2365040,396080,0.93,-0.334,0.249,3.8,-3,14.5,-3.8,36.1,-5.4,0.394268624,0.433820612,-0.436017945,0.682790613
945,2367115,396080,0.934,-0.326,0.253,3.4,-3,14.8,-3.8,36.1,-5.4,0.393993957,0.433759575,-0.4361095,0.682912687
946,2369453,396080,0.934,-0.33,0.253,3,-3.1,15.2,-3.8,36.1,-5.4,0.393688772,0.433698538,-0.436262093,0.683034761
947,2373315,396090,0.938,-0.322,0.257,2.6,-3.2,15.5,-3.6,36.2,-5.2,0.393414106,0.433606983,-0.436384167,0.683156835
948,2375667,396090,0.941,-0.322,0.257,2.1,-3.2,15.8,-3.6,36.2,-5.2,0.393108921,0.433515427,-0.43653676,0.683309427
949,2377837,396090,0.941,-0.326,0.261,1.6,-3.3,16,-3.6,36.2,-5.2,0.392834254,0.43345439,-0.436689352,0.683431501
950,2380182,396090,0.945,-0.322,0.265,1.2,-3.3,16.2,-3.6,36.2,-5.2,0.392559587,0.433332316,-0.436841945,0.683523057
951,2381789,396100,0.945,-0.314,0.268,0.9,-3.4,16.4,-3.2,36.2,-5.3,0.392254402,0.433240761,-0.437025056,0.683645131
952,2384883,396100,0.949,-0.314,0.268,0.7,-3.4,16.6,-3.2,36.2,-5.3,0.391979736,0.433149205,-0.437208167,0.683767205
953,2386962,396100,0.949,-0.314,0.268,0.6,-3.5,16.8,-3.2,36.2,-5.3,0.391674551,0.433057649,-0.437391278,0.683889279
954,2389407,396100,0.949,-0.314,0.265,0.6,-3.5,17,-3.2,36.2,-5.3,0.391399884,0.432935575,-0.437574389,0.684011353
955,2393240,396110,0.949,-0.314,0.265,0.6,-3.5,17,-3.2,36.2,-5.3,0.391399884,0.432935575,-0.437574389,0.684011353
956,2395004,396110,0.953,-0.307,0.268,0.9,-3.2,17.2,-2.8,36.2,-5.2,0.390881069,0.432477798,-0.437910092,0.684347056
957,2397046,396110,0.953,-0.31,0.264,1.1,-3.2,17.2,-2.8,36.2,-5.2,0.390575884,0.432386242,-0.438093204,0.684499649
958,2399359,396110,0.946,-0.302,0.272,1.4,-3,17.1,-2.8,36.2,-5.2,0.390301218,0.432264168,-0.438245796,0.684621723
959,2403091,396120,0.953,-0.303,0.268,1.7,-2.9,17.1,-2.8,36.2,-5.2,0.389996033,0.432172613,-0.438398389,0.684743797
960,2404412,396120,0.949,-0.299,0.264,2.2,-2.6,17,-2.5,35.8,-5.1,0.389690847,0.432050539,-0.438550981,0.68489639
961,2407987,396120,0.949,-0.299,0.264,2.6,-2.4,16.9,-2.5,35.8,-5.1,0.389385662,0.431958983,-0.438703574,0.685048982
962,2410023,396120,0.949,-0.295,0.264,3.1,-2.2,16.8,-2.5,35.8,-5.1,0.389080477,0.431867428,-0.438825648,0.685201575
963,2412073,396130,0.938,-0.295,0.261,3.6,-1.9,16.6,-2.5,35.8,-5.1,0.388775292,0.431745354,-0.438947722,0.685354167
964,2414438,396130,0.938,-0.295,0.261,4.1,-1.8,16.4,-2.3,35.7,-5.1,0.388470107,0.431653798,-0.439069796,0.68550676
965,2416724,396130,0.938,-0.295,0.257,4.7,-1.5,16.2,-2.3,35.7,-5.1,0.388164922,0.431562243,-0.439161351,0.685689871
966,2419222,396130,0.934,-0.291,0.253,5.3,-1.3,16.1,-2.3,35.7,-5.1,0.387859737,0.431470687,-0.439222388,0.685842463
967,2422951,396140,0.93,-0.295,0.249,5.9,-1.1,16,-2.3,35.7,-5.1,0.387554552,0.431379131,-0.439313944,0.686025575
968,2425291,396140,0.926,-0.294,0.249,6.3,-1,15.8,-1.9,35.5,-5,0.387249367,0.431318094,-0.439374981,0.686208686
969,2427493,396140,0.918,-0.29,0.249,6.6,-0.7,15.8,-1.9,35.5,-5,0.386944182,0.431226539,-0.439436018,0.686422315
970,2429506,396140,0.918,-0.283,0.249,6.9,-0.5,15.6,-1.9,35.5,-5,0.386638997,0.431134983,-0.439466536,0.686605426
971,2431910,396150,0.918,-0.287,0.242,7.1,-0.3,15.4,-1.9,35.5,-5,0.386333811,0.431073946,-0.439527573,0.686788537
972,2435678,396150,0.918,-0.287,0.242,7.1,-0.3,15.4,-1.9,35.5,-5,0.386333811,0.431073946,-0.439527573,0.686788537
973,2438161,396150,0.91,-0.282,0.242,7.8,0,15.4,-2.1,35.7,-5.4,0.385723441,0.430890835,-0.43958861,0.687215796
974,2440694,396150,0.91,-0.283,0.238,8.1,0,15.3,-2.1,35.7,-5.4,0.385418256,0.430829798,-0.43958861,0.687429426
975,2442882,396160,0.91,-0.279,0.234,8.6,0.1,15.2,-2.1,35.7,-5.4,0.385113071,0.430738243,-0.439619129,0.687612537
976,2445143,396160,0.91,-0.279,0.234,8.6,0.1,15.2,-2.1,35.7,-5.4,0.385113071,0.430738243,-0.439619129,0.687612537
977,2446773,396160,0.91,-0.279,0.234,8.6,0.1,15.2,-2.1,35.7,-5.4,0.385113071,0.430738243,-0.439619129,0.687612537
978,2449251,396160,0.898,-0.275,0.218,9.9,0.2,15.1,-1.9,35.5,-5.8,0.384441664,0.430616169,-0.439649648,0.688070315
979,2453485,396170,0.902,-0.271,0.222,10.3,0.2,15.1,-1.9,35.5,-5.8,0.38410596,0.430555132,-0.439619129,0.688283944
980,2455668,396170,0.902,-0.271,0.222,10.6,0.1,15.1,-1.9,35.5,-5.8,0.383800775,0.430494095,-0.439619129,0.688528092
981,2457915,396170,0.902,-0.271,0.222,10.6,0.1,15.1,-1.9,35.5,-5.8,0.383800775,0.430494095,-0.439619129,0.688528092
982,2460183,396170,0.898,-0.267,0.222,11,0.2,15,-3,35.5,-5.4,0.383465072,0.430433058,-0.43958861,0.68877224
983,2462061,396180,0.902,-0.263,0.218,11.1,0.2,14.7,-3,35.5,-5.4,0.382824183,0.430310984,-0.439527573,0.689230018
984,2464440,396180,0.902,-0.263,0.226,11.1,0.3,14.4,-3,35.5,-5.4,0.382488479,0.430280465,-0.439497055,0.689443648
985,2466868,396180,0.902,-0.263,0.226,11.1,0.3,14.4,-3,35.5,-5.4,0.382488479,0.430280465,-0.439497055,0.689443648
986,2470561,396180,0.906,-0.255,0.218,10.6,0.7,14,-1.1,35.7,-5.5,0.382183294,0.430219428,-0.439466536,0.689687796
987,2472945,396190,0.906,-0.259,0.226,10.3,0.8,13.7,-1.1,35.7,-5.5,0.381603442,0.430097354,-0.439405499,0.690145573
988,2475025,396190,0.902,-0.255,0.226,9.8,0.8,13.3,-1.1,35.7,-5.5,0.381298257,0.430036317,-0.439374981,0.690359203
989,2478027,396190,0.902,-0.255,0.226,9.8,0.8,13.3,-1.1,35.7,-5.5,0.381298257,0.430036317,-0.439374981,0.690359203
990,2480301,396190,0.906,-0.255,0.23,9,0.7,12.4,-1,35.7,-5.5,0.381054109,0.42997528,-0.439344462,0.690542314
991,2481781,396200,0.91,-0.251,0.23,8.4,0.6,12.2,-1,35.7,-5.5,0.380535295,0.429853206,-0.439313944,0.690908536
992,2484995,396200,0.914,-0.255,0.23,7.7,0.5,11.9,-1,35.7,-5.5,0.380291147,0.429792169,-0.439283425,0.691091647
993,2488046,396200,0.914,-0.255,0.23,7.7,0.5,11.9,-1,35.7,-5.5,0.380291147,0.429792169,-0.439283425,0.691091647
994,2490294,396200,0.914,-0.251,0.238,6.5,0.6,11.4,-1.1,35.8,-5.6,0.380046999,0.429731132,-0.439283425,0.691274758
995,2492503,396210,0.918,-0.251,0.234,5.9,0.7,11.1,-1.1,35.8,-5.6,0.379619739,0.429609058,-0.439313944,0.691579943
996,2495528,396210,0.918,-0.251,0.241,5.4,0.9,10.7,-1.1,35.8,-5.6,0.379375591,0.429548021,-0.439313944,0.691732536
997,2497913,396210,0.918,-0.251,0.241,5.4,0.9,10.7,-1.1,35.8,-5.6,0.379375591,0.429548021,-0.439313944,0.691732536
998,2499321,396210,0.918,-0.251,0.241,5.4,0.9,10.7,-1.1,35.8,-5.6,0.379375591,0.429548021,-0.439313944,0.691732536
999,2502473,396220,0.922,-0.251,0.245,4.5,1,9.7,-1,35.7,-5.5,0.379375591,0.429731132,-0.439161351,0.691702017
1000,2504493,396220,0.926,-0.248,0.249,4.2,1,9.3,-1,35.7,-5.5,0.379070406,0.429578539,-0.439161351,0.691976684
1001,2507838,396220,0.926,-0.248,0.241,3.9,1,8.9,-1,35.7,-5.5,0.378917814,0.429517502,-0.43919187,0.692098758
1002,2509260,396220,0.926,-0.248,0.241,3.9,1,8.9,-1,35.7,-5.5,0.378917814,0.429517502,-0.43919187,0.692098758
1003,2512322,396230,0.926,-0.248,0.245,3.5,1.2,7.9,-0.6,35.7,-5.6,0.378765221,0.429456465,-0.43919187,0.692220832
1004,2515437,396230,0.93,-0.252,0.241,3.4,1.4,7.4,-0.6,35.7,-5.6,0.378490555,0.429334391,-0.439222388,0.692434462
1005,2517699,396230,0.926,-0.259,0.245,3.4,1.4,7,-0.6,35.7,-5.6,0.37836848,0.429273354,-0.439222388,0.692526017
1006,2519971,396230,0.926,-0.259,0.245,3.4,1.4,7,-0.6,35.7,-5.6,0.37836848,0.429273354,-0.439222388,0.692526017
1007,2521973,396240,0.93,-0.252,0.245,3.2,1.3,6.1,-0.6,35.7,-5.6,0.378154851,0.42915128,-0.439222388,0.692739647
1008,2524292,396240,0.934,-0.252,0.245,3,1.2,5.5,-0.6,35.7,-5.6,0.378032777,0.429090243,-0.439222388,0.692800684
1009,2527531,396240,0.93,-0.255,0.245,2.9,1.1,5,-0.6,35.7,-5.6,0.377941221,0.429059725,-0.43919187,0.692892239
1010,2529253,396240,0.93,-0.255,0.245,2.9,1.1,5,-0.6,35.7,-5.6,0.377941221,0.429059725,-0.43919187,0.692892239
1011,2533455,396250,0.926,-0.259,0.241,2.7,0.9,4,-0.6,35.7,-5.6,0.377788629,0.428998688,-0.43919187,0.693044832
1012,2535461,396250,0.926,-0.259,0.241,2.5,0.8,3.6,-0.6,35.7,-5.6,0.377727592,0.428968169,-0.439161351,0.693105869
1013,2537673,396250,0.93,-0.263,0.241,2.3,0.7,3.2,-0.6,35.7,-5.6,0.377636036,0.428937651,-0.439161351,0.693166906
1014,2539731,396250,0.926,-0.263,0.245,2.3,0.6,2.8,-0.6,35.7,-5.6,0.377574999,0.428937651,-0.439161351,0.693197424
1015,2541746,396260,0.926,-0.263,0.245,2.2,0.4,2.6,-0.6,35.7,-5.6,0.377544481,0.428907132,-0.439130833,0.693258461
1016,2544258,396260,0.926,-0.259,0.245,2.2,0.3,2.3,-0.6,35.7,-5.6,0.377483444,0.428907132,-0.439130833,0.69328898
1017,2548962,396260,0.922,-0.263,0.245,2,0.1,1.9,-0.6,35.7,-5.6,0.377422407,0.428907132,-0.439100314,0.693350017
1018,2549299,396260,0.922,-0.263,0.245,2,0.1,1.9,-0.6,35.7,-5.6,0.377422407,0.428907132,-0.439100314,0.693350017
1019,2553258,396270,0.922,-0.263,0.241,1.8,-0.1,1.2,-0.9,35.4,-5.6,0.377605518,0.42915128,-0.438886685,0.693227943
1020,2555489,396270,0.922,-0.271,0.238,1.7,-0.2,0.8,-0.9,35.4,-5.6,0.377574999,0.42915128,-0.438886685,0.693258461
1021,2557784,396270,0.918,-0.267,0.245,1.5,-0.3,0.4,-0.9,35.4,-5.6,0.377544481,0.42915128,-0.438856166,0.69328898
1022,2559948,396270,0.918,-0.271,0.238,1.5,-0.3,0.4,-0.9,35.4,-5.6,0.377513962,0.429181799,-0.438825648,0.69328898
1023,2563289,396280,0.922,-0.271,0.245,1.5,-0.6,-0.3,-1.8,35.5,-5.4,0.377483444,0.429212317,-0.438825648,0.69328898
1024,2565535,396280,0.914,-0.275,0.242,1.3,-0.8,-0.7,-1.8,35.5,-5.4,0.377483444,0.429242836,-0.438795129,0.69328898
1025,2567962,396280,0.914,-0.275,0.246,1.2,-1.1,-1,-1.8,35.5,-5.4,0.377483444,0.429273354,-0.438764611,0.69328898
1026,2570174,396280,0.918,-0.271,0.245,1.2,-1.1,-1,-1.8,35.5,-5.4,0.377483444,0.429303873,-0.438764611,0.69328898
1027,2572065,396290,0.914,-0.279,0.242,0.5,-1.5,-1.8,-1.6,35.4,-5.3,0.377483444,0.42936491,-0.438734092,0.693258461
1028,2574485,396290,0.914,-0.275,0.242,0.2,-1.7,-2.1,-1.6,35.4,-5.3,0.377513962,0.429395428,-0.438734092,0.693227943
1029,2578355,396290,0.918,-0.271,0.242,0.2,-1.7,-2.1,-1.6,35.4,-5.3,0.377513962,0.429456465,-0.438734092,0.693197424
1030,2580559,396290,0.914,-0.271,0.246,-0.1,-1.9,-2.3,-1.6,35.4,-5.3,0.377544481,0.429486984,-0.438734092,0.693166906
1031,2583258,396300,0.918,-0.279,0.249,-0.6,-2.2,-2.8,-1.5,35.6,-4.7,0.377544481,0.429548021,-0.438734092,0.693105869
1032,2585511,396300,0.918,-0.271,0.242,-0.6,-2.2,-2.8,-1.5,35.6,-4.7,0.377574999,0.429609058,-0.438734092,0.693044832
