sample_index,elapsed_us,device_time_ms,acc_x_g,acc_y_g,acc_z_g,gyro_x_dps,gyro_y_dps,gyro_z_dps,mag_x_ut,mag_y_ut,mag_z_ut,quat_w,quat_x,quat_y,quat_z
0,3441,301330,0.942,-0.166,0.217,3,-1,2.6,-3.6,27.8,-20.7,0.340891751,0.496017335,-0.381023591,0.701803644
1,5478,301340,0.938,-0.17,0.221,2.7,-0.9,2.6,-3.6,27.8,-20.7,0.340830714,0.496017335,-0.381023591,0.701834162
2,7739,301340,0.938,-0.17,0.221,2.7,-0.9,2.6,-3.6,27.8,-20.7,0.340830714,0.496017335,-0.381023591,0.701834162
3,11650,301340,0.942,-0.166,0.221,2.4,-0.9,2.3,-3.4,27.7,-18.9,0.340739158,0.496047853,-0.381023591,0.701864681
4,13758,301340,0.938,-0.174,0.217,2.2,-0.9,2.1,-3.4,27.7,-18.9,0.340617084,0.496047853,-0.381023591,0.701925718
5,16007,301350,0.942,-0.17,0.221,2.2,-1,2,-3.4,27.7,-18.9,0.340556047,0.496078372,-0.380993072,0.701925718
6,18217,301350,0.942,-0.17,0.221,2.2,-1,2,-3.4,27.7,-18.9,0.340556047,0.496078372,-0.380993072,0.701925718
7,21219,301350,0.942,-0.178,0.217,2,-1,1.8,-3.8,27.6,-18.6,0.340433973,0.49610889,-0.380993072,0.701986755
8,23352,301350,0.942,-0.178,0.217,2,-1,1.5,-3.8,27.6,-18.6,0.340372936,0.496139409,-0.380993072,0.701986755
9,25419,301360,0.946,-0.174,0.221,1.8,-1,1.5,-3.8,27.6,-18.6,0.340311899,0.496139409,-0.380993072,0.702017273
10,27704,301360,0.946,-0.174,0.221,1.8,-1,1.5,-3.8,27.6,-18.6,0.340311899,0.496139409,-0.380993072,0.702017273
11,30829,301360,0.946,-0.174,0.221,1.8,-1,1.5,-3.8,27.6,-18.6,0.340311899,0.496139409,-0.380993072,0.702017273
12,33888,301360,0.946,-0.182,0.21,1.2,-0.6,1.2,-3.9,27.2,-19.3,0.340311899,0.496139409,-0.38084048,0.70207831
13,36357,301370,0.949,-0.182,0.213,1.1,-0.7,1.1,-3.9,27.2,-19.3,0.340311899,0.496169927,-0.38084048,0.70207831
14,38313,301370,0.953,-0.19,0.213,0.9,-0.6,1.1,-3.9,27.2,-19.3,0.340281381,0.496169927,-0.38084048,0.70207831
15,41199,301370,0.953,-0.19,0.213,0.9,-0.6,1.1,-3.9,27.2,-19.3,0.340281381,0.496169927,-0.38084048,0.70207831
16,43683,301370,0.949,-0.189,0.217,0.3,-0.5,0.9,-3.5,27.5,-19.7,0.340220344,0.496169927,-0.38084048,0.702108829
17,45797,301380,0.949,-0.193,0.213,0.1,-0.6,1,-3.5,27.5,-19.7,0.340220344,0.496169927,-0.380870998,0.702108829
18,47962,301380,0.953,-0.19,0.217,0,-0.8,1,-3.5,27.5,-19.7,0.340189825,0.496169927,-0.380870998,0.702108829
19,50266,301380,0.953,-0.193,0.221,-0.1,-1,1.1,-3.5,27.7,-19.2,0.340159307,0.496169927,-0.380901517,0.702108829
20,52708,301380,0.953,-0.193,0.217,-0.1,-1.2,1,-3.5,27.7,-19.2,0.340128788,0.496200446,-0.380932035,0.70207831
21,56421,301390,0.957,-0.194,0.213,0,-1.3,1.1,-3.5,27.7,-19.2,0.34009827,0.496200446,-0.380962554,0.70207831
22,58637,301390,0.957,-0.194,0.217,0,-1.3,1.2,-3.5,27.7,-19.2,0.340067751,0.496200446,-0.380962554,0.70207831
23,60227,301390,0.961,-0.182,0.217,0,-1.3,1.3,-3.5,27.6,-18.8,0.340037233,0.496230964,-0.380993072,0.70207831
24,62720,301390,0.961,-0.186,0.225,0.1,-1.5,1.4,-3.5,27.6,-18.8,0.340006714,0.496230964,-0.381023591,0.70207831
25,66702,301400,0.965,-0.178,0.217,0.2,-1.8,1.3,-3.5,27.6,-18.8,0.339976196,0.496261483,-0.381054109,0.70207831
26,68836,301400,0.957,-0.182,0.213,0.2,-1.8,1.3,-3.5,27.6,-18.8,0.339945677,0.496261483,-0.381084628,0.702047792
27,70354,301400,0.965,-0.17,0.217,0.7,-2.4,1.2,-3.7,27.6,-19.8,0.33988464,0.496292001,-0.381084628,0.702047792
28,72818,301400,0.965,-0.174,0.217,0.9,-2.6,1.1,-3.7,27.6,-19.8,0.339823603,0.496353038,-0.381115146,0.702047792
29,76673,301410,0.961,-0.17,0.209,0.9,-2.6,1.1,-3.7,27.6,-19.8,0.339793085,0.496383557,-0.381115146,0.702017273
30,79232,301410,0.965,-0.17,0.217,1.1,-2.7,1,-3.7,27.6,-19.8,0.339732047,0.496414075,-0.381145665,0.702017273
31,80834,301410,0.965,-0.17,0.217,1.1,-2.7,1,-3.7,27.6,-19.8,0.339732047,0.496414075,-0.381145665,0.702017273
32,82989,301410,0.965,-0.158,0.221,1.9,-2.5,1.3,-3.4,27.7,-19.3,0.339793085,0.496536149,-0.381023591,0.701986755
33,85271,301420,0.965,-0.159,0.213,2,-2.4,1.3,-3.4,27.7,-19.3,0.339732047,0.496566668,-0.381023591,0.701986755
34,89391,301420,0.965,-0.159,0.213,2,-2.4,1.3,-3.4,27.7,-19.3,0.33967101,0.496566668,-0.381023591,0.701986755
35,91514,301420,0.965,-0.155,0.217,2.2,-2.3,1.2,-3.4,27.7,-19.3,0.339609973,0.496658223,-0.381023591,0.701986755
36,93663,301420,0.961,-0.151,0.213,2.3,-2.1,1.2,-3.4,27.4,-19.5,0.339518418,0.496688742,-0.380993072,0.701986755
37,95874,301430,0.961,-0.155,0.213,2.3,-2.1,1.2,-3.4,27.4,-19.5,0.339457381,0.49671926,-0.380993072,0.701986755
38,98007,301430,0.965,-0.147,0.217,2.3,-2,1.1,-3.4,27.4,-19.5,0.339335307,0.496810816,-0.380993072,0.702017273
39,101328,301430,0.965,-0.147,0.217,2.3,-2,1.1,-3.4,27.4,-19.5,0.339335307,0.496810816,-0.380993072,0.702017273
40,104023,301430,0.961,-0.155,0.213,2.3,-2,1.2,-3.9,28,-17.8,0.33927427,0.496841334,-0.380962554,0.702017273
41,105951,301440,0.957,-0.151,0.209,2.3,-2,1.2,-3.9,28,-17.8,0.339243751,0.496871853,-0.380962554,0.702017273
42,107994,301440,0.961,-0.158,0.213,2.1,-1.7,1.1,-3.9,28,-17.8,0.339121677,0.496963408,-0.380962554,0.702047792
43,110491,301440,0.961,-0.158,0.213,2.1,-1.7,1.1,-3.9,28,-17.8,0.339121677,0.496963408,-0.380962554,0.702047792
44,112874,301440,0.957,-0.154,0.209,1.7,-1.2,0.9,-3.9,28,-17.8,0.33906064,0.496993927,-0.380932035,0.702047792
45,115496,301450,0.953,-0.162,0.209,1.7,-1.2,0.9,-3.9,28,-17.8,0.339030122,0.496993927,-0.380932035,0.702047792
46,117892,301450,0.953,-0.162,0.202,1.1,-1.1,0.9,-3.9,28,-17.8,0.338938566,0.497054964,-0.380932035,0.702047792
47,120195,301450,0.953,-0.162,0.202,1.1,-1.1,0.9,-3.9,28,-17.8,0.338938566,0.497054964,-0.380932035,0.702047792
48,124340,301450,0.953,-0.166,0.209,0.8,-1.1,1,-3.9,28,-17.8,0.338908048,0.497054964,-0.380932035,0.702047792
49,126468,301460,0.953,-0.17,0.209,-0.1,-0.9,1,-3.9,28,-17.8,0.338877529,0.497085482,-0.380962554,0.702047792
50,128364,301460,0.953,-0.174,0.205,-0.5,-0.7,0.9,-3.9,28,-17.8,0.338847011,0.497085482,-0.380993072,0.702047792
51,131531,301460,0.953,-0.174,0.205,-0.5,-0.7,0.9,-3.9,28,-17.8,0.338847011,0.497085482,-0.380993072,0.702047792
52,133916,301460,0.953,-0.174,0.205,-0.5,-0.7,0.9,-3.9,28,-17.8,0.338847011,0.497085482,-0.380993072,0.702047792
53,135436,301470,0.949,-0.174,0.209,-1,-0.7,0.8,-3.8,26.6,-20.1,0.338999603,0.497177038,-0.380870998,0.701986755
54,137874,301470,0.946,-0.178,0.217,-1.5,-0.8,0.7,-3.8,26.6,-20.1,0.338969085,0.497177038,-0.380932035,0.701956236
55,141738,301470,0.949,-0.182,0.206,-1.7,-0.9,0.7,-3.8,26.6,-20.1,0.338969085,0.497177038,-0.380993072,0.701925718
56,144005,301470,0.949,-0.182,0.206,-1.7,-0.9,0.7,-3.8,26.6,-20.1,0.338969085,0.497177038,-0.380993072,0.701925718
57,146211,301480,0.949,-0.178,0.213,-1.8,-1,0.7,-3.7,26.6,-19.9,0.338969085,0.497177038,-0.381023591,0.701895199
58,148540,301480,0.953,-0.178,0.209,-2,-0.9,0.7,-3.7,26.6,-19.9,0.338999603,0.497177038,-0.381115146,0.701864681
59,150471,301480,0.953,-0.178,0.209,-2.1,-0.9,0.6,-3.7,26.6,-19.9,0.338999603,0.497146519,-0.381176183,0.701834162
60,153905,301480,0.953,-0.178,0.209,-2.1,-0.9,0.6,-3.7,26.6,-19.9,0.338999603,0.497146519,-0.381176183,0.701834162
61,155874,301490,0.949,-0.178,0.206,-2.1,-1.1,0.7,-3.8,27.5,-19.8,0.338999603,0.497146519,-0.381267739,0.701773125
62,157945,301490,0.953,-0.182,0.205,-2.2,-1.1,0.7,-3.8,27.5,-19.8,0.338999603,0.497146519,-0.381328776,0.701742607
63,161024,301490,0.953,-0.182,0.205,-2.2,-1.2,0.7,-3.8,27.5,-19.8,0.338999603,0.497146519,-0.381389813,0.701742607
64,162920,301490,0.953,-0.182,0.205,-2.2,-1.2,0.7,-3.8,27.5,-19.8,0.338999603,0.497146519,-0.381389813,0.701742607
65,165259,301500,0.957,-0.182,0.201,-2.1,-1.4,0.6,-3.8,27.5,-20,0.338999603,0.497146519,-0.381481368,0.70168157
66,169189,301500,0.957,-0.182,0.201,-2.1,-1.5,0.6,-3.8,27.5,-20,0.338999603,0.497146519,-0.381542405,0.701651051
67,171431,301500,0.953,-0.182,0.209,-1.9,-1.6,0.6,-3.8,27.5,-20,0.338999603,0.497146519,-0.381572924,0.701620533
68,173663,301500,0.961,-0.178,0.209,-1.8,-1.6,0.5,-3.7,28.1,-19.9,0.338999603,0.497146519,-0.381633961,0.701590014
69,175839,301510,0.953,-0.182,0.202,-1.5,-1.5,0.4,-3.7,28.1,-19.9,0.338999603,0.497146519,-0.38166448,0.701559496
70,177680,301510,0.953,-0.182,0.202,-1.4,-1.5,0.3,-3.7,28.1,-19.9,0.338999603,0.497177038,-0.381694998,0.701528977
71,181501,301510,0.957,-0.182,0.209,-1.4,-1.5,0.3,-3.7,28.1,-19.9,0.338999603,0.497177038,-0.381725517,0.701498459
72,184036,301510,0.957,-0.182,0.209,-1.4,-1.5,0.3,-3.7,28.1,-19.9,0.338999603,0.497177038,-0.381725517,0.701498459
73,185993,301520,0.957,-0.182,0.205,-1.3,-1.6,0.2,-3.8,28.5,-20,0.339091159,0.49732963,-0.381694998,0.701376385
74,188273,301520,0.961,-0.17,0.205,-1.4,-1.7,0.1,-3.8,28.5,-20,0.339091159,0.497360149,-0.381725517,0.701345866
75,190370,301520,0.957,-0.17,0.201,-1.5,-1.7,0.1,-3.8,28.5,-20,0.339091159,0.497360149,-0.381756035,0.701315348
76,192678,301520,0.961,-0.166,0.209,-1.5,-1.7,0.1,-3.8,28.5,-20,0.339091159,0.497390667,-0.381786554,0.701284829
77,196482,301530,0.961,-0.162,0.197,-1.6,-1.7,0.4,-3.9,28.1,-18.6,0.339091159,0.497390667,-0.381847591,0.701254311
78,198788,301530,0.957,-0.166,0.205,-1.6,-1.7,0.5,-3.9,28.1,-18.6,0.339091159,0.497390667,-0.381878109,0.701223792
79,200216,301530,0.953,-0.166,0.205,-1.6,-1.7,0.5,-3.9,28.1,-18.6,0.33906064,0.497390667,-0.381908628,0.701193274
80,204255,301530,0.953,-0.166,0.202,-1.6,-1.7,0.4,-3.9,28.1,-18.6,0.33906064,0.497421186,-0.381969665,0.701193274
81,206526,301540,0.953,-0.162,0.198,-1.6,-1.4,0.1,-3.4,28.2,-19.1,0.33906064,0.497421186,-0.382000183,0.701162755
82,208161,301540,0.961,-0.166,0.201,-1.6,-1.4,0.1,-3.4,28.2,-19.1,0.339091159,0.497421186,-0.382030702,0.701132237
83,211345,301540,0.953,-0.162,0.198,-1.7,-1.4,0.1,-3.4,28.2,-19.1,0.339091159,0.497451704,-0.382091739,0.701101718
84,213513,301540,0.961,-0.162,0.201,-1.7,-1.4,0.1,-3.4,28.2,-19.1,0.339091159,0.497451704,-0.382122257,0.7010712
85,215740,301550,0.957,-0.166,0.198,-1.8,-1.7,0,-3.7,27.9,-18.7,0.339091159,0.497451704,-0.382152776,0.701040681
86,218597,301550,0.957,-0.162,0.201,-1.8,-1.7,0,-3.7,27.9,-18.7,0.339091159,0.497482223,-0.382213813,0.700979644
87,220897,301550,0.961,-0.158,0.209,-2.2,-1.9,0,-3.7,27.9,-18.7,0.339121677,0.497512741,-0.382305368,0.700918607
88,223131,301550,0.961,-0.158,0.209,-2.2,-1.9,0,-3.7,27.9,-18.7,0.339121677,0.497512741,-0.382305368,0.700918607
89,225269,301560,0.961,-0.159,0.201,-2.5,-1.9,-0.1,-3.5,28,-18.5,0.339121677,0.497512741,-0.382335887,0.70085757
90,229193,301560,0.957,-0.158,0.205,-2.8,-1.8,-0.1,-3.5,28,-18.5,0.339152196,0.497512741,-0.382396924,0.700827052
91,231593,301560,0.961,-0.155,0.205,-3.6,-1.6,-0.4,-3.5,28,-18.5,0.339213233,0.49754326,-0.382518998,0.700735496
92,233742,301560,0.961,-0.155,0.205,-3.6,-1.6,-0.4,-3.5,28,-18.5,0.339213233,0.49754326,-0.382518998,0.700735496
93,235948,301570,0.961,-0.155,0.205,-3.6,-1.6,-0.4,-3.5,28,-18.5,0.339213233,0.49754326,-0.382518998,0.700735496
94,238294,301570,0.961,-0.166,0.205,-4.2,-1.6,-0.2,-3.8,28.3,-19,0.339579455,0.497848445,-0.382213813,0.700460829
95,242218,301570,0.965,-0.162,0.205,-4.3,-1.4,-0.1,-3.8,28.3,-19,0.339640492,0.497848445,-0.382305368,0.700430311
96,243975,301570,0.961,-0.159,0.197,-4.8,-1.3,-0.2,-3.8,28.3,-19,0.339732047,0.497817927,-0.382457961,0.700308237
97,246394,301580,0.961,-0.159,0.197,-4.8,-1.3,-0.2,-3.8,28.3,-19,0.339732047,0.497817927,-0.382457961,0.700308237
98,248501,301580,0.965,-0.155,0.201,-5,-1.2,-0.2,-3.6,27.3,-18.6,0.339762566,0.497817927,-0.382549516,0.7002472
99,250755,301580,0.965,-0.155,0.197,-5.2,-1.1,-0.3,-3.6,27.3,-18.6,0.33988464,0.497787408,-0.382702109,0.700125126
100,252810,301580,0.965,-0.159,0.197,-5.3,-1.1,-0.3,-3.6,27.3,-18.6,0.339915159,0.49775689,-0.382793664,0.700064089
101,255420,301590,0.965,-0.159,0.197,-5.3,-1.1,-0.3,-3.6,27.3,-18.6,0.339915159,0.49775689,-0.382793664,0.700064089
102,258343,301590,0.965,-0.159,0.197,-5.2,-1.2,-0.3,-3.8,28.4,-18.6,0.340037233,0.497726371,-0.382976775,0.699942015
103,262286,301590,0.965,-0.155,0.19,-5.2,-1.1,-0.3,-3.8,28.4,-18.6,0.340067751,0.497695853,-0.383068331,0.699880978
104,264507,301590,0.969,-0.151,0.197,-5.2,-1.1,-0.3,-3.8,28.4,-18.6,0.340128788,0.497665334,-0.383129368,0.699819941
105,266374,301600,0.969,-0.151,0.197,-5.2,-1.1,-0.3,-3.8,28.4,-18.6,0.340128788,0.497665334,-0.383129368,0.699819941
106,268613,301600,0.961,-0.151,0.197,-5.2,-0.9,-0.6,-4.3,28.5,-18.8,0.340250862,0.497634816,-0.383281961,0.699728385
107,270898,301600,0.965,-0.151,0.186,-5.3,-0.8,-0.7,-4.3,28.5,-18.8,0.340311899,0.497634816,-0.383373516,0.699667348
108,272906,301600,0.965,-0.151,0.193,-5.3,-0.8,-0.7,-4.3,28.5,-18.8,0.340372936,0.497604297,-0.383465072,0.699606311
109,275269,301610,0.965,-0.159,0.186,-5.5,-0.8,-0.8,-4.8,28.5,-18.9,0.340433973,0.497573778,-0.383556627,0.699545274
110,279481,301610,0.969,-0.155,0.189,-5.8,-0.9,-0.9,-4.8,28.5,-18.9,0.34049501,0.497573778,-0.383648183,0.699453719
111,281804,301610,0.961,-0.151,0.19,-5.8,-0.9,-0.9,-4.8,28.5,-18.9,0.340586566,0.49754326,-0.38370922,0.699392682
112,284032,301610,0.961,-0.147,0.19,-5.9,-1,-0.8,-4.8,28.5,-18.9,0.340647603,0.497512741,-0.383800775,0.699331645
113,286449,301620,0.961,-0.147,0.19,-5.9,-1,-0.8,-4.8,28.5,-18.9,0.340647603,0.497512741,-0.383800775,0.699331645
114,288872,301620,0.961,-0.151,0.194,-6.4,-1.3,-1.1,-5.2,28.4,-19.1,0.341044343,0.498062075,-0.383587146,0.698873867
115,290317,301620,0.957,-0.155,0.194,-6.6,-1.3,-1.1,-5.2,28.4,-19.1,0.341135899,0.498031556,-0.38370922,0.698782311
116,293327,301620,0.957,-0.159,0.19,-6.6,-1.3,-1.1,-5.2,28.4,-19.1,0.341227454,0.498001038,-0.383800775,0.698721274
117,296437,301630,0.961,-0.159,0.19,-6.8,-1.3,-1.2,-5.2,28.4,-19.1,0.341288491,0.498001038,-0.383892331,0.698629719
118,297800,301630,0.957,-0.159,0.186,-6.9,-1.3,-1.4,-3.1,27.1,-18.3,0.341380047,0.497970519,-0.383983886,0.698538163
119,301696,301630,0.957,-0.151,0.19,-7,-1.3,-1.6,-3.1,27.1,-18.3,0.341471603,0.497940001,-0.38410596,0.698446608
120,303964,301630,0.953,-0.155,0.182,-7,-1.3,-1.6,-3.1,27.1,-18.3,0.341563158,0.497940001,-0.384197516,0.698385571
121,306235,301640,0.949,-0.151,0.186,-7.2,-1.3,-1.6,-3.1,27.1,-18.3,0.341654714,0.497909482,-0.384289071,0.698294015
122,308394,301640,0.953,-0.155,0.186,-7.8,-1.3,-1.7,-4.7,28.7,-18.5,0.341746269,0.497878964,-0.384411145,0.69820246
123,311133,301640,0.957,-0.151,0.186,-7.8,-1.3,-1.7,-4.7,28.7,-18.5,0.341868343,0.497878964,-0.384533219,0.698110904
124,314173,301640,0.957,-0.151,0.178,-8.2,-1.2,-1.7,-4.7,28.7,-18.5,0.341959899,0.497848445,-0.384624775,0.698019349
125,315451,301650,0.957,-0.151,0.174,-8.6,-1.2,-1.9,-4.7,28.7,-18.5,0.342081973,0.497817927,-0.384746849,0.697897275
126,318746,301650,0.961,-0.151,0.166,-9.1,-1,-1.9,-4.7,28.7,-18.5,0.342204047,0.497787408,-0.384868923,0.697805719
127,320190,301650,0.957,-0.147,0.17,-9.5,-1,-2,-4.7,28.7,-18.5,0.342326121,0.497726371,-0.385021516,0.697683645
128,322909,301650,0.961,-0.155,0.166,-10,-0.7,-2,-4.7,28.7,-18.5,0.342448195,0.497695853,-0.38514359,0.69759209
129,326139,301660,0.965,-0.155,0.166,-10.3,-0.5,-2.1,-4.7,28.7,-18.5,0.342600787,0.497634816,-0.385296182,0.697470016
130,327661,301660,0.965,-0.151,0.166,-10.7,-0.3,-2.2,-5.1,28.7,-18.6,0.34275338,0.497573778,-0.385418256,0.69737846
131,330338,301660,0.965,-0.155,0.166,-11.1,-0.1,-2.4,-5.1,28.7,-18.6,0.342905972,0.497512741,-0.385570849,0.697256386
132,333509,301660,0.969,-0.155,0.158,-11.6,0.2,-2.6,-5.1,28.7,-18.6,0.343241676,0.497390667,-0.385876034,0.697012238
133,336453,301670,0.969,-0.155,0.158,-11.6,0.2,-2.6,-5.1,28.7,-18.6,0.343241676,0.497390667,-0.385876034,0.697012238
134,337899,301670,0.969,-0.155,0.158,-11.6,0.2,-2.6,-5.1,28.7,-18.6,0.343241676,0.497390667,-0.385876034,0.697012238
135,341773,301670,0.977,-0.163,0.162,-12.2,0.3,-2.7,-4.8,28.9,-18.3,0.343516343,0.497878964,-0.385967589,0.696462905
136,344144,301670,0.973,-0.163,0.166,-12.5,0.2,-2.7,-4.8,28.9,-18.3,0.343699454,0.497787408,-0.3861507,0.696340831
137,346280,301680,0.98,-0.167,0.162,-13.2,-0.1,-2.8,-4.8,28.9,-18.3,0.344096194,0.497634816,-0.386486404,0.696096683
138,348523,301680,0.98,-0.167,0.162,-13.2,-0.1,-2.8,-4.8,28.9,-18.3,0.344096194,0.497634816,-0.386486404,0.696096683
139,350799,301680,0.981,-0.159,0.17,-13.3,-0.3,-2.8,-3.1,27.9,-18.4,0.344279305,0.497573778,-0.386669515,0.69594409
140,353969,301680,0.984,-0.163,0.17,-13.5,-0.5,-2.7,-3.1,27.9,-18.4,0.344462416,0.497512741,-0.386822108,0.695791498
141,356309,301690,0.988,-0.159,0.166,-14.2,-1.4,-2.6,-3.1,27.9,-18.4,0.344828639,0.497360149,-0.38718833,0.695516831
142,357793,301690,0.988,-0.159,0.166,-14.2,-1.4,-2.6,-3.1,27.9,-18.4,0.344828639,0.497360149,-0.38718833,0.695516831
143,360167,301690,0.988,-0.155,0.17,-14.4,-1.8,-2.4,-4.1,28.5,-18.4,0.344981231,0.497299112,-0.387432478,0.69533372
144,364148,301690,0.988,-0.151,0.162,-14.8,-2.3,-1.7,-4.1,28.5,-18.4,0.345347453,0.497177038,-0.387859737,0.694998016
145,366465,301700,0.992,-0.144,0.158,-14.9,-2.3,-1.4,-4.1,28.5,-18.4,0.345500046,0.497116001,-0.388103885,0.694845424
146,368635,301700,0.992,-0.144,0.158,-14.9,-2.3,-1.4,-4.1,28.5,-18.4,0.345500046,0.497116001,-0.388103885,0.694845424
147,370727,301700,0.988,-0.144,0.154,-14.9,-2.4,-1.3,-4,28.2,-18.3,0.345652638,0.497054964,-0.388317515,0.694692831
148,373609,301700,0.996,-0.136,0.158,-14.8,-2.4,-1.1,-4,28.2,-18.3,0.345988342,0.49693289,-0.388805811,0.694357128
149,376904,301710,0.996,-0.136,0.154,-14.8,-2.4,-1.1,-4,28.2,-18.3,0.346140934,0.496871853,-0.38901944,0.694204535
150,378621,301710,0.996,-0.136,0.154,-14.8,-2.4,-1.1,-4,28.2,-18.3,0.346140934,0.496871853,-0.38901944,0.694204535
151,380302,301710,1,-0.132,0.142,-14.7,-2.2,-1.2,-3.6,28.2,-18.5,0.346476638,0.49671926,-0.389477218,0.693868831
152,383590,301710,1,-0.132,0.142,-14.9,-2.3,-1.3,-3.6,28.2,-18.5,0.346629231,0.496658223,-0.389721366,0.693716239
153,385818,301720,1,-0.132,0.138,-14.9,-2.3,-1.3,-3.6,28.2,-18.5,0.346781823,0.496566668,-0.389934996,0.693563646
154,388184,301720,1,-0.132,0.138,-14.9,-2.3,-1.3,-3.6,28.2,-18.5,0.346781823,0.496566668,-0.389934996,0.693563646
155,391788,301720,1,-0.132,0.138,-14.9,-2.3,-1.3,-3.6,28.2,-18.5,0.346781823,0.496566668,-0.389934996,0.693563646
156,394216,301720,1.008,-0.144,0.13,-15.3,-3.3,-2.1,-3.4,28.5,-17.8,0.347270119,0.497024445,-0.390331736,0.692800684
157,396343,301730,1.012,-0.144,0.13,-15.8,-3.2,-2.2,-3.4,28.5,-17.8,0.34745323,0.496963408,-0.390575884,0.692617573
158,397840,301730,1.008,-0.14,0.13,-15.8,-3.2,-2.2,-3.4,28.5,-17.8,0.347605823,0.496902371,-0.390820032,0.692373424
159,400769,301730,1.008,-0.14,0.13,-15.8,-3.2,-2.2,-3.4,28.5,-17.8,0.347605823,0.496902371,-0.390820032,0.692373424
160,403609,301730,1.015,-0.152,0.13,-17.8,-2.3,-2.7,-3.9,28.5,-18.1,0.348033082,0.496780297,-0.391308329,0.692037721
161,406799,301740,1.023,-0.156,0.122,-18.7,-2.3,-3.1,-3.9,28.5,-18.1,0.34827723,0.496688742,-0.391582995,0.691824091
162,408335,301740,1.023,-0.16,0.118,-18.7,-2.3,-3.1,-3.9,28.5,-18.1,0.34849086,0.496566668,-0.391857662,0.691610462
163,411404,301740,1.023,-0.16,0.118,-18.7,-2.3,-3.1,-3.9,28.5,-18.1,0.34849086,0.496566668,-0.391857662,0.691610462
164,413687,301740,1.027,-0.16,0.122,-20.6,-3.2,-3.6,-3.7,28.5,-17.6,0.349009674,0.496444594,-0.392437513,0.691122166
165,415866,301750,1.027,-0.16,0.126,-20.6,-3.2,-3.6,-3.7,28.5,-17.6,0.349253822,0.496383557,-0.392742698,0.690908536
166,417971,301750,1.027,-0.156,0.126,-20.9,-3.3,-3.3,-3.7,28.5,-17.6,0.349497971,0.496292001,-0.393047884,0.690664388
167,421151,301750,1.031,-0.156,0.126,-21.9,-3.3,-3.2,-3.2,28.3,-17.3,0.349742119,0.496200446,-0.393353069,0.69042024
168,423311,301750,1.031,-0.164,0.126,-22.7,-3.2,-3.2,-3.2,28.3,-17.3,0.350016785,0.49610889,-0.393688772,0.690145573
169,426340,301760,1.031,-0.16,0.122,-22.7,-3.2,-3.2,-3.2,28.3,-17.3,0.350291452,0.496017335,-0.394024476,0.689901425
170,427683,301760,1.035,-0.168,0.13,-23.8,-3,-3.3,-3.2,28.3,-17.3,0.350566118,0.49589526,-0.394360179,0.689626759
171,430843,301760,1.043,-0.156,0.125,-25.6,-2.8,-3.6,-3.2,28.4,-17.7,0.350871303,0.495773186,-0.394726402,0.689352092
172,433805,301760,1.043,-0.16,0.129,-25.6,-2.8,-3.6,-3.2,28.4,-17.7,0.351176489,0.495651112,-0.395092624,0.689077425
173,435146,301770,1.047,-0.156,0.129,-26.2,-2.6,-3.7,-3.2,28.4,-17.7,0.351512192,0.495529038,-0.395489364,0.688802759
174,438336,301770,1.055,-0.157,0.129,-26.6,-2.4,-3.5,-3.2,28.4,-17.7,0.351817377,0.495406964,-0.395855586,0.688467055
175,440426,301770,1.055,-0.157,0.129,-26.6,-2.4,-3.5,-3.2,28.4,-17.7,0.351817377,0.495406964,-0.395855586,0.688467055
176,443335,301770,1.058,-0.149,0.129,-27.8,-1.2,-2.7,-3.7,28.8,-17.9,0.352153081,0.495529038,-0.396313364,0.687978759
177,446466,301780,1.062,-0.145,0.133,-27.8,-1.2,-2.7,-3.7,28.8,-17.9,0.352488784,0.495376446,-0.396710105,0.687704093
178,447842,301780,1.062,-0.137,0.133,-28,-0.5,-2.5,-3.7,28.8,-17.9,0.352824488,0.495162816,-0.397106845,0.687429426
179,450937,301780,1.059,-0.125,0.129,-28.2,0.3,-2.4,-3.7,28.8,-17.9,0.35319071,0.494979705,-0.397503586,0.687154759
180,453966,301780,1.059,-0.118,0.129,-28.6,2,-2.2,-4.7,28.7,-17.4,0.353526414,0.494735557,-0.397900327,0.686910611
181,455327,301790,1.055,-0.114,0.133,-28.6,2,-2.2,-4.7,28.7,-17.4,0.353892636,0.494521928,-0.398297067,0.686666463
182,458332,301790,1.059,-0.11,0.125,-28.6,2.6,-1.8,-4.7,28.7,-17.4,0.354258858,0.494277779,-0.398663289,0.686452834
183,461429,301790,1.055,-0.102,0.125,-28.6,3.1,-1.4,-4.7,28.7,-17.4,0.35462508,0.494003113,-0.39906003,0.686208686
184,463830,301790,1.051,-0.09,0.129,-28.4,3.5,-0.8,-3.2,28.7,-17.5,0.354960784,0.493728446,-0.399456771,0.685995056
185,465952,301800,1.047,-0.082,0.129,-28.1,3.9,0,-3.2,28.7,-17.5,0.355296487,0.49345378,-0.399853511,0.685781426
186,468002,301800,1.051,-0.074,0.125,-27.5,4,0.6,-3.2,28.7,-17.5,0.355632191,0.493179113,-0.400219733,0.685598315
187,470290,301800,1.051,-0.074,0.129,-27,4.2,1,-3.2,28.7,-17.5,0.355937376,0.492904447,-0.400616474,0.685415204
188,472779,301800,1.055,-0.059,0.129,-26.7,4.2,1.2,-3.2,29.2,-17.5,0.356242561,0.49262978,-0.400982696,0.685232093
189,476387,301810,1.051,-0.055,0.129,-26.8,4.4,1.2,-3.2,29.2,-17.5,0.356547746,0.492324595,-0.401379437,0.685079501
190,477761,301810,1.047,-0.059,0.121,-27.6,5.1,1.1,-3.2,29.2,-17.5,0.357188635,0.491744743,-0.402142399,0.684713279
191,481788,301810,1.047,-0.059,0.121,-27.6,5.1,1.1,-3.2,29.2,-17.5,0.357188635,0.491744743,-0.402142399,0.684713279
192,484069,301810,1.047,-0.055,0.125,-28.2,5.7,1,-3.4,28.7,-17.2,0.357524339,0.491439558,-0.40253914,0.684530168
193,486442,301820,1.043,-0.051,0.121,-28.9,6.4,1,-3.4,28.7,-17.2,0.357890561,0.491103854,-0.402935881,0.684347056
194,488595,301820,1.043,-0.051,0.125,-30.6,7.4,1.1,-3.4,28.7,-17.2,0.358623005,0.490401929,-0.403729362,0.683980834
195,490800,301820,1.043,-0.051,0.125,-30.6,7.4,1.1,-3.4,28.7,-17.2,0.358623005,0.490401929,-0.403729362,0.683980834
196,492878,301820,1.043,-0.051,0.125,-30.6,7.4,1.1,-3.4,28.7,-17.2,0.358623005,0.490401929,-0.403729362,0.683980834
197,495163,301830,1.039,-0.055,0.125,-32.6,8.3,1,-3.6,29,-17.5,0.359569079,0.49098178,-0.403698843,0.683095798
198,498222,301830,1.035,-0.051,0.121,-33.9,8.8,1,-3.6,29,-17.5,0.359996338,0.49058504,-0.404156621,0.682882168
199,501319,301830,1.027,-0.066,0.126,-36.7,10,0.9,-3.6,29,-17.5,0.360911893,0.489700003,-0.405102695,0.682485427
200,503565,301830,1.027,-0.066,0.126,-36.7,10,0.9,-3.6,29,-17.5,0.360911893,0.489700003,-0.405102695,0.682485427
201,506491,301840,1.024,-0.07,0.13,-38.1,10.6,0.8,-3.2,29,-16.8,0.361400189,0.489242225,-0.405590991,0.682271798
202,508838,301840,1.02,-0.078,0.137,-41.3,11.9,0.8,-3.2,29,-16.8,0.362437819,0.488235115,-0.40662862,0.68181402
203,511134,301840,1.016,-0.086,0.134,-42.9,12.5,0.8,-3.2,29,-16.8,0.362987152,0.4877163,-0.407177953,0.681569872
204,513238,301840,1.016,-0.086,0.134,-42.9,12.5,0.8,-3.2,29,-16.8,0.362987152,0.4877163,-0.407177953,0.681569872
205,516349,301850,1.016,-0.089,0.13,-44.5,13.2,0.8,-3.2,29,-16.8,0.363567003,0.487166967,-0.407727287,0.681325724
206,518526,301850,1.004,-0.105,0.138,-47.5,14.1,0.8,-3.2,29,-16.8,0.364787744,0.485976745,-0.408917508,0.680776391
207,520831,301850,1.004,-0.105,0.134,-47.5,14.1,0.8,-3.2,29,-16.8,0.365428632,0.485396893,-0.409527879,0.680532243
208,523842,301850,1.004,-0.105,0.134,-47.5,14.1,0.8,-3.2,29,-16.8,0.365428632,0.485396893,-0.409527879,0.680532243
209,526074,301860,0.996,-0.116,0.142,-52.2,14.7,0.7,-3.2,29,-16.8,0.366740928,0.484115116,-0.410840175,0.679921873
210,529008,301860,0.992,-0.124,0.138,-53.8,14.9,0.6,-3.2,29,-16.8,0.367442854,0.483443709,-0.411511582,0.679586169
211,531299,301860,0.988,-0.132,0.142,-53.8,14.9,0.6,-3.2,29,-16.8,0.368114261,0.48280282,-0.412213507,0.679280984
212,534267,301860,0.988,-0.132,0.142,-53.8,14.9,0.6,-3.2,29,-16.8,0.368114261,0.48280282,-0.412213507,0.679280984
213,536590,301870,0.98,-0.147,0.15,-57.5,15.8,0.5,-3.2,29,-16.8,0.36957915,0.481398968,-0.413647877,0.678579058
214,538842,301870,0.977,-0.147,0.154,-57.5,15.8,0.5,-3.2,29,-16.8,0.370342112,0.480697043,-0.414380322,0.678243355
215,541077,301870,0.969,-0.151,0.15,-58.6,16.1,0.4,-3.2,29,-16.8,0.371074557,0.479995117,-0.415143284,0.677877132
216,543337,301870,0.969,-0.151,0.15,-58.6,16.1,0.4,-3.2,29,-16.8,0.371074557,0.479995117,-0.415143284,0.677877132
217,545425,301880,0.969,-0.151,0.15,-58.6,16.1,0.4,-3.2,29,-16.8,0.371074557,0.479995117,-0.415143284,0.677877132
218,547677,301880,0.953,-0.162,0.162,-61.5,17.6,-0.1,-3.2,29,-16.8,0.372753075,0.478652303,-0.416608173,0.676992096
219,551732,301880,0.949,-0.17,0.162,-61.9,17.8,-0.3,-3.2,29,-16.8,0.373577074,0.47788934,-0.417371136,0.676595355
220,554168,301880,0.941,-0.166,0.163,-61.9,17.8,-0.3,-3.2,29,-16.8,0.374401074,0.477126377,-0.418134098,0.676229133
221,556241,301890,0.941,-0.166,0.163,-61.9,17.8,-0.3,-3.2,29,-16.8,0.374401074,0.477126377,-0.418134098,0.676229133
222,558371,301890,0.93,-0.166,0.167,-62.4,18.5,-1,-3.8,30.3,-15.4,0.376049074,0.475600452,-0.419660024,0.675435652
223,560414,301890,0.93,-0.17,0.159,-62.4,18.5,-1,-3.8,30.3,-15.4,0.376873074,0.47480697,-0.420392468,0.67506943
224,562646,301890,0.926,-0.17,0.167,-62.3,18.6,-1.2,-3.8,30.3,-15.4,0.377727592,0.474044008,-0.421185949,0.674672689
225,565727,301900,0.922,-0.17,0.163,-62.2,19.1,-1.7,-3.9,30.8,-14.9,0.378551592,0.473250526,-0.421918394,0.674275948
226,568823,301900,0.922,-0.174,0.163,-62.3,19.3,-2,-3.9,30.8,-14.9,0.379375591,0.472487564,-0.422650838,0.673879208
227,571092,301900,0.918,-0.174,0.159,-62.3,19.3,-2,-3.9,30.8,-14.9,0.380260628,0.471694082,-0.423383282,0.673482467
228,573345,301900,0.918,-0.17,0.159,-62.3,19.5,-2.3,-3.9,30.8,-14.9,0.381115146,0.470900601,-0.424115726,0.673085726
229,576413,301910,0.914,-0.174,0.151,-62.5,19.7,-3,-3.6,30.9,-14.2,0.382000183,0.470137638,-0.42484817,0.672688986
230,578479,301910,0.914,-0.177,0.155,-62.5,19.7,-3,-3.6,30.9,-14.2,0.382854701,0.469344157,-0.425550096,0.672292245
231,581662,301910,0.914,-0.177,0.155,-62.8,19.7,-3.2,-3.6,30.9,-14.2,0.383739738,0.468550676,-0.426252022,0.671895505
232,583090,301910,0.918,-0.178,0.159,-63,19.6,-3.4,-3.6,30.9,-14.2,0.384594256,0.467787713,-0.427014985,0.671468245
233,585956,301920,0.918,-0.185,0.159,-63.5,19.2,-4,-3.1,31.1,-13.5,0.385479293,0.466994232,-0.427747429,0.671040986
234,588862,301920,0.918,-0.185,0.151,-63.5,19.2,-4,-3.1,31.1,-13.5,0.38636433,0.466231269,-0.428449355,0.670613727
235,590376,301920,0.922,-0.182,0.159,-63.8,19.2,-4.4,-3.1,31.1,-13.5,0.387279885,0.465437788,-0.429181799,0.67015595
236,593479,301920,0.922,-0.189,0.155,-64.1,19.2,-4.6,-3.1,31.1,-13.5,0.388164922,0.464644307,-0.429914243,0.66972869
237,596575,301930,0.922,-0.189,0.155,-64.1,19.2,-4.6,-3.1,31.1,-13.5,0.388164922,0.464644307,-0.429914243,0.66972869
238,598111,301930,0.922,-0.189,0.155,-64.1,19.2,-4.6,-3.1,31.1,-13.5,0.388164922,0.464644307,-0.429914243,0.66972869
239,600979,301930,0.902,-0.181,0.159,-64.8,20.3,-5.3,-3.1,31.1,-13.5,0.389996033,0.4631489,-0.43140965,0.668752098
240,604058,301930,0.906,-0.181,0.163,-64.8,20.3,-5.3,-3.1,31.1,-13.5,0.390911588,0.462355419,-0.432111576,0.668294321
241,605725,301940,0.906,-0.185,0.163,-65,20.1,-5,-3.1,31.1,-13.5,0.391827143,0.461531419,-0.43284402,0.667867061
242,607792,301940,0.906,-0.185,0.163,-65,20.1,-5,-3.1,31.1,-13.5,0.391827143,0.461531419,-0.43284402,0.667867061
243,610800,301940,0.91,-0.197,0.163,-68,19.4,-4.9,-3.4,30.9,-13.8,0.393719291,0.459913938,-0.434369945,0.666890469
244,614137,301940,0.91,-0.201,0.171,-69.4,19.4,-5.2,-3.4,30.9,-13.8,0.394665365,0.459089938,-0.435163427,0.666371654
245,615647,301950,0.906,-0.201,0.171,-69.4,19.4,-5.2,-3.4,30.9,-13.8,0.395611438,0.45823542,-0.435956908,0.66585284
246,618773,301950,0.906,-0.201,0.171,-69.4,19.4,-5.2,-3.4,30.9,-13.8,0.395611438,0.45823542,-0.435956908,0.66585284
247,620131,301950,0.906,-0.205,0.175,-71.3,19.5,-5.7,-3.5,30.8,-13.4,0.396588031,0.45741142,-0.436750389,0.665334025
248,623143,301950,0.906,-0.209,0.171,-72.3,19.1,-6.2,-3.5,30.8,-13.4,0.398571734,0.455702383,-0.438398389,0.664235359
249,626244,301960,0.902,-0.208,0.171,-72.3,19.1,-6.2,-3.5,30.8,-13.4,0.399578845,0.454847865,-0.439222388,0.663686026
250,627618,301960,0.902,-0.208,0.171,-72.3,19.1,-6.2,-3.5,30.8,-13.4,0.399578845,0.454847865,-0.439222388,0.663686026
251,630701,301960,0.902,-0.216,0.167,-73.2,18.5,-6.8,-3.6,31.4,-13.5,0.400585955,0.454023865,-0.440046388,0.663106174
252,633444,301960,0.902,-0.228,0.167,-73.8,18.3,-7.4,-3.6,31.4,-13.5,0.402600177,0.452345347,-0.441724906,0.661915952
253,636813,301970,0.906,-0.228,0.167,-73.8,18.3,-7.4,-3.6,31.4,-13.5,0.403607288,0.451490829,-0.442548906,0.661305582
254,639007,301970,0.906,-0.228,0.167,-73.8,18.3,-7.4,-3.6,31.4,-13.5,0.403607288,0.451490829,-0.442548906,0.661305582
255,641321,301970,0.902,-0.236,0.167,-74.5,18.4,-8.2,-3.4,31.6,-13.3,0.404644917,0.450636311,-0.443372906,0.660695212
256,643524,301970,0.906,-0.252,0.167,-74.8,18.5,-8.7,-3.4,31.6,-13.3,0.405682546,0.449812311,-0.444196905,0.660084841
257,645793,301980,0.91,-0.256,0.167,-75.1,19.2,-9.7,-3.4,31.6,-13.3,0.407788324,0.448103275,-0.445844905,0.658833583
258,647937,301980,0.91,-0.256,0.167,-75.1,19.2,-9.7,-3.4,31.6,-13.3,0.407788324,0.448103275,-0.445844905,0.658833583
259,650246,301980,0.91,-0.256,0.167,-75.1,19.2,-9.7,-3.4,31.6,-13.3,0.407788324,0.448103275,-0.445844905,0.658833583
260,654034,301980,0.937,-0.287,0.167,-75.5,19.8,-11.6,-3.7,32,-15.1,0.408520768,0.447096164,-0.447065645,0.658223212
261,656252,301990,0.96,-0.311,0.159,-75.7,20.4,-12.8,-3.7,32,-15.1,0.409649953,0.446272164,-0.447859127,0.657582324
262,658568,301990,0.972,-0.323,0.158,-75.5,21.6,-14,-3.7,32,-15.1,0.410779138,0.445417646,-0.448591571,0.656941435
263,660340,301990,0.98,-0.335,0.162,-74.3,23.5,-15.2,-3.7,32,-15.1,0.411969359,0.444563128,-0.449324015,0.656300546
264,664153,301990,1.015,-0.347,0.169,-72.1,26.4,-16.1,-3.8,32.4,-13.1,0.413159581,0.443678091,-0.449964904,0.655690176
265,665962,302000,0.996,-0.339,0.181,-68.7,30.4,-17.2,-3.8,32.4,-13.1,0.414380322,0.442793054,-0.450483718,0.655171361
266,668590,302000,0.972,-0.346,0.194,-64.4,35.3,-18.2,-3.8,32.4,-13.1,0.415601062,0.441877499,-0.450910978,0.654713584
267,671553,302000,0.937,-0.342,0.198,-59.9,40.4,-19.1,-3.8,32.4,-13.1,0.416852321,0.440961943,-0.451216163,0.654316843
268,673612,302000,0.879,-0.306,0.215,-56.1,44.9,-20.1,-3.8,32.3,-13.2,0.41810358,0.439985351,-0.451429792,0.654011658
269,676025,302010,0.863,-0.297,0.207,-54,47.7,-21,-3.8,32.3,-13.2,0.419415876,0.439039277,-0.451551866,0.653736991
270,678873,302010,0.844,-0.297,0.204,-54.1,48.3,-21.6,-3.8,32.3,-13.2,0.420697653,0.438062685,-0.451643422,0.653492843
271,680909,302010,0.82,-0.285,0.204,-56.3,46.6,-21.4,-3.8,32.3,-13.2,0.422009949,0.437086093,-0.451857051,0.653187658
272,682966,302010,0.801,-0.293,0.197,-60.3,42.9,-19.9,-3.8,32.6,-13.8,0.423291726,0.4361095,-0.452131718,0.652790918
273,685461,302020,0.804,-0.301,0.189,-65.2,37.5,-17.6,-3.8,32.6,-13.8,0.424542985,0.435163427,-0.452528459,0.652363659
274,687882,302020,0.847,-0.325,0.18,-70.3,30.9,-15.2,-3.8,32.6,-13.8,0.425733207,0.434217353,-0.45310831,0.651814325
275,691207,302020,0.906,-0.333,0.187,-75.1,23.9,-13.6,-3.8,32.6,-13.8,0.426862392,0.433301798,-0.453810236,0.651173437
276,693523,302020,0.953,-0.362,0.182,-79.2,17.9,-13.5,-4.1,32.5,-14,0.427991577,0.432447279,-0.454634236,0.650440992
277,695896,302030,0.957,-0.37,0.182,-82,14,-14.5,-4.1,32.5,-14,0.429090243,0.43162328,-0.455549791,0.649616993
278,698729,302030,0.957,-0.377,0.186,-82.9,12.2,-16,-4.1,32.5,-14,0.430219428,0.430829798,-0.456465346,0.648762474
279,700804,302030,0.968,-0.381,0.182,-82.3,12,-17,-4.1,32.5,-14,0.431379131,0.430066836,-0.457350383,0.647877438
280,703042,302030,0.968,-0.381,0.182,-82.3,12,-17,-4.1,32.5,-14,0.431379131,0.430066836,-0.457350383,0.647877438
281,706929,302040,0.976,-0.389,0.174,-76.6,12.9,-17.3,-3.6,33,-11.4,0.432264168,0.42915128,-0.458326975,0.647175512
282,709026,302040,0.968,-0.393,0.166,-76.6,12.9,-17.3,-3.6,33,-11.4,0.433362835,0.428388318,-0.459120457,0.646382031
283,711474,302040,0.972,-0.401,0.166,-75.1,12.6,-17,-3.6,33,-11.4,0.434430982,0.427686392,-0.459913938,0.645588549
284,713539,302040,0.976,-0.397,0.17,-74.1,12.3,-16.9,-3.6,33,-11.4,0.43549913,0.426984466,-0.460676901,0.644795068
285,716062,302050,0.968,-0.409,0.166,-73,11.8,-16.8,-4.1,32.8,-11.8,0.43653676,0.426252022,-0.461409345,0.644001587
286,717762,302050,0.96,-0.409,0.167,-73,11.8,-16.8,-4.1,32.8,-11.8,0.437574389,0.425580615,-0.462202826,0.643208106
287,721350,302050,0.96,-0.417,0.167,-72.6,11.7,-16.8,-4.1,32.8,-11.8,0.4385815,0.424909207,-0.46293527,0.642414624
288,723671,302050,0.96,-0.413,0.167,-72.2,11.5,-16.9,-4.1,32.8,-11.8,0.439619129,0.4242378,-0.463698233,0.641651662
289,725305,302060,0.952,-0.424,0.171,-70.9,11.5,-17.1,-4,32.8,-11.3,0.44062624,0.423566393,-0.464400159,0.64085818
290,728043,302060,0.952,-0.42,0.167,-70.9,11.5,-17.1,-4,32.8,-11.3,0.441633351,0.422894986,-0.465132603,0.640095218
291,731149,302060,0.952,-0.42,0.167,-70.1,11.5,-17.1,-4,32.8,-11.3,0.442640461,0.422223579,-0.465834529,0.639332255
292,732829,302060,0.948,-0.416,0.175,-69.3,11.7,-17,-4,32.8,-11.3,0.443647572,0.421552171,-0.466536454,0.638569292
293,735306,302070,0.948,-0.424,0.175,-67.2,11.8,-17.1,-3.9,32.7,-11,0.444624165,0.420911283,-0.467207862,0.63780633
294,737630,302070,0.949,-0.424,0.183,-67.2,11.8,-17.1,-3.9,32.7,-11,0.445600757,0.420270394,-0.467879269,0.637073885
295,740757,302070,0.945,-0.424,0.175,-65.9,12,-17.1,-3.9,32.7,-11,0.446546831,0.419629505,-0.468520157,0.636341441
296,742829,302070,0.956,-0.436,0.178,-64.5,12.5,-17.2,-3.9,32.7,-11,0.447523423,0.419019135,-0.469130528,0.635608997
297,746223,302080,0.96,-0.448,0.186,-62,14.5,-18.3,-3.9,32.7,-11,0.448500015,0.418378246,-0.469679861,0.63493759
298,747770,302080,0.995,-0.46,0.178,-62,14.5,-18.3,-3.9,32.7,-11,0.449446089,0.417767876,-0.470229194,0.634266182
299,750393,302080,0.995,-0.46,0.178,-61,15.8,-19.1,-3.9,32.7,-11,0.4504532,0.417157506,-0.470748009,0.633594775
300,754184,302080,1.019,-0.472,0.17,-60,17.4,-19.8,-3.9,32.7,-11,0.451429792,0.416486099,-0.471175268,0.632923368
301,756568,302090,1.019,-0.472,0.17,-60,17.4,-19.8,-3.9,32.7,-11,0.451429792,0.416486099,-0.471175268,0.632923368
302,758282,302090,0.995,-0.495,0.194,-55.6,23.6,-19.7,-3.9,33.2,-11,0.452467421,0.41584521,-0.471572008,0.632374035
303,761804,302090,0.999,-0.487,0.205,-51.9,28.3,-19.3,-3.9,33.2,-11,0.453505051,0.415143284,-0.471846675,0.631916257
304,764781,302090,0.933,-0.463,0.226,-43.8,38.4,-20.9,-3.9,33.2,-11,0.455610828,0.413678396,-0.472029786,0.631214331
305,765199,302100,0.933,-0.463,0.226,-43.8,38.4,-20.9,-3.9,33.2,-11,0.455610828,0.413678396,-0.472029786,0.631214331
306,768189,302100,0.917,-0.455,0.222,-40.6,42.1,-22.5,-3.9,33.4,-10.9,0.456740013,0.412915433,-0.471938231,0.630939665
307,770291,302100,0.878,-0.45,0.223,-38.6,44.3,-23.4,-3.9,33.4,-10.9,0.457869198,0.41215247,-0.471816156,0.630726035
308,774067,302100,0.832,-0.426,0.232,-38.2,43.3,-22,-3.9,33.4,-10.9,0.46006653,0.410626545,-0.471602527,0.630268258
309,775403,302110,0.832,-0.426,0.232,-38.2,43.3,-22,-3.9,33.4,-10.9,0.46006653,0.410626545,-0.471602527,0.630268258
310,778664,302110,0.843,-0.426,0.224,-39.4,40.4,-20.6,-3.9,33.4,-11,0.461134678,0.409894101,-0.47154149,0.63002411
311,780838,302110,0.839,-0.442,0.228,-40.9,36.3,-19.3,-3.9,33.4,-11,0.462141789,0.409192175,-0.471572008,0.629718925
312,782911,302110,0.863,-0.446,0.231,-42.4,31.3,-17.9,-3.9,33.4,-11,0.463087863,0.408520768,-0.471663564,0.629383221
313,785826,302120,0.867,-0.45,0.231,-43.4,26.5,-16.6,-3.9,33.4,-11,0.4639729,0.407879879,-0.471846675,0.629016999
314,788593,302120,0.874,-0.458,0.227,-44,22.3,-15.8,-3.9,33.5,-10.5,0.464796899,0.407300027,-0.472090823,0.62858974
315,791316,302120,0.906,-0.462,0.223,-44.2,19,-15.7,-3.9,33.5,-10.5,0.465620899,0.406720176,-0.47236549,0.628162481
316,792663,302120,0.913,-0.462,0.218,-44.3,16.5,-16.1,-3.9,33.5,-10.5,0.466383862,0.40623188,-0.472670675,0.627674184
317,795847,302130,0.925,-0.47,0.218,-43.9,14.6,-16.5,-3.9,33.5,-10.5,0.467177343,0.405774102,-0.47297586,0.627185888
318,798592,302130,0.941,-0.475,0.214,-43,13.4,-16.8,-4.3,35,-9.1,0.467909787,0.405316324,-0.473281045,0.626697592
319,801354,302130,0.949,-0.475,0.21,-41.6,12.9,-16.8,-4.3,35,-9.1,0.468642232,0.404889065,-0.473555712,0.626209296
320,802708,302130,0.956,-0.483,0.206,-39.4,12.8,-16.5,-4.3,35,-9.1,0.469344157,0.404492325,-0.473830378,0.625721
321,805832,302140,0.964,-0.487,0.202,-36.9,12.8,-16,-4.3,35,-9.1,0.470015564,0.404095584,-0.474044008,0.625293741
322,808592,302140,0.964,-0.487,0.202,-36.9,12.8,-16,-4.3,35,-9.1,0.470015564,0.404095584,-0.474044008,0.625293741
323,811467,302140,0.999,-0.487,0.201,-31.2,12.8,-13.9,-4.2,34.3,-9.9,0.470290231,0.403302103,-0.474562822,0.625232704
324,813374,302140,1.015,-0.503,0.201,-28.7,13.2,-13,-4.2,34.3,-9.9,0.470870083,0.402966399,-0.474684896,0.624897
325,816170,302150,1.019,-0.499,0.205,-26.6,14.3,-12.8,-4.2,34.3,-9.9,0.471419416,0.402630696,-0.47480697,0.624622333
326,818415,302150,1.015,-0.499,0.205,-25,16.3,-13.5,-4.2,34.3,-9.9,0.471999268,0.402294992,-0.474868007,0.624378185
327,820651,302150,1.042,-0.527,0.201,-23.7,19.1,-14.5,-4.4,33.9,-9.4,0.472609638,0.40192877,-0.474837489,0.624134037
328,823379,302150,1.042,-0.527,0.208,-22.1,22.4,-15.3,-4.4,33.9,-9.4,0.473220008,0.401562548,-0.474776452,0.623950926
329,826135,302160,1.003,-0.519,0.225,-20,26.2,-15.5,-4.4,33.9,-9.4,0.473891415,0.401165807,-0.474654378,0.623828852
330,827811,302160,0.882,-0.489,0.254,-17.2,29.7,-15.3,-4.4,33.9,-9.4,0.474562822,0.400738548,-0.474440748,0.623737297
331,831316,302160,0.855,-0.493,0.243,-15,32,-14.6,-4.2,34.5,-9.3,0.47523423,0.40028077,-0.4741966,0.623706778
332,832711,302160,0.855,-0.493,0.243,-14.5,31.7,-13.8,-4.2,34.5,-9.3,0.475875118,0.399853511,-0.473952452,0.623706778
333,835775,302170,0.87,-0.528,0.227,-16.2,28.3,-12.8,-4.2,34.5,-9.3,0.476485488,0.399426252,-0.473738823,0.623645741
334,838785,302170,0.886,-0.544,0.223,-19.4,22.7,-11.7,-4.2,34.5,-9.3,0.477034822,0.399029511,-0.473677786,0.623523667
335,840332,302170,0.925,-0.58,0.234,-23.5,16.5,-10.9,-4.4,35,-9.9,0.477553636,0.398693808,-0.473738823,0.623310038
336,844036,302170,0.929,-0.596,0.222,-27.2,11.2,-10.3,-4.4,35,-9.9,0.478072451,0.398358104,-0.473891415,0.623004852
337,845458,302180,0.925,-0.611,0.226,-30,8,-10.2,-4.4,35,-9.9,0.478530229,0.398022401,-0.474135563,0.622669149
338,848661,302180,0.921,-0.623,0.226,-31.3,6.7,-9.9,-4.4,35,-9.9,0.478988006,0.397717215,-0.47441023,0.622302927
339,850094,302180,0.897,-0.654,0.227,-31.2,6.8,-9.5,-4.3,33.9,-8.9,0.479506821,0.397381512,-0.474654378,0.621936705
340,853988,302180,0.889,-0.669,0.223,-30,7.3,-8.9,-4.3,33.9,-8.9,0.479964599,0.397076327,-0.474929044,0.621601001
341,856176,302190,0.885,-0.685,0.227,-28,7.6,-8.1,-4.3,33.9,-8.9,0.480391858,0.396771142,-0.475142674,0.621265297
342,857679,302190,0.897,-0.7,0.223,-25.6,7.5,-7.5,-4.3,33.9,-8.9,0.480788598,0.396465957,-0.475356304,0.620990631
343,861530,302190,0.897,-0.7,0.223,-25.6,7.5,-7.5,-4.3,33.9,-8.9,0.480788598,0.396465957,-0.475356304,0.620990631
344,863752,302190,0.994,-0.78,0.206,-20.8,7.6,-8,-4.3,34.3,-9.2,0.48115482,0.396221809,-0.475478378,0.620777001
345,865980,302200,1.002,-0.8,0.217,-17.9,9.7,-8.9,-4.3,34.3,-9.2,0.481521043,0.396008179,-0.475539415,0.620563372
346,868030,302200,0.963,-0.791,0.253,-13.8,14.4,-10.1,-4.3,34.3,-9.2,0.482345042,0.395519883,-0.475447859,0.620319224
347,870309,302200,0.963,-0.791,0.253,-13.8,14.4,-10.1,-4.3,34.3,-9.2,0.482345042,0.395519883,-0.475447859,0.620319224
348,872629,302200,0.955,-0.822,0.257,-3,30.9,-11,-4,34.4,-8.9,0.482833338,0.395184179,-0.475051119,0.620441298
349,877197,302210,0.932,-0.826,0.27,1.5,40.1,-11,-4,34.4,-8.9,0.483382672,0.394787439,-0.474532304,0.620685446
350,879464,302210,0.76,-0.823,0.292,4.5,48.6,-11.3,-4,34.4,-8.9,0.48463393,0.393780328,-0.473189489,0.621356853
351,881701,302210,0.76,-0.823,0.292,4.5,48.6,-11.3,-4,34.4,-8.9,0.48463393,0.393780328,-0.473189489,0.621356853
352,884159,302210,0.655,-0.845,0.283,5.9,58.2,-12.5,-4.1,34.3,-8.8,0.485366375,0.393200476,-0.47236549,0.621784112
353,886165,302220,0.647,-0.872,0.263,5.3,55.9,-11.4,-4.1,34.3,-8.8,0.486037782,0.392620624,-0.471602527,0.622211371
354,888567,302220,0.658,-0.888,0.244,4.2,47.7,-8.2,-4.1,34.3,-8.8,0.486617634,0.39210181,-0.470961638,0.622577593
355,890435,302220,0.705,-0.908,0.231,2.8,35,-4,-4.1,34.3,-8.8,0.486983856,0.391674551,-0.470534379,0.62285226
356,894411,302220,0.873,-0.946,0.22,0.8,20.8,-0.7,-4.6,34.5,-9.1,0.487197485,0.391430403,-0.470290231,0.623035371
357,896764,302230,0.912,-0.978,0.219,-1.5,8.1,0.2,-4.6,34.5,-9.1,0.487319559,0.391308329,-0.470229194,0.623096408
358,899634,302230,0.927,-1.002,0.204,-4.1,-0.5,-1,-4.6,34.5,-9.1,0.487350078,0.39127781,-0.470290231,0.623035371
359,901714,302230,0.939,-1.037,0.196,-6,-4.6,-3,-4.6,34.5,-9.1,0.487380596,0.391308329,-0.470381787,0.622913297
360,903458,302230,0.954,-1.088,0.191,-6,-5.4,-4.1,-3.9,33.6,-8.5,0.487441633,0.391338847,-0.470503861,0.622760704
361,906002,302240,0.966,-1.108,0.187,-3.5,-4.4,-3.3,-3.9,33.6,-8.5,0.487472152,0.391399884,-0.470564898,0.62263863
362,908042,302240,0.97,-1.124,0.183,1.5,-3.3,-1,-3.9,33.6,-8.5,0.487441633,0.39149144,-0.470564898,0.622608112
363,910559,302240,0.981,-1.159,0.195,8.3,-2.5,1.7,-3.9,33.6,-8.5,0.487319559,0.391582995,-0.470503861,0.622699667
364,913487,302240,0.981,-1.159,0.195,8.3,-2.5,1.7,-3.9,33.6,-8.5,0.487319559,0.391582995,-0.470503861,0.622699667
365,915854,302250,1.036,-1.187,0.202,22.6,-0.1,5.3,-4.8,34.7,-8.8,0.487044893,0.391766106,-0.470229194,0.622974334
366,917754,302250,1.052,-1.195,0.217,28.8,3.7,3.8,-4.8,34.7,-8.8,0.486526078,0.392193365,-0.469557787,0.623645741
367,920177,302250,1.071,-1.211,0.213,33.9,10.6,-0.4,-4.8,34.7,-8.8,0.486342967,0.392406995,-0.468977935,0.624073
368,923401,302250,1.071,-1.211,0.213,33.9,10.6,-0.4,-4.8,34.7,-8.8,0.486342967,0.392406995,-0.468977935,0.624073
369,925910,302260,0.821,-1.246,0.249,43,34,-11.6,-5.8,34.8,-8.9,0.48649556,0.39249855,-0.467940306,0.62468337
370,927823,302260,0.661,-1.271,0.283,49.6,46.8,-13.9,-5.8,34.8,-8.9,0.486983856,0.392559587,-0.465315714,0.626209296
371,930788,302260,0.661,-1.271,0.283,57.4,55.6,-12.2,-5.8,34.8,-8.9,0.487197485,0.392559587,-0.463881344,0.627124851
372,934823,302260,0.661,-1.271,0.283,57.4,55.6,-12.2,-5.8,34.8,-8.9,0.487197485,0.392559587,-0.463881344,0.627124851
373,935148,302270,0.669,-1.286,0.26,68.4,57.9,-6.2,-5.3,34.4,-9.1,0.487289041,0.392529069,-0.462263863,0.628254036
374,939391,302270,0.571,-1.285,0.269,70.7,54.7,-6.8,-5.3,34.4,-9.1,0.487319559,0.392620624,-0.460646382,0.629352702
375,941531,302270,0.462,-1.299,0.256,73.2,50.3,-8.3,-5.3,34.4,-9.1,0.487350078,0.392864772,-0.457441939,0.631550035
376,943798,302270,0.462,-1.299,0.256,73.2,50.3,-8.3,-5.3,34.4,-9.1,0.487350078,0.392864772,-0.457441939,0.631550035
377,946019,302280,0.485,-1.319,0.224,83,36.4,-3.7,-5.1,34.1,-9.5,0.487075411,0.393261513,-0.455854976,0.632648701
378,947974,302280,0.555,-1.312,0.195,89.5,25.6,2.4,-5.1,34.1,-9.5,0.486526078,0.393841365,-0.454359569,0.633777886
379,950241,302280,0.649,-1.279,0.178,96.2,13.7,8.5,-5.1,34.1,-9.5,0.484908597,0.395336772,-0.451551866,0.636097293
380,954031,302280,0.649,-1.279,0.178,96.2,13.7,8.5,-5.1,34.1,-9.5,0.484908597,0.395336772,-0.451551866,0.636097293
381,955760,302290,0.688,-1.26,0.158,108.8,-3.5,13.6,-3.2,32.8,-10.2,0.483718375,0.39640492,-0.450209052,0.637287515
382,958571,302290,0.696,-1.248,0.15,115.5,-6.1,13.8,-3.2,32.8,-10.2,0.482467116,0.397564623,-0.448774682,0.638508255
383,961476,302290,0.719,-1.214,0.137,123.2,-5.1,14.7,-3.2,32.8,-10.2,0.479812006,0.400006104,-0.445722831,0.641132847
384,963313,302290,0.719,-1.214,0.137,123.2,-5.1,14.7,-3.2,32.8,-10.2,0.479812006,0.400006104,-0.445722831,0.641132847
385,965311,302300,0.762,-1.16,0.101,141.6,0.1,20.9,-4.3,33.7,-10.4,0.478286081,0.401287881,-0.44389172,0.64271981
386,968242,302300,0.789,-1.133,0.081,151.3,2.1,25.3,-4.3,33.7,-10.4,0.476638081,0.402600177,-0.441969054,0.644459365
387,971535,302300,0.805,-1.11,0.081,160.4,3.1,29.5,-4.3,33.7,-10.4,0.474837489,0.403912473,-0.439924314,0.646351512
388,974239,302300,0.825,-1.091,0.061,168.6,3.6,33.5,-4.3,33.7,-10.4,0.472914823,0.405285806,-0.437818537,0.648335215
389,976128,302310,0.825,-1.091,0.061,168.6,3.6,33.5,-4.3,33.7,-10.4,0.472914823,0.405285806,-0.437818537,0.648335215
390,979608,302310,0.868,-1.037,0.029,181.8,3.8,40.6,-4.3,33.2,-11.4,0.468703269,0.408124027,-0.433362835,0.652607807
391,981510,302310,0.879,-1.022,0.017,187.3,3.4,43.9,-4.3,33.2,-11.4,0.46641438,0.409558397,-0.431043428,0.654866176
392,983597,302310,0.887,-0.998,0.016,192.2,2.7,47.4,-4.3,33.2,-11.4,0.464064455,0.411023286,-0.428693503,0.657155065
393,986779,302320,0.887,-0.998,0.016,192.2,2.7,47.4,-4.3,33.2,-11.4,0.464064455,0.411023286,-0.428693503,0.657155065
394,989153,302320,0.907,-0.971,0.012,201.3,0.5,54.6,-4.3,33.2,-11.4,0.458967864,0.4140141,-0.423902097,0.661946471
395,991108,302320,0.911,-0.96,0.016,205.5,-0.8,58,-4.3,33.2,-11.4,0.456251717,0.415540025,-0.421460616,0.66441847
396,992676,302320,0.907,-0.952,0.028,209.8,-2.5,61.2,-4.3,33.2,-11.4,0.453444014,0.417096469,-0.418988617,0.666920988
397,996122,302330,0.907,-0.952,0.028,209.8,-2.5,61.2,-4.3,33.2,-11.4,0.453444014,0.417096469,-0.418988617,0.666920988
398,997728,302330,0.919,-0.921,0.043,218.9,-6.1,67,-4.3,33.2,-11.4,0.450422681,0.418744469,-0.41645558,0.669545579
399,1001318,302330,0.923,-0.897,0.039,223.3,-7.7,69.6,-4.3,33.2,-11.4,0.444227424,0.422040468,-0.411358989,0.674733726
400,1002763,302330,0.923,-0.897,0.039,227.3,-8.4,72.3,-4.3,33.2,-11.4,0.440992462,0.423718986,-0.408764916,0.677388836
401,1005668,302340,0.923,-0.897,0.039,227.3,-8.4,72.3,-4.3,33.2,-11.4,0.440992462,0.423718986,-0.408764916,0.677388836
402,1009553,302340,0.923,-0.925,0.031,233.9,-7.6,78,-2.7,31.1,-13.9,0.437604907,0.425366985,-0.406109806,0.680135502
403,1011194,302340,0.958,-0.957,0.007,237.6,-6.8,80.5,-2.7,31.1,-13.9,0.430707724,0.428662984,-0.400677511,0.685659352
404,1013244,302340,0.958,-0.957,0.007,242.3,-6.3,82.4,-2.7,31.1,-13.9,0.427137059,0.430310984,-0.397869808,0.688467055
405,1015240,302350,0.958,-0.957,0.007,242.3,-6.3,82.4,-2.7,31.1,-13.9,0.427137059,0.430310984,-0.397869808,0.688467055
406,1018292,302350,0.95,-0.925,0.003,255.8,-8.2,84.3,-2.7,31.1,-13.9,0.4234138,0.432081057,-0.394909513,0.691396832
407,1020662,302350,0.954,-0.937,0.003,263.1,-10.6,85.7,-2.7,31.1,-13.9,0.41953795,0.433912168,-0.391827143,0.694357128
408,1023899,302350,0.95,-0.941,0.003,269.2,-13.7,88.3,-2.7,31.1,-13.9,0.415509507,0.435834834,-0.388714255,0.697317423
409,1025336,302360,0.938,-0.941,0.011,273.6,-16.8,91.8,-2.7,31.1,-13.9,0.411358989,0.437788018,-0.385570849,0.700308237
410,1027690,302360,0.923,-0.87,0.035,276.3,-19.2,95.2,-1.9,29.1,-16.8,0.407086398,0.439741203,-0.382427442,0.703268532
411,1031391,302360,0.923,-0.87,0.035,277.3,-20.6,98,-1.9,29.1,-16.8,0.40275277,0.441694388,-0.379284036,0.706259346
412,1032785,302360,0.935,-0.866,0.043,276.1,-20.7,100.5,-1.9,29.1,-16.8,0.398358104,0.443586535,-0.376171148,0.709189123
413,1035261,302370,0.974,-0.836,0.038,272.5,-19.6,103.3,-1.9,29.1,-16.8,0.393963439,0.445417646,-0.373119297,0.712149419
414,1038868,302370,1.005,-0.785,0.033,266.9,-17.1,106.8,-1.7,28,-17.5,0.389568773,0.447096164,-0.370128483,0.715048677
415,1040176,302370,1.001,-0.781,0.022,260.4,-13.1,110.3,-1.7,28,-17.5,0.385174108,0.448622089,-0.367259743,0.717947935
416,1044384,302370,0.993,-0.781,-0.005,254,-7.9,113.9,-1.7,28,-17.5,0.38084048,0.449964904,-0.36445204,0.720847194
417,1046540,302380,0.997,-0.766,-0.02,248.8,-2,118.1,-1.7,28,-17.5,0.376506851,0.451094089,-0.361705374,0.723776971
418,1049001,302380,0.997,-0.766,-0.02,248.8,-2,118.1,-1.7,28,-17.5,0.376506851,0.451094089,-0.361705374,0.723776971
419,1051526,302380,0.997,-0.688,-0.075,245.6,8.5,130.1,-1.7,28,-17.5,0.367748039,0.452925199,-0.356334117,0.729819636
420,1053380,302380,1.001,-0.681,-0.115,248.2,12.2,137.5,-1.7,28,-17.5,0.363170263,0.453596606,-0.353617969,0.732932524
421,1055566,302390,1.016,-0.681,-0.15,252.8,14.4,145.3,-1.7,28,-17.5,0.358470412,0.454268014,-0.350901822,0.736167486
422,1058083,302390,1.016,-0.681,-0.15,252.8,14.4,145.3,-1.7,28,-17.5,0.358470412,0.454268014,-0.350901822,0.736167486
423,1060431,302390,1.082,-0.601,-0.273,268.2,15,159.2,0.5,26.1,-19.3,0.348429823,0.455488754,-0.345255898,0.742881558
424,1064106,302390,1.105,-0.566,-0.309,281,13.8,163.8,0.5,26.1,-19.3,0.343058565,0.456160161,-0.342204047,0.746360668
425,1066720,302400,1.109,-0.527,-0.328,297.9,11.8,167.3,0.5,26.1,-19.3,0.337443159,0.456923124,-0.338938566,0.749931333
426,1068962,302400,1.109,-0.527,-0.328,297.9,11.8,167.3,0.5,26.1,-19.3,0.337443159,0.456923124,-0.338938566,0.749931333
427,1070872,302400,1.199,-0.459,-0.397,339.5,6.3,174.7,1.1,25,-20.9,0.331247902,0.45802179,-0.335062716,0.753776666
428,1072819,302400,1.25,-0.436,-0.398,360.4,3.4,179.5,1.1,25,-20.9,0.324686422,0.459242531,-0.33088168,0.757713553
429,1076761,302410,1.238,-0.424,-0.378,379.5,1.1,185.7,1.1,25,-20.9,0.317819758,0.460524308,-0.326456496,0.761741997
430,1078689,302410,1.211,-0.392,-0.334,379.5,1.1,185.7,1.1,25,-20.9,0.310922575,0.461806085,-0.321970275,0.765739921
431,1080305,302410,1.076,-0.291,-0.179,410.5,0.5,202.8,1.5,23.4,-21.5,0.303384503,0.4631489,-0.31714835,0.769951476
432,1085160,302410,1.127,-0.245,-0.129,419.4,0.1,212.1,1.5,23.4,-21.5,0.295571764,0.464430677,-0.31223487,0.774224067
433,1085747,302420,1.283,-0.205,-0.101,420.2,-2.5,219.1,1.5,23.4,-21.5,0.287575915,0.465651418,-0.307351909,0.778435621
434,1087644,302420,1.44,-0.18,-0.049,420.2,-2.5,219.1,1.5,23.4,-21.5,0.279549547,0.466841639,-0.302438429,0.78255562
435,1090490,302420,1.398,-0.151,0.087,392.5,-5.4,222.9,2.2,21.9,-22.5,0.27170629,0.467818232,-0.298043764,0.786400952
436,1092863,302420,1.465,-0.109,0.117,367.4,3,221.2,2.2,21.9,-22.5,0.2641377,0.468489639,-0.293954283,0.790093692
437,1096937,302430,1.516,-0.031,0.132,339,20.6,218.1,2.2,21.9,-22.5,0.257057405,0.46867275,-0.290200507,0.793725394
438,1099229,302430,1.601,-0.1,0.048,339,20.6,218.1,2.2,21.9,-22.5,0.249916074,0.468825343,-0.28644673,0.797265542
439,1101579,302430,1.62,-0.085,-0.104,283.3,77.1,211.7,1.6,20.1,-23.5,0.243812372,0.467696158,-0.283242286,0.800958281
440,1103665,302430,1.678,-0.075,-0.23,264.5,112.6,213.1,1.6,20.1,-23.5,0.238074892,0.46580401,-0.280190435,0.80486465
441,1105891,302440,1.634,-0.012,-0.312,257.1,148.5,220.3,1.6,20.1,-23.5,0.232490005,0.4631489,-0.277138585,0.809045686
442,1107783,302440,1.809,0.01,-0.448,257.1,148.5,220.3,1.6,20.1,-23.5,0.226905118,0.460493789,-0.274056215,0.813196203
443,1111972,302440,1.796,0.044,-0.722,274.2,202.7,253.1,3.6,19.2,-23.7,0.220862453,0.456709494,-0.270729698,0.818109684
444,1113644,302440,2.014,0.134,-0.895,293.5,214.1,277.5,3.6,19.2,-23.7,0.214239937,0.452650533,-0.26718955,0.823267312
445,1115130,302450,2.002,0.192,-1.055,293.5,214.1,277.5,3.6,19.2,-23.7,0.207586901,0.448530534,-0.263649403,0.828333384
446,1119154,302450,2.236,0.32,-1.212,316.7,213.7,304.8,3.6,19.2,-23.7,0.200201422,0.444318979,-0.259926145,0.833582568
447,1121436,302450,2.236,0.32,-1.212,316.7,213.7,304.8,3.6,19.2,-23.7,0.200201422,0.444318979,-0.259926145,0.833582568
448,1123621,302450,2.619,0.84,-1.467,394.1,155.7,377.2,5.4,16.8,-23.9,0.181310465,0.437238685,-0.251625111,0.844141972
449,1125901,302460,2.616,1.071,-1.354,417.6,131.2,394.8,5.4,16.8,-23.9,0.170781579,0.43427839,-0.247169408,0.849177526
450,1128011,302460,2.384,1.22,-1.127,432.9,113.5,409.3,5.4,16.8,-23.9,0.15970336,0.431531724,-0.242561113,0.854029969
451,1130269,302460,2.384,1.22,-1.127,432.9,113.5,409.3,5.4,16.8,-23.9,0.15970336,0.431531724,-0.242561113,0.854029969
452,1134169,302460,1.599,1.338,-0.505,400.6,111.7,425.7,6.7,14.6,-24.4,0.137211219,0.425733207,-0.234199042,0.863124485
453,1136622,302470,1.248,1.384,-0.295,339.7,128.7,424,6.7,14.6,-24.4,0.126712851,0.422132023,-0.23136082,0.867275002
454,1138442,302470,0.754,1.355,-0.008,249.1,155.5,412.6,6.7,14.6,-24.4,0.117374187,0.417767876,-0.229987487,0.871059297
455,1140688,302470,0.754,1.355,-0.008,249.1,155.5,412.6,6.7,14.6,-24.4,0.117374187,0.417767876,-0.229987487,0.871059297
456,1142781,302470,0.248,0.952,0.455,10.3,210.4,361.8,7.9,13.2,-24.1,0.103701895,0.406811731,-0.233039338,0.877162999
457,1146316,302480,0.194,0.864,0.629,-114.2,224.8,334.1,7.9,13.2,-24.1,0.0994598224,0.400524918,-0.237678152,0.879299295
458,1148518,302480,0.416,0.708,0.699,-228.5,227,316.5,7.9,13.2,-24.1,0.096560564,0.394024476,-0.244300668,0.880733665
459,1150564,302480,0.237,-0.086,0.485,-328.5,218.2,316.9,8.5,14.3,-23.7,0.0944547868,0.387401959,-0.25287637,0.881466109
460,1152868,302480,0.333,-0.436,0.433,-411.1,200.5,342.4,8.5,14.3,-23.7,0.0924405652,0.380779443,-0.263252663,0.881527146
461,1155345,302490,0.185,-0.846,0.84,-471.6,175.1,395,8.5,14.3,-23.7,0.0897549364,0.374156926,-0.275215918,0.881008332
462,1159115,302490,0.626,-1.174,2.257,-499.2,144.8,466.6,8.5,14.3,-23.7,0.0857264931,0.367564928,-0.288308359,0.880001221
463,1161001,302490,4.23,-0.475,7.208,-473.9,121.1,540.8,10.3,15,-22.2,0.0798974578,0.360881375,-0.301492355,0.878872036
464,1163198,302490,7.324,-0.079,6.339,-363.3,118.9,593.5,10.3,15,-22.2,0.0721457564,0.354045228,-0.312875759,0.878353221
465,1166229,302500,8.013,1.293,1.813,-143.1,124,598,10.3,15,-22.2,0.0626545,0.347300638,-0.32001709,0.879207739
466,1168316,302500,7.615,4.099,-3.152,182.8,74.8,538.3,10.3,15,-22.2,0.051454207,0.342356639,-0.320474868,0.881710257
467,1171420,302500,7.615,4.099,-3.152,182.8,74.8,538.3,10.3,15,-22.2,0.051454207,0.342356639,-0.320474868,0.881710257
468,1173011,302500,0.608,7.819,-7.985,874.3,-321,274.9,10.7,12.3,-23.5,0.0373851741,0.347514267,-0.305978576,0.885525071
469,1175295,302510,-0.415,7.94,-6.854,874.3,-321,274.9,10.7,12.3,-23.5,0.0232856227,0.352519303,-0.29136021,0.888973663
470,1178899,302510,0.891,5.647,-1.718,1056.6,-645.7,1.6,10.7,12.3,-23.5,0.00292977691,-0.375255593,0.251716666,-0.892056032
471,1181028,302510,0.891,5.647,-1.718,1056.6,-645.7,1.6,10.7,12.3,-23.5,0.00292977691,-0.375255593,0.251716666,-0.892056032
472,1183444,302510,1.284,2.144,-0.599,708.8,-448,-223.1,7.7,8.1,-24.8,0.00686666463,-0.385082553,0.236030152,-0.892147588
473,1186991,302520,2.02,2.484,-0.46,435.4,-271.5,-341,7.7,8.1,-24.8,0.00918607135,-0.401562548,0.208746605,-0.891659291
474,1188644,302520,2.887,3.723,0.209,175,-129.5,-446.9,7.7,8.1,-24.8,0.00262459181,-0.406079287,0.201391644,-0.891354106
475,1190932,302520,2.887,3.723,0.209,175,-129.5,-446.9,7.7,8.1,-24.8,0.00262459181,-0.406079287,0.201391644,-0.891354106
476,1193269,302520,2.846,4.808,2.005,-126.3,44.7,-531.5,7.3,8.4,-24.5,0.0090029603,0.407513657,-0.199133274,0.891140477
477,1195457,302530,2.135,4.317,2.207,-126.3,44.7,-531.5,7.3,8.4,-24.5,0.0206305124,0.40888699,-0.196844386,0.890835292
478,1197632,302530,1.674,3.223,1.462,-274.3,198.6,-482,7.3,8.4,-24.5,0.0456251717,0.406567583,-0.196905423,0.890957366
479,1201413,302530,1.674,3.223,1.462,-274.3,198.6,-482,7.3,8.4,-24.5,0.0456251717,0.406567583,-0.196905423,0.890957366
480,1203029,302530,1.252,2.462,1.15,-484.9,287.6,-374.4,8,10.9,-25.3,0.0583819086,0.402081362,-0.20270394,0.890957366
481,1205785,302540,0.692,0.931,0.984,-597.1,284.4,-286.4,8,10.9,-25.3,0.0832544939,0.392284921,-0.217108676,0.889950255
482,1209153,302540,0.724,0.512,0.772,-689.9,249.6,-183.5,8,10.9,-25.3,0.0938444166,0.3869747,-0.228461562,0.888363292
483,1211260,302540,0.724,0.512,0.772,-689.9,249.6,-183.5,8,10.9,-25.3,0.0938444166,0.3869747,-0.228461562,0.888363292
484,1213365,302540,0.689,-0.932,0.137,-750.6,185,-83.1,9,13.9,-22.6,0.102755821,0.382213813,-0.241889706,0.885891293
485,1215841,302550,0.702,-2.044,-0.373,-768.7,-7,55.1,9,13.9,-22.6,0.114963225,0.376506851,-0.271858882,0.878109073
486,1219865,302550,0.659,-2.795,-0.586,-740.9,-106.3,82,9,13.9,-22.6,0.118808557,0.376171148,-0.286965545,0.872920927
487,1220524,302550,0.659,-2.795,-0.586,-740.9,-106.3,82,9,13.9,-22.6,0.118808557,0.376171148,-0.286965545,0.872920927
488,1223328,302550,1.747,-4.085,-0.843,-661,-230.5,61.8,8.6,17,-22,0.12161626,0.378398999,-0.300607318,0.866939299
489,1225157,302560,1.872,-4.846,-1.078,-622,-247.3,45.1,8.6,17,-22,0.124271371,0.381084628,-0.313364055,0.860866115
490,1228558,302560,1.434,-5.07,-1.195,-622,-247.3,45.1,8.6,17,-22,0.126865444,0.38370922,-0.326059755,0.854579302
491,1230920,302560,0.606,-5.001,-1.141,-588.5,-251.4,64,8.6,17,-22,0.128818628,0.386272774,-0.338236641,0.848384045
492,1233151,302560,-0.334,-4.845,-0.485,-513.8,-263.7,260.3,7.5,19.5,-21.1,0.126346629,0.387737663,-0.350657674,0.843012787
493,1236570,302570,-0.711,-4.548,-0.291,-513.8,-263.7,260.3,7.5,19.5,-21.1,0.123905148,0.389141514,-0.362987152,0.837488937
494,1238557,302570,-0.946,-4.141,-0.041,-438.5,-248.7,373.7,7.5,19.5,-21.1,0.118808557,0.389507736,-0.374828333,0.832819605
495,1240999,302570,-1.095,-3.48,0.25,-324.3,-195.6,430.1,7.5,19.5,-21.1,0.112125004,0.388683737,-0.384838404,0.829554125
496,1242733,302570,-0.696,-2.568,0.417,-49.9,-3.3,333.9,8,19.5,-20.1,0.10647908,0.385814997,-0.388592181,0.829920347
497,1246707,302580,-0.417,-2.127,0.462,-49.9,-3.3,333.9,8,19.5,-20.1,0.100833155,0.382915738,-0.392284921,0.830225532
498,1249189,302580,0.09,-1.682,0.385,108.9,157.1,164.2,8,19.5,-20.1,0.0942716758,0.37531663,-0.392193365,0.834498123
499,1250805,302580,0.09,-1.682,0.385,108.9,157.1,164.2,8,19.5,-20.1,0.0942716758,0.37531663,-0.392193365,0.834498123
500,1254653,302580,0.626,-1.216,0.213,115.1,199.6,123.7,9.1,19.2,-23.2,0.0927762688,0.370830409,-0.39066744,0.837366863
501,1256772,302590,0.789,-1.298,0.019,115.1,199.6,123.7,9.1,19.2,-23.2,0.0912808618,0.366374706,-0.389141514,0.840205084
502,1258787,302590,1.262,-1.13,0.057,96.3,134.8,184.7,9.1,19.2,-23.2,0.0862758263,0.358165227,-0.387554552,0.84499649
503,1261225,302590,1.262,-1.13,0.057,96.3,134.8,184.7,9.1,19.2,-23.2,0.0862758263,0.358165227,-0.387554552,0.84499649
504,1263529,302590,1.924,-0.784,0.263,107.6,74.6,224.4,9.8,18.8,-21.4,0.0819116794,0.355082858,-0.38718833,0.846888638
505,1266130,302600,2.471,-0.171,0.545,133.5,10,260.2,9.8,18.8,-21.4,0.0761741997,0.352946562,-0.386700034,0.848567156
506,1268030,302600,2.876,0.3,0.803,183.1,-79.4,313.1,9.8,18.8,-21.4,0.061281167,0.350688192,-0.385082553,0.851435896
507,1270210,302600,2.876,0.3,0.803,183.1,-79.4,313.1,9.8,18.8,-21.4,0.061281167,0.350688192,-0.385082553,0.851435896
508,1272770,302600,2.59,0.359,0.699,166.8,-65.9,348.6,9.9,17.3,-21.8,0.0529801325,0.349223304,-0.38471633,0.852748192
509,1277103,302610,2.328,0.358,0.555,153.4,-36,348.6,9.9,17.3,-21.8,0.0450148015,0.347117527,-0.384533219,0.854152043
510,1279394,302610,2.328,0.358,0.555,163,-11.1,324.5,9.9,17.3,-21.8,0.0376293222,0.344737083,-0.383953368,0.855708487
511,1281934,302610,1.874,1.172,0.644,163,-11.1,324.5,9.9,17.3,-21.8,0.0302438429,0.342356639,-0.383373516,0.857234413
512,1283897,302610,1.18,1.375,0.723,249.1,0.4,212.4,10.6,16,-22.8,0.0244148076,0.340739158,-0.380260628,0.859431745
513,1286611,302620,1.18,1.375,0.723,279.2,-4.8,152.3,10.6,16,-22.8,0.019409772,0.339701529,-0.376171148,0.861781671
514,1288161,302620,0.879,1.247,0.725,279.2,-4.8,152.3,10.6,16,-22.8,0.0144657735,0.3386639,-0.372020631,0.864101077
515,1290158,302620,0.448,0.805,0.742,274,-9.9,106.2,10.6,16,-22.8,0.0103762932,0.338053529,-0.367656484,0.866267891
516,1293843,302620,0.336,0.874,0.865,195.4,-14.9,49,10.5,14.9,-23.8,0.00787377544,0.337992492,-0.364329966,0.867702261
517,1295442,302630,0.336,0.874,0.865,155.7,-15.7,22.5,10.5,14.9,-23.8,0.00616473891,0.338145085,-0.361522263,0.868831446
518,1298455,302630,0.232,0.516,0.703,155.7,-15.7,22.5,10.5,14.9,-23.8,0.00448622089,0.338267159,-0.358745079,0.869930113
519,1300207,302630,0.094,0.435,0.577,122.2,-14.5,-6.3,10.5,14.9,-23.8,0.00357066561,0.338602863,-0.356395154,0.870784631
520,1304570,302630,0.034,0.107,0.39,61.9,-1,-46.6,10.5,14.1,-22.9,0.00399792474,0.338999603,-0.354869228,0.871272927
521,1306302,302640,0.072,0.064,0.374,38.7,10.7,-50.4,10.5,14.1,-22.9,0.00476088748,0.339182714,-0.353740043,0.871639149
522,1307695,302640,0.103,0.032,0.362,38.7,10.7,-50.4,10.5,14.1,-22.9,0.00552385022,0.339365825,-0.352641377,0.872005371
523,1311515,302640,0.135,0.027,0.346,24.6,24,-48.8,10.5,14.1,-22.9,0.0064394055,0.339304788,-0.351817377,0.872371593
524,1313352,302640,0.318,0.02,0.323,15,44.2,-58.2,10.3,14.2,-23.2,0.00778221992,0.338908048,-0.351084933,0.872798853
525,1316744,302650,0.42,0.018,0.336,8.9,45.7,-73.3,10.3,14.2,-23.2,0.00946073794,0.338602863,-0.350352489,0.873195593
526,1318738,302650,0.486,0.021,0.378,8.9,45.7,-73.3,10.3,14.2,-23.2,0.011139256,0.338297678,-0.349650563,0.873592334
527,1321145,302650,0.533,-0.013,0.409,-2.2,39.8,-91.7,10.3,14.2,-23.2,0.0132145146,0.338236641,-0.349009674,0.873836482
528,1322847,302650,0.533,-0.013,0.409,-2.2,39.8,-91.7,10.3,14.2,-23.2,0.0132145146,0.338236641,-0.349009674,0.873836482
529,1325311,302660,0.681,-0.203,0.449,-57.2,-3.8,-138.6,10.2,14.4,-23,0.0190130314,0.340037233,-0.348826563,0.873073519
530,1329091,302660,0.833,-0.335,0.451,-75.8,-19.8,-147.5,10.2,14.4,-23,0.0222174749,0.341502121,-0.349192785,0.872280038
531,1330775,302660,0.833,-0.335,0.451,-90.9,-33.2,-151.8,10.2,14.4,-23,0.0255134739,0.343241676,-0.349803156,0.871272927
532,1334515,302660,0.833,-0.335,0.451,-90.9,-33.2,-151.8,10.2,14.4,-23,0.0255134739,0.343241676,-0.349803156,0.871272927
533,1336679,302670,1.02,-0.604,0.459,-104.5,-46.4,-144.4,10.1,15,-23.1,0.0320139164,0.34705649,-0.351542711,0.868831446
534,1339025,302670,1.09,-0.648,0.435,-100.6,-45.3,-131.6,10.1,15,-23.1,0.0349436934,0.348857082,-0.352488784,0.867641224
535,1341491,302670,1.113,-0.699,0.411,-90,-40.8,-113.3,10.1,15,-23.1,0.0374462111,0.350444044,-0.353343303,0.866542558
536,1343942,302670,1.113,-0.699,0.411,-90,-40.8,-113.3,10.1,15,-23.1,0.0374462111,0.350444044,-0.353343303,0.866542558
537,1346064,302680,0.933,-0.591,0.363,-56.4,-27.4,-70,9.7,15.4,-23.1,0.0410473952,0.352732933,-0.35462508,0.864925077
538,1347833,302680,0.933,-0.591,0.363,-40.1,-21.8,-51.6,9.7,15.4,-23.1,0.0421460616,0.353526414,-0.355021821,0.864375744
539,1351760,302680,0.89,-0.571,0.337,-40.1,-21.8,-51.6,9.7,15.4,-23.1,0.0432447279,0.354289377,-0.355388043,0.863856929
540,1353776,302680,0.89,-0.571,0.337,-40.1,-21.8,-51.6,9.7,15.4,-23.1,0.0432447279,0.354289377,-0.355388043,0.863856929
541,1355422,302690,0.82,-0.476,0.259,-28,-20.7,-38.3,9.8,16.5,-21.6,0.0447706534,0.355571154,-0.355876339,0.863063448
542,1359245,302690,0.82,-0.476,0.259,-33.5,-24.2,-44.4,9.8,16.5,-21.6,0.0456862087,0.356334117,-0.356181524,0.862575152
543,1361575,302690,0.816,-0.461,0.244,-33.5,-24.2,-44.4,9.8,16.5,-21.6,0.046601764,0.357097079,-0.356486709,0.862086856
544,1363638,302690,0.789,-0.421,0.232,-43.9,-31.3,-57.8,9.7,15.4,-23.9,0.0477919858,0.35810419,-0.35688345,0.861415448
545,1365376,302700,0.773,-0.409,0.237,-47,-33.1,-62.5,9.7,15.4,-23.9,0.0490737632,0.359172338,-0.357310709,0.860744041
546,1369126,302700,0.773,-0.409,0.237,-47,-33.1,-62.5,9.7,15.4,-23.9,0.0503250221,0.360209967,-0.357737968,0.860042116
547,1371410,302700,0.765,-0.386,0.248,-48.2,-33.4,-65.7,9.7,15.4,-23.9,0.0516983551,0.361308634,-0.358165227,0.85934019
548,1373843,302700,0.765,-0.386,0.248,-48.2,-33.4,-65.7,9.7,15.4,-23.9,0.0516983551,0.361308634,-0.358165227,0.85934019
549,1375713,302710,0.762,-0.35,0.241,-46.4,-32.7,-71.7,9.1,15.6,-24.1,0.0531632435,0.362437819,-0.358500931,0.858638264
550,1378858,302710,0.769,-0.335,0.237,-44.7,-32.6,-75.9,9.1,15.6,-24.1,0.054689169,0.363567003,-0.358775597,0.857936338
551,1381315,302710,0.77,-0.276,0.229,-40.4,-33.3,-86.3,9.1,15.6,-24.1,0.0579546495,0.366039003,-0.359080782,0.856532487
552,1383267,302710,0.77,-0.276,0.229,-40.4,-33.3,-86.3,9.1,15.6,-24.1,0.0579546495,0.366039003,-0.359080782,0.856532487
553,1386723,302720,0.797,-0.207,0.205,-38.1,-33.6,-91.5,9.4,16.2,-23.5,0.0596942045,0.36732078,-0.359111301,0.85586108
554,1388926,302720,0.805,-0.183,0.193,-36.5,-33.4,-96.3,9.4,16.2,-23.5,0.0615253151,0.368663594,-0.359080782,0.855189673
555,1391378,302720,0.793,-0.109,0.2,-38.5,-29.7,-105.4,9.4,16.2,-23.5,0.0654927213,0.371318705,-0.358897671,0.85381634
556,1393532,302720,0.793,-0.109,0.2,-38.5,-29.7,-105.4,9.4,16.2,-23.5,0.0654927213,0.371318705,-0.358897671,0.85381634
557,1395171,302730,0.758,-0.092,0.213,-42.3,-25.2,-111,8.8,16.5,-23.8,0.067690054,0.372600482,-0.358806116,0.853114414
558,1397760,302730,0.739,-0.08,0.233,-46.9,-18.9,-117.7,8.8,16.5,-23.8,0.0701315348,0.373790704,-0.358745079,0.852412488
559,1401388,302730,0.728,-0.025,0.252,-56.4,-4.8,-132.9,8.8,16.5,-23.8,0.0756859035,0.375957518,-0.358684042,0.851008637
560,1403846,302730,0.728,-0.025,0.252,-56.4,-4.8,-132.9,8.8,16.5,-23.8,0.0756859035,0.375957518,-0.358684042,0.851008637
561,1405756,302740,0.716,-0.025,0.257,-61.1,0.9,-141.1,8.4,18.4,-21.7,0.0787987915,0.376934111,-0.358653523,0.850306711
562,1408010,302740,0.657,-0.083,0.25,-70.4,8.6,-158.1,8.4,18.4,-21.7,0.0857570116,0.378856777,-0.358623005,0.848811304
563,1410156,302740,0.657,-0.083,0.25,-73.9,10.8,-166.6,8.4,18.4,-21.7,0.0895413068,0.37980285,-0.358592486,0.847987304
564,1414091,302740,0.657,-0.083,0.25,-73.9,10.8,-166.6,8.4,18.4,-21.7,0.0895413068,0.37980285,-0.358592486,0.847987304
565,1416361,302750,0.602,-0.105,0.239,-75.9,11.6,-174.8,7.9,17.7,-23.2,0.0934781945,0.380809961,-0.358531449,0.847132786
566,1418544,302750,0.555,-0.155,0.232,-77.6,8.4,-189.8,7.9,17.7,-23.2,0.101809748,0.383037812,-0.358226264,0.845301675
567,1420711,302750,0.551,-0.171,0.229,-79.4,4.8,-196.1,7.9,17.7,-23.2,0.106112857,0.384289071,-0.358043153,0.844294565
568,1422788,302750,0.551,-0.171,0.229,-79.4,4.8,-196.1,7.9,17.7,-23.2,0.106112857,0.384289071,-0.358043153,0.844294565
569,1425205,302760,0.559,-0.198,0.232,-88.6,-3.8,-206.5,7.6,18.2,-23,0.110629597,0.385784478,-0.357951598,0.843073824
570,1428944,302760,0.567,-0.21,0.24,-88.6,-3.8,-206.5,7.6,18.2,-23,0.115146336,0.387249367,-0.357829524,0.841822565
571,1431539,302760,0.598,-0.226,0.236,-96.3,-7.8,-211,7.6,18.2,-23,0.11978515,0.388775292,-0.357829524,0.840479751
572,1433671,302760,0.621,-0.239,0.239,-105.4,-11.3,-215,7.6,18.2,-23,0.124515519,0.390392773,-0.357982116,0.838984344
573,1435219,302770,0.688,-0.275,0.238,-124.8,-16.9,-221.4,7.1,19.5,-22.8,0.129520554,0.39210181,-0.358409375,0.837244789
574,1439110,302770,0.723,-0.283,0.245,-124.8,-16.9,-221.4,7.1,19.5,-22.8,0.134495071,0.393780328,-0.358836634,0.835474715
575,1440988,302770,0.762,-0.303,0.241,-133.9,-18.7,-223.6,7.1,19.5,-22.8,0.139561144,0.395458846,-0.359416486,0.833613086
576,1442891,302770,0.789,-0.308,0.24,-142.3,-19.8,-225,7.1,19.5,-22.8,0.144718772,0.397137364,-0.360118412,0.831629383
577,1446112,302780,0.828,-0.324,0.235,-156.1,-19.5,-226,6.5,20.7,-22.5,0.150028993,0.398785363,-0.361033967,0.829493088
578,1448300,302780,0.851,-0.336,0.239,-156.1,-19.5,-226,6.5,20.7,-22.5,0.155308695,0.400402844,-0.361949522,0.827326273
579,1450181,302780,0.871,-0.348,0.231,-161.7,-18.4,-225.3,6.5,20.7,-22.5,0.160649434,0.401959288,-0.362956633,0.825128941
580,1454734,302780,0.894,-0.361,0.211,-166.5,-17.3,-223.5,6.5,20.7,-22.5,0.165990173,0.403454695,-0.3640553,0.822840052
581,1455154,302790,0.921,-0.396,0.183,-172.9,-16.3,-216.8,6.2,21.7,-21.4,0.171269875,0.404828028,-0.365306558,0.820520646
582,1458096,302790,0.937,-0.412,0.179,-172.9,-16.3,-216.8,6.2,21.7,-21.4,0.176549577,0.406201361,-0.366557817,0.818170721
583,1460325,302790,0.945,-0.42,0.167,-173.2,-16.2,-212.3,6.2,21.7,-21.4,0.181737724,0.407513657,-0.367809076,0.815820795
584,1462634,302790,0.948,-0.432,0.159,-171.4,-15.9,-207.5,6.2,21.7,-21.4,0.186834315,0.408764916,-0.369090854,0.81347087
585,1466600,302800,0.972,-0.452,0.143,-167.8,-15.3,-202.8,5.9,22.4,-21.1,0.191808832,0.409985656,-0.370311594,0.811151463
586,1468850,302800,0.983,-0.468,0.147,-163.7,-14.3,-198.5,5.9,22.4,-21.1,0.196661275,0.41114536,-0.371471297,0.808832057
587,1471058,302800,0.991,-0.507,0.139,-157.4,-10.2,-191.3,5.9,22.4,-21.1,0.206122013,0.413281655,-0.373699149,0.804376354
588,1473321,302800,0.991,-0.507,0.139,-157.4,-10.2,-191.3,5.9,22.4,-21.1,0.206122013,0.413281655,-0.373699149,0.804376354
589,1475307,302810,0.991,-0.507,0.139,-157.4,-10.2,-191.3,5.9,22.4,-21.1,0.206122013,0.413281655,-0.373699149,0.804376354
590,1477709,302810,0.948,-0.585,0.12,-157.7,-0.2,-181.7,5.2,23.3,-20.8,0.215338603,0.414929655,-0.375896481,0.800073244
591,1482421,302810,0.936,-0.6,0.117,-157.7,-0.2,-181.7,5.2,23.3,-20.8,0.219946898,0.415662099,-0.376995148,0.79790643
592,1482732,302810,0.928,-0.612,0.105,-158.7,3.1,-178.8,5.2,23.3,-20.8,0.224524674,0.416302988,-0.378124332,0.795770135
593,1486926,302820,0.889,-0.627,0.102,-158.5,9,-173.7,4.8,24.4,-20.4,0.229041414,0.416821802,-0.379253517,0.793664357
594,1488991,302820,0.869,-0.634,0.086,-156.3,11.4,-171.5,4.8,24.4,-20.4,0.233527635,0.417249062,-0.380321665,0.791619617
595,1491309,302820,0.846,-0.634,0.079,-156.3,11.4,-171.5,4.8,24.4,-20.4,0.238013855,0.417676321,-0.381420331,0.789544359
596,1493592,302820,0.803,-0.637,0.068,-152.1,13.5,-169.1,4.8,24.4,-20.4,0.242408521,0.418042543,-0.382427442,0.787499619
597,1495822,302830,0.748,-0.66,0.026,-136.3,15.8,-163.7,4,24.5,-19.8,0.246620075,0.418408765,-0.383159886,0.785637989
598,1497864,302830,0.736,-0.636,0.034,-123.4,15.7,-160.7,4,24.5,-19.8,0.250618,0.418805506,-0.383739738,0.783867916
599,1501812,302830,0.736,-0.597,0.054,-123.4,15.7,-160.7,4,24.5,-19.8,0.254615925,0.419232765,-0.384289071,0.782097842
600,1504054,302830,0.748,-0.55,0.081,-106.8,14.7,-157.9,4,24.5,-19.8,0.258430738,0.419690542,-0.384594256,0.780449843
601,1506217,302840,0.788,-0.476,0.123,-70.1,11.7,-154.8,4.1,24.6,-19.5,0.261787774,0.420392468,-0.384289071,0.779107028
602,1508397,302840,0.792,-0.441,0.15,-70.1,11.7,-154.8,4.1,24.6,-19.5,0.265175329,0.421094394,-0.383983886,0.777733695
603,1510728,302840,0.788,-0.421,0.182,-56,10.4,-156,4.1,24.6,-19.5,0.268410291,0.421887875,-0.383434553,0.776451918
604,1512746,302840,0.796,-0.41,0.201,-47.3,9.5,-159.9,4.1,24.6,-19.5,0.271645253,0.422772912,-0.382732627,0.775200659
605,1516709,302850,0.785,-0.386,0.232,-46.4,6.5,-174.2,2.5,26.2,-19.5,0.275063326,0.42384106,-0.381847591,0.773827326
606,1518973,302850,0.808,-0.39,0.224,-46.4,6.5,-174.2,2.5,26.2,-19.5,0.278511917,0.424909207,-0.380993072,0.772453993
607,1521184,302850,0.874,-0.407,0.196,-52.2,2.9,-183.1,2.5,26.2,-19.5,0.282082583,0.426068911,-0.380138554,0.770928068
608,1523506,302850,0.953,-0.385,0.182,-60.1,-2.5,-192.1,2.5,26.2,-19.5,0.285866878,0.42732017,-0.379375591,0.769219031
609,1525439,302860,0.953,-0.385,0.182,-60.1,-2.5,-192.1,2.5,26.2,-19.5,0.285866878,0.42732017,-0.379375591,0.769219031
610,1527850,302860,1.09,-0.414,0.246,-83.6,-21.5,-212.6,1.8,26.6,-19.7,0.289254433,0.428083132,-0.37980285,0.767296365
611,1531746,302860,1.09,-0.414,0.246,-83.6,-21.5,-212.6,1.8,26.6,-19.7,0.293435469,0.429700613,-0.379345073,0.765068514
612,1533897,302860,1.14,-0.407,0.261,-86.9,-26.8,-215.6,1.8,26.6,-19.7,0.297616504,0.431348613,-0.378948332,0.76268807
613,1536270,302870,1.254,-0.405,0.282,-87.2,-32,-215.2,1.8,26.6,-19.7,0.301736503,0.433088168,-0.37858211,0.760277108
614,1538335,302870,1.297,-0.41,0.301,-86,-36.6,-210.5,0.6,27.2,-19,0.305734428,0.43488876,-0.378246406,0.757805109
615,1541052,302870,1.328,-0.414,0.312,-84.4,-39.6,-201.6,0.6,27.2,-19,0.309549242,0.436628315,-0.37797174,0.755394147
616,1544071,302870,1.355,-0.426,0.32,-82.6,-39.8,-189.3,0.6,27.2,-19,0.313119907,0.438276315,-0.377819147,0.753044221
617,1545534,302880,1.399,-0.443,0.354,-80.2,-37.2,-175.3,0.6,27.2,-19,0.316476943,0.439771722,-0.377697073,0.75081637
618,1548541,302880,1.403,-0.392,0.417,-73.1,-26.1,-148,0,27.3,-18.9,0.319376202,0.440931425,-0.377666555,0.748924223
619,1551318,302880,1.403,-0.392,0.417,-73.1,-26.1,-148,0,27.3,-18.9,0.32227546,0.44206061,-0.377605518,0.747032075
620,1552701,302880,1.395,-0.434,0.444,-69.9,-20.6,-137.2,0,27.3,-18.9,0.325022126,0.443037202,-0.377574999,0.74529252
621,1556500,302890,1.391,-0.434,0.46,-68,-17,-128.3,0,27.3,-18.9,0.327616199,0.44389172,-0.377544481,0.74364452
622,1558612,302890,1.352,-0.426,0.445,-68,-16.6,-120.9,1.2,26.3,-18.6,0.330118717,0.444654683,-0.377605518,0.742057558
623,1560232,302890,1.34,-0.383,0.387,-69.7,-19.8,-114.5,1.2,26.3,-18.6,0.332468642,0.445417646,-0.37775811,0.740470595
624,1564004,302890,1.43,-0.341,0.385,-73.9,-27.2,-110.1,1.2,26.3,-18.6,0.334727012,0.446241646,-0.378093814,0.738792077
625,1566301,302900,1.474,-0.268,0.419,-80.9,-37.5,-109.3,1.2,26.3,-18.6,0.336985382,0.447157201,-0.37858211,0.736960967
626,1568645,302900,1.482,-0.232,0.462,-90.5,-47.8,-113.4,-1,28.1,-18.6,0.339304788,0.44819483,-0.379284036,0.734916227
627,1570875,302900,1.486,-0.244,0.521,-101.6,-54.7,-121.4,-1,28.1,-18.6,0.341776788,0.449324015,-0.380138554,0.732627338
628,1572766,302900,1.486,-0.299,0.509,-113.5,-56.5,-130.1,-1,28.1,-18.6,0.344492935,0.4504532,-0.381084628,0.730155339
629,1575531,302910,1.497,-0.377,0.478,-125.6,-54.2,-136.2,-1,28.1,-18.6,0.34745323,0.451490829,-0.382152776,0.727530747
630,1578477,302910,1.497,-0.377,0.478,-125.6,-54.2,-136.2,-1,28.1,-18.6,0.34745323,0.451490829,-0.382152776,0.727530747
631,1580113,302910,1.466,-0.432,0.447,-142.5,-41,-140.7,-1.5,28.2,-18.1,0.350749229,0.452223273,-0.383342998,0.724875637
632,1583226,302910,1.446,-0.451,0.432,-138.4,-19.8,-142.1,-1.5,28.2,-18.1,0.357554857,0.453230384,-0.385387738,0.719809565
633,1585290,302920,1.399,-0.419,0.425,-130.3,-8.5,-141.7,-1.5,28.2,-18.1,0.361003449,0.453535569,-0.386089663,0.717520676
634,1588802,302920,1.399,-0.419,0.425,-130.3,-8.5,-141.7,-1.5,28.2,-18.1,0.361003449,0.453535569,-0.386089663,0.717520676
635,1590300,302920,1.305,-0.382,0.364,-121.9,1.9,-139.7,-2.4,29,-17.3,0.364421522,0.45371868,-0.386608478,0.715414899
636,1594001,302920,1.262,-0.386,0.321,-115.8,10.9,-135.9,-2.4,29,-17.3,0.367778558,0.453779717,-0.3869747,0.713461715
637,1596389,302930,1.117,-0.313,0.246,-111.4,25.2,-126.4,-2.4,29,-17.3,0.374370556,0.453474532,-0.387554552,0.709921567
638,1598316,302930,1.117,-0.313,0.246,-111.4,25.2,-126.4,-2.4,29,-17.3,0.374370556,0.453474532,-0.387554552,0.709921567
639,1601058,302930,0.984,-0.222,0.181,-110.5,31.6,-123.3,-2.4,29,-17.3,0.377636036,0.45310831,-0.387768181,0.708273568
640,1604228,302930,0.945,-0.225,0.147,-109.3,37.1,-122.8,-2.4,29,-17.3,0.380932035,0.452681051,-0.387951292,0.706717124
641,1606362,302940,0.956,-0.319,0.069,-108.7,39.9,-128,-2.4,29,-17.3,0.387615589,0.451765496,-0.388103885,0.703543199
642,1607795,302940,0.956,-0.319,0.069,-108.7,39.9,-128,-2.4,29,-17.3,0.387615589,0.451765496,-0.388103885,0.703543199
643,1610354,302940,0.955,-0.409,0.022,-108.7,36.3,-131,-2.7,29.1,-16.9,0.391033662,0.451368755,-0.388195441,0.701864681
644,1614180,302940,0.959,-0.425,0.018,-107,30.4,-132.8,-2.7,29.1,-16.9,0.394360179,0.451124607,-0.388256478,0.700125126
645,1616171,302950,0.944,-0.429,0.022,-102.2,23.5,-133,-2.7,29.1,-16.9,0.397595141,0.451002533,-0.388286996,0.698324534
646,1618058,302950,0.967,-0.48,0.018,-94.7,16.8,-131.9,-2.7,29.1,-16.9,0.400677511,0.451033052,-0.388286996,0.69655446
647,1621071,302950,0.982,-0.566,0.018,-85.6,11.1,-130,-2.5,29.5,-16.2,0.403607288,0.451216163,-0.388225959,0.694784387
648,1623956,302950,0.967,-0.535,0.049,-75.9,7.4,-127.2,-2.5,29.5,-16.2,0.406323435,0.451521348,-0.388042848,0.693105869
649,1625302,302960,0.932,-0.487,0.081,-66.1,6.8,-123.3,-2.5,29.5,-16.2,0.408917508,0.45188757,-0.387768181,0.691518906
650,1628259,302960,0.886,-0.431,0.094,-57.4,9.3,-118.7,-2.5,29.5,-16.2,0.411328471,0.452223273,-0.387371441,0.690054018
651,1630822,302960,0.886,-0.431,0.094,-57.4,9.3,-118.7,-2.5,29.5,-16.2,0.411328471,0.452223273,-0.387371441,0.690054018
652,1633925,302960,0.815,-0.352,0.091,-51.9,17,-109.6,-2.8,29.5,-16.1,0.413647877,0.452436903,-0.386913663,0.688802759
653,1635202,302970,0.889,-0.408,0.054,-66,18.3,-104.5,-2.8,29.5,-16.1,0.418347728,0.452528459,-0.38636433,0.686208686
654,1638232,302970,0.893,-0.389,0.066,-75.2,16.1,-103.3,-2.8,29.5,-16.1,0.42075869,0.452467421,-0.386303293,0.684774316
655,1641253,302970,0.893,-0.389,0.066,-75.2,16.1,-103.3,-2.8,29.5,-16.1,0.42075869,0.452467421,-0.386303293,0.684774316
656,1644147,302970,0.882,-0.373,0.086,-82,13.7,-101,-3,29.7,-16,0.423200171,0.452345347,-0.386425367,0.683309427
657,1645857,302980,0.866,-0.353,0.11,-85.5,12.4,-96.5,-3,29.7,-16,0.425580615,0.452192755,-0.386608478,0.68181402
658,1647788,302980,0.847,-0.352,0.114,-87.1,13.9,-82.6,-3,29.7,-16,0.430097354,0.451643422,-0.387249367,0.678975799
659,1650113,302980,0.847,-0.352,0.114,-87.1,13.9,-82.6,-3,29.7,-16,0.430097354,0.451643422,-0.387249367,0.678975799
660,1653322,302980,0.823,-0.352,0.114,-87.8,15.7,-75.1,-4.4,30.1,-15.5,0.432203131,0.451216163,-0.387676626,0.677694021
661,1655342,302990,0.816,-0.356,0.114,-89.1,17.4,-68.1,-4.4,30.1,-15.5,0.434247871,0.450697348,-0.388134404,0.676473281
662,1657801,302990,0.819,-0.379,0.118,-92.8,19.4,-56.4,-4.4,30.1,-15.5,0.438093204,0.449385052,-0.389324625,0.674153874
663,1661590,302990,0.819,-0.379,0.118,-92.8,19.4,-56.4,-4.4,30.1,-15.5,0.438093204,0.449385052,-0.389324625,0.674153874
664,1663964,302990,0.823,-0.383,0.134,-94.3,19.9,-51.6,-3.2,30.2,-15.1,0.439924314,0.448622089,-0.390026551,0.673055208
665,1665860,303000,0.827,-0.399,0.134,-95.1,20.3,-47.2,-3.2,30.2,-15.1,0.441755425,0.44779809,-0.390758995,0.67198706
666,1667986,303000,0.823,-0.411,0.134,-95.3,20.8,-43.1,-3.2,30.2,-15.1,0.44349498,0.446943571,-0.391521958,0.670949431
667,1671273,303000,0.812,-0.41,0.15,-95.2,21.6,-39,-3.2,30.2,-15.1,0.445173498,0.446058535,-0.392345958,0.669972839
668,1672977,303000,0.816,-0.426,0.154,-95.2,22.6,-34.9,-3.2,30.5,-14.7,0.446821497,0.445081942,-0.393169958,0.669057283
669,1675370,303010,0.819,-0.43,0.161,-95.8,23.4,-31,-3.2,30.5,-14.7,0.44840846,0.444074831,-0.394024476,0.668141728
670,1679023,303010,0.82,-0.445,0.173,-96.6,23.8,-27.3,-3.2,30.5,-14.7,0.449934385,0.443006684,-0.394940031,0.66728721
671,1681383,303010,0.82,-0.445,0.185,-97.4,23.7,-23.3,-3.2,30.5,-14.7,0.451429792,0.441877499,-0.395916623,0.666432691
672,1684038,303010,0.82,-0.445,0.185,-97.4,23.7,-23.3,-3.2,30.5,-14.7,0.451429792,0.441877499,-0.395916623,0.666432691
673,1687020,303020,0.828,-0.445,0.224,-97.5,23.2,-15.1,-3.7,30.5,-14.5,0.452162236,0.440198981,-0.397717215,0.665974914
674,1689021,303020,0.824,-0.453,0.244,-96.5,22.7,-11.1,-3.7,30.5,-14.5,0.453444014,0.439008759,-0.398785363,0.66524247
675,1691534,303020,0.832,-0.449,0.251,-95,22,-7.3,-3.7,30.5,-14.5,0.454634236,0.437818537,-0.39988403,0.664571062
676,1693252,303020,0.84,-0.449,0.259,-93,21.3,-3.6,-3.7,30.5,-14.5,0.455763421,0.436597797,-0.400982696,0.663930174
677,1696704,303030,0.84,-0.445,0.271,-87.6,19.6,3.2,-3.6,30.6,-14.2,0.456740013,0.435438093,-0.402081362,0.66338084
678,1698796,303030,0.851,-0.449,0.282,-87.6,19.6,3.2,-3.6,30.6,-14.2,0.457686087,0.434247871,-0.403210547,0.662831507
679,1701127,303030,0.859,-0.442,0.29,-84.1,18.7,6.5,-3.6,30.6,-14.2,0.458571123,0.433057649,-0.404278695,0.662312693
680,1702772,303030,0.871,-0.438,0.29,-80,17.8,9.8,-3.6,30.6,-14.2,0.459334086,0.431928465,-0.405346843,0.661885434
681,1705174,303040,0.875,-0.45,0.297,-70.7,15.8,15.5,-5.4,31.3,-13.8,0.459913938,0.430860317,-0.406353954,0.66154973
682,1709196,303040,0.883,-0.45,0.297,-65.1,14.7,18.3,-5.4,31.3,-13.8,0.460402234,0.429822687,-0.407330546,0.661305582
683,1711306,303040,0.891,-0.458,0.305,-65.1,14.7,18.3,-5.4,31.3,-13.8,0.460860012,0.428785058,-0.408307138,0.661061434
684,1713807,303040,0.894,-0.466,0.309,-58.4,13.7,21.3,-5.4,31.3,-13.8,0.461226234,0.427808466,-0.409192175,0.660878323
685,1715473,303050,0.894,-0.466,0.309,-58.4,13.7,21.3,-5.4,31.3,-13.8,0.461226234,0.427808466,-0.409192175,0.660878323
686,1717895,303050,0.918,-0.45,0.324,-34.4,9.5,28.9,-2.8,31.1,-13.5,0.461317789,0.426221503,-0.410626545,0.66093936
687,1721869,303050,0.918,-0.45,0.324,-34.4,9.5,28.9,-2.8,31.1,-13.5,0.461317789,0.425489059,-0.411297952,0.661000397
688,1723826,303050,0.918,-0.458,0.324,-26.3,7.7,30.8,-2.8,31.1,-13.5,0.461195715,0.42484817,-0.411877804,0.661122471
689,1726289,303060,0.918,-0.458,0.324,-26.3,7.7,30.8,-2.8,31.1,-13.5,0.461195715,0.42484817,-0.411877804,0.661122471
690,1727831,303060,0.902,-0.415,0.32,-3.3,1.6,34.7,-3,31.6,-13.3,0.460371715,0.423993652,-0.412671285,0.661763359
691,1730333,303060,0.902,-0.415,0.32,-3.3,1.6,34.7,-3,31.6,-13.3,0.459913938,0.42362743,-0.413006989,0.662099063
692,1733866,303060,0.895,-0.411,0.313,3.7,-0.9,35.6,-3,31.6,-13.3,0.459364605,0.423352763,-0.413312174,0.662465285
693,1735957,303070,0.895,-0.411,0.313,3.7,-0.9,35.6,-3,31.6,-13.3,0.459364605,0.423352763,-0.413312174,0.662465285
694,1737989,303070,0.895,-0.411,0.313,3.7,-0.9,35.6,-3,31.6,-13.3,0.459364605,0.423352763,-0.413312174,0.662465285
695,1740233,303070,0.887,-0.376,0.274,22.8,-15.5,38.5,-2.8,31.3,-13.4,0.457228309,0.422925504,-0.414136174,0.663716544
696,1744180,303070,0.883,-0.364,0.262,22.8,-15.5,38.5,-2.8,31.3,-13.4,0.456312754,0.42301706,-0.414288766,0.664174322
697,1746483,303080,0.883,-0.364,0.25,26.4,-19.5,38.7,-2.8,31.3,-13.4,0.455336161,0.423230689,-0.414471877,0.664601581
698,1748391,303080,0.883,-0.364,0.25,26.4,-19.5,38.7,-2.8,31.3,-13.4,0.455336161,0.423230689,-0.414471877,0.664601581
699,1751483,303080,0.883,-0.341,0.234,34,-31,38.1,-2.8,31.5,-13.4,0.453077792,0.424024171,-0.414807581,0.665425581
700,1753927,303080,0.887,-0.337,0.227,34,-31,38.1,-2.8,31.5,-13.4,0.451948607,0.424481948,-0.414960173,0.665822321
701,1756057,303090,0.883,-0.329,0.219,35.2,-34.6,37.5,-2.8,31.5,-13.4,0.450758385,0.424970244,-0.415143284,0.666188543
702,1758875,303090,0.883,-0.329,0.219,35.2,-34.6,37.5,-2.8,31.5,-13.4,0.450758385,0.424970244,-0.415143284,0.666188543
703,1760217,303090,0.891,-0.313,0.226,36.2,-42.1,35.2,-3.6,31.2,-13.5,0.448286386,0.426252022,-0.415540025,0.666798914
704,1763296,303090,0.894,-0.306,0.219,35.8,-43.6,34.4,-3.6,31.2,-13.5,0.447065645,0.426923429,-0.415784173,0.667043062
705,1766422,303100,0.898,-0.294,0.218,35.8,-43.6,34.4,-3.6,31.2,-13.5,0.445783868,0.427594836,-0.415997803,0.66728721
706,1768657,303100,0.898,-0.294,0.218,35.8,-43.6,34.4,-3.6,31.2,-13.5,0.445783868,0.427594836,-0.415997803,0.66728721
707,1770818,303100,0.898,-0.275,0.226,33.4,-44.6,33.1,-3.6,31.2,-13.5,0.444624165,0.428266243,-0.416241951,0.667500839
708,1772858,303100,0.914,-0.263,0.222,28.4,-42.2,32.5,-3.6,31.2,-13.5,0.442335276,0.429517502,-0.416821802,0.667867061
709,1775150,303110,0.914,-0.263,0.222,28.4,-42.2,32.5,-3.6,31.2,-13.5,0.441206091,0.430097354,-0.417126988,0.668050172
710,1778565,303110,0.914,-0.263,0.222,28.4,-42.2,32.5,-3.6,31.2,-13.5,0.441206091,0.430097354,-0.417126988,0.668050172
711,1780357,303110,0.93,-0.252,0.218,21.7,-38.2,31.4,-3.6,31.2,-13.5,0.440198981,0.43058565,-0.417462691,0.668202765
712,1782586,303110,0.953,-0.24,0.221,15.5,-33.1,30.1,-3.6,31.2,-13.5,0.43836787,0.431348613,-0.418195135,0.668446913
713,1785779,303120,0.953,-0.232,0.229,15.5,-33.1,30.1,-3.6,31.2,-13.5,0.437482833,0.431714835,-0.418591876,0.668568987
714,1788620,303120,0.953,-0.232,0.229,15.5,-33.1,30.1,-3.6,31.2,-13.5,0.437482833,0.431714835,-0.418591876,0.668568987
715,1790089,303120,0.953,-0.232,0.229,15.5,-33.1,30.1,-3.6,31.2,-13.5,0.437482833,0.431714835,-0.418591876,0.668568987
716,1793208,303120,0.977,-0.217,0.232,9.1,-25.7,30.2,-3.6,31.2,-13.5,0.436445204,0.431806391,-0.41932432,0.668691061
717,1796039,303130,0.981,-0.213,0.236,7.3,-23.8,30.5,-3.6,31.2,-13.5,0.43571276,0.431958983,-0.419721061,0.668843654
718,1798945,303130,0.977,-0.202,0.244,4.4,-20.8,30.5,-3.6,31.2,-13.5,0.434339427,0.432111576,-0.420575579,0.669087802
719,1800401,303130,0.977,-0.202,0.244,4.4,-20.8,30.5,-3.6,31.2,-13.5,0.434339427,0.432111576,-0.420575579,0.669087802
720,1803326,303130,0.977,-0.186,0.244,2.9,-19.9,29.7,-3.6,31.2,-14.4,0.43366802,0.432172613,-0.421002838,0.669209876
721,1806429,303140,0.981,-0.182,0.248,1.3,-19.5,28.6,-3.6,31.2,-14.4,0.433057649,0.432203131,-0.421430097,0.66933195
722,1807843,303140,0.981,-0.174,0.248,-1.4,-19.9,26.5,-3.6,31.2,-14.4,0.431928465,0.432264168,-0.422345653,0.669454024
723,1810864,303140,0.981,-0.174,0.248,-1.4,-19.9,26.5,-3.6,31.2,-14.4,0.431928465,0.432264168,-0.422345653,0.669454024
724,1813974,303140,0.973,-0.155,0.248,-2.9,-20.5,25.4,-3.4,31.4,-13.2,0.43140965,0.432294687,-0.42280343,0.669454024
725,1815348,303150,0.969,-0.151,0.252,-4.3,-21.2,23.9,-3.4,31.4,-13.2,0.430890835,0.432355724,-0.423291726,0.669454024
726,1817606,303150,0.965,-0.147,0.252,-7.3,-23,19.8,-3.4,31.4,-13.2,0.42997528,0.432508316,-0.424298837,0.669301431
727,1820666,303150,0.965,-0.147,0.252,-7.3,-23,19.8,-3.4,31.4,-13.2,0.42997528,0.432508316,-0.424298837,0.669301431
728,1823515,303150,0.973,-0.139,0.256,-8.8,-23.7,17.3,-3.3,31.2,-12.1,0.429609058,0.432599872,-0.424817652,0.669148839
729,1826490,303160,0.977,-0.147,0.252,-10.2,-23.9,14.8,-3.3,31.2,-12.1,0.429242836,0.432721946,-0.425336467,0.668935209
730,1827855,303160,0.985,-0.147,0.256,-12.6,-23,10.4,-3.3,31.2,-12.1,0.428724021,0.432966094,-0.426343577,0.66850795
731,1831076,303160,0.985,-0.147,0.256,-12.6,-23,10.4,-3.3,31.2,-12.1,0.428724021,0.432966094,-0.426343577,0.66850795
732,1833972,303160,0.989,-0.151,0.252,-13.3,-21.8,8.9,-3.4,31.3,-12.5,0.428510392,0.433057649,-0.426831874,0.668263802
733,1835365,303170,0.989,-0.155,0.252,-13.6,-19.9,7.9,-3.4,31.3,-12.5,0.42832728,0.433149205,-0.427289651,0.668019654
734,1838536,303170,0.981,-0.155,0.248,-13.4,-17.7,7.6,-3.4,31.3,-12.5,0.428174688,0.433210242,-0.427747429,0.667806024
735,1841506,303170,0.973,-0.155,0.248,-12.9,-15.1,7.5,-3.4,31.3,-12.5,0.428052614,0.433240761,-0.428144169,0.667622913
736,1842870,303170,0.973,-0.155,0.248,-12.9,-15.1,7.5,-3.4,31.3,-12.5,0.428052614,0.433240761,-0.428144169,0.667622913
737,1846209,303180,0.954,-0.166,0.248,-12.6,-9.7,7.6,-3.6,31.3,-12.1,0.428174688,0.433515427,-0.428266243,0.667256691
738,1849295,303180,0.95,-0.17,0.241,-13.2,-7.3,7.4,-3.6,31.3,-12.1,0.428144169,0.43345439,-0.428601947,0.667134617
739,1850818,303180,0.95,-0.178,0.233,-14.3,-5.5,6.6,-3.6,31.3,-12.1,0.428113651,0.433332316,-0.428907132,0.667012543
740,1853675,303180,0.95,-0.186,0.229,-15.7,-4,5.4,-3.6,31.3,-12.1,0.428144169,0.433179724,-0.429242836,0.666890469
741,1856599,303190,0.946,-0.189,0.217,-16.9,-2.8,3.9,-3.7,31.7,-15.5,0.428205206,0.433027131,-0.429548021,0.666737877
742,1858317,303190,0.942,-0.193,0.217,-18,-1.8,2.8,-3.7,31.7,-15.5,0.428357799,0.432874538,-0.429853206,0.666554765
743,1861254,303190,0.942,-0.197,0.214,-18.8,-1.1,1.6,-3.7,31.7,-15.5,0.428479873,0.432691427,-0.430158391,0.666402173
744,1862771,303190,0.938,-0.205,0.21,-19.9,-0.4,0.9,-3.7,31.7,-15.5,0.428662984,0.432508316,-0.430463576,0.666219062
745,1866545,303200,0.934,-0.213,0.206,-21,0,0.3,-3.6,31.9,-13.1,0.428846095,0.432294687,-0.430768761,0.666005432
746,1868119,303200,0.934,-0.221,0.202,-22.5,0.5,-0.1,-3.6,31.9,-13.1,0.429059725,0.432081057,-0.431073946,0.665822321
747,1871126,303200,0.934,-0.224,0.198,-23.8,0.6,-0.6,-3.6,31.9,-13.1,0.429303873,0.431867428,-0.43140965,0.665578173
748,1873334,303200,0.922,-0.232,0.194,-25,0.6,-1.1,-3.6,31.9,-13.1,0.429578539,0.43162328,-0.431775872,0.665334025
749,1876545,303210,0.918,-0.232,0.194,-25.8,0.3,-1.4,-3.4,31.8,-13.3,0.429822687,0.431379131,-0.432111576,0.665089877
750,1878293,303210,0.918,-0.236,0.194,-26.3,-0.2,-1.7,-3.4,31.8,-13.3,0.430097354,0.431165502,-0.432508316,0.66481521
751,1880381,303210,0.918,-0.244,0.202,-26.6,-0.9,-2,-3.4,31.8,-13.3,0.430372021,0.430951872,-0.432874538,0.664540544
752,1884363,303210,0.922,-0.24,0.202,-26.6,-1.7,-2.3,-3.4,31.8,-13.3,0.430646687,0.430738243,-0.433240761,0.664265877
753,1886663,303220,0.922,-0.24,0.206,-26.7,-2.4,-2.5,-3.5,31.8,-13.3,0.430921354,0.430555132,-0.433637501,0.663960692
754,1888973,303220,0.926,-0.24,0.202,-26.8,-2.8,-2.6,-3.5,31.8,-13.3,0.431165502,0.430372021,-0.434034242,0.663655507
755,1891212,303220,0.926,-0.236,0.21,-27.1,-3.1,-2.5,-3.5,31.8,-13.3,0.431440168,0.430158391,-0.434430982,0.663350322
756,1893453,303220,0.934,-0.232,0.214,-27.5,-3.1,-2.5,-3.5,31.8,-13.3,0.431714835,0.430005799,-0.434827723,0.663014618
757,1895245,303230,0.934,-0.232,0.214,-27.5,-3.1,-2.5,-3.5,31.8,-13.3,0.431714835,0.430005799,-0.434827723,0.663014618
758,1897896,303230,0.945,-0.225,0.217,-28.7,-2.9,-2.5,-3.6,31.8,-12.9,0.431745354,0.429731132,-0.435560167,0.662709433
759,1900200,303230,0.953,-0.229,0.221,-29.2,-2.7,-2.5,-3.6,31.8,-12.9,0.43202002,0.429517502,-0.435987426,0.66237373
760,1903982,303230,0.957,-0.225,0.221,-29.5,-2.3,-2.6,-3.6,31.8,-12.9,0.432325205,0.429303873,-0.436414686,0.662038026
761,1906172,303240,0.953,-0.221,0.221,-29.6,-2,-2.5,-3.6,31.8,-12.9,0.432599872,0.429059725,-0.436841945,0.661702322
762,1907781,303240,0.965,-0.221,0.225,-29.6,-1.8,-2.4,-3.7,31.9,-13.6,0.432905057,0.428846095,-0.437269204,0.661397137
763,1910190,303240,0.973,-0.221,0.229,-29.5,-1.7,-2.4,-3.7,31.9,-13.6,0.433210242,0.428601947,-0.437665944,0.661061434
764,1913947,303240,0.981,-0.221,0.229,-29.4,-1.8,-2.5,-3.7,31.9,-13.6,0.433484909,0.428388318,-0.438093204,0.660756249
765,1916161,303250,0.977,-0.217,0.24,-29.1,-1.8,-2.4,-3.7,31.9,-13.6,0.433790094,0.428144169,-0.438520463,0.660420545
766,1918335,303250,0.989,-0.206,0.244,-28.7,-1.5,-2.2,-3.5,32,-13.4,0.43406476,0.42793054,-0.438917203,0.66011536
767,1920327,303250,0.989,-0.206,0.244,-28.4,-1,-2,-3.5,32,-13.4,0.434339427,0.427686392,-0.439313944,0.659810175
768,1924318,303250,0.985,-0.209,0.248,-28.1,-0.5,-1.9,-3.5,32,-13.4,0.434644612,0.427442244,-0.439710685,0.65950499
769,1926623,303260,0.993,-0.202,0.248,-28,0,-1.8,-3.5,32,-13.4,0.434919279,0.427198096,-0.440107425,0.659230323
770,1928493,303260,0.989,-0.21,0.24,-27.7,0.4,-1.9,-3.7,32.2,-13.3,0.435224464,0.426953948,-0.440473647,0.658955657
771,1930894,303260,0.989,-0.21,0.24,-27.5,0.8,-1.9,-3.7,32.2,-13.3,0.43549913,0.426709799,-0.440839869,0.65868099
772,1933007,303260,0.989,-0.206,0.248,-27,1.2,-1.9,-3.7,32.2,-13.3,0.435804315,0.426435133,-0.441206091,0.658406323
773,1936843,303270,0.985,-0.209,0.248,-26.5,1.5,-1.7,-3.7,32.2,-13.3,0.436078982,0.426190985,-0.441541795,0.658162175
774,1938509,303270,0.977,-0.213,0.248,-25.5,2.4,-1.5,-3.6,32.3,-13.2,0.436384167,0.425916318,-0.441877499,0.657918027
775,1940839,303270,0.981,-0.217,0.244,-25.5,2.4,-1.5,-3.6,32.3,-13.2,0.436658834,0.42567217,-0.442213202,0.657673879
776,1942956,303270,0.981,-0.221,0.248,-25,2.8,-1.3,-3.6,32.3,-13.2,0.4369335,0.425397504,-0.442518387,0.65746025
777,1945362,303280,0.973,-0.225,0.244,-24.4,3.3,-1,-3.6,32.3,-13.2,0.437208167,0.425122837,-0.442854091,0.657216102
778,1947821,303280,0.973,-0.225,0.244,-24.4,3.3,-1,-3.6,32.3,-13.2,0.437208167,0.425122837,-0.442854091,0.657216102
779,1953080,303280,0.973,-0.225,0.244,-24.4,3.3,-1,-3.6,32.3,-13.2,0.437208167,0.425122837,-0.442854091,0.657216102
780,1953080,303280,0.965,-0.237,0.244,-23,4.5,-0.2,-3.9,32.2,-13.1,0.437665944,0.424481948,-0.443464461,0.656910916
781,1956313,303290,0.965,-0.248,0.245,-22.5,4.9,0,-3.9,32.2,-13.1,0.437940611,0.424207282,-0.443739128,0.656727805
782,1958585,303290,0.965,-0.248,0.245,-22.1,5.4,0.2,-3.9,32.2,-13.1,0.438184759,0.423902097,-0.444013794,0.656575213
783,1960444,303290,0.965,-0.248,0.245,-22.1,5.4,0.2,-3.9,32.2,-13.1,0.438184759,0.423902097,-0.444013794,0.656575213
784,1962981,303290,0.961,-0.264,0.241,-21.2,7.2,1.6,-3.8,32,-13.6,0.438673055,0.423291726,-0.444502091,0.656300546
785,1965496,303300,0.965,-0.264,0.237,-21.2,7.2,1.6,-3.8,32,-13.6,0.438917203,0.422956023,-0.444746239,0.656178472
786,1968665,303300,0.965,-0.264,0.237,-21.1,7.7,2.2,-3.8,32,-13.6,0.439161351,0.422620319,-0.445020905,0.656086917
787,1970445,303300,0.965,-0.264,0.237,-21.1,7.7,2.2,-3.8,32,-13.6,0.439161351,0.422620319,-0.445020905,0.656086917
788,1973809,303300,0.965,-0.28,0.237,-20.6,9.4,3.7,-3.8,31.4,-13.4,0.439619129,0.421887875,-0.445478683,0.655903806
789,1975875,303310,0.981,-0.28,0.233,-20.6,9.4,3.7,-3.8,31.4,-13.4,0.439832759,0.421521653,-0.445722831,0.655842769
790,1978152,303310,0.984,-0.288,0.232,-20.4,9.8,4.1,-3.8,31.4,-13.4,0.440076907,0.421155431,-0.445966979,0.655751213
791,1980256,303310,0.984,-0.288,0.232,-20.4,9.8,4.1,-3.8,31.4,-13.4,0.440076907,0.421155431,-0.445966979,0.655751213
792,1984151,303310,0.984,-0.292,0.236,-19.7,10.9,5.1,-4,31.5,-13.2,0.440504166,0.42036195,-0.446424757,0.655659658
793,1986458,303320,0.984,-0.295,0.24,-19.7,10.9,5.1,-4,31.5,-13.2,0.440717795,0.419965209,-0.446638386,0.655629139
794,1988769,303320,0.992,-0.3,0.24,-19,11.2,5.8,-4,31.5,-13.2,0.440931425,0.419568468,-0.446852016,0.655598621
795,1990977,303320,0.992,-0.3,0.24,-19,11.2,5.8,-4,31.5,-13.2,0.440931425,0.419568468,-0.446852016,0.655598621
796,1992927,303320,0.996,-0.303,0.248,-17.4,11.3,7.3,-3.7,31.4,-13,0.441084017,0.419171728,-0.447065645,0.655598621
797,1995270,303330,0.992,-0.303,0.26,-16.6,10.9,8,-3.7,31.4,-13,0.441358684,0.418378246,-0.447492904,0.655629139
798,1999104,303330,0.996,-0.307,0.256,-15.9,10.5,8.6,-3.7,31.4,-13,0.441480758,0.417981506,-0.447676016,0.655659658
799,2001336,303330,0.996,-0.307,0.256,-15.9,10.5,8.6,-3.7,31.4,-13,0.441480758,0.417981506,-0.447676016,0.655659658
800,2003576,303330,0.996,-0.307,0.256,-15.9,10.5,8.6,-3.7,31.4,-13,0.441480758,0.417981506,-0.447676016,0.655659658
801,2006564,303340,0.996,-0.303,0.271,-14.5,9.6,10,-3.7,31.4,-13,0.441267129,0.41727958,-0.448225349,0.655873287
802,2007865,303340,1.004,-0.3,0.279,-14.2,9.5,10.7,-3.7,31.4,-13,0.441419721,0.416547136,-0.448652608,0.655995361
803,2010163,303340,1,-0.303,0.279,-14,9.6,11.3,-3.7,31.4,-13,0.44145024,0.416150395,-0.448866237,0.65602588
804,2013394,303340,1,-0.303,0.279,-14,9.6,11.3,-3.7,31.4,-13,0.44145024,0.416150395,-0.448866237,0.65602588
805,2015495,303350,0.992,-0.303,0.275,-13.5,10,12.4,-3.4,32.7,-12.8,0.441511277,0.415753655,-0.449079867,0.656117435
806,2018926,303350,0.989,-0.295,0.279,-13.3,10.1,12.8,-3.4,32.7,-12.8,0.441572314,0.414960173,-0.449507126,0.656300546
807,2021127,303350,0.985,-0.299,0.276,-13,10,13.4,-3.4,32.7,-12.8,0.441602832,0.414532914,-0.449690237,0.656392102
808,2023415,303350,0.985,-0.299,0.276,-13,10,13.4,-3.4,32.7,-12.8,0.441602832,0.414532914,-0.449690237,0.656392102
809,2025440,303360,0.977,-0.295,0.276,-12.5,10,14.5,-3.2,32.3,-12.9,0.441602832,0.414136174,-0.449903867,0.656483657
810,2027692,303360,0.973,-0.291,0.276,-12.2,10.1,15.2,-3.2,32.3,-12.9,0.441602832,0.413739433,-0.450148015,0.656605731
811,2031637,303360,0.961,-0.287,0.272,-11.8,10.3,16,-3.2,32.3,-12.9,0.441572314,0.412884915,-0.450575274,0.656880398
812,2033792,303360,0.961,-0.287,0.272,-11.8,10.3,16,-3.2,32.3,-12.9,0.441572314,0.412884915,-0.450575274,0.656880398
813,2035178,303370,0.961,-0.287,0.268,-10.6,10.5,17,-3.4,32.6,-12.6,0.441511277,0.412488174,-0.450758385,0.657032991
814,2038328,303370,0.957,-0.287,0.276,-9.7,10.7,17.4,-3.4,32.6,-12.6,0.44145024,0.412060915,-0.450972015,0.657185583
815,2041394,303370,0.957,-0.283,0.268,-8.7,10.9,17.7,-3.4,32.6,-12.6,0.441328166,0.411206397,-0.451307718,0.657551805
816,2044173,303370,0.957,-0.283,0.268,-8.7,10.9,17.7,-3.4,32.6,-12.6,0.441328166,0.411206397,-0.451307718,0.657551805
817,2045855,303380,0.961,-0.283,0.264,-6.4,11.3,18.2,-3.2,32.9,-13,0.44123661,0.410809656,-0.451460311,0.657765435
818,2047903,303380,0.957,-0.287,0.256,-5.2,11.6,18.3,-3.2,32.9,-13,0.441114536,0.410412915,-0.451612903,0.658009583
819,2050380,303380,0.957,-0.287,0.253,-4.1,12.1,18.4,-3.2,32.9,-13,0.440900906,0.409619434,-0.451826533,0.658497879
820,2053832,303380,0.957,-0.287,0.253,-4.1,12.1,18.4,-3.2,32.9,-13,0.440900906,0.409619434,-0.451826533,0.658497879
821,2055794,303390,0.957,-0.287,0.253,-4.1,12.1,18.4,-3.2,32.9,-13,0.440900906,0.409619434,-0.451826533,0.658497879
822,2058791,303390,0.949,-0.287,0.245,-1,14.7,18.4,-3.1,33.3,-11.8,0.440595721,0.408978545,-0.452070681,0.658925138
823,2060182,303390,0.949,-0.299,0.245,0,15.4,18.5,-3.1,33.3,-11.8,0.440473647,0.408581805,-0.452070681,0.659230323
824,2064327,303390,0.945,-0.303,0.241,1,15.7,18.3,-3.1,33.3,-11.8,0.440382092,0.408185064,-0.452070681,0.659566027
825,2066467,303400,0.938,-0.306,0.241,1,15.7,18.3,-3.1,33.3,-11.8,0.440260018,0.407788324,-0.452070681,0.65990173
826,2068819,303400,0.934,-0.306,0.241,2.9,15.9,17.9,-3,33,-12.3,0.440137944,0.407391583,-0.452040162,0.660237434
827,2070332,303400,0.934,-0.31,0.237,3.9,15.7,17.9,-3,33,-12.3,0.439985351,0.407025361,-0.451979125,0.660603656
828,2072685,303400,0.934,-0.322,0.233,4.7,15.4,17.9,-3,33,-12.3,0.439832759,0.406689657,-0.451918088,0.66093936
829,2076500,303410,0.934,-0.326,0.234,5.4,15.1,17.8,-3,33,-12.3,0.439680166,0.406353954,-0.451857051,0.661305582
830,2078536,303410,0.941,-0.334,0.229,5.8,14.8,17.7,-3.1,33,-12.2,0.439527573,0.40601825,-0.451796014,0.661671804
831,2081662,303410,0.941,-0.334,0.229,6.1,14.7,17.5,-3.1,33,-12.2,0.439344462,0.405682546,-0.451704459,0.662038026
832,2084002,303410,0.941,-0.338,0.233,6.2,14.7,17.5,-3.1,33,-12.2,0.43919187,0.405346843,-0.451643422,0.66237373
833,2086202,303420,0.945,-0.338,0.233,6.2,14.5,17.4,-3.1,33,-12.2,0.439039277,0.405041658,-0.451551866,0.662739952
834,2088438,303420,0.945,-0.334,0.225,6.1,14.4,17.6,-3,33.2,-12.1,0.438856166,0.404705954,-0.451490829,0.663106174
835,2090721,303420,0.945,-0.338,0.229,6,14.2,17.7,-3,33.2,-12.1,0.438703574,0.404400769,-0.451429792,0.663441877
836,2092795,303420,0.945,-0.326,0.233,5.8,14.1,18,-3,33.2,-12.1,0.438520463,0.404065065,-0.451368755,0.6638081
837,2096202,303430,0.945,-0.334,0.229,5.6,13.9,18.3,-3,33.2,-12.1,0.438337352,0.403729362,-0.451307718,0.664174322
838,2098501,303430,0.945,-0.318,0.229,5.5,13.6,18.7,-2.7,32.9,-11.8,0.438154241,0.403393658,-0.4512772,0.664510025
839,2100729,303430,0.941,-0.322,0.233,5.4,13.3,18.9,-2.7,32.9,-11.8,0.437971129,0.403057955,-0.451216163,0.664876247
840,2102901,303430,0.941,-0.314,0.241,5.4,12.9,19.3,-2.7,32.9,-11.8,0.4377575,0.40275277,-0.451185644,0.665211951
841,2106457,303440,0.938,-0.302,0.245,5.6,12.4,19.7,-2.7,32.9,-11.8,0.43754387,0.402417066,-0.451155126,0.665578173
842,2108274,303440,0.938,-0.302,0.245,5.6,12.4,19.7,-2.7,32.9,-11.8,0.43754387,0.402417066,-0.451155126,0.665578173
843,2110413,303440,0.953,-0.283,0.253,6.1,11.1,20.3,-2.6,32.3,-12.4,0.436689352,0.401806696,-0.451918088,0.666005432
844,2112722,303440,0.949,-0.283,0.257,6.3,10.7,20.5,-2.6,32.3,-12.4,0.436445204,0.401532029,-0.451918088,0.666341136
845,2116539,303450,0.942,-0.271,0.257,6.6,10.5,20.9,-2.6,32.3,-12.4,0.436170537,0.401226844,-0.45188757,0.666707358
846,2118841,303450,0.946,-0.271,0.261,6.9,10.7,21.3,-2.6,32.3,-12.4,0.435895871,0.400921659,-0.45188757,0.66707358
847,2121065,303450,0.942,-0.259,0.265,7.1,11.1,21.7,-2.9,33.2,-11.7,0.435651723,0.400616474,-0.451857051,0.667439802
848,2123055,303450,0.938,-0.259,0.265,7.3,11.5,22.1,-2.9,33.2,-11.7,0.435377056,0.400311289,-0.451826533,0.667836543
849,2125176,303460,0.938,-0.255,0.269,7.4,11.9,22.4,-2.9,33.2,-11.7,0.43510239,0.399975585,-0.451826533,0.668233283
850,2129147,303460,0.938,-0.248,0.269,7.5,12.4,22.7,-2.9,33.2,-11.7,0.434827723,0.399639882,-0.451796014,0.668630024
851,2131485,303460,0.93,-0.24,0.265,7.6,12.6,22.9,-2.9,33.2,-11.7,0.434553056,0.399304178,-0.451765496,0.669026765
852,2132941,303460,0.922,-0.24,0.269,7.8,12.7,23,-2.9,33.2,-11.7,0.434247871,0.398968474,-0.451704459,0.669423505
853,2135274,303470,0.922,-0.24,0.269,8,12.8,23.1,-2.9,33.2,-11.7,0.433973205,0.398632771,-0.451643422,0.669850764
854,2139259,303470,0.922,-0.228,0.273,8.2,13,23.1,-2.9,33.2,-11.7,0.433698538,0.398266549,-0.451643422,0.670247505
855,2141543,303470,0.922,-0.228,0.273,8.2,13,23.1,-2.9,33.2,-11.7,0.433698538,0.398266549,-0.451643422,0.670247505
856,2143676,303470,0.914,-0.228,0.269,8.4,13.4,22.9,-3.2,32.9,-11.9,0.433149205,0.397595141,-0.451521348,0.671102023
857,2145948,303480,0.915,-0.22,0.269,8.5,13.7,22.6,-3.2,32.9,-11.9,0.432874538,0.397259438,-0.451490829,0.671498764
858,2147777,303480,0.903,-0.22,0.269,8.6,14.3,22.4,-3.2,32.9,-11.9,0.432599872,0.396893216,-0.451399274,0.671926023
859,2150165,303480,0.903,-0.22,0.269,8.6,14.3,22.4,-3.2,32.9,-11.9,0.432599872,0.396893216,-0.451399274,0.671926023
860,2154124,303480,0.899,-0.224,0.261,8.3,15.1,21.7,-3.2,32.9,-11.9,0.432111576,0.39619129,-0.451246681,0.672780541
861,2156321,303490,0.899,-0.224,0.265,8,15.2,21.2,-3.2,32.9,-11.9,0.431867428,0.395825068,-0.451185644,0.673177282
862,2158537,303490,0.899,-0.224,0.265,7.7,15.1,20.5,-3.2,32.9,-11.9,0.431653798,0.395489364,-0.451094089,0.673574023
863,2160845,303490,0.899,-0.224,0.265,7.7,15.1,20.5,-3.2,32.9,-11.9,0.431653798,0.395489364,-0.451094089,0.673574023
864,2162886,303490,0.899,-0.224,0.265,7.7,15.1,20.5,-3.2,32.9,-11.9,0.431653798,0.395489364,-0.451094089,0.673574023
865,2166630,303500,0.891,-0.231,0.262,6.3,14,17.9,-2.9,33.6,-12.2,0.431531724,0.395214698,-0.450972015,0.673909726
866,2168639,303500,0.887,-0.247,0.273,5.7,13.6,16.9,-2.9,33.6,-12.2,0.43119602,0.394573809,-0.450819422,0.674581133
867,2170812,303500,0.887,-0.255,0.273,5.2,13.3,16,-2.9,33.6,-12.2,0.431043428,0.394268624,-0.450758385,0.674916837
868,2172777,303500,0.887,-0.255,0.273,5.2,13.3,16,-2.9,33.6,-12.2,0.431043428,0.394268624,-0.450758385,0.674916837
869,2176738,303510,0.875,-0.258,0.274,4.1,12.7,14.4,-3.5,33.4,-12.6,0.430921354,0.393993957,-0.450697348,0.675191504
870,2178929,303510,0.868,-0.27,0.278,3.5,12.2,13.7,-3.5,33.4,-12.6,0.430677206,0.393414106,-0.450605792,0.675740837
871,2181302,303510,0.868,-0.274,0.282,2.7,11.4,12.9,-3.5,33.4,-12.6,0.43058565,0.393139439,-0.450544755,0.676015503
872,2183420,303510,0.868,-0.274,0.282,2.7,11.4,12.9,-3.5,33.4,-12.6,0.43058565,0.393139439,-0.450544755,0.676015503
873,2186652,303520,0.864,-0.285,0.29,1.1,9.4,11.5,-3.2,33.3,-12.6,0.430494095,0.392895291,-0.450544755,0.676198614
874,2188250,303520,0.864,-0.289,0.29,1.1,9.4,11.5,-3.2,33.3,-12.6,0.430402539,0.392651143,-0.450544755,0.676412244
875,2190324,303520,0.864,-0.297,0.297,-0.2,7.2,10.3,-3.2,33.3,-12.6,0.430249947,0.392223884,-0.450575274,0.676747948
876,2192656,303520,0.864,-0.297,0.297,-0.2,7.2,10.3,-3.2,33.3,-12.6,0.430249947,0.392223884,-0.450575274,0.676747948
877,2195656,303530,0.86,-0.305,0.305,-1.2,5.2,9.9,-3.2,33.4,-12.2,0.430158391,0.392040773,-0.450636311,0.676870022
878,2198791,303530,0.864,-0.297,0.309,-1.5,4.2,10,-3.2,33.4,-12.2,0.430066836,0.391857662,-0.450697348,0.676992096
879,2200954,303530,0.864,-0.297,0.313,-1.5,4.2,10,-3.2,33.4,-12.2,0.42997528,0.391674551,-0.450758385,0.677083651
880,2203231,303530,0.864,-0.297,0.321,-1.8,3.3,10.1,-3.2,33.4,-12.2,0.429883724,0.391521958,-0.45084994,0.677205725
881,2205422,303540,0.864,-0.297,0.321,-2.5,2,10.7,-1.1,32.5,-12.1,0.42976165,0.391369366,-0.450972015,0.677297281
882,2207632,303540,0.864,-0.297,0.325,-2.9,1.5,11,-1.1,32.5,-12.1,0.429639576,0.391186254,-0.451094089,0.677388836
883,2210677,303540,0.864,-0.293,0.329,-2.9,1.5,11,-1.1,32.5,-12.1,0.429517502,0.391033662,-0.451216163,0.677480392
884,2212796,303540,0.86,-0.285,0.329,-3.2,1.1,11.4,-1.1,32.5,-12.1,0.429395428,0.390881069,-0.451338237,0.677541429
885,2216711,303550,0.86,-0.285,0.329,-3.2,1.1,11.4,-1.1,32.5,-12.1,0.429395428,0.390881069,-0.451338237,0.677541429
886,2218953,303550,0.872,-0.278,0.321,-3.4,0.2,12.8,-2.8,33.1,-12.7,0.429181799,0.389873959,-0.451307718,0.678273873
887,2221195,303550,0.868,-0.274,0.325,-3.2,0.2,13,-2.8,33.1,-12.7,0.429029206,0.389721366,-0.451460311,0.678365429
888,2223400,303550,0.872,-0.274,0.329,-2.9,0.1,13.1,-2.8,33.1,-12.7,0.428846095,0.389568773,-0.451612903,0.678456984
889,2225674,303560,0.876,-0.274,0.325,-2.9,0.1,13.1,-2.8,33.1,-12.7,0.428693503,0.389416181,-0.451765496,0.67854854
890,2228653,303560,0.876,-0.27,0.325,-1.8,0.7,13.2,-2.5,33.4,-12.8,0.428510392,0.389263588,-0.45188757,0.678670614
891,2230098,303560,0.876,-0.266,0.321,-1,1.1,13.2,-2.5,33.4,-12.8,0.428357799,0.389080477,-0.452009644,0.678792688
892,2232927,303560,0.876,-0.27,0.317,-0.2,1.5,13,-2.5,33.4,-12.8,0.428174688,0.388927885,-0.452101199,0.678914762
893,2235208,303570,0.879,-0.262,0.313,-0.2,1.5,13,-2.5,33.4,-12.8,0.427991577,0.388775292,-0.452192755,0.679067354
894,2238180,303570,0.876,-0.266,0.313,1.2,1.6,12.3,-1.6,33.2,-12.3,0.427808466,0.388653218,-0.45228431,0.679189428
895,2241032,303570,0.883,-0.262,0.309,2,1.5,11.9,-1.6,33.2,-12.3,0.427625355,0.388531144,-0.452345347,0.679342021
896,2242706,303570,0.883,-0.262,0.309,2.8,1.3,11.5,-1.6,33.2,-12.3,0.427442244,0.388439589,-0.452375866,0.679494613
897,2246403,303580,0.879,-0.262,0.309,3.4,1.1,11.1,-1.6,33.2,-12.3,0.427259133,0.388317515,-0.452406384,0.679647206
898,2247801,303580,0.883,-0.262,0.309,4,0.8,10.6,-2.4,33.3,-12.8,0.427076022,0.388256478,-0.452436903,0.67976928
899,2250926,303580,0.879,-0.258,0.301,4.4,0.3,10.1,-2.4,33.3,-12.8,0.426892911,0.388195441,-0.452436903,0.679921873
900,2254134,303580,0.879,-0.262,0.309,4.9,0,9.7,-2.4,33.3,-12.8,0.426709799,0.388134404,-0.452467421,0.680074465
901,2256368,303590,0.883,-0.258,0.309,5,-0.5,9.3,-2.4,33.3,-12.8,0.426526688,0.388103885,-0.452467421,0.680196539
902,2257822,303590,0.891,-0.262,0.305,5.2,-0.9,9,-1.8,32.7,-12.4,0.426343577,0.388073366,-0.452467421,0.680318613
903,2261293,303590,0.887,-0.254,0.309,5.3,-1.4,8.8,-1.8,32.7,-12.4,0.426160466,0.388042848,-0.45249794,0.680440687
904,2263487,303590,0.887,-0.262,0.309,5.4,-1.8,8.7,-1.8,32.7,-12.4,0.425946837,0.388042848,-0.45249794,0.680562761
905,2265714,303600,0.891,-0.254,0.309,5.5,-2.2,8.5,-1.8,32.7,-12.4,0.425763726,0.388042848,-0.45249794,0.680654317
906,2267804,303600,0.891,-0.254,0.309,5.5,-2.2,8.5,-1.8,32.7,-12.4,0.425763726,0.388042848,-0.45249794,0.680654317
907,2271662,303600,0.887,-0.247,0.309,5.3,-3,8,-1.6,32.6,-12.1,0.425916318,0.387920774,-0.452009644,0.68099002
908,2273917,303600,0.891,-0.247,0.309,5,-3.4,7.7,-1.6,32.6,-12.1,0.425702689,0.387951292,-0.452009644,0.681081576
909,2276257,303610,0.891,-0.247,0.309,4.5,-3.7,7.6,-1.6,32.6,-12.1,0.425519578,0.387981811,-0.452070681,0.681173132
910,2277811,303610,0.899,-0.247,0.312,4.1,-4.1,7.3,-1.6,32.6,-12.1,0.425336467,0.387981811,-0.452101199,0.681234169
911,2281169,303610,0.899,-0.247,0.312,4.1,-4.1,7.3,-1.6,32.6,-12.1,0.425336467,0.387981811,-0.452101199,0.681234169
912,2283412,303610,0.899,-0.247,0.312,3,-4.9,6.9,-1.6,33,-12.3,0.424970244,0.388042848,-0.452192755,0.681356243
913,2285476,303620,0.899,-0.251,0.308,2.3,-5.3,6.8,-1.6,33,-12.3,0.424787133,0.388103885,-0.45228431,0.68141728
914,2287642,303620,0.899,-0.247,0.312,2,-5.5,7.1,-1.6,33,-12.3,0.424634541,0.388134404,-0.452345347,0.681447798
915,2290808,303620,0.899,-0.247,0.312,2,-5.5,7.1,-1.6,33,-12.3,0.424634541,0.388134404,-0.452345347,0.681447798
916,2292820,303620,0.895,-0.251,0.308,1.6,-5.5,7.9,-1.6,33,-12.3,0.4242378,0.388164922,-0.452558977,0.681539354
917,2296007,303630,0.891,-0.247,0.301,1.5,-5.5,8.2,-1.6,33,-12.3,0.424054689,0.388195441,-0.452650533,0.681569872
918,2298737,303630,0.895,-0.243,0.297,1.3,-5.5,8.4,-1.6,33,-12.3,0.423871578,0.388195441,-0.452742088,0.681630909
919,2301072,303630,0.895,-0.243,0.297,1.3,-5.5,8.4,-1.6,33,-12.3,0.423871578,0.388195441,-0.452742088,0.681630909
920,2303335,303630,0.899,-0.251,0.293,1.1,-5.4,8.6,-1.6,33,-12.3,0.423688467,0.388195441,-0.452864162,0.681661428
921,2305397,303640,0.895,-0.255,0.285,0.5,-5.4,8.4,-1.6,33,-12.3,0.423291726,0.388195441,-0.453077792,0.681752983
922,2307703,303640,0.899,-0.259,0.285,0.3,-5.5,8.1,-1.6,33,-12.3,0.423139134,0.388225959,-0.453199866,0.681783502
923,2311619,303640,0.899,-0.259,0.285,0.3,-5.5,8.1,-1.6,33,-12.3,0.423139134,0.388225959,-0.453199866,0.681783502
924,2313973,303640,0.903,-0.263,0.277,0.3,-5.5,7.9,-2.3,32.8,-12.6,0.422956023,0.388225959,-0.453291421,0.68181402
925,2316190,303650,0.899,-0.27,0.277,0.8,-5.6,7.3,-2.3,32.8,-12.6,0.422589801,0.388256478,-0.453505051,0.681875057
926,2318461,303650,0.907,-0.278,0.281,1.2,-5.8,6.9,-2.3,32.8,-12.6,0.422437208,0.388286996,-0.453596606,0.681875057
927,2320468,303650,0.907,-0.278,0.281,1.2,-5.8,6.9,-2.3,32.8,-12.6,0.422437208,0.388286996,-0.453596606,0.681875057
928,2324530,303650,0.907,-0.278,0.281,1.2,-5.8,6.9,-2.3,32.8,-12.6,0.422437208,0.388286996,-0.453596606,0.681875057
929,2326752,303660,0.907,-0.29,0.297,2,-6.6,6.1,-2.3,32.8,-12.6,0.422345653,0.388470107,-0.453566088,0.681844539
930,2328373,303660,0.914,-0.29,0.289,2.3,-6.9,5.9,-2.3,32.8,-12.6,0.42219306,0.388531144,-0.453657643,0.681875057
931,2331381,303660,0.914,-0.294,0.3,2.8,-7.8,5.7,-2.3,32.8,-12.6,0.421826838,0.388683737,-0.453810236,0.681905576
932,2332826,303660,0.914,-0.294,0.3,2.8,-7.8,5.7,-2.3,32.8,-12.6,0.421826838,0.388683737,-0.453810236,0.681905576
933,2335272,303670,0.914,-0.29,0.304,2.9,-8.3,5.7,-0.8,32.7,-12.3,0.421613208,0.388775292,-0.453901791,0.681905576
934,2339022,303670,0.914,-0.29,0.304,2.9,-8.6,5.6,-0.8,32.7,-12.3,0.421430097,0.388866848,-0.453962828,0.681905576
935,2341528,303670,0.914,-0.294,0.304,2.8,-8.7,5.7,-0.8,32.7,-12.3,0.421246986,0.388988922,-0.454054384,0.681936094
936,2343583,303670,0.915,-0.29,0.312,2.6,-8.7,5.9,-0.8,32.7,-12.3,0.421033357,0.389080477,-0.45414594,0.681936094
937,2345969,303680,0.922,-0.294,0.312,2.3,-8.3,6.4,-0.9,32.8,-12.2,0.420850246,0.389141514,-0.454237495,0.681936094
938,2347933,303680,0.918,-0.294,0.304,2.3,-8.3,6.4,-0.9,32.8,-12.2,0.420636616,0.38923307,-0.454359569,0.681966613
939,2350319,303680,0.922,-0.29,0.308,2.1,-8,6.8,-0.9,32.8,-12.2,0.420392468,0.389324625,-0.454451125,0.681966613
940,2354712,303680,0.922,-0.29,0.308,2,-7.7,7,-0.9,32.8,-12.2,0.420239875,0.389385662,-0.45454268,0.681997131
941,2356955,303690,0.922,-0.286,0.316,1.8,-6.9,7.1,-2.1,32.7,-12.6,0.420056764,0.389416181,-0.454634236,0.68202765
942,2359142,303690,0.926,-0.29,0.312,1.8,-6.9,7.1,-2.1,32.7,-12.6,0.419843135,0.389477218,-0.45475631,0.68202765
943,2361640,303690,0.926,-0.286,0.308,1.9,-6.5,7.2,-2.1,32.7,-12.6,0.419660024,0.389507736,-0.454847865,0.682058168
944,2364353,303690,0.93,-0.282,0.308,2.2,-6.1,7.2,-2.1,32.7,-12.6,0.419476913,0.389568773,-0.454908902,0.682119205
945,2365948,303700,0.922,-0.286,0.312,3.4,-5.3,7.1,-0.9,32.9,-12,0.419293802,0.389599292,-0.454969939,0.682149724
946,2367735,303700,0.918,-0.282,0.308,3.4,-5.3,7.1,-0.9,32.9,-12,0.419110691,0.38962981,-0.455030976,0.682210761
947,2371683,303700,0.918,-0.278,0.304,4.1,-5.2,7.1,-0.9,32.9,-12,0.418897061,0.389690847,-0.455092013,0.682271798
948,2373702,303700,0.922,-0.278,0.304,4.7,-5.1,7.2,-0.9,32.9,-12,0.41871395,0.389751885,-0.455122532,0.682363353
949,2375855,303710,0.922,-0.278,0.304,4.7,-5.1,7.2,-0.9,32.9,-12,0.41871395,0.389751885,-0.455122532,0.682363353
950,2378637,303710,0.922,-0.278,0.304,6.2,-5.2,7.4,-0.6,32.6,-12.4,0.418591876,0.389690847,-0.454969939,0.682546464
951,2380178,303710,0.922,-0.271,0.296,6.6,-5.3,7.5,-0.6,32.6,-12.4,0.418347728,0.389751885,-0.454969939,0.68263802
952,2384616,303710,0.918,-0.271,0.296,6.6,-5.3,7.5,-0.6,32.6,-12.4,0.418134098,0.389812922,-0.455000458,0.682729575
953,2386798,303720,0.918,-0.267,0.296,7,-5.1,7.7,-0.6,32.6,-12.4,0.417920469,0.389873959,-0.455000458,0.682821131
954,2388928,303720,0.918,-0.267,0.288,7.8,-4.9,7.9,-0.5,33,-12.4,0.417676321,0.389965514,-0.455000458,0.682943205
955,2391135,303720,0.915,-0.263,0.292,8.1,-4.8,8.1,-0.5,33,-12.4,0.417432173,0.390026551,-0.455000458,0.683034761
956,2392830,303720,0.907,-0.263,0.289,8.4,-4.6,8.3,-0.5,33,-12.4,0.417188025,0.390087588,-0.454969939,0.683156835
957,2395155,303730,0.914,-0.259,0.285,8.4,-4.6,8.3,-0.5,33,-12.4,0.416943876,0.390148625,-0.454969939,0.683278909
958,2399134,303730,0.911,-0.259,0.285,8.9,-4.3,8.8,-0.5,32.6,-12,0.416699728,0.390209662,-0.454939421,0.683431501
959,2401120,303730,0.907,-0.255,0.277,9.2,-4.4,9,-0.5,32.6,-12,0.41645558,0.390270699,-0.454939421,0.683553575
960,2403362,303730,0.907,-0.255,0.277,9.4,-4.6,9.3,-0.5,32.6,-12,0.416180914,0.390331736,-0.454908902,0.683706168
961,2405500,303740,0.907,-0.251,0.281,9.4,-4.6,9.3,-0.5,32.6,-12,0.415906247,0.390392773,-0.454878384,0.683828242
962,2409319,303740,0.907,-0.251,0.281,9.4,-4.6,9.3,-0.5,32.6,-12,0.415906247,0.390392773,-0.454878384,0.683828242
963,2411808,303740,0.911,-0.247,0.277,9.8,-5.1,9.8,-1.2,32.5,-12.5,0.415356914,0.390514847,-0.454847865,0.684133427
964,2413779,303740,0.911,-0.251,0.269,9.7,-5.2,9.7,-1.2,32.5,-12.5,0.415082247,0.390575884,-0.454847865,0.684255501
965,2415996,303750,0.914,-0.247,0.277,9.7,-5.2,9.7,-1.2,32.5,-12.5,0.414777062,0.39066744,-0.454817347,0.684408094
966,2419364,303750,0.914,-0.247,0.277,9.7,-5.2,9.7,-1.2,32.5,-12.5,0.414777062,0.39066744,-0.454817347,0.684408094
967,2421603,303750,0.914,-0.243,0.277,8.9,-5.6,8.8,-1.2,33.1,-12.1,0.414258248,0.390820032,-0.454817347,0.684652242
968,2423908,303750,0.918,-0.251,0.273,8.6,-5.7,8.4,-1.2,33.1,-12.1,0.413983581,0.390881069,-0.454817347,0.684774316
969,2426159,303760,0.918,-0.247,0.273,8.4,-5.9,8.1,-1.2,33.1,-12.1,0.413739433,0.390972625,-0.454817347,0.684865871
970,2428620,303760,0.918,-0.247,0.273,8.4,-5.9,8.1,-1.2,33.1,-12.1,0.413739433,0.390972625,-0.454817347,0.684865871
971,2431383,303760,0.918,-0.247,0.273,8.4,-5.9,8.1,-1.2,33.1,-12.1,0.413739433,0.390972625,-0.454817347,0.684865871
972,2433681,303760,0.918,-0.247,0.277,8.1,-6.2,7.7,-1.1,32.4,-11.8,0.413708914,0.391308329,-0.454603717,0.684865871
973,2435979,303770,0.918,-0.243,0.273,7.7,-6,7.9,-1.1,32.4,-11.8,0.413220618,0.391460921,-0.454603717,0.685048982
974,2439070,303770,0.918,-0.243,0.273,7.5,-5.8,8,-1.1,32.4,-11.8,0.41297647,0.391552477,-0.454603717,0.685140538
975,2441222,303770,0.918,-0.243,0.273,7.5,-5.8,8,-1.1,32.4,-11.8,0.41297647,0.391552477,-0.454603717,0.685140538
976,2443490,303770,0.922,-0.24,0.281,7.2,-5.7,7.8,-1.1,32.8,-11.3,0.412732322,0.391613514,-0.454634236,0.685232093
977,2446064,303780,0.922,-0.239,0.284,6.7,-5.8,7.4,-1.1,32.8,-11.3,0.412488174,0.391705069,-0.454634236,0.685323649
978,2448509,303780,0.918,-0.239,0.288,5.8,-5.7,6,-1.1,32.8,-11.3,0.412091433,0.391857662,-0.454664754,0.685445723
979,2450290,303780,0.918,-0.239,0.288,5.8,-5.7,6,-1.1,32.8,-11.3,0.412091433,0.391857662,-0.454664754,0.685445723
980,2452696,303780,0.915,-0.239,0.285,5.3,-5.5,5.4,-1.1,32.8,-11.3,0.411908322,0.391918699,-0.454695273,0.68550676
981,2456305,303790,0.922,-0.247,0.281,4.7,-5.3,4.9,-1.1,32.8,-11.3,0.41175573,0.392010254,-0.454695273,0.685567797
982,2458668,303790,0.918,-0.247,0.281,3.7,-4.7,4.1,-1.1,32.8,-11.3,0.411450545,0.392132328,-0.45475631,0.685628834
983,2460928,303790,0.918,-0.247,0.281,3.7,-4.7,4.1,-1.1,32.8,-11.3,0.411450545,0.392132328,-0.45475631,0.685628834
984,2463184,303790,0.915,-0.247,0.289,3.3,-4.6,3.9,-1.1,32.6,-12.1,0.411328471,0.392193365,-0.454786828,0.685659352
985,2465230,303800,0.918,-0.251,0.285,3,-4.4,3.7,-1.1,32.6,-12.1,0.411175878,0.392254402,-0.454786828,0.685689871
986,2468958,303800,0.914,-0.251,0.281,2.8,-4.3,3.7,-1.1,32.6,-12.1,0.411053804,0.392284921,-0.454817347,0.685720389
987,2471293,303800,0.918,-0.251,0.285,2.6,-4.1,3.7,-1.1,32.6,-12.1,0.41093173,0.392345958,-0.454847865,0.685750908
988,2473434,303800,0.915,-0.247,0.285,2.3,-3.9,3.6,-1.1,32.4,-12.1,0.410840175,0.392376476,-0.454878384,0.685750908
989,2475454,303810,0.915,-0.247,0.285,2.2,-3.7,3.5,-1.1,32.4,-12.1,0.410718101,0.392437513,-0.454908902,0.685781426
990,2477780,303810,0.914,-0.255,0.281,2.1,-3.6,3.4,-1.1,32.4,-12.1,0.410626545,0.392468032,-0.454939421,0.685811945
991,2481420,303810,0.914,-0.255,0.277,2.1,-3.4,3.3,-1.1,32.4,-12.1,0.410504471,0.39249855,-0.454969939,0.685811945
992,2482750,303810,0.914,-0.255,0.277,2.1,-3.4,3.3,-1.1,32.4,-12.1,0.410504471,0.39249855,-0.454969939,0.685811945
993,2485747,303820,0.914,-0.247,0.281,1.8,-2.9,3.1,-1.1,32.2,-11.4,0.410962249,0.392986847,-0.454390088,0.685659352
994,2488590,303820,0.918,-0.255,0.281,1.8,-2.9,3.1,-1.1,32.2,-11.4,0.410870693,0.393017365,-0.454420606,0.685689871
995,2491490,303820,0.922,-0.251,0.281,1.7,-2.8,3,-1.1,32.2,-11.4,0.410779138,0.393047884,-0.454420606,0.685720389
996,2492841,303820,0.918,-0.255,0.277,1.5,-2.8,2.9,-1.1,32.2,-11.4,0.410687582,0.393047884,-0.454451125,0.685720389
997,2496037,303830,0.918,-0.259,0.273,1.2,-2.9,2.6,-0.9,32.8,-12,0.410626545,0.393108921,-0.454481643,0.685750908
998,2498369,303830,0.922,-0.263,0.273,1.2,-2.9,2.6,-0.9,32.8,-12,0.410534989,0.393139439,-0.454512162,0.685750908
999,2500428,303830,0.922,-0.263,0.273,1.2,-2.9,2.6,-0.9,32.8,-12,0.410534989,0.393139439,-0.454512162,0.685750908
1000,2504247,303830,0.914,-0.267,0.265,0.9,-2.9,1.9,-0.9,32.8,-12,0.410412915,0.393200476,-0.454573199,0.685750908
1001,2505722,303840,0.922,-0.267,0.281,0.7,-3,1.8,-1.1,32.5,-14.7,0.410351878,0.393230995,-0.454603717,0.685750908
1002,2508630,303840,0.918,-0.267,0.273,0.6,-3.2,1.8,-1.1,32.5,-14.7,0.410290841,0.393261513,-0.454634236,0.685750908
1003,2510134,303840,0.922,-0.267,0.281,0.1,-3.4,1.8,-1.1,32.5,-14.7,0.410138249,0.39332255,-0.454725791,0.685720389
1004,2513174,303840,0.922,-0.267,0.281,0.1,-3.4,1.8,-1.1,32.5,-14.7,0.410138249,0.39332255,-0.454725791,0.685720389
1005,2516110,303850,0.918,-0.271,0.273,-0.1,-3.4,1.8,-1.2,32.6,-12.3,0.410077212,0.393383587,-0.454786828,0.685720389
1006,2517695,303850,0.914,-0.271,0.265,-0.4,-3.4,1.8,-1.2,32.6,-12.3,0.410016175,0.393383587,-0.454847865,0.685689871
1007,2521394,303850,0.914,-0.275,0.269,-0.9,-3.5,1.7,-1.2,32.6,-12.3,0.409924619,0.393444624,-0.454969939,0.685659352
1008,2522737,303850,0.914,-0.275,0.269,-0.9,-3.5,1.7,-1.2,32.6,-12.3,0.409924619,0.393444624,-0.454969939,0.685659352
1009,2525088,303860,0.918,-0.267,0.265,-1,-3.6,1.8,-1.1,32.5,-12.3,0.409863582,0.393475143,-0.455030976,0.685628834
1010,2528212,303860,0.918,-0.271,0.261,-1,-3.6,1.8,-1.1,32.5,-12.3,0.409802545,0.393505661,-0.455092013,0.685598315
1011,2531079,303860,0.918,-0.271,0.265,-0.9,-3.7,1.9,-1.1,32.5,-12.3,0.409741508,0.39353618,-0.45515305,0.685567797
1012,2533840,303860,0.914,-0.267,0.265,-0.8,-3.7,2,-1.1,32.5,-12.3,0.409680471,0.393566698,-0.455214087,0.685567797
1013,2535283,303870,0.914,-0.267,0.265,-0.8,-3.7,2,-1.1,32.5,-12.3,0.409680471,0.393566698,-0.455214087,0.685567797
1014,2537619,303870,0.914,-0.263,0.265,-0.8,-4.2,2.2,-1,32.4,-12.9,0.409833064,0.393963439,-0.455092013,0.68529313
1015,2541406,303870,0.918,-0.267,0.273,-0.9,-4.3,2.2,-1,32.4,-12.9,0.409772027,0.393993957,-0.45515305,0.68529313
1016,2543914,303870,0.922,-0.271,0.273,-1.1,-4.5,2.3,-1,32.4,-12.9,0.40971099,0.394024476,-0.455244606,0.685262612
1017,2546014,303880,0.918,-0.271,0.277,-1.4,-4.5,2.2,-1,32.4,-12.9,0.409649953,0.394085513,-0.455336161,0.685201575
1018,2548166,303880,0.922,-0.267,0.277,-1.8,-4.5,2.1,-1.1,32.4,-13.4,0.409588916,0.394116031,-0.455397198,0.685171056
1019,2551068,303880,0.914,-0.263,0.277,-2.2,-4.5,1.9,-1.1,32.4,-13.4,0.409527879,0.39414655,-0.455488754,0.685140538
1020,2553554,303880,0.922,-0.263,0.281,-2.6,-4.3,1.9,-1.1,32.4,-13.4,0.409466842,0.39414655,-0.455610828,0.685079501
1021,2555843,303890,0.918,-0.267,0.281,-3,-3.9,1.9,-1.1,32.4,-13.4,0.409436323,0.394177068,-0.455702383,0.685048982
1022,2557831,303890,0.922,-0.267,0.273,-3.9,-2.8,1.9,-1.5,32.5,-12.8,0.409405805,0.39414655,-0.455793939,0.684987945
1023,2561539,303890,0.922,-0.267,0.269,-3.9,-2.8,1.9,-1.5,32.5,-12.8,0.409375286,0.39414655,-0.455885495,0.684957427
1024,2563827,303890,0.918,-0.267,0.277,-4.1,-2.3,1.9,-1.5,32.5,-12.8,0.409375286,0.394116031,-0.456007569,0.68489639
1025,2566011,303900,0.918,-0.267,0.269,-4.4,-1.9,1.9,-1.5,32.5,-12.8,0.409375286,0.394085513,-0.456099124,0.684865871
1026,2568312,303900,0.918,-0.259,0.265,-4.5,-0.8,1.8,-1.3,32.5,-13.2,0.409375286,0.394054994,-0.45619068,0.684835353
1027,2570476,303900,0.918,-0.263,0.269,-4.5,-0.8,1.8,-1.3,32.5,-13.2,0.409375286,0.393993957,-0.456282235,0.684774316
1028,2572901,303900,0.914,-0.255,0.269,-4.5,-0.4,1.7,-1.3,32.5,-13.2,0.409375286,0.39393292,-0.456373791,0.684743797
1029,2575787,303910,0.914,-0.267,0.265,-4.3,-0.1,1.4,-1.3,32.5,-13.2,0.409375286,0.393902402,-0.456434828,0.684713279
1030,2577897,303910,0.914,-0.267,0.265,-3.9,0.2,0.9,-1.4,32.4,-12.8,0.409405805,0.393841365,-0.456526383,0.68468276
