sample_index,elapsed_us,device_time_ms,acc_x_g,acc_y_g,acc_z_g,gyro_x_dps,gyro_y_dps,gyro_z_dps,mag_x_ut,mag_y_ut,mag_z_ut,quat_w,quat_x,quat_y,quat_z
0,4767,1495760,-0.537,-0.584,0.61,2.7,1,-5.7,5.7,-7.2,-23.3,0.472609638,0.0874050111,0.433179724,-0.762443922
1,7613,1495760,-0.541,-0.588,0.606,3,1.3,-6,5.7,-7.2,-23.3,0.472487564,0.0874050111,0.433149205,-0.762535478
2,9873,1495770,-0.549,-0.588,0.602,3.4,1.4,-6,5.7,-7.2,-23.3,0.47236549,0.0874050111,0.433118686,-0.762627033
3,12851,1495770,-0.549,-0.588,0.602,3.7,1.4,-6,5.5,-7.4,-23.1,0.472243416,0.0874050111,0.433088168,-0.76268807
4,15137,1495770,-0.545,-0.596,0.602,4.2,1.3,-6,5.5,-7.4,-23.1,0.472121342,0.0874355296,0.433027131,-0.762810144
5,17336,1495770,-0.545,-0.588,0.598,4.6,1.1,-6.3,5.5,-7.4,-23.1,0.471999268,0.0874355296,0.432996612,-0.762932218
6,19635,1495780,-0.545,-0.584,0.598,5.1,0.9,-6.5,5.5,-7.4,-23.1,0.471877194,0.0874355296,0.432905057,-0.763023774
7,21935,1495780,-0.545,-0.58,0.598,5.4,0.8,-6.6,5.2,-7.6,-23.3,0.471755119,0.0874355296,0.43284402,-0.763145848
8,24056,1495780,-0.545,-0.588,0.61,5.7,0.5,-6.7,5.2,-7.6,-23.3,0.471602527,0.0874355296,0.432782983,-0.763267922
9,27105,1495780,-0.541,-0.588,0.606,5.8,0.4,-6.8,5.2,-7.6,-23.3,0.471480453,0.0874355296,0.432691427,-0.763389996
10,29317,1495790,-0.545,-0.584,0.61,6,0.3,-7,5.2,-7.6,-23.3,0.471358379,0.0874660482,0.432599872,-0.763542589
11,32279,1495790,-0.541,-0.592,0.614,6.2,0.3,-7.1,3.6,-7.7,-23.2,0.471175268,0.0874660482,0.432508316,-0.763664663
12,33993,1495790,-0.545,-0.588,0.61,6.5,0.3,-7.1,3.6,-7.7,-23.2,0.471083712,0.0874660482,0.432416761,-0.763786737
13,36849,1495790,-0.537,-0.592,0.61,6.5,0.1,-7.1,3.6,-7.7,-23.2,0.470961638,0.0874660482,0.432325205,-0.763939329
14,39087,1495800,-0.533,-0.585,0.613,6.3,0,-7.2,3.6,-7.7,-23.2,0.470809046,0.0874660482,0.43223365,-0.764061403
15,42013,1495800,-0.533,-0.585,0.613,6.3,0,-7.2,3.6,-7.7,-23.2,0.470809046,0.0874660482,0.43223365,-0.764061403
16,45011,1495800,-0.537,-0.588,0.614,6,0,-7.3,7.5,-7.4,-23.5,0.470503861,0.0873744926,0.432111576,-0.76433607
17,46578,1495800,-0.537,-0.6,0.617,6,0,-7.3,7.5,-7.4,-23.5,0.470381787,0.0873744926,0.43202002,-0.764458144
18,50142,1495810,-0.533,-0.596,0.617,6,0.2,-7.3,7.5,-7.4,-23.5,0.470229194,0.0873744926,0.431928465,-0.764610736
19,51638,1495810,-0.537,-0.596,0.614,5.9,0.2,-7.4,7.3,-7.4,-23.7,0.47010712,0.0873744926,0.431867428,-0.76473281
20,54792,1495810,-0.529,-0.6,0.613,5.8,0.4,-7.4,7.3,-7.4,-23.7,0.469954527,0.0873744926,0.431775872,-0.764854884
21,57725,1495810,-0.537,-0.604,0.614,5.8,0.4,-7.3,7.3,-7.4,-23.7,0.469832453,0.0873439741,0.431714835,-0.765007477
22,59287,1495820,-0.53,-0.608,0.617,5.8,0.4,-7.1,7.3,-7.4,-23.7,0.469679861,0.0873744926,0.43162328,-0.765129551
23,62802,1495820,-0.53,-0.616,0.621,5.8,0.4,-7,7.5,-7.6,-23.8,0.469557787,0.0873744926,0.431531724,-0.765251625
24,64270,1495820,-0.534,-0.612,0.621,5.9,0.5,-6.8,7.5,-7.6,-23.8,0.469435713,0.0873744926,0.431470687,-0.765373699
25,66707,1495820,-0.534,-0.62,0.621,6.1,0.5,-6.7,7.5,-7.6,-23.8,0.46928312,0.0873744926,0.431379131,-0.765495773
26,70290,1495830,-0.526,-0.62,0.621,6.3,0.4,-6.6,7.5,-7.6,-23.8,0.469161046,0.0873744926,0.431287576,-0.765617847
27,71760,1495830,-0.53,-0.616,0.625,6.5,0.3,-6.3,7.4,-7.4,-23.6,0.469038972,0.0874050111,0.43119602,-0.765739921
28,74284,1495830,-0.526,-0.616,0.629,6.6,0.3,-6.1,7.4,-7.4,-23.6,0.468916898,0.0874050111,0.431104465,-0.765892514
29,77888,1495830,-0.526,-0.612,0.625,6.6,0.3,-5.9,7.4,-7.4,-23.6,0.468794824,0.0874355296,0.431012909,-0.766014588
30,79538,1495840,-0.53,-0.616,0.625,6.6,0.6,-5.7,7.4,-7.4,-23.6,0.468703269,0.0874660482,0.430921354,-0.766136662
31,81846,1495840,-0.525,-0.604,0.629,6.7,0.8,-5.7,5.4,-7.8,-23.2,0.468581194,0.0874965667,0.430829798,-0.766228217
32,84171,1495840,-0.525,-0.608,0.625,6.7,0.9,-5.6,5.4,-7.8,-23.2,0.46845912,0.0874965667,0.430738243,-0.766350291
33,86683,1495840,-0.525,-0.604,0.633,6.9,1,-5.4,5.4,-7.8,-23.2,0.468337046,0.0875576037,0.430616169,-0.766472365
34,90809,1495850,-0.525,-0.596,0.633,7,0.9,-5.2,5.4,-7.8,-23.2,0.468245491,0.0875881222,0.430524613,-0.76659444
35,93144,1495850,-0.525,-0.596,0.633,7,0.9,-5.2,5.4,-7.8,-23.2,0.468245491,0.0875881222,0.430524613,-0.76659444
36,95310,1495850,-0.525,-0.593,0.637,7.3,0.8,-4.8,5.4,-7.8,-23,0.467940306,0.0874355296,0.430310984,-0.766930143
37,97274,1495850,-0.521,-0.597,0.637,7.2,0.7,-4.6,5.4,-7.8,-23,0.46784875,0.0874660482,0.430158391,-0.767052217
38,99194,1495860,-0.521,-0.585,0.64,7,0.8,-4.5,5.4,-7.8,-23,0.467757195,0.0874965667,0.430097354,-0.767143773
39,103422,1495860,-0.521,-0.589,0.64,6.8,0.8,-4.4,4,-8,-23.4,0.467665639,0.0875576037,0.430005799,-0.767265847
40,104021,1495860,-0.521,-0.585,0.64,6.6,1,-4.4,4,-8,-23.4,0.467543565,0.0875881222,0.429914243,-0.767357402
41,107827,1495860,-0.525,-0.581,0.641,6.3,1.1,-4.6,4,-8,-23.4,0.46745201,0.0876491592,0.429822687,-0.767479476
42,109896,1495870,-0.521,-0.577,0.64,5.9,1.2,-4.7,4,-8,-23.4,0.467360454,0.0876796777,0.429731132,-0.767571032
43,112118,1495870,-0.513,-0.577,0.636,5.5,1.1,-4.9,4,-8,-23.4,0.46723838,0.0877101962,0.429670095,-0.767662587
44,114353,1495870,-0.517,-0.569,0.64,5.2,1.1,-5.1,4,-8,-23.4,0.467146825,0.0877407147,0.429609058,-0.767784661
45,116609,1495870,-0.509,-0.565,0.632,4.8,1.1,-5.2,4,-8,-23.4,0.467024751,0.0877407147,0.429548021,-0.767876217
46,119353,1495880,-0.513,-0.565,0.632,4.5,1.3,-5.4,4,-8,-23.4,0.466933195,0.0877712333,0.429486984,-0.767967772
47,121502,1495880,-0.517,-0.573,0.629,4.2,1.5,-5.4,4,-8,-23.4,0.466811121,0.0878017518,0.429456465,-0.768059328
48,124777,1495880,-0.505,-0.565,0.624,3.8,1.7,-5.6,4,-8,-23.4,0.466689047,0.0878017518,0.429395428,-0.768150884
49,126876,1495880,-0.501,-0.562,0.62,3.6,1.9,-5.8,4,-8,-23.4,0.466566973,0.0878322703,0.42936491,-0.768242439
50,130145,1495890,-0.505,-0.565,0.62,3.4,2.1,-6.2,4,-8,-23.4,0.466444899,0.0878322703,0.42936491,-0.768333995
51,132487,1495890,-0.505,-0.558,0.613,3.2,2,-6.5,7.1,-8.7,-23.3,0.466292306,0.0878322703,0.429334391,-0.76842555
52,134565,1495890,-0.509,-0.558,0.605,2.8,2,-6.8,7.1,-8.7,-23.3,0.466170232,0.0878322703,0.429334391,-0.768517106
53,136828,1495890,-0.517,-0.557,0.601,2.2,2.2,-6.7,7.1,-8.7,-23.3,0.46601764,0.0878322703,0.429334391,-0.768608661
54,139975,1495900,-0.525,-0.565,0.598,1.6,2.6,-6.7,7.1,-8.7,-23.3,0.465865047,0.0878322703,0.429334391,-0.768669698
55,141794,1495900,-0.525,-0.565,0.598,1.6,2.6,-6.7,7.1,-8.7,-23.3,0.465865047,0.0878322703,0.429334391,-0.768669698
56,144151,1495900,-0.525,-0.565,0.598,1.1,3.3,-6.9,7.1,-8.7,-23.3,0.465590381,0.0878322703,0.429334391,-0.768852809
57,146673,1495900,-0.533,-0.561,0.59,1.1,3.4,-7.1,7.1,-8.7,-23.3,0.465437788,0.0878322703,0.42936491,-0.768913846
58,149018,1495910,-0.533,-0.561,0.594,1.1,3.4,-7.2,7.1,-8.7,-23.3,0.465285195,0.0878322703,0.429395428,-0.769005402
59,153188,1495910,-0.537,-0.557,0.598,1.1,3.5,-7.4,7.1,-8.7,-23.3,0.465132603,0.0878322703,0.429425947,-0.769066439
60,155252,1495910,-0.537,-0.557,0.598,1,3.5,-7.6,7.1,-8.7,-23.3,0.464949492,0.0878322703,0.429456465,-0.769157994
61,157100,1495910,-0.541,-0.561,0.606,0.9,3.6,-7.9,7.1,-8.7,-23.3,0.464796899,0.0878322703,0.429486984,-0.76924955
62,159100,1495920,-0.541,-0.565,0.614,1,3.7,-8.1,7.1,-8.7,-23.3,0.464613788,0.0878322703,0.429517502,-0.769341105
63,161748,1495920,-0.545,-0.565,0.618,1.1,3.8,-8.3,7.1,-8.7,-23.3,0.464430677,0.0878322703,0.429578539,-0.769402142
64,165764,1495920,-0.549,-0.572,0.626,1.1,3.8,-8.4,7.1,-8.7,-23.3,0.464247566,0.0878322703,0.429609058,-0.769493698
65,167313,1495920,-0.553,-0.572,0.63,1,3.8,-8.6,7.1,-8.7,-23.3,0.464064455,0.0878017518,0.429639576,-0.769585253
66,169067,1495930,-0.549,-0.576,0.629,0.9,3.8,-9,7.1,-8.7,-23.3,0.463881344,0.0878017518,0.429670095,-0.769676809
67,172637,1495930,-0.545,-0.572,0.637,0.9,3.6,-9.3,7.1,-8.7,-23.3,0.463698233,0.0878017518,0.429731132,-0.769798883
68,174749,1495930,-0.541,-0.58,0.637,0.7,3.4,-9.6,7.1,-8.7,-23.3,0.463484603,0.0877712333,0.42976165,-0.769890439
69,177920,1495930,-0.545,-0.58,0.641,0.6,3.2,-9.7,7.1,-8.7,-23.3,0.463301492,0.0877407147,0.429792169,-0.769981994
70,180108,1495940,-0.537,-0.584,0.641,0.6,3,-10,7.1,-8.7,-23.3,0.463087863,0.0877101962,0.429853206,-0.77007355
71,182388,1495940,-0.533,-0.588,0.641,0.6,2.9,-10.3,6,-8.8,-23.1,0.462904752,0.0876491592,0.429883724,-0.770195624
72,185244,1495940,-0.533,-0.592,0.649,0.7,2.7,-10.6,6,-8.8,-23.1,0.462691122,0.0876186407,0.429914243,-0.770287179
73,186813,1495940,-0.537,-0.596,0.645,0.7,2.5,-10.7,6,-8.8,-23.1,0.462477493,0.0875576037,0.429944761,-0.770409253
74,189437,1495950,-0.537,-0.596,0.657,0.9,2.7,-10.8,6,-8.8,-23.1,0.462263863,0.0874965667,0.42997528,-0.770500809
75,191564,1495950,-0.537,-0.596,0.657,0.9,2.7,-10.8,6,-8.8,-23.1,0.462263863,0.0874965667,0.42997528,-0.770500809
76,194964,1495950,-0.549,-0.6,0.649,1,2.8,-10.5,6.4,-6.8,-22.9,0.461867122,0.0874050111,0.429944761,-0.770775475
77,196521,1495950,-0.549,-0.6,0.649,1.1,2.7,-10.2,6.4,-6.8,-22.9,0.461684011,0.0873744926,0.42997528,-0.770897549
78,199062,1495960,-0.553,-0.6,0.649,1.2,2.6,-9.9,6.4,-6.8,-22.9,0.4615009,0.0873134556,0.430005799,-0.770989105
79,202502,1495960,-0.557,-0.6,0.649,1.3,2.5,-9.6,6.1,-6.6,-23.1,0.461287271,0.0872829371,0.430036317,-0.771111179
80,204008,1495960,-0.553,-0.6,0.657,1.5,2.4,-9.4,6.1,-6.6,-23.1,0.46110416,0.0872524186,0.430036317,-0.771202734
81,207011,1495960,-0.553,-0.6,0.653,1.5,2.2,-9.4,6.1,-6.6,-23.1,0.460921049,0.0872219001,0.430066836,-0.771324808
82,210001,1495970,-0.553,-0.6,0.649,1.6,1.9,-9.6,6.1,-6.6,-23.1,0.460737938,0.0871913816,0.430066836,-0.771416364
83,211507,1495970,-0.549,-0.6,0.657,2,1.7,-9.6,6.3,-6.8,-23.4,0.460554827,0.0871608631,0.430066836,-0.771538438
84,214082,1495970,-0.545,-0.6,0.661,2.4,1.6,-9.6,6.3,-6.8,-23.4,0.460371715,0.087099826,0.430066836,-0.771660512
85,218305,1495970,-0.545,-0.6,0.649,2.8,1.4,-9.4,6.3,-6.8,-23.4,0.460188604,0.0870693075,0.430066836,-0.771782586
86,220534,1495980,-0.545,-0.596,0.649,3,1.1,-9.3,6.3,-6.8,-23.4,0.460036012,0.0870082705,0.430036317,-0.77190466
87,222823,1495980,-0.537,-0.596,0.641,3.1,0.8,-9.1,6.3,-6.8,-23.4,0.459852901,0.0870082705,0.430005799,-0.772026734
88,225014,1495980,-0.541,-0.592,0.637,3.2,0.5,-8.8,6.3,-6.8,-23.4,0.459700308,0.0869472335,0.42997528,-0.77211829
89,226513,1495980,-0.541,-0.592,0.629,3,0.4,-8.6,6.3,-6.8,-23.4,0.459547716,0.086916715,0.429944761,-0.772240364
90,229505,1495990,-0.541,-0.596,0.621,2.9,0.4,-8.3,6.3,-6.8,-23.4,0.459395123,0.0868861965,0.429914243,-0.772362438
91,232515,1495990,-0.553,-0.592,0.626,2.9,0.3,-8,6,-9.1,-23.3,0.459242531,0.0868251595,0.429883724,-0.772453993
92,234282,1495990,-0.553,-0.592,0.618,3.1,0.2,-7.6,6,-9.1,-23.3,0.459120457,0.0867946409,0.429853206,-0.772576067
93,236572,1495990,-0.553,-0.596,0.618,3.5,0.2,-7.2,6,-9.1,-23.3,0.458967864,0.0867641224,0.429792169,-0.772667623
94,240027,1496000,-0.561,-0.596,0.618,3.8,0.2,-6.9,6,-9.1,-23.3,0.45884579,0.0867336039,0.42976165,-0.772789697
95,241544,1496000,-0.561,-0.596,0.618,3.8,0.2,-6.9,6,-9.1,-23.3,0.45884579,0.0867336039,0.42976165,-0.772789697
96,244080,1496000,-0.561,-0.596,0.622,4.5,0,-6.3,6,-10,-23.3,0.458662679,0.086855678,0.429670095,-0.772911771
97,247503,1496000,-0.557,-0.588,0.622,4.6,-0.2,-5.9,6,-10,-23.3,0.458540605,0.086855678,0.429609058,-0.773033845
98,249049,1496010,-0.561,-0.584,0.614,4.7,-0.3,-5.5,6,-10,-23.3,0.458449049,0.0868251595,0.429548021,-0.773125401
99,251488,1496010,-0.549,-0.576,0.618,4.6,-0.5,-5.2,5.7,-10.3,-23.1,0.458357494,0.0868251595,0.429456465,-0.773216956
100,254124,1496010,-0.549,-0.576,0.622,4.6,-0.7,-4.9,5.7,-10.3,-23.1,0.458265938,0.0868251595,0.429395428,-0.773308512
101,257250,1496010,-0.545,-0.572,0.622,4.5,-0.8,-4.8,5.7,-10.3,-23.1,0.458174383,0.0867946409,0.429303873,-0.773430586
102,259537,1496020,-0.549,-0.576,0.622,4.4,-1.1,-4.7,5.7,-10.3,-23.1,0.458113346,0.0867641224,0.429242836,-0.773522141
103,261711,1496020,-0.549,-0.568,0.618,4.2,-1.3,-4.6,5.9,-10.2,-23.4,0.45802179,0.0867641224,0.42915128,-0.773583178
104,264009,1496020,-0.549,-0.564,0.622,4,-1.6,-4.6,5.9,-10.2,-23.4,0.457960753,0.0867336039,0.429090243,-0.773674734
105,266529,1496020,-0.557,-0.568,0.63,3.7,-1.5,-4.4,5.9,-10.2,-23.4,0.457899716,0.0867030854,0.428998688,-0.773766289
106,270085,1496030,-0.553,-0.568,0.626,3.4,-1.4,-4.2,5.9,-10.2,-23.4,0.457838679,0.0866725669,0.428937651,-0.773827326
107,272227,1496030,-0.553,-0.572,0.626,3.2,-1.4,-3.9,5.9,-10.2,-23.4,0.457777642,0.0866420484,0.428876614,-0.773918882
108,274436,1496030,-0.553,-0.568,0.633,3.1,-1.3,-3.7,5.9,-10.2,-23.4,0.457716605,0.0866115299,0.428815577,-0.773979919
109,276681,1496030,-0.557,-0.572,0.634,3.1,-1.3,-3.6,5.9,-10.2,-23.4,0.457655568,0.0865810114,0.42875454,-0.774040956
110,279743,1496040,-0.553,-0.572,0.633,3.1,-1.3,-3.4,5.9,-10.2,-23.4,0.457594531,0.0865199744,0.428693503,-0.774132511
111,281606,1496040,-0.553,-0.572,0.633,3.1,-1.4,-3.4,6,-8.4,-25,0.457564013,0.0865199744,0.428632466,-0.774193548
112,285742,1496040,-0.553,-0.576,0.633,3.1,-1.5,-3.4,6,-8.4,-25,0.457502976,0.0865199744,0.428571429,-0.774254585
113,288030,1496040,-0.549,-0.576,0.629,3.3,-1.6,-3.4,6,-8.4,-25,0.457472457,0.0864894559,0.428510392,-0.774315622
114,290237,1496050,-0.545,-0.572,0.633,3.4,-1.7,-3.3,6,-8.4,-25,0.45741142,0.0864589373,0.428449355,-0.774376659
115,292503,1496050,-0.545,-0.572,0.633,3.4,-1.7,-3.3,6,-8.4,-25,0.45741142,0.0864589373,0.428449355,-0.774376659
116,294271,1496050,-0.549,-0.568,0.633,3.9,-1.7,-3.1,6,-7.8,-24.8,0.457441939,0.0866725669,0.428174688,-0.774498733
117,296574,1496050,-0.545,-0.568,0.629,4,-1.7,-3.1,6,-7.8,-24.8,0.45741142,0.0866420484,0.428083132,-0.774559771
118,299975,1496060,-0.545,-0.568,0.633,4.2,-1.6,-3.2,6,-7.8,-24.8,0.457350383,0.0866420484,0.427991577,-0.774651326
119,301842,1496060,-0.537,-0.573,0.633,4.3,-1.6,-3.2,6,-6.7,-24.6,0.457319864,0.0866115299,0.42793054,-0.774712363
120,304919,1496060,-0.541,-0.573,0.637,4.5,-1.6,-3.2,6,-6.7,-24.6,0.457258827,0.0866115299,0.427838984,-0.774803919
121,306655,1496060,-0.537,-0.577,0.629,4.7,-1.5,-3.1,6,-6.7,-24.6,0.457228309,0.0865810114,0.427747429,-0.774864956
122,309035,1496070,-0.529,-0.573,0.641,5,-1.5,-3.3,6,-6.7,-24.6,0.457167272,0.0865810114,0.427655873,-0.774956511
123,312442,1496070,-0.533,-0.577,0.637,5.3,-1.4,-3.3,5.9,-6.3,-25,0.457106235,0.0865810114,0.427564318,-0.775048067
124,314347,1496070,-0.525,-0.581,0.633,5.4,-1.3,-3.2,5.9,-6.3,-25,0.457075716,0.0865810114,0.427442244,-0.775139622
125,316613,1496070,-0.525,-0.585,0.629,5.7,-1.1,-3.1,5.9,-6.3,-25,0.457014679,0.0865810114,0.427350688,-0.775231178
126,319230,1496080,-0.525,-0.581,0.629,5.9,-1,-3,5.9,-6.3,-25,0.456953642,0.0866115299,0.427259133,-0.775292215
127,321526,1496080,-0.529,-0.581,0.629,6,-0.8,-3,5.9,-6.3,-25,0.456892605,0.0866115299,0.427137059,-0.77538377
128,325008,1496080,-0.529,-0.585,0.625,6.1,-0.8,-3,5.9,-6.3,-25,0.456831568,0.0866420484,0.427045503,-0.775475326
129,327257,1496080,-0.529,-0.577,0.621,6.3,-0.6,-2.8,5.9,-6.3,-25,0.45680105,0.0866725669,0.426923429,-0.775566881
130,329533,1496090,-0.525,-0.581,0.617,6.5,-0.4,-2.9,5.9,-6.3,-25,0.456740013,0.0867030854,0.426801355,-0.775658437
131,331822,1496090,-0.529,-0.581,0.613,6.6,-0.2,-2.8,6.1,-7.9,-23.2,0.456678976,0.0867336039,0.426709799,-0.775749992
132,334099,1496090,-0.529,-0.573,0.609,6.5,0,-2.7,6.1,-7.9,-23.2,0.456617939,0.0867641224,0.426587725,-0.775841548
133,336710,1496090,-0.529,-0.573,0.617,6.3,0,-2.7,6.1,-7.9,-23.2,0.456556902,0.0868251595,0.42649617,-0.775933103
134,339093,1496100,-0.529,-0.569,0.609,6.1,0,-2.8,6.1,-7.9,-23.2,0.456495865,0.086855678,0.426404614,-0.776024659
135,343193,1496100,-0.529,-0.569,0.609,6.1,0,-2.8,6.1,-7.9,-23.2,0.456495865,0.086855678,0.426404614,-0.776024659
136,345279,1496100,-0.529,-0.569,0.602,5.9,0,-2.8,6,-7.8,-23.4,0.456404309,0.0870082705,0.426221503,-0.776146733
137,347646,1496100,-0.525,-0.565,0.601,5.7,0,-2.7,6,-7.8,-23.4,0.456343272,0.0870693075,0.426129948,-0.776238289
138,349847,1496110,-0.525,-0.561,0.605,5.5,0,-2.7,6,-7.8,-23.4,0.456282235,0.087099826,0.426038392,-0.776299326
139,352850,1496110,-0.525,-0.569,0.601,5.3,0,-2.7,6.1,-7.8,-22.4,0.456221198,0.087099826,0.425946837,-0.776390881
140,354838,1496110,-0.521,-0.569,0.605,5,0,-2.7,6.1,-7.8,-22.4,0.45619068,0.0871303446,0.4258858,-0.776451918
141,356800,1496110,-0.529,-0.573,0.602,4.7,0,-2.7,6.1,-7.8,-22.4,0.456129643,0.0871608631,0.425794244,-0.776512955
142,359079,1496120,-0.521,-0.573,0.605,4.4,0.2,-2.7,6.1,-7.8,-22.4,0.456068606,0.0871913816,0.425733207,-0.776604511
143,361642,1496120,-0.521,-0.581,0.597,4,0.4,-2.6,6.1,-8.1,-21.5,0.456007569,0.0872219001,0.42567217,-0.776665548
144,365408,1496120,-0.525,-0.581,0.601,3.5,0.7,-2.6,6.1,-8.1,-21.5,0.455946532,0.0872219001,0.425641652,-0.776726585
145,367762,1496120,-0.525,-0.581,0.601,3,1,-2.5,6.1,-8.1,-21.5,0.455885495,0.0872524186,0.425611133,-0.776757103
146,370090,1496130,-0.525,-0.585,0.609,2.5,1.3,-2.5,6.1,-8.1,-21.5,0.455824458,0.0872829371,0.425580615,-0.77681814
147,371632,1496130,-0.529,-0.585,0.617,2.1,1.4,-2.6,6.1,-8.1,-21.5,0.455763421,0.0873134556,0.425550096,-0.776848659
148,374361,1496130,-0.533,-0.585,0.613,1.8,1.5,-2.5,6.1,-8.1,-21.5,0.455702383,0.0873134556,0.425550096,-0.776909696
149,376529,1496130,-0.533,-0.588,0.621,1.4,1.6,-2.5,6.1,-8.1,-21.5,0.455641346,0.0873439741,0.425550096,-0.776940214
150,379013,1496140,-0.533,-0.584,0.625,1.2,1.8,-2.5,6.1,-8.1,-21.5,0.455549791,0.0873744926,0.425550096,-0.776970733
151,383060,1496140,-0.529,-0.585,0.629,1,2,-2.4,6,-7.8,-22.1,0.455519272,0.0873744926,0.425550096,-0.777001251
152,385271,1496140,-0.529,-0.585,0.629,0.8,2.1,-2.3,6,-7.8,-22.1,0.455458235,0.0874050111,0.425550096,-0.77703177
153,387591,1496140,-0.525,-0.585,0.637,0.6,2.3,-2.3,6,-7.8,-22.1,0.455397198,0.0874355296,0.425580615,-0.777062288
154,389107,1496150,-0.525,-0.589,0.637,0.4,2.4,-2.4,6,-7.8,-22.1,0.455336161,0.0874660482,0.425611133,-0.777062288
155,391643,1496150,-0.525,-0.589,0.637,0.4,2.4,-2.4,6,-7.8,-22.1,0.455336161,0.0874660482,0.425611133,-0.777062288
156,395125,1496150,-0.525,-0.593,0.633,0.3,2.6,-2.3,5.8,-8,-22,0.455214087,0.0874965667,0.425611133,-0.777123325
157,397019,1496150,-0.521,-0.593,0.633,0.4,2.6,-2.1,5.8,-8,-22,0.45515305,0.0875576037,0.425641652,-0.777153844
158,399359,1496160,-0.521,-0.597,0.637,0.4,2.7,-1.8,5.8,-8,-22,0.455092013,0.0875881222,0.425641652,-0.777153844
159,401711,1496160,-0.521,-0.597,0.633,0.4,2.8,-1.8,6.2,-7.9,-22.3,0.455030976,0.0876186407,0.42567217,-0.777184362
160,404176,1496160,-0.525,-0.6,0.641,0.4,2.9,-1.7,6.2,-7.9,-22.3,0.454969939,0.0876491592,0.425702689,-0.777184362
161,407679,1496160,-0.521,-0.597,0.637,0.4,2.9,-1.6,6.2,-7.9,-22.3,0.454908902,0.0876796777,0.425733207,-0.777214881
162,409240,1496170,-0.525,-0.593,0.633,0.5,2.9,-1.5,6.2,-7.9,-22.3,0.454878384,0.0877407147,0.425763726,-0.777214881
163,411748,1496170,-0.529,-0.592,0.633,0.6,3,-1.2,6.4,-7.8,-23,0.454817347,0.0877712333,0.425763726,-0.777245399
164,414008,1496170,-0.521,-0.597,0.637,0.8,3.1,-1.1,6.4,-7.8,-23,0.45475631,0.0878322703,0.425794244,-0.777245399
165,417922,1496170,-0.513,-0.593,0.64,1,3.2,-0.7,6.4,-7.8,-23,0.454725791,0.0878933073,0.425794244,-0.777275918
166,419507,1496180,-0.517,-0.589,0.64,1.2,3.3,-0.4,6.4,-7.8,-23,0.454664754,0.0879543443,0.425824763,-0.777275918
167,422507,1496180,-0.517,-0.585,0.636,1.3,3.5,0,6.4,-7.8,-23,0.454634236,0.0879848628,0.425824763,-0.777275918
168,424052,1496180,-0.521,-0.585,0.637,1.3,3.7,0.3,6.4,-7.8,-23,0.454603717,0.0881069369,0.425855281,-0.777275918
169,426563,1496180,-0.525,-0.577,0.629,1.5,3.9,0.7,6.4,-7.8,-23,0.454573199,0.0881984924,0.425855281,-0.777275918
170,429837,1496190,-0.529,-0.569,0.625,1.6,4.1,1,6.4,-7.8,-23,0.45454268,0.0882900479,0.425855281,-0.777275918
171,432076,1496190,-0.529,-0.573,0.625,1.8,4.1,1.1,6.3,-7.6,-23.4,0.45454268,0.0883816034,0.4258858,-0.777275918
172,434414,1496190,-0.533,-0.573,0.621,2.3,4,0.9,6.3,-7.6,-23.4,0.454512162,0.088473159,0.4258858,-0.777275918
173,437279,1496190,-0.533,-0.581,0.617,3,3.9,0.5,6.3,-7.6,-23.4,0.454481643,0.088595233,0.425855281,-0.777306436
174,439169,1496200,-0.533,-0.581,0.621,3.8,3.8,0.1,6.3,-7.6,-23.4,0.454451125,0.088717307,0.425824763,-0.777336955
175,441500,1496200,-0.533,-0.581,0.621,3.8,3.8,0.1,6.3,-7.6,-23.4,0.454451125,0.088717307,0.425824763,-0.777336955
176,444913,1496200,-0.529,-0.577,0.602,5.2,3.1,-0.6,6.3,-7.8,-23.6,0.454390088,0.0890224921,0.425702689,-0.777397992
177,446582,1496200,-0.529,-0.589,0.606,5.7,2.8,-1,6.3,-7.8,-23.6,0.454329051,0.0891140477,0.425641652,-0.777459029
178,449576,1496210,-0.529,-0.581,0.602,6.1,2.5,-1.2,6.3,-7.8,-23.6,0.454268014,0.0892056032,0.425580615,-0.777520066
179,452537,1496210,-0.529,-0.581,0.594,6.4,2.5,-1.4,6.4,-8,-23.7,0.454206977,0.0892971587,0.425489059,-0.777581103
180,454637,1496210,-0.529,-0.573,0.598,6.6,2.4,-1.8,6.4,-8,-23.7,0.45414594,0.0893887143,0.425397504,-0.77764214
181,456510,1496210,-0.533,-0.569,0.59,6.8,2.5,-1.9,6.4,-8,-23.7,0.454054384,0.0894497513,0.425305948,-0.777733695
182,459012,1496220,-0.525,-0.569,0.586,7,2.5,-2.1,6.4,-8,-23.7,0.453993347,0.0895718253,0.425214393,-0.777825251
183,463080,1496220,-0.529,-0.569,0.586,7.1,2.6,-2.1,6.5,-8.1,-23.7,0.45393231,0.0896633808,0.425122837,-0.777886288
184,464710,1496220,-0.529,-0.565,0.59,6.9,2.5,-2.1,6.5,-8.1,-23.7,0.453840754,0.0897549364,0.425031281,-0.777977844
185,467753,1496220,-0.533,-0.569,0.594,6.8,2.5,-2,6.5,-8.1,-23.7,0.453779717,0.0898464919,0.424970244,-0.778069399
186,469808,1496230,-0.529,-0.561,0.602,6.6,2.4,-1.9,6.5,-8.1,-23.7,0.45371868,0.0899380474,0.424878689,-0.778130436
187,471645,1496230,-0.525,-0.573,0.605,6.4,2.4,-1.9,6.5,-8.1,-23.7,0.453596606,0.090029603,0.424787133,-0.778221992
188,475100,1496230,-0.529,-0.573,0.609,6.1,2.4,-1.8,6.5,-8.1,-23.7,0.453566088,0.0901211585,0.424726096,-0.778283029
189,477493,1496230,-0.525,-0.573,0.617,5.5,2.5,-1.7,6.5,-8.1,-23.7,0.453505051,0.0901821955,0.424634541,-0.778313547
190,479494,1496240,-0.525,-0.577,0.617,4.9,2.6,-1.7,6.5,-8.1,-23.7,0.453444014,0.090273751,0.424604022,-0.778405103
191,482614,1496240,-0.525,-0.581,0.629,4.3,2.7,-1.8,6.7,-7.9,-22.8,0.453382977,0.090334788,0.424542985,-0.77846614
192,484079,1496240,-0.525,-0.577,0.637,3.6,2.6,-1.7,6.7,-7.9,-22.8,0.45332194,0.0904263436,0.424512467,-0.778496658
193,487259,1496240,-0.529,-0.577,0.633,3,2.7,-1.8,6.7,-7.9,-22.8,0.453260903,0.0904263436,0.424512467,-0.778527177
194,489086,1496250,-0.529,-0.577,0.641,2.4,2.9,-1.9,6.7,-7.9,-22.8,0.453169347,0.0905178991,0.424481948,-0.778588214
195,491548,1496250,-0.529,-0.577,0.641,2.4,2.9,-1.9,6.7,-7.9,-22.8,0.453169347,0.0905178991,0.424481948,-0.778588214
196,494863,1496250,-0.529,-0.573,0.656,1.3,3.5,-1.9,7.3,-7.7,-23,0.453077792,0.0906399731,0.424420911,-0.778649251
197,497234,1496250,-0.529,-0.569,0.656,0.7,3.7,-1.8,7.3,-7.7,-23,0.453016755,0.0907010102,0.42445143,-0.778679769
198,499272,1496260,-0.529,-0.573,0.656,0.2,3.6,-1.6,7.3,-7.7,-23,0.452955718,0.0907620472,0.424481948,-0.778679769
199,502303,1496260,-0.521,-0.573,0.656,0,3.6,-1.5,7.1,-8.1,-23.1,0.452894681,0.0907925657,0.424542985,-0.778710288
200,504574,1496260,-0.517,-0.573,0.656,-0.5,3.6,-1.5,7.1,-8.1,-23.1,0.452833644,0.0908536027,0.424573504,-0.778710288
201,506730,1496260,-0.517,-0.573,0.652,-0.9,3.6,-1.6,7.1,-8.1,-23.1,0.452772607,0.0908841212,0.424634541,-0.778710288
202,509818,1496270,-0.517,-0.581,0.644,-1.4,3.6,-1.8,7.1,-8.1,-23.1,0.45271157,0.0909146397,0.424695578,-0.778710288
203,512224,1496270,-0.517,-0.593,0.648,-1.8,3.8,-1.9,7,-7.9,-22.8,0.452650533,0.0909146397,0.424787133,-0.778679769
204,514183,1496270,-0.517,-0.593,0.648,-2,4.1,-1.9,7,-7.9,-22.8,0.452558977,0.0909756767,0.42484817,-0.778679769
205,517259,1496270,-0.517,-0.601,0.64,-2.2,4.4,-1.8,7,-7.9,-22.8,0.45249794,0.0910061953,0.424939726,-0.778679769
206,519134,1496280,-0.517,-0.604,0.644,-2.2,4.7,-1.7,7,-7.9,-22.8,0.452436903,0.0910367138,0.425031281,-0.778649251
207,521563,1496280,-0.525,-0.604,0.645,-2.1,5,-1.5,7,-7.9,-22.8,0.452375866,0.0910977508,0.425122837,-0.778649251
208,524699,1496280,-0.521,-0.6,0.648,-1.9,5.4,-1.3,7,-7.9,-22.8,0.45228431,0.0911587878,0.425214393,-0.778618732
209,526884,1496280,-0.521,-0.6,0.652,-1.6,5.6,-1.4,7,-7.9,-22.8,0.452223273,0.0912198248,0.425305948,-0.778618732
210,530638,1496290,-0.525,-0.6,0.645,-1.2,5.8,-1.5,7,-7.9,-22.8,0.452131718,0.0913113804,0.425366985,-0.778618732
211,532391,1496290,-0.525,-0.592,0.648,-0.7,5.7,-1.7,8.5,-8.2,-23,0.452070681,0.0913724174,0.425458541,-0.778618732
212,534126,1496290,-0.521,-0.589,0.644,-0.4,5.7,-1.7,8.5,-8.2,-23,0.451979125,0.0914639729,0.425519578,-0.778618732
213,537035,1496290,-0.525,-0.581,0.652,-0.1,5.7,-1.6,8.5,-8.2,-23,0.45188757,0.0915250099,0.425580615,-0.778618732
214,539268,1496300,-0.525,-0.577,0.648,0,5.9,-1.5,8.5,-8.2,-23,0.451826533,0.0916165654,0.425641652,-0.778618732
215,541611,1496300,-0.525,-0.577,0.648,0,5.9,-1.5,8.5,-8.2,-23,0.451826533,0.0916165654,0.425641652,-0.778618732
216,544149,1496300,-0.521,-0.573,0.644,0,6.2,-1.5,8.6,-8.3,-23,0.451643422,0.091708121,0.425550096,-0.778710288
217,547458,1496300,-0.525,-0.565,0.644,0,6.3,-1.4,8.6,-8.3,-23,0.451612903,0.0917996765,0.425641652,-0.778740806
218,549168,1496310,-0.521,-0.565,0.636,0,6.4,-1.2,8.6,-8.3,-23,0.451521348,0.091891232,0.425702689,-0.778710288
219,551650,1496310,-0.521,-0.565,0.644,-0.1,6.5,-1.1,8.3,-8.3,-22.9,0.451429792,0.0920133061,0.425763726,-0.778710288
220,555281,1496310,-0.525,-0.569,0.641,-0.3,6.7,-1.1,8.3,-8.3,-22.9,0.451368755,0.0921048616,0.425855281,-0.778710288
221,557282,1496310,-0.525,-0.561,0.637,-0.4,6.8,-1.2,8.3,-8.3,-22.9,0.4512772,0.0921964171,0.425916318,-0.778710288
222,559207,1496320,-0.529,-0.561,0.637,-0.4,7,-1.2,8.3,-8.3,-22.9,0.451185644,0.0923184912,0.426007874,-0.778710288
223,561704,1496320,-0.525,-0.565,0.629,-0.4,7.2,-1.1,8.4,-8,-23.1,0.451094089,0.0923795282,0.426068911,-0.778710288
224,564883,1496320,-0.525,-0.565,0.637,-0.5,7.3,-1.1,8.4,-8,-23.1,0.451033052,0.0925321207,0.426160466,-0.778679769
225,566786,1496320,-0.525,-0.569,0.633,-0.6,7.6,-1.2,8.4,-8,-23.1,0.450941496,0.0926236763,0.426252022,-0.778679769
226,569154,1496330,-0.525,-0.569,0.633,-0.6,7.9,-1.3,8.4,-8,-23.1,0.450819422,0.0927457503,0.426343577,-0.778679769
227,572037,1496330,-0.529,-0.573,0.629,-0.6,8.1,-1.4,8.4,-8,-23.1,0.450727866,0.0928678243,0.426435133,-0.778649251
228,575021,1496330,-0.525,-0.573,0.633,-0.6,8.3,-1.5,8.4,-8,-23.1,0.450636311,0.0929898984,0.426526688,-0.778649251
229,576623,1496330,-0.521,-0.577,0.637,-0.4,8.3,-1.7,8.4,-8,-23.1,0.450514237,0.0931119724,0.426618244,-0.778649251
230,579354,1496340,-0.529,-0.577,0.637,-0.3,8.5,-1.9,8.4,-8,-23.1,0.450422681,0.0932340464,0.426709799,-0.778649251
231,582749,1496340,-0.529,-0.581,0.637,-0.1,8.6,-2.2,6.1,-8,-22.6,0.450300607,0.0933561205,0.426801355,-0.778649251
232,584620,1496340,-0.533,-0.573,0.637,0,8.7,-2.3,6.1,-8,-22.6,0.450178533,0.0934781945,0.426892911,-0.778649251
233,586837,1496340,-0.525,-0.569,0.637,0.2,8.9,-2.5,6.1,-8,-22.6,0.450056459,0.0936307871,0.426984466,-0.778649251
234,590019,1496350,-0.521,-0.573,0.64,0.5,9.1,-2.5,6.1,-8,-22.6,0.449903867,0.0937528611,0.427076022,-0.778679769
235,591561,1496350,-0.521,-0.573,0.64,0.5,9.1,-2.5,6.1,-8,-22.6,0.449903867,0.0937528611,0.427076022,-0.778679769
236,594132,1496350,-0.521,-0.569,0.636,0.9,9.4,-2.6,5.6,-8.1,-22.8,0.449690237,0.0940275277,0.427014985,-0.778801843
237,596797,1496350,-0.525,-0.569,0.637,1.1,9.5,-2.7,5.6,-8.1,-22.8,0.449568163,0.0941801202,0.42710654,-0.778801843
238,599681,1496360,-0.525,-0.565,0.64,1.2,9.5,-2.9,5.6,-8.1,-22.8,0.449446089,0.0943327128,0.427167577,-0.778832362
239,601484,1496360,-0.529,-0.573,0.633,1.3,9.6,-3.1,5,-8.4,-22.7,0.449293497,0.0944853053,0.427259133,-0.77886288
240,605977,1496360,-0.525,-0.569,0.633,1.4,9.7,-3.3,5,-8.4,-22.7,0.449140904,0.0946073794,0.427350688,-0.77886288
241,607871,1496360,-0.521,-0.569,0.629,1.4,9.8,-3.5,5,-8.4,-22.7,0.448988311,0.0947599719,0.427411725,-0.778893399
242,609540,1496370,-0.517,-0.573,0.625,1.5,9.8,-3.8,5,-8.4,-22.7,0.448835719,0.0949125645,0.427503281,-0.778923917
243,611795,1496370,-0.517,-0.565,0.625,1.5,9.9,-3.9,4,-8.2,-22.9,0.448652608,0.095065157,0.427564318,-0.778984954
244,614991,1496370,-0.521,-0.573,0.621,1.6,9.9,-4,4,-8.2,-22.9,0.448500015,0.0952177496,0.427655873,-0.779015473
245,617628,1496370,-0.521,-0.573,0.621,1.7,10,-4.1,4,-8.2,-22.9,0.448316904,0.0953703421,0.42771691,-0.779045991
246,619370,1496380,-0.517,-0.569,0.617,1.6,10.2,-4.2,4,-8.2,-22.9,0.448164312,0.0955229347,0.427808466,-0.77907651
247,621606,1496380,-0.521,-0.561,0.621,1.6,10.4,-4.3,8.4,-9.2,-22.9,0.447981201,0.0956755272,0.427900021,-0.779107028
248,624979,1496380,-0.525,-0.565,0.625,1.5,10.4,-4.3,8.4,-9.2,-22.9,0.44779809,0.0957976012,0.427991577,-0.779137547
249,627432,1496380,-0.525,-0.569,0.617,1.6,10.4,-4.3,8.4,-9.2,-22.9,0.447645497,0.0959807123,0.428052614,-0.779168065
250,629545,1496390,-0.525,-0.561,0.617,1.6,10.6,-4.3,8.4,-9.2,-22.9,0.447462386,0.0961333048,0.428144169,-0.779229102
251,631812,1496390,-0.525,-0.565,0.609,1.7,10.7,-4.3,4.9,-7.7,-22.8,0.447279275,0.0962858974,0.428205206,-0.779259621
252,634146,1496390,-0.525,-0.569,0.617,1.7,10.7,-4.3,4.9,-7.7,-22.8,0.447096164,0.0964384899,0.42832728,-0.779290139
253,636802,1496390,-0.525,-0.565,0.613,1.8,10.7,-4.4,4.9,-7.7,-22.8,0.446913053,0.0965910825,0.428388318,-0.779320658
254,639018,1496400,-0.533,-0.565,0.606,1.7,10.6,-4.6,4.9,-7.7,-22.8,0.446729942,0.0967741935,0.428479873,-0.779351176
255,643099,1496400,-0.533,-0.565,0.606,1.7,10.6,-4.6,4.9,-7.7,-22.8,0.446729942,0.0967741935,0.428479873,-0.779351176
256,644641,1496400,-0.537,-0.565,0.598,1.5,10.3,-4.8,5.5,-7.5,-22.7,0.446424757,0.0971098972,0.42854091,-0.779473251
257,646723,1496400,-0.537,-0.565,0.61,1.6,10.3,-4.9,5.5,-7.5,-22.7,0.446241646,0.0972319712,0.428632466,-0.779503769
258,649976,1496410,-0.541,-0.565,0.598,1.6,10.3,-5.1,5.5,-7.5,-22.7,0.446058535,0.0973845637,0.428724021,-0.779564806
259,651505,1496410,-0.541,-0.561,0.602,1.6,10.4,-5.2,6.3,-7.4,-22.7,0.445844905,0.0975371563,0.428815577,-0.779595325
260,654611,1496410,-0.541,-0.561,0.61,1.7,10.4,-5.4,6.3,-7.4,-22.7,0.445661794,0.0976897488,0.428876614,-0.779656362
261,656596,1496410,-0.541,-0.565,0.614,1.9,10.4,-5.5,6.3,-7.4,-22.7,0.445478683,0.0978118229,0.428968169,-0.77968688
262,659574,1496420,-0.541,-0.573,0.618,2,10.4,-5.4,6.3,-7.4,-22.7,0.445265053,0.0979644154,0.429059725,-0.779747917
263,661726,1496420,-0.545,-0.569,0.606,2.1,10.4,-5.3,7.5,-7.3,-22.4,0.445081942,0.098117008,0.429120762,-0.779778436
264,664074,1496420,-0.541,-0.576,0.614,2.3,10.4,-5.4,7.5,-7.3,-22.4,0.444898831,0.098239082,0.429212317,-0.779839473
265,666849,1496420,-0.545,-0.576,0.614,2.3,10.4,-5.5,7.5,-7.3,-22.4,0.444685202,0.0984221931,0.429273354,-0.77990051
266,668994,1496430,-0.545,-0.572,0.614,2.2,10.2,-5.7,7.5,-7.3,-22.4,0.444502091,0.0985442671,0.429334391,-0.779961547
267,672359,1496430,-0.549,-0.572,0.614,2,10.3,-5.9,7.3,-9.4,-22.8,0.444288461,0.0986968596,0.429425947,-0.779992065
268,674591,1496430,-0.549,-0.572,0.614,1.9,10.4,-6.2,7.3,-9.4,-22.8,0.444074831,0.0988494522,0.429517502,-0.780053102
269,676811,1496430,-0.553,-0.572,0.61,2,10.4,-6.3,7.3,-9.4,-22.8,0.443830683,0.0989715262,0.429578539,-0.780114139
270,680589,1496440,-0.553,-0.568,0.618,2.2,10.4,-6.6,7.3,-9.4,-22.8,0.443647572,0.0991241188,0.429670095,-0.780175176
271,682839,1496440,-0.557,-0.568,0.61,2.4,10.2,-6.9,7.4,-7.3,-22.8,0.443433943,0.0992156743,0.429731132,-0.780236213
272,685090,1496440,-0.557,-0.572,0.61,2.7,10,-7.1,7.4,-7.3,-22.8,0.443220313,0.0993682669,0.429792169,-0.780327769
273,686630,1496440,-0.549,-0.568,0.618,3,9.8,-7.2,7.4,-7.3,-22.8,0.442976165,0.0995208594,0.429853206,-0.780388806
274,689023,1496450,-0.549,-0.572,0.614,3.1,9.6,-7.3,7.4,-7.3,-22.8,0.442762535,0.0996429334,0.429914243,-0.780480361
275,692476,1496450,-0.549,-0.572,0.614,3.1,9.6,-7.3,7.4,-7.3,-22.8,0.442762535,0.0996429334,0.429914243,-0.780480361
276,694136,1496450,-0.553,-0.572,0.606,2.7,9.6,-7.7,7.3,-7.3,-22.6,0.442396313,0.100070193,0.42997528,-0.780602435
277,697183,1496450,-0.549,-0.572,0.602,2.6,9.6,-8.1,7.3,-7.3,-22.6,0.442152165,0.100161748,0.430036317,-0.780693991
278,699386,1496460,-0.553,-0.568,0.614,2.5,9.7,-8.5,7.3,-7.3,-22.6,0.441877499,0.100283822,0.430097354,-0.780755028
279,702326,1496460,-0.557,-0.568,0.614,2.4,9.7,-8.7,7.4,-7.2,-22.8,0.441663869,0.100405896,0.430158391,-0.780846583
280,705295,1496460,-0.565,-0.564,0.618,2.4,9.9,-8.9,7.4,-7.2,-22.8,0.441419721,0.100497452,0.430249947,-0.780938139
281,707603,1496460,-0.565,-0.568,0.618,2.4,10.2,-9,7.4,-7.2,-22.8,0.441175573,0.100619526,0.430341502,-0.781029695
282,709851,1496470,-0.565,-0.572,0.618,2.5,10.2,-9.2,7.4,-7.2,-22.8,0.440900906,0.1007416,0.430402539,-0.78112125
283,712765,1496470,-0.561,-0.576,0.622,2.7,10.2,-9.4,7.5,-7.7,-22.7,0.440656758,0.100833155,0.430494095,-0.781212806
284,715047,1496470,-0.561,-0.58,0.618,3.1,10.2,-9.7,7.5,-7.7,-22.7,0.440382092,0.100955229,0.430555132,-0.781304361
285,717281,1496470,-0.561,-0.584,0.618,3.4,10.2,-9.9,7.5,-7.7,-22.7,0.440107425,0.101077303,0.430616169,-0.781426435
286,719531,1496480,-0.565,-0.588,0.614,3.8,10.1,-10.3,7.5,-7.7,-22.7,0.439832759,0.101168859,0.430677206,-0.781517991
287,721745,1496480,-0.565,-0.588,0.614,4.1,9.9,-10.6,7.6,-7.7,-22.5,0.439527573,0.101290933,0.430707724,-0.781640065
288,724158,1496480,-0.565,-0.592,0.614,4.2,9.7,-11,7.6,-7.7,-22.5,0.439252907,0.101382488,0.430768761,-0.781762139
289,726964,1496480,-0.565,-0.596,0.618,4.5,9.8,-11.2,7.6,-7.7,-22.5,0.438947722,0.101504563,0.43079928,-0.781914731
290,729992,1496490,-0.565,-0.592,0.618,4.7,9.9,-11.5,7.6,-7.7,-22.5,0.438642537,0.101596118,0.430860317,-0.782036805
291,731918,1496490,-0.565,-0.599,0.618,5.1,10.1,-11.7,7,-9.3,-22.8,0.438337352,0.101718192,0.430890835,-0.782158879
292,735392,1496490,-0.569,-0.595,0.618,5.7,10.3,-11.9,7,-9.3,-22.8,0.438032167,0.101840266,0.430921354,-0.782311472
293,736909,1496490,-0.565,-0.596,0.614,6.3,10.4,-12.2,7,-9.3,-22.8,0.437696463,0.10196234,0.430921354,-0.782464064
294,739916,1496500,-0.565,-0.596,0.61,6.8,10.4,-12.5,7,-9.3,-22.8,0.437391278,0.102084414,0.430951872,-0.782647176
295,741512,1496500,-0.565,-0.596,0.61,6.8,10.4,-12.5,7,-9.3,-22.8,0.437391278,0.102084414,0.430951872,-0.782647176
296,745149,1496500,-0.565,-0.584,0.61,7.4,10.1,-13.2,7.4,-10.1,-23,0.436750389,0.102450636,0.430982391,-0.782921842
297,746611,1496500,-0.569,-0.584,0.61,7.6,10.1,-13.4,7.4,-10.1,-23,0.436414686,0.10257271,0.430982391,-0.783104953
298,749675,1496510,-0.569,-0.588,0.622,7.9,10.1,-13.6,7.4,-10.1,-23,0.436017945,0.102694784,0.430982391,-0.783288064
299,752767,1496510,-0.569,-0.588,0.622,8.2,10.2,-13.7,7.6,-10.2,-22.6,0.43571276,0.102816858,0.430951872,-0.783471175
300,754054,1496510,-0.565,-0.58,0.63,8.5,10.3,-13.7,7.6,-10.2,-22.6,0.435346538,0.102969451,0.430951872,-0.783654286
301,756481,1496510,-0.565,-0.588,0.622,8.7,10.3,-13.5,7.6,-10.2,-22.6,0.435010834,0.103091525,0.430921354,-0.783837397
302,759348,1496520,-0.569,-0.584,0.614,8.7,10.4,-13.5,7.6,-10.2,-22.6,0.434644612,0.103213599,0.430890835,-0.784020508
303,761710,1496520,-0.565,-0.584,0.618,8.5,10.4,-13.5,7.6,-10.4,-22.5,0.434308908,0.103366192,0.430890835,-0.784203619
304,764398,1496520,-0.573,-0.58,0.622,8.2,10.5,-13.4,7.6,-10.4,-22.5,0.433973205,0.103488266,0.430890835,-0.784386731
305,766559,1496520,-0.561,-0.584,0.622,8.1,10.6,-13.4,7.6,-10.4,-22.5,0.433606983,0.10361034,0.430860317,-0.784569842
306,770720,1496530,-0.565,-0.588,0.618,8.1,10.7,-13.4,7.6,-10.4,-22.5,0.433271279,0.103762932,0.430860317,-0.784752953
307,772997,1496530,-0.565,-0.588,0.622,8.2,10.8,-13.4,7.9,-6.8,-21.1,0.432905057,0.103885006,0.430860317,-0.784936064
308,774433,1496530,-0.565,-0.592,0.622,8.4,10.9,-13.5,7.9,-6.8,-21.1,0.432569353,0.104037599,0.430829798,-0.785119175
309,777473,1496530,-0.569,-0.592,0.622,8.4,11,-13.4,7.9,-6.8,-21.1,0.432203131,0.104190191,0.430829798,-0.785302286
310,779013,1496540,-0.565,-0.596,0.618,8.4,11.1,-13.3,7.9,-6.8,-21.1,0.431836909,0.104312265,0.430829798,-0.785485397
311,782215,1496540,-0.561,-0.6,0.622,8.3,11.2,-13.2,8,-8.5,-24.2,0.431501205,0.104464858,0.43079928,-0.785637989
312,784358,1496540,-0.565,-0.599,0.622,8.1,11.2,-13.2,8,-8.5,-24.2,0.431134983,0.104586932,0.43079928,-0.7858211
313,786531,1496540,-0.561,-0.6,0.626,7.9,11.2,-13.4,8,-8.5,-24.2,0.43079928,0.104739525,0.43079928,-0.786004212
314,789637,1496550,-0.561,-0.607,0.622,7.6,11.2,-13.5,8,-8.5,-24.2,0.430433058,0.104892117,0.430829798,-0.786126286
315,791901,1496550,-0.561,-0.607,0.622,7.6,11.2,-13.5,8,-8.5,-24.2,0.430433058,0.104892117,0.430829798,-0.786126286
316,795006,1496550,-0.557,-0.604,0.626,7.5,11.1,-14,8,-7.8,-24.3,0.42976165,0.105288858,0.430829798,-0.786461989
317,797051,1496550,-0.557,-0.611,0.622,7.4,11,-14.1,8,-7.8,-24.3,0.429395428,0.10544145,0.430860317,-0.7866451
318,800063,1496560,-0.557,-0.608,0.626,7.3,10.9,-14.1,8,-7.8,-24.3,0.429029206,0.105563524,0.430860317,-0.786828211
319,801627,1496560,-0.553,-0.608,0.622,7.1,11,-14.1,8.4,-7,-24.2,0.428662984,0.105685598,0.430860317,-0.787011322
320,804393,1496560,-0.557,-0.608,0.618,6.7,11.1,-14,8.4,-7,-24.2,0.42832728,0.105807672,0.430890835,-0.787163915
321,808376,1496560,-0.557,-0.611,0.614,6.2,11.2,-14.2,8.4,-7,-24.2,0.427961058,0.105929746,0.430921354,-0.787347026
322,810558,1496570,-0.561,-0.607,0.606,5.7,11.2,-14.4,8.4,-7,-24.2,0.427594836,0.106021302,0.430951872,-0.787499619
323,812751,1496570,-0.565,-0.611,0.599,5.1,11.2,-14.7,7.8,-6.5,-24,0.427198096,0.106143376,0.431012909,-0.787652211
324,814112,1496570,-0.561,-0.611,0.603,4.6,11,-15.1,7.8,-6.5,-24,0.426831874,0.106234931,0.431073946,-0.787804804
325,817936,1496570,-0.573,-0.603,0.607,4,10.9,-15.7,7.8,-6.5,-24,0.426465651,0.106295969,0.431134983,-0.787987915
326,819436,1496580,-0.569,-0.592,0.603,3.5,10.8,-16.1,7.8,-6.5,-24,0.426068911,0.106357006,0.431226539,-0.788140507
327,822541,1496580,-0.573,-0.588,0.607,3.2,10.8,-16.5,8.4,-8.3,-22.2,0.42567217,0.106418043,0.431287576,-0.7882931
328,824032,1496580,-0.573,-0.584,0.611,2.9,10.8,-16.8,8.4,-8.3,-22.2,0.42527543,0.10647908,0.431379131,-0.788445692
329,827787,1496580,-0.577,-0.568,0.603,2.7,10.7,-16.9,8.4,-8.3,-22.2,0.424878689,0.106540117,0.431470687,-0.788598285
330,829943,1496590,-0.576,-0.564,0.611,2.6,10.7,-16.9,8.4,-8.3,-22.2,0.424481948,0.106540117,0.431562243,-0.788781396
331,832247,1496590,-0.573,-0.564,0.603,2.9,10.7,-16.9,8.5,-8.1,-22.1,0.424085208,0.106631672,0.431653798,-0.788933988
332,833968,1496590,-0.569,-0.56,0.61,3.4,10.7,-17.1,8.5,-8.1,-22.1,0.423657949,0.106692709,0.431745354,-0.789086581
333,836659,1496590,-0.557,-0.56,0.622,3.8,10.6,-17.3,8.5,-8.1,-22.1,0.423261208,0.106753746,0.431806391,-0.789269692
334,840280,1496600,-0.556,-0.556,0.622,3.9,10.4,-17.5,8.5,-8.1,-22.1,0.422864467,0.106784265,0.431867428,-0.789452803
335,842543,1496600,-0.556,-0.556,0.622,3.9,10.4,-17.5,8.5,-8.1,-22.1,0.422864467,0.106784265,0.431867428,-0.789452803
336,844669,1496600,-0.556,-0.553,0.633,3.3,10.6,-17.9,9.1,-8.1,-21.8,0.42219306,0.107181005,0.431867428,-0.789757988
337,846500,1496600,-0.564,-0.552,0.638,3,10.9,-18,9.1,-8.1,-21.8,0.421765801,0.107242042,0.431958983,-0.789910581
338,849092,1496610,-0.556,-0.552,0.645,2.7,11.2,-17.9,9.1,-8.1,-21.8,0.421338542,0.107272561,0.432081057,-0.790093692
339,852318,1496610,-0.556,-0.549,0.649,2.5,11.4,-17.7,8.8,-8.1,-21.4,0.420911283,0.107333598,0.432172613,-0.790246284
340,854622,1496610,-0.556,-0.556,0.649,2.2,11.6,-17.4,8.8,-8.1,-21.4,0.420514542,0.107394635,0.432264168,-0.790398877
341,856936,1496610,-0.56,-0.556,0.653,1.8,11.8,-17,8.8,-8.1,-21.4,0.420087283,0.107455672,0.432386242,-0.790551469
342,859394,1496620,-0.556,-0.564,0.653,1.3,11.9,-16.7,8.8,-8.1,-21.4,0.419690542,0.107516709,0.432508316,-0.790673544
343,861528,1496620,-0.565,-0.576,0.657,0.7,12,-16.5,8.8,-7.8,-20,0.419293802,0.107577746,0.432660909,-0.790795618
344,864182,1496620,-0.561,-0.58,0.665,0,12.1,-16.3,8.8,-7.8,-20,0.418897061,0.107638783,0.432813501,-0.790917692
345,866655,1496620,-0.561,-0.588,0.669,-0.7,12.1,-16.1,8.8,-7.8,-20,0.41850032,0.107669301,0.432966094,-0.791039766
346,869498,1496630,-0.565,-0.584,0.669,-1.6,12.2,-16.1,8.8,-7.8,-20,0.41810358,0.107730338,0.433149205,-0.791131321
347,872597,1496630,-0.569,-0.591,0.677,-2.7,12.2,-15.9,8.7,-8.4,-24.2,0.417737358,0.107760857,0.433332316,-0.791222877
348,874165,1496630,-0.577,-0.595,0.685,-3.8,12.5,-15.7,8.7,-8.4,-24.2,0.417340617,0.107791375,0.433545946,-0.791314432
349,876553,1496630,-0.573,-0.595,0.681,-4.8,12.7,-15.4,8.7,-8.4,-24.2,0.416974395,0.107821894,0.433790094,-0.791375469
350,879253,1496640,-0.581,-0.599,0.677,-5.7,13,-15.1,8.7,-8.4,-24.2,0.416608173,0.107852412,0.434034242,-0.791436506
351,883151,1496640,-0.588,-0.587,0.685,-6.5,13.1,-14.8,8.5,-7.8,-21.2,0.416241951,0.107882931,0.434308908,-0.791467025
352,884724,1496640,-0.596,-0.591,0.685,-7,13.2,-14.6,8.5,-7.8,-21.2,0.415875729,0.10791345,0.434583575,-0.791497543
353,886852,1496640,-0.6,-0.591,0.686,-7.4,13.2,-14.5,8.5,-7.8,-21.2,0.415509507,0.10791345,0.434858242,-0.791528062
354,890007,1496650,-0.604,-0.595,0.674,-7.6,13.2,-14.2,8.5,-7.8,-21.2,0.415173803,0.107943968,0.435163427,-0.79155858
355,891856,1496650,-0.604,-0.595,0.674,-7.6,13.2,-14.2,8.5,-7.8,-21.2,0.415173803,0.107943968,0.435163427,-0.79155858
356,894007,1496650,-0.612,-0.594,0.666,-8,12.8,-13.3,9.1,-7.9,-21.2,0.414593951,0.108127079,0.435560167,-0.791619617
357,896632,1496650,-0.612,-0.598,0.666,-8,12.5,-12.9,9.1,-7.9,-21.2,0.414258248,0.108157598,0.435834834,-0.791619617
358,899609,1496660,-0.616,-0.594,0.663,-8,12.2,-12.4,9.1,-7.9,-21.2,0.413953063,0.108188116,0.4361095,-0.791650136
359,901553,1496660,-0.616,-0.59,0.655,-7.8,11.9,-12,8.9,-8,-21.5,0.413647877,0.108188116,0.436384167,-0.791650136
360,904200,1496660,-0.62,-0.582,0.651,-7.5,11.5,-11.8,8.9,-8,-21.5,0.413342692,0.108218635,0.436658834,-0.791650136
361,906665,1496660,-0.616,-0.583,0.651,-7.1,11.2,-11.8,8.9,-8,-21.5,0.413068026,0.108218635,0.436902982,-0.791680654
362,909813,1496670,-0.624,-0.571,0.647,-6.4,10.9,-11.7,8.9,-8,-21.5,0.412762841,0.108249153,0.43714713,-0.791680654
363,912043,1496670,-0.628,-0.563,0.643,-5.9,10.6,-11.8,9.3,-7.8,-22.1,0.412457656,0.108279672,0.437360759,-0.791711173
364,914295,1496670,-0.632,-0.551,0.639,-5.4,10.3,-11.9,9.3,-7.8,-22.1,0.412182989,0.108279672,0.437574389,-0.791741691
365,916900,1496670,-0.632,-0.543,0.632,-5,9.9,-12.1,9.3,-7.8,-22.1,0.411877804,0.108279672,0.437788018,-0.79177221
366,920069,1496680,-0.635,-0.515,0.632,-4.4,9.6,-12.5,9.3,-7.8,-22.1,0.411603137,0.10831019,0.437971129,-0.791833247
367,922228,1496680,-0.635,-0.5,0.628,-3.9,9.2,-13,9.2,-7.8,-22.6,0.411297952,0.10831019,0.438154241,-0.791894284
368,924334,1496680,-0.635,-0.488,0.631,-3.1,8.9,-13.6,9.2,-7.8,-22.6,0.410962249,0.10831019,0.438337352,-0.791955321
369,926758,1496680,-0.638,-0.456,0.631,-2,8.6,-14.3,9.2,-7.8,-22.6,0.410626545,0.108279672,0.438489944,-0.792046876
370,929951,1496690,-0.642,-0.452,0.635,-0.3,8.3,-14.8,9.2,-7.8,-22.6,0.41032136,0.108279672,0.4385815,-0.792138432
371,931800,1496690,-0.642,-0.444,0.643,1.5,8.1,-15.2,9.7,-7.9,-22.9,0.409955138,0.10831019,0.438673055,-0.792291025
372,934191,1496690,-0.646,-0.433,0.655,3.5,7.9,-15.5,9.7,-7.9,-22.9,0.409619434,0.10831019,0.438734092,-0.792443617
373,937555,1496690,-0.653,-0.428,0.671,5.2,7.8,-15.7,9.7,-7.9,-22.9,0.409253212,0.108340709,0.438734092,-0.79259621
374,939117,1496700,-0.657,-0.42,0.687,6.8,7.6,-15.5,9.7,-7.9,-22.9,0.40888699,0.108401746,0.438734092,-0.792809839
375,941784,1496700,-0.657,-0.42,0.687,6.8,7.6,-15.5,9.7,-7.9,-22.9,0.40888699,0.108401746,0.438734092,-0.792809839
376,945133,1496700,-0.669,-0.416,0.706,8.6,7.2,-15.2,9.6,-7.9,-23,0.408581805,0.10913419,0.438154241,-0.793176061
377,947362,1496700,-0.684,-0.4,0.734,8.9,7.1,-15.2,9.6,-7.9,-23,0.408215583,0.109164708,0.438123722,-0.793359172
378,949141,1496710,-0.692,-0.396,0.746,8.7,7.1,-15.3,9.6,-7.9,-23,0.407879879,0.109225745,0.438062685,-0.793572802
379,952233,1496710,-0.704,-0.384,0.75,7.9,7.2,-15.4,9.8,-7.8,-22.9,0.407513657,0.109286782,0.438032167,-0.793786431
380,954031,1496710,-0.716,-0.372,0.754,6.4,7.3,-15.4,9.8,-7.8,-22.9,0.407147435,0.109317301,0.438032167,-0.793939024
381,957619,1496710,-0.743,-0.359,0.763,4.5,7.3,-15.2,9.8,-7.8,-22.9,0.406811731,0.109347819,0.438032167,-0.794122135
382,959852,1496720,-0.763,-0.351,0.767,2.6,7.3,-14.9,9.8,-7.8,-22.9,0.406476028,0.109347819,0.438093204,-0.794244209
383,962606,1496720,-0.771,-0.339,0.771,0.6,7.4,-14.6,9.8,-7.6,-22.9,0.406140324,0.109347819,0.438184759,-0.794366283
384,964249,1496720,-0.786,-0.339,0.784,-1.1,7.2,-14.2,9.8,-7.6,-22.9,0.405835139,0.109317301,0.438306833,-0.794457839
385,966788,1496720,-0.806,-0.334,0.792,-2.9,7.1,-13.7,9.8,-7.6,-22.9,0.405529954,0.109286782,0.438459426,-0.794549394
386,969134,1496730,-0.826,-0.338,0.804,-4.5,6.7,-12.9,9.8,-7.6,-22.9,0.405255287,0.109256264,0.438612018,-0.794610431
387,973238,1496730,-0.838,-0.338,0.797,-5.9,6.3,-11.8,9.2,-8,-22,0.405011139,0.109195227,0.438795129,-0.79464095
388,975707,1496730,-0.842,-0.333,0.801,-7.3,5.8,-10.6,9.2,-8,-22,0.404766991,0.10913419,0.439008759,-0.79464095
389,977602,1496730,-0.858,-0.341,0.813,-8.7,5,-9.3,9.2,-8,-22,0.40458388,0.109042634,0.439222388,-0.79464095
390,979375,1496740,-0.862,-0.345,0.817,-10.5,4.1,-7.9,9.2,-8,-22,0.404431288,0.108951079,0.439466536,-0.794579913
391,981893,1496740,-0.874,-0.352,0.809,-12.5,3.2,-6.6,9.7,-7.4,-21.7,0.404339732,0.108829005,0.439741203,-0.794518876
392,985107,1496740,-0.882,-0.36,0.806,-14.7,2.4,-5.1,9.7,-7.4,-21.7,0.404248177,0.108676412,0.44001587,-0.79442732
393,987213,1496740,-0.878,-0.372,0.806,-16.6,1.8,-3.8,9.7,-7.4,-21.7,0.40418714,0.108554338,0.440321055,-0.794274728
394,989507,1496750,-0.882,-0.376,0.806,-18,1.2,-2.9,9.7,-7.4,-21.7,0.40418714,0.108371227,0.440656758,-0.794122135
395,991780,1496750,-0.89,-0.387,0.806,-18.9,0.6,-2,9.7,-7.4,-22.3,0.40418714,0.108188116,0.440992462,-0.793939024
396,994103,1496750,-0.89,-0.391,0.802,-19.4,-0.1,-1.4,9.7,-7.4,-22.3,0.404217658,0.108005005,0.441328166,-0.793786431
397,996676,1496750,-0.894,-0.387,0.787,-19.6,-0.9,-0.8,9.7,-7.4,-22.3,0.404248177,0.107821894,0.441663869,-0.79360332
398,1000031,1496760,-0.898,-0.391,0.775,-19.6,-1.6,-0.2,9.7,-7.4,-22.3,0.404309214,0.107608264,0.441999573,-0.793420209
399,1002269,1496760,-0.914,-0.387,0.748,-19.3,-2.4,0.1,9.9,-7.1,-22.2,0.404370251,0.107394635,0.442304758,-0.793237098
400,1004229,1496760,-0.918,-0.383,0.74,-18.7,-3.2,0.6,9.9,-7.1,-22.2,0.404461806,0.107181005,0.442609943,-0.793084506
401,1008043,1496760,-0.926,-0.383,0.737,-17.5,-4.1,1,9.9,-7.1,-22.2,0.404553362,0.106967376,0.44288461,-0.792901395
402,1010075,1496770,-0.93,-0.371,0.729,-15.6,-5.1,1.7,9.9,-7.1,-22.2,0.404675436,0.106753746,0.443098239,-0.792748802
403,1011836,1496770,-0.938,-0.351,0.713,-13.2,-6,2.3,9.6,-7,-22.2,0.404766991,0.106540117,0.44328135,-0.792626728
404,1014081,1496770,-0.938,-0.331,0.709,-10.5,-6.9,3,9.6,-7,-22.2,0.404950102,0.106357006,0.443372906,-0.792504654
405,1017905,1496770,-0.941,-0.323,0.713,-7.6,-7.8,3.6,9.6,-7,-22.2,0.405102695,0.106204413,0.443433943,-0.792413099
406,1020037,1496780,-0.949,-0.312,0.71,-4.8,-8.6,4.2,9.6,-7,-22.2,0.405285806,0.10605182,0.443433943,-0.792352062
407,1021720,1496780,-0.953,-0.28,0.729,-1.8,-9.3,4.8,7.8,-7.8,-22.3,0.405468917,0.105929746,0.443372906,-0.792321543
408,1024542,1496780,-0.96,-0.264,0.741,1.3,-9.9,5.4,7.8,-7.8,-22.3,0.405652028,0.105807672,0.443250832,-0.792291025
409,1026890,1496780,-0.96,-0.248,0.745,4.5,-10.4,6.4,7.8,-7.8,-22.3,0.405835139,0.105746635,0.443067721,-0.792321543
410,1030150,1496790,-0.968,-0.236,0.749,7.7,-10.9,7.5,7.8,-7.8,-22.3,0.406079287,0.105685598,0.442823572,-0.792352062
411,1032958,1496790,-0.975,-0.205,0.78,10.8,-11.5,8.6,11.2,-7.8,-22.3,0.406292917,0.10565508,0.442518387,-0.79238258
412,1035114,1496790,-0.983,-0.189,0.8,13.5,-12.3,9.7,11.2,-7.8,-22.3,0.406567583,0.10565508,0.442152165,-0.792474136
413,1037509,1496790,-0.982,-0.177,0.804,15.9,-13.2,10.5,11.2,-7.8,-22.3,0.40684225,0.105685598,0.441724906,-0.792565691
414,1039596,1496800,-0.99,-0.149,0.82,17.9,-14,11.4,11.2,-7.8,-22.3,0.407116916,0.105716117,0.441267129,-0.792657247
415,1042626,1496800,-1.009,-0.106,0.851,19.4,-14.7,12.4,10.8,-8.1,-22.3,0.407422102,0.105746635,0.440778832,-0.792779321
416,1044192,1496800,-1.024,-0.093,0.875,20.3,-15.3,13.4,10.8,-8.1,-22.3,0.407757805,0.105777154,0.440229499,-0.792870876
417,1046869,1496800,-1.032,-0.074,0.887,20.8,-15.9,14.3,10.8,-8.1,-22.3,0.408124027,0.105838191,0.439710685,-0.79299295
418,1050927,1496810,-1.047,-0.018,0.915,21.1,-16.7,15.2,10.8,-8.1,-22.3,0.408490249,0.105868709,0.439161351,-0.793115024
419,1052520,1496810,-1.058,0.009,0.915,21.3,-17.6,16.1,10.9,-7.9,-22.3,0.40888699,0.105929746,0.4385815,-0.79320658
420,1054102,1496810,-1.058,0.052,0.919,21.3,-18.5,17,10.9,-7.9,-22.3,0.409314249,0.105960265,0.438032167,-0.793298135
421,1056670,1496810,-1.066,0.013,0.95,20.9,-19.6,17.8,10.9,-7.9,-22.3,0.409772027,0.105960265,0.437452315,-0.793389691
422,1060231,1496820,-1.093,0.072,0.927,20.5,-20.9,18.6,10.9,-7.9,-22.3,0.410229804,0.105960265,0.436841945,-0.793450728
423,1062546,1496820,-1.089,0.057,0.931,19.7,-22.3,19.6,10.8,-8.4,-22.2,0.410748619,0.105960265,0.436262093,-0.793511765
424,1064412,1496820,-1.097,0.049,0.916,18.5,-23.4,21.2,10.8,-8.4,-22.2,0.411297952,0.105899228,0.435682241,-0.793572802
425,1067508,1496820,-1.13,0.03,0.901,16.8,-24.4,23.3,10.8,-8.4,-22.2,0.411908322,0.105868709,0.435132908,-0.793572802
426,1069923,1496830,-1.138,0.01,0.905,15,-25.2,25.7,10.8,-8.4,-22.2,0.412549211,0.105807672,0.434583575,-0.793542283
427,1072172,1496830,-1.146,-0.012,0.902,13.4,-26,28,8.7,-8.1,-21.9,0.413251137,0.105746635,0.434034242,-0.793481246
428,1074377,1496830,-1.158,-0.035,0.902,11.9,-26.8,30,8.7,-8.1,-21.9,0.413983581,0.10565508,0.433515427,-0.793389691
429,1076701,1496830,-1.171,-0.062,0.91,10.8,-27.7,31.7,8.7,-8.1,-21.9,0.414777062,0.105563524,0.432996612,-0.793267617
430,1079046,1496840,-1.163,-0.082,0.922,9.9,-28.6,33,8.7,-8.1,-21.9,0.415601062,0.105502487,0.432508316,-0.793115024
431,1082702,1496840,-1.163,-0.09,0.933,9.5,-29.4,34.1,7.7,-8.5,-21.8,0.41645558,0.105380413,0.431989502,-0.792962432
432,1084977,1496840,-1.163,-0.094,0.945,9.7,-30.2,35.2,7.7,-8.5,-21.8,0.417310099,0.105288858,0.431470687,-0.792809839
433,1087157,1496840,-1.159,-0.106,0.957,10.3,-30.8,36.3,7.7,-8.5,-21.8,0.418225654,0.105197302,0.430921354,-0.792657247
434,1089095,1496850,-1.171,-0.102,0.969,11.5,-31.2,37.3,7.7,-8.5,-21.8,0.419110691,0.105075228,0.430341502,-0.792474136
435,1091693,1496850,-1.167,-0.098,0.969,13,-31.5,37.8,7.2,-9.1,-21.8,0.420056764,0.10504471,0.42976165,-0.792321543
436,1095074,1496850,-1.175,-0.09,0.965,14.4,-31.5,37.9,7.2,-9.1,-21.8,0.42097232,0.104983673,0.429120762,-0.792199469
437,1096681,1496850,-1.186,-0.05,0.95,15.6,-31.3,37.4,7.2,-9.1,-21.8,0.421857356,0.104922636,0.428479873,-0.792077395
438,1099156,1496860,-1.194,-0.023,0.93,16.8,-30.8,36.4,7.2,-9.1,-21.8,0.422742393,0.104892117,0.427808466,-0.791955321
439,1102491,1496860,-1.217,0.016,0.903,17.8,-30.3,35,5.8,-9.1,-22,0.423596912,0.104861599,0.427137059,-0.791863765
440,1104816,1496860,-1.232,0.056,0.876,18.8,-29.8,33.2,5.8,-9.1,-22,0.424390393,0.10483108,0.426465651,-0.791802728
441,1106943,1496860,-1.263,0.151,0.803,19.4,-29.9,31,5.8,-9.1,-22,0.425183874,0.104770043,0.425794244,-0.79177221
442,1109477,1496870,-1.283,0.194,0.768,19.7,-30.4,28.2,5.8,-9.1,-22,0.4258858,0.104709006,0.425092318,-0.79177221
443,1111637,1496870,-1.302,0.226,0.733,19.9,-31.3,25,4.1,-9.1,-22,0.426587725,0.104586932,0.424420911,-0.79177221
444,1114179,1496870,-1.302,0.262,0.702,20.1,-32.6,21.6,4.1,-9.1,-22,0.427198096,0.104403821,0.423718986,-0.791833247
445,1116677,1496870,-1.333,0.301,0.656,20.2,-34,18.1,4.1,-9.1,-22,0.427777947,0.104159673,0.422986541,-0.791924802
446,1119101,1496880,-1.345,0.325,0.648,20.7,-35.5,14.1,4.1,-9.1,-22,0.42832728,0.103885006,0.422284616,-0.792077395
447,1121916,1496880,-1.344,0.353,0.636,21.8,-37,8.9,9.1,-10,-21.8,0.42875454,0.103518784,0.421521653,-0.792291025
448,1124049,1496880,-1.372,0.401,0.625,23.8,-38.9,2.7,9.1,-10,-21.8,0.429120762,0.103091525,0.42075869,-0.792565691
449,1128190,1496880,-1.379,0.416,0.617,26.2,-41.1,-3.5,9.1,-10,-21.8,0.42936491,0.102603229,0.419904172,-0.792931913
450,1129757,1496890,-1.379,0.428,0.602,28.4,-43.5,-8.4,9.1,-10,-21.8,0.429548021,0.102023377,0.419049654,-0.793359172
451,1131829,1496890,-1.411,0.405,0.614,29.9,-45.6,-10.4,5.2,-8.4,-21.5,0.429731132,0.101443525,0.41810358,-0.793847468
452,1135080,1496890,-1.455,0.391,0.635,30.7,-46.4,-8.7,5.2,-8.4,-21.5,0.429914243,0.100833155,0.417157506,-0.794305246
453,1136575,1496890,-1.526,0.428,0.664,31.1,-45.6,-3.6,5.2,-8.4,-21.5,0.430219428,0.100314341,0.416211432,-0.794732505
454,1139998,1496900,-1.436,0.28,0.705,31.3,-44.2,2.8,5.2,-8.4,-21.5,0.43058565,0.099856563,0.41523484,-0.795068209
455,1142831,1496900,-1.436,0.288,0.705,32.2,-43.7,7.2,6.1,-8,-21.4,0.431043428,0.0994598224,0.414258248,-0.795403912
456,1144876,1496900,-1.461,0.21,0.757,35.2,-44.1,7.6,6.1,-8,-21.4,0.431501205,0.0990936003,0.413220618,-0.795739616
457,1147320,1496900,-1.458,0.155,0.765,40.3,-45,5,6.1,-8,-21.4,0.431897946,0.0987273782,0.412060915,-0.796136357
458,1149344,1496910,-1.458,0.128,0.757,46.1,-45.5,1.6,6.1,-8,-21.4,0.43223365,0.0983916746,0.410840175,-0.796655171
459,1151665,1496910,-1.479,0.046,0.762,50.8,-46.3,-1.2,5.9,-8.5,-21,0.432538835,0.0980559709,0.409527879,-0.797204505
460,1154001,1496910,-1.496,0.022,0.766,55.8,-47.5,-3.8,5.9,-8.5,-21,0.432782983,0.0977202673,0.408093509,-0.797845393
461,1158025,1496910,-1.504,-0.008,0.77,62,-48.9,-5.9,5.9,-8.5,-21,0.432966094,0.0974150822,0.406567583,-0.798547319
462,1160113,1496920,-1.504,-0.035,0.771,69.3,-50.4,-7.2,5.9,-8.5,-21,0.433149205,0.0971098972,0.404919584,-0.7993408
463,1162341,1496920,-1.513,-0.071,0.747,77.1,-51.9,-8.2,7.2,-8.5,-21,0.433301798,0.0968657491,0.403088473,-0.800225837
464,1164666,1496920,-1.513,-0.082,0.744,84.8,-53.3,-8.8,7.2,-8.5,-21,0.433423872,0.0966521195,0.40110477,-0.801141392
465,1166880,1496920,-1.513,-0.09,0.744,92.4,-54.5,-9.6,7.2,-8.5,-21,0.433545946,0.096499527,0.398998993,-0.802179022
466,1169180,1496930,-1.517,-0.098,0.74,99.8,-55.5,-10.4,7.2,-8.5,-21,0.433637501,0.0963774529,0.396740623,-0.803247169
467,1171839,1496930,-1.533,-0.109,0.74,106.9,-56.3,-11.7,5.9,-11.2,-20.8,0.43366802,0.0962858974,0.394360179,-0.804406873
468,1174283,1496930,-1.541,-0.105,0.721,113.6,-56.9,-13.7,5.9,-11.2,-20.8,0.433698538,0.0962553789,0.391857662,-0.805627613
469,1176602,1496930,-1.546,-0.105,0.702,119.9,-57.4,-16.5,5.9,-11.2,-20.8,0.433637501,0.0962553789,0.38923307,-0.806939909
470,1179231,1496940,-1.545,-0.09,0.686,125.6,-57.6,-19.8,5.9,-11.2,-20.8,0.433515427,0.0962553789,0.386516923,-0.808313242
471,1183356,1496940,-1.541,-0.058,0.651,130.8,-57.6,-23.7,5.9,-10,-20.8,0.433301798,0.0962553789,0.38370922,-0.809747612
472,1185631,1496940,-1.537,-0.023,0.627,135.6,-57.5,-28,5.9,-10,-20.8,0.432996612,0.0962858974,0.38084048,-0.811273537
473,1187919,1496940,-1.532,0.023,0.603,139.8,-57.5,-32.8,5.9,-10,-20.8,0.432599872,0.0962858974,0.377880184,-0.8128605
474,1190135,1496950,-1.543,0.106,0.549,143.5,-57.3,-38,5.9,-10,-20.8,0.432081057,0.0963469344,0.37488937,-0.814508499
475,1192423,1496950,-1.546,0.169,0.494,146.8,-57.3,-43.3,5.6,-10.5,-20.4,0.431470687,0.0963774529,0.371807001,-0.816248054
476,1194641,1496950,-1.546,0.227,0.415,149.5,-57.8,-48.9,5.6,-10.5,-20.4,0.430768761,0.0963469344,0.368724631,-0.818018128
477,1196827,1496950,-1.534,0.29,0.337,151,-59.4,-55.1,5.6,-10.5,-20.4,0.429944761,0.0962553789,0.365581225,-0.819879757
478,1199161,1496960,-1.533,0.388,0.227,151.2,-62.4,-62.1,5.6,-10.5,-20.4,0.428998688,0.0960722678,0.3624073,-0.821802423
479,1201624,1496960,-1.516,0.443,0.195,150.4,-67,-70.2,5.7,-11,-20.1,0.427961058,0.0957060457,0.359233375,-0.823786126
480,1203990,1496960,-1.492,0.497,0.187,150.1,-73.3,-80.2,5.7,-11,-20.1,0.426770837,0.0951567125,0.355998413,-0.825830866
481,1207333,1496960,-1.423,0.609,0.13,151.2,-81.2,-92.4,5.7,-11,-20.1,0.425428022,0.0943937498,0.352702414,-0.828028199
482,1209188,1496970,-1.374,0.671,0.109,153.3,-90,-104.7,5.7,-11,-20.1,0.423902097,0.0933561205,0.349314859,-0.830378124
483,1211500,1496970,-1.33,0.702,0.135,155.6,-97.8,-114.6,4.8,-12.3,-19.8,0.422254097,0.0921658986,0.345835749,-0.832819605
484,1214930,1496970,-1.363,0.577,0.261,157.8,-101.9,-119,4.8,-12.3,-19.8,0.420514542,0.0908841212,0.342265084,-0.835291604
485,1217178,1496970,-1.304,0.513,0.389,159.8,-101.8,-117.9,4.8,-12.3,-19.8,0.418805506,0.0896023438,0.338633381,-0.837763604
486,1219290,1496980,-1.264,0.457,0.45,161.1,-99.5,-114.4,4.8,-12.3,-19.8,0.417126988,0.088412122,0.335001679,-0.840174566
487,1221665,1496980,-1.229,0.405,0.528,161.1,-97.6,-112.6,5.1,-12.2,-18.8,0.415478988,0.0872524186,0.331369976,-0.84255501
488,1224154,1496980,-1.19,0.353,0.597,159.4,-97.5,-114.4,5.1,-12.2,-18.8,0.413769951,0.0860927152,0.327768792,-0.844935453
489,1226509,1496980,-1.123,0.277,0.728,156.7,-98.5,-119.1,5.1,-12.2,-18.8,0.411969359,0.0848414563,0.324198126,-0.847285379
490,1229927,1496990,-1.083,0.257,0.794,154.4,-99.6,-125.3,5.1,-12.2,-18.8,0.410077212,0.0834986419,0.320688498,-0.849696341
491,1232181,1496990,-1.051,0.232,0.848,153.1,-100.6,-131.8,5.1,-15.2,-18.5,0.408032472,0.082064272,0.317178869,-0.852107303
492,1234449,1496990,-1.019,0.22,0.901,153.5,-101.3,-137.8,5.1,-15.2,-18.5,0.405896176,0.0805993835,0.31366924,-0.854579302
493,1236625,1496990,-0.96,0.203,0.99,154.8,-101.8,-143.3,5.1,-15.2,-18.5,0.403637806,0.0791039766,0.310129093,-0.85708182
494,1239203,1497000,-0.924,0.194,1.032,156.5,-102.2,-148.5,5.1,-15.2,-18.5,0.401287881,0.0775475326,0.306558428,-0.859614856
495,1242718,1497000,-0.892,0.19,1.074,157.8,-102.4,-153.9,5.2,-16.2,-18.2,0.398815882,0.0759910886,0.302957244,-0.862178411
496,1244876,1497000,-0.856,0.181,1.108,158.3,-102.4,-160,5.2,-16.2,-18.2,0.396221809,0.0743736076,0.299356059,-0.864772485
497,1247135,1497000,-0.781,0.179,1.141,157.9,-102,-166.6,5.2,-16.2,-18.2,0.393475143,0.0727256081,0.295754875,-0.867397076
498,1249351,1497010,-0.745,0.175,1.148,156.1,-101.4,-173.7,5.2,-16.2,-18.2,0.390575884,0.0710165716,0.29218421,-0.870052187
499,1251560,1497010,-0.701,0.174,1.147,153,-100.6,-181.2,4.9,-16.8,-17.3,0.387554552,0.069246498,0.2887051,-0.872707297
500,1254024,1497010,-0.59,0.159,1.167,148.5,-99.1,-189.1,4.9,-16.8,-17.3,0.384350108,0.0674459059,0.285317545,-0.875362407
501,1257544,1497010,-0.523,0.146,1.173,143.2,-96.8,-197.4,4.9,-16.8,-17.3,0.380962554,0.0655232398,0.282052065,-0.878048036
502,1259014,1497020,-0.46,0.117,1.16,137,-93.9,-205.6,4.9,-16.8,-17.3,0.377391888,0.0636310923,0.278939177,-0.880733665
503,1261586,1497020,-0.401,0.088,1.143,130.2,-90.6,-213.4,5.1,-17.1,-17.3,0.373638112,0.0616473891,0.275978881,-0.883388775
504,1264980,1497020,-0.288,-0.02,1.101,123.3,-87.5,-221.1,5.1,-17.1,-17.3,0.369731742,0.059602649,0.273201697,-0.886043886
505,1266578,1497020,-0.209,-0.049,1.06,117.2,-85.4,-230.9,5.1,-17.1,-17.3,0.365642262,0.0575579089,0.270516068,-0.888698996
506,1269122,1497030,-0.113,0.003,1.003,113.5,-84.7,-245.9,5.1,-17.1,-17.3,0.361217078,0.0553605762,0.267952513,-0.891415143
507,1273248,1497030,0.062,0.16,0.853,113.2,-85.3,-267.7,6.2,-13.9,-15.1,0.356364635,0.053010651,0.265388958,-0.894253365
508,1274752,1497030,0.111,0.253,0.805,116.2,-86.2,-294.5,6.2,-13.9,-15.1,0.350962859,0.0505386517,0.262794885,-0.897305216
509,1277721,1497030,0.168,0.35,0.756,121.6,-86.4,-322,6.2,-13.9,-15.1,0.34501175,0.0479445784,0.260109256,-0.900540178
510,1279257,1497040,0.228,0.45,0.711,128.2,-86.1,-345.9,6.2,-13.9,-15.1,0.338572344,0.0452589496,0.257301553,-0.903927732
511,1281509,1497040,0.33,0.625,0.618,135.2,-85.8,-364.9,7.2,-15.2,-17.7,0.331705679,0.0425122837,0.254341258,-0.907437361
512,1284513,1497040,0.394,0.674,0.573,141.7,-86.6,-379.6,7.2,-15.2,-17.7,0.324503311,0.0397045808,0.251258889,-0.911008026
513,1287583,1497040,0.478,0.72,0.543,146.9,-88.6,-391.8,7.2,-15.2,-17.7,0.317087313,0.0368358409,0.248023927,-0.914639729
514,1289006,1497050,0.581,0.757,0.525,150.5,-92,-403,7.2,-15.2,-17.7,0.309396649,0.033845027,0.244697409,-0.918271432
515,1291998,1497050,0.828,0.794,0.569,152.5,-96.2,-414.8,8.4,-14.4,-17.5,0.301461837,0.030732139,0.241279336,-0.921903134
516,1295123,1497050,0.992,0.838,0.662,152.3,-100.5,-427.9,8.4,-14.4,-17.5,0.293282876,0.0274666585,0.237830744,-0.925534837
517,1296626,1497050,1.18,0.857,0.805,149.3,-103.9,-441.9,8.4,-14.4,-17.5,0.284768212,0.024018067,0.234412671,-0.92916654
518,1299095,1497060,1.383,0.857,0.999,143.7,-105.8,-455.7,8.4,-14.4,-17.5,0.2760094,0.0204474013,0.231055635,-0.932737205
519,1303410,1497060,1.862,0.831,1.424,135.2,-106,-468.1,10.2,-13.9,-17.6,0.266914884,0.0167241432,0.227851192,-0.936216315
520,1305674,1497060,1.878,0.554,0.835,123.2,-104.3,-478.6,10.2,-13.9,-17.6,0.257606738,0.012939848,0.224890896,-0.93960387
521,1307862,1497060,1.88,-0.825,-2.277,109.3,-105.3,-486.7,10.2,-13.9,-17.6,0.248084964,0.0090029603,0.222205267,-0.942838832
522,1310075,1497070,2.786,-4.265,-5.455,126.4,-129.4,-482.2,10.2,-13.9,-17.6,0.238776818,0.00469985046,0.218970305,-0.946043275
523,1311536,1497070,7.238,-8.25,3.053,285.9,-194,-423.6,12.3,-12.7,-17.5,0.230903043,0.000152592547,0.212073122,-0.949552904
524,1314202,1497070,7.976,-8.263,0.096,599.4,-275.2,-254.9,12.3,-12.7,-17.5,0.226874599,-0.00366222114,0.198248238,-0.953489792
525,1317581,1497070,7.967,-8.273,-1.504,810.6,-363.4,-6.3,12.3,-12.7,-17.5,0.228339488,-0.00726340526,0.17957091,-0.956846828
526,1319043,1497080,7.982,-8.27,1.264,662.4,-402.3,215.9,12.3,-12.7,-17.5,0.234473708,-0.0115054781,0.163731803,-0.958128605
527,1322127,1497080,8.157,2.704,2.625,173.2,-338.3,262.6,10.7,-17,-15.3,0.241218299,-0.0167241432,0.158421583,-0.957274087
528,1324353,1497080,8.06,3.366,1.946,-295.1,-165.3,75.5,10.7,-17,-15.3,0.243232521,-0.0214850307,0.163762322,-0.95577868
529,1326545,1497080,5.264,5.854,1.384,-520.1,55.9,-289.2,10.7,-17,-15.3,0.236762597,-0.0241096225,0.174748985,-0.955412458
530,1330310,1497090,0.199,8.003,4.685,-501.1,255.7,-646.2,10.7,-17,-15.3,0.221991638,-0.0238044374,0.186132389,-0.956785791
531,1331783,1497090,-0.555,8.022,3.202,-371.3,397,-766.4,12.8,-14.6,-15.3,0.20413831,-0.0204474013,0.195379498,-0.959013642
532,1334909,1497090,-1.652,8.044,1.282,-242.4,445.1,-581.5,12.8,-14.6,-15.3,0.189947203,-0.0147099216,0.202154607,-0.960631123
533,1337048,1497090,-2.533,8.063,-0.112,-171.3,380.5,-210.4,12.8,-14.6,-15.3,0.183782464,-0.0083620716,0.207251198,-0.960814234
534,1340187,1497100,-3.648,6.762,-1.535,-165.6,256,128.9,12.8,-14.6,-15.3,0.18530839,-0.00308236946,0.211767937,-0.959562975
535,1342296,1497100,-3.549,4.31,-1.964,-182.1,142.4,320.3,13.3,-14.2,-14.8,0.191320536,0.00061037019,0.216162603,-0.957396161
536,1344031,1497100,-3.062,2.274,-2.389,-183.3,65.6,360.9,13.3,-14.2,-14.8,0.198553423,0.00292977691,0.220252083,-0.954985199
537,1347289,1497100,-2.209,-0.245,-3.443,-146.9,12.5,313.3,13.3,-14.2,-14.8,0.205023347,0.00405896176,0.223334452,-0.95290994
538,1349094,1497110,-1.126,-0.908,-1.552,-51,-30.4,236.1,13.3,-14.2,-14.8,0.210089419,0.00433362835,0.224250008,-0.951597644
539,1351548,1497110,-0.284,-2.538,-0.711,93.4,-64.1,168.1,12.9,-14.6,-14.1,0.213873714,0.00427259133,0.221991638,-0.95126194
540,1354995,1497110,0.643,-2.863,0.761,228.9,-75.1,133.7,12.9,-14.6,-14.1,0.216986602,0.00442518387,0.216864528,-0.951750237
541,1357764,1497110,-0.243,-4.529,0.692,298.4,-58.7,148.8,12.9,-14.6,-14.1,0.22031312,0.00531022065,0.210364086,-0.952421644
542,1359294,1497120,-0.083,-4.792,1.059,290.9,-26.1,181.3,12.9,-14.6,-14.1,0.224188971,0.00701925718,0.204168828,-0.952879421
543,1362754,1497120,-0.264,-4.834,1.341,236.5,4.1,185.8,12.3,-15.4,-12.5,0.227973266,0.00909451582,0.199255348,-0.953001495
544,1364298,1497120,-0.498,-4.334,1.495,163,17.2,130.4,12.3,-15.4,-12.5,0.230567339,0.0108035524,0.195898312,-0.953032014
545,1368173,1497120,-1.178,-2.466,1.812,92.8,12.7,40,12.3,-15.4,-12.5,0.231330302,0.0117191076,0.194036683,-0.953245643
546,1370406,1497130,-1.338,-1.527,1.876,51.4,-1.6,-45.1,12.3,-15.4,-12.5,0.230384228,0.0117496261,0.192968535,-0.953672903
547,1372142,1497130,-1.334,-0.698,1.889,46.7,-16,-96.7,12.6,-15.6,-16.9,0.228431043,0.01126133,0.191930906,-0.954374828
548,1374414,1497130,-1.23,-0.127,1.881,62.5,-26.3,-107.9,12.6,-15.6,-16.9,0.226294748,0.0105594043,0.190527055,-0.95516831
549,1376693,1497130,-1.113,0.368,1.587,77.2,-32,-91.8,12.6,-15.6,-16.9,0.224494156,0.00988799707,0.1887875,-0.955931272
550,1378968,1497140,-1.06,0.411,1.628,75.2,-30.1,-68.1,12.6,-15.6,-16.9,0.223151341,0.0093386639,0.187078463,-0.95660268
551,1381684,1497140,-0.753,0.71,1.811,48.2,-14.6,-52.6,12.6,-15.9,-13.5,0.222113712,0.00906399731,0.186010315,-0.957060457
552,1384573,1497140,-0.325,1.293,3.61,18.4,8.9,-51,12.6,-15.9,-13.5,0.221015046,0.00912503433,0.185674612,-0.957365642
553,1387762,1497140,-0.53,0.12,2.088,9,20.5,-51.8,12.6,-15.9,-13.5,0.219855342,0.00939970092,0.185613575,-0.957640309
554,1389777,1497150,-0.37,-0.197,1.85,28.1,11.4,-45.7,12.6,-15.9,-13.5,0.218848231,0.00958281198,0.185064241,-0.957976012
555,1392914,1497150,-0.182,-0.8,1.464,51.2,-11.5,-33,12.6,-15.7,-13.8,0.218176824,0.00946073794,0.183965575,-0.958342235
556,1394584,1497150,-0.095,-1.045,1.361,58.1,-29.3,-25.1,12.6,-15.7,-13.8,0.217749565,0.0090029603,0.182622761,-0.958708457
557,1397705,1497150,-0.012,-1.244,1.273,50.5,-37.7,-26.5,12.6,-15.7,-13.8,0.217352824,0.0083620716,0.181371502,-0.95904416
558,1399093,1497160,0.071,-1.478,1.221,37,-38.2,-30.4,12.6,-15.7,-13.8,0.216864528,0.00762962737,0.180425428,-0.959349345
559,1403033,1497160,-0.114,-1.969,1.239,24,-34,-27.9,12.4,-15.9,-14.7,0.216406751,0.00689718314,0.179754021,-0.959562975
560,1405602,1497160,0.081,-1.832,1.21,12.7,-27.2,-19.3,12.4,-15.9,-14.7,0.216101566,0.00631733146,0.179387799,-0.959715567
561,1407324,1497160,0.087,-1.726,1.26,0.1,-19,-12.6,12.4,-15.9,-14.7,0.215918455,0.00589007233,0.179296243,-0.959776605
562,1409359,1497170,0.075,-1.482,1.248,-15.7,-10.6,-14,12.4,-15.9,-14.7,0.215643788,0.00552385022,0.17957091,-0.959776605
563,1412606,1497170,-0.013,-0.823,1.256,-33.1,-3.2,-21,12.3,-15.6,-15.4,0.215216529,0.00521866512,0.180242317,-0.959746086
564,1414330,1497170,-0.072,-0.516,1.281,-48.1,2.4,-27.8,12.3,-15.6,-15.4,0.214636677,0.00494399854,0.181279946,-0.959685049
565,1416693,1497170,-0.12,-0.267,1.312,-57.3,5.7,-32.9,12.3,-15.6,-15.4,0.213934751,0.00466933195,0.182500687,-0.959624012
566,1420228,1497180,-0.145,-0.109,1.336,-59.6,6.5,-36.6,12.3,-15.6,-15.4,0.213110752,0.00436414686,0.183782464,-0.959562975
567,1421707,1497180,-0.1,-0.031,1.354,-56.3,4.6,-39.5,13.1,-15.3,-15,0.21231727,0.00402844325,0.184972686,-0.959501938
568,1424834,1497180,-0.033,-0.088,1.341,-50.6,1.2,-41.8,13.1,-15.3,-15,0.211432234,0.00366222114,0.186040834,-0.959501938
569,1426699,1497180,0.04,-0.16,1.323,-46.2,-2.6,-44.2,13.1,-15.3,-15,0.210516678,0.00320444349,0.187017426,-0.959501938
570,1430144,1497190,0.102,-0.264,1.275,-45.7,-5.7,-46.7,13.1,-15.3,-15,0.209570605,0.00268562883,0.187932981,-0.959532456
571,1431638,1497190,0.182,-0.447,1.188,-49.1,-7.4,-49.4,12.5,-15.6,-15.1,0.208563494,0.00210577715,0.188940092,-0.959562975
572,1435457,1497190,0.208,-0.502,1.168,-54.3,-7.5,-52.1,12.5,-15.6,-15.1,0.207495346,0.00149540696,0.190038759,-0.959562975
573,1436956,1497190,0.224,-0.53,1.163,-58.6,-7,-54.3,12.5,-15.6,-15.1,0.20639668,0.000854518265,0.191259499,-0.959562975
574,1440721,1497200,0.244,-0.523,1.159,-61,-6.5,-55.2,12.5,-15.6,-15.1,0.205267495,0.000213629566,0.192510758,-0.959562975
575,1442245,1497200,0.258,-0.397,1.15,-61.6,-6.2,-54.5,13.2,-14.8,-15.4,0.204168828,-0.000396740623,0.193762017,-0.959562975
576,1445083,1497200,0.251,-0.307,1.146,-61.5,-6.2,-52.6,13.2,-14.8,-15.4,0.203070162,-0.00103762932,0.195013276,-0.959532456
577,1446480,1497200,0.248,-0.216,1.15,-61.5,-6.1,-50.4,13.2,-14.8,-15.4,0.202032533,-0.00164799951,0.196264534,-0.959471419
578,1449621,1497210,0.23,-0.126,1.158,-61.8,-6,-48.5,13.2,-14.8,-15.4,0.20105594,-0.0022583697,0.197546312,-0.959440901
579,1451689,1497210,0.188,-0.023,1.163,-61.9,-5.9,-47.6,13.1,-14.9,-15.3,0.200079348,-0.00283822138,0.198797571,-0.959379864
580,1454759,1497210,0.165,0.001,1.163,-61.6,-5.9,-47.1,13.1,-14.9,-15.3,0.199102756,-0.00344859157,0.200079348,-0.959318827
581,1456511,1497210,0.149,-0.002,1.164,-60.6,-6.1,-46.8,13.1,-14.9,-15.3,0.198156682,-0.00402844325,0.201300089,-0.95925779
582,1460016,1497220,0.148,-0.033,1.164,-59.2,-6.6,-46.4,13.1,-14.9,-15.3,0.197210608,-0.00463881344,0.202520829,-0.959196753
583,1462274,1497220,0.171,-0.124,1.167,-57.6,-7.4,-45.7,13.2,-14.3,-15.4,0.196264534,-0.00524918363,0.203680532,-0.959135716
584,1464533,1497220,0.198,-0.164,1.163,-56,-8.3,-44.8,13.2,-14.3,-15.4,0.195379498,-0.00585955382,0.204809717,-0.959074679
585,1466803,1497220,0.225,-0.212,1.154,-54.7,-9,-43.6,13.2,-14.3,-15.4,0.194494461,-0.00646992401,0.205908383,-0.959013642
586,1469843,1497230,0.271,-0.28,1.11,-54,-9.4,-42.4,13.2,-14.3,-15.4,0.193639943,-0.00711081271,0.20700705,-0.958952605
587,1472713,1497230,0.283,-0.292,1.087,-53.8,-9.3,-41.7,13.1,-13.9,-15.6,0.192785424,-0.0077211829,0.208075198,-0.958861049
588,1474257,1497230,0.282,-0.304,1.052,-54.2,-8.6,-41.4,13.1,-13.9,-15.6,0.191961425,-0.00830103458,0.209173864,-0.958800012
589,1477832,1497230,0.266,-0.315,0.982,-54.9,-7.6,-41.6,13.1,-13.9,-15.6,0.191106906,-0.00888088626,0.210303049,-0.958708457
590,1480189,1497240,0.258,-0.331,0.951,-55.5,-6.8,-41.9,13.1,-13.9,-15.6,0.190252388,-0.00946073794,0.211401715,-0.95864742
591,1482461,1497240,0.253,-0.347,0.92,-55.5,-6.2,-42,14.4,-13.6,-16.3,0.18939787,-0.0100100711,0.2125309,-0.958555864
592,1484648,1497240,0.252,-0.39,0.885,-54.5,-5.8,-41.7,14.4,-13.6,-16.3,0.188543352,-0.0105594043,0.213660085,-0.958464309
593,1487071,1497240,0.263,-0.465,0.842,-52.6,-5.6,-41,14.4,-13.6,-16.3,0.187688833,-0.0110782189,0.214728233,-0.958372753
594,1489964,1497250,0.266,-0.508,0.818,-49.9,-5.8,-39.7,14.4,-13.6,-16.3,0.186864834,-0.0115970336,0.215735343,-0.958311716
595,1492119,1497250,0.269,-0.571,0.744,-47,-6.3,-38.5,15,-13.3,-16.2,0.186010315,-0.0124515519,0.216498306,-0.958311716
596,1494525,1497250,0.269,-0.571,0.744,-44.5,-6.6,-37.3,15,-13.3,-16.2,0.185247353,-0.012939848,0.217383343,-0.958220161
597,1496926,1497250,0.264,-0.571,0.694,-42.5,-7,-36.5,15,-13.3,-16.2,0.184514908,-0.0134586627,0.218237861,-0.958189642
598,1499140,1497260,0.257,-0.551,0.666,-41.1,-7.3,-35.7,15,-13.3,-16.2,0.183782464,-0.0139469588,0.219061861,-0.958128605
599,1501832,1497260,0.253,-0.52,0.62,-39.7,-7.5,-35.2,15.2,-13.1,-16.7,0.183080538,-0.0144047365,0.219855342,-0.958067568
600,1504114,1497260,0.249,-0.485,0.596,-38.1,-7.7,-34.9,15.2,-13.1,-16.7,0.182348094,-0.0148930326,0.220618305,-0.958006531
601,1508166,1497260,0.271,-0.375,0.576,-36,-7.9,-35,15.2,-13.1,-16.7,0.181646168,-0.0153813288,0.221320231,-0.957976012
602,1510299,1497270,0.272,-0.336,0.63,-33.1,-8.4,-35.3,15.2,-13.1,-16.7,0.180944243,-0.0158696249,0.221961119,-0.957976012
603,1512735,1497270,0.268,-0.304,0.7,-29.4,-9.4,-35.7,15,-13.1,-16.4,0.180242317,-0.0163579211,0.222540971,-0.957945494
604,1514806,1497270,0.297,-0.297,0.762,-25.1,-10.3,-35.3,15,-13.1,-16.4,0.179540391,-0.0168462172,0.222998749,-0.957976012
605,1517067,1497270,0.356,-0.365,0.839,-20.7,-10.8,-33.9,15,-13.1,-16.4,0.178868984,-0.0173039949,0.223395489,-0.958006531
606,1519303,1497280,0.371,-0.432,0.847,-16.1,-10.8,-31.5,15,-13.1,-16.4,0.178258614,-0.0177617725,0.223670156,-0.958006531
607,1521660,1497280,0.398,-0.48,0.834,-10.5,-11,-29.1,13.1,-12.7,-16.4,0.177709281,-0.0181585131,0.223822748,-0.958098086
608,1524332,1497280,0.452,-0.52,0.817,-3.3,-11.5,-27.6,13.1,-12.7,-16.4,0.177190466,-0.0185552538,0.223853267,-0.958189642
609,1527596,1497280,0.627,-0.481,0.695,4.7,-12.5,-27.6,13.1,-12.7,-16.4,0.176671651,-0.0189214759,0.223670156,-0.958311716
610,1529163,1497290,0.754,-0.421,0.61,11.3,-13.4,-29,13.1,-12.7,-16.4,0.176122318,-0.019287698,0.223395489,-0.958464309
611,1531730,1497290,0.89,-0.342,0.547,14.2,-13.8,-31.7,15.5,-12.2,-16.4,0.175542467,-0.0197149571,0.223029267,-0.95864742
612,1534678,1497290,0.979,-0.293,0.713,14,-12.5,-35.2,15.5,-12.2,-16.4,0.174871059,-0.0200811792,0.222663045,-0.958861049
613,1536503,1497290,0.951,-0.351,0.835,14.5,-9.5,-37.8,15.5,-12.2,-16.4,0.174138615,-0.0203863643,0.222296823,-0.959074679
614,1540025,1497300,0.91,-0.464,0.91,19.6,-5.1,-37.1,15.5,-12.2,-16.4,0.173375652,-0.0206305124,0.221869564,-0.959288308
615,1542284,1497300,0.864,-0.632,0.939,30,-1,-31.4,16,-12.5,-16.2,0.172734764,-0.0206915494,0.221198157,-0.959562975
616,1544493,1497300,0.895,-0.691,0.935,42.1,2.1,-21.6,16,-12.5,-16.2,0.172307505,-0.0205999939,0.22031312,-0.959837642
617,1546686,1497300,0.93,-0.763,0.926,52.3,4.5,-10.3,16,-12.5,-16.2,0.172093875,-0.0203558458,0.219244972,-0.960142827
618,1550636,1497310,0.953,-0.811,0.926,58.9,6.7,0.4,16,-12.5,-16.2,0.172093875,-0.0199896237,0.217993713,-0.960417493
619,1552721,1497310,0.983,-0.878,0.867,62.6,9,10.8,15.7,-12.3,-15.7,0.172307505,-0.0195013276,0.216742454,-0.96069216
620,1554213,1497310,1.011,-0.895,0.843,64.2,11,21.4,15.7,-12.3,-15.7,0.172704245,-0.0189214759,0.215460677,-0.960905789
621,1556578,1497310,1.046,-0.899,0.806,64.8,12.9,31.9,15.7,-12.3,-15.7,0.173345134,-0.0182500687,0.214148381,-0.9610889
622,1559161,1497320,1.078,-0.896,0.782,64.5,15,41.6,15.7,-12.3,-15.7,0.174169134,-0.0175176244,0.212866604,-0.961241493
623,1563154,1497320,1.118,-0.858,0.746,63.6,17.6,50.4,15.7,-12.6,-15.8,0.175176244,-0.0166631062,0.211645863,-0.961363567
624,1565319,1497320,1.122,-0.831,0.73,61.9,20.8,58.7,15.7,-12.6,-15.8,0.176335948,-0.0157170324,0.210425123,-0.961424604
625,1567583,1497320,1.114,-0.803,0.722,59.2,24.5,67.2,15.7,-12.6,-15.8,0.177648244,-0.0146488845,0.209295938,-0.961455123
626,1569092,1497330,1.107,-0.779,0.719,55.8,28.7,76,15.7,-12.6,-15.8,0.179143651,-0.0134891812,0.208288827,-0.961424604
627,1572406,1497330,1.079,-0.755,0.723,51.8,32.9,85.3,14.3,-13.3,-15.6,0.18079165,-0.0122074038,0.207342753,-0.961333048
628,1574112,1497330,1.06,-0.743,0.724,47.4,37.1,94.8,14.3,-13.3,-15.6,0.182622761,-0.0108035524,0.206518754,-0.961180456
629,1577587,1497330,1.044,-0.738,0.72,42.8,40.9,104.3,14.3,-13.3,-15.6,0.184636982,-0.00930814539,0.205816828,-0.960936308
630,1579127,1497340,1.032,-0.742,0.713,38,44.3,113.2,14.3,-13.3,-15.6,0.186834315,-0.0077211829,0.205206458,-0.960661641
631,1581628,1497340,1.012,-0.73,0.713,33.1,47.2,121.7,13.1,-13.7,-15.1,0.189153722,-0.00604266488,0.204718162,-0.960325938
632,1583997,1497340,1.004,-0.734,0.709,28.2,49.7,129.2,13.1,-13.7,-15.1,0.191625721,-0.00433362835,0.204321421,-0.959929197
633,1587368,1497340,1,-0.73,0.702,23.4,52.1,135.9,13.1,-13.7,-15.1,0.194280831,-0.00253303629,0.204107791,-0.959440901
634,1589266,1497350,0.992,-0.733,0.686,18.9,54.5,141.9,13.1,-13.7,-15.1,0.196996979,-0.000671407208,0.20392468,-0.958922086
635,1591679,1497350,0.984,-0.725,0.663,15.1,56.8,147.3,10.9,-13.8,-14.8,0.1998352,0.00122074038,0.203863643,-0.958372753
636,1594703,1497350,0.984,-0.717,0.659,12,58.9,152.1,10.9,-13.8,-14.8,0.202734458,0.00317392499,0.203863643,-0.957762383
637,1596565,1497350,0.977,-0.713,0.659,9.5,60.8,156.3,10.9,-13.8,-14.8,0.205755791,0.00518814661,0.20392468,-0.957090976
638,1599651,1497360,0.949,-0.713,0.648,7.6,62.7,160,10.9,-13.8,-14.8,0.208807642,0.00723288675,0.204016236,-0.95638905
639,1601951,1497360,0.941,-0.709,0.645,6.1,64.6,163.4,10,-14.2,-14.8,0.21192053,0.0093386639,0.204168828,-0.955656606
640,1604187,1497360,0.925,-0.708,0.637,4.6,66.5,166.4,10,-14.2,-14.8,0.215063936,0.0115054781,0.204321421,-0.954893643
641,1606730,1497360,0.917,-0.704,0.63,3,68.3,169.3,10,-14.2,-14.8,0.218329417,0.0137028108,0.204565569,-0.954069643
642,1610112,1497370,0.885,-0.696,0.599,1.1,70.1,171.8,10,-14.2,-14.8,0.221564379,0.0159306619,0.204809717,-0.953245643
643,1611620,1497370,0.865,-0.691,0.58,-0.8,71.6,174.1,8.8,-14.4,-14.4,0.224890896,0.0181890316,0.205114902,-0.952360607
644,1614231,1497370,0.858,-0.679,0.58,-3.1,73,176.1,8.8,-14.4,-14.4,0.228217414,0.0204779199,0.205450606,-0.951445051
645,1617210,1497370,0.838,-0.671,0.565,-5.2,74.3,177.7,8.8,-14.4,-14.4,0.23157445,0.0227973266,0.205847346,-0.950498978
646,1619218,1497380,0.826,-0.663,0.562,-7.4,75.4,178.9,8.8,-14.4,-14.4,0.234931486,0.0251167333,0.206274606,-0.949522385
647,1622593,1497380,0.818,-0.671,0.562,-9.4,76.3,179.8,13.2,-16.2,-14.7,0.23831904,0.0274666585,0.20679342,-0.948484756
648,1624179,1497380,0.802,-0.662,0.554,-11.2,77.2,180.6,13.2,-16.2,-14.7,0.241706595,0.0297860652,0.207312235,-0.947447127
649,1626801,1497380,0.778,-0.666,0.551,-13.1,78.4,181.6,13.2,-16.2,-14.7,0.245124668,0.0321970275,0.207892087,-0.946378979
650,1629075,1497390,0.766,-0.669,0.548,-14.9,79.7,183,13.2,-16.2,-14.7,0.248542741,0.0345774712,0.208471938,-0.945249794
651,1631660,1497390,0.754,-0.673,0.544,-16.6,80.9,184.2,10.1,-13.4,-14.1,0.251991333,0.037018952,0.209112827,-0.944120609
652,1635779,1497390,0.738,-0.677,0.537,-18.5,82,185.3,10.1,-13.4,-14.1,0.255439924,0.0394299142,0.209814753,-0.942930387
653,1638162,1497390,0.706,-0.688,0.534,-20.7,83.1,186.1,10.1,-13.4,-14.1,0.258919034,0.041871395,0.210547197,-0.941709647
654,1640273,1497400,0.686,-0.695,0.526,-23.3,84.4,186.6,10.1,-13.4,-14.1,0.262367626,0.0443433943,0.21131016,-0.940458388
655,1641761,1497400,0.666,-0.706,0.519,-26.1,85.7,186.9,10.8,-14,-14.2,0.265846736,0.0468153935,0.212134159,-0.939176611
656,1644869,1497400,0.65,-0.722,0.539,-28.9,87.1,187.1,10.8,-14,-14.2,0.269295328,0.0492873928,0.213080233,-0.937864315
657,1646551,1497400,0.607,-0.729,0.54,-31.5,88.3,187.3,10.8,-14,-14.2,0.272743919,0.0517899106,0.214026307,-0.9365215
658,1649469,1497410,0.575,-0.732,0.537,-33.9,89.5,187.2,10.8,-14,-14.2,0.276192511,0.0542924284,0.215033418,-0.935148167
659,1652581,1497410,0.543,-0.735,0.538,-36.2,90.5,186.8,11.1,-14,-14.4,0.279641102,0.0567949461,0.216101566,-0.933713797
660,1654136,1497410,0.515,-0.734,0.539,-38.5,91.3,186.2,11.1,-14,-14.4,0.283028657,0.0592974639,0.217200232,-0.932279427
661,1656706,1497410,0.444,-0.717,0.556,-40.5,92,185.2,11.1,-14,-14.4,0.286416211,0.0617999817,0.218359935,-0.930814539
662,1660840,1497420,0.408,-0.708,0.561,-42.1,92.6,184.3,11.1,-14,-14.4,0.289773247,0.0643024995,0.219550157,-0.929319132
663,1663171,1497420,0.373,-0.704,0.574,-43.3,93,183.2,11.3,-14,-14.2,0.293099765,0.0667744987,0.220770898,-0.927823725
664,1665296,1497420,0.333,-0.687,0.575,-44,93.4,182.1,11.3,-14,-14.2,0.296395764,0.0692770165,0.221991638,-0.9262978
665,1667625,1497420,0.266,-0.678,0.584,-44.3,93.6,181,11.3,-14,-14.2,0.299661245,0.0717490158,0.223212378,-0.924771874
666,1669165,1497430,0.231,-0.665,0.589,-44.3,93.6,179.9,11.3,-14,-14.2,0.302896207,0.074221015,0.224433119,-0.92321543
667,1671802,1497430,0.199,-0.664,0.59,-44,93.3,178.8,9.1,-16.4,-14.5,0.306131169,0.0766930143,0.225623341,-0.921658986
668,1674782,1497430,0.132,-0.651,0.584,-43.8,92.8,177.8,9.1,-16.4,-14.5,0.309305094,0.0791344951,0.226844081,-0.920102542
669,1676761,1497430,0.104,-0.65,0.585,-43.6,92.2,176.6,9.1,-16.4,-14.5,0.312479019,0.0815759758,0.228034303,-0.91851558
670,1679147,1497440,0.08,-0.634,0.582,-43.4,91.6,175.1,9.1,-16.4,-14.5,0.315591906,0.0839869381,0.229224525,-0.916928617
671,1682618,1497440,0.037,-0.625,0.567,-43,90.9,173.3,9.2,-15.7,-14.2,0.318674276,0.0863673818,0.230384228,-0.915341655
672,1684721,1497440,0.009,-0.609,0.56,-42.6,89.9,171.2,9.2,-15.7,-14.2,0.321726127,0.088717307,0.231543931,-0.913754692
673,1686865,1497440,-0.018,-0.592,0.561,-42.6,88.7,168.8,9.2,-15.7,-14.2,0.324686422,0.0910367138,0.232642598,-0.91216773
674,1689218,1497450,-0.041,-0.576,0.561,-43,87.6,166.1,9.2,-15.7,-14.2,0.327677236,0.093325602,0.23383282,-0.910611286
675,1691690,1497450,-0.092,-0.54,0.57,-43.6,86.5,163.4,8.6,-15.8,-14.5,0.330545976,0.0955839717,0.234962004,-0.909024323
676,1694647,1497450,-0.127,-0.523,0.579,-44,85.7,160.7,8.6,-15.8,-14.5,0.333414716,0.0977507859,0.236121708,-0.907467879
677,1696567,1497450,-0.155,-0.511,0.572,-44.3,84.9,158.1,8.6,-15.8,-14.5,0.3361919,0.0999481185,0.237281411,-0.905880917
678,1700113,1497460,-0.183,-0.494,0.576,-44.3,84.1,155.7,8.6,-15.8,-14.5,0.338938566,0.102084414,0.238441115,-0.904324473
679,1701624,1497460,-0.242,-0.465,0.582,-44.5,83.3,153.3,8.1,-16.1,-14.6,0.341624195,0.10422071,0.239600818,-0.902768029
680,1704659,1497460,-0.269,-0.449,0.583,-45.2,82.3,150.8,8.1,-16.1,-14.6,0.344218268,0.10626545,0.240760521,-0.901211585
681,1707625,1497460,-0.293,-0.445,0.575,-46.5,81.1,148.3,8.1,-16.1,-14.6,0.34684286,0.10831019,0.241920225,-0.899655141
682,1709129,1497470,-0.321,-0.436,0.58,-48.3,80,145.7,8.1,-16.1,-14.6,0.349406415,0.110293893,0.243140965,-0.898098697
683,1712187,1497470,-0.356,-0.427,0.593,-50,79.1,142.9,7.5,-17.3,-14.9,0.351908933,0.112216559,0.244361705,-0.896542253
684,1715092,1497470,-0.364,-0.435,0.601,-51.3,78.2,140.1,7.5,-17.3,-14.9,0.354350414,0.114078188,0.245643483,-0.895016327
685,1716544,1497470,-0.372,-0.458,0.617,-52,77.3,137.3,7.5,-17.3,-14.9,0.356730857,0.115939817,0.246894742,-0.893459883
686,1719676,1497480,-0.388,-0.474,0.64,-52.2,76.6,134.6,7.5,-17.3,-14.9,0.359080782,0.11774041,0.248176519,-0.891933958
687,1722582,1497480,-0.381,-0.505,0.664,-52.1,76.2,132.1,7.5,-14.5,-14.6,0.361369671,0.119541002,0.249458296,-0.890408032
688,1724154,1497480,-0.389,-0.513,0.668,-52.4,76,129.7,7.5,-14.5,-14.6,0.36362804,0.121311075,0.250740074,-0.888912626
689,1726717,1497480,-0.393,-0.513,0.668,-54,75.9,127.7,7.5,-14.5,-14.6,0.365825373,0.12305063,0.25205237,-0.8873867
690,1729019,1497490,-0.405,-0.509,0.668,-56.9,76.1,125.6,7.5,-14.5,-14.6,0.367992187,0.124759667,0.253395184,-0.885860775
691,1732413,1497490,-0.448,-0.461,0.665,-60.7,76.6,123.2,7.3,-17.2,-16.1,0.370097964,0.126438185,0.254860073,-0.884334849
692,1734274,1497490,-0.471,-0.437,0.666,-64.6,77.4,120.2,7.3,-17.2,-16.1,0.372173223,0.128086184,0.256385998,-0.882778405
693,1736531,1497490,-0.498,-0.404,0.667,-68,78.3,116.6,7.3,-17.2,-16.1,0.374156926,0.129673147,0.258033998,-0.881221961
694,1739689,1497500,-0.557,-0.336,0.668,-70.4,79.2,112.5,7.3,-17.2,-16.1,0.376079592,0.131260109,0.259712516,-0.879696036
695,1742045,1497500,-0.592,-0.304,0.673,-71.8,79.8,108.2,7.1,-17.4,-15.9,0.377880184,0.133030183,0.261726737,-0.878048036
696,1744116,1497500,-0.623,-0.268,0.673,-72.2,80.1,104.1,7.1,-17.4,-15.9,0.379619739,0.134556108,0.263466292,-0.876522111
697,1746586,1497500,-0.659,-0.247,0.667,-71.7,79.9,100.3,7.1,-17.4,-15.9,0.381298257,0.136082034,0.265205847,-0.875057222
698,1749076,1497510,-0.713,-0.199,0.68,-70.6,79.6,96.8,7.1,-17.4,-15.9,0.38288522,0.137577441,0.266914884,-0.873592334
699,1752500,1497510,-0.745,-0.175,0.688,-69.1,79.4,93.5,6.7,-17.6,-15.9,0.384411145,0.139042329,0.26862392,-0.872157964
700,1754007,1497510,-0.78,-0.162,0.701,-67.4,79,90.2,6.7,-17.6,-15.9,0.385876034,0.140507218,0.270302438,-0.870784631
701,1756592,1497510,-0.827,-0.13,0.722,-65.5,78.5,86.7,6.7,-17.6,-15.9,0.387249367,0.141972106,0.271950438,-0.869411298
702,1760013,1497520,-0.859,-0.125,0.746,-63.2,78,82.9,6.7,-17.6,-15.9,0.388561663,0.143406476,0.2735374,-0.868099002
703,1761508,1497520,-0.883,-0.12,0.754,-60.5,77.6,78.9,6.7,-17.3,-16.4,0.389782403,0.144840846,0.275093844,-0.866817225
704,1764024,1497520,-0.91,-0.116,0.774,-57,77.3,74.5,6.7,-17.3,-16.4,0.390911588,0.146244697,0.276589251,-0.865596484
705,1767603,1497520,-0.97,-0.126,0.807,-52.7,77,69.9,6.7,-17.3,-16.4,0.391918699,0.147679067,0.278023621,-0.864436781
706,1769054,1497530,-0.99,-0.13,0.82,-47.8,76.6,65.4,6.7,-17.3,-16.4,0.392864772,0.149113437,0.279366436,-0.863338115
707,1771613,1497530,-1.013,-0.133,0.832,-43,76,61.3,6.9,-14.8,-14.5,0.393688772,0.150547807,0.280648213,-0.862300485
708,1775103,1497530,-1.033,-0.14,0.84,-38.7,75.2,57.7,6.9,-14.8,-14.5,0.394421216,0.151982177,0.281807917,-0.861293374
709,1776638,1497530,-1.053,-0.156,0.853,-35,74.3,54.4,6.9,-14.8,-14.5,0.395123142,0.153416547,0.282937101,-0.860347301
710,1779595,1497540,-1.065,-0.159,0.857,-31.8,73.4,51.1,6.9,-14.8,-14.5,0.395733512,0.154850917,0.284005249,-0.859492782
711,1782568,1497540,-1.073,-0.163,0.861,-28.7,72.5,47.5,6.9,-15.5,-17.6,0.396282846,0.156254769,0.28501236,-0.858638264
712,1784032,1497540,-1.077,-0.167,0.869,-25.8,71.5,43.5,6.9,-15.5,-17.6,0.396740623,0.157628101,0.285958434,-0.857875301
713,1787060,1497540,-1.081,-0.155,0.877,-23.1,70.6,39.3,6.9,-15.5,-17.6,0.397106845,0.159001434,0.286873989,-0.857142857
714,1790056,1497550,-1.089,-0.143,0.873,-21.3,69.9,35.2,6.9,-15.5,-17.6,0.397381512,0.160344249,0.287728507,-0.856440931
715,1791554,1497550,-1.108,-0.103,0.866,-20.3,69.5,31.5,7,-15,-17.4,0.39762566,0.161656545,0.288613544,-0.855800043
716,1795113,1497550,-1.108,-0.103,0.866,-20.3,69.3,28.3,7,-15,-17.4,0.397778253,0.162968841,0.289498581,-0.855189673
717,1796661,1497550,-1.123,-0.071,0.858,-21,69.3,25.4,7,-15,-17.4,0.397900327,0.164220099,0.290414136,-0.854579302
718,1799682,1497560,-1.127,-0.052,0.858,-21.9,69.7,22.5,7,-15,-17.4,0.397961364,0.165471358,0.291329691,-0.853999451
719,1802685,1497560,-1.127,-0.028,0.858,-22.6,70.3,19.5,7,-14.7,-17.7,0.397930845,0.166722617,0.292306284,-0.853450117
720,1804162,1497560,-1.13,0.018,0.85,-23.3,70.9,16.5,7,-14.7,-17.7,0.397900327,0.167943358,0.293282876,-0.852870266
721,1807104,1497560,-1.126,0.03,0.834,-24.7,71.5,13.5,7,-14.7,-17.7,0.397778253,0.16913358,0.294320505,-0.852351451
722,1809144,1497570,-1.134,0.053,0.827,-27.4,71.9,10.7,7,-14.7,-17.7,0.397595141,0.170323801,0.295388653,-0.851802118
723,1812272,1497570,-1.137,0.081,0.811,-31.9,72.5,7.9,7.2,-14.5,-17.4,0.39741203,0.171452986,0.296609394,-0.851252785
724,1814995,1497570,-1.156,0.125,0.804,-37.8,73.6,5.2,7.2,-14.5,-17.4,0.397167882,0.172521134,0.29792169,-0.850703452
725,1816623,1497570,-1.168,0.141,0.796,-44.1,75.1,2.4,7.2,-14.5,-17.4,0.396893216,0.173528245,0.299386578,-0.850093081
726,1819405,1497580,-1.18,0.157,0.781,-50.4,76.8,-0.4,7.2,-14.5,-17.4,0.396557512,0.174535356,0.301004059,-0.849482711
727,1821698,1497580,-1.196,0.177,0.746,-56.6,78,-3.6,7.9,-15.4,-16.4,0.396221809,0.175450911,0.302743614,-0.848841823
728,1825282,1497580,-1.211,0.189,0.731,-63,78.8,-6.9,7.9,-15.4,-16.4,0.395794549,0.176335948,0.304605243,-0.848170415
729,1826843,1497580,-1.235,0.201,0.72,-69.3,79.4,-10.1,7.9,-15.4,-16.4,0.395336772,0.177129429,0.306619465,-0.847499008
730,1830746,1497590,-1.251,0.209,0.712,-75.5,80.1,-13.2,7.9,-15.4,-16.4,0.394848476,0.177861873,0.30875576,-0.846797082
731,1832965,1497590,-1.294,0.218,0.698,-81.1,80.7,-16.1,8.3,-14.9,-16.8,0.394329661,0.178563799,0.31101413,-0.846064638
732,1835244,1497590,-1.318,0.223,0.695,-86.3,81.2,-18.8,8.3,-14.9,-16.8,0.393749809,0.179174169,0.313364055,-0.845332194
733,1837450,1497590,-1.338,0.223,0.699,-90.8,81.4,-21.1,8.3,-14.9,-16.8,0.393169958,0.179754021,0.315836055,-0.844569231
734,1839754,1497600,-1.354,0.231,0.688,-94.9,81.5,-23.2,8.3,-14.9,-16.8,0.392559587,0.180272835,0.318369091,-0.843806269
735,1841818,1497600,-1.382,0.24,0.688,-98.4,81.1,-25.1,8.5,-14.9,-15.3,0.391918699,0.180761132,0.320963164,-0.843012787
736,1845009,1497600,-1.389,0.244,0.692,-101.4,80.5,-26.9,8.5,-14.9,-15.3,0.391247291,0.181188391,0.323618274,-0.842188787
737,1846839,1497600,-1.393,0.248,0.7,-103.4,79.6,-28.7,8.5,-14.9,-15.3,0.390575884,0.181554613,0.326334422,-0.841395306
738,1849100,1497610,-1.397,0.244,0.7,-104.2,78.5,-30.6,8.5,-14.9,-15.3,0.38984344,0.181859798,0.329020051,-0.840601825
739,1853285,1497610,-1.385,0.236,0.72,-103.8,77.2,-32.6,8.9,-14.6,-15,0.389110996,0.182195502,0.331705679,-0.839838862
740,1855550,1497610,-1.377,0.232,0.727,-102.3,75.6,-34.6,8.9,-14.6,-15,0.388317515,0.182470168,0.33436079,-0.8390759
741,1857684,1497610,-1.366,0.228,0.727,-100.4,73.8,-36.4,8.9,-14.6,-15,0.387524033,0.182683798,0.336985382,-0.838343455
742,1859798,1497620,-1.358,0.22,0.731,-98.6,71.9,-37.8,8.9,-14.6,-15,0.386700034,0.182897427,0.339548936,-0.837672048
743,1861718,1497620,-1.35,0.208,0.75,-96.8,70.1,-39.2,9.8,-13.9,-14.4,0.385845515,0.183080538,0.342051454,-0.837000641
744,1864042,1497620,-1.346,0.2,0.754,-95.1,68.8,-40.2,9.8,-13.9,-14.4,0.384960479,0.183233131,0.344523453,-0.836329234
745,1868160,1497620,-1.346,0.184,0.762,-93.4,67.9,-41.1,9.8,-13.9,-14.4,0.384075442,0.183385723,0.346964934,-0.835718863
746,1870415,1497630,-1.339,0.168,0.762,-92,66.9,-41.7,9.8,-13.9,-14.4,0.383190405,0.183507797,0.349375896,-0.835077975
747,1872370,1497630,-1.319,0.14,0.777,-91,66,-42.3,10,-13.7,-19.8,0.38227485,0.183629872,0.35175634,-0.834498123
748,1874283,1497630,-1.307,0.124,0.773,-90.3,65.1,-42.7,10,-13.7,-19.8,0.381328776,0.183721427,0.354136784,-0.833887753
749,1876552,1497630,-1.304,0.108,0.773,-89.8,64,-42.9,10,-13.7,-19.8,0.380443739,0.183812983,0.356456191,-0.833277383
750,1880018,1497640,-1.288,0.088,0.772,-89.5,62.7,-42.9,10,-13.7,-19.8,0.379528184,0.18387402,0.358775597,-0.832697531
751,1882261,1497640,-1.281,0.069,0.768,-89.4,61.3,-42.7,10.3,-13.4,-17.1,0.378612629,0.183904538,0.361095004,-0.832087161
752,1884402,1497640,-1.273,0.057,0.784,-89.3,59.9,-42.5,10.3,-13.4,-17.1,0.377727592,0.183935057,0.363383892,-0.831507309
753,1886696,1497640,-1.261,0.029,0.787,-88.8,58.7,-42.1,10.3,-13.4,-17.1,0.376873074,0.183935057,0.365642262,-0.830896939
754,1889144,1497650,-1.253,0.017,0.803,-87.5,57.6,-41.3,10.3,-13.4,-17.1,0.375988037,0.183935057,0.367870113,-0.830317087
755,1891823,1497650,-1.25,0.001,0.799,-85.1,56.5,-40.1,10.7,-12.9,-17.8,0.375164037,0.183935057,0.370036927,-0.829737236
756,1894781,1497650,-1.238,-0.014,0.81,-81.9,55.4,-38.7,10.7,-12.9,-17.8,0.374340037,0.183935057,0.372112186,-0.829157384
757,1896676,1497650,-1.234,-0.038,0.841,-78,54.1,-37.1,10.7,-12.9,-17.8,0.373516037,0.183996094,0.374126408,-0.828608051
758,1899055,1497660,-1.226,-0.05,0.841,-73.5,52.6,-35.3,10.7,-12.9,-17.8,0.372753075,0.184057131,0.376018555,-0.828089236
759,1901747,1497660,-1.218,-0.05,0.845,-68.7,51,-33.4,11.3,-12.7,-18.7,0.372020631,0.184148686,0.377819147,-0.82760094
760,1904815,1497660,-1.218,-0.054,0.845,-63.9,49,-31.6,11.3,-12.7,-18.7,0.371288186,0.184240242,0.379497665,-0.827112644
761,1907069,1497660,-1.199,-0.05,0.848,-59.2,47,-29.8,11.3,-12.7,-18.7,0.370616779,0.184362316,0.381054109,-0.826685385
762,1909217,1497670,-1.199,-0.046,0.841,-54.7,45.1,-28.3,11.3,-12.7,-18.7,0.369945372,0.18448439,0.382518998,-0.826258126
763,1911713,1497670,-1.191,-0.046,0.833,-50.2,43.4,-26.9,11.6,-12.2,-20,0.369304483,0.184636982,0.383892331,-0.825891903
764,1914340,1497670,-1.183,-0.051,0.821,-45.7,41.7,-25.9,11.6,-12.2,-20,0.368663594,0.184789575,0.38514359,-0.8255562
765,1916569,1497670,-1.167,-0.047,0.82,-41.1,40,-25,11.6,-12.2,-20,0.368053224,0.185003204,0.386303293,-0.825251015
766,1920655,1497680,-1.155,-0.047,0.816,-36.7,38.4,-24.6,11.6,-12.2,-20,0.367412336,0.185186316,0.387371441,-0.824976348
767,1922586,1497680,-1.143,-0.044,0.804,-32.5,37,-24.3,12.2,-11.9,-18.5,0.366801965,0.185399945,0.388378552,-0.8247322
768,1924858,1497680,-1.135,-0.048,0.796,-28.9,35.8,-24,12.2,-11.9,-18.5,0.366191595,0.185583056,0.389263588,-0.824549089
769,1926736,1497680,-1.12,-0.052,0.78,-25.7,34.8,-23.9,12.2,-11.9,-18.5,0.365550707,0.185827204,0.390118107,-0.824365978
770,1929161,1497690,-1.104,-0.056,0.768,-23,33.9,-23.8,12.2,-11.9,-18.5,0.364940336,0.186040834,0.390881069,-0.824243904
771,1932631,1497690,-1.096,-0.064,0.752,-20.5,32.9,-23.7,12,-11.3,-18.4,0.364299448,0.186254463,0.391613514,-0.82412183
772,1934833,1497690,-1.084,-0.069,0.744,-18.3,32.1,-23.5,12,-11.3,-18.4,0.363689077,0.186498611,0.392315439,-0.823999756
773,1937106,1497690,-1.053,-0.085,0.731,-16.2,31.3,-23.4,12,-11.3,-18.4,0.363048189,0.186712241,0.39292581,-0.823938719
774,1939233,1497700,-1.037,-0.085,0.735,-14.2,30.5,-23.1,12,-11.3,-18.4,0.362437819,0.186956389,0.39353618,-0.823877682
775,1941888,1497700,-1.002,-0.102,0.726,-12.1,29.8,-22.6,12.4,-11.2,-18.8,0.36179693,0.187200537,0.394085513,-0.823816645
776,1944276,1497700,-0.978,-0.114,0.718,-10.4,29.3,-21.8,12.4,-11.2,-18.8,0.361217078,0.187475204,0.394573809,-0.823786126
777,1948252,1497700,-0.966,-0.122,0.713,-9.2,28.8,-20.9,12.4,-11.2,-18.8,0.360637226,0.187719352,0.395062105,-0.823755608
778,1950514,1497710,-0.954,-0.135,0.721,-8.7,28.4,-20,12.4,-11.2,-18.8,0.360057375,0.187994018,0.395519883,-0.823725089
779,1952249,1497710,-0.943,-0.143,0.709,-8.9,28.2,-18.9,12.5,-10.9,-18.4,0.359508042,0.188268685,0.39597766,-0.823664052
780,1954074,1497710,-0.919,-0.143,0.708,-9.8,28.1,-17.8,12.5,-10.9,-18.4,0.358989227,0.188543352,0.396465957,-0.823603015
781,1957589,1497710,-0.911,-0.136,0.693,-10.9,28.1,-16.3,12.5,-10.9,-18.4,0.358500931,0.188818018,0.396954253,-0.823541978
782,1959099,1497720,-0.907,-0.136,0.7,-12.3,28.2,-14.7,12.5,-10.9,-18.4,0.358043153,0.189123203,0.397442549,-0.823419904
783,1961706,1497720,-0.887,-0.128,0.7,-13.7,28.4,-12.9,12.9,-11.2,-18.8,0.357615894,0.18939787,0.397961364,-0.82329783
784,1965118,1497720,-0.879,-0.128,0.699,-15.2,28.5,-11,12.9,-11.2,-18.8,0.357249672,0.189672536,0.398510697,-0.823114719
785,1967430,1497720,-0.879,-0.132,0.703,-16.5,28.7,-9,12.9,-11.2,-18.8,0.35688345,0.19000824,0.39906003,-0.822931608
786,1969697,1497730,-0.867,-0.133,0.703,-17.5,28.9,-6.8,12.9,-11.2,-18.8,0.356578265,0.190343944,0.399639882,-0.822717978
787,1971743,1497730,-0.856,-0.16,0.699,-18.4,28.8,-4.7,12.2,-11,-18.4,0.356334117,0.190649129,0.400219733,-0.82247383
788,1974203,1497730,-0.856,-0.176,0.707,-19,28.6,-2.5,12.2,-11,-18.4,0.356120487,0.191015351,0.400799585,-0.822199164
789,1977273,1497730,-0.848,-0.2,0.699,-19.6,28.3,-0.6,12.2,-11,-18.4,0.355937376,0.191351054,0.401379437,-0.821924497
790,1979166,1497740,-0.845,-0.216,0.703,-19.9,27.9,1.2,12.2,-11,-18.4,0.355784783,0.191717277,0.40192877,-0.821619312
791,1981551,1497740,-0.845,-0.255,0.699,-19.6,27.5,2.8,14.4,-11.5,-18.4,0.355693228,0.192083499,0.402478103,-0.821283609
792,1984864,1497740,-0.842,-0.275,0.691,-18.7,27.1,4.2,14.4,-11.5,-18.4,0.355601672,0.192449721,0.403027436,-0.820978423
793,1987151,1497740,-0.838,-0.294,0.695,-17.3,26.5,5.4,14.4,-11.5,-18.4,0.355540635,0.192846461,0.403515732,-0.820673238
794,1989288,1497750,-0.834,-0.306,0.695,-15.5,25.7,6.6,14.4,-11.5,-18.4,0.355510117,0.193243202,0.40397351,-0.820398572
795,1991555,1497750,-0.831,-0.338,0.687,-13.3,24.8,7.7,14.3,-10.9,-18.1,0.355479598,0.193670461,0.404370251,-0.820093387
796,1994872,1497750,-0.823,-0.342,0.679,-10.7,23.9,8.7,14.3,-10.9,-18.1,0.355479598,0.19409772,0.404705954,-0.819849239
797,1996732,1497750,-0.823,-0.354,0.675,-7.7,23,9.8,14.3,-10.9,-18.1,0.355479598,0.194524979,0.404980621,-0.81960509
798,1999261,1497760,-0.819,-0.358,0.671,-4.2,22.1,10.9,14.3,-10.9,-18.1,0.355479598,0.194982757,0.40519425,-0.819391461
799,2001579,1497760,-0.811,-0.37,0.667,-0.4,21.2,12,15,-11,-18.8,0.355510117,0.195471053,0.405285806,-0.819177831
800,2004040,1497760,-0.807,-0.37,0.659,3.3,20.4,13.2,15,-11,-18.8,0.355571154,0.195959349,0.405346843,-0.819025239
801,2007463,1497760,-0.808,-0.378,0.651,7,19.4,14.1,15,-11,-18.8,0.355601672,0.196508683,0.405316324,-0.818903165
802,2009222,1497770,-0.8,-0.386,0.647,10.3,18.5,14.8,15,-11,-18.8,0.355662709,0.197058016,0.40519425,-0.818811609
803,2012822,1497770,-0.8,-0.382,0.643,13.4,17.6,15.4,14.2,-11.2,-18.4,0.355723746,0.197607349,0.405041658,-0.818720054
804,2014130,1497770,-0.8,-0.386,0.632,16.5,16.8,15.9,14.2,-11.2,-18.4,0.355784783,0.198156682,0.404766991,-0.818659017
805,2017264,1497770,-0.792,-0.39,0.631,19.4,16,16.2,14.2,-11.2,-18.4,0.355876339,0.198736534,0.404492325,-0.818659017
806,2020137,1497780,-0.788,-0.394,0.635,22.4,15.1,16.5,14.2,-11.2,-18.4,0.355937376,0.199346904,0.404156621,-0.818659017
807,2021639,1497780,-0.784,-0.398,0.631,25.3,14,16.8,12.2,-11,-18.3,0.355998413,0.199926756,0.403729362,-0.818689535
808,2024605,1497780,-0.78,-0.394,0.619,27.8,12.9,17.2,12.2,-11,-18.3,0.35605945,0.200537126,0.403271584,-0.818720054
809,2027577,1497780,-0.776,-0.398,0.615,30,11.8,17.8,12.2,-11,-18.3,0.356151006,0.201147496,0.40275277,-0.818811609
810,2029192,1497790,-0.772,-0.394,0.604,31.6,10.6,18.3,12.2,-11,-18.3,0.356242561,0.201727348,0.402172918,-0.818903165
811,2031681,1497790,-0.768,-0.394,0.6,32.7,9.6,18.9,14.7,-11,-18,0.356364635,0.202337718,0.401593066,-0.81899472
812,2033989,1497790,-0.765,-0.395,0.592,33.7,8.6,19.4,14.7,-11,-18,0.356486709,0.20291757,0.400952177,-0.819086276
813,2037510,1497790,-0.761,-0.391,0.584,34.5,7.6,20.1,14.7,-11,-18,0.356608783,0.203497421,0.400311289,-0.81920835
814,2039179,1497800,-0.757,-0.391,0.591,35.2,6.6,20.6,14.7,-11,-18,0.356761376,0.204077273,0.399639882,-0.819330424
815,2041724,1497800,-0.757,-0.391,0.591,35.2,6.6,20.6,14.7,-11,-18,0.356761376,0.204077273,0.399639882,-0.819330424
816,2044761,1497800,-0.749,-0.399,0.583,36,4.8,21.9,14.4,-11.3,-17.7,0.357524339,0.205999939,0.397900327,-0.819360942
817,2046750,1497800,-0.737,-0.399,0.583,36.1,4.1,22.5,14.4,-11.3,-17.7,0.357737968,0.206549272,0.397167882,-0.819483016
818,2049063,1497810,-0.737,-0.411,0.583,36.2,3.3,23.2,14.4,-11.3,-17.7,0.357951598,0.207098605,0.396465957,-0.81960509
819,2052281,1497810,-0.729,-0.419,0.579,36.1,2.7,23.8,14.8,-11.3,-17.7,0.358195746,0.20761742,0.395733512,-0.819727165
820,2053989,1497810,-0.725,-0.427,0.583,35.9,1.9,24.3,14.8,-11.3,-17.7,0.358439894,0.208166753,0.39497055,-0.81981872
821,2056545,1497810,-0.714,-0.439,0.587,35.5,1.2,24.8,14.8,-11.3,-17.7,0.35871456,0.208655049,0.394238105,-0.819940794
822,2059546,1497820,-0.71,-0.451,0.587,35,0.4,25.1,14.8,-11.3,-17.7,0.359019745,0.209173864,0.393505661,-0.82003235
823,2062522,1497820,-0.702,-0.455,0.594,34.4,-0.2,25.2,14.1,-11.2,-17.7,0.359294412,0.20966216,0.392773217,-0.820123905
824,2064042,1497820,-0.698,-0.459,0.594,33.5,-0.8,25.3,14.1,-11.2,-17.7,0.359599597,0.210119938,0.392040773,-0.820215461
825,2067273,1497820,-0.694,-0.467,0.594,32.4,-1.2,25.6,14.1,-11.2,-17.7,0.359935301,0.210577715,0.391338847,-0.820307016
826,2068984,1497830,-0.686,-0.467,0.59,31.2,-1.5,25.8,14.1,-11.2,-17.7,0.360271004,0.211004975,0.390636921,-0.820368053
827,2071697,1497830,-0.682,-0.463,0.594,30,-1.7,26.1,13.4,-11.7,-17.7,0.360606708,0.211432234,0.389965514,-0.82042909
828,2074661,1497830,-0.678,-0.467,0.594,28.8,-2,26.5,13.4,-11.7,-17.7,0.36097293,0.211859493,0.389324625,-0.820490127
829,2076555,1497830,-0.666,-0.464,0.593,27.5,-2.3,27,13.4,-11.7,-17.7,0.361339152,0.212256233,0.388683737,-0.820520646
830,2080165,1497840,-0.67,-0.463,0.597,25.9,-2.7,27.5,13.4,-11.7,-17.7,0.361735893,0.212652974,0.388073366,-0.820520646
831,2081697,1497840,-0.662,-0.464,0.597,24.1,-3.1,28.2,12,-12.2,-17.3,0.362163152,0.213019196,0.387493515,-0.820520646
832,2084005,1497840,-0.654,-0.46,0.601,22.2,-3.3,28.8,12,-12.2,-17.3,0.362590411,0.213385418,0.386913663,-0.820490127
833,2086575,1497840,-0.65,-0.46,0.601,20.3,-3.5,29.3,12,-12.2,-17.3,0.363048189,0.213721122,0.386394848,-0.820459609
834,2090070,1497850,-0.646,-0.464,0.6,18.3,-3.6,29.6,12,-12.2,-17.3,0.363536485,0.214056825,0.385906552,-0.820398572
835,2092302,1497850,-0.646,-0.464,0.6,18.3,-3.6,29.6,12,-12.2,-17.3,0.363536485,0.214056825,0.385906552,-0.820398572
836,2094526,1497850,-0.643,-0.476,0.6,13.8,-3.7,30.3,12,-12.2,-17.3,0.364635151,0.214911344,0.384990997,-0.820123905
837,2096851,1497850,-0.643,-0.484,0.604,11.3,-3.7,30.5,12,-12.2,-17.3,0.365153966,0.21518601,0.384624775,-0.819971313
838,2099065,1497860,-0.639,-0.488,0.6,9,-3.7,30.5,12,-12.2,-17.3,0.365703299,0.215460677,0.384289071,-0.81981872
839,2101712,1497860,-0.635,-0.488,0.592,6.8,-3.8,30.8,12,-12.2,-17.3,0.366252632,0.215704825,0.383983886,-0.819666128
840,2104314,1497860,-0.635,-0.492,0.585,4.7,-3.8,31.1,12,-12.2,-17.3,0.366801965,0.215948973,0.38370922,-0.819483016
841,2107687,1497860,-0.631,-0.496,0.585,2.5,-3.9,31.2,12,-12.2,-17.3,0.367381817,0.216162603,0.38349559,-0.819269387
842,2109934,1497870,-0.631,-0.496,0.585,0.5,-3.9,31.3,12,-12.2,-17.3,0.367992187,0.216345714,0.383281961,-0.819025239
843,2112118,1497870,-0.631,-0.504,0.581,-1.3,-3.9,31.5,12,-12.2,-17.3,0.368572039,0.216528825,0.383159886,-0.818781091
844,2114375,1497870,-0.623,-0.504,0.577,-3.1,-3.9,31.5,12,-12.2,-17.3,0.369182409,0.216681417,0.383037812,-0.818536943
845,2116584,1497870,-0.623,-0.504,0.58,-4.7,-3.9,31.7,12,-12.2,-17.3,0.369823298,0.216864528,0.382915738,-0.818231758
846,2119062,1497880,-0.627,-0.504,0.581,-5.9,-3.8,31.8,12,-12.2,-17.3,0.370433668,0.216986602,0.382854701,-0.817957091
847,2122503,1497880,-0.615,-0.504,0.576,-6.8,-3.7,32,14.1,-13.8,-17.8,0.371074557,0.217139195,0.382793664,-0.817651906
848,2124684,1497880,-0.611,-0.508,0.588,-7.4,-3.7,32,14.1,-13.8,-17.8,0.371715445,0.217291787,0.382732627,-0.817346721
849,2126888,1497880,-0.616,-0.508,0.58,-8.1,-3.8,32.1,14.1,-13.8,-17.8,0.372356334,0.217413862,0.382702109,-0.817041536
850,2129156,1497890,-0.612,-0.512,0.58,-8.8,-4,31.9,14.1,-13.8,-17.8,0.372997223,0.217535936,0.38267159,-0.816736351
851,2131725,1497890,-0.612,-0.508,0.576,-9.5,-4.1,31.6,14.1,-13.8,-17.8,0.373638112,0.21765801,0.38267159,-0.816400647
852,2135142,1497890,-0.612,-0.504,0.576,-10.2,-4.2,31.3,14.1,-13.8,-17.8,0.374279,0.217749565,0.38267159,-0.816095462
853,2136620,1497890,-0.604,-0.504,0.572,-10.7,-4.2,31,14.1,-13.8,-17.8,0.374919889,0.217841121,0.38267159,-0.815759758
854,2139256,1497900,-0.6,-0.501,0.568,-11.1,-4.2,30.7,14.1,-13.8,-17.8,0.375560778,0.217932676,0.382702109,-0.815454573
855,2141852,1497900,-0.6,-0.501,0.568,-11.1,-4.2,30.7,14.1,-13.8,-17.8,0.375560778,0.217932676,0.382702109,-0.815454573
856,2144024,1497900,-0.596,-0.493,0.564,-11.8,-4.5,29.8,14.1,-13.8,-17.8,0.376476333,0.217719047,0.383281961,-0.814783166
857,2148296,1497900,-0.595,-0.481,0.56,-12.1,-4.8,29.4,14.1,-13.8,-17.8,0.377117222,0.217780084,0.383342998,-0.814477981
858,2150556,1497910,-0.591,-0.469,0.56,-12.4,-4.9,29,14.1,-13.8,-17.8,0.377727592,0.217810602,0.383404035,-0.814142277
859,2152791,1497910,-0.595,-0.465,0.56,-12.7,-5.1,28.6,14.1,-13.8,-17.8,0.378337962,0.217871639,0.383434553,-0.813837092
860,2154840,1497910,-0.587,-0.458,0.564,-12.7,-5.2,28.2,14.1,-13.8,-17.8,0.378948332,0.217902158,0.38349559,-0.81347087
861,2157292,1497910,-0.591,-0.454,0.564,-12.7,-5.4,27.7,14.1,-13.8,-17.8,0.379528184,0.217932676,0.383526109,-0.813196203
862,2160915,1497920,-0.583,-0.45,0.571,-12.6,-5.5,27.1,14.1,-13.8,-17.8,0.380138554,0.217963195,0.383587146,-0.812891018
863,2161773,1497920,-0.579,-0.45,0.571,-12.5,-5.6,26.4,14.1,-13.8,-17.8,0.380718406,0.217963195,0.383648183,-0.812585833
864,2164071,1497920,-0.579,-0.45,0.575,-12.5,-5.7,25.6,14.1,-13.8,-17.8,0.381267739,0.217993713,0.383678701,-0.812311167
865,2167580,1497920,-0.575,-0.446,0.567,-12.5,-5.8,24.7,14.1,-13.8,-17.8,0.381817072,0.217993713,0.383739738,-0.8120365
866,2169837,1497930,-0.575,-0.45,0.563,-12.4,-5.9,23.9,14.1,-13.8,-17.8,0.382335887,0.217963195,0.383800775,-0.811761834
867,2172106,1497930,-0.575,-0.442,0.567,-12.5,-6,23.1,12.1,-12,-18.3,0.382854701,0.217963195,0.383861812,-0.811487167
868,2174281,1497930,-0.575,-0.438,0.571,-12.7,-6.1,22.3,12.1,-12,-18.3,0.383373516,0.217932676,0.383922849,-0.8112125
869,2176596,1497930,-0.571,-0.43,0.575,-13,-6.1,21.3,12.1,-12,-18.3,0.383861812,0.217902158,0.384014405,-0.810968352
870,2179281,1497940,-0.571,-0.419,0.575,-13.2,-6.1,20.2,12.1,-12,-18.3,0.384350108,0.217841121,0.38410596,-0.810693686
871,2182525,1497940,-0.574,-0.415,0.579,-13.3,-5.9,19.3,11.6,-12,-17.9,0.384807886,0.217780084,0.384197516,-0.810449538
872,2184108,1497940,-0.566,-0.411,0.583,-13.4,-5.8,18.5,11.6,-12,-17.9,0.385235145,0.217719047,0.384289071,-0.81020539
873,2186719,1497940,-0.57,-0.395,0.579,-13.4,-5.8,17.8,11.6,-12,-17.9,0.385662404,0.21765801,0.384411145,-0.80999176
874,2190811,1497950,-0.574,-0.387,0.579,-13.6,-5.9,17,11.6,-12,-17.9,0.386089663,0.217566454,0.384502701,-0.809747612
875,2191500,1497950,-0.574,-0.387,0.579,-13.6,-5.9,17,11.6,-12,-17.9,0.386089663,0.217566454,0.384502701,-0.809747612
876,2195319,1497950,-0.57,-0.379,0.579,-14.6,-6.1,15.1,11.7,-12.3,-17.9,0.386913663,0.217291787,0.384563738,-0.809411908
877,2197586,1497950,-0.57,-0.368,0.586,-15.3,-6,14,11.7,-12.3,-17.9,0.387310404,0.217169713,0.38471633,-0.80916776
878,2199798,1497960,-0.57,-0.368,0.586,-15.9,-5.9,13,11.7,-12.3,-17.9,0.387646107,0.217017121,0.384899442,-0.808954131
879,2202061,1497960,-0.57,-0.364,0.59,-16.4,-5.8,12.1,12.2,-12.8,-18,0.387981811,0.216895047,0.385082553,-0.808740501
880,2204301,1497960,-0.57,-0.368,0.586,-16.9,-5.6,11.1,12.2,-12.8,-18,0.388317515,0.216742454,0.385235145,-0.80855739
881,2206546,1497960,-0.566,-0.368,0.598,-17.4,-5.3,10.2,12.2,-12.8,-18,0.3886227,0.216589862,0.385479293,-0.80834376
882,2209130,1497970,-0.57,-0.371,0.598,-18.1,-5.1,9.4,12.2,-12.8,-18,0.388927885,0.216406751,0.385723441,-0.808130131
883,2212575,1497970,-0.57,-0.371,0.602,-18.8,-4.9,8.6,12.2,-12.8,-18,0.389202551,0.216254158,0.385967589,-0.807916501
884,2214055,1497970,-0.574,-0.375,0.602,-19.6,-4.7,7.8,12.2,-12.8,-18,0.389477218,0.216040529,0.386242256,-0.807702872
885,2216574,1497970,-0.578,-0.379,0.602,-20.4,-4.5,6.7,12.2,-12.8,-18,0.389721366,0.215857418,0.386516923,-0.807489242
886,2220062,1497980,-0.582,-0.379,0.606,-21.3,-4.3,5.7,12.2,-12.8,-18,0.389965514,0.215643788,0.386852626,-0.807306131
887,2221728,1497980,-0.582,-0.379,0.606,-22.2,-4.2,4.7,11.5,-13.6,-18.4,0.390179144,0.215430158,0.387157811,-0.807092502
888,2224601,1497980,-0.59,-0.379,0.614,-23,-4,3.9,11.5,-13.6,-18.4,0.390392773,0.21518601,0.387524033,-0.806878872
889,2227558,1497980,-0.594,-0.379,0.614,-23.7,-3.9,3.1,11.5,-13.6,-18.4,0.390606403,0.214941862,0.387890255,-0.806665242
890,2229060,1497990,-0.593,-0.375,0.618,-24.2,-3.7,2.4,11.5,-13.6,-18.4,0.390789514,0.214697714,0.388286996,-0.806451613
891,2231605,1497990,-0.605,-0.378,0.615,-24.7,-3.7,1.6,11.7,-14,-18.7,0.390972625,0.214423048,0.388683737,-0.806237983
892,2235025,1497990,-0.605,-0.375,0.619,-25.1,-3.7,0.9,11.7,-14,-18.7,0.391094699,0.2141789,0.389080477,-0.806054872
893,2236552,1497990,-0.609,-0.378,0.615,-25.6,-3.6,0.3,11.7,-14,-18.7,0.39127781,0.213873714,0.389507736,-0.805841243
894,2239015,1498000,-0.609,-0.378,0.623,-25.9,-3.5,-0.1,11.7,-14,-18.7,0.391430403,0.213599048,0.389934996,-0.805627613
895,2241465,1498000,-0.609,-0.378,0.623,-25.9,-3.5,-0.1,11.7,-14,-18.7,0.391430403,0.213599048,0.389934996,-0.805627613
896,2245340,1498000,-0.621,-0.386,0.619,-26.3,-3.5,-1,11.6,-13.9,-18.7,0.391949217,0.213080233,0.390240181,-0.805383465
897,2247598,1498000,-0.621,-0.394,0.627,-26.3,-3.6,-1.4,11.6,-13.9,-18.7,0.39210181,0.212775048,0.39066744,-0.805169836
898,2249077,1498010,-0.629,-0.394,0.623,-26.4,-3.7,-1.8,11.6,-13.9,-18.7,0.392223884,0.212469863,0.391094699,-0.804986724
899,2251652,1498010,-0.634,-0.405,0.627,-26.4,-3.8,-2.2,11.5,-13.1,-18.9,0.392315439,0.212134159,0.391552477,-0.804803613
900,2254001,1498010,-0.634,-0.405,0.631,-26.4,-3.9,-2.7,11.5,-13.1,-18.9,0.392437513,0.211828974,0.392010254,-0.804620502
901,2257253,1498010,-0.634,-0.409,0.627,-26.4,-4,-3.2,11.5,-13.1,-18.9,0.392529069,0.211523789,0.392437513,-0.804437391
902,2259121,1498020,-0.638,-0.413,0.635,-26.4,-4.1,-3.7,11.5,-13.1,-18.9,0.392620624,0.211157567,0.392895291,-0.80425428
903,2262634,1498020,-0.642,-0.421,0.635,-26.4,-4.3,-4.1,11.5,-13.1,-18.9,0.39271218,0.210852382,0.393353069,-0.804071169
904,2264106,1498020,-0.646,-0.421,0.635,-26.2,-4.4,-4.6,11.5,-13.1,-18.9,0.392803735,0.210516678,0.393780328,-0.803918577
905,2266692,1498020,-0.646,-0.425,0.635,-26,-4.5,-4.9,11.5,-13.1,-18.9,0.392864772,0.210150456,0.394238105,-0.803765984
906,2270138,1498030,-0.65,-0.429,0.64,-25.8,-4.5,-5.1,11.5,-13.1,-18.9,0.39292581,0.209814753,0.394665365,-0.803613392
907,2271616,1498030,-0.658,-0.436,0.636,-25.5,-4.6,-5.2,11.5,-11.8,-20.3,0.392986847,0.209479049,0.395092624,-0.80343028
908,2274101,1498030,-0.654,-0.432,0.64,-25.1,-4.7,-5.3,11.5,-11.8,-20.3,0.393047884,0.209112827,0.395519883,-0.803308206
909,2277600,1498030,-0.666,-0.436,0.636,-24.5,-4.8,-5.3,11.5,-11.8,-20.3,0.393108921,0.208777123,0.395916623,-0.803155614
910,2279096,1498040,-0.662,-0.44,0.636,-24,-4.9,-5.4,11.5,-11.8,-20.3,0.393169958,0.20844142,0.396343883,-0.803003021
911,2281627,1498040,-0.666,-0.436,0.64,-23.5,-5.1,-5.4,11.6,-10.9,-20.5,0.393230995,0.208105716,0.396740623,-0.802880947
912,2284002,1498040,-0.67,-0.444,0.644,-23,-5.3,-5.5,11.6,-10.9,-20.5,0.393292032,0.207770013,0.397106845,-0.802758873
913,2287388,1498040,-0.674,-0.444,0.644,-22.4,-5.6,-5.6,11.6,-10.9,-20.5,0.39332255,0.207434309,0.397473067,-0.802636799
914,2289161,1498050,-0.678,-0.451,0.648,-22,-5.8,-5.6,11.6,-10.9,-20.5,0.393383587,0.207068087,0.39783929,-0.802514725
915,2291543,1498050,-0.678,-0.451,0.648,-22,-5.8,-5.6,11.6,-10.9,-20.5,0.393383587,0.207068087,0.39783929,-0.802514725
916,2294897,1498050,-0.67,-0.463,0.656,-20.5,-6,-5.4,11.9,-10.3,-20.7,0.393597217,0.206518754,0.398297067,-0.802331614
917,2297141,1498050,-0.674,-0.471,0.656,-19.6,-6.2,-5.2,11.9,-10.3,-20.7,0.393658254,0.20618305,0.398602252,-0.802240059
918,2299407,1498060,-0.678,-0.479,0.66,-19.6,-6.2,-5.2,11.9,-10.3,-20.7,0.393719291,0.205847346,0.398907437,-0.802148503
919,2301670,1498060,-0.678,-0.483,0.656,-17.9,-6.4,-4.7,11.7,-10.1,-20.7,0.393780328,0.205542161,0.399182104,-0.802056948
920,2304260,1498060,-0.678,-0.487,0.66,-17.9,-6.4,-4.7,11.7,-10.1,-20.7,0.393810846,0.205236976,0.399487289,-0.801965392
921,2306498,1498060,-0.682,-0.495,0.664,-16.2,-6.7,-4.3,11.7,-10.1,-20.7,0.393871883,0.20496231,0.399731437,-0.801904355
922,2309902,1498070,-0.678,-0.491,0.668,-16.2,-6.7,-4.3,11.7,-10.1,-20.7,0.39393292,0.204657125,0.399975585,-0.801812799
923,2312130,1498070,-0.682,-0.495,0.672,-14.5,-6.9,-3.7,11.7,-10.1,-20.7,0.393993957,0.204382458,0.400189215,-0.801751762
924,2314387,1498070,-0.682,-0.498,0.68,-14.5,-6.9,-3.7,11.7,-10.1,-20.7,0.394054994,0.204107791,0.400402844,-0.801690725
925,2316589,1498070,-0.678,-0.502,0.683,-12.6,-6.9,-3,11.7,-10.1,-20.7,0.394116031,0.203833125,0.400555437,-0.801629688
926,2319272,1498080,-0.678,-0.502,0.676,-12.6,-6.9,-3,11.7,-10.1,-20.7,0.394177068,0.203588977,0.400738548,-0.801568651
927,2322619,1498080,-0.682,-0.502,0.68,-11,-7,-2.1,11.8,-10.9,-18.5,0.394238105,0.203344829,0.400860622,-0.801538133
928,2324088,1498080,-0.678,-0.495,0.683,-11,-7,-2.1,11.8,-10.9,-18.5,0.394329661,0.203100681,0.401013215,-0.801477096
929,2326679,1498080,-0.682,-0.498,0.684,-10.1,-7.2,-1,11.8,-10.9,-18.5,0.394421216,0.202887051,0.401135289,-0.801446577
930,2330157,1498090,-0.682,-0.495,0.687,-10.1,-7.2,-1,11.8,-10.9,-18.5,0.394512772,0.202642903,0.401257363,-0.80138554
931,2331690,1498090,-0.678,-0.495,0.691,-9.6,-7.3,0.1,11.8,-11.2,-17.8,0.394604328,0.202459792,0.401379437,-0.801355022
932,2334079,1498090,-0.678,-0.491,0.687,-9.6,-7.3,0.1,11.8,-11.2,-17.8,0.394726402,0.202246162,0.401470992,-0.801293985
933,2337585,1498090,-0.686,-0.487,0.68,-9.5,-7.4,1.4,11.8,-11.2,-17.8,0.394848476,0.202032533,0.401562548,-0.801232948
934,2339118,1498100,-0.686,-0.483,0.684,-9.5,-7.4,1.4,11.8,-11.2,-17.8,0.39497055,0.201849422,0.401654103,-0.801171911
935,2341570,1498100,-0.686,-0.483,0.684,-9.5,-7.4,1.4,11.8,-11.2,-17.8,0.39497055,0.201849422,0.401654103,-0.801171911
936,2344972,1498100,-0.694,-0.471,0.68,-10.6,-7.2,3.1,11.6,-11.3,-16.9,0.395428327,0.201391644,0.401562548,-0.801110874
937,2346570,1498100,-0.69,-0.467,0.68,-11.1,-7.1,3.6,11.6,-11.3,-16.9,0.395611438,0.201239051,0.401654103,-0.8009888
938,2349209,1498110,-0.69,-0.463,0.684,-11.1,-7.1,3.6,11.6,-11.3,-16.9,0.395794549,0.20105594,0.401776177,-0.800897244
939,2352635,1498110,-0.694,-0.467,0.676,-11.9,-7,4.9,11.9,-11,-16.1,0.39597766,0.200872829,0.401898251,-0.80077517
940,2354133,1498110,-0.69,-0.463,0.68,-11.9,-7,4.9,11.9,-11,-16.1,0.39619129,0.200689718,0.402020325,-0.800683615
941,2357571,1498110,-0.69,-0.467,0.676,-12.3,-6.8,6.1,11.9,-11,-16.1,0.39640492,0.200537126,0.402172918,-0.800531022
942,2359109,1498120,-0.694,-0.467,0.68,-12.3,-6.8,6.1,11.9,-11,-16.1,0.396618549,0.200354015,0.402294992,-0.800408948
943,2361687,1498120,-0.69,-0.467,0.684,-12.7,-6.6,7,11.9,-11,-16.1,0.396862697,0.200170904,0.402417066,-0.800256355
944,2363962,1498120,-0.686,-0.471,0.68,-12.7,-6.6,7,11.9,-11,-16.1,0.397106845,0.200018311,0.402569658,-0.800103763
945,2367404,1498120,-0.69,-0.471,0.68,-12.8,-6.8,7.8,11.9,-11,-16.1,0.397350993,0.199865719,0.402691733,-0.799981689
946,2368986,1498130,-0.682,-0.467,0.676,-12.8,-6.8,7.8,11.9,-11,-16.1,0.39762566,0.199682608,0.402813807,-0.799829096
947,2371985,1498130,-0.682,-0.475,0.668,-12.8,-7.3,8.6,11.4,-11.2,-18.2,0.397869808,0.199530015,0.402935881,-0.799645985
948,2375159,1498130,-0.686,-0.471,0.664,-12.8,-7.3,8.6,11.4,-11.2,-18.2,0.398144475,0.199377422,0.403057955,-0.799493393
949,2377297,1498130,-0.682,-0.475,0.66,-12.6,-7.6,9.3,11.4,-11.2,-18.2,0.39844966,0.199194311,0.403180029,-0.7993408
950,2379619,1498140,-0.69,-0.471,0.66,-12.6,-7.6,9.3,11.4,-11.2,-18.2,0.398724326,0.199041719,0.403302103,-0.799188208
951,2381978,1498140,-0.686,-0.475,0.652,-11.8,-7.4,10,11.1,-11.1,-18.6,0.399029511,0.198889126,0.403393658,-0.799035615
952,2384236,1498140,-0.686,-0.475,0.652,-11.8,-7.4,10,11.1,-11.1,-18.6,0.399304178,0.198767052,0.403485214,-0.798852504
953,2386710,1498140,-0.686,-0.475,0.652,-10.1,-7.4,10.8,11.1,-11.1,-18.6,0.399609363,0.198644978,0.403546251,-0.798699911
954,2389057,1498150,-0.678,-0.483,0.656,-10.1,-7.4,10.8,11.1,-11.1,-18.6,0.399914548,0.198522904,0.403607288,-0.798547319
955,2392629,1498150,-0.678,-0.483,0.656,-10.1,-7.4,10.8,11.1,-11.1,-18.6,0.399914548,0.198522904,0.403607288,-0.798547319
956,2394075,1498150,-0.678,-0.487,0.648,-6.8,-8.1,11.6,11,-11.4,-19.8,0.400769066,0.198522904,0.403180029,-0.798364208
957,2396668,1498150,-0.674,-0.479,0.648,-5.8,-8.2,11.8,11,-11.4,-19.8,0.401074252,0.198431349,0.40314951,-0.798242134
958,2399761,1498160,-0.674,-0.483,0.64,-5.8,-8.2,11.8,11,-11.4,-19.8,0.401379437,0.198339793,0.403118992,-0.79812006
959,2401594,1498160,-0.674,-0.487,0.64,-3.7,-8.3,12.2,11.6,-11.2,-20.3,0.401684622,0.198248238,0.403057955,-0.798028504
960,2405749,1498160,-0.67,-0.483,0.644,-3.7,-8.3,12.2,11.6,-11.2,-20.3,0.401989807,0.198187201,0.402996918,-0.79790643
961,2407490,1498160,-0.67,-0.483,0.636,-1.3,-8.1,12.4,11.6,-11.2,-20.3,0.402264473,0.198156682,0.402905362,-0.797814875
962,2409130,1498170,-0.67,-0.483,0.636,-1.3,-8.1,12.4,11.6,-11.2,-20.3,0.402569658,0.198095645,0.402783288,-0.797753838
963,2412091,1498170,-0.666,-0.471,0.636,1.1,-8.4,12.6,11.6,-11.2,-20.3,0.402874844,0.198065126,0.402661214,-0.797662282
964,2413936,1498170,-0.666,-0.475,0.632,1.1,-8.4,12.6,11.6,-11.2,-20.3,0.40314951,0.198034608,0.402508621,-0.797601245
965,2416583,1498170,-0.662,-0.471,0.628,2.9,-8.6,12.7,11.6,-11.2,-20.3,0.403424177,0.198034608,0.40232551,-0.797570727
966,2419695,1498180,-0.662,-0.475,0.628,2.9,-8.6,12.7,11.6,-11.2,-20.3,0.403729362,0.198034608,0.402142399,-0.79750969
967,2421467,1498180,-0.658,-0.468,0.628,4.6,-8.7,12.7,11.4,-11.6,-19.6,0.404004028,0.198034608,0.40192877,-0.797479171
968,2425033,1498180,-0.654,-0.472,0.624,4.6,-8.7,12.7,11.4,-11.6,-19.6,0.404278695,0.198034608,0.40171514,-0.797448653
969,2426494,1498180,-0.65,-0.468,0.632,5.9,-8.7,12.6,11.4,-11.6,-19.6,0.404553362,0.198034608,0.401470992,-0.797418134
970,2428995,1498190,-0.654,-0.468,0.632,5.9,-8.7,12.6,11.4,-11.6,-19.6,0.404828028,0.198034608,0.401226844,-0.797418134
971,2431993,1498190,-0.654,-0.464,0.62,7,-8.5,12.7,10.9,-11.6,-19.5,0.405072176,0.198065126,0.400982696,-0.797387616
972,2433973,1498190,-0.642,-0.468,0.624,7,-8.5,12.7,10.9,-11.6,-19.5,0.405346843,0.198095645,0.400738548,-0.797387616
973,2436933,1498190,-0.642,-0.464,0.628,7.5,-8.3,12.9,10.9,-11.6,-19.5,0.405621509,0.198126164,0.400463881,-0.797357097
974,2440625,1498200,-0.642,-0.464,0.62,7.5,-8.3,12.9,10.9,-11.6,-19.5,0.405896176,0.198156682,0.400219733,-0.797357097
975,2441549,1498200,-0.642,-0.464,0.62,7.5,-8.3,12.9,10.9,-11.6,-19.5,0.405896176,0.198156682,0.400219733,-0.797357097
976,2444440,1498200,-0.638,-0.464,0.624,7.3,-8.1,12.9,10.9,-11.3,-19.5,0.406476028,0.198278756,0.399517808,-0.797357097
977,2448229,1498200,-0.639,-0.472,0.624,7,-7.9,12.9,10.9,-11.3,-19.5,0.406720176,0.198309275,0.399273659,-0.797326579
978,2450456,1498210,-0.635,-0.468,0.624,7,-7.9,12.9,10.9,-11.3,-19.5,0.407025361,0.198339793,0.399029511,-0.797326579
979,2452818,1498210,-0.634,-0.468,0.628,6.5,-7.5,12.9,10.3,-11.6,-19.7,0.407269509,0.198370312,0.398785363,-0.79729606
980,2455001,1498210,-0.635,-0.472,0.628,6.5,-7.5,12.9,10.3,-11.6,-19.7,0.407544176,0.198431349,0.398541215,-0.797265542
981,2456761,1498210,-0.631,-0.472,0.624,5.9,-7,12.7,10.3,-11.6,-19.7,0.407788324,0.198461867,0.398327586,-0.797235023
982,2459197,1498220,-0.631,-0.472,0.627,5.9,-7,12.7,10.3,-11.6,-19.7,0.40806299,0.198461867,0.398113956,-0.797204505
983,2462366,1498220,-0.635,-0.472,0.616,4.7,-6.6,12.4,10.3,-11.6,-19.7,0.408307138,0.198553423,0.397900327,-0.797173986
984,2464571,1498220,-0.631,-0.472,0.624,4.7,-6.6,12.4,10.3,-11.6,-19.7,0.408551286,0.198583941,0.397717215,-0.797112949
985,2466845,1498220,-0.623,-0.476,0.616,3.7,-6.5,12.3,10.3,-11.6,-19.7,0.408825953,0.19861446,0.397534104,-0.79708243
986,2469970,1498230,-0.631,-0.476,0.616,3.7,-6.5,12.3,10.3,-11.6,-19.7,0.409070101,0.198644978,0.397350993,-0.797021393
987,2471509,1498230,-0.627,-0.476,0.62,2.7,-6,12.2,11.6,-11.5,-19.2,0.409314249,0.198644978,0.397198401,-0.796960356
988,2474033,1498230,-0.627,-0.48,0.616,2.7,-6,12.2,11.6,-11.5,-19.2,0.409588916,0.198675497,0.397045808,-0.796899319
989,2477418,1498230,-0.623,-0.48,0.616,1.6,-5.5,12,11.6,-11.5,-19.2,0.409833064,0.198706015,0.396923734,-0.796838282
990,2479836,1498240,-0.627,-0.476,0.608,1.6,-5.5,12,11.6,-11.5,-19.2,0.410077212,0.198736534,0.39680166,-0.796777245
991,2481874,1498240,-0.627,-0.48,0.608,0.5,-5.3,11.7,11.8,-11.6,-19.3,0.41032136,0.198736534,0.396679586,-0.79668569
992,2484060,1498240,-0.623,-0.476,0.608,0.5,-5.3,11.7,11.8,-11.6,-19.3,0.410565508,0.198767052,0.396588031,-0.796624653
993,2487206,1498240,-0.623,-0.48,0.604,-0.3,-5,11.5,11.8,-11.6,-19.3,0.410809656,0.198767052,0.396496475,-0.796533097
994,2489426,1498250,-0.631,-0.468,0.604,-0.3,-5,11.5,11.8,-11.6,-19.3,0.411053804,0.198767052,0.39640492,-0.796441542
995,2491708,1498250,-0.631,-0.468,0.604,-0.3,-5,11.5,11.8,-11.6,-19.3,0.411053804,0.198767052,0.39640492,-0.796441542
996,2494080,1498250,-0.623,-0.476,0.608,-1.4,-4.5,11.1,11.5,-11.7,-19.4,0.411481063,0.198553423,0.396282846,-0.796349986
997,2497592,1498250,-0.623,-0.472,0.604,-1.6,-4.3,11,11.5,-11.7,-19.4,0.411694693,0.198553423,0.396221809,-0.796258431
998,2499169,1498260,-0.627,-0.468,0.608,-1.6,-4.3,11,11.5,-11.7,-19.4,0.411938841,0.198553423,0.396160772,-0.796166875
999,2501523,1498260,-0.627,-0.476,0.596,-2.2,-3.8,10.6,11.6,-11.5,-19.5,0.412182989,0.198553423,0.396130253,-0.79607532
1000,2505138,1498260,-0.623,-0.48,0.6,-2.2,-3.8,10.6,11.6,-11.5,-19.5,0.412396619,0.198583941,0.396099734,-0.795953246
1001,2507063,1498260,-0.619,-0.48,0.596,-2.7,-3.6,10.1,11.6,-11.5,-19.5,0.41257973,0.198583941,0.396069216,-0.79586169
1002,2509187,1498270,-0.623,-0.48,0.6,-2.7,-3.6,10.1,11.6,-11.5,-19.5,0.412823878,0.198583941,0.396038697,-0.795770135
1003,2512016,1498270,-0.619,-0.484,0.596,-2.9,-3.5,9.7,11.6,-11.5,-19.5,0.413037507,0.198583941,0.396008179,-0.795678579
1004,2514287,1498270,-0.619,-0.484,0.596,-2.9,-3.5,9.7,11.6,-11.5,-19.5,0.413251137,0.198553423,0.39597766,-0.795556505
1005,2516811,1498270,-0.619,-0.484,0.592,-3.1,-3.6,9.2,11.6,-11.5,-19.5,0.413464766,0.198553423,0.39597766,-0.795464949
1006,2518964,1498280,-0.615,-0.484,0.6,-3.1,-3.6,9.2,11.6,-11.5,-19.5,0.413678396,0.198553423,0.395947142,-0.795373394
1007,2521463,1498280,-0.611,-0.496,0.596,-3,-3.4,8.6,12.3,-11.4,-19.2,0.413861507,0.198522904,0.395916623,-0.795281838
1008,2525126,1498280,-0.611,-0.496,0.592,-3,-3.4,8.6,12.3,-11.4,-19.2,0.414075137,0.198522904,0.395916623,-0.795190283
1009,2526956,1498280,-0.607,-0.496,0.603,-2.5,-3.1,8.1,12.3,-11.4,-19.2,0.414227729,0.198461867,0.395886105,-0.795129246
1010,2529115,1498290,-0.615,-0.504,0.604,-2.5,-3.1,8.1,12.3,-11.4,-19.2,0.41441084,0.198461867,0.395886105,-0.79503769
1011,2532060,1498290,-0.607,-0.504,0.603,-1.9,-3,7.7,12,-11.2,-19.3,0.414593951,0.198461867,0.395855586,-0.794976653
1012,2535051,1498290,-0.611,-0.508,0.607,-1.9,-3,7.7,12,-11.2,-19.3,0.414746544,0.198461867,0.395825068,-0.794885098
1013,2536929,1498290,-0.607,-0.508,0.607,-1.3,-2.8,7.2,12,-11.2,-19.3,0.414899136,0.198461867,0.395794549,-0.794824061
1014,2539052,1498300,-0.611,-0.504,0.611,-1.3,-2.8,7.2,12,-11.2,-19.3,0.415082247,0.198461867,0.395764031,-0.794763024
