sample_index,elapsed_us,device_time_ms,acc_x_g,acc_y_g,acc_z_g,gyro_x_dps,gyro_y_dps,gyro_z_dps,mag_x_ut,mag_y_ut,mag_z_ut,quat_w,quat_x,quat_y,quat_z
0,3506,460120,0.954,-0.146,0.237,-2.2,-0.9,0.7,-3.4,27.8,-19,0.121127964,0.591082492,-0.179418317,0.777001251
1,7228,460120,0.958,-0.143,0.237,-2.3,-0.9,0.7,-3.4,27.8,-19,0.121158483,0.591082492,-0.179448836,0.776970733
2,9399,460120,0.957,-0.15,0.229,-2.3,-0.8,0.8,-3.4,27.8,-19,0.121158483,0.591082492,-0.179509873,0.776940214
3,11647,460130,0.957,-0.147,0.229,-2.3,-0.8,0.9,-3.4,27.8,-19,0.121158483,0.59111301,-0.17957091,0.776940214
4,13685,460130,0.958,-0.147,0.233,-2.3,-0.6,0.9,-3.4,27.8,-19,0.121189001,0.59111301,-0.179601428,0.776909696
5,15887,460130,0.958,-0.143,0.237,-2.3,-0.6,0.8,-3.4,27.8,-19,0.121189001,0.59111301,-0.179662465,0.776909696
6,19881,460130,0.954,-0.143,0.237,-2.2,-0.6,0.7,-3.4,27.8,-19,0.121189001,0.59111301,-0.179723502,0.776879177
7,22162,460140,0.957,-0.154,0.233,-2.1,-0.8,0.6,-3.4,27.8,-19,0.121189001,0.59111301,-0.179754021,0.776879177
8,24308,460140,0.957,-0.15,0.233,-2,-0.9,0.6,-3.2,27.2,-19,0.121189001,0.59111301,-0.179815058,0.776848659
9,26567,460140,0.957,-0.15,0.233,-2,-0.9,0.6,-3.2,27.2,-19,0.121250038,0.59111301,-0.179845576,0.776848659
10,28587,460140,0.954,-0.146,0.237,-1.8,-0.8,0.6,-3.2,27.2,-19,0.121250038,0.591143529,-0.179906613,0.77681814
11,30825,460150,0.954,-0.146,0.233,-1.8,-0.8,0.7,-3.2,27.2,-19,0.121250038,0.591143529,-0.179906613,0.776787622
12,33912,460150,0.954,-0.146,0.233,-1.8,-0.8,0.7,-3.2,27.2,-19,0.121250038,0.591143529,-0.179906613,0.776787622
13,36838,460150,0.958,-0.147,0.233,-1.7,-0.7,0.8,-3.6,27.6,-19.4,0.121250038,0.591143529,-0.17996765,0.776787622
14,39996,460150,0.954,-0.147,0.229,-1.5,-0.7,0.9,-3.6,27.6,-19.4,0.121280557,0.591143529,-0.180059206,0.776757103
15,41432,460160,0.954,-0.146,0.233,-1.5,-0.7,0.9,-3.6,27.6,-19.4,0.121280557,0.591174047,-0.180089724,0.776757103
16,43638,460160,0.954,-0.146,0.233,-1.5,-0.7,0.9,-3.6,27.6,-19.4,0.121280557,0.591174047,-0.180089724,0.776757103
17,45998,460160,0.954,-0.146,0.233,-1.5,-0.7,0.9,-3.6,27.6,-19.4,0.121280557,0.591174047,-0.180089724,0.776757103
18,49858,460160,0.961,-0.143,0.233,-1.4,-0.9,0.9,-3.2,27.5,-18.9,0.121158483,0.591235084,-0.180303354,0.776665548
19,51344,460170,0.954,-0.143,0.229,-1.4,-0.9,0.8,-3.2,27.5,-18.9,0.121158483,0.591235084,-0.180333872,0.776665548
20,54314,460170,0.958,-0.139,0.237,-1.4,-0.9,0.6,-3.2,27.5,-18.9,0.121158483,0.591235084,-0.180364391,0.776635029
21,55823,460170,0.954,-0.139,0.229,-1.4,-0.8,0.5,-3.2,27.5,-18.9,0.121158483,0.591265603,-0.18039491,0.776635029
22,58912,460170,0.954,-0.135,0.237,-1.4,-0.8,0.4,-3.3,27,-19.1,0.121158483,0.591265603,-0.180425428,0.776604511
23,62001,460180,0.958,-0.143,0.237,-1.5,-0.8,0.4,-3.3,27,-19.1,0.121158483,0.591265603,-0.180486465,0.776604511
24,64541,460180,0.954,-0.135,0.233,-1.6,-0.8,0.5,-3.3,27,-19.1,0.121189001,0.591265603,-0.180516984,0.776573992
25,66593,460180,0.95,-0.139,0.229,-1.6,-0.8,0.5,-3.3,27,-19.1,0.121189001,0.591296121,-0.180547502,0.776543474
26,68795,460180,0.958,-0.139,0.229,-1.7,-0.9,0.5,-3.5,27.9,-17.8,0.121189001,0.591296121,-0.180578021,0.776543474
27,71041,460190,0.954,-0.139,0.233,-1.7,-0.9,0.4,-3.5,27.9,-17.8,0.121189001,0.591296121,-0.180608539,0.776512955
28,74927,460190,0.957,-0.143,0.229,-1.7,-0.8,0.5,-3.5,27.9,-17.8,0.121189001,0.59132664,-0.180669576,0.776512955
29,76545,460190,0.957,-0.143,0.225,-1.7,-0.7,0.5,-3.5,27.9,-17.8,0.121189001,0.59132664,-0.180700095,0.776482437
30,79732,460190,0.957,-0.143,0.225,-1.7,-0.7,0.5,-3.5,27.9,-17.8,0.121189001,0.59132664,-0.180700095,0.776482437
31,81951,460200,0.961,-0.147,0.229,-1.5,-0.6,0.4,-3.5,27.1,-19.9,0.121250038,0.59132664,-0.180761132,0.776451918
32,84220,460200,0.961,-0.151,0.225,-1.5,-0.5,0.2,-3.5,27.1,-19.9,0.121250038,0.59132664,-0.18079165,0.776451918
33,87114,460200,0.961,-0.147,0.229,-1.4,-0.5,0.2,-3.5,27.1,-19.9,0.121280557,0.59132664,-0.180822169,0.776451918
34,88682,460200,0.961,-0.147,0.229,-1.4,-0.5,0.2,-3.5,27.1,-19.9,0.121280557,0.59132664,-0.180822169,0.776451918
35,91021,460210,0.965,-0.155,0.233,-1.4,-0.4,0.2,-3.4,26.9,-19.8,0.121280557,0.591357158,-0.180852687,0.7764214
36,95731,460210,0.961,-0.151,0.233,-1.5,-0.6,0.1,-3.4,26.9,-19.8,0.121311075,0.591357158,-0.180883206,0.776390881
37,95985,460210,0.961,-0.151,0.233,-1.5,-0.6,0.1,-3.4,26.9,-19.8,0.121341594,0.591357158,-0.180944243,0.776390881
38,99667,460210,0.961,-0.151,0.233,-1.5,-0.6,0.1,-3.4,26.9,-19.8,0.121341594,0.591357158,-0.180944243,0.776390881
39,101109,460220,0.961,-0.151,0.233,-1.5,-0.6,0.1,-3.4,26.9,-19.8,0.121341594,0.591357158,-0.180944243,0.776390881
40,104717,460220,0.969,-0.155,0.236,-2.1,-1.1,0,-3.5,26.8,-19.5,0.121250038,0.591418195,-0.181127354,0.776329844
41,106617,460220,0.973,-0.151,0.236,-2.3,-1.1,0.1,-3.5,26.8,-19.5,0.121280557,0.591418195,-0.181157872,0.776299326
42,108861,460220,0.969,-0.147,0.236,-2.6,-1.1,0.3,-3.5,26.8,-19.5,0.121280557,0.591448714,-0.181218909,0.776268807
43,111071,460230,0.965,-0.147,0.24,-2.8,-1.2,0.4,-3.5,26.8,-19.5,0.121311075,0.591448714,-0.181279946,0.776238289
44,114878,460230,0.965,-0.151,0.237,-2.9,-1.2,0.5,-3.5,27.1,-19.5,0.121341594,0.591448714,-0.181340983,0.77620777
45,117116,460230,0.969,-0.147,0.236,-3,-1.2,0.6,-3.5,27.1,-19.5,0.121372112,0.591479232,-0.18140202,0.776177252
46,119322,460230,0.969,-0.147,0.24,-3.1,-1,0.7,-3.5,27.1,-19.5,0.121372112,0.591479232,-0.181463057,0.776177252
47,121619,460240,0.973,-0.147,0.236,-3.1,-0.9,0.7,-3.5,27.1,-19.5,0.121402631,0.591479232,-0.181524094,0.776146733
48,123578,460240,0.969,-0.147,0.24,-2.9,-0.8,0.6,-3.1,27.4,-19.5,0.121433149,0.591479232,-0.181585131,0.776116214
49,125831,460240,0.969,-0.147,0.236,-2.8,-0.8,0.7,-3.1,27.4,-19.5,0.121463668,0.591479232,-0.181646168,0.776116214
50,130530,460240,0.965,-0.147,0.236,-2.5,-0.8,0.6,-3.1,27.4,-19.5,0.121463668,0.591509751,-0.181707205,0.776085696
51,130888,460250,0.965,-0.147,0.233,-2.3,-0.9,0.6,-3.1,27.4,-19.5,0.121494186,0.591509751,-0.181768242,0.776055177
52,135018,460250,0.965,-0.147,0.233,-2.3,-0.9,0.6,-3.1,27.4,-19.5,0.121494186,0.591509751,-0.181768242,0.776055177
53,137217,460250,0.961,-0.143,0.237,-2,-0.7,0.5,-3.5,27.6,-19.9,0.121524705,0.591509751,-0.181859798,0.776024659
54,139504,460250,0.961,-0.143,0.237,-1.8,-0.6,0.3,-3.5,27.6,-19.9,0.121524705,0.591509751,-0.181859798,0.776024659
55,141425,460260,0.961,-0.143,0.24,-1.5,-0.6,0.3,-3.5,27.6,-19.9,0.121555223,0.591509751,-0.181920835,0.77599414
56,144578,460260,0.961,-0.143,0.24,-1.5,-0.6,0.3,-3.5,27.6,-19.9,0.121555223,0.591509751,-0.181920835,0.77599414
57,145925,460260,0.958,-0.147,0.233,-1.2,-0.7,0.1,-3.2,28,-20,0.121555223,0.591540269,-0.181951353,0.77599414
58,149736,460260,0.958,-0.143,0.233,-1.1,-0.8,0,-3.2,28,-20,0.121585742,0.591570788,-0.181981872,0.775963622
59,151147,460270,0.957,-0.15,0.233,-1,-0.8,-0.1,-3.2,28,-20,0.121585742,0.591570788,-0.182012391,0.775933103
60,154422,460270,0.957,-0.15,0.233,-1,-0.8,-0.1,-3.2,28,-20,0.121585742,0.591570788,-0.182012391,0.775933103
61,157391,460270,0.957,-0.15,0.233,-1,-0.8,-0.1,-3.2,28,-20,0.121585742,0.591570788,-0.182012391,0.775933103
62,158722,460270,0.954,-0.15,0.233,-0.9,-0.6,-0.1,-3.3,28.2,-20,0.121555223,0.591601306,-0.182103946,0.775902585
63,161901,460280,0.954,-0.15,0.233,-0.9,-0.4,-0.2,-3.3,28.2,-20,0.121555223,0.591631825,-0.182103946,0.775872066
64,163990,460280,0.95,-0.154,0.225,-1,-0.1,-0.1,-3.3,28.2,-20,0.121585742,0.591631825,-0.182134465,0.775872066
65,165904,460280,0.954,-0.154,0.229,-1.1,0,0,-3.3,28.2,-20,0.121585742,0.591631825,-0.182134465,0.775872066
66,168981,460280,0.954,-0.15,0.225,-1.2,0,0.1,-3.3,28.1,-18.7,0.12161626,0.591631825,-0.182164983,0.775872066
67,171618,460290,0.954,-0.147,0.229,-1.2,-0.1,0.3,-3.3,28.1,-18.7,0.12161626,0.591601306,-0.182195502,0.775872066
68,175195,460290,0.957,-0.154,0.225,-1.2,-0.1,0.5,-3.3,28.1,-18.7,0.12161626,0.591601306,-0.18222602,0.775841548
69,176694,460290,0.957,-0.151,0.221,-1.2,-0.3,0.6,-3.3,28.1,-18.7,0.12161626,0.591601306,-0.182256539,0.775841548
70,178353,460290,0.957,-0.147,0.229,-1.3,-0.3,0.7,-3.2,27.7,-18.9,0.12161626,0.591601306,-0.182287057,0.775841548
71,182138,460300,0.958,-0.147,0.233,-1.4,-0.3,0.8,-3.2,27.7,-18.9,0.121646779,0.591601306,-0.182317576,0.775841548
72,183737,460300,0.961,-0.147,0.229,-1.4,-0.3,0.9,-3.2,27.7,-18.9,0.121646779,0.591601306,-0.182348094,0.775811029
73,186073,460300,0.961,-0.143,0.225,-1.3,-0.4,0.9,-3.2,27.7,-18.9,0.121646779,0.591601306,-0.182409131,0.775811029
74,189810,460300,0.961,-0.151,0.229,-1.4,-0.5,0.9,-3.6,28,-19.1,0.121646779,0.591601306,-0.18243965,0.775811029
75,191352,460310,0.965,-0.143,0.229,-1.4,-0.6,0.9,-3.6,28,-19.1,0.121646779,0.591601306,-0.182470168,0.775780511
76,194875,460310,0.961,-0.147,0.229,-1.5,-0.6,1.1,-3.6,28,-19.1,0.12161626,0.591631825,-0.182531205,0.775780511
77,196591,460310,0.961,-0.151,0.229,-1.7,-0.5,1.2,-3.6,28,-19.1,0.12161626,0.591631825,-0.182561724,0.775780511
78,199747,460310,0.961,-0.151,0.229,-1.7,-0.5,1.2,-3.6,28,-19.1,0.12161626,0.591631825,-0.182561724,0.775780511
79,202135,460320,0.961,-0.147,0.229,-1.9,-0.2,1.2,-3.2,28.3,-18.8,0.121646779,0.591601306,-0.182622761,0.775749992
80,204099,460320,0.965,-0.143,0.233,-2,-0.2,1.3,-3.2,28.3,-18.8,0.121646779,0.591601306,-0.182714316,0.775749992
81,207250,460320,0.965,-0.147,0.233,-2,-0.2,1.2,-3.2,28.3,-18.8,0.121646779,0.591601306,-0.182775353,0.775749992
82,209752,460320,0.965,-0.147,0.233,-2,-0.2,1.2,-3.2,28.3,-18.8,0.121646779,0.591601306,-0.182775353,0.775749992
83,211629,460330,0.965,-0.147,0.233,-2,-0.2,1.2,-3.2,28.3,-18.8,0.121646779,0.591601306,-0.182775353,0.775749992
84,213756,460330,0.961,-0.147,0.233,-2,-0.2,1.3,-3.3,28.5,-18.7,0.12161626,0.591662343,-0.18283639,0.775658437
85,216176,460330,0.961,-0.147,0.233,-2,-0.3,1.3,-3.3,28.5,-18.7,0.12161626,0.591662343,-0.182927946,0.775658437
86,218407,460330,0.958,-0.143,0.233,-2,-0.4,1.4,-3.3,28.5,-18.7,0.12161626,0.591631825,-0.182988983,0.775658437
87,222408,460340,0.961,-0.143,0.229,-1.8,-0.5,1.4,-3.3,28.5,-18.7,0.12161626,0.591631825,-0.183019501,0.775627918
88,224707,460340,0.965,-0.147,0.229,-1.7,-0.5,1.5,-3.3,27.1,-18.7,0.12161626,0.591631825,-0.183080538,0.775627918
89,226184,460340,0.961,-0.143,0.24,-1.5,-0.4,1.5,-3.3,27.1,-18.7,0.12161626,0.591631825,-0.183111057,0.775627918
90,228577,460340,0.961,-0.139,0.233,-1.5,-0.3,1.5,-3.3,27.1,-18.7,0.121585742,0.591631825,-0.183172094,0.775627918
91,231793,460350,0.965,-0.147,0.229,-1.5,-0.2,1.5,-3.3,27.1,-18.7,0.121585742,0.591631825,-0.183233131,0.7755974
92,235620,460350,0.958,-0.154,0.241,-1.4,-0.1,1.4,-4,28.3,-18.9,0.121585742,0.591631825,-0.183263649,0.7755974
93,235807,460350,0.958,-0.147,0.237,-1.3,0,1.4,-4,28.3,-18.9,0.121585742,0.591601306,-0.183294168,0.7755974
94,238645,460350,0.958,-0.147,0.233,-1.3,0,1.4,-4,28.3,-18.9,0.121555223,0.591601306,-0.183355205,0.7755974
95,241882,460360,0.961,-0.151,0.233,-1.2,0,1.3,-4,28.3,-18.9,0.121555223,0.591601306,-0.183385723,0.7755974
96,244858,460360,0.961,-0.151,0.233,-1.2,0,1.3,-4,28.3,-18.9,0.121555223,0.591601306,-0.183385723,0.7755974
97,246742,460360,0.958,-0.15,0.237,-1.2,0,1.3,-4,28.3,-18.9,0.121555223,0.591570788,-0.18344676,0.7755974
98,248500,460360,0.954,-0.146,0.237,-1.2,-0.1,1.3,-4,28.3,-18.9,0.121524705,0.591570788,-0.183507797,0.7755974
99,251835,460370,0.957,-0.147,0.229,-1.2,-0.1,1.3,-4,28.3,-18.9,0.121524705,0.591570788,-0.183538316,0.7755974
100,253469,460370,0.957,-0.147,0.229,-1.2,-0.1,1.3,-4,28.3,-18.9,0.121524705,0.591570788,-0.183538316,0.7755974
101,256827,460370,0.957,-0.15,0.233,-1.2,0,1.2,-4,28.3,-18.9,0.121524705,0.591570788,-0.183568834,0.7755974
102,259375,460370,0.957,-0.15,0.233,-1.2,-0.1,1.1,-4,28.3,-18.9,0.121524705,0.591540269,-0.18366039,0.775566881
103,261954,460380,0.954,-0.154,0.233,-1.4,-0.1,1.1,-4,28.3,-18.9,0.121524705,0.591540269,-0.183690909,0.775566881
104,264312,460380,0.954,-0.154,0.233,-1.4,-0.1,1.1,-4,28.3,-18.9,0.121524705,0.591540269,-0.183690909,0.775566881
105,266033,460380,0.954,-0.154,0.233,-1.4,-0.1,1.1,-4,28.3,-18.9,0.121524705,0.591540269,-0.183690909,0.775566881
106,268431,460380,0.954,-0.154,0.225,-1.4,-0.1,1,-4,28.3,-18.9,0.121433149,0.591540269,-0.183812983,0.775536363
107,270825,460390,0.954,-0.154,0.229,-1.2,-0.1,0.9,-4,28.3,-18.9,0.121433149,0.591540269,-0.18387402,0.775536363
108,275270,460390,0.957,-0.154,0.229,-1.2,-0.1,0.8,-4,28.3,-18.9,0.121433149,0.591540269,-0.183904538,0.775536363
109,277493,460390,0.954,-0.158,0.229,-1.2,-0.1,0.8,-4,28.3,-18.9,0.121433149,0.591540269,-0.183935057,0.775536363
110,279947,460390,0.954,-0.158,0.233,-1.1,-0.2,0.8,-4.6,28.3,-18.6,0.121433149,0.591540269,-0.183965575,0.775536363
111,282120,460400,0.954,-0.154,0.233,-1.2,-0.1,0.9,-4.6,28.3,-18.6,0.121433149,0.591540269,-0.183996094,0.775536363
112,283536,460400,0.957,-0.158,0.225,-1.2,-0.2,0.9,-4.6,28.3,-18.6,0.121433149,0.591540269,-0.184026612,0.775505844
113,286729,460400,0.957,-0.158,0.229,-1.2,-0.3,1,-4.6,28.3,-18.6,0.121433149,0.591540269,-0.184057131,0.775505844
114,289437,460400,0.969,-0.155,0.233,-1,-0.3,1.1,-4.3,28.5,-18.7,0.121402631,0.591509751,-0.184118168,0.775505844
115,292223,460410,0.969,-0.155,0.233,-1,-0.1,1.2,-4.3,28.5,-18.7,0.121402631,0.591509751,-0.184148686,0.775505844
116,294637,460410,0.965,-0.158,0.233,-0.9,0,1.2,-4.3,28.5,-18.7,0.121402631,0.591509751,-0.184179205,0.775505844
117,296618,460410,0.965,-0.155,0.233,-0.9,0,1.2,-4.3,28.5,-18.7,0.121402631,0.591509751,-0.184209723,0.775505844
118,298684,460410,0.965,-0.155,0.233,-0.9,0,1.2,-4.3,28.5,-18.7,0.121402631,0.591509751,-0.184209723,0.775505844
119,300808,460420,0.957,-0.15,0.229,-0.9,0.1,1.2,-4.3,28.7,-18.1,0.121372112,0.591509751,-0.184240242,0.775505844
120,303716,460420,0.961,-0.147,0.237,-1,-0.1,1.2,-4.3,28.7,-18.1,0.121372112,0.591479232,-0.184301279,0.775505844
121,306207,460420,0.961,-0.147,0.237,-1.2,-0.1,1.3,-4.3,28.7,-18.1,0.121372112,0.591479232,-0.184331797,0.775505844
122,308457,460420,0.961,-0.147,0.237,-1.2,-0.1,1.3,-4.3,28.7,-18.1,0.121372112,0.591479232,-0.184331797,0.775505844
123,312648,460430,0.958,-0.147,0.237,-1.2,0,1.4,-4.3,28,-18,0.121341594,0.591479232,-0.184392834,0.775505844
124,315187,460430,0.958,-0.15,0.237,-1.2,0,1.4,-4.3,28,-18,0.121341594,0.591448714,-0.184423353,0.775505844
125,316863,460430,0.958,-0.15,0.241,-1.2,0.1,1.3,-4.3,28,-18,0.121341594,0.591448714,-0.18448439,0.775505844
126,318452,460430,0.958,-0.15,0.241,-1.2,0.1,1.3,-4.3,28,-18,0.121341594,0.591448714,-0.18448439,0.775505844
127,322328,460440,0.958,-0.15,0.241,-1.2,0.1,1.3,-4.3,28,-18,0.121341594,0.591448714,-0.18448439,0.775505844
128,324720,460440,0.954,-0.146,0.233,-1.5,-0.1,0.9,-2.8,27.4,-18.6,0.121311075,0.591418195,-0.184575945,0.775505844
129,326609,460440,0.958,-0.147,0.241,-1.6,-0.1,1,-2.8,27.4,-18.6,0.121311075,0.591418195,-0.184606464,0.775505844
130,329887,460440,0.954,-0.146,0.241,-1.7,-0.1,1.1,-2.8,27.4,-18.6,0.121311075,0.591387677,-0.184667501,0.775475326
131,332046,460450,0.954,-0.146,0.233,-1.7,-0.1,1.1,-2.8,27.4,-18.6,0.121311075,0.591387677,-0.184698019,0.775475326
132,334087,460450,0.954,-0.146,0.233,-1.7,0.1,1.1,-3.5,27.8,-18.9,0.121311075,0.591387677,-0.184728538,0.775475326
133,336999,460450,0.954,-0.143,0.233,-1.7,0.4,1.1,-3.5,27.8,-18.9,0.121311075,0.591357158,-0.184789575,0.775475326
134,339541,460450,0.954,-0.147,0.229,-1.5,0.7,1.1,-3.5,27.8,-18.9,0.121311075,0.59132664,-0.184789575,0.775475326
135,342346,460460,0.954,-0.15,0.229,-1.2,0.8,1.1,-3.5,27.8,-18.9,0.121311075,0.59132664,-0.184850612,0.775505844
136,344459,460460,0.957,-0.15,0.229,-1,0.7,1.1,-3.5,27.9,-18.6,0.121311075,0.591296121,-0.18488113,0.775505844
137,346846,460460,0.957,-0.147,0.225,-0.9,0.7,0.9,-3.5,27.9,-18.6,0.121311075,0.591265603,-0.184911649,0.775505844
138,348740,460460,0.954,-0.15,0.229,-0.8,0.5,0.7,-3.5,27.9,-18.6,0.121311075,0.591265603,-0.184942167,0.775536363
139,351037,460470,0.954,-0.147,0.221,-0.7,0.4,0.6,-3.5,27.9,-18.6,0.121311075,0.591265603,-0.184942167,0.775536363
140,353455,460470,0.954,-0.147,0.221,-0.7,0.4,0.6,-3.5,27.9,-18.6,0.121311075,0.591265603,-0.184942167,0.775536363
141,356639,460470,0.957,-0.147,0.229,-0.4,0.2,0.7,-2.9,27.8,-18.4,0.121311075,0.591235084,-0.184972686,0.775536363
142,358609,460470,0.961,-0.147,0.229,-0.4,0.1,0.8,-2.9,27.8,-18.4,0.121311075,0.591235084,-0.185003204,0.775536363
143,360810,460480,0.954,-0.143,0.233,-0.4,0,0.8,-2.9,27.8,-18.4,0.121311075,0.591235084,-0.185033723,0.775536363
144,364721,460480,0.954,-0.143,0.233,-0.4,0,0.8,-2.9,27.8,-18.4,0.121311075,0.591235084,-0.185033723,0.775536363
145,366920,460480,0.958,-0.147,0.233,-0.6,-0.2,0.6,-2.9,27.8,-18.4,0.121280557,0.591235084,-0.185033723,0.775536363
146,369696,460480,0.958,-0.143,0.233,-0.6,-0.2,0.6,-2.9,27.8,-18.4,0.121280557,0.591235084,-0.185064241,0.775536363
147,371128,460490,0.958,-0.143,0.233,-0.7,-0.4,0.7,-2.9,27.8,-18.4,0.121280557,0.591235084,-0.18509476,0.775505844
148,373449,460490,0.961,-0.143,0.233,-1,-0.4,0.8,-2.9,27.8,-18.4,0.121280557,0.591235084,-0.185125278,0.775505844
149,376601,460490,0.961,-0.143,0.233,-1,-0.4,0.8,-2.9,27.8,-18.4,0.121280557,0.591235084,-0.185125278,0.775505844
150,378649,460490,0.958,-0.143,0.233,-1.5,-0.3,0.9,-2.5,27.8,-18.1,0.121280557,0.591265603,-0.185155797,0.775475326
151,380946,460500,0.961,-0.143,0.233,-1.6,-0.3,0.9,-2.5,27.8,-18.1,0.121311075,0.591265603,-0.185186316,0.775475326
152,384047,460500,0.957,-0.143,0.229,-1.8,-0.1,0.9,-2.5,27.8,-18.1,0.121311075,0.591265603,-0.185247353,0.775444807
153,387005,460500,0.957,-0.143,0.229,-1.8,-0.1,0.9,-2.5,27.8,-18.1,0.121311075,0.591265603,-0.185277871,0.775444807
154,389893,460500,0.957,-0.147,0.225,-2.1,0,1,-2.7,27.9,-18.5,0.121311075,0.591235084,-0.185338908,0.775444807
155,391518,460510,0.957,-0.147,0.225,-2.2,0.2,1.1,-2.7,27.9,-18.5,0.121341594,0.591235084,-0.185369427,0.775444807
156,393602,460510,0.957,-0.147,0.229,-2.3,0.4,1,-2.7,27.9,-18.5,0.121341594,0.591204566,-0.185430464,0.775444807
157,395844,460510,0.957,-0.147,0.225,-2.3,0.5,0.9,-2.7,27.9,-18.5,0.121372112,0.591204566,-0.185491501,0.775444807
158,398972,460510,0.957,-0.147,0.225,-2.3,0.5,0.9,-2.7,27.9,-18.5,0.121372112,0.591204566,-0.185491501,0.775444807
159,401845,460520,0.957,-0.15,0.229,-2.4,0.4,0.8,-2.7,28,-18.7,0.121402631,0.591174047,-0.185583056,0.775444807
160,404894,460520,0.958,-0.147,0.233,-2.5,0.4,0.8,-2.7,28,-18.7,0.121433149,0.591143529,-0.185644093,0.775444807
161,406324,460520,0.957,-0.15,0.229,-2.5,0.3,0.7,-2.7,28,-18.7,0.121433149,0.591143529,-0.18570513,0.775414289
162,409569,460520,0.957,-0.15,0.229,-2.5,0.3,0.7,-2.7,28,-18.7,0.121433149,0.591143529,-0.18570513,0.775414289
163,410930,460530,0.961,-0.151,0.229,-2.6,0.1,0.6,-2.7,28.2,-18.5,0.121463668,0.59111301,-0.185735649,0.775414289
164,414445,460530,0.957,-0.15,0.229,-2.8,0,0.6,-2.7,28.2,-18.5,0.121524705,0.591082492,-0.185857723,0.775414289
165,417265,460530,0.957,-0.147,0.229,-2.8,0.1,0.6,-2.7,28.2,-18.5,0.121555223,0.591082492,-0.18591876,0.77538377
166,418729,460530,0.957,-0.147,0.229,-2.8,0.1,0.6,-2.7,28.2,-18.5,0.121555223,0.591082492,-0.18591876,0.77538377
167,421798,460540,0.957,-0.15,0.233,-3.1,0.1,0.9,-4,27.8,-18.5,0.121555223,0.591082492,-0.185979797,0.77538377
168,424712,460540,0.957,-0.15,0.233,-3.1,0.1,0.9,-4,27.8,-18.5,0.121585742,0.591051973,-0.186040834,0.77538377
169,426234,460540,0.954,-0.146,0.233,-3.3,0,1,-4,27.8,-18.5,0.12161626,0.591051973,-0.186101871,0.775353252
170,429479,460540,0.95,-0.143,0.233,-3.5,-0.1,1,-4,27.8,-18.5,0.121646779,0.591021455,-0.186193426,0.775353252
171,431802,460550,0.95,-0.143,0.233,-3.5,-0.1,1,-4,27.8,-18.5,0.121646779,0.591021455,-0.186193426,0.775353252
172,434878,460550,0.954,-0.147,0.229,-3.9,-0.5,1,-2.6,27.9,-18.4,0.121646779,0.591021455,-0.1863155,0.775322733
173,437050,460550,0.957,-0.147,0.225,-4,-0.4,1.1,-2.6,27.9,-18.4,0.121677297,0.591021455,-0.186376537,0.775292215
174,439391,460550,0.957,-0.139,0.225,-4.1,-0.3,1.1,-2.6,27.9,-18.4,0.121677297,0.591021455,-0.186468093,0.775292215
175,440967,460560,0.957,-0.147,0.221,-4.1,-0.3,1.1,-2.6,27.9,-18.4,0.121738334,0.591021455,-0.186559648,0.775261696
176,445190,460560,0.965,-0.143,0.221,-4.1,-0.2,0.9,-2.2,27.7,-18.7,0.121768853,0.590990936,-0.186651204,0.775261696
177,447525,460560,0.965,-0.147,0.221,-4,-0.2,0.7,-2.2,27.7,-18.7,0.12182989,0.590990936,-0.186712241,0.775231178
178,449491,460560,0.965,-0.155,0.213,-3.9,-0.2,0.6,-2.2,27.7,-18.7,0.121860408,0.590960417,-0.186803797,0.775200659
179,451847,460570,0.973,-0.151,0.217,-3.9,-0.1,0.4,-2.2,27.7,-18.7,0.121890927,0.590960417,-0.186864834,0.775200659
180,454122,460570,0.973,-0.151,0.217,-3.9,-0.1,0.4,-2.2,27.7,-18.7,0.121890927,0.590960417,-0.186864834,0.775200659
181,456095,460570,0.969,-0.155,0.217,-3.7,0,0.2,-2.1,27.7,-19,0.121951964,0.590960417,-0.186925871,0.775170141
182,458464,460570,0.973,-0.155,0.221,-3.6,0.1,-0.2,-2.1,27.7,-19,0.122043519,0.590929899,-0.187047945,0.775139622
183,460954,460580,0.973,-0.159,0.221,-3.4,0.2,-0.5,-2.1,27.7,-19,0.122104556,0.590929899,-0.187108982,0.775139622
184,465512,460580,0.973,-0.159,0.221,-3.4,0.2,-0.5,-2.1,27.7,-19,0.122104556,0.590929899,-0.187108982,0.775139622
185,467501,460580,0.981,-0.163,0.221,-3.4,0.3,-0.6,-2.1,27.7,-19,0.122165593,0.59089938,-0.187170019,0.775139622
186,469731,460580,0.977,-0.163,0.221,-3.3,0.3,-0.6,-2.1,27.7,-19,0.122165593,0.59089938,-0.187200537,0.775109104
187,471943,460590,0.977,-0.163,0.217,-3.6,0.5,-0.4,-2.1,27.7,-19,0.122318186,0.590868862,-0.187322611,0.775109104
188,473618,460590,0.977,-0.163,0.217,-3.6,0.5,-0.4,-2.1,27.7,-19,0.122318186,0.590868862,-0.187322611,0.775109104
189,476009,460590,0.985,-0.167,0.217,-4.2,0.8,-0.1,-3.2,28,-18.9,0.122379223,0.590807825,-0.187383648,0.775109104
190,480669,460590,0.981,-0.159,0.217,-4.2,0.8,-0.1,-3.2,28,-18.9,0.12244026,0.590807825,-0.187444685,0.775078585
191,480899,460600,0.989,-0.159,0.224,-4.4,0.9,0,-3.2,28,-18.9,0.122501297,0.590777306,-0.187505722,0.775078585
192,485130,460600,0.985,-0.151,0.22,-4.6,0.8,0,-3.2,28,-18.9,0.122562334,0.590746788,-0.187597278,0.775078585
193,487310,460600,0.985,-0.151,0.22,-4.6,0.8,0,-3.2,28,-18.9,0.122562334,0.590746788,-0.187597278,0.775078585
194,489578,460600,0.993,-0.155,0.216,-5.3,0.6,0.6,-3,28.1,-18.5,0.122592853,0.590868862,-0.187719352,0.774956511
195,491950,460610,0.989,-0.147,0.216,-5.4,0.5,0.9,-3,28.1,-18.5,0.12265389,0.590807825,-0.187871944,0.774925993
196,494175,460610,0.989,-0.143,0.216,-5.6,0.5,1,-3,28.1,-18.5,0.122714927,0.590807825,-0.1879635,0.774925993
197,496131,460610,0.985,-0.139,0.217,-5.7,0.3,1.1,-3,28.1,-18.5,0.122775964,0.590777306,-0.188085574,0.774895474
198,498549,460610,0.985,-0.139,0.217,-5.7,0.3,1.1,-3,28.1,-18.5,0.122775964,0.590777306,-0.188085574,0.774895474
199,501064,460620,0.981,-0.135,0.213,-5.9,0.3,1.2,-3.1,27.8,-18.5,0.122806482,0.590746788,-0.188207648,0.774895474
200,504955,460620,0.985,-0.131,0.213,-6.1,0.2,1.3,-3.1,27.8,-18.5,0.122928556,0.590716269,-0.188451796,0.774864956
201,507143,460620,0.985,-0.132,0.205,-6.2,0.3,1.4,-3.1,27.8,-18.5,0.122989593,0.590685751,-0.18857387,0.774834437
202,509276,460620,0.985,-0.132,0.205,-6.2,0.3,1.4,-3.1,27.8,-18.5,0.122989593,0.590685751,-0.18857387,0.774834437
203,512416,460630,0.985,-0.132,0.205,-6.2,0.2,1.3,-2.9,27.7,-18.1,0.12305063,0.590655232,-0.188695944,0.774803919
204,514374,460630,0.985,-0.128,0.201,-6.3,0.2,1.4,-2.9,27.7,-18.1,0.123111667,0.590624714,-0.188818018,0.774803919
205,515923,460630,0.981,-0.128,0.197,-6.2,0.1,1.3,-2.9,27.7,-18.1,0.123233741,0.590563677,-0.189062166,0.774742882
206,519289,460630,0.981,-0.128,0.197,-6.2,0.1,1.3,-2.9,27.7,-18.1,0.123233741,0.590563677,-0.189062166,0.774742882
207,521190,460640,0.992,-0.128,0.193,-6.2,0.3,1,-3.3,27.9,-18.9,0.123294778,0.590533158,-0.18918424,0.774742882
208,525277,460640,0.981,-0.128,0.193,-6.2,0.3,1,-3.3,27.9,-18.9,0.123355815,0.590533158,-0.189306314,0.774712363
209,527273,460640,0.989,-0.132,0.193,-6.1,0.4,0.8,-3.3,27.9,-18.9,0.123416852,0.59050264,-0.18939787,0.774712363
210,529661,460640,0.981,-0.132,0.189,-6.1,0.5,0.5,-3.3,27.9,-18.9,0.123477889,0.590472121,-0.189519944,0.774681845
211,531186,460650,0.992,-0.136,0.193,-5.9,0.8,0,-3.4,28.2,-17.8,0.123569445,0.590441603,-0.189611499,0.774681845
212,533661,460650,0.985,-0.139,0.185,-5.9,1,-0.1,-3.4,28.2,-17.8,0.123630482,0.590411084,-0.189672536,0.774651326
213,537277,460650,0.989,-0.139,0.189,-5.9,1,-0.1,-3.4,28.2,-17.8,0.123722037,0.590380566,-0.18979461,0.774651326
214,539566,460650,0.989,-0.14,0.185,-6.1,0.9,-0.4,-3.4,28.2,-17.8,0.123813593,0.590350047,-0.189916684,0.774620808
215,541013,460660,0.989,-0.14,0.185,-6.1,0.9,-0.4,-3.4,28.2,-17.8,0.123813593,0.590350047,-0.189916684,0.774620808
216,545033,460660,0.989,-0.14,0.185,-6.1,0.9,-0.4,-3.4,28.2,-17.8,0.123813593,0.590350047,-0.189916684,0.774620808
217,547107,460660,0.992,-0.147,0.193,-7.3,0.1,-1.5,-3.2,28.4,-17,0.124118778,0.590807825,-0.190099796,0.77416303
218,549414,460660,1,-0.155,0.189,-7.9,0.1,-1.6,-3.2,28.4,-17,0.124240852,0.590807825,-0.19022187,0.774132511
219,551586,460670,1.004,-0.155,0.189,-8.4,0.1,-1.7,-3.2,28.4,-17,0.124393445,0.590777306,-0.190343944,0.774101993
220,554250,460670,1.004,-0.155,0.189,-8.4,0.1,-1.7,-3.2,28.4,-17,0.124393445,0.590777306,-0.190343944,0.774101993
221,555998,460670,1.008,-0.151,0.2,-8.9,0.2,-1.8,-3.3,28.4,-16.8,0.124546037,0.590777306,-0.190466018,0.774040956
222,560042,460670,1.012,-0.155,0.196,-9.4,0.4,-2,-3.3,28.4,-16.8,0.12469863,0.590746788,-0.190588092,0.774010437
223,562225,460680,1.02,-0.163,0.2,-10.6,1.1,-2.1,-3.3,28.4,-16.8,0.125034333,0.590685751,-0.190893277,0.7739494
224,564461,460680,1.02,-0.163,0.2,-10.6,1.1,-2.1,-3.3,28.4,-16.8,0.125034333,0.590685751,-0.190893277,0.7739494
225,566547,460680,1.024,-0.163,0.196,-11.1,1.6,-1.9,-3.3,28.4,-16.8,0.125217444,0.590624714,-0.191045869,0.773918882
226,570036,460680,1.028,-0.16,0.204,-11.8,2.1,-1.7,-3.3,28.4,-16.8,0.125431074,0.590563677,-0.19122898,0.773888363
227,571758,460690,1.028,-0.156,0.208,-12.3,2.6,-1.5,-3.3,28.4,-16.8,0.125614185,0.59050264,-0.191412091,0.773857845
228,574905,460690,1.032,-0.156,0.208,-12.8,3,-1.2,-3.3,28.4,-16.8,0.125797296,0.590411084,-0.191595202,0.773827326
229,577339,460690,1.032,-0.148,0.212,-13.6,3.7,-0.6,-3.3,28.4,-17.6,0.126010926,0.590319529,-0.191808832,0.773827326
230,579453,460690,1.028,-0.144,0.216,-14.1,3.8,-0.3,-3.3,28.4,-17.6,0.126194037,0.590197455,-0.192022462,0.773827326
231,582188,460700,1.028,-0.136,0.22,-14.1,3.8,-0.3,-3.3,28.4,-17.6,0.126407666,0.590105899,-0.19226661,0.773796808
232,583784,460700,1.024,-0.132,0.22,-14.7,3.9,0,-3.3,28.4,-17.6,0.126621296,0.590014344,-0.192480239,0.773796808
233,586183,460700,1.024,-0.132,0.22,-14.7,3.9,0,-3.3,28.4,-17.6,0.126621296,0.590014344,-0.192480239,0.773796808
234,588506,460700,1.02,-0.105,0.228,-16.2,4,0.9,-3,28.2,-17,0.127048555,0.589770196,-0.193029572,0.773766289
235,590825,460710,1.02,-0.105,0.228,-16.8,3.9,1.4,-3,28.2,-17,0.127262185,0.589648122,-0.193334758,0.773766289
236,593748,460710,1.008,-0.089,0.232,-16.8,3.9,1.4,-3,28.2,-17,0.127475814,0.589526048,-0.193578906,0.773735771
237,596180,460710,1.008,-0.089,0.232,-16.8,3.9,1.4,-3,28.2,-17,0.127475814,0.589526048,-0.193578906,0.773735771
238,599825,460710,1.008,-0.089,0.232,-16.8,3.9,1.4,-3,28.2,-17,0.127475814,0.589526048,-0.193578906,0.773735771
239,602139,460720,1.008,-0.085,0.228,-18.1,4,2.9,-3.4,28.8,-17.5,0.127842036,0.589587085,-0.193762017,0.773613697
240,604699,460720,1.005,-0.077,0.22,-18.4,4,3.3,-3.4,28.8,-17.5,0.128025147,0.589434492,-0.19409772,0.773583178
241,606578,460720,1.001,-0.073,0.216,-18.7,4.2,3.6,-3.4,28.8,-17.5,0.128238777,0.589312418,-0.194463942,0.773583178
242,608956,460720,0.993,-0.061,0.212,-19,4.5,3.9,-3.4,28.8,-17.5,0.128421888,0.589159825,-0.194830164,0.77355266
243,611037,460730,0.989,-0.065,0.205,-19.1,5,4.1,-3.2,28.7,-17.8,0.128635517,0.589007233,-0.195165868,0.77355266
244,615367,460730,0.989,-0.054,0.193,-19.1,5,4.1,-3.2,28.7,-17.8,0.128818628,0.58885464,-0.19553209,0.77355266
245,617533,460730,0.981,-0.049,0.197,-19,5.2,4.2,-3.2,28.7,-17.8,0.12900174,0.588702048,-0.195898312,0.77355266
246,619673,460730,0.985,-0.057,0.193,-18.9,5.2,4.1,-3.2,28.7,-17.8,0.129215369,0.588518937,-0.196264534,0.77355266
247,622554,460740,0.977,-0.057,0.193,-19,5,3.9,-3.1,28.4,-19,0.12939848,0.588366344,-0.196630757,0.77355266
248,624720,460740,0.977,-0.053,0.189,-19.1,4.9,3.8,-3.1,28.4,-19,0.12961211,0.588213752,-0.19696646,0.773522141
249,627563,460740,0.973,-0.057,0.189,-19.1,4.9,3.8,-3.1,28.4,-19,0.129825739,0.588061159,-0.197332682,0.773522141
250,629215,460740,0.969,-0.061,0.189,-19.1,4.8,3.6,-3.1,28.4,-19,0.13000885,0.587908567,-0.197698904,0.773522141
251,631063,460750,0.965,-0.061,0.193,-19.3,4.8,3.2,-3.4,28.6,-18.9,0.13022248,0.587755974,-0.198034608,0.773491623
252,634637,460750,0.965,-0.065,0.185,-19.7,4.9,2.9,-3.4,28.6,-18.9,0.130466628,0.587603381,-0.19840083,0.773491623
253,636096,460750,0.961,-0.065,0.189,-19.7,4.9,2.9,-3.4,28.6,-18.9,0.130680258,0.587450789,-0.198767052,0.773461104
254,638541,460750,0.958,-0.069,0.19,-20.1,4.9,2.6,-3.4,28.6,-18.9,0.130924406,0.587298196,-0.199133274,0.773461104
255,641349,460760,0.954,-0.073,0.182,-21.5,5.2,2.4,-3.4,28.3,-18.7,0.131168554,0.587145604,-0.199499496,0.773430586
256,644819,460760,0.954,-0.069,0.182,-22.4,5.5,2.2,-3.4,28.3,-18.7,0.13144322,0.586962493,-0.199896237,0.773400067
257,647094,460760,0.95,-0.076,0.186,-22.4,5.5,2.2,-3.4,28.3,-18.7,0.131717887,0.5868099,-0.200292978,0.773400067
258,649279,460760,0.95,-0.076,0.178,-23.5,6,1.9,-3.4,28.3,-18.7,0.132023072,0.586626789,-0.200689718,0.773369549
259,651703,460770,0.95,-0.076,0.178,-23.5,6,1.9,-3.4,28.3,-18.7,0.132023072,0.586626789,-0.200689718,0.773369549
260,655148,460770,0.95,-0.076,0.178,-23.5,6,1.9,-3.4,28.3,-18.7,0.132023072,0.586626789,-0.200689718,0.773369549
261,657155,460770,0.93,-0.092,0.182,-28,6.7,0.6,-3.3,28.7,-18.5,0.132938627,0.586504715,-0.201391644,0.773125401
262,659322,460770,0.934,-0.092,0.194,-29.1,6.6,0.3,-3.3,28.7,-18.5,0.133335368,0.586291086,-0.201910459,0.773094882
263,660826,460780,0.93,-0.092,0.194,-29.1,6.6,0.3,-3.3,28.7,-18.5,0.13370159,0.586107974,-0.202368236,0.773064364
264,663428,460780,0.93,-0.092,0.194,-29.1,6.6,0.3,-3.3,28.7,-18.5,0.13370159,0.586107974,-0.202368236,0.773064364
265,667181,460780,0.926,-0.103,0.202,-32.2,6.5,-0.3,-3.7,28.2,-18.7,0.134586627,0.585680715,-0.203405866,0.772942289
266,668705,460780,0.918,-0.107,0.202,-33.3,6.7,-0.4,-3.7,28.2,-18.7,0.135044404,0.585467086,-0.20392468,0.772881252
267,672417,460790,0.922,-0.111,0.198,-33.3,6.7,-0.4,-3.7,28.2,-18.7,0.135532701,0.585283975,-0.204474013,0.772820215
268,674916,460790,0.922,-0.111,0.198,-33.3,6.7,-0.4,-3.7,28.2,-18.7,0.135532701,0.585283975,-0.204474013,0.772820215
269,677461,460790,0.918,-0.115,0.21,-35.8,7.7,-0.7,-3,28.9,-16.3,0.136509293,0.584826197,-0.205603198,0.772667623
270,679464,460790,0.922,-0.119,0.206,-36.5,8,-0.3,-3,28.9,-16.3,0.137028108,0.584582049,-0.20618305,0.772606586
271,681796,460800,0.922,-0.119,0.21,-36.5,8,-0.3,-3,28.9,-16.3,0.137546922,0.584337901,-0.206762902,0.772545549
272,684042,460800,0.922,-0.119,0.21,-36.5,8,-0.3,-3,28.9,-16.3,0.137546922,0.584337901,-0.206762902,0.772545549
273,685956,460800,0.93,-0.119,0.214,-38.2,8.4,0.1,-3.1,28.6,-18.3,0.138065737,0.584063234,-0.20740379,0.772484512
274,689450,460800,0.926,-0.119,0.222,-39.8,8.6,0.7,-3.1,28.6,-18.3,0.139133885,0.58354442,-0.208685568,0.772362438
275,691822,460810,0.926,-0.119,0.222,-39.8,8.6,0.7,-3.1,28.6,-18.3,0.139652699,0.583269753,-0.209356975,0.772270882
276,693828,460810,0.926,-0.119,0.222,-39.8,8.6,0.7,-3.1,28.6,-18.3,0.139652699,0.583269753,-0.209356975,0.772270882
277,695995,460810,0.922,-0.115,0.225,-41.1,8.4,1.1,-3.1,28,-17.7,0.140202033,0.582995087,-0.210028382,0.772209845
278,698539,460810,0.915,-0.107,0.226,-41.6,7.7,1.6,-3.1,28,-17.7,0.14127018,0.582445753,-0.211432234,0.772026734
279,702300,460820,0.915,-0.107,0.226,-41.6,7.7,1.6,-3.1,28,-17.7,0.141819514,0.582201605,-0.212103641,0.771935179
280,703771,460820,0.915,-0.107,0.226,-41.6,7.7,1.6,-3.1,28,-17.7,0.141819514,0.582201605,-0.212103641,0.771935179
281,706276,460820,0.915,-0.107,0.226,-41.6,7.7,1.6,-3.1,28,-17.7,0.141819514,0.582201605,-0.212103641,0.771935179
282,709870,460820,0.919,-0.111,0.226,-41.9,7.1,1.4,-3,28.3,-18.2,0.142643513,0.582079531,-0.212500381,0.771782586
283,712179,460830,0.915,-0.107,0.226,-41.8,6.9,1.2,-3,28.3,-18.2,0.143162328,0.581835383,-0.213202307,0.771660512
284,714391,460830,0.911,-0.107,0.226,-41.6,6.6,0.5,-3,28.3,-18.2,0.144260994,0.581316568,-0.21457564,0.771446883
285,716801,460830,0.911,-0.107,0.226,-41.6,6.6,0.5,-3,28.3,-18.2,0.144260994,0.581316568,-0.21457564,0.771446883
286,718760,460830,0.907,-0.107,0.222,-41.7,6.6,0.1,-3.2,28,-18,0.144840846,0.58107242,-0.215247047,0.771355327
287,720963,460840,0.911,-0.111,0.222,-41.8,6.5,-0.3,-3.2,28,-18,0.145390179,0.580858791,-0.215948973,0.771233253
288,724902,460840,0.911,-0.111,0.214,-42.2,6.7,-1.1,-3.2,28,-18,0.146549883,0.580370495,-0.217291787,0.770989105
289,726571,460840,0.911,-0.111,0.214,-42.2,6.7,-1.1,-3.2,28,-18,0.146549883,0.580370495,-0.217291787,0.770989105
290,728936,460840,0.911,-0.119,0.214,-42.5,6.8,-1.5,-3.3,29.2,-17.7,0.147160253,0.580126347,-0.217963195,0.770867031
291,731016,460850,0.907,-0.118,0.214,-42.9,6.8,-2.1,-3.3,29.2,-17.7,0.147770623,0.579882199,-0.218634602,0.770744957
292,733458,460850,0.907,-0.126,0.206,-43.5,6.8,-2.7,-3.3,29.2,-17.7,0.148411512,0.57963805,-0.219306009,0.770622883
293,736874,460850,0.907,-0.134,0.206,-44,6.8,-3.4,-3.3,29.2,-17.7,0.1490524,0.579393902,-0.219946898,0.770500809
294,738426,460850,0.907,-0.138,0.202,-44.6,6.7,-4.1,-3.3,29.8,-17.6,0.149723807,0.579149754,-0.220648824,0.770348216
295,741588,460860,0.91,-0.146,0.202,-45.1,6.6,-4.6,-3.3,29.8,-17.6,0.150395215,0.578905606,-0.221350749,0.770195624
296,743622,460860,0.91,-0.15,0.202,-45.6,6.6,-5.2,-3.3,29.8,-17.6,0.15109714,0.578661458,-0.222022156,0.770043031
297,746005,460860,0.91,-0.158,0.202,-46.2,6.4,-5.8,-3.3,29.8,-17.6,0.151799066,0.578447829,-0.222693564,0.769890439
298,749814,460860,0.91,-0.165,0.202,-46.7,6.3,-6.4,-3.1,29.5,-17.6,0.15253151,0.578203681,-0.223395489,0.769707327
299,751956,460870,0.914,-0.166,0.206,-47.4,6,-7,-3.1,29.5,-17.6,0.153263955,0.577990051,-0.224066897,0.769524216
300,753720,460870,0.914,-0.177,0.206,-47.8,5.8,-7.5,-3.1,29.5,-17.6,0.154026917,0.577776421,-0.224768822,0.769341105
301,756092,460870,0.918,-0.177,0.198,-48.3,5.8,-8.1,-3.1,29.5,-17.6,0.154820399,0.577532273,-0.225440229,0.769157994
302,759942,460870,0.918,-0.177,0.198,-48.3,5.8,-8.1,-3.1,29.5,-17.6,0.154820399,0.577532273,-0.225440229,0.769157994
303,762278,460880,0.918,-0.189,0.202,-49.1,6.4,-9.5,-3.2,30.2,-17.3,0.155491806,0.577501755,-0.226294748,0.768791772
304,764472,460880,0.922,-0.189,0.206,-49.1,6.4,-9.5,-3.2,30.2,-17.3,0.156346324,0.577257607,-0.226966155,0.768608661
305,765986,460880,0.922,-0.197,0.202,-49.2,6.6,-9.9,-3.2,30.2,-17.3,0.157170324,0.577043977,-0.227637562,0.768395032
306,768477,460880,0.93,-0.189,0.206,-49.2,6.7,-10.2,-3.2,30.2,-17.3,0.157994324,0.576799829,-0.228308969,0.768211921
307,770925,460890,0.926,-0.193,0.214,-49.1,6.8,-11,-3.2,30.6,-15.7,0.158818323,0.5765862,-0.228980377,0.768028809
308,775274,460890,0.926,-0.193,0.214,-49.1,6.8,-11,-3.2,30.6,-15.7,0.159672842,0.576342051,-0.229651784,0.76781518
309,777255,460890,0.93,-0.189,0.222,-49.4,6.7,-11.5,-3.2,30.6,-15.7,0.160496841,0.576128422,-0.230292673,0.767632069
310,779282,460890,0.938,-0.193,0.218,-49.7,6.2,-11.9,-3.2,30.6,-15.7,0.16135136,0.575884274,-0.23096408,0.767418439
311,781534,460900,0.938,-0.193,0.218,-50.6,4.5,-12.5,-3.4,30.3,-15.7,0.162236396,0.575701163,-0.231635487,0.767174291
312,783735,460900,0.942,-0.193,0.221,-51,3.7,-12.7,-3.4,30.3,-15.7,0.163121433,0.575518052,-0.232306894,0.766899625
313,787207,460900,0.946,-0.193,0.217,-51,3.7,-12.7,-3.4,30.3,-15.7,0.163975951,0.575334941,-0.23300882,0.766655477
314,789189,460900,0.946,-0.197,0.221,-51.2,3.2,-12.8,-3.4,30.3,-15.7,0.164860988,0.575182348,-0.233680227,0.76638081
315,792211,460910,0.942,-0.197,0.221,-51.3,3.4,-13.1,-3.3,30.6,-15.3,0.165746025,0.574999237,-0.234351634,0.766106143
316,794691,460910,0.946,-0.197,0.217,-51.3,3.7,-13.3,-3.3,30.6,-15.3,0.166631062,0.574816126,-0.235023041,0.765861995
317,796765,460910,0.946,-0.193,0.221,-51.3,3.7,-13.3,-3.3,30.6,-15.3,0.167516099,0.574633015,-0.235724967,0.765587329
318,798397,460910,0.949,-0.197,0.217,-51.2,3.8,-13.8,-3.3,30.6,-15.3,0.168401135,0.574449904,-0.236396374,0.765312662
319,802416,460920,0.949,-0.197,0.217,-51.2,3.8,-13.8,-3.3,30.6,-15.3,0.168401135,0.574449904,-0.236396374,0.765312662
320,804184,460920,0.953,-0.201,0.221,-50.7,3.5,-14.4,-3.4,30.8,-15.1,0.170201727,0.5741142,-0.237678152,0.764763329
321,805885,460920,0.953,-0.201,0.217,-50.2,3.3,-14.7,-3.4,30.8,-15.1,0.171086764,0.573931089,-0.23831904,0.764488662
322,808836,460920,0.957,-0.197,0.217,-50.2,3.3,-14.7,-3.4,30.8,-15.1,0.171971801,0.573778497,-0.238959929,0.764213996
323,811309,460930,0.957,-0.197,0.217,-50.2,3.3,-14.7,-3.4,30.8,-15.1,0.171971801,0.573778497,-0.238959929,0.764213996
324,814491,460930,0.957,-0.197,0.217,-50.2,3.3,-14.7,-3.4,30.8,-15.1,0.171971801,0.573778497,-0.238959929,0.764213996
325,816729,460930,0.957,-0.197,0.217,-48.3,3.7,-14.5,-3.8,30.9,-15.1,0.172765282,0.573656423,-0.239722892,0.763908811
326,818747,460930,0.949,-0.19,0.213,-47.1,4,-13.5,-3.8,30.9,-15.1,0.1744438,0.573320719,-0.240913114,0.763420515
327,820978,460940,0.949,-0.186,0.217,-47.1,4,-13.5,-3.8,30.9,-15.1,0.1752678,0.573137608,-0.241523484,0.763145848
328,824993,460940,0.949,-0.186,0.217,-47.1,4,-13.5,-3.8,30.9,-15.1,0.1752678,0.573137608,-0.241523484,0.763145848
329,827313,460940,0.949,-0.19,0.209,-46.4,4.7,-12.5,-3.1,30.3,-14.4,0.1760918,0.572954497,-0.242103336,0.762932218
330,829574,460940,0.945,-0.189,0.206,-46.4,5.2,-12.7,-3.1,30.3,-14.4,0.177739799,0.572557756,-0.243293558,0.762474441
331,831758,460950,0.949,-0.193,0.209,-46.6,5.3,-13,-3.1,30.3,-14.4,0.178563799,0.572344127,-0.243903928,0.762230293
332,833717,460950,0.949,-0.193,0.209,-46.6,5.3,-13,-3.1,30.3,-14.4,0.178563799,0.572344127,-0.243903928,0.762230293
333,836062,460950,0.949,-0.186,0.202,-46.4,5.4,-13.2,-3.9,31.4,-14.5,0.179387799,0.572130497,-0.244483779,0.762016663
334,840105,460950,0.938,-0.185,0.198,-46.3,5.6,-13.1,-3.9,31.4,-14.5,0.180211798,0.571947386,-0.245063631,0.761772515
335,842259,460960,0.93,-0.185,0.202,-45.6,6.2,-12.5,-3.9,31.4,-14.5,0.181859798,0.571520127,-0.246223334,0.761345256
336,844542,460960,0.93,-0.185,0.202,-45.6,6.2,-12.5,-3.9,31.4,-14.5,0.181859798,0.571520127,-0.246223334,0.761345256
337,846731,460960,0.93,-0.181,0.206,-45.5,6.4,-12.3,-3.8,31.7,-14.5,0.182653279,0.571275979,-0.246803186,0.761131626
338,848717,460960,0.93,-0.178,0.198,-45.6,6.7,-12.3,-3.8,31.7,-14.5,0.183477279,0.571062349,-0.247383038,0.760917997
339,850947,460970,0.93,-0.178,0.19,-46.1,6.8,-12.9,-3.8,31.7,-14.5,0.184301279,0.57084872,-0.247962889,0.760704367
340,854756,460970,0.934,-0.182,0.186,-46.8,6.8,-13.6,-3.8,31.7,-14.5,0.185125278,0.570604572,-0.248542741,0.760460219
341,856970,460970,0.941,-0.186,0.182,-47.3,6.9,-14.3,-4.7,32.1,-14.2,0.186010315,0.570360424,-0.249122593,0.76024659
342,859213,460970,0.941,-0.19,0.182,-47.5,7.2,-14.7,-4.7,32.1,-14.2,0.186864834,0.570146794,-0.249702445,0.760002441
343,861506,460980,0.934,-0.189,0.175,-47.3,7.5,-14.9,-4.7,32.1,-14.2,0.187719352,0.569902646,-0.250251778,0.759788812
344,863596,460980,0.926,-0.193,0.175,-46.8,7.9,-14.9,-4.7,32.1,-14.2,0.188634907,0.569658498,-0.250801111,0.759575182
345,865795,460980,0.926,-0.193,0.175,-46.8,7.9,-14.9,-4.7,32.1,-14.2,0.188634907,0.569658498,-0.250801111,0.759575182
346,869058,460980,0.922,-0.185,0.171,-45.5,9,-14.5,-4.7,32,-14.3,0.189336833,0.569627979,-0.251564074,0.759178442
347,871081,460990,0.926,-0.193,0.163,-45.5,9,-14.5,-4.7,32,-14.3,0.190191351,0.569353313,-0.252113407,0.758964812
348,873394,460990,0.93,-0.197,0.171,-45.7,9,-15,-4.7,32,-14.3,0.191076388,0.569109165,-0.252632221,0.758781701
349,877209,460990,0.93,-0.201,0.167,-46.1,8.9,-15.7,-4.7,32,-14.3,0.191961425,0.568834498,-0.253181555,0.758568072
350,879420,460990,0.937,-0.197,0.163,-47,8.5,-17,-4.7,32.5,-13.8,0.19287698,0.56859035,-0.253700369,0.758354442
351,881699,461000,0.937,-0.201,0.167,-47,8.5,-17,-4.7,32.5,-13.8,0.193762017,0.568346202,-0.254219184,0.758110294
352,884501,461000,0.937,-0.201,0.163,-47.3,8.1,-17.3,-4.7,32.5,-13.8,0.19470809,0.568132572,-0.254768517,0.757866146
353,885964,461000,0.941,-0.209,0.159,-47.6,7.7,-17.3,-4.7,32.5,-13.8,0.195623646,0.567888424,-0.255287332,0.757621998
354,889118,461000,0.953,-0.205,0.162,-48.4,7.3,-17.2,-4.8,32.7,-13.1,0.196508683,0.567644276,-0.255867183,0.75737785
355,891192,461010,0.953,-0.205,0.162,-48.4,7.3,-17.2,-4.8,32.7,-13.1,0.197454756,0.567430647,-0.256416517,0.757133702
356,893433,461010,0.961,-0.21,0.162,-48.8,7.4,-17,-4.8,32.7,-13.1,0.19840083,0.567186499,-0.25696585,0.756859035
357,896544,461010,0.969,-0.214,0.166,-49.1,7.5,-16.8,-4.8,32.7,-13.1,0.199316385,0.566942351,-0.257545701,0.756614887
358,898673,461010,0.973,-0.214,0.166,-49.5,7.5,-15.9,-4.7,32.5,-13.3,0.200231941,0.566698202,-0.258125553,0.756370739
359,900881,461020,0.976,-0.214,0.162,-49.5,7.5,-15.9,-4.7,32.5,-13.3,0.201147496,0.566423536,-0.258705405,0.756096072
360,904179,461020,0.976,-0.214,0.166,-49.5,7.4,-15.3,-4.7,32.5,-13.3,0.202063051,0.566179388,-0.259315775,0.755851924
361,906175,461020,0.973,-0.214,0.166,-49.5,7.2,-14.6,-4.7,32.5,-13.3,0.202978607,0.56593524,-0.259926145,0.755607776
362,908466,461020,0.98,-0.214,0.174,-49.7,7,-13.2,-4.3,32.9,-12.5,0.203833125,0.565660573,-0.260536515,0.75533311
363,912202,461030,0.988,-0.218,0.174,-49.9,7,-12.6,-4.3,32.9,-12.5,0.204687643,0.565385907,-0.261177404,0.755088961
364,914752,461030,0.988,-0.21,0.181,-49.9,7,-12.6,-4.3,32.9,-12.5,0.20557268,0.56511124,-0.261818293,0.754844813
365,916759,461030,0.992,-0.214,0.177,-50.1,7,-12,-4.3,32.9,-12.5,0.206427198,0.564867092,-0.262459181,0.754570147
366,919045,461030,0.992,-0.214,0.177,-50.1,7,-12,-4.3,32.9,-12.5,0.206427198,0.564867092,-0.262459181,0.754570147
367,921053,461040,0.992,-0.214,0.177,-50.1,7,-12,-4.3,32.9,-12.5,0.206427198,0.564867092,-0.262459181,0.754570147
368,923378,461040,0.984,-0.21,0.185,-51.3,6.8,-10.4,-3.7,32.2,-12.6,0.207983642,0.564439833,-0.264015625,0.753929258
369,926524,461040,0.988,-0.202,0.189,-52,6.7,-10.3,-3.7,32.2,-12.6,0.20883816,0.564165166,-0.264717551,0.753654592
370,928629,461040,0.988,-0.202,0.189,-52,6.7,-10.3,-3.7,32.2,-12.6,0.20966216,0.563859981,-0.265419477,0.753379925
371,930866,461050,0.988,-0.202,0.189,-52,6.7,-10.3,-3.7,32.2,-12.6,0.20966216,0.563859981,-0.265419477,0.753379925
372,934080,461050,0.973,-0.198,0.182,-53.4,6.6,-10.5,-4,32.2,-12.4,0.210547197,0.563585314,-0.266090884,0.753105258
373,936151,461050,0.973,-0.206,0.186,-54.3,6.6,-11.1,-4,32.2,-12.4,0.21231727,0.562974944,-0.267586291,0.752555925
374,939843,461050,0.98,-0.206,0.185,-54.8,6.6,-11.6,-4,32.2,-12.4,0.213232826,0.562700278,-0.268288217,0.75225074
375,941413,461060,0.98,-0.206,0.185,-54.8,6.6,-11.6,-4,32.2,-12.4,0.213232826,0.562700278,-0.268288217,0.75225074
376,944427,461060,0.965,-0.217,0.182,-55.2,6.8,-12.1,-3.5,32.2,-12.1,0.214148381,0.562395093,-0.269020661,0.751945555
377,946654,461060,0.973,-0.225,0.178,-55.5,7.4,-13,-3.5,32.2,-12.1,0.21601001,0.561784722,-0.270455031,0.751365703
378,948918,461060,0.973,-0.229,0.182,-55.4,7.9,-13.3,-3.5,32.2,-12.1,0.216956084,0.561479537,-0.271156957,0.751060518
379,951890,461070,0.973,-0.229,0.182,-55.4,7.9,-13.3,-3.5,32.2,-12.1,0.216956084,0.561479537,-0.271156957,0.751060518
380,953608,461070,0.969,-0.241,0.182,-55.4,8.3,-13.6,-3.8,32.6,-11.8,0.217902158,0.561143834,-0.271858882,0.750785852
381,956903,461070,0.965,-0.252,0.186,-55.2,8.5,-13.7,-3.8,32.6,-11.8,0.218848231,0.560838649,-0.272560808,0.750480667
382,959244,461070,0.969,-0.264,0.186,-54.9,8.7,-13.9,-3.8,32.6,-11.8,0.220770898,0.56019776,-0.273903623,0.749900815
383,961238,461080,0.969,-0.264,0.186,-54.9,8.7,-13.9,-3.8,32.6,-11.8,0.220770898,0.56019776,-0.273903623,0.749900815
384,963476,461080,0.969,-0.276,0.182,-54.7,8.8,-13.8,-3.7,32.6,-11.4,0.221716971,0.559862056,-0.274636067,0.749626148
385,967481,461080,0.972,-0.284,0.182,-54.7,8.8,-13.7,-3.7,32.6,-11.4,0.222663045,0.559526353,-0.275307474,0.749320963
386,969740,461080,0.976,-0.3,0.17,-54.7,8.8,-13.3,-3.7,32.6,-11.4,0.224524674,0.558885464,-0.276680807,0.74877163
387,971923,461090,0.976,-0.3,0.17,-54.7,8.8,-13.3,-3.7,32.6,-11.4,0.224524674,0.558885464,-0.276680807,0.74877163
388,974225,461090,0.976,-0.3,0.17,-54.7,8.8,-13.3,-3.7,32.6,-11.4,0.224524674,0.558885464,-0.276680807,0.74877163
389,976393,461090,0.98,-0.307,0.178,-54.4,8.9,-12.9,-4.7,32.8,-11.5,0.224738304,0.55854976,-0.278298288,0.748344371
390,979588,461090,0.98,-0.319,0.178,-54.2,9,-12.7,-4.7,32.8,-11.5,0.225653859,0.558214057,-0.279000214,0.748069704
391,981688,461100,0.984,-0.319,0.178,-54,9.1,-12.5,-4.7,32.8,-11.5,0.226569414,0.557847835,-0.279671621,0.747795038
392,984597,461100,0.984,-0.323,0.174,-53.6,9.1,-12.2,-4.7,32.8,-11.5,0.22748497,0.557512131,-0.280343028,0.747520371
393,986008,461100,0.988,-0.327,0.174,-53,9.1,-12,-3.2,33.1,-11.6,0.228370006,0.557176428,-0.281014435,0.747245705
394,989308,461100,0.992,-0.335,0.174,-52.5,9.1,-11.9,-3.2,33.1,-11.6,0.229285562,0.556840724,-0.281685842,0.746971038
395,992251,461110,0.992,-0.339,0.174,-51.9,9.2,-11.9,-3.2,33.1,-11.6,0.23014008,0.55650502,-0.28235725,0.746696371
396,993579,461110,0.992,-0.343,0.178,-51.3,9.4,-11.8,-3.2,33.1,-11.6,0.231025117,0.556169317,-0.282998138,0.746452223
397,996879,461110,1,-0.347,0.177,-50.8,9.6,-11.7,-3.5,32.9,-10.9,0.231910154,0.555833613,-0.283639027,0.746177557
398,999774,461110,0.996,-0.351,0.185,-50.2,9.9,-11.6,-3.5,32.9,-10.9,0.232764672,0.555467391,-0.284249397,0.745933409
399,1001519,461120,1,-0.355,0.185,-49.8,10.1,-11.6,-3.5,32.9,-10.9,0.23361919,0.555131687,-0.284859767,0.745689261
400,1003538,461120,0.999,-0.362,0.181,-49.4,10.4,-11.6,-3.5,32.9,-10.9,0.234473708,0.554765465,-0.285470138,0.745445112
401,1006813,461120,0.999,-0.37,0.181,-49.1,11.3,-11.9,-3.5,33,-11,0.235328227,0.554429762,-0.286080508,0.745200964
402,1009773,461120,0.999,-0.374,0.185,-49.1,11.3,-11.9,-3.5,33,-11,0.236182745,0.55406354,-0.28666036,0.744987335
403,1011381,461130,0.999,-0.374,0.185,-49,11.9,-12.1,-3.5,33,-11,0.237037263,0.553697317,-0.28727073,0.744773705
404,1014874,461130,0.992,-0.39,0.186,-49,12.7,-12.3,-3.5,33,-11,0.2379223,0.553300577,-0.287850581,0.744529557
405,1016469,461130,0.992,-0.397,0.182,-48.8,14.4,-12.7,-3.5,33.1,-11,0.238807337,0.552903836,-0.288399915,0.744346446
406,1019512,461130,0.988,-0.413,0.182,-48.8,14.4,-12.7,-3.5,33.1,-11,0.239692373,0.552476577,-0.288979766,0.744132817
407,1021731,461140,0.988,-0.425,0.186,-48.7,15.4,-12.9,-3.5,33.1,-11,0.24057741,0.552049318,-0.289529099,0.743949705
408,1025065,461140,0.991,-0.429,0.182,-48.5,16.4,-13.1,-3.5,33.1,-11,0.241492965,0.551622059,-0.290078433,0.743766594
409,1027377,461140,0.991,-0.429,0.182,-48.5,16.4,-13.1,-3.5,33.1,-11,0.241492965,0.551622059,-0.290078433,0.743766594
410,1029762,461140,0.991,-0.429,0.182,-48.5,16.4,-13.1,-3.5,33.1,-11,0.241492965,0.551622059,-0.290078433,0.743766594
411,1031881,461150,0.987,-0.483,0.19,-47.3,21.4,-14.3,-5,33.3,-10.4,0.242744224,0.550492874,-0.291817988,0.743522446
412,1034122,461150,0.983,-0.499,0.19,-47.3,21.4,-14.3,-5,33.3,-10.4,0.243690298,0.549974059,-0.292275765,0.743400372
413,1036167,461150,0.987,-0.511,0.19,-46.9,22.5,-14.7,-5,33.3,-10.4,0.244636372,0.549455245,-0.292764061,0.743308817
414,1038468,461150,0.987,-0.511,0.19,-46.9,22.5,-14.7,-5,33.3,-10.4,0.244636372,0.549455245,-0.292764061,0.743308817
415,1040964,461160,0.991,-0.542,0.194,-46.8,23.9,-15.4,-3.7,33.6,-9.9,0.245582446,0.548905911,-0.293191321,0.743156224
416,1044724,461160,1.007,-0.589,0.221,-46.8,23.9,-16.1,-3.7,33.6,-9.9,0.24753563,0.547837764,-0.294076357,0.743003632
417,1047244,461160,1.007,-0.589,0.221,-46.8,23.9,-16.1,-3.7,33.6,-9.9,0.248512223,0.547318949,-0.294503616,0.742912076
418,1049956,461160,1.007,-0.589,0.221,-46.8,23.9,-16.1,-3.7,33.6,-9.9,0.248512223,0.547318949,-0.294503616,0.742912076
419,1052170,461170,1.018,-0.64,0.24,-46.7,23.4,-16.6,-3.7,33.6,-9.7,0.249488815,0.546769616,-0.294961394,0.742790002
420,1054172,461170,1.026,-0.675,0.26,-46.5,22.3,-16.3,-3.7,33.6,-9.7,0.251442,0.545731986,-0.295815912,0.742545854
421,1056289,461170,1.026,-0.695,0.264,-46.5,22.3,-16.3,-3.7,33.6,-9.7,0.252388073,0.54524369,-0.296243171,0.74242378
422,1058506,461170,1.026,-0.695,0.264,-46.5,22.3,-16.3,-3.7,33.6,-9.7,0.252388073,0.54524369,-0.296243171,0.74242378
423,1062554,461180,1.026,-0.718,0.276,-45.5,20.6,-15.6,-3.7,33.5,-9.5,0.253334147,0.544755394,-0.296700949,0.742301706
424,1064536,461180,1.034,-0.738,0.279,-44.8,19.7,-15.4,-3.7,33.5,-9.5,0.254219184,0.544267098,-0.297128208,0.742149113
425,1066117,461180,1.061,-0.765,0.295,-43.9,18.4,-15.2,-3.7,33.5,-9.5,0.256019776,0.543382061,-0.297982727,0.741843928
426,1068537,461180,1.061,-0.765,0.295,-43.9,18.4,-15.2,-3.7,33.5,-9.5,0.256019776,0.543382061,-0.297982727,0.741843928
427,1070864,461190,1.069,-0.793,0.306,-43.5,18.3,-15.1,-4.6,33.8,-9.8,0.256904813,0.542954802,-0.298409986,0.741691336
428,1075545,461190,1.077,-0.813,0.306,-42.7,18.4,-15,-4.6,33.8,-9.8,0.257759331,0.542497024,-0.298806726,0.741538743
429,1076070,461190,1.077,-0.828,0.31,-41.6,18.7,-14.7,-4.6,33.8,-9.8,0.258613849,0.542069765,-0.299203467,0.741416669
430,1078406,461190,1.092,-0.84,0.318,-40.2,19,-14.4,-4.6,33.8,-9.8,0.259468368,0.541611988,-0.299569689,0.741294595
431,1083191,461200,1.092,-0.84,0.318,-40.2,19,-14.4,-4.6,33.8,-9.8,0.259468368,0.541611988,-0.299569689,0.741294595
432,1083727,461200,1.131,-0.923,0.317,-35.7,20.6,-13.9,-4.5,33.9,-9.5,0.261024812,0.540726951,-0.300210578,0.741142003
433,1085923,461200,1.135,-0.939,0.309,-35.7,20.6,-13.9,-4.5,33.9,-9.5,0.261818293,0.540269173,-0.300485244,0.741080966
434,1088750,461200,1.131,-0.962,0.305,-34.1,21.3,-13.7,-4.5,33.9,-9.5,0.262581256,0.539841914,-0.300759911,0.741019929
435,1090905,461210,1.131,-0.962,0.305,-34.1,21.3,-13.7,-4.5,33.9,-9.5,0.262581256,0.539841914,-0.300759911,0.741019929
436,1094262,461210,1.115,-1.001,0.298,-30.2,23.9,-12.9,-4.5,34.1,-8.7,0.2633137,0.539353618,-0.30097354,0.741019929
437,1096819,461210,1.103,-1.051,0.286,-26.1,27.5,-12.9,-4.5,34.1,-8.7,0.264717551,0.538346507,-0.301248207,0.741142003
438,1098395,461210,1.107,-1.102,0.283,-26.1,27.5,-12.9,-4.5,34.1,-8.7,0.265419477,0.537827692,-0.301339763,0.741233558
439,1102561,461220,1.107,-1.102,0.283,-26.1,27.5,-12.9,-4.5,34.1,-8.7,0.265419477,0.537827692,-0.301339763,0.741233558
440,1104499,461220,1.099,-1.149,0.271,-22.6,31.1,-14.5,-4.6,33.8,-8.6,0.266090884,0.537308878,-0.301370281,0.741355632
441,1107133,461220,1.095,-1.223,0.283,-21.1,32.9,-15.7,-4.6,33.8,-8.6,0.266823328,0.536759545,-0.301339763,0.741508225
442,1109218,461220,1.083,-1.297,0.291,-17.7,37.5,-17.3,-4.6,33.8,-8.6,0.268288217,0.535569323,-0.301095614,0.741935484
443,1111489,461230,1.083,-1.297,0.291,-17.7,37.5,-17.3,-4.6,33.8,-8.6,0.268288217,0.535569323,-0.301095614,0.741935484
444,1113639,461230,1.056,-1.359,0.386,-16.4,40.7,-17.7,-3.9,33.8,-8,0.26905118,0.534928434,-0.300912503,0.742179632
445,1115845,461230,1.071,-1.477,0.296,-16.9,44.1,-17.8,-3.9,33.8,-8,0.269814142,0.534257027,-0.300729392,0.742484817
446,1119895,461230,1.051,-1.531,0.261,-20.6,47.7,-18.8,-3.9,33.8,-8,0.270668661,0.533463546,-0.3005768,0.742790002
447,1121890,461240,1.024,-1.527,0.281,-26.9,52.5,-21.7,-3.9,33.8,-8,0.271675771,0.532609027,-0.300424207,0.743095187
448,1124338,461240,0.949,-1.666,0.271,-33.5,59.1,-27.3,-4.5,33.8,-10.1,0.272896512,0.531632435,-0.300302133,0.743400372
449,1126201,461240,0.917,-1.748,0.268,-38.6,66.6,-34,-4.5,33.8,-10.1,0.2743614,0.530533769,-0.300149541,0.743705557
450,1129039,461240,0.831,-1.844,0.262,-41.6,72.9,-39.5,-4.5,33.8,-10.1,0.275948363,0.529374065,-0.299935911,0.744041261
451,1130993,461250,0.8,-1.91,0.258,-41.9,76.6,-42.3,-4.5,33.8,-10.1,0.277626881,0.528153325,-0.299661245,0.744407483
452,1134326,461250,0.8,-1.91,0.258,-41.9,76.6,-42.3,-4.5,33.8,-10.1,0.277626881,0.528153325,-0.299661245,0.744407483
453,1137290,461250,0.702,-2.045,0.304,-34.3,76.8,-40.3,-4.5,34,-7.7,0.279183325,0.526963103,-0.299295022,0.744834742
454,1140005,461250,0.62,-2.106,0.301,-21.1,74.1,-34,-4.5,34,-7.7,0.281868954,0.524674215,-0.298348949,0.745780816
455,1141790,461260,0.655,-2.091,0.305,-21.1,74.1,-34,-4.5,34,-7.7,0.283150731,0.523575549,-0.297860652,0.746269112
456,1144410,461260,0.655,-2.091,0.305,-21.1,74.1,-34,-4.5,34,-7.7,0.283150731,0.523575549,-0.297860652,0.746269112
457,1146262,461260,0.768,-2.05,0.342,-7.9,75.7,-25.9,-4.5,33.7,-7.8,0.284157842,0.522446364,-0.297219764,0.746940519
458,1148458,461260,0.647,-2.177,0.274,-2.4,80,-19.9,-4.5,33.7,-7.8,0.285042879,0.521256142,-0.296517838,0.747703482
459,1151052,461270,0.305,-2.399,0.085,3.2,87,-11.9,-4.5,33.7,-7.8,0.286477248,0.518601032,-0.29505295,0.749565111
460,1154740,461270,0.305,-2.399,0.085,3.2,87,-11.9,-4.5,33.7,-7.8,0.286477248,0.518601032,-0.29505295,0.749565111
461,1157002,461270,0.285,-2.399,0.077,29.3,99.8,6,-4.8,33.6,-7.7,0.286690878,0.517136143,-0.29401532,0.750938444
462,1159124,461270,0.226,-2.452,0.035,53.4,99.7,13.6,-4.8,33.6,-7.7,0.286507767,0.515732292,-0.292672506,0.75246437
463,1161147,461280,0.171,-2.507,-0.107,82.3,93,20.3,-4.8,33.6,-7.7,0.28583636,0.514603107,-0.290963469,0.754173406
464,1163435,461280,0.182,-2.535,-0.162,113,80.4,26.6,-4.8,33.6,-7.7,0.284615619,0.513809626,-0.288918729,0.75594348
465,1167324,461280,0.26,-2.419,-0.184,144.9,63.9,31.9,-4.1,33.7,-8.3,0.282876064,0.513443403,-0.286477248,0.75777459
466,1169679,461280,0.366,-2.342,-0.158,178,45.3,35.8,-4.1,33.7,-8.3,0.280587176,0.513565477,-0.283669546,0.759605701
467,1171839,461290,0.456,-2.301,-0.18,210.6,25.8,38,-4.1,33.7,-8.3,0.277748955,0.514175848,-0.280434584,0.761436811
468,1174433,461290,0.53,-2.248,-0.197,239.7,6.1,39.5,-4.1,33.7,-8.3,0.274422437,0.515274514,-0.276863918,0.763206885
469,1176040,461290,0.632,-2.117,-0.203,263.7,-12,41.7,-3.9,33.1,-11.9,0.270699179,0.516800439,-0.272988067,0.764885403
470,1178439,461290,0.699,-2.028,-0.204,283.3,-26.9,46.6,-3.9,33.1,-11.9,0.266548662,0.51863155,-0.268959624,0.766533403
471,1182506,461300,0.781,-1.932,-0.214,300.3,-37.3,54.6,-3.9,33.1,-11.9,0.262001404,0.52067629,-0.26474807,0.768181402
472,1184634,461300,0.867,-1.843,-0.22,315.6,-43.1,64.7,-3.9,33.1,-11.9,0.257087924,0.522812586,-0.26044496,0.76985992
473,1186879,461300,0.867,-1.843,-0.22,315.6,-43.1,64.7,-3.9,33.1,-11.9,0.257087924,0.522812586,-0.26044496,0.76985992
474,1189097,461300,1.048,-1.507,-0.259,352.1,-41.7,92,-3.5,32.7,-11.2,0.24570452,0.527085177,-0.251258889,0.773705252
475,1191603,461310,1.06,-1.448,-0.29,352.1,-41.7,92,-3.5,32.7,-11.2,0.239844966,0.529160436,-0.246589557,0.775627918
476,1193769,461310,1.06,-1.448,-0.29,361.4,-38.6,98.7,-3.5,32.7,-11.2,0.233802301,0.531144139,-0.241798151,0.777611621
477,1195968,461310,1.06,-1.448,-0.29,361.4,-38.6,98.7,-3.5,32.7,-11.2,0.233802301,0.531144139,-0.241798151,0.777611621
478,1199734,461310,1.142,-1.341,-0.355,376.9,-33,108.2,-3.9,31.9,-13.4,0.221015046,0.534897916,-0.231818598,0.781823176
479,1201100,461320,1.142,-1.341,-0.355,384,-30.8,112.2,-3.9,31.9,-13.4,0.214453566,0.536698508,-0.226722007,0.783928953
480,1204357,461320,1.2,-1.318,-0.415,391.1,-28.7,116.3,-3.9,31.9,-13.4,0.207708975,0.538407544,-0.22153386,0.78603473
481,1206492,461320,1.2,-1.318,-0.415,391.1,-28.7,116.3,-3.9,31.9,-13.4,0.207708975,0.538407544,-0.22153386,0.78603473
482,1209482,461320,1.334,-1.153,-0.382,405.2,-22.5,124.1,-3.5,30.8,-15.2,0.19370098,0.541550951,-0.210699789,0.790398877
483,1210908,461330,1.306,-1.105,-0.378,411.4,-17.5,129.2,-3.5,30.8,-15.2,0.186498611,0.542985321,-0.205206458,0.79259621
484,1213546,461330,1.271,-1.062,-0.401,415.3,-11,136.2,-3.5,30.8,-15.2,0.179174169,0.544236579,-0.199682608,0.794854579
485,1216416,461330,1.271,-1.062,-0.401,415.3,-11,136.2,-3.5,30.8,-15.2,0.179174169,0.544236579,-0.199682608,0.794854579
486,1219437,461330,1.259,-0.992,-0.522,412.5,4.3,153.3,-2.5,29.3,-17.5,0.164067507,0.545884579,-0.188940092,0.799584948
487,1221078,461340,1.298,-0.957,-0.546,407.2,12.6,160.8,-2.5,29.3,-17.5,0.156468398,0.546433912,-0.183690909,0.801965392
488,1223531,461340,1.294,-0.903,-0.578,401.2,21.3,167.7,-2.5,29.3,-17.5,0.148808252,0.546708579,-0.178594317,0.804376354
489,1226771,461340,1.243,-0.847,-0.632,391.9,39.9,182.1,-1.7,27.9,-18,0.141087069,0.546555986,-0.173741874,0.806939909
490,1228522,461340,1.216,-0.835,-0.639,391.9,39.9,182.1,-1.7,27.9,-18,0.133365886,0.546342357,-0.168889431,0.809411908
491,1230796,461350,1.204,-0.819,-0.643,388.5,49,189.6,-1.7,27.9,-18,0.125553148,0.545884579,-0.164128544,0.811944945
492,1234769,461350,1.208,-0.804,-0.635,384.8,56.6,196.6,-1.7,27.9,-18,0.117679373,0.545213172,-0.159489731,0.814508499
493,1235987,461350,1.208,-0.804,-0.635,384.8,56.6,196.6,-1.7,27.9,-18,0.117679373,0.545213172,-0.159489731,0.814508499
494,1239179,461350,1.154,-0.764,-0.587,374.8,63.2,209.6,-1,27,-19.4,0.109714042,0.544297617,-0.155156102,0.817072054
495,1242874,461360,1.115,-0.708,-0.539,368.3,60.6,216.4,-1,27,-19.4,0.101657155,0.543321024,-0.151005585,0.819513535
496,1244476,461360,1.112,-0.653,-0.461,361.2,54,224,-1,27,-19.4,0.0854518265,0.541428877,-0.143131809,0.824030274
497,1246020,461360,1.112,-0.653,-0.461,361.2,54,224,-1,27,-19.4,0.0854518265,0.541428877,-0.143131809,0.824030274
498,1249886,461360,1.077,-0.648,-0.457,345.7,31.1,242.4,0,25.3,-20.2,0.0770897549,0.540726951,-0.139713736,0.825891903
499,1252573,461370,1.054,-0.617,-0.476,338,17,252.7,0,25.3,-20.2,0.0686056093,0.540208136,-0.13657033,0.827509384
500,1254159,461370,1.077,-0.59,-0.547,332.3,3.2,263.2,0,25.3,-20.2,0.0512710959,0.539414655,-0.130741295,0.830225532
501,1255884,461370,1.077,-0.59,-0.547,332.3,3.2,263.2,0,25.3,-20.2,0.0512710959,0.539414655,-0.130741295,0.830225532
502,1259280,461370,1.213,-0.538,-0.663,335,-16.4,283.8,0,25.3,-20.2,0.0421460616,0.539262062,-0.128025147,0.831263161
503,1262267,461380,1.291,-0.493,-0.727,345.9,-20.1,293.9,0,25.3,-20.2,0.0326853236,0.53910947,-0.125217444,0.832209235
504,1264553,461380,1.47,-0.399,-0.899,362.8,-19.5,304.2,0,25.3,-20.2,0.0129703665,0.538560137,-0.119205298,0.833979308
505,1266851,461380,1.47,-0.399,-0.899,362.8,-19.5,304.2,0,25.3,-20.2,0.0129703665,0.538560137,-0.119205298,0.833979308
506,1269652,461380,1.766,-0.335,-1.085,408.2,-5.9,324.3,0,25.3,-20.2,0.0022583697,0.53788873,-0.115573595,0.835016938
507,1271835,461390,1.972,-0.3,-1.183,433.9,7,334.2,0,25.3,-20.2,0.00888088626,-0.536912137,0.111606189,-0.836146123
508,1273618,461390,2.124,-0.252,-1.26,461.5,24.1,343.4,0,25.3,-20.2,0.0204779199,-0.535508286,0.107181005,-0.8374279
509,1277540,461390,2.211,-0.09,-1.293,492.1,44.8,349.6,0,25.3,-20.2,0.0325022126,-0.53358562,0.102298044,-0.83886227
510,1279734,461390,2.505,0.295,-1.319,524.2,67.2,350.3,2.5,20.6,-22.1,0.0448622089,-0.531144139,0.0968352306,-0.840510269
511,1282078,461400,2.544,0.376,-1.332,553.4,88.6,345,2.5,20.6,-22.1,0.0574053163,-0.528214362,0.0907620472,-0.842280343
512,1284313,461400,2.583,0.462,-1.352,574.4,105.6,334.6,2.5,20.6,-22.1,0.0699789422,-0.524826807,0.0841700491,-0.844111454
513,1286378,461400,2.545,0.584,-1.293,585.1,115.6,319,2.5,20.6,-22.1,0.0823389386,-0.521164586,0.077211829,-0.845942564
514,1288608,461400,2.545,0.584,-1.293,585.1,115.6,319,2.5,20.6,-22.1,0.0823389386,-0.521164586,0.077211829,-0.845942564
515,1290854,461410,2.471,0.699,-1.202,584.4,111.5,268.1,4.1,14.2,-25.8,0.0937223426,-0.517532884,0.0696737571,-0.847621082
516,1294737,461410,2.425,0.805,-1.162,579,103.2,235.1,4.1,14.2,-25.8,0.104434339,-0.514053774,0.0617999817,-0.849116489
517,1296874,461410,2.347,0.908,-1.141,570.8,99.6,203.4,4.1,14.2,-25.8,0.114474929,-0.510574664,0.0537430952,-0.850459304
518,1298302,461410,2.212,1.122,-1.025,570.8,99.6,203.4,4.1,14.2,-25.8,0.124485,-0.507003998,0.0456556902,-0.851649525
519,1300845,461420,2.162,1.264,-0.966,538.4,125.5,166.1,5,11.6,-26.1,0.133396405,-0.503006073,0.0378429518,-0.853053377
520,1304509,461420,2.127,1.37,-1.001,511.2,153.1,161.8,5,11.6,-26.1,0.141880551,-0.498519852,0.0305185095,-0.854609821
521,1306715,461420,1.912,1.595,-1.158,477.5,183.5,163.2,5,11.6,-26.1,0.149967956,-0.49345378,0.0239875484,-0.856379894
522,1309137,461420,1.764,1.801,-1.151,439.3,213.3,168.6,5,11.6,-26.1,0.157750175,-0.48792993,0.0182805872,-0.858302561
523,1311012,461430,1.435,2.113,-0.876,396.7,243,180,6.4,9,-26,0.16522721,-0.481917783,0.0136112552,-0.860347301
524,1314827,461430,1.162,2.04,-0.69,346.1,274.7,200.2,6.4,9,-26,0.172521134,-0.475417341,0.0101931822,-0.86260567
525,1316436,461430,0.936,1.889,-0.561,280.6,309.8,231.2,6.4,9,-26,0.179723502,-0.46845912,0.00848414563,-0.864955596
526,1319308,461430,0.71,1.737,-0.478,198.1,347.8,271.9,6.4,9,-26,0.186803797,-0.461043123,0.00888088626,-0.867427595
527,1322345,461440,0.265,1.624,-0.313,104.8,386.1,318.9,8.7,10.4,-23.9,0.193792535,-0.453199866,0.0116885891,-0.86999115
528,1323846,461440,0.069,1.405,-0.207,11.8,420.3,367,8.7,10.4,-23.9,0.200781274,-0.445051424,0.0168462172,-0.872524186
529,1326873,461440,-0.173,0.98,-0.119,-72.8,442.5,412.4,8.7,10.4,-23.9,0.207739494,-0.436750389,0.0241706595,-0.87490463
530,1328332,461440,-0.23,0.619,0.21,-141.8,440.9,451.2,8.7,10.4,-23.9,0.214728233,-0.428693503,0.0332041383,-0.876888333
531,1331210,461450,0.411,-0.406,0.42,-184.9,401.7,479.4,9.7,8.9,-24.7,0.221869564,-0.421491134,0.0430921354,-0.878200629
532,1334394,461450,1.086,-0.594,1.018,-187.7,320.7,490.8,9.7,8.9,-24.7,0.229224525,-0.415753655,0.0527665029,-0.878505814
533,1336420,461450,1.086,-0.594,1.018,-145.8,212.4,482.7,9.7,8.9,-24.7,0.236884671,-0.411816767,0.0610065004,-0.877803888
534,1339515,461450,0.998,-0.851,0.903,-72.2,106.7,460.3,9.7,8.9,-24.7,0.244911039,-0.409527879,0.0670491653,-0.876216926
535,1340894,461460,0.998,-0.851,0.903,-72.2,106.7,460.3,9.7,8.9,-24.7,0.244911039,-0.409527879,0.0670491653,-0.876216926
536,1343966,461460,1.483,-0.734,0.255,77.5,-11.9,420.2,9.9,8.1,-24.4,0.253639332,-0.40867336,0.0692770165,-0.873958556
537,1347092,461460,1.567,-0.846,0.003,111.9,-26.3,420.8,9.9,8.1,-24.4,0.26270333,-0.407910398,0.070741905,-0.871517075
538,1348657,461460,1.697,-1.072,-0.338,104.6,-26.6,439,9.9,8.1,-24.4,0.272011475,-0.407147435,0.07248146,-0.868892483
539,1352295,461470,1.619,-1.313,-0.971,63.6,-22.5,472.3,9.9,8.1,-24.4,0.28153325,-0.406414991,0.0753501999,-0.865932188
540,1354288,461470,1.971,-0.731,0.837,11.7,-20.2,514.7,10.1,7.5,-24.3,0.291390728,-0.405865658,0.0795617542,-0.862544633
541,1357067,461470,3.217,-0.028,2.665,-27.9,-23,558.7,10.1,7.5,-24.3,0.301675466,-0.405468917,0.0848719749,-0.858699301
542,1358398,461470,6.325,0.069,3.03,-51.2,-31.2,596.1,10.1,7.5,-24.3,0.312417982,-0.405255287,0.0909146397,-0.854304636
543,1361572,461480,8.008,-0.539,1.895,-68.9,-49,612.6,10.1,7.5,-24.3,0.323282571,-0.405377361,0.0972624897,-0.849482711
544,1364501,461480,8.008,-0.539,1.895,-68.9,-49,612.6,10.1,7.5,-24.3,0.323282571,-0.405377361,0.0972624897,-0.849482711
545,1366966,461480,7.99,2.344,-2.842,-90.6,-244.9,480.5,9.9,7.1,-24.6,0.331888791,-0.40949736,0.101443525,-0.843684194
546,1368450,461480,7.988,6.246,-5.402,-90.6,-244.9,480.5,9.9,7.1,-24.6,0.340433973,-0.41358684,0.10565508,-0.837763604
547,1371436,461490,-0.777,7.941,-7.991,187,-696,6.5,9.9,7.1,-24.6,0.349894711,-0.432813501,0.0964384899,-0.825159459
548,1375196,461490,-0.777,7.941,-7.991,187,-696,6.5,9.9,7.1,-24.6,0.349894711,-0.432813501,0.0964384899,-0.825159459
549,1377315,461490,-2.53,7.995,-3.185,952.8,-568.3,-504.5,6.9,5,-25,0.350901822,-0.436689352,0.0701620533,-0.82534257
550,1379221,461490,-2.736,8.009,-0.973,1258,-134.4,-564.5,6.9,5,-25,0.352763451,-0.430127873,0.0410473952,-0.829950865
551,1381070,461500,-3.059,8.023,0.715,1283.7,392.3,-460.9,6.9,5,-25,0.355937376,-0.413373211,0.0164799951,-0.837916196
552,1383514,461500,-3.9,8.043,1.761,1283.7,392.3,-460.9,6.9,5,-25,0.358775597,-0.39619129,-0.0080568865,-0.845088046
553,1387415,461500,-4.381,5.832,0.231,301.8,995.2,-32.1,9.6,1.3,-22.8,0.360881375,-0.375377667,-0.0061037019,-0.853694266
554,1389687,461500,-4.252,4.186,-0.202,-445.4,891.4,124.2,9.6,1.3,-22.8,0.359569079,-0.36219367,0.0101931822,-0.859859004
555,1391598,461510,-3.909,2.738,-0.213,-1066.2,591.5,173.5,9.6,1.3,-22.8,0.354136784,-0.359294412,0.0361644337,-0.862636189
556,1394641,461510,-3.317,1.783,-0.023,-1412.4,235.7,113.7,9.6,1.3,-22.8,0.344859157,-0.365520188,0.0654927213,-0.862056337
557,1396011,461510,-3.317,1.783,-0.023,-1412.4,235.7,113.7,9.6,1.3,-22.8,0.344859157,-0.365520188,0.0654927213,-0.862056337
558,1398989,461510,-1.091,-0.181,0.388,-1341.2,-270.5,-177.1,11.5,5.5,-23.6,0.331064791,-0.380779443,0.0872219001,-0.858912931
559,1401922,461520,-0.522,-0.515,0.414,-1134.1,-384.4,-309.1,11.5,5.5,-23.6,0.316446425,-0.396618549,0.103091525,-0.855494858
560,1403493,461520,-0.123,-0.674,0.591,-1134.1,-384.4,-309.1,11.5,5.5,-23.6,0.301614429,-0.412182989,0.118900113,-0.851435896
561,1406456,461520,0.744,-1.388,0.497,-941,-431.7,-390.9,11.5,5.5,-23.6,0.286935026,-0.427289651,0.129978332,-0.847437971
562,1409356,461520,1.175,-1.409,0.818,-718,-408.7,-405.7,10.3,10.8,-24.4,0.273842586,-0.44041261,0.136875515,-0.843958861
563,1410812,461530,1.979,-1.747,0.816,-683.1,-367.3,-358.1,10.3,10.8,-24.4,0.261726737,-0.452253792,0.143772698,-0.840388195
564,1414002,461530,2.862,-3.716,-0.731,-686.9,-320.2,-278.6,10.3,10.8,-24.4,0.250801111,-0.462843715,0.151799066,-0.836542863
565,1416865,461530,3.046,-4.557,-0.976,-713.9,-275.8,-166.8,10.3,10.8,-24.4,0.241431928,-0.472273934,0.161626026,-0.832178716
566,1418361,461530,3.8,-6.987,-1.498,-747.3,-242.4,-28.2,7.8,14.6,-24.4,0.234046449,-0.480636006,0.173589282,-0.827051607
567,1421345,461540,3.987,-8.109,-1.707,-787.3,-225.4,122.2,7.8,14.6,-24.4,0.228797266,-0.488174078,0.187902463,-0.820947905
568,1424417,461540,3.262,-8.096,-1.47,-850,-222.2,270.9,7.8,14.6,-24.4,0.225470748,-0.495193335,0.204870754,-0.813592944
569,1425812,461540,1.697,-8.068,-1.249,-928.6,-218.4,405.2,7.8,14.6,-24.4,0.223548082,-0.501693777,0.224585711,-0.80486465
570,1428822,461540,1.697,-8.068,-1.249,-928.6,-218.4,405.2,7.8,14.6,-24.4,0.223548082,-0.501693777,0.224585711,-0.80486465
571,1432253,461550,-0.741,-7.975,0.463,-956.6,-189.4,498.1,8.2,16.7,-23,0.222693564,-0.507126072,0.245857112,-0.795464949
572,1433569,461550,0.356,-3.253,2.07,-575.1,-23.7,442.5,8.2,16.7,-23,0.224127934,-0.511001923,0.280281991,-0.781060213
573,1436474,461550,1.117,-2.889,1.656,-219.6,55.3,312.7,8.2,16.7,-23,0.22666097,-0.509201331,0.287759026,-0.778771325
574,1439468,461550,1.117,-2.889,1.656,-219.6,55.3,312.7,8.2,16.7,-23,0.22666097,-0.509201331,0.287759026,-0.778771325
575,1441037,461560,1.934,-1.667,1.137,294.3,71.9,78.6,7.2,18.8,-22.3,0.230811487,-0.506027406,0.283974731,-0.780999176
576,1444015,461560,2.149,-1.008,0.776,294.3,71.9,78.6,7.2,18.8,-22.3,0.234962004,-0.502792444,0.280190435,-0.783196509
577,1447117,461560,2.354,-0.425,0.117,374.5,46.9,24.1,7.2,18.8,-22.3,0.239204077,-0.499923704,0.274269845,-0.785851619
578,1449030,461560,2.444,-0.119,-0.076,371.7,37.5,12.4,7.2,18.8,-22.3,0.243232521,-0.497238075,0.26822718,-0.788415174
579,1452021,461570,2.444,-0.119,-0.076,371.7,37.5,12.4,7.2,18.8,-22.3,0.243232521,-0.497238075,0.26822718,-0.788415174
580,1453666,461570,2.44,-0.555,0.218,232.6,88.1,87.1,7.8,17.9,-23,0.246742149,-0.493972594,0.265633106,-0.790246284
581,1455945,461570,2.398,-0.663,0.36,147.3,126.8,137.6,7.8,17.9,-23,0.249946593,-0.490188299,0.265266884,-0.791711173
582,1458933,461570,2.212,-0.72,0.676,76.9,149.3,160.3,7.8,17.9,-23,0.255623035,-0.48219245,0.267494736,-0.794061098
583,1462083,461580,2.212,-0.72,0.676,76.9,149.3,160.3,7.8,17.9,-23,0.255623035,-0.48219245,0.267494736,-0.794061098
584,1464350,461580,1.357,-0.862,0.759,155.8,89.7,94.4,8.5,16.9,-22.4,0.258369701,-0.479201636,0.266273995,-0.795403912
585,1467330,461580,1.153,-0.835,0.669,207.5,53.9,68.1,8.5,16.9,-22.4,0.261391034,-0.476699118,0.263679922,-0.796777245
586,1468619,461580,1.082,-0.686,0.525,207.5,53.9,68.1,8.5,16.9,-22.4,0.264442885,-0.474166082,0.261085849,-0.79812006
587,1471994,461590,1.137,-0.59,0.469,245.5,22.9,56.4,8.5,16.9,-22.4,0.267830439,-0.472029786,0.257545701,-0.799432356
588,1474708,461590,1.134,-0.356,0.41,265.7,-19.7,66.2,10.6,15,-22.9,0.271828364,-0.470442824,0.253456221,-0.800317392
589,1476451,461590,1.118,-0.153,0.347,251.8,-29.3,82.3,10.6,15,-22.9,0.2760094,-0.469008454,0.249732963,-0.800897244
590,1479558,461590,1.095,0.015,0.324,226.3,-30.4,102,10.6,15,-22.9,0.280251473,-0.467604602,0.246620075,-0.801202429
591,1481054,461600,1.064,-0.007,0.289,192.2,-24.7,121.1,10.6,15,-22.9,0.284463027,-0.466200751,0.244361705,-0.801232948
592,1484363,461600,1.064,-0.007,0.289,192.2,-24.7,121.1,10.6,15,-22.9,0.284463027,-0.466200751,0.244361705,-0.801232948
593,1487409,461600,0.947,0.083,0.287,120.4,-8.1,138.2,8.9,15,-23.4,0.292153691,-0.463454085,0.242164373,-0.800744652
594,1489660,461600,0.888,0.026,0.269,94.8,-4.5,129.8,8.9,15,-23.4,0.295388653,-0.462233345,0.241798151,-0.800347911
595,1491842,461610,0.748,0.107,0.326,78,-4.6,111.7,8.9,15,-23.4,0.298165838,-0.461226234,0.241523484,-0.799981689
596,1494872,461610,0.748,0.107,0.326,78,-4.6,111.7,8.9,15,-23.4,0.298165838,-0.461226234,0.241523484,-0.799981689
597,1496441,461610,0.35,0.313,0.322,65.1,-6.3,88.9,9.6,14.9,-23.5,0.300393689,-0.460432752,0.241248817,-0.799707022
598,1499760,461610,0.288,0.283,0.366,48.9,-7.2,66.3,9.6,14.9,-23.5,0.302102725,-0.459883419,0.241004669,-0.799432356
599,1501767,461620,0.253,0.283,0.382,24.8,-6.9,45.9,9.6,14.9,-23.5,0.303170873,-0.459608753,0.240974151,-0.799188208
600,1503357,461620,0.151,0.289,0.404,-5.3,-6.4,28.1,9.6,14.9,-23.5,0.303659169,-0.459608753,0.241309854,-0.798913541
601,1507850,461620,0.151,0.289,0.404,-5.3,-6.4,28.1,9.6,14.9,-23.5,0.303659169,-0.459608753,0.241309854,-0.798913541
602,1510164,461620,0.211,0.187,0.559,-52.1,-10.1,0.4,9.7,14.7,-23.7,0.303201392,-0.460127567,0.242164373,-0.798547319
603,1512296,461630,0.246,0.171,0.606,-47.8,-20.5,-14.4,9.7,14.7,-23.7,0.301919614,-0.461561937,0.243507187,-0.797784356
604,1514847,461630,0.366,-0.006,0.545,-32.5,-24.3,-15.9,9.7,14.7,-23.7,0.301461837,-0.462294382,0.243751335,-0.797479171
605,1516728,461630,0.366,-0.006,0.545,-32.5,-24.3,-15.9,9.7,14.7,-23.7,0.301461837,-0.462294382,0.243751335,-0.797479171
606,1519037,461630,0.561,-0.162,0.534,-7.2,-27.9,-11.4,9.9,15.1,-23.6,0.301339763,-0.462874233,0.243568224,-0.797204505
607,1521128,461640,0.604,-0.217,0.533,-7.2,-27.9,-11.4,9.9,15.1,-23.6,0.30118717,-0.463484603,0.243385113,-0.796960356
608,1524685,461640,0.662,-0.265,0.532,-1.7,-29.2,-9.5,9.9,15.1,-23.6,0.30118717,-0.464033937,0.243140965,-0.796716208
609,1526156,461640,0.654,-0.265,0.52,-0.2,-29.7,-8.3,9.9,15.1,-23.6,0.30118717,-0.464613788,0.242866298,-0.79647206
610,1528468,461640,0.646,-0.292,0.493,-12,-28.5,-4.5,9.8,14.4,-23.4,0.301126133,-0.46519364,0.24283578,-0.796166875
611,1530824,461650,0.666,-0.308,0.489,-25,-26.9,-1.1,9.8,14.4,-23.4,0.301004059,-0.465834529,0.243110446,-0.795770135
612,1535739,461650,0.712,-0.321,0.488,-40.8,-24.7,2.3,9.8,14.4,-23.4,0.300759911,-0.466536454,0.24365978,-0.795281838
613,1536084,461650,0.74,-0.353,0.488,-40.8,-24.7,2.3,9.8,14.4,-23.4,0.300515763,-0.467207862,0.244239631,-0.794793542
614,1539910,461650,0.809,-0.502,0.471,-71.5,-17.8,8,9.5,14.4,-23.6,0.300027467,-0.467940306,0.245429853,-0.794183172
615,1542337,461660,0.84,-0.585,0.463,-82.4,-12.9,9.9,9.5,14.4,-23.6,0.299417096,-0.46867275,0.246894742,-0.793542283
616,1544589,461660,0.856,-0.663,0.459,-87.7,-7.8,11.3,9.5,14.4,-23.6,0.298745689,-0.469313639,0.248481704,-0.792901395
617,1546716,461660,0.851,-0.714,0.455,-86.3,-3.4,11.7,9.5,14.4,-23.6,0.298104801,-0.469862972,0.250068667,-0.792321543
618,1548738,461660,0.851,-0.714,0.455,-86.3,-3.4,11.7,9.5,14.4,-23.6,0.298104801,-0.469862972,0.250068667,-0.792321543
619,1551228,461670,0.812,-0.808,0.409,-78.8,-0.6,11.1,9.6,14.6,-23.3,0.29749443,-0.47032075,0.251533555,-0.791802728
620,1553430,461670,0.8,-0.792,0.382,-67.8,0.2,9.4,9.6,14.6,-23.3,0.296945097,-0.47071749,0.252815332,-0.791375469
621,1555913,461670,0.827,-0.789,0.326,-48.7,-3,4.7,9.6,14.6,-23.3,0.296090579,-0.471388897,0.25470748,-0.790673544
622,1558417,461670,0.827,-0.789,0.326,-48.7,-3,4.7,9.6,14.6,-23.3,0.296090579,-0.471388897,0.25470748,-0.790673544
623,1562550,461680,0.827,-0.789,0.326,-48.7,-3,4.7,9.6,14.6,-23.3,0.296090579,-0.471388897,0.25470748,-0.790673544
624,1564791,461680,0.991,-0.749,0.21,-56.3,-11,-0.2,9.8,15.2,-23.4,0.295144505,-0.472426527,0.256447035,-0.789880062
625,1567454,461680,1.037,-0.738,0.174,-63.1,-12.6,-2.3,9.8,15.2,-23.4,0.294503616,-0.473036897,0.257423627,-0.789422285
626,1569676,461680,1.08,-0.723,0.157,-67.3,-12.8,-4.8,9.8,15.2,-23.4,0.293801691,-0.473738823,0.258430738,-0.788933988
627,1571730,461690,1.08,-0.723,0.157,-67.3,-12.8,-4.8,9.8,15.2,-23.4,0.293801691,-0.473738823,0.258430738,-0.788933988
628,1573704,461690,1.143,-0.678,0.16,-67.7,-11.6,-7.7,8.9,15.7,-23.2,0.293038728,-0.47441023,0.259468368,-0.788476211
629,1575977,461690,1.166,-0.651,0.163,-64.3,-8.6,-10.8,8.9,15.7,-23.2,0.292245247,-0.4750206,0.260383923,-0.78807947
630,1580084,461690,1.221,-0.597,0.186,-58.6,-4.6,-14.2,8.9,15.7,-23.2,0.291421247,-0.475569933,0.261238441,-0.787804804
631,1582105,461700,1.245,-0.566,0.197,-52.3,-0.4,-17.9,8.9,15.7,-23.2,0.290566729,-0.475997192,0.261940367,-0.787621693
632,1583685,461700,1.238,-0.503,0.236,-42.8,6.9,-25.4,10.3,15.9,-22.4,0.289620655,-0.476302377,0.262459181,-0.787591174
633,1585826,461700,1.234,-0.491,0.248,-40.3,10.6,-28.8,10.3,15.9,-22.4,0.288644063,-0.476546525,0.262916959,-0.787652211
634,1589089,461700,1.218,-0.456,0.275,-40.3,10.6,-28.8,10.3,15.9,-22.4,0.28766747,-0.476790674,0.263374737,-0.787713248
635,1590976,461710,1.184,-0.416,0.292,-38.7,14.8,-31.9,10.3,15.9,-22.4,0.286629841,-0.476943266,0.263801996,-0.787835322
636,1594500,461710,1.114,-0.344,0.34,-35.9,25.8,-37.4,10.2,15.7,-22.9,0.285470138,-0.476943266,0.264198737,-0.788140507
637,1596806,461710,1.087,-0.293,0.364,-34.2,32.5,-40.3,10.2,15.7,-22.9,0.284249397,-0.476821192,0.264564959,-0.788537248
638,1598740,461710,1.048,-0.249,0.384,-32.6,39.9,-43.9,10.2,15.7,-22.9,0.282906583,-0.476607562,0.264900662,-0.789025544
639,1601142,461720,0.993,-0.209,0.393,-31.6,47.9,-48.8,10.2,15.7,-22.9,0.281472213,-0.47624134,0.265236366,-0.789666433
640,1603336,461720,0.993,-0.209,0.393,-31.6,47.9,-48.8,10.2,15.7,-22.9,0.281472213,-0.47624134,0.265236366,-0.789666433
641,1607300,461720,0.857,-0.136,0.403,-31.6,56.3,-54.6,10.5,15.9,-22.7,0.279854732,-0.475783563,0.265572069,-0.790398877
642,1609584,461720,0.834,-0.112,0.403,-32.4,64.5,-61,10.5,15.9,-22.7,0.278115177,-0.47523423,0.265877255,-0.791253395
643,1612094,461730,0.822,-0.077,0.396,-35.7,77.4,-74.5,10.5,15.9,-22.7,0.274056215,-0.473891415,0.266518143,-0.793237098
644,1614346,461730,0.822,-0.077,0.396,-35.7,77.4,-74.5,10.5,15.9,-22.7,0.274056215,-0.473891415,0.266518143,-0.793237098
645,1616194,461730,0.822,-0.077,0.396,-35.7,77.4,-74.5,10.5,15.9,-22.7,0.274056215,-0.473891415,0.266518143,-0.793237098
646,1619990,461730,0.845,-0.046,0.379,-39.4,83.2,-87.7,10.7,16.7,-21.8,0.271645253,-0.473189489,0.26679281,-0.794396802
647,1621597,461740,0.837,-0.078,0.337,-41.9,84.9,-101.5,10.7,16.7,-21.8,0.266396069,-0.471907712,0.26718955,-0.796807764
648,1623792,461740,0.837,-0.105,0.321,-41.8,85.8,-108.8,10.7,16.7,-21.8,0.263588366,-0.471266823,0.267311625,-0.798059023
649,1625965,461740,0.837,-0.105,0.321,-41.8,85.8,-108.8,10.7,16.7,-21.8,0.263588366,-0.471266823,0.267311625,-0.798059023
650,1629492,461740,0.809,-0.156,0.267,-40.3,86.8,-116.4,9.2,17,-22.3,0.260628071,-0.470686972,0.267311625,-0.799401837
651,1631058,461750,0.782,-0.175,0.232,-37,87.6,-124.3,9.2,17,-22.3,0.25757622,-0.470076601,0.267159032,-0.80077517
652,1635068,461750,0.727,-0.205,0.182,-32,88.3,-132.6,9.2,17,-22.3,0.254371776,-0.46949675,0.266853847,-0.802240059
653,1636570,461750,0.715,-0.213,0.163,-25.8,88.5,-141.3,9.2,17,-22.3,0.251136814,-0.46888638,0.266365551,-0.803765984
654,1639061,461750,0.672,-0.216,0.132,-13.2,86.6,-160.3,10.8,17.5,-21.8,0.247688223,-0.468367565,0.265419477,-0.805444502
655,1641123,461760,0.644,-0.224,0.117,-9.1,84.2,-170.8,10.8,17.5,-21.8,0.244117557,-0.467940306,0.264290292,-0.807184057
656,1645095,461760,0.628,-0.228,0.106,-9.1,84.2,-170.8,10.8,17.5,-21.8,0.240516373,-0.467482528,0.263161107,-0.808893094
657,1646970,461760,0.629,-0.212,0.11,-7.3,80.8,-182.2,10.8,17.5,-21.8,0.236762597,-0.467146825,0.261848811,-0.810632649
658,1648453,461760,0.605,-0.188,0.13,-10.4,69.9,-208.5,11,17.4,-21.2,0.232551042,-0.467146825,0.26023133,-0.812341685
659,1652715,461770,0.59,-0.196,0.13,-15.9,62,-223,11,17.4,-21.2,0.22809534,-0.467390973,0.258583331,-0.814020203
660,1654531,461770,0.574,-0.207,0.134,-24.2,52.5,-237,11,17.4,-21.2,0.223334452,-0.467909787,0.256843776,-0.815576647
661,1657085,461770,0.574,-0.207,0.134,-35,41,-249.8,11,17.4,-21.2,0.218298898,-0.468733787,0.255134739,-0.817011017
662,1659300,461770,0.574,-0.207,0.134,-35,41,-249.8,11,17.4,-21.2,0.218298898,-0.468733787,0.255134739,-0.817011017
663,1661553,461780,0.625,-0.274,0.137,-47.8,27.6,-260.5,11,18.4,-21.3,0.212988678,-0.46989349,0.253456221,-0.818262276
664,1663577,461780,0.718,-0.323,0.151,-74.4,-2.9,-274.8,11,18.4,-21.3,0.201818903,-0.473342082,0.250312815,-0.820062868
665,1666733,461780,0.757,-0.323,0.178,-85.8,-17.8,-277.9,11,18.4,-21.3,0.196081423,-0.475539415,0.248908963,-0.820612201
666,1670089,461780,0.757,-0.323,0.178,-85.8,-17.8,-277.9,11,18.4,-21.3,0.196081423,-0.475539415,0.248908963,-0.820612201
667,1672259,461790,0.894,-0.388,0.164,-101.6,-43.6,-273.3,11,18.4,-21.3,0.190343944,-0.478225043,0.247688223,-0.820764794
668,1674364,461790,0.96,-0.397,0.182,-106.3,-55.3,-265,11,18.4,-21.3,0.184789575,-0.481093783,0.246589557,-0.820703757
669,1676779,461790,1.007,-0.421,0.193,-109.3,-66,-253,11,18.4,-21.3,0.179448836,-0.484054079,0.245612964,-0.82042909
670,1678563,461790,1.046,-0.461,0.181,-109.3,-66,-253,11,18.4,-21.3,0.174138615,-0.487014374,0.244636372,-0.820123905
671,1680850,461800,1.046,-0.461,0.181,-109.3,-66,-253,11,18.4,-21.3,0.174138615,-0.487014374,0.244636372,-0.820123905
672,1683843,461800,1.058,-0.508,0.173,-110.8,-83,-222.1,8.4,20,-20.8,0.169408246,-0.490096744,0.243934446,-0.819483016
673,1687487,461800,1.155,-0.537,0.155,-105.2,-90.3,-191.9,8.4,20,-20.8,0.160954619,-0.496169927,0.242866298,-0.817835017
674,1690057,461800,1.167,-0.514,0.183,-98.7,-89.2,-180,8.4,20,-20.8,0.157139805,-0.499069185,0.242347484,-0.816980499
675,1692320,461810,1.167,-0.514,0.183,-98.7,-89.2,-180,8.4,20,-20.8,0.157139805,-0.499069185,0.242347484,-0.816980499
676,1693595,461810,1.206,-0.51,0.19,-90.5,-84.7,-170.1,7.3,20.8,-20.4,0.153538621,-0.501785333,0.241828669,-0.816156499
677,1695863,461810,1.175,-0.459,0.202,-82.4,-76.8,-161.8,7.3,20.8,-20.4,0.150181585,-0.504287851,0.241248817,-0.815393536
678,1699561,461810,1.167,-0.424,0.19,-71.1,-55.9,-148.6,7.3,20.8,-20.4,0.143772698,-0.508529923,0.240119633,-0.814264351
679,1702367,461820,1.167,-0.424,0.19,-71.1,-55.9,-148.6,7.3,20.8,-20.4,0.143772698,-0.508529923,0.240119633,-0.814264351
680,1704644,461820,1.144,-0.381,0.167,-68.7,-44.9,-143.5,7,21.3,-19.5,0.140720847,-0.510299997,0.239600818,-0.813837092
681,1706853,461820,1.097,-0.368,0.164,-68.8,-34.4,-139.4,7,21.3,-19.5,0.137668996,-0.511825922,0.239173559,-0.813531907
682,1708954,461820,1.097,-0.368,0.164,-68.8,-34.4,-139.4,7,21.3,-19.5,0.137668996,-0.511825922,0.239173559,-0.813531907
683,1710967,461830,1.046,-0.348,0.134,-76,-14,-135.9,7,21.3,-19.5,0.131382183,-0.514358959,0.238624226,-0.813135166
684,1714130,461830,0.999,-0.312,0.119,-81.4,-4.6,-136.7,6.7,21.6,-19.1,0.128055666,-0.515396588,0.238502152,-0.813043611
685,1716221,461830,0.952,-0.296,0.108,-87,3,-139.3,6.7,21.6,-19.1,0.124576556,-0.516312143,0.238502152,-0.813013092
686,1718456,461830,0.917,-0.272,0.097,-98.1,12.4,-149.3,6.7,21.6,-19.1,0.117130039,-0.517960143,0.238624226,-0.813013092
687,1721608,461840,0.917,-0.272,0.097,-98.1,12.4,-149.3,6.7,21.6,-19.1,0.117130039,-0.517960143,0.238624226,-0.813013092
688,1723892,461840,0.917,-0.272,0.097,-98.1,12.4,-149.3,6.7,21.6,-19.1,0.117130039,-0.517960143,0.238624226,-0.813013092
689,1725922,461840,0.831,-0.302,0.055,-110.6,13.3,-162.4,6.1,23,-22.3,0.112887967,-0.51884518,0.238776818,-0.813013092
690,1728942,461840,0.835,-0.314,0.032,-121.5,5.4,-177.2,6.1,23,-22.3,0.10400708,-0.520950957,0.239112522,-0.812768944
691,1732192,461850,0.866,-0.322,0.027,-124.7,-1,-185.8,6.1,23,-22.3,0.0992767113,-0.522202216,0.239204077,-0.812524796
692,1734451,461850,0.866,-0.322,0.027,-124.7,-1,-185.8,6.1,23,-22.3,0.0992767113,-0.522202216,0.239204077,-0.812524796
693,1736552,461850,0.921,-0.327,0.011,-126.2,-8.2,-195.1,6,23.4,-19,0.0944242683,-0.523636586,0.239204077,-0.812158574
694,1739496,461850,0.948,-0.335,0.01,-126.2,-14.9,-205.1,6,23.4,-19,0.0894192328,-0.525223548,0.239051485,-0.811761834
695,1740925,461860,1.026,-0.332,0.036,-124,-23.3,-224.8,6,23.4,-19,0.079012421,-0.528733177,0.238349559,-0.810754723
696,1744282,461860,1.026,-0.332,0.036,-124,-23.3,-224.8,6,23.4,-19,0.079012421,-0.528733177,0.238349559,-0.810754723
697,1746402,461860,1.042,-0.325,0.047,-123.2,-24.9,-233.4,5.1,24.3,-19.3,0.0735801263,-0.530594806,0.237769707,-0.810235908
698,1748335,461860,1.058,-0.321,0.059,-123.3,-25.7,-240.4,5.1,24.3,-19.3,0.0680257576,-0.532486953,0.237128819,-0.809656056
699,1751110,461870,1.097,-0.302,0.082,-124.5,-26.8,-245.2,5.1,24.3,-19.3,0.0623798334,-0.534409619,0.236426893,-0.809045686
700,1754004,461870,1.109,-0.294,0.089,-126.8,-28.4,-247.1,5.1,24.3,-19.3,0.0566728721,-0.536362804,0.235755486,-0.808374279
701,1756837,461870,1.151,-0.299,0.069,-136.2,-32.4,-242.8,4.1,24.7,-19.4,0.0509659108,-0.538346507,0.23526719,-0.807580798
702,1758288,461870,1.179,-0.292,0.053,-143.7,-33.2,-237.6,4.1,24.7,-19.4,0.0452589496,-0.540299692,0.234962004,-0.806695761
703,1761196,461880,1.21,-0.289,0.036,-143.7,-33.2,-237.6,4.1,24.7,-19.4,0.0395519883,-0.542222358,0.234656819,-0.805810724
704,1763466,461880,1.218,-0.297,0.021,-152.7,-31.5,-231.3,4.1,24.7,-19.4,0.033845027,-0.544083987,0.234565264,-0.804834132
705,1767042,461880,1.218,-0.297,0.021,-152.7,-31.5,-231.3,4.1,24.7,-19.4,0.033845027,-0.544083987,0.234565264,-0.804834132
706,1768435,461880,1.1,-0.451,-0.019,-181.1,4,-210.7,3.7,25.5,-18.8,0.0221869564,-0.54667806,0.23566393,-0.803155614
707,1771436,461890,1.049,-0.474,-0.018,-186.7,25.3,-204.3,3.7,25.5,-18.8,0.016235847,-0.547349467,0.236518448,-0.802606281
708,1774238,461890,1.025,-0.497,-0.017,-186.7,25.3,-204.3,3.7,25.5,-18.8,0.0103152562,-0.548020875,0.237342448,-0.801995911
709,1777091,461890,1.025,-0.497,-0.017,-186.7,25.3,-204.3,3.7,25.5,-18.8,0.0103152562,-0.548020875,0.237342448,-0.801995911
710,1778565,461890,1.01,-0.543,0.009,-177.2,81.7,-183.4,2.3,26.3,-20.1,0.00454725791,-0.547563097,0.238258003,-0.802087466
711,1780845,461900,1.01,-0.543,0.009,-177.2,81.7,-183.4,2.3,26.3,-20.1,0.00115970336,0.547105319,-0.239173559,0.802148503
712,1784755,461900,1.014,-0.535,0.029,-168.9,91.5,-174.3,2.3,26.3,-20.1,0.00671407208,0.546403394,-0.240058596,0.802331614
713,1787000,461900,1.041,-0.52,0.063,-160.5,96.7,-165.4,2.3,26.3,-20.1,0.0120242927,0.545548875,-0.240882595,0.802606281
714,1789224,461900,1.041,-0.52,0.063,-160.5,96.7,-165.4,2.3,26.3,-20.1,0.0120242927,0.545548875,-0.240882595,0.802606281
715,1791194,461910,1.057,-0.567,0.087,-147,94,-147.2,1.9,26.9,-18.7,0.0217902158,0.543656728,-0.242408521,0.803216651
716,1794755,461910,1.084,-0.579,0.09,-147.4,90.7,-143.8,1.9,26.9,-18.7,0.0265511032,0.542741173,-0.243263039,0.80343028
717,1796789,461910,1.115,-0.58,0.097,-147.4,90.7,-143.8,1.9,26.9,-18.7,0.0312814722,0.541825617,-0.244087039,0.803613392
718,1798913,461910,1.115,-0.58,0.097,-147.4,90.7,-143.8,1.9,26.9,-18.7,0.0312814722,0.541825617,-0.244087039,0.803613392
719,1801104,461920,1.147,-0.6,0.109,-149.6,83,-139.7,2,27.5,-18.3,0.0359202857,0.541001617,-0.245002594,0.803704947
720,1803439,461920,1.131,-0.611,0.113,-149.1,78.9,-139.4,2,27.5,-18.3,0.0405590991,0.540238655,-0.245918149,0.803704947
721,1805990,461920,1.139,-0.6,0.132,-146.9,74.6,-140.2,2,27.5,-18.3,0.045167394,0.539567248,-0.246772668,0.803674429
722,1808589,461920,1.151,-0.604,0.12,-143.3,70.4,-141.6,2,27.5,-18.3,0.0497146519,0.538926359,-0.24753563,0.803582873
723,1811228,461930,1.186,-0.601,0.092,-139.4,66.4,-142.7,2,27.5,-18.3,0.0542313913,0.538377026,-0.248237556,0.803460799
724,1814672,461930,1.186,-0.616,0.077,-136.2,63.3,-142.6,2,27.5,-18.3,0.0586260567,0.53788873,-0.248878445,0.803277688
725,1816616,461930,1.174,-0.624,0.069,-134,62.1,-140.6,2,27.5,-18.3,0.0630512406,0.537369915,-0.249488815,0.803094577
726,1818316,461930,1.15,-0.639,0.058,-132.1,63.1,-136.7,2,27.5,-18.3,0.0673238319,0.536820582,-0.250099185,0.802911466
727,1821918,461940,1.084,-0.65,0.071,-129.1,66.2,-131.3,2,27.5,-18.3,0.0715048677,0.536179693,-0.250740074,0.802789392
728,1823405,461940,1.068,-0.622,0.087,-123.6,70.2,-125.5,2,27.5,-18.3,0.075533311,0.535447249,-0.251319926,0.802728355
729,1827583,461940,1.041,-0.586,0.111,-115.5,73.5,-120,2,27.5,-18.3,0.0793786431,0.534623249,-0.251808222,0.802758873
730,1829672,461940,1.03,-0.539,0.134,-105.9,75.1,-115.5,2,27.5,-18.3,0.0830713828,0.533768731,-0.252204962,0.802850429
731,1831867,461950,1.03,-0.539,0.134,-105.9,75.1,-115.5,2,27.5,-18.3,0.0830713828,0.533768731,-0.252204962,0.802850429
732,1834299,461950,0.952,-0.526,0.132,-91.5,71.9,-106.9,0.9,29.5,-16.5,0.0863979003,0.532914212,-0.252418592,0.802972503
733,1836231,461950,0.885,-0.525,0.121,-89.9,69.1,-102.1,0.9,29.5,-16.5,0.0896023438,0.532090213,-0.25266274,0.803094577
734,1838440,461950,0.792,-0.469,0.115,-92.3,68.7,-96.2,0.9,29.5,-16.5,0.0958891568,0.530411695,-0.253364666,0.803277688
735,1841180,461960,0.792,-0.469,0.115,-92.3,68.7,-96.2,0.9,29.5,-16.5,0.0958891568,0.530411695,-0.253364666,0.803277688
736,1843438,461960,0.71,-0.397,0.116,-91.8,72,-97,0.7,29.4,-16.3,0.0990630818,0.529496139,-0.253700369,0.803369243
737,1846929,461960,0.679,-0.385,0.125,-89.9,76.5,-99.3,0.7,29.4,-16.3,0.102267525,0.528489029,-0.253944517,0.803552355
738,1848615,461960,0.644,-0.384,0.125,-86,83.4,-105.4,0.7,29.4,-16.3,0.108798486,0.526352733,-0.254249702,0.804010132
739,1852185,461970,0.644,-0.384,0.125,-86,83.4,-105.4,0.7,29.4,-16.3,0.108798486,0.526352733,-0.254249702,0.804010132
740,1854200,461970,0.667,-0.381,0.125,-84.8,83.7,-109.1,0.4,29.5,-15.2,0.112155522,0.525284585,-0.254280221,0.804223762
741,1856913,461970,0.706,-0.358,0.124,-83.7,81.2,-114.1,0.4,29.5,-15.2,0.115573595,0.524307993,-0.254219184,0.804406873
742,1858543,461970,0.738,-0.358,0.128,-82.1,76,-120.3,0.4,29.5,-15.2,0.119052705,0.523422956,-0.25409711,0.804498428
743,1862233,461980,0.8,-0.379,0.13,-80,68.8,-127,0.4,29.5,-15.2,0.122562334,0.522690512,-0.25388348,0.804528947
744,1864508,461980,0.823,-0.387,0.122,-77.7,60.5,-133,0.1,29.4,-15.2,0.126133,0.522171697,-0.253547777,0.804406873
745,1866770,461980,0.898,-0.345,0.121,-75.2,51.5,-137.4,0.1,29.4,-15.2,0.129673147,0.521805475,-0.253181555,0.804193243
746,1868817,461980,0.941,-0.315,0.135,-72.5,42,-139.8,0.1,29.4,-15.2,0.133182775,0.521622364,-0.252723777,0.803888058
747,1871002,461990,0.992,-0.273,0.15,-69.9,32.3,-140.2,0.1,29.4,-15.2,0.136631367,0.521622364,-0.252265999,0.803460799
748,1874726,461990,1.098,-0.216,0.175,-68.3,15.6,-135.6,-0.6,31.5,-13.1,0.139866329,0.521897031,-0.251869259,0.802850429
749,1877039,461990,1.129,-0.169,0.183,-68.3,15.6,-135.6,-0.6,31.5,-13.1,0.143101291,0.522171697,-0.251472518,0.802240059
750,1879408,461990,1.156,-0.146,0.19,-70.7,10.3,-131.7,-0.6,31.5,-13.1,0.146275216,0.522476882,-0.251197851,0.801538133
751,1881077,462000,1.164,-0.107,0.194,-75,7.5,-127.2,-0.6,31.5,-13.1,0.149388104,0.522812586,-0.25101474,0.800805689
752,1883877,462000,1.164,-0.107,0.194,-75,7.5,-127.2,-0.6,31.5,-13.1,0.149388104,0.522812586,-0.25101474,0.800805689
753,1887008,462000,1.246,-0.066,0.165,-84.7,7.8,-118.8,-0.9,30.3,-15.3,0.152470473,0.523026215,-0.251106296,0.800042726
754,1888952,462000,1.258,-0.035,0.164,-88.4,9.2,-116,-0.9,30.3,-15.3,0.155583361,0.523209326,-0.251319926,0.799279763
755,1892268,462010,1.274,-0.031,0.148,-92.9,12.9,-113.9,-0.9,30.3,-15.3,0.161778619,0.523422956,-0.251808222,0.797753838
756,1894239,462010,1.274,-0.031,0.148,-92.9,12.9,-113.9,-0.9,30.3,-15.3,0.161778619,0.523422956,-0.251808222,0.797753838
757,1897225,462010,1.25,-0.035,0.129,-94.8,15.8,-113.1,-1.2,30.5,-15,0.164922025,0.523422956,-0.252113407,0.796990875
758,1899213,462010,1.231,-0.062,0.114,-97.6,19.5,-111.6,-1.2,30.5,-15,0.16809595,0.5233314,-0.252479629,0.796288949
759,1900776,462020,1.207,-0.101,0.103,-101.6,23.5,-109.5,-1.2,30.5,-15,0.171269875,0.523148289,-0.252906888,0.795587024
760,1904593,462020,1.183,-0.132,0.084,-106.5,26.9,-107.5,-1.2,30.5,-15,0.174504837,0.522873623,-0.253425703,0.794885098
761,1906899,462020,1.128,-0.225,0.061,-111.4,29.2,-106.1,-1.7,31,-14.7,0.177800836,0.522537919,-0.254036073,0.794213691
762,1908931,462020,1.112,-0.263,0.058,-115.4,30.5,-105.1,-1.7,31,-14.7,0.181096835,0.522141179,-0.25470748,0.793511765
763,1911920,462030,1.085,-0.275,0.05,-118.1,30.8,-104,-1.7,31,-14.7,0.184423353,0.521713919,-0.255439924,0.792779321
764,1913631,462030,1.077,-0.29,0.055,-119.4,30.5,-102.6,-1.7,31,-14.7,0.187719352,0.52128666,-0.256233406,0.792046876
765,1915882,462030,1.058,-0.309,0.067,-120.6,30,-100.6,-2,31,-14.3,0.190984832,0.520828883,-0.257026887,0.791283914
766,1919774,462030,1.058,-0.309,0.067,-122.6,29.7,-98,-2,31,-14.3,0.194250313,0.520340587,-0.257911924,0.790520951
767,1921793,462040,1.05,-0.301,0.086,-126.3,29.7,-95.1,-2,31,-14.3,0.197485275,0.519821772,-0.258888516,0.789757988
768,1924796,462040,1.034,-0.297,0.102,-131.6,30.2,-92.3,-2,31,-14.3,0.200750755,0.519272439,-0.259987182,0.788933988
769,1926153,462040,1.019,-0.316,0.103,-147,32.6,-87.5,-2.7,33,-11.5,0.204107791,0.518539995,-0.261360515,0.78807947
770,1929594,462040,1.003,-0.336,0.107,-147,32.6,-87.5,-2.7,33,-11.5,0.207464827,0.517838069,-0.262764367,0.787224952
771,1931485,462050,0.983,-0.363,0.103,-156.5,34.7,-85.3,-2.7,33,-11.5,0.2108829,0.517014069,-0.264320811,0.786339915
772,1934392,462050,0.956,-0.389,0.1,-166,37.3,-83.4,-2.7,33,-11.5,0.214392529,0.516067995,-0.266060366,0.785393841
773,1936815,462050,0.956,-0.389,0.1,-166,37.3,-83.4,-2.7,33,-11.5,0.214392529,0.516067995,-0.266060366,0.785393841
774,1938868,462050,0.956,-0.389,0.1,-166,37.3,-83.4,-2.7,33,-11.5,0.214392529,0.516067995,-0.266060366,0.785393841
775,1940907,462060,0.866,-0.493,0.106,-184.7,47.3,-75.7,-3.2,32.6,-12,0.221961119,0.51493881,-0.270088809,0.782647176
776,1944810,462060,0.846,-0.509,0.106,-184.7,47.3,-75.7,-3.2,32.6,-12,0.225623341,0.513687551,-0.272164068,0.78173162
777,1946188,462060,0.831,-0.516,0.107,-183.7,47.9,-74.1,-3.2,32.6,-12,0.229224525,0.512405774,-0.274239326,0.780785546
778,1948415,462060,0.831,-0.516,0.107,-183.7,47.9,-74.1,-3.2,32.6,-12,0.229224525,0.512405774,-0.274239326,0.780785546
779,1951660,462070,0.799,-0.543,0.115,-178.4,45.6,-72.6,-3.6,33.1,-11.2,0.232734153,0.511154515,-0.276223029,0.779869991
780,1953415,462070,0.799,-0.574,0.119,-172.5,39,-71.9,-3.6,33.1,-11.2,0.239539781,0.508835108,-0.280129398,0.777916807
781,1956738,462070,0.776,-0.586,0.119,-172.5,39,-71.9,-3.6,33.1,-11.2,0.242927335,0.507705924,-0.282052065,0.776909696
782,1958863,462070,0.776,-0.586,0.119,-172.5,39,-71.9,-3.6,33.1,-11.2,0.242927335,0.507705924,-0.282052065,0.776909696
783,1961107,462080,0.748,-0.632,0.112,-166.4,30.3,-69.7,-3.7,33.7,-10.5,0.246131779,0.50675985,-0.283944212,0.775872066
784,1963314,462080,0.682,-0.615,0.106,-156.9,21,-65.5,-3.7,33.7,-10.5,0.252204962,0.505050813,-0.287575915,0.773644215
785,1966700,462080,0.666,-0.592,0.114,-150.5,16,-63.2,-3.7,33.7,-10.5,0.255012665,0.504348888,-0.289345988,0.772545549
786,1969713,462080,0.666,-0.592,0.114,-150.5,16,-63.2,-3.7,33.7,-10.5,0.255012665,0.504348888,-0.289345988,0.772545549
787,1971047,462090,0.655,-0.587,0.13,-143.9,10.9,-60.7,-3.9,34,-9.9,0.257698294,0.503738517,-0.291055025,0.771416364
788,1974810,462090,0.651,-0.576,0.141,-138.1,6.4,-57.9,-3.9,34,-9.9,0.26023133,0.503219703,-0.292703024,0.770256661
789,1976911,462090,0.655,-0.572,0.173,-130,0.6,-51.1,-3.9,34,-9.9,0.264931181,0.502334666,-0.295937986,0.767998291
790,1978343,462090,0.655,-0.572,0.173,-130,0.6,-51.1,-3.9,34,-9.9,0.264931181,0.502334666,-0.295937986,0.767998291
791,1980975,462100,0.644,-0.536,0.181,-127.1,-0.4,-47.9,-4,33.4,-8.5,0.267128513,0.501907407,-0.297555467,0.766899625
792,1984393,462100,0.651,-0.532,0.184,-124.6,-0.9,-44.9,-4,33.4,-8.5,0.269234291,0.501480148,-0.29914243,0.765831477
793,1985820,462100,0.667,-0.544,0.188,-122.4,-1.1,-42.2,-4,33.4,-8.5,0.271279031,0.501052889,-0.300729392,0.764763329
794,1988636,462100,0.694,-0.545,0.191,-120.6,-1.2,-39.8,-4,33.4,-8.5,0.273232215,0.500625629,-0.302316355,0.7637257
795,1991057,462110,0.694,-0.545,0.191,-120.6,-1.2,-39.8,-4,33.4,-8.5,0.273232215,0.500625629,-0.302316355,0.7637257
796,1994287,462110,0.706,-0.565,0.183,-117,-0.4,-35,-4.5,34.1,-7.8,0.275093844,0.500167852,-0.303872799,0.76268807
797,1997486,462110,0.694,-0.541,0.184,-112.1,2.2,-28.9,-4.5,34.1,-7.8,0.278603473,0.499160741,-0.306985687,0.760887478
798,1999336,462110,0.69,-0.545,0.176,-112.1,2.2,-28.9,-4.5,34.1,-7.8,0.28031251,0.498641926,-0.308511612,0.759971923
799,2001005,462120,0.69,-0.545,0.176,-112.1,2.2,-28.9,-4.5,34.1,-7.8,0.28031251,0.498641926,-0.308511612,0.759971923
800,2004495,462120,0.683,-0.537,0.176,-107.9,5,-22,-4.7,34.9,-6.8,0.281899472,0.498031556,-0.310037538,0.759147923
801,2006441,462120,0.678,-0.556,0.156,-107.2,5.5,-19.4,-4.7,34.9,-6.8,0.283425398,0.497421186,-0.311563463,0.75838496
802,2008758,462120,0.67,-0.564,0.129,-107.4,3.6,-15.9,-4.7,34.9,-6.8,0.286355174,0.496169927,-0.314676351,0.756797998
803,2011738,462130,0.67,-0.564,0.129,-107.4,3.6,-15.9,-4.7,34.9,-6.8,0.286355174,0.496169927,-0.314676351,0.756797998
804,2013522,462130,0.678,-0.588,0.137,-106.6,1.4,-14.8,-5.3,34.6,-6.6,0.287759026,0.495559557,-0.316263314,0.755973998
805,2017278,462130,0.678,-0.592,0.137,-104.9,-0.7,-13.7,-5.3,34.6,-6.6,0.289132359,0.495010224,-0.317850276,0.755149998
806,2019362,462130,0.678,-0.6,0.141,-102,-2.9,-12.6,-5.3,34.6,-6.6,0.290414136,0.494521928,-0.319437239,0.754325999
807,2021642,462140,0.682,-0.607,0.149,-98.4,-4.7,-11.2,-5.3,34.6,-6.6,0.291634877,0.494033631,-0.320963164,0.753532517
808,2023787,462140,0.698,-0.627,0.156,-94.5,-6.4,-9.6,-5.3,34.6,-6.6,0.292764061,0.493606372,-0.322458571,0.752739036
809,2026411,462140,0.706,-0.631,0.168,-90.8,-7.9,-8.1,-5.3,34.6,-6.6,0.293801691,0.493209632,-0.323892941,0.751945555
810,2029674,462140,0.71,-0.639,0.18,-87.3,-9.6,-6.5,-5.3,34.6,-6.6,0.294778283,0.492873928,-0.325327311,0.751182592
811,2031942,462150,0.729,-0.643,0.183,-84.1,-11.5,-5,-5.3,34.6,-6.6,0.295693838,0.492538224,-0.326731162,0.750450148
812,2033729,462150,0.761,-0.64,0.21,-78,-15.5,-2,-5.5,35.5,-6.3,0.296456801,0.492324595,-0.328073977,0.749687185
813,2035989,462150,0.772,-0.636,0.221,-78,-15.5,-2,-5.5,35.5,-6.3,0.297219764,0.492080447,-0.32944731,0.748954741
814,2038927,462150,0.788,-0.628,0.229,-75,-17.5,-0.7,-5.5,35.5,-6.3,0.29792169,0.491866817,-0.330759606,0.748222297
815,2040841,462160,0.808,-0.617,0.244,-72,-19.5,0.6,-5.5,35.5,-6.3,0.29853206,0.491714225,-0.332071902,0.747489853
816,2044420,462160,0.808,-0.617,0.244,-72,-19.5,0.6,-5.5,35.5,-6.3,0.29853206,0.491714225,-0.332071902,0.747489853
817,2047271,462160,0.843,-0.594,0.255,-63.3,-24.7,4.9,-6.3,35.4,-5.7,0.298287912,0.491378521,-0.334177679,0.746879482
818,2048932,462160,0.855,-0.586,0.259,-60.3,-26.6,6.2,-6.3,35.4,-5.7,0.298654134,0.491378521,-0.335398419,0.746208075
819,2051901,462170,0.87,-0.583,0.266,-60.3,-26.6,6.2,-6.3,35.4,-5.7,0.298989837,0.491378521,-0.33661916,0.745506149
820,2053457,462170,0.89,-0.579,0.27,-57.2,-28.5,7.6,-6.3,35.4,-5.7,0.299264504,0.49140904,-0.337809381,0.744834742
821,2056500,462170,0.89,-0.579,0.27,-57.2,-28.5,7.6,-6.3,35.4,-5.7,0.299264504,0.49140904,-0.337809381,0.744834742
822,2059802,462170,0.945,-0.533,0.3,-47.3,-32.8,11.7,-5.9,35.5,-5.6,0.299478133,0.491653188,-0.340067751,0.743552965
823,2061931,462180,0.945,-0.533,0.3,-47.3,-32.8,11.7,-5.9,35.5,-5.6,0.299569689,0.491775262,-0.341166417,0.742942595
824,2064805,462180,0.957,-0.529,0.308,-44.3,-33.9,13,-5.9,35.5,-5.6,0.299569689,0.491958373,-0.342265084,0.742332224
825,2066475,462180,0.957,-0.529,0.308,-44.3,-33.9,13,-5.9,35.5,-5.6,0.299569689,0.491958373,-0.342265084,0.742332224
826,2069282,462180,0.996,-0.494,0.334,-37,-34.1,16.5,-5.9,35.8,-5.1,0.299356059,0.492324595,-0.344279305,0.741233558
827,2072281,462190,1,-0.483,0.334,-35.5,-33.2,17.7,-5.9,35.8,-5.1,0.299203467,0.492507706,-0.345255898,0.740714743
828,2074824,462190,1.004,-0.479,0.334,-35.5,-33.2,17.7,-5.9,35.8,-5.1,0.299050874,0.492660298,-0.34623249,0.740195929
829,2076939,462190,1.004,-0.479,0.334,-35.5,-33.2,17.7,-5.9,35.8,-5.1,0.299050874,0.492660298,-0.34623249,0.740195929
830,2079148,462190,1.008,-0.483,0.334,-33.2,-30.4,20,-3.8,34.6,-4.6,0.298837245,0.492782373,-0.347209082,0.73976867
831,2081659,462200,1.008,-0.475,0.338,-32.1,-28.6,21.1,-3.8,34.6,-4.6,0.298623615,0.492873928,-0.348124638,0.739341411
832,2084077,462200,1.012,-0.479,0.334,-30.1,-24.8,23.5,-3.8,34.6,-4.6,0.298165838,0.492965484,-0.349955748,0.738608966
833,2086242,462200,1.012,-0.479,0.334,-30.1,-24.8,23.5,-3.8,34.6,-4.6,0.298165838,0.492965484,-0.349955748,0.738608966
834,2089974,462200,1,-0.475,0.323,-29,-22.9,24.8,-5.9,35.7,-4.7,0.297891171,0.492965484,-0.350840785,0.738303781
835,2092147,462210,1.004,-0.475,0.326,-27.7,-21.3,26,-5.9,35.7,-4.7,0.297616504,0.492934965,-0.351695303,0.738029115
836,2093666,462210,0.996,-0.479,0.315,-24.8,-18.9,27.8,-5.9,35.7,-4.7,0.296975616,0.492782373,-0.353373821,0.737571337
837,2097100,462210,0.996,-0.479,0.315,-24.8,-18.9,27.8,-5.9,35.7,-4.7,0.296975616,0.492782373,-0.353373821,0.737571337
838,2099296,462210,0.996,-0.479,0.315,-24.8,-18.9,27.8,-5.9,35.7,-4.7,0.296975616,0.492782373,-0.353373821,0.737571337
839,2101184,462220,0.984,-0.475,0.315,-21.2,-17.4,29.2,-5.5,36,-4.5,0.296609394,0.492721335,-0.354136784,0.737418744
840,2103669,462220,0.972,-0.475,0.307,-17.1,-16.5,30.6,-5.5,36,-4.5,0.295754875,0.492538224,-0.355601672,0.737174596
841,2107347,462220,0.965,-0.471,0.304,-17.1,-16.5,30.6,-5.5,36,-4.5,0.295327616,0.492477187,-0.356303598,0.737052522
842,2109806,462220,0.965,-0.471,0.304,-17.1,-16.5,30.6,-5.5,36,-4.5,0.295327616,0.492477187,-0.356303598,0.737052522
843,2112788,462230,0.949,-0.474,0.292,-13.2,-15.4,32,-5,36,-4.1,0.29483932,0.492385632,-0.356944487,0.736991485
844,2114995,462230,0.933,-0.47,0.285,-9.8,-14.4,33.5,-5,36,-4.1,0.293771172,0.492202521,-0.358195746,0.736930448
845,2117248,462230,0.929,-0.478,0.289,-9.8,-14.4,33.5,-5,36,-4.1,0.293221839,0.492110965,-0.358806116,0.736930448
846,2119415,462230,0.929,-0.478,0.289,-9.8,-14.4,33.5,-5,36,-4.1,0.293221839,0.492110965,-0.358806116,0.736930448
847,2122209,462240,0.922,-0.474,0.281,-6.9,-14.2,34.6,-4.2,35.9,-4.1,0.292641987,0.49201941,-0.359385968,0.736930448
848,2124499,462240,0.914,-0.474,0.273,-5.4,-14.4,35,-4.2,35.9,-4.1,0.292001099,0.491927854,-0.359935301,0.736960967
849,2126844,462240,0.902,-0.47,0.274,-2,-15,35.7,-4.2,35.9,-4.1,0.290688803,0.49180578,-0.361003449,0.737052522
850,2129856,462240,0.902,-0.47,0.274,-2,-15,35.7,-4.2,35.9,-4.1,0.290688803,0.49180578,-0.361003449,0.737052522
851,2131975,462250,0.898,-0.47,0.266,0,-15.4,35.9,-3.9,35.5,-3.9,0.289986877,0.491775262,-0.361491745,0.737113559
852,2134201,462250,0.902,-0.47,0.266,1.9,-15.9,36.1,-3.9,35.5,-3.9,0.289284951,0.491775262,-0.361949522,0.737174596
853,2136198,462250,0.898,-0.466,0.266,4.1,-16.5,36.2,-3.9,35.5,-3.9,0.288521989,0.491775262,-0.362346263,0.737266152
854,2138520,462250,0.902,-0.458,0.27,6.2,-17.2,36.3,-3.9,35.5,-3.9,0.287728507,0.49180578,-0.362773522,0.737357707
855,2142272,462260,0.91,-0.454,0.266,8.4,-17.9,36.6,-3.7,35.4,-4.3,0.286904508,0.491866817,-0.363139744,0.737449263
856,2143673,462260,0.914,-0.447,0.262,10.6,-18.8,36.8,-3.7,35.4,-4.3,0.286049989,0.491927854,-0.363475448,0.737571337
857,2147115,462260,0.914,-0.427,0.258,12.8,-19.6,37.1,-3.7,35.4,-4.3,0.285164953,0.49201941,-0.363750114,0.737693411
858,2148526,462260,0.922,-0.419,0.261,15.2,-20.3,37.4,-3.7,35.4,-4.3,0.284218879,0.492172002,-0.3640553,0.737815485
859,2151874,462270,0.922,-0.419,0.261,15.2,-20.3,37.4,-3.7,35.4,-4.3,0.284218879,0.492172002,-0.3640553,0.737815485
860,2153336,462270,0.93,-0.392,0.257,21.7,-21.9,38.7,-3.6,35.3,-4.1,0.282845546,0.492202521,-0.36466567,0.738029115
861,2156613,462270,0.937,-0.377,0.261,21.7,-21.9,38.7,-3.6,35.3,-4.1,0.281838435,0.492355113,-0.364879299,0.738212226
862,2158783,462270,0.941,-0.369,0.257,23.5,-22.3,39.1,-3.6,35.3,-4.1,0.280770287,0.492568743,-0.36506241,0.738395337
863,2161043,462280,0.945,-0.357,0.257,25.1,-22.7,39.5,-3.6,35.3,-4.1,0.279671621,0.492751854,-0.365215003,0.738608966
864,2163361,462280,0.945,-0.357,0.257,25.1,-22.7,39.5,-3.6,35.3,-4.1,0.279671621,0.492751854,-0.365215003,0.738608966
865,2165867,462280,0.957,-0.33,0.249,29.8,-23.1,40.4,-3,35.2,-4.3,0.277382733,0.493209632,-0.365428632,0.739036225
866,2169557,462280,0.961,-0.326,0.253,29.8,-23.1,40.4,-3,35.2,-4.3,0.276223029,0.49345378,-0.365520188,0.739249855
867,2171728,462290,0.969,-0.319,0.248,31.3,-23,40.8,-3,35.2,-4.3,0.275032807,0.493697928,-0.365581225,0.739524522
868,2174165,462290,0.969,-0.319,0.248,31.3,-23,40.8,-3,35.2,-4.3,0.275032807,0.493697928,-0.365581225,0.739524522
869,2176048,462290,0.981,-0.295,0.256,34,-22.6,41.2,-3,35.2,-4.3,0.273842586,0.493942076,-0.365611744,0.739799188
870,2179858,462290,0.996,-0.272,0.256,35.9,-21.7,41.8,-3,35.2,-4.3,0.271370586,0.494399854,-0.365642262,0.74037904
871,2181943,462300,0.996,-0.272,0.256,35.9,-21.7,41.8,-3,35.2,-4.3,0.270149846,0.494613483,-0.365642262,0.740684225
872,2184301,462300,0.996,-0.272,0.256,35.9,-21.7,41.8,-3,35.2,-4.3,0.270149846,0.494613483,-0.365642262,0.740684225
873,2185831,462300,1.008,-0.245,0.248,36.5,-20.6,42.3,-2.5,35.2,-4.5,0.268898587,0.494827113,-0.365611744,0.741019929
874,2189670,462300,1.012,-0.229,0.248,35.9,-19.2,43,-2.5,35.2,-4.5,0.266426588,0.495223853,-0.365611744,0.741660817
875,2192026,462310,1.004,-0.229,0.248,35.9,-19.2,43,-2.5,35.2,-4.5,0.265175329,0.495376446,-0.365611744,0.741996521
876,2194169,462310,1.004,-0.229,0.248,35.9,-19.2,43,-2.5,35.2,-4.5,0.265175329,0.495376446,-0.365611744,0.741996521
877,2196216,462310,1.004,-0.222,0.244,34,-17.1,43.6,-2.2,35.3,-4.4,0.263954588,0.495529038,-0.365611744,0.742332224
878,2199505,462310,1.004,-0.214,0.248,31.9,-14.5,43.5,-2.2,35.3,-4.4,0.261604663,0.495681631,-0.365672781,0.74303415
879,2201625,462320,1,-0.221,0.248,31.9,-14.5,43.5,-2.2,35.3,-4.4,0.26044496,0.495742668,-0.365703299,0.743369854
880,2204414,462320,1,-0.221,0.248,31.9,-14.5,43.5,-2.2,35.3,-4.4,0.26044496,0.495742668,-0.365703299,0.743369854
881,2205854,462320,1,-0.221,0.248,31.9,-14.5,43.5,-2.2,35.3,-4.4,0.26044496,0.495742668,-0.365703299,0.743369854
882,2209792,462320,0.993,-0.21,0.248,28.3,-10.7,42.4,-2.4,35.2,-5,0.259926145,0.49632252,-0.365215003,0.743430891
883,2211949,462330,0.996,-0.218,0.244,26.9,-9.7,41.8,-2.4,35.2,-5,0.258857997,0.496292001,-0.36527604,0.743766594
884,2214172,462330,0.989,-0.217,0.248,25.5,-8.6,41,-2.4,35.2,-5,0.257850887,0.496261483,-0.365367595,0.744102298
885,2216186,462330,0.989,-0.217,0.256,24.1,-7.6,40.2,-2.4,35.2,-5,0.256874294,0.496200446,-0.365459151,0.744438002
886,2218449,462330,0.981,-0.225,0.252,22.7,-6.5,39.4,-2.1,35.1,-5,0.25592822,0.49610889,-0.365550707,0.744773705
887,2221579,462340,0.981,-0.225,0.252,21,-5.6,38.6,-2.1,35.1,-5,0.255043184,0.496017335,-0.365642262,0.745109409
888,2223763,462340,0.981,-0.233,0.256,18.8,-4.6,38,-2.1,35.1,-5,0.254188665,0.49589526,-0.365794855,0.745414594
889,2225985,462340,0.981,-0.245,0.248,16.5,-3.8,37.4,-2.1,35.1,-5,0.253364666,0.495742668,-0.365947447,0.745719779
890,2229078,462340,0.973,-0.248,0.252,14.2,-3,36.7,-3.1,35.4,-5,0.252571184,0.495590075,-0.366130558,0.745994446
891,2231203,462350,0.961,-0.248,0.245,12.1,-2.3,35.9,-3.1,35.4,-5,0.25183874,0.495406964,-0.366313669,0.746269112
892,2233508,462350,0.961,-0.252,0.249,10.5,-1.5,34.9,-3.1,35.4,-5,0.251136814,0.495193335,-0.366527299,0.74651326
893,2235803,462350,0.961,-0.256,0.252,9.1,-0.7,34,-3.1,35.4,-5,0.250465407,0.494979705,-0.366771447,0.746757408
894,2238652,462350,0.953,-0.268,0.245,8.2,0,33.1,-1.7,35.4,-5.1,0.249855037,0.494766076,-0.366985076,0.747032075
895,2241914,462360,0.949,-0.271,0.253,7.5,0.6,32.2,-1.7,35.4,-5.1,0.249244667,0.494552446,-0.367198706,0.747245705
896,2244884,462360,0.949,-0.271,0.253,7,1,31.3,-1.7,35.4,-5.1,0.248695334,0.494308298,-0.367412336,0.747489853
897,2246136,462360,0.942,-0.279,0.249,6.6,1.3,30.5,-1.7,35.4,-5.1,0.248115482,0.494094668,-0.367625965,0.747734001
898,2249381,462360,0.938,-0.291,0.253,5.8,1.6,28.7,-1.6,35.4,-5.3,0.247596667,0.49385052,-0.367839595,0.74794763
899,2250742,462370,0.938,-0.287,0.253,5.8,1.6,28.7,-1.6,35.4,-5.3,0.247077853,0.493636891,-0.368053224,0.74816126
900,2254199,462370,0.934,-0.302,0.253,5.5,1.6,27.8,-1.6,35.4,-5.3,0.246589557,0.493423261,-0.368236335,0.748374889
901,2257343,462370,0.934,-0.298,0.253,5.2,1.5,26.9,-1.6,35.4,-5.3,0.24610126,0.493209632,-0.368449965,0.748588519
902,2258518,462370,0.934,-0.298,0.253,5.2,1.5,26.9,-1.6,35.4,-5.3,0.24610126,0.493209632,-0.368449965,0.748588519
903,2261685,462380,0.934,-0.298,0.253,5.2,1.5,26.9,-1.6,35.4,-5.3,0.24610126,0.493209632,-0.368449965,0.748588519
904,2264849,462380,0.926,-0.306,0.253,4.8,1.8,24.5,-1,35.5,-5.2,0.245765557,0.493087558,-0.368511002,0.748741111
905,2267108,462380,0.926,-0.31,0.253,4.9,1.7,23.7,-1,35.5,-5.2,0.244911039,0.492660298,-0.368846706,0.749107334
906,2269356,462380,0.926,-0.31,0.249,5.1,1.5,22.9,-1,35.5,-5.2,0.244483779,0.492507706,-0.368999298,0.749290445
907,2271604,462390,0.926,-0.31,0.249,5.1,1.5,22.9,-1,35.5,-5.2,0.244483779,0.492507706,-0.368999298,0.749290445
908,2273676,462390,0.922,-0.31,0.245,6,1,21.2,-1.3,35.4,-4.8,0.244087039,0.492355113,-0.369121372,0.749473556
909,2275974,462390,0.926,-0.306,0.245,6.5,0.8,20.5,-1.3,35.4,-4.8,0.243690298,0.492233039,-0.369243446,0.749626148
910,2278295,462390,0.918,-0.306,0.249,7.2,0.5,19,-1.3,35.4,-4.8,0.242896817,0.491958373,-0.369396039,0.749961852
911,2282933,462400,0.918,-0.306,0.249,7.2,0.5,19,-1.3,35.4,-4.8,0.242896817,0.491958373,-0.369396039,0.749961852
912,2285044,462400,0.914,-0.298,0.246,7.4,0.3,18.4,-1.7,35,-5.1,0.242530595,0.491836299,-0.369487594,0.750144963
913,2286526,462400,0.91,-0.302,0.253,7.4,0,17.7,-1.7,35,-5.1,0.242164373,0.491744743,-0.369548631,0.750297555
914,2289275,462400,0.91,-0.302,0.25,7.3,0,17.1,-1.7,35,-5.1,0.241798151,0.491622669,-0.369609668,0.750450148
915,2291996,462410,0.91,-0.302,0.25,6.8,0,16.6,-1.7,35,-5.1,0.241431928,0.491531114,-0.369670705,0.750572222
916,2293427,462410,0.906,-0.306,0.25,6.4,0,16.3,-1.7,35.3,-4.6,0.241126743,0.491439558,-0.369762261,0.750724815
917,2296974,462410,0.902,-0.306,0.25,5.9,0,15.8,-1.7,35.3,-4.6,0.24079104,0.491348003,-0.369823298,0.750846889
918,2299069,462410,0.902,-0.306,0.254,5.5,0,15.2,-1.7,35.3,-4.6,0.240455336,0.491256447,-0.369884335,0.750968963
919,2301698,462420,0.906,-0.31,0.25,5,0,14.7,-1.7,35.3,-4.6,0.24018067,0.491164892,-0.36997589,0.751091037
920,2303274,462420,0.902,-0.314,0.254,4.7,0,14.2,-1,35.2,-4,0.239906003,0.491073336,-0.370036927,0.751213111
921,2307001,462420,0.91,-0.31,0.25,4.5,0.1,13.7,-1,35.2,-4,0.239631336,0.49098178,-0.370128483,0.751304666
922,2308884,462420,0.898,-0.314,0.25,4.2,0,13.2,-1,35.2,-4,0.23935667,0.490890225,-0.37018952,0.75142674
923,2311224,462430,0.902,-0.314,0.254,4,0,12.7,-1,35.2,-4,0.239112522,0.490798669,-0.370250557,0.751518296
924,2315466,462430,0.902,-0.314,0.254,4,0,12.7,-1,35.2,-4,0.239112522,0.490798669,-0.370250557,0.751518296
925,2317297,462430,0.902,-0.314,0.254,4,0,12.7,-1,35.2,-4,0.239112522,0.490798669,-0.370250557,0.751518296
926,2318671,462430,0.895,-0.313,0.254,3.9,-0.1,11.3,-1.6,35.4,-3.7,0.238715781,0.490676595,-0.370311594,0.751701407
927,2322055,462440,0.899,-0.313,0.254,4,-0.1,10.8,-1.6,35.4,-3.7,0.238502152,0.490615558,-0.370342112,0.751792962
928,2323711,462440,0.898,-0.314,0.25,3.9,-0.2,10.3,-1.6,35.4,-3.7,0.238258003,0.490554521,-0.37040315,0.751884518
929,2326930,462440,0.898,-0.314,0.25,3.9,-0.2,10.3,-1.6,35.4,-3.7,0.238258003,0.490554521,-0.37040315,0.751884518
930,2328380,462440,0.891,-0.309,0.25,3.8,-0.4,9.4,-1.4,35.4,-6.8,0.237861263,0.490462966,-0.370494705,0.752037111
931,2332410,462450,0.899,-0.31,0.254,3.8,-0.4,9.1,-1.4,35.4,-6.8,0.237678152,0.490432447,-0.370525224,0.752098148
932,2334525,462450,0.898,-0.31,0.25,3.6,-0.5,8.7,-1.4,35.4,-6.8,0.237495041,0.49037141,-0.370555742,0.752159185
933,2336821,462450,0.898,-0.31,0.25,3.6,-0.5,8.7,-1.4,35.4,-6.8,0.237495041,0.49037141,-0.370555742,0.752159185
934,2339255,462450,0.899,-0.313,0.254,3.6,-1,7.9,-1.4,35.4,-4.7,0.23731193,0.490340892,-0.370586261,0.752220222
935,2342200,462460,0.895,-0.306,0.258,3.7,-1.4,7.5,-1.4,35.4,-4.7,0.236945708,0.490310373,-0.370647298,0.752342296
936,2344615,462460,0.899,-0.302,0.254,3.9,-1.8,7.1,-1.4,35.4,-4.7,0.236793115,0.490310373,-0.370647298,0.752372814
937,2346767,462460,0.899,-0.302,0.254,3.9,-1.8,7.1,-1.4,35.4,-4.7,0.236793115,0.490310373,-0.370647298,0.752372814
938,2348316,462460,0.899,-0.298,0.262,4.5,-2.4,6.6,-1.2,35.3,-4.8,0.236610004,0.490310373,-0.370677816,0.752433851
939,2352430,462470,0.902,-0.298,0.25,4.8,-2.5,6.5,-1.2,35.3,-4.8,0.236426893,0.490340892,-0.370677816,0.75246437
940,2354641,462470,0.899,-0.294,0.258,5.1,-2.6,6.2,-1.2,35.3,-4.8,0.236060671,0.49037141,-0.370677816,0.752555925
941,2357019,462470,0.899,-0.294,0.258,5.1,-2.6,6.2,-1.2,35.3,-4.8,0.236060671,0.49037141,-0.370677816,0.752555925
942,2358862,462470,0.903,-0.286,0.257,5.5,-3,5.6,-1.2,35.1,-4.6,0.23587756,0.490401929,-0.370647298,0.752616962
943,2361220,462480,0.91,-0.282,0.261,5.7,-3.3,5.2,-1.2,35.1,-4.6,0.235724967,0.490432447,-0.370616779,0.752647481
944,2363439,462480,0.91,-0.282,0.261,5.9,-3.6,4.9,-1.2,35.1,-4.6,0.235541856,0.490493484,-0.370616779,0.752677999
945,2365786,462480,0.91,-0.279,0.253,6,-3.9,4.7,-1.2,35.1,-4.6,0.235358745,0.490554521,-0.370586261,0.752708518
946,2369477,462480,0.91,-0.279,0.253,6,-3.9,4.7,-1.2,35.1,-4.6,0.235358745,0.490554521,-0.370586261,0.752708518
947,2371228,462490,0.914,-0.271,0.261,6.2,-4.1,4.7,-1.2,35.2,-4.7,0.235755486,0.490829188,-0.369853816,0.752769555
948,2373429,462490,0.91,-0.267,0.257,6,-4.1,4.8,-1.2,35.2,-4.7,0.235572375,0.490890225,-0.369823298,0.752800073
949,2377359,462490,0.918,-0.275,0.261,5.7,-3.9,4.8,-1.2,35.2,-4.7,0.235389264,0.490951262,-0.369823298,0.752830592
950,2378985,462490,0.914,-0.263,0.261,5.4,-3.8,4.9,-1.2,35.2,-4.7,0.235236671,0.49098178,-0.369792779,0.75286111
951,2381247,462500,0.914,-0.259,0.265,5.2,-3.6,4.9,-1.3,35.4,-7,0.23505356,0.491042817,-0.369792779,0.752891629
952,2383389,462500,0.91,-0.255,0.257,5.1,-3.4,5.2,-1.3,35.4,-7,0.234900967,0.491073336,-0.369762261,0.752922147
953,2386567,462500,0.91,-0.259,0.261,5,-3,5.3,-1.3,35.4,-7,0.234717856,0.491103854,-0.369762261,0.752952666
954,2388730,462500,0.914,-0.255,0.257,4.8,-2.6,5.4,-1.3,35.4,-7,0.234565264,0.491134373,-0.369762261,0.752983184
955,2391709,462510,0.914,-0.255,0.257,4.8,-2.6,5.4,-1.3,35.4,-7,0.234565264,0.491134373,-0.369762261,0.752983184
956,2393356,462510,0.918,-0.263,0.257,4.3,-2.4,4.8,-1.1,34.8,-5.2,0.234260079,0.49119541,-0.369731742,0.753044221
957,2395963,462510,0.918,-0.271,0.253,4.2,-2.4,4.5,-1.1,34.8,-5.2,0.234138005,0.49119541,-0.369731742,0.75307474
958,2398978,462510,0.914,-0.271,0.253,4.4,-2.4,4.4,-1.1,34.8,-5.2,0.233985412,0.491225929,-0.369731742,0.753135777
959,2401300,462520,0.914,-0.271,0.253,4.4,-2.4,4.4,-1.1,34.8,-5.2,0.233985412,0.491225929,-0.369731742,0.753135777
960,2403381,462520,0.914,-0.275,0.257,5.1,-2.5,4.1,-1.5,35.3,-5.8,0.23383282,0.491256447,-0.369701224,0.753166295
961,2407160,462520,0.914,-0.279,0.261,5.3,-2.6,4.1,-1.5,35.3,-5.8,0.233680227,0.491317484,-0.369670705,0.753196814
962,2408480,462520,0.91,-0.282,0.253,5.4,-2.5,4,-1.5,35.3,-5.8,0.23340556,0.491378521,-0.369609668,0.753257851
963,2412154,462530,0.91,-0.282,0.253,5.4,-2.5,4,-1.5,35.3,-5.8,0.23340556,0.491378521,-0.369609668,0.753257851
964,2414088,462530,0.918,-0.29,0.257,5.5,-2.2,4.3,-1.5,35.3,-5.8,0.233252968,0.49140904,-0.369548631,0.753318888
965,2417796,462530,0.918,-0.294,0.261,5.6,-2.1,4.4,-1.5,35.3,-5.8,0.233100375,0.491439558,-0.369518113,0.753349406
966,2420289,462530,0.914,-0.294,0.253,5.6,-1.9,4.5,-1.5,35.3,-5.8,0.23279519,0.491500595,-0.369457076,0.753440962
967,2422420,462540,0.914,-0.294,0.253,5.6,-1.9,4.5,-1.5,35.3,-5.8,0.23279519,0.491500595,-0.369457076,0.753440962
968,2424655,462540,0.914,-0.294,0.253,5.6,-1.9,4.5,-1.5,35.3,-5.8,0.23279519,0.491500595,-0.369457076,0.753440962
969,2426706,462540,0.914,-0.302,0.253,5.4,-1.6,4.7,-1.5,35.3,-5.8,0.233039338,0.491683706,-0.36896878,0.753501999
970,2429851,462540,0.918,-0.306,0.253,5.4,-1.7,4.9,-1.5,35.3,-5.8,0.232886746,0.491683706,-0.368938261,0.753563036
971,2432071,462550,0.914,-0.31,0.257,5.4,-1.6,5.1,-1.5,35.3,-5.8,0.232734153,0.491714225,-0.368907743,0.753593554
972,2434463,462550,0.918,-0.31,0.257,5.4,-1.6,5.1,-1.5,35.3,-5.8,0.232581561,0.491714225,-0.368877224,0.753654592
973,2436638,462550,0.91,-0.318,0.257,5.7,-1.4,5.6,-1.4,35.4,-6,0.23239845,0.491714225,-0.368846706,0.753715629
974,2438594,462550,0.918,-0.326,0.253,5.9,-1.4,5.8,-1.4,35.4,-6,0.232215339,0.491744743,-0.368816187,0.753776666
975,2440781,462560,0.918,-0.326,0.257,6,-1.4,6.1,-1.4,35.4,-6,0.232062746,0.491744743,-0.368816187,0.753837703
976,2444191,462560,0.914,-0.329,0.257,6,-1.4,6.2,-1.4,35.4,-6,0.231879635,0.491744743,-0.368785669,0.75389874
977,2446932,462560,0.918,-0.333,0.257,6.1,-1.4,6.4,-1.4,35.3,-5.7,0.231666005,0.491744743,-0.36875515,0.753959777
978,2448258,462560,0.914,-0.333,0.257,6.2,-1.3,6.5,-1.4,35.3,-5.7,0.231513413,0.491744743,-0.368724631,0.754051332
979,2451455,462570,0.914,-0.341,0.261,6.3,-1.4,6.5,-1.4,35.3,-5.7,0.231299783,0.491744743,-0.368694113,0.754112369
980,2454431,462570,0.914,-0.333,0.265,6.4,-1.6,6.6,-1.4,35.3,-5.7,0.231116672,0.491744743,-0.368663594,0.754173406
981,2456039,462570,0.914,-0.333,0.265,6.4,-1.6,6.6,-1.4,35.3,-5.7,0.231116672,0.491744743,-0.368663594,0.754173406
982,2458974,462570,0.918,-0.337,0.269,6.6,-2,6.8,-1.1,35.5,-6,0.230689413,0.491775262,-0.368633076,0.75429548
983,2461713,462580,0.918,-0.337,0.269,6.6,-2.2,6.9,-1.1,35.5,-6,0.230506302,0.49180578,-0.368602557,0.754356517
984,2464708,462580,0.918,-0.333,0.269,6.6,-2.3,7.2,-1.1,35.5,-6,0.230323191,0.49180578,-0.368572039,0.754448073
985,2466466,462580,0.918,-0.333,0.269,6.6,-2.3,7.2,-1.1,35.5,-6,0.230323191,0.49180578,-0.368572039,0.754448073
986,2469227,462580,0.918,-0.333,0.261,6.7,-2.4,7.4,-1.2,34.6,-6.1,0.230109561,0.491836299,-0.368572039,0.75450911
987,2472035,462590,0.918,-0.329,0.265,7,-2.5,7.4,-1.2,34.6,-6.1,0.229651784,0.491866817,-0.368511002,0.754631184
988,2474263,462590,0.914,-0.333,0.257,7.1,-2.4,7.4,-1.2,34.6,-6.1,0.229438154,0.491866817,-0.368480483,0.754692221
989,2477298,462590,0.914,-0.333,0.257,7.1,-2.4,7.4,-1.2,34.6,-6.1,0.229438154,0.491866817,-0.368480483,0.754692221
990,2479514,462590,0.914,-0.333,0.257,7.1,-2.4,7.4,-1.2,34.6,-6.1,0.229438154,0.491866817,-0.368480483,0.754692221
991,2481624,462600,0.91,-0.325,0.265,7.9,-1.8,7.2,-0.8,35.9,-4.4,0.229255043,0.49180578,-0.368358409,0.754875332
992,2484016,462600,0.91,-0.325,0.257,7.9,-1.8,7.2,-0.8,35.9,-4.4,0.229041414,0.49180578,-0.368327891,0.754936369
993,2485910,462600,0.91,-0.321,0.265,8.6,-1.7,7.1,-0.8,35.9,-4.4,0.228583636,0.491836299,-0.368205817,0.75511948
994,2489112,462600,0.91,-0.321,0.265,8.6,-1.7,7.1,-0.8,35.9,-4.4,0.228583636,0.491836299,-0.368205817,0.75511948
995,2491112,462610,0.914,-0.322,0.261,8.9,-1.8,6.9,-0.9,34.7,-7.2,0.228370006,0.491866817,-0.36814478,0.755211035
996,2493993,462610,0.914,-0.318,0.265,9.1,-1.8,6.8,-0.9,34.7,-7.2,0.228125858,0.491897336,-0.368083743,0.755272073
997,2496788,462610,0.914,-0.318,0.261,9.3,-1.8,6.7,-0.9,34.7,-7.2,0.227912229,0.491897336,-0.368022706,0.755363628
998,2499532,462610,0.914,-0.318,0.261,9.3,-1.8,6.7,-0.9,34.7,-7.2,0.227698599,0.491927854,-0.36793115,0.755455184
999,2500862,462620,0.918,-0.31,0.261,9.4,-1.7,6.4,-1.2,34,-7.2,0.227454451,0.491958373,-0.367870113,0.755546739
1000,2503596,462620,0.918,-0.31,0.257,9.5,-1.5,6.3,-1.2,34,-7.2,0.227240822,0.491988891,-0.367778558,0.755638295
1001,2507092,462620,0.918,-0.314,0.265,9.7,-1.4,6.3,-1.2,34,-7.2,0.227027192,0.491988891,-0.367656484,0.75572985
1002,2508376,462620,0.922,-0.31,0.257,9.8,-1.2,6.1,-1.2,34,-7.2,0.226783044,0.49201941,-0.367595447,0.755821406
1003,2511389,462630,0.918,-0.314,0.257,9.8,-1,6,-1.1,34.2,-7.6,0.226599933,0.492049928,-0.367503891,0.75594348
1004,2514257,462630,0.922,-0.31,0.265,9.7,-0.8,5.8,-1.1,34.2,-7.6,0.226386303,0.492049928,-0.367412336,0.756035035
1005,2516501,462630,0.926,-0.31,0.261,9.7,-0.5,5.8,-1.1,34.2,-7.6,0.226172674,0.492049928,-0.36732078,0.756126591
1006,2519462,462630,0.926,-0.306,0.257,9.6,-0.4,5.7,-1.1,34.2,-7.6,0.225989563,0.492080447,-0.367229225,0.756218146
1007,2520898,462640,0.926,-0.306,0.257,9.6,-0.4,5.7,-1.1,34.2,-7.6,0.225989563,0.492080447,-0.367229225,0.756218146
1008,2523992,462640,0.922,-0.31,0.265,9.6,-0.5,5.6,-1.3,34.8,-7.2,0.225592822,0.492080447,-0.367046113,0.756431776
1009,2526970,462640,0.922,-0.31,0.265,9.7,-0.5,5.5,-1.3,34.8,-7.2,0.225379192,0.492110965,-0.366924039,0.756523331
1010,2528359,462640,0.922,-0.31,0.261,9.7,-0.6,5.5,-1.3,34.8,-7.2,0.225165563,0.492110965,-0.366832484,0.756614887
1011,2531474,462650,0.922,-0.31,0.261,9.7,-0.6,5.5,-1.3,34.8,-7.2,0.225165563,0.492110965,-0.366832484,0.756614887
1012,2534536,462650,0.922,-0.31,0.261,9.7,-0.6,5.5,-1.3,34.8,-7.2,0.225165563,0.492110965,-0.366832484,0.756614887
1013,2536799,462650,0.926,-0.31,0.261,9.7,-0.5,5.5,-0.7,36.2,-5.1,0.225287637,0.492233039,-0.366344188,0.756767479
1014,2538968,462650,0.926,-0.302,0.261,9.8,-0.7,5.4,-0.7,36.2,-5.1,0.224890896,0.492263558,-0.366130558,0.756950591
1015,2541092,462660,0.926,-0.306,0.261,9.8,-0.9,5.4,-0.7,36.2,-5.1,0.224707785,0.492294076,-0.366039003,0.757042146
1016,2543399,462660,0.926,-0.306,0.261,9.8,-0.9,5.4,-0.7,36.2,-5.1,0.224707785,0.492294076,-0.366039003,0.757042146
1017,2545921,462660,0.922,-0.306,0.261,9.9,-1.2,5.4,-0.7,35.6,-7,0.224494156,0.492294076,-0.365947447,0.75716422
1018,2549861,462660,0.922,-0.298,0.261,9.9,-1.2,5.4,-0.7,35.6,-7,0.224280526,0.492324595,-0.365825373,0.757255776
1019,2551920,462670,0.922,-0.298,0.265,10,-1.3,5.4,-0.7,35.6,-7,0.224066897,0.492355113,-0.365703299,0.757347331
1020,2553518,462670,0.922,-0.302,0.261,10.1,-1.4,5.4,-0.7,35.6,-7,0.223853267,0.492385632,-0.365642262,0.757438887
1021,2555960,462670,0.922,-0.302,0.261,10.2,-1.5,5,-0.8,35.8,-6.7,0.223670156,0.49241615,-0.365520188,0.757530442
1022,2559804,462670,0.918,-0.298,0.261,10.3,-1.5,4.9,-0.8,35.8,-6.7,0.223456526,0.492477187,-0.365398114,0.757591479
1023,2561924,462680,0.918,-0.294,0.261,10.3,-1.5,4.9,-0.8,35.8,-6.7,0.223242897,0.492507706,-0.365306558,0.757683035
1024,2564299,462680,0.918,-0.298,0.257,10.2,-1.4,4.8,-0.8,35.8,-6.7,0.223059786,0.492538224,-0.365184484,0.75777459
1025,2566106,462680,0.918,-0.298,0.261,10.1,-1.3,4.8,-0.6,36,-6.7,0.222846156,0.492568743,-0.365092929,0.757866146
1026,2568555,462680,0.918,-0.302,0.261,9.9,-1.2,4.8,-0.6,36,-6.7,0.222663045,0.492599261,-0.364970855,0.757957701
1027,2572419,462690,0.914,-0.298,0.261,9.9,-1.1,4.8,-0.6,36,-6.7,0.222449416,0.49262978,-0.364879299,0.758049257
1028,2574826,462690,0.91,-0.306,0.253,9.9,-1.1,4.8,-0.6,36,-6.7,0.222266305,0.492660298,-0.364757225,0.758140812
1029,2577026,462690,0.914,-0.298,0.257,9.6,-0.9,4.8,-0.7,35.3,-6.1,0.222052675,0.492660298,-0.36466567,0.758232368
1030,2578683,462690,0.914,-0.298,0.257,9.6,-0.8,4.8,-0.7,35.3,-6.1,0.221869564,0.492660298,-0.364543596,0.758323923
1031,2580884,462700,0.914,-0.298,0.257,9.4,-0.8,4.7,-0.7,35.3,-6.1,0.221686453,0.492721335,-0.36445204,0.758415479
1032,2584455,462700,0.906,-0.298,0.254,9.3,-0.7,4.6,-0.7,35.3,-6.1,0.221503342,0.492751854,-0.364360485,0.758507035
1033,2586332,462700,0.906,-0.298,0.254,9.3,-0.7,4.6,-0.7,35.3,-6.1,0.221503342,0.492751854,-0.364360485,0.758507035
