sample_index,elapsed_us,device_time_ms,acc_x_g,acc_y_g,acc_z_g,gyro_x_dps,gyro_y_dps,gyro_z_dps,mag_x_ut,mag_y_ut,mag_z_ut,quat_w,quat_x,quat_y,quat_z
0,3389,1306360,0.952,0.312,0.133,1.9,0.1,0.9,-9.1,-35.3,7.6,0.650105289,-0.13452559,-0.640552995,-0.385876034
1,6241,1306360,0.952,0.312,0.133,2,0.1,0.9,-9,-35.4,7.1,0.650135807,-0.13452559,-0.640552995,-0.385814997
2,7579,1306360,0.952,0.316,0.133,2,0.1,0.9,-9,-35.4,7.1,0.650135807,-0.134495071,-0.640583514,-0.385784478
3,10500,1306360,0.944,0.308,0.133,2.1,0,1,-9,-35.4,7.1,0.650166326,-0.134495071,-0.640583514,-0.385723441
4,13795,1306370,0.944,0.308,0.133,2.1,0,1,-9,-35.4,7.1,0.650166326,-0.134495071,-0.640583514,-0.385723441
5,16112,1306370,0.948,0.312,0.133,2.2,-0.2,1.2,-9,-35.4,7.3,0.650196844,-0.134464553,-0.640614032,-0.385631886
6,18069,1306370,0.944,0.312,0.133,2.1,-0.3,1.3,-9,-35.4,7.3,0.650196844,-0.134434034,-0.640644551,-0.385601367
7,21197,1306370,0.944,0.312,0.133,2.1,-0.3,1.3,-9,-35.4,7.3,0.650196844,-0.134434034,-0.640644551,-0.385601367
8,22545,1306380,0.944,0.312,0.133,2.1,-0.3,1.3,-9,-35.4,7.3,0.650196844,-0.134434034,-0.640644551,-0.385601367
9,25575,1306380,0.944,0.312,0.133,2.1,-0.3,1.3,-9,-35.4,7.3,0.650196844,-0.134434034,-0.640644551,-0.385601367
10,29216,1306380,0.94,0.32,0.137,2.5,-0.1,1.2,-9.4,-35,7.1,0.650257881,-0.134403516,-0.640736106,-0.385387738
11,31419,1306380,0.944,0.32,0.133,2.5,0,1,-9.4,-35,7.1,0.650257881,-0.134372997,-0.640736106,-0.385326701
12,32782,1306390,0.944,0.316,0.133,2.5,0,1,-9.4,-35,7.1,0.6502884,-0.134372997,-0.640766625,-0.385296182
13,36033,1306390,0.944,0.316,0.133,2.5,0,1,-9.1,-35.7,6.9,0.6502884,-0.134342479,-0.640797143,-0.385235145
14,38078,1306390,0.944,0.316,0.133,2.5,-0.1,1,-9.1,-35.7,6.9,0.650318918,-0.13431196,-0.640797143,-0.385174108
15,41193,1306390,0.94,0.324,0.137,2.3,-0.1,1,-9.1,-35.7,6.9,0.650318918,-0.13431196,-0.640827662,-0.38514359
16,42472,1306400,0.944,0.32,0.137,2.2,-0.2,0.9,-9.1,-35.7,6.9,0.650349437,-0.134281442,-0.640827662,-0.385082553
17,45575,1306400,0.94,0.324,0.141,2.3,-0.3,0.6,-9.1,-35.7,6.9,0.6502884,-0.13431196,-0.640949736,-0.384960479
18,48700,1306400,0.94,0.324,0.141,2.3,-0.3,0.6,-9.1,-35.7,6.9,0.6502884,-0.13431196,-0.640980255,-0.38492996
19,50214,1306400,0.936,0.316,0.141,2.5,-0.3,0.6,-9.1,-35.7,6.9,0.650318918,-0.134281442,-0.641010773,-0.384899442
20,52548,1306410,0.936,0.324,0.141,2.5,-0.3,0.7,-9.1,-35.7,6.9,0.650318918,-0.134250923,-0.641010773,-0.384838404
21,56523,1306410,0.936,0.316,0.141,2.5,-0.3,0.8,-8.9,-35.2,7.1,0.650318918,-0.134250923,-0.641041292,-0.384777367
22,58482,1306410,0.936,0.32,0.141,2.3,-0.3,0.8,-8.9,-35.2,7.1,0.650318918,-0.134220405,-0.64107181,-0.384746849
23,60808,1306410,0.936,0.316,0.141,2.3,-0.3,0.7,-8.9,-35.2,7.1,0.650349437,-0.134189886,-0.641102329,-0.384685812
24,63431,1306420,0.94,0.316,0.137,2.2,-0.2,0.6,-8.9,-35.2,7.1,0.650349437,-0.134189886,-0.641102329,-0.384655293
25,65103,1306420,0.94,0.312,0.141,2.1,-0.2,0.5,-9,-35.5,7.3,0.650349437,-0.134159368,-0.641132847,-0.384624775
26,68343,1306420,0.94,0.312,0.145,2,-0.2,0.4,-9,-35.5,7.3,0.650349437,-0.134128849,-0.641163366,-0.384594256
27,71459,1306420,0.936,0.316,0.137,1.8,-0.2,0.3,-9,-35.5,7.3,0.650379955,-0.134128849,-0.641163366,-0.384563738
28,73045,1306430,0.94,0.308,0.137,1.7,-0.2,0.3,-9,-35.5,7.3,0.650379955,-0.134098331,-0.641193884,-0.384533219
29,75078,1306430,0.936,0.308,0.141,1.5,-0.1,0.2,-9.4,-35.5,7.3,0.650379955,-0.134067812,-0.641193884,-0.384502701
30,79327,1306430,0.94,0.308,0.137,1.4,0,0.2,-9.4,-35.5,7.3,0.650379955,-0.134067812,-0.641224403,-0.384472182
31,81417,1306430,0.936,0.312,0.137,1.2,0,0.2,-9.4,-35.5,7.3,0.650379955,-0.134006775,-0.641224403,-0.384441664
32,83934,1306440,0.936,0.308,0.141,1,0,0.4,-9.4,-35.5,7.3,0.650379955,-0.134006775,-0.641224403,-0.384441664
33,85841,1306440,0.94,0.308,0.137,1,-0.1,0.6,-9,-35.3,7.4,0.650410474,-0.134006775,-0.641224403,-0.384411145
34,88117,1306440,0.944,0.312,0.137,1,-0.1,0.7,-9,-35.3,7.4,0.650410474,-0.134006775,-0.641254921,-0.384380627
35,90311,1306440,0.94,0.308,0.133,1.1,-0.1,0.9,-9,-35.3,7.4,0.650410474,-0.134006775,-0.641254921,-0.384350108
36,92724,1306450,0.944,0.312,0.137,1.1,0,0.8,-9,-35.3,7.4,0.650410474,-0.134006775,-0.641254921,-0.38431959
37,95050,1306450,0.944,0.312,0.137,1.2,0,0.9,-9,-35.3,7.4,0.650471511,-0.134159368,-0.64128544,-0.384197516
38,99599,1306450,0.94,0.316,0.137,1.2,0,0.9,-9,-35.3,7.4,0.650471511,-0.134159368,-0.64128544,-0.384166997
39,101774,1306450,0.944,0.316,0.137,1.2,0,0.9,-9,-35.3,7.4,0.650471511,-0.134159368,-0.641315958,-0.384136479
40,104030,1306460,0.948,0.316,0.133,1.2,0,0.9,-9,-35.3,7.4,0.650502029,-0.134128849,-0.641315958,-0.38410596
41,106014,1306460,0.944,0.316,0.137,1.3,0,0.8,-8.6,-35.4,7,0.650502029,-0.134128849,-0.641315958,-0.384075442
42,108289,1306460,0.944,0.324,0.141,1.4,-0.1,0.9,-8.6,-35.4,7,0.650502029,-0.134128849,-0.641346477,-0.384014405
43,110522,1306460,0.948,0.32,0.137,1.4,-0.1,0.7,-8.6,-35.4,7,0.650532548,-0.134128849,-0.641346477,-0.383983886
44,113465,1306470,0.948,0.324,0.137,1.4,-0.2,0.7,-8.6,-35.4,7,0.650532548,-0.134098331,-0.641376995,-0.383953368
45,115784,1306470,0.952,0.328,0.133,1.3,-0.2,0.7,-8.8,-35.8,6.9,0.650532548,-0.134098331,-0.641376995,-0.383922849
46,117992,1306470,0.948,0.328,0.137,1.2,-0.1,0.7,-8.8,-35.8,6.9,0.650532548,-0.134098331,-0.641376995,-0.383892331
47,121191,1306470,0.952,0.324,0.137,1.1,0,0.6,-8.8,-35.8,6.9,0.650563066,-0.134098331,-0.641407514,-0.383892331
48,123229,1306480,0.952,0.327,0.137,1.2,0,0.5,-8.8,-35.8,6.9,0.650563066,-0.134098331,-0.641407514,-0.383861812
49,125483,1306480,0.956,0.327,0.137,1.3,0.1,0.3,-8.6,-35.9,7,0.650563066,-0.134067812,-0.641407514,-0.383831294
50,128677,1306480,0.952,0.324,0.137,1.4,0.2,0.3,-8.6,-35.9,7,0.650563066,-0.134006775,-0.641407514,-0.383800775
51,130787,1306480,0.952,0.327,0.137,1.4,0.2,0.3,-8.6,-35.9,7,0.650593585,-0.134006775,-0.641438032,-0.383770257
52,133063,1306490,0.952,0.327,0.137,1.3,0.1,0.3,-8.6,-35.9,7,0.650593585,-0.134006775,-0.641438032,-0.383770257
53,135314,1306490,0.948,0.328,0.137,1.1,0,0.4,-8.8,-36,7.3,0.650593585,-0.134006775,-0.641438032,-0.383739738
54,137829,1306490,0.956,0.324,0.137,1,0,0.4,-8.8,-36,7.3,0.650624104,-0.134006775,-0.641438032,-0.38370922
55,139979,1306490,0.952,0.324,0.137,1,0,0.4,-8.8,-36,7.3,0.650624104,-0.133976257,-0.641468551,-0.38370922
56,143687,1306500,0.956,0.324,0.137,1.1,0,0.3,-8.8,-36,7.3,0.650624104,-0.133976257,-0.641468551,-0.383678701
57,145830,1306500,0.948,0.328,0.137,0.9,0,0.4,-8.8,-36,7.3,0.650624104,-0.133976257,-0.641499069,-0.383648183
58,147993,1306500,0.948,0.328,0.137,0.9,0,0.4,-8.8,-36,7.3,0.650624104,-0.133945738,-0.641499069,-0.383617664
59,151990,1306500,0.952,0.324,0.133,0.8,0,0.4,-8.8,-36,7.3,0.650624104,-0.133945738,-0.641499069,-0.383617664
60,154242,1306510,0.956,0.324,0.137,0.7,0,0.4,-8.8,-36,7.3,0.650624104,-0.133945738,-0.641499069,-0.383587146
61,156671,1306510,0.948,0.324,0.141,0.6,0,0.4,-9.3,-35.6,7.6,0.650624104,-0.133945738,-0.641529588,-0.383587146
62,158777,1306510,0.948,0.328,0.137,0.4,-0.1,0.4,-9.3,-35.6,7.6,0.650654622,-0.133945738,-0.641529588,-0.383556627
63,160823,1306510,0.944,0.32,0.137,0.3,-0.2,0.5,-9.3,-35.6,7.6,0.650654622,-0.133945738,-0.641529588,-0.383556627
64,163095,1306520,0.944,0.32,0.137,0.2,-0.3,0.6,-9.3,-35.6,7.6,0.650654622,-0.133945738,-0.641529588,-0.383526109
65,165322,1306520,0.944,0.324,0.141,0.1,-0.3,0.6,-9.5,-36.3,7.2,0.650654622,-0.133976257,-0.641529588,-0.383526109
66,167770,1306520,0.94,0.324,0.137,0,-0.4,0.7,-9.5,-36.3,7.2,0.650654622,-0.133976257,-0.641529588,-0.383526109
67,169976,1306520,0.94,0.32,0.137,-0.1,-0.5,0.7,-9.5,-36.3,7.2,0.650654622,-0.134006775,-0.641529588,-0.38349559
68,174562,1306530,0.94,0.32,0.137,-0.2,-0.7,0.7,-9.5,-36.3,7.2,0.650624104,-0.134006775,-0.641560106,-0.38349559
69,176755,1306530,0.944,0.32,0.141,-0.4,-0.8,0.6,-9.2,-35.8,7.1,0.650624104,-0.134006775,-0.641560106,-0.38349559
70,179206,1306530,0.94,0.32,0.141,-0.4,-0.8,0.6,-9.2,-35.8,7.1,0.650624104,-0.134067812,-0.641560106,-0.38349559
71,181218,1306530,0.936,0.316,0.141,-0.5,-0.8,0.7,-9.2,-35.8,7.1,0.650624104,-0.134098331,-0.641560106,-0.383465072
72,183407,1306540,0.94,0.32,0.141,-0.6,-0.8,0.8,-9.2,-35.8,7.1,0.650624104,-0.134128849,-0.641560106,-0.383465072
73,185561,1306540,0.94,0.316,0.137,-0.7,-0.7,0.9,-9.4,-36.1,7.2,0.650593585,-0.134159368,-0.641560106,-0.383465072
74,189417,1306540,0.936,0.316,0.133,-0.9,-0.5,0.8,-9.4,-36.1,7.2,0.650593585,-0.134189886,-0.641560106,-0.383465072
75,191906,1306540,0.94,0.316,0.137,-1.1,-0.5,0.8,-9.4,-36.1,7.2,0.650593585,-0.134220405,-0.641560106,-0.383465072
76,194006,1306550,0.94,0.32,0.133,-1.2,-0.5,0.8,-9.4,-36.1,7.2,0.650593585,-0.134250923,-0.641560106,-0.383465072
77,196252,1306550,0.944,0.316,0.137,-1.1,-0.5,0.8,-9.4,-36.1,7.2,0.650593585,-0.13431196,-0.641560106,-0.383465072
78,198324,1306550,0.948,0.32,0.137,-1.1,-0.5,0.8,-9.4,-36.1,7.2,0.650563066,-0.134342479,-0.641560106,-0.383465072
79,200561,1306550,0.944,0.32,0.137,-1,-0.4,0.8,-9.4,-36.1,7.2,0.650563066,-0.134372997,-0.641560106,-0.383465072
80,203770,1306560,0.948,0.316,0.133,-1,-0.4,0.8,-9.4,-36.1,7.2,0.650563066,-0.134403516,-0.641560106,-0.383465072
81,205830,1306560,0.948,0.312,0.133,-1,-0.4,0.7,-9.6,-35.1,7.2,0.650563066,-0.134434034,-0.641560106,-0.383465072
82,208071,1306560,0.948,0.308,0.133,-1,-0.4,0.6,-9.6,-35.1,7.2,0.650563066,-0.134434034,-0.641560106,-0.383465072
83,210595,1306560,0.948,0.312,0.133,-1,-0.3,0.6,-9.6,-35.1,7.2,0.650563066,-0.134464553,-0.641529588,-0.383465072
84,212810,1306570,0.944,0.308,0.137,-1.1,-0.2,0.5,-9.6,-35.1,7.2,0.650563066,-0.134495071,-0.641529588,-0.383465072
85,214987,1306570,0.948,0.312,0.133,-1.2,-0.2,0.4,-9.1,-35.9,7,0.650563066,-0.13452559,-0.641529588,-0.38349559
86,219415,1306570,0.948,0.308,0.137,-1.2,-0.3,0.5,-9.1,-35.9,7,0.650563066,-0.134556108,-0.641529588,-0.38349559
87,221729,1306570,0.948,0.308,0.137,-1.2,-0.3,0.5,-9.1,-35.9,7,0.650563066,-0.134556108,-0.641529588,-0.38349559
88,223992,1306580,0.948,0.308,0.137,-1.2,-0.3,0.5,-9.1,-35.9,7,0.650563066,-0.134556108,-0.641529588,-0.38349559
89,226165,1306580,0.944,0.312,0.137,-1.2,-0.2,0.6,-9.2,-36,7,0.650563066,-0.134647664,-0.641499069,-0.383526109
90,228315,1306580,0.944,0.316,0.133,-1.1,-0.1,0.6,-9.2,-36,7,0.650563066,-0.134678182,-0.641499069,-0.383526109
91,230594,1306580,0.944,0.312,0.133,-1.1,-0.2,0.4,-9.2,-36,7,0.650532548,-0.134708701,-0.641468551,-0.383526109
92,233028,1306590,0.948,0.312,0.137,-1.2,-0.3,0.4,-9.2,-36,7,0.650532548,-0.134708701,-0.641468551,-0.383526109
93,235260,1306590,0.944,0.312,0.133,-1.3,-0.6,0.4,-9.1,-35.6,7.3,0.650532548,-0.134739219,-0.641468551,-0.383556627
94,237530,1306590,0.94,0.312,0.133,-1.3,-0.8,0.6,-9.1,-35.6,7.3,0.650532548,-0.134800256,-0.641468551,-0.383556627
95,242006,1306590,0.944,0.312,0.133,-1.3,-0.8,0.6,-9.1,-35.6,7.3,0.650502029,-0.134830775,-0.641468551,-0.383556627
96,244216,1306600,0.94,0.308,0.133,-1.3,-0.9,0.6,-9.1,-35.6,7.3,0.650502029,-0.134861293,-0.641468551,-0.383587146
97,246556,1306600,0.944,0.308,0.133,-1.3,-0.9,0.5,-9.1,-35.6,7.3,0.650471511,-0.134983367,-0.641529588,-0.38349559
98,248660,1306600,0.94,0.312,0.137,-1.2,-0.8,0.4,-9.1,-35.6,7.3,0.650471511,-0.134983367,-0.641529588,-0.38349559
99,250748,1306600,0.94,0.308,0.133,-1.2,-0.8,0.4,-9.1,-35.6,7.3,0.650440992,-0.135044404,-0.641529588,-0.38349559
100,253121,1306610,0.94,0.312,0.133,-1,-0.8,0.4,-9.1,-35.6,7.3,0.650440992,-0.135074923,-0.641529588,-0.383526109
101,255341,1306610,0.94,0.312,0.133,-1,-0.9,0.5,-9.4,-35.4,6.7,0.650410474,-0.135105441,-0.641529588,-0.383526109
102,257797,1306610,0.94,0.308,0.137,-1,-1,0.3,-9.4,-35.4,6.7,0.650410474,-0.13513596,-0.641529588,-0.383526109
103,260018,1306610,0.94,0.308,0.133,-1,-1.1,0.2,-9.4,-35.4,6.7,0.650379955,-0.135166478,-0.641529588,-0.383526109
104,264247,1306620,0.936,0.308,0.137,-1,-1.1,0.1,-9.4,-35.4,6.7,0.650379955,-0.135196997,-0.641529588,-0.383526109
105,266237,1306620,0.94,0.308,0.133,-0.9,-1.1,0,-10,-35.4,7.4,0.650349437,-0.135227515,-0.641560106,-0.383556627
106,268389,1306620,0.936,0.304,0.133,-1,-1.3,-0.1,-10,-35.4,7.4,0.650318918,-0.135258034,-0.641560106,-0.383556627
107,270636,1306620,0.933,0.308,0.137,-0.9,-1.4,-0.2,-10,-35.4,7.4,0.650318918,-0.135258034,-0.641560106,-0.383587146
108,272672,1306630,0.936,0.308,0.137,-0.8,-1.4,-0.2,-10,-35.4,7.4,0.6502884,-0.135288553,-0.641590625,-0.383587146
109,276778,1306630,0.936,0.312,0.137,-0.8,-1.3,0,-9.2,-35.4,7.2,0.650257881,-0.135319071,-0.641590625,-0.383587146
110,279036,1306630,0.936,0.312,0.137,-0.8,-1.2,0.1,-9.2,-35.4,7.2,0.650227363,-0.135319071,-0.641590625,-0.383617664
111,281327,1306630,0.936,0.312,0.137,-0.8,-1.2,0.1,-9.2,-35.4,7.2,0.650227363,-0.135319071,-0.641590625,-0.383617664
112,283428,1306640,0.936,0.312,0.137,-0.8,-1.2,0.1,-9.2,-35.4,7.2,0.650227363,-0.135319071,-0.641590625,-0.383617664
113,285409,1306640,0.94,0.308,0.133,-1,-1.1,0.1,-9.6,-35.4,7.5,0.650196844,-0.135410627,-0.641590625,-0.383617664
114,287830,1306640,0.94,0.308,0.133,-1,-1.1,0,-9.6,-35.4,7.5,0.650166326,-0.135441145,-0.641651662,-0.383648183
115,290138,1306640,0.944,0.308,0.137,-1.2,-1.1,0,-9.6,-35.4,7.5,0.650135807,-0.135471664,-0.641651662,-0.383648183
116,294079,1306650,0.94,0.304,0.137,-1.2,-1.3,0,-9.6,-35.4,7.5,0.650135807,-0.135502182,-0.641651662,-0.383678701
117,296385,1306650,0.94,0.308,0.133,-1.1,-1.4,0.1,-9.6,-35.4,7.5,0.650135807,-0.135654775,-0.64168218,-0.383556627
118,298357,1306650,0.94,0.308,0.133,-1,-1.5,0.1,-9.6,-35.4,7.5,0.650105289,-0.135685293,-0.64168218,-0.383587146
119,300676,1306650,0.94,0.308,0.133,-1,-1.5,0,-9.6,-35.4,7.5,0.65007477,-0.135715812,-0.641712699,-0.383587146
120,302908,1306660,0.94,0.312,0.133,-0.9,-1.5,0.1,-9.6,-35.4,7.5,0.65007477,-0.13574633,-0.641712699,-0.383587146
121,305097,1306660,0.94,0.312,0.133,-0.8,-1.5,0.1,-9.8,-35.4,7,0.650044252,-0.135776849,-0.641743217,-0.383587146
122,308411,1306660,0.94,0.308,0.133,-0.7,-1.6,0.1,-9.8,-35.4,7,0.650013733,-0.135776849,-0.641743217,-0.383587146
123,310682,1306660,0.944,0.312,0.133,-0.7,-1.6,0,-9.8,-35.4,7,0.649983215,-0.135807367,-0.641773736,-0.383617664
124,312984,1306670,0.944,0.316,0.133,-0.7,-1.5,0,-9.8,-35.4,7,0.649983215,-0.135837886,-0.641773736,-0.383617664
125,315146,1306670,0.944,0.308,0.137,-0.7,-1.4,-0.1,-9.6,-35.7,6.7,0.649952696,-0.135868404,-0.641804254,-0.383617664
126,318354,1306670,0.948,0.316,0.133,-0.7,-1.4,0,-9.6,-35.7,6.7,0.649922178,-0.135868404,-0.641804254,-0.383617664
127,320652,1306670,0.948,0.32,0.133,-0.6,-1.3,0,-9.6,-35.7,6.7,0.649891659,-0.135898923,-0.641834773,-0.383617664
128,322949,1306680,0.952,0.312,0.137,-0.7,-1.3,0,-9.6,-35.7,6.7,0.649891659,-0.135929441,-0.641834773,-0.383648183
129,324973,1306680,0.948,0.316,0.133,-0.7,-1.3,-0.1,-9.7,-35.6,6.7,0.649861141,-0.135929441,-0.641834773,-0.383648183
130,327930,1306680,0.952,0.316,0.133,-0.8,-1.3,-0.2,-9.7,-35.6,6.7,0.649830622,-0.13595996,-0.641865291,-0.383648183
131,330833,1306680,0.952,0.316,0.133,-0.8,-1.3,-0.2,-9.7,-35.6,6.7,0.649830622,-0.13595996,-0.641865291,-0.383648183
132,333182,1306690,0.952,0.32,0.133,-0.9,-1.1,-0.3,-9.7,-35.6,6.7,0.649800104,-0.13595996,-0.64189581,-0.383678701
133,335088,1306690,0.948,0.316,0.133,-0.9,-1,-0.3,-9.8,-35.6,7.1,0.649769585,-0.136020997,-0.64189581,-0.38370922
134,339121,1306690,0.952,0.316,0.133,-0.9,-0.9,-0.2,-9.8,-35.6,7.1,0.649739067,-0.136051515,-0.64189581,-0.38370922
135,341455,1306690,0.952,0.312,0.133,-1,-1.1,-0.2,-9.8,-35.6,7.1,0.649739067,-0.136051515,-0.64189581,-0.383739738
136,343691,1306700,0.952,0.316,0.137,-1,-1.2,-0.1,-9.8,-35.6,7.1,0.649708548,-0.136082034,-0.641926328,-0.383739738
137,345526,1306700,0.952,0.32,0.133,-1,-1.3,-0.1,-9.8,-35.6,7.1,0.64967803,-0.136173589,-0.641956847,-0.38370922
138,347740,1306700,0.952,0.312,0.133,-1,-1.3,-0.1,-9.8,-35.6,7.1,0.649647511,-0.136173589,-0.641956847,-0.38370922
139,350008,1306700,0.948,0.316,0.133,-0.8,-1.4,-0.2,-9.8,-35.6,7.1,0.649647511,-0.136204108,-0.641956847,-0.383739738
140,352487,1306710,0.952,0.316,0.133,-0.8,-1.5,-0.3,-9.8,-35.6,7.1,0.649616993,-0.136234626,-0.641987365,-0.383739738
141,356659,1306710,0.952,0.312,0.133,-0.8,-1.6,-0.3,-9.7,-35.6,7.4,0.649586474,-0.136234626,-0.641987365,-0.383739738
142,358941,1306710,0.952,0.312,0.133,-0.8,-1.7,-0.2,-9.7,-35.6,7.4,0.649555956,-0.136265145,-0.642017884,-0.383770257
143,361290,1306710,0.948,0.312,0.137,-1,-1.7,-0.1,-9.7,-35.6,7.4,0.649525437,-0.136295663,-0.642048402,-0.383770257
144,363198,1306720,0.952,0.316,0.133,-1.1,-1.7,-0.1,-9.7,-35.6,7.4,0.649494919,-0.136326182,-0.642048402,-0.383800775
145,365236,1306720,0.948,0.312,0.133,-1.1,-1.7,-0.2,-9.9,-35.8,6.7,0.6494644,-0.1363567,-0.642078921,-0.383800775
146,369468,1306720,0.952,0.312,0.137,-1,-1.8,-0.2,-9.9,-35.8,6.7,0.649403363,-0.136387219,-0.642078921,-0.383800775
147,371700,1306720,0.948,0.312,0.133,-1,-1.8,-0.3,-9.9,-35.8,6.7,0.649403363,-0.136417737,-0.642109439,-0.383831294
148,374013,1306730,0.948,0.316,0.133,-1.1,-1.7,-0.3,-9.9,-35.8,6.7,0.649372845,-0.136417737,-0.642109439,-0.383861812
149,375718,1306730,0.948,0.316,0.133,-1.1,-1.8,-0.3,-9.8,-35.6,7.1,0.649342326,-0.136448256,-0.642139958,-0.383861812
150,377683,1306730,0.948,0.312,0.133,-1.1,-1.9,-0.2,-9.8,-35.6,7.1,0.649311808,-0.136478774,-0.642170476,-0.383861812
151,381727,1306730,0.948,0.312,0.133,-1.1,-1.9,-0.2,-9.8,-35.6,7.1,0.649311808,-0.136478774,-0.642170476,-0.383861812
152,383894,1306740,0.948,0.312,0.133,-1.1,-1.9,-0.2,-9.8,-35.6,7.1,0.649311808,-0.136478774,-0.642170476,-0.383861812
153,385739,1306740,0.944,0.312,0.133,-1.4,-2.2,-0.3,-10.2,-35.8,7.3,0.649189734,-0.13657033,-0.642231513,-0.383922849
154,387777,1306740,0.944,0.308,0.133,-1.5,-2.1,-0.3,-10.2,-35.8,7.3,0.649159215,-0.136631367,-0.642231513,-0.383953368
155,390214,1306740,0.94,0.308,0.133,-1.4,-2,-0.4,-10.2,-35.8,7.3,0.649128697,-0.136661885,-0.642262032,-0.383953368
156,392482,1306750,0.944,0.304,0.133,-1.3,-1.9,-0.4,-10.2,-35.8,7.3,0.64906766,-0.136692404,-0.642262032,-0.383983886
157,397008,1306750,0.944,0.308,0.133,-1.3,-1.8,-0.4,-10.2,-35.8,7.3,0.64906766,-0.136814478,-0.64229255,-0.383922849
158,399295,1306750,0.944,0.308,0.133,-1.3,-1.8,-0.4,-10.2,-35.8,7.3,0.64906766,-0.136814478,-0.64229255,-0.383922849
159,401354,1306750,0.944,0.308,0.137,-1.3,-1.9,-0.7,-10.2,-35.8,7.3,0.649006623,-0.136844996,-0.642323069,-0.383983886
160,403703,1306760,0.944,0.312,0.137,-1.3,-2,-0.8,-10.2,-35.8,7.3,0.648945585,-0.136875515,-0.642353587,-0.383983886
161,405239,1306760,0.944,0.312,0.137,-1.3,-2,-0.8,-10,-35.1,7,0.648915067,-0.136906034,-0.642384106,-0.384014405
162,409281,1306760,0.944,0.312,0.137,-1.3,-2,-0.8,-10,-35.1,7,0.648884548,-0.136936552,-0.642384106,-0.384044923
163,411487,1306760,0.944,0.312,0.137,-1.3,-2,-0.8,-10,-35.1,7,0.648884548,-0.136936552,-0.642384106,-0.384044923
164,413832,1306770,0.944,0.312,0.137,-1.3,-2,-0.8,-10,-35.1,7,0.648884548,-0.136936552,-0.642384106,-0.384044923
165,415543,1306770,0.944,0.312,0.141,-1.2,-1.8,-0.6,-9.8,-35.5,7.1,0.648762474,-0.136997589,-0.642445143,-0.38410596
166,417506,1306770,0.944,0.312,0.137,-1,-1.9,-0.6,-9.8,-35.5,7.1,0.648731956,-0.137028108,-0.642475661,-0.384136479
167,420084,1306770,0.944,0.308,0.133,-1,-1.9,-0.6,-9.8,-35.5,7.1,0.648701437,-0.137058626,-0.642475661,-0.384166997
168,424545,1306780,0.944,0.312,0.133,-0.9,-1.9,-0.7,-9.8,-35.5,7.1,0.6486404,-0.137058626,-0.64250618,-0.384166997
169,426429,1306780,0.94,0.312,0.137,-0.8,-2,-0.6,-10.1,-35.3,7.1,0.648609882,-0.137089145,-0.642536699,-0.384197516
170,428287,1306780,0.94,0.32,0.137,-0.7,-2,-0.5,-10.1,-35.3,7.1,0.648579363,-0.137089145,-0.642567217,-0.384197516
171,430540,1306780,0.944,0.316,0.137,-0.6,-2,-0.3,-10.1,-35.3,7.1,0.648548845,-0.137119663,-0.642597736,-0.384197516
172,432949,1306790,0.94,0.32,0.137,-0.6,-2,-0.1,-10.1,-35.3,7.1,0.648518326,-0.137150182,-0.642597736,-0.384197516
173,435093,1306790,0.948,0.324,0.137,-0.5,-1.9,0,-9.8,-35.5,7,0.648487808,-0.1371807,-0.642628254,-0.384228034
174,437999,1306790,0.944,0.324,0.137,-0.5,-1.9,0,-9.8,-35.5,7,0.648457289,-0.137211219,-0.642658773,-0.384228034
175,442101,1306790,0.944,0.324,0.137,-0.5,-1.9,0,-9.8,-35.5,7,0.648457289,-0.137211219,-0.642658773,-0.384228034
176,444161,1306800,0.944,0.324,0.137,-0.5,-1.9,0,-9.8,-35.5,7,0.648457289,-0.137211219,-0.642658773,-0.384228034
177,445663,1306800,0.948,0.328,0.133,-0.6,-2.1,0,-9.8,-35.5,7,0.648335215,-0.137211219,-0.64271981,-0.384258553
178,449235,1306800,0.948,0.328,0.133,-0.7,-2,-0.2,-9.8,-35.5,7,0.648304697,-0.137241737,-0.642750328,-0.384289071
179,450981,1306800,0.944,0.328,0.133,-0.7,-2,-0.2,-9.8,-35.5,7,0.648274178,-0.137272256,-0.642780847,-0.384289071
180,452444,1306810,0.948,0.331,0.137,-0.7,-2,-0.3,-9.8,-35.5,7,0.64824366,-0.137302774,-0.642811365,-0.384289071
181,455471,1306810,0.948,0.331,0.137,-0.8,-2,-0.4,-10.1,-35.4,7.7,0.648213141,-0.137333293,-0.642841884,-0.38431959
182,458131,1306810,0.952,0.331,0.133,-1,-2,-0.4,-10.1,-35.4,7.7,0.648182623,-0.137333293,-0.642841884,-0.38431959
183,461712,1306810,0.952,0.331,0.133,-1,-2,-0.4,-10.1,-35.4,7.7,0.648182623,-0.137333293,-0.642841884,-0.38431959
184,463214,1306820,0.952,0.331,0.133,-1,-2,-0.4,-10.1,-35.4,7.7,0.648182623,-0.137333293,-0.642841884,-0.38431959
185,466795,1306820,0.948,0.328,0.133,-1.4,-2.3,-0.6,-10.1,-34.6,7.6,0.64803003,-0.137424848,-0.642933439,-0.384380627
186,468247,1306820,0.952,0.328,0.133,-1.6,-2.3,-0.8,-10.1,-34.6,7.6,0.647999512,-0.137455367,-0.642933439,-0.384411145
187,471037,1306820,0.952,0.328,0.133,-1.6,-2.3,-0.8,-10.1,-34.6,7.6,0.647999512,-0.137455367,-0.642933439,-0.384411145
188,472950,1306830,0.948,0.328,0.133,-2.1,-2.2,-1.1,-10.1,-34.6,7.6,0.647907956,-0.137516404,-0.642963958,-0.384472182
189,475051,1306830,0.948,0.328,0.133,-2.1,-2.2,-1.1,-10.1,-34.6,7.6,0.647907956,-0.137516404,-0.642963958,-0.384472182
190,479045,1306830,0.948,0.328,0.133,-2.1,-2.2,-1.1,-10.1,-34.6,7.6,0.647907956,-0.137516404,-0.642963958,-0.384472182
191,481527,1306830,0.948,0.324,0.137,-2.7,-2.2,-0.8,-10,-35.4,7.4,0.647755364,-0.137638478,-0.643024995,-0.384624775
192,483384,1306840,0.948,0.324,0.137,-3,-2.2,-1,-10,-35.4,7.4,0.647724845,-0.137699515,-0.643024995,-0.384655293
193,485548,1306840,0.952,0.316,0.133,-3.1,-2.2,-1,-10.3,-35.7,7.6,0.647663808,-0.137760552,-0.643024995,-0.38471633
194,487620,1306840,0.948,0.32,0.133,-3.3,-2.3,-1.1,-10.3,-35.7,7.6,0.647602771,-0.13779107,-0.643055513,-0.384777367
195,491271,1306840,0.948,0.324,0.137,-3.4,-2.5,-1,-10.3,-35.7,7.6,0.647572253,-0.137852107,-0.643055513,-0.384807886
196,492901,1306850,0.944,0.32,0.137,-3.5,-2.5,-0.9,-10.3,-35.7,7.6,0.647511216,-0.137913144,-0.643055513,-0.384868923
197,495069,1306850,0.948,0.316,0.137,-3.7,-2.5,-0.9,-10.3,-35.7,7.6,0.647450179,-0.137974181,-0.643055513,-0.38492996
198,498799,1306850,0.944,0.32,0.133,-3.9,-2.6,-0.9,-10.3,-35.7,7.6,0.647389142,-0.138035218,-0.643055513,-0.384990997
199,500612,1306850,0.944,0.32,0.133,-3.9,-2.6,-0.9,-10.3,-35.7,7.6,0.647389142,-0.138035218,-0.643055513,-0.384990997
200,502812,1306860,0.944,0.32,0.133,-3.9,-2.6,-0.9,-10.3,-35.7,7.6,0.647389142,-0.138035218,-0.643055513,-0.384990997
201,506539,1306860,0.944,0.316,0.133,-3.9,-2.9,-1,-10.3,-35.2,7,0.64720603,-0.138248848,-0.643086032,-0.385204627
202,508430,1306860,0.944,0.316,0.133,-3.8,-3,-0.9,-10.3,-35.2,7,0.647144993,-0.138309885,-0.64311655,-0.385235145
203,510764,1306860,0.944,0.324,0.137,-3.8,-3,-0.7,-10.3,-35.2,7,0.647083956,-0.138370922,-0.64311655,-0.385296182
204,512709,1306870,0.944,0.32,0.137,-3.8,-2.8,-0.6,-10.3,-35.2,7,0.647053438,-0.138462477,-0.64311655,-0.385357219
205,515018,1306870,0.94,0.32,0.137,-3.9,-2.8,-0.5,-10.4,-35.2,7,0.646992401,-0.138523515,-0.643147069,-0.385418256
206,519454,1306870,0.936,0.324,0.137,-4,-2.7,-0.5,-10.4,-35.2,7,0.646931364,-0.138584552,-0.643147069,-0.385479293
207,520028,1306870,0.936,0.324,0.137,-4,-2.7,-0.5,-10.4,-35.2,7,0.646931364,-0.138584552,-0.643147069,-0.385479293
208,523472,1306880,0.936,0.324,0.137,-4,-2.7,-0.5,-10.4,-35.2,7,0.646931364,-0.138584552,-0.643147069,-0.385479293
209,525674,1306880,0.94,0.328,0.137,-3.5,-2.8,-0.6,-10.5,-35.2,6.8,0.646748253,-0.138798181,-0.643177587,-0.385631886
210,527883,1306880,0.94,0.332,0.134,-3.3,-2.7,-0.7,-10.5,-35.2,6.8,0.646717734,-0.138859218,-0.643177587,-0.385692923
211,531260,1306880,0.94,0.332,0.134,-3.3,-2.7,-0.7,-10.5,-35.2,6.8,0.646717734,-0.138859218,-0.643177587,-0.385692923
212,533562,1306890,0.94,0.332,0.134,-3.3,-2.7,-0.7,-10.5,-35.2,6.8,0.646717734,-0.138859218,-0.643177587,-0.385692923
213,535764,1306890,0.94,0.332,0.134,-3.3,-2.7,-0.7,-10.5,-35.2,6.8,0.646717734,-0.138859218,-0.643177587,-0.385692923
214,538972,1306890,0.94,0.332,0.134,-3.3,-2.7,-0.7,-10.5,-35.2,6.8,0.646717734,-0.138859218,-0.643177587,-0.385692923
215,540678,1306890,0.94,0.332,0.134,-3.3,-2.7,-0.7,-10.5,-35.2,6.8,0.646717734,-0.138859218,-0.643177587,-0.385692923
216,542956,1306900,0.94,0.332,0.134,-3.3,-2.7,-0.7,-10.5,-35.2,6.8,0.646717734,-0.138859218,-0.643177587,-0.385692923
217,547258,1306900,0.944,0.331,0.141,-3.7,-2.7,-0.8,-10.7,-35.4,7.3,0.646320994,-0.139164403,-0.643238624,-0.3861507
218,547707,1306900,0.944,0.328,0.137,-3.8,-2.8,-0.8,-10.7,-35.4,7.3,0.646259957,-0.13922544,-0.643238624,-0.386211737
219,550189,1306900,0.944,0.324,0.141,-3.9,-2.8,-0.9,-10.7,-35.4,7.3,0.64619892,-0.139286477,-0.643269143,-0.386272774
220,554566,1306910,0.944,0.324,0.137,-4.1,-2.8,-0.8,-10.7,-35.4,7.3,0.646137883,-0.139347514,-0.643269143,-0.386333811
221,554972,1306910,0.948,0.328,0.137,-4.1,-2.8,-0.8,-10.4,-35,7.2,0.646076846,-0.13943907,-0.643269143,-0.386394848
222,558044,1306910,0.948,0.324,0.137,-4.2,-2.8,-0.8,-10.4,-35,7.2,0.646015809,-0.139500107,-0.643269143,-0.386455885
223,561169,1306910,0.944,0.324,0.133,-4.4,-2.9,-0.7,-10.4,-35,7.2,0.645954772,-0.139591662,-0.643299661,-0.386516923
224,562535,1306920,0.944,0.328,0.141,-4.6,-3,-0.6,-10.4,-35,7.2,0.645893735,-0.139652699,-0.643299661,-0.38657796
225,565539,1306920,0.948,0.324,0.141,-4.8,-3.1,-0.5,-10.6,-35.2,6.9,0.645832698,-0.139744255,-0.643299661,-0.386638997
226,568698,1306920,0.944,0.316,0.141,-5,-3.3,-0.4,-10.6,-35.2,6.9,0.645771661,-0.13983581,-0.643299661,-0.386700034
227,570062,1306920,0.948,0.316,0.137,-5.2,-3.5,-0.4,-10.6,-35.2,6.9,0.645680105,-0.139927366,-0.643299661,-0.386761071
228,573877,1306930,0.94,0.32,0.137,-5.3,-3.6,-0.4,-10.6,-35.2,6.9,0.645619068,-0.14004944,-0.64333018,-0.386852626
229,575384,1306930,0.944,0.316,0.137,-5.4,-3.6,-0.4,-10.3,-35.4,7.2,0.645558031,-0.140140996,-0.64333018,-0.386913663
230,578365,1306930,0.94,0.316,0.137,-5.6,-3.6,-0.5,-10.3,-35.4,7.2,0.645466475,-0.140232551,-0.64333018,-0.387005219
231,581460,1306930,0.94,0.316,0.133,-5.7,-3.7,-0.3,-10.3,-35.4,7.2,0.645405438,-0.140354625,-0.64333018,-0.387066256
232,582824,1306940,0.936,0.316,0.137,-5.8,-3.7,-0.1,-10.3,-35.4,7.2,0.645344401,-0.140476699,-0.64333018,-0.387127293
233,585788,1306940,0.933,0.316,0.141,-5.8,-3.8,0,-10.3,-34.9,7.3,0.645252846,-0.140568255,-0.643360698,-0.38718833
234,588051,1306940,0.929,0.312,0.141,-5.8,-4.1,0.1,-10.3,-34.9,7.3,0.645191809,-0.140690329,-0.643360698,-0.387279885
235,591177,1306940,0.929,0.316,0.141,-5.7,-4.5,0.2,-10.3,-34.9,7.3,0.645100253,-0.140812403,-0.643360698,-0.387340922
236,592662,1306950,0.921,0.312,0.141,-5.5,-4.8,0.3,-10.3,-34.9,7.3,0.645008698,-0.140934477,-0.643391217,-0.387401959
237,595540,1306950,0.917,0.316,0.145,-5.4,-5.1,0.4,-10.3,-34.9,7.3,0.645008698,-0.141056551,-0.64333018,-0.387493515
238,598735,1306950,0.917,0.316,0.145,-5.2,-5.4,0.6,-10.3,-34.9,7.3,0.644917142,-0.141178625,-0.643360698,-0.387554552
239,599975,1306950,0.917,0.316,0.142,-5.1,-5.6,0.9,-10.3,-34.9,7.3,0.644825587,-0.141300699,-0.643391217,-0.38758507
240,603103,1306960,0.913,0.316,0.146,-4.9,-5.8,1,-10.3,-34.9,7.3,0.644734031,-0.141453291,-0.643421735,-0.387615589
241,606174,1306960,0.909,0.32,0.142,-4.7,-6,1,-10.5,-35.1,7.2,0.644642476,-0.141575365,-0.643452254,-0.387646107
242,607555,1306960,0.909,0.32,0.146,-4.4,-6.2,1,-10.5,-35.1,7.2,0.64455092,-0.141697439,-0.643513291,-0.387676626
243,610644,1306960,0.913,0.32,0.146,-4.3,-6.5,1.1,-10.5,-35.1,7.2,0.644459365,-0.141819514,-0.643574328,-0.387707144
244,614174,1306970,0.909,0.324,0.146,-4.1,-6.6,1.2,-10.5,-35.1,7.2,0.644367809,-0.141972106,-0.643604846,-0.387737663
245,615354,1306970,0.909,0.328,0.15,-3.9,-6.7,1.3,-10.4,-35.2,7.2,0.644276254,-0.14209418,-0.643665883,-0.387737663
246,618364,1306970,0.913,0.328,0.146,-3.8,-6.7,1.2,-10.4,-35.2,7.2,0.644184698,-0.142246773,-0.64372692,-0.387768181
247,620022,1306970,0.909,0.328,0.15,-3.6,-6.8,1.2,-10.4,-35.2,7.2,0.644093142,-0.142368847,-0.643787957,-0.387768181
248,623226,1306980,0.909,0.332,0.15,-3.3,-7,1.2,-10.4,-35.2,7.2,0.643971068,-0.142490921,-0.643848994,-0.387768181
249,625274,1306980,0.913,0.332,0.15,-3,-7.3,1.3,-10.5,-35.4,7.1,0.643879513,-0.142612995,-0.64394055,-0.387768181
250,628113,1306980,0.917,0.336,0.15,-2.7,-7.6,1.4,-10.5,-35.4,7.1,0.643787957,-0.142735069,-0.644001587,-0.387768181
251,631121,1306980,0.913,0.332,0.15,-2.5,-7.9,1.6,-10.5,-35.4,7.1,0.643665883,-0.142857143,-0.644093142,-0.387768181
252,632612,1306990,0.925,0.336,0.142,-2.4,-8.3,1.7,-10.5,-35.4,7.1,0.643543809,-0.142979217,-0.644184698,-0.387737663
253,635686,1306990,0.925,0.34,0.142,-2.3,-8.5,1.8,-10.2,-35,7,0.643452254,-0.143131809,-0.644276254,-0.387737663
254,638642,1306990,0.925,0.34,0.142,-2.1,-8.8,1.9,-10.2,-35,7,0.64333018,-0.143253883,-0.644398328,-0.387707144
255,640278,1306990,0.929,0.343,0.146,-1.8,-9.1,2,-10.2,-35,7,0.643208106,-0.143375958,-0.644489883,-0.387676626
256,643211,1307000,0.932,0.351,0.146,-1.6,-9.4,2.2,-10.2,-35,7,0.643086032,-0.14352855,-0.644611957,-0.387646107
257,646339,1307000,0.932,0.355,0.142,-1.5,-9.8,2.4,-10.2,-35,7,0.642994476,-0.143467513,-0.644642476,-0.3877987
258,648543,1307000,0.94,0.355,0.138,-1.3,-10.2,2.4,-10.2,-35,7,0.642841884,-0.143589587,-0.64476455,-0.387737663
259,650745,1307000,0.94,0.355,0.138,-1.3,-10.5,2.4,-10.2,-35,7,0.64271981,-0.14374218,-0.644886624,-0.387707144
260,652968,1307010,0.94,0.359,0.142,-1.3,-10.6,2.4,-10.2,-35,7,0.642597736,-0.143864254,-0.645008698,-0.387646107
261,657007,1307010,0.944,0.359,0.142,-1.4,-10.8,2.4,-10.6,-34.5,7.1,0.642445143,-0.144016846,-0.64516129,-0.38758507
262,659298,1307010,0.948,0.359,0.142,-1.5,-11,2.5,-10.6,-34.5,7.1,0.642323069,-0.144169439,-0.645283364,-0.387554552
263,661614,1307010,0.944,0.359,0.142,-1.7,-11.2,2.6,-10.6,-34.5,7.1,0.642170476,-0.144322031,-0.645435957,-0.387493515
264,664006,1307020,0.944,0.359,0.142,-2,-11.3,2.7,-10.6,-34.5,7.1,0.642017884,-0.144505142,-0.645558031,-0.387462996
265,665792,1307020,0.948,0.355,0.141,-2.4,-11.3,2.8,-10.3,-34.6,7.3,0.64189581,-0.144657735,-0.645680105,-0.387401959
266,667984,1307020,0.948,0.355,0.138,-2.7,-11.4,2.8,-10.3,-34.6,7.3,0.641743217,-0.144840846,-0.645802179,-0.387371441
267,670477,1307020,0.944,0.355,0.142,-3.1,-11.6,3,-10.3,-34.6,7.3,0.641590625,-0.145023957,-0.645924253,-0.387340922
268,672760,1307030,0.944,0.359,0.138,-3.5,-11.8,3,-10.3,-34.6,7.3,0.641438032,-0.145207068,-0.646076846,-0.387310404
269,675027,1307030,0.948,0.351,0.141,-3.9,-12,3.1,-9.9,-35,6.8,0.64128544,-0.145420698,-0.64619892,-0.387279885
270,679548,1307030,0.94,0.347,0.142,-4.3,-12.3,3.3,-9.9,-35,6.8,0.641132847,-0.145634327,-0.646320994,-0.387249367
271,680007,1307030,0.94,0.351,0.145,-4.6,-12.4,3.6,-9.9,-35,6.8,0.640980255,-0.145847957,-0.646443068,-0.387249367
272,682548,1307040,0.932,0.351,0.138,-4.7,-12.7,3.8,-9.9,-35,6.8,0.640797143,-0.146092105,-0.646565142,-0.38718833
273,687072,1307040,0.929,0.351,0.142,-4.9,-12.9,4.1,-10.2,-34.8,7.3,0.640644551,-0.146305734,-0.646687216,-0.38718833
274,687468,1307040,0.936,0.347,0.146,-5,-13.1,4.4,-10.2,-34.8,7.3,0.64046144,-0.146549883,-0.64680929,-0.387157811
275,690150,1307040,0.929,0.347,0.146,-5.1,-13.4,4.6,-10.2,-34.8,7.3,0.640308847,-0.146824549,-0.646961882,-0.387096774
276,693691,1307050,0.929,0.351,0.146,-5.2,-13.6,5,-10.2,-34.8,7.3,0.640125736,-0.147068697,-0.647083956,-0.387066256
277,695674,1307050,0.929,0.351,0.15,-5.2,-14.4,5.5,-10.2,-34.8,7.3,0.640003662,-0.147068697,-0.647083956,-0.387279885
278,697887,1307050,0.929,0.351,0.15,-5.2,-14.4,5.5,-10.2,-34.8,7.3,0.639820551,-0.147343364,-0.647236549,-0.38718833
279,701026,1307050,0.929,0.351,0.15,-5.2,-14.4,5.5,-10.2,-34.8,7.3,0.639820551,-0.147343364,-0.647236549,-0.38718833
280,703915,1307060,0.929,0.351,0.15,-5.2,-14.4,5.5,-10.2,-34.8,7.3,0.639820551,-0.147343364,-0.647236549,-0.38718833
281,706236,1307060,0.929,0.359,0.15,-4.8,-15,6.4,-9.9,-35.4,6.9,0.639301737,-0.148197882,-0.647663808,-0.387035737
282,708167,1307060,0.929,0.367,0.146,-4.7,-15.4,6.7,-9.9,-35.4,6.9,0.639118625,-0.148503067,-0.647816401,-0.3869747
283,709946,1307060,0.929,0.367,0.15,-4.6,-15.6,6.9,-9.9,-35.4,6.9,0.638935514,-0.148777734,-0.647968993,-0.386883145
284,714135,1307070,0.925,0.371,0.15,-4.6,-15.8,7,-9.9,-35.4,6.9,0.638752403,-0.149082919,-0.648152104,-0.386791589
285,715800,1307070,0.925,0.363,0.146,-4.6,-15.7,7.1,-9.8,-34.9,6.9,0.638599811,-0.149388104,-0.648304697,-0.386700034
286,718777,1307070,0.925,0.375,0.146,-4.5,-15.7,7.2,-9.8,-34.9,6.9,0.6384167,-0.149693289,-0.648457289,-0.386638997
287,720160,1307070,0.929,0.371,0.146,-4.6,-15.7,7.2,-9.8,-34.9,6.9,0.638233589,-0.149967956,-0.648609882,-0.386547441
288,723198,1307080,0.925,0.371,0.142,-4.8,-15.7,7.2,-9.8,-34.9,6.9,0.638050478,-0.150273141,-0.648762474,-0.386455885
289,726153,1307080,0.925,0.379,0.138,-5,-15.7,7.4,-9.7,-35.3,6.8,0.637867367,-0.150578326,-0.648915067,-0.38636433
290,727423,1307080,0.921,0.379,0.146,-5.2,-15.8,7.5,-9.7,-35.3,6.8,0.637684256,-0.150914029,-0.64906766,-0.386272774
291,730910,1307080,0.921,0.379,0.146,-5.2,-15.8,7.5,-9.7,-35.3,6.8,0.637684256,-0.150914029,-0.64906766,-0.386272774
292,733983,1307090,0.921,0.379,0.146,-5.2,-15.8,7.5,-9.7,-35.3,6.8,0.637684256,-0.150914029,-0.64906766,-0.386272774
293,735466,1307090,0.921,0.375,0.142,-6.1,-15.8,7.7,-9.6,-35,7,0.637165441,-0.151890622,-0.649494919,-0.386059145
294,738631,1307090,0.921,0.379,0.134,-6.5,-15.9,7.9,-9.6,-35,7,0.63698233,-0.152226325,-0.649647511,-0.385998108
295,740737,1307090,0.917,0.371,0.134,-6.8,-15.9,7.9,-9.6,-35,7,0.636799219,-0.152562029,-0.649800104,-0.385906552
296,742966,1307100,0.921,0.375,0.134,-7.1,-15.9,7.7,-9.6,-35,7,0.636616108,-0.152897732,-0.649922178,-0.385845515
297,746152,1307100,0.913,0.383,0.139,-7.8,-16,7.6,-9.6,-35,7,0.636310923,-0.152317881,-0.649891659,-0.386638997
298,747620,1307100,0.913,0.383,0.139,-7.8,-16,7.6,-9.6,-35,7,0.636097293,-0.152684103,-0.650044252,-0.386608478
299,750684,1307100,0.909,0.379,0.135,-8.1,-16.2,7.7,-9.6,-35,7,0.635914182,-0.153050325,-0.650166326,-0.386547441
300,752838,1307110,0.921,0.383,0.134,-8.3,-16.3,7.8,-9.6,-35,7,0.635731071,-0.153416547,-0.6502884,-0.386516923
301,755845,1307110,0.921,0.387,0.131,-8.6,-16.5,8.1,-10,-34.9,7.3,0.635517441,-0.153782769,-0.650410474,-0.386455885
302,758297,1307110,0.921,0.391,0.135,-8.8,-16.7,8.1,-10,-34.9,7.3,0.63533433,-0.154148991,-0.650563066,-0.386425367
303,760439,1307110,0.921,0.391,0.135,-8.8,-16.7,8.1,-10,-34.9,7.3,0.63533433,-0.154148991,-0.650563066,-0.386425367
304,764644,1307120,0.929,0.391,0.134,-9.7,-16.8,8.3,-10,-34.9,7.3,0.63493759,-0.154942473,-0.650807215,-0.386333811
305,765103,1307120,0.932,0.391,0.134,-10.6,-16.6,8.3,-9.8,-35.3,7,0.63472396,-0.155339213,-0.650929289,-0.386333811
306,767558,1307120,0.929,0.391,0.131,-11.4,-16.5,8.3,-9.8,-35.3,7,0.634510331,-0.155766472,-0.651020844,-0.386303293
307,771339,1307120,0.933,0.391,0.123,-12.3,-16.3,8.2,-9.8,-35.3,7,0.634327219,-0.156193731,-0.6511124,-0.386333811
308,772933,1307130,0.936,0.391,0.119,-13,-16.3,8,-9.8,-35.3,7,0.63411359,-0.156620991,-0.651203955,-0.386333811
309,775619,1307130,0.929,0.391,0.119,-13.7,-16.4,8,-9.4,-35,7.5,0.63389996,-0.157078768,-0.651295511,-0.38636433
310,777779,1307130,0.936,0.387,0.111,-14.1,-16.6,8.1,-9.4,-35,7.5,0.633686331,-0.157506027,-0.651356548,-0.386394848
311,780573,1307130,0.936,0.387,0.111,-14.1,-16.6,8.1,-9.4,-35,7.5,0.633686331,-0.157506027,-0.651356548,-0.386394848
312,783005,1307140,0.936,0.387,0.111,-14.1,-16.6,8.1,-9.4,-35,7.5,0.633686331,-0.157506027,-0.651356548,-0.386394848
313,785576,1307140,0.937,0.383,0.083,-13.9,-19.3,9,-9.8,-35,7.1,0.632984405,-0.158940397,-0.651661733,-0.386455885
314,787611,1307140,0.944,0.38,0.071,-13.3,-20.9,10,-9.8,-35,7.1,0.632709738,-0.159398175,-0.651814325,-0.386425367
315,790086,1307140,0.948,0.372,0.059,-12.6,-22.9,11.2,-9.8,-35,7.1,0.632435072,-0.159978027,-0.651997436,-0.38636433
316,792592,1307150,0.944,0.372,0.063,-11.7,-25.3,12.6,-9.8,-35,7.1,0.632129887,-0.16052736,-0.652180548,-0.386272774
317,797180,1307150,0.944,0.372,0.063,-11.7,-25.3,12.6,-9.8,-35,7.1,0.632129887,-0.16052736,-0.652180548,-0.386272774
318,797469,1307150,0.944,0.372,0.063,-11.7,-25.3,12.6,-9.8,-35,7.1,0.632129887,-0.16052736,-0.652180548,-0.386272774
319,800670,1307150,0.983,0.366,0.129,-9,-34.4,17.4,-9.8,-35,7.1,0.630726035,-0.162053285,-0.653370769,-0.385937071
320,802969,1307160,1.007,0.366,0.133,-8.6,-36.9,19,-9.8,-35,7.1,0.630329295,-0.162755211,-0.653736991,-0.385662404
321,806002,1307160,1.038,0.365,0.187,-8.9,-38.9,20.3,-9.3,-34.7,7,0.629932554,-0.163487655,-0.654133732,-0.385387738
322,809426,1307160,1.065,0.364,0.206,-9.9,-40,21.1,-9.3,-34.7,7,0.629505295,-0.164250618,-0.654530473,-0.385082553
323,811575,1307160,1.08,0.364,0.229,-11.8,-39.9,21.3,-9.3,-34.7,7,0.629047517,-0.165074618,-0.654896695,-0.384838404
324,813473,1307170,1.088,0.364,0.237,-14.3,-38.3,21.1,-9.3,-34.7,7,0.628620258,-0.165868099,-0.655232398,-0.384594256
325,816030,1307170,1.073,0.36,0.245,-17,-35.4,20.5,-9.2,-35.6,6.5,0.628223518,-0.166692099,-0.655507065,-0.384441664
326,819097,1307170,1.061,0.368,0.234,-19.8,-31.3,19.4,-9.2,-35.6,6.5,0.627887814,-0.167516099,-0.655690176,-0.384350108
327,820980,1307170,1.053,0.372,0.222,-22.5,-26.8,17.7,-9.2,-35.6,6.5,0.62755211,-0.16830958,-0.65581225,-0.38431959
328,823366,1307180,1.018,0.393,0.172,-25.1,-22.7,15.4,-9.2,-35.6,6.5,0.627277444,-0.169072542,-0.655842769,-0.384380627
329,825493,1307180,0.995,0.413,0.149,-27.1,-19.4,12.7,-9.1,-35,6.7,0.627002777,-0.169774468,-0.655842769,-0.384533219
330,827904,1307180,0.964,0.429,0.134,-28.1,-17.3,9.9,-9.1,-35,6.7,0.626728111,-0.170445875,-0.65581225,-0.384746849
331,830226,1307180,0.936,0.434,0.119,-28,-16,7.2,-9.1,-35,6.7,0.626453444,-0.171086764,-0.655751213,-0.384960479
332,832488,1307190,0.886,0.443,0.065,-26.9,-15.7,4.5,-9.1,-35,6.7,0.626178777,-0.171636097,-0.655720695,-0.385235145
333,836247,1307190,0.874,0.444,0.03,-24.9,-16.2,2.3,-9.2,-35.4,6.4,0.625873592,-0.172154912,-0.655720695,-0.385509812
334,838278,1307190,0.863,0.436,0.015,-21.8,-17.5,0.6,-9.2,-35.4,6.4,0.625537889,-0.17261269,-0.655781732,-0.38575396
335,840464,1307190,0.847,0.425,-0.015,-17.4,-19.3,-0.4,-9.2,-35.4,6.4,0.625202185,-0.17300943,-0.655903806,-0.385937071
336,843730,1307200,0.855,0.41,-0.031,-12,-21.4,-1.2,-9.2,-35.4,6.4,0.624835963,-0.173345134,-0.656086917,-0.386028626
337,845743,1307200,0.867,0.386,-0.044,0.6,-25.2,-2,-9.2,-35.4,6.4,0.624317148,-0.173345134,-0.656575213,-0.386059145
338,847623,1307200,0.867,0.386,-0.044,0.6,-25.2,-2,-9.2,-35.4,6.4,0.623920408,-0.173528245,-0.656941435,-0.385998108
339,851638,1307200,0.902,0.354,-0.029,6.3,-26.5,-2.1,-9.2,-35.4,6.4,0.623554186,-0.1736198,-0.657338176,-0.385814997
340,853866,1307210,0.914,0.33,-0.01,10.7,-27.3,-1.7,-9.2,-35.4,6.4,0.623187963,-0.173680837,-0.657826472,-0.385601367
341,855974,1307210,0.933,0.31,-0.007,13.4,-27.8,-1.1,-9,-35.5,6.7,0.622821741,-0.173711356,-0.658314768,-0.385296182
342,858177,1307210,0.949,0.298,0.012,14,-28,-0.3,-9,-35.5,6.7,0.622486038,-0.173772393,-0.658803064,-0.384990997
343,860348,1307210,0.949,0.298,0.012,14,-28,-0.3,-9,-35.5,6.7,0.622486038,-0.173772393,-0.658803064,-0.384990997
344,863415,1307220,0.949,0.298,0.012,14,-28,-0.3,-9,-35.5,6.7,0.622486038,-0.173772393,-0.658803064,-0.384990997
345,865727,1307220,0.999,0.253,0.081,1.9,-28.8,1.1,-9.1,-35.4,7,0.621356853,-0.174199652,-0.660145878,-0.38431959
346,867543,1307220,1.011,0.229,0.111,-5.3,-29.4,1.9,-9.1,-35.4,7,0.620929594,-0.174535356,-0.660512101,-0.384258553
347,870846,1307220,1.011,0.221,0.119,-13.2,-29.8,3.2,-9.1,-35.4,7,0.620471816,-0.175023652,-0.660786767,-0.384289071
348,873184,1307230,0.999,0.217,0.119,-20.5,-30.1,4.7,-9.1,-35.4,7,0.61998352,-0.175634022,-0.661000397,-0.384411145
349,875221,1307230,0.987,0.21,0.119,-26.7,-30.2,6.4,-8.8,-35.4,6.4,0.619525742,-0.176335948,-0.661122471,-0.384594256
350,879487,1307230,0.972,0.198,0.104,-30.9,-29.9,8,-8.8,-35.4,6.4,0.619037446,-0.177129429,-0.661275063,-0.384838404
351,881588,1307230,0.96,0.203,0.089,-33.2,-29.2,9.2,-8.8,-35.4,6.4,0.61854915,-0.177953429,-0.661366619,-0.385052034
352,883846,1307240,0.945,0.199,0.081,-33.4,-28.2,10.2,-8.8,-35.4,6.4,0.618091372,-0.178777429,-0.661427656,-0.385296182
353,885883,1307240,0.929,0.204,0.034,-31.8,-26.8,11.2,-9,-35.6,6.6,0.617694632,-0.179601428,-0.661458174,-0.385509812
354,888162,1307240,0.921,0.212,0.015,-28.7,-24.8,12.1,-9,-35.6,6.6,0.61732841,-0.180364391,-0.661519211,-0.385662404
355,890336,1307240,0.921,0.212,0.015,-28.7,-24.8,12.1,-9,-35.6,6.6,0.61732841,-0.180364391,-0.661519211,-0.385662404
356,894438,1307250,0.921,0.212,0.015,-28.7,-24.8,12.1,-9,-35.6,6.6,0.61732841,-0.180364391,-0.661519211,-0.385662404
357,896494,1307250,0.918,0.209,-0.054,-14.7,-13.5,13.8,-9,-35.6,6.6,0.616626484,-0.182378613,-0.661641285,-0.385601367
358,898278,1307250,0.918,0.209,-0.054,-14.7,-13.5,13.8,-9,-35.6,6.6,0.616473891,-0.182897427,-0.661641285,-0.385570849
359,900311,1307250,0.918,0.209,-0.054,-14.7,-13.5,13.8,-9,-35.6,6.6,0.616473891,-0.182897427,-0.661641285,-0.385570849
360,904506,1307260,0.937,0.178,-0.075,-14.1,-7.6,10.4,-9,-35.6,6.6,0.61629078,-0.183751946,-0.66154973,-0.385601367
361,906705,1307260,0.965,0.185,-0.063,-14.8,-5,7.8,-9.2,-35.1,6.5,0.616229743,-0.184118168,-0.661458174,-0.385692923
362,908872,1307260,0.976,0.173,-0.06,-15.6,-2.9,5,-9.2,-35.1,6.5,0.616168706,-0.184423353,-0.661366619,-0.385845515
363,911354,1307260,0.988,0.181,-0.052,-16.6,-1.4,2.5,-9.2,-35.1,6.5,0.616107669,-0.184698019,-0.661214026,-0.386028626
364,913213,1307270,1.008,0.161,-0.049,-18.3,-0.4,1,-9.2,-35.1,6.5,0.616046632,-0.184972686,-0.661061434,-0.386272774
365,915203,1307270,1.012,0.149,-0.045,-21.2,0.1,0.7,-9,-35.2,6.6,0.615955077,-0.185247353,-0.660878323,-0.38657796
366,919315,1307270,1.012,0.149,-0.045,-21.2,0.1,0.7,-9,-35.2,6.6,0.615955077,-0.185247353,-0.660878323,-0.38657796
367,921461,1307270,1.012,0.149,-0.045,-21.2,0.1,0.7,-9,-35.2,6.6,0.615955077,-0.185247353,-0.660878323,-0.38657796
368,923530,1307280,1.012,0.149,-0.045,-21.2,0.1,0.7,-9,-35.2,6.6,0.615955077,-0.185247353,-0.660878323,-0.38657796
369,925863,1307280,1.102,0.124,-0.055,-37,0.4,9.1,-9.2,-35.5,6,0.615649892,-0.187231056,-0.659718619,-0.388103885
370,928060,1307280,1.101,0.101,-0.047,-39.8,0.7,12.7,-9.2,-35.5,6,0.615588855,-0.187932981,-0.659321879,-0.388531144
371,930317,1307280,1.02,-0.01,-0.09,-42,1.2,16.9,-9.2,-35.5,6,0.615588855,-0.188756981,-0.65889462,-0.388897366
372,932878,1307290,0.989,-0.053,-0.098,-43.1,1.5,21.1,-9.2,-35.5,6,0.615619373,-0.189611499,-0.658406323,-0.38923307
373,935175,1307290,1,-0.084,-0.11,-42,1.7,23.8,-9.1,-35.5,6,0.615649892,-0.190496536,-0.657918027,-0.389538255
374,938856,1307290,1.004,-0.143,-0.119,-37.1,1.3,22.9,-9.1,-35.5,6,0.615710929,-0.191320536,-0.657490768,-0.389751885
375,940310,1307290,1.004,-0.147,-0.119,-28.3,0.7,17.9,-9.1,-35.5,6,0.615771966,-0.191961425,-0.657185583,-0.389934996
376,943306,1307300,1.04,-0.132,-0.112,-16.1,0.4,9.3,-9.1,-35.5,6,0.615802484,-0.192297128,-0.657002472,-0.390026551
377,945474,1307300,1.129,-0.078,-0.101,11.5,-0.8,-8.3,-9.1,-35.5,6,0.615863521,-0.192724387,-0.657185583,-0.389355144
378,949015,1307300,1.129,-0.075,-0.077,11.5,-0.8,-8.3,-9.1,-35.5,6,0.615833003,-0.192449721,-0.657338176,-0.389294107
379,950887,1307300,1.129,-0.063,-0.081,23.3,-2.6,-12.1,-9.1,-35.5,6,0.615802484,-0.191991943,-0.657643361,-0.389110996
380,953227,1307310,1.141,-0.055,-0.077,31.9,-5.3,-11,-9.1,-35.5,6,0.615741447,-0.19144261,-0.658009583,-0.388775292
381,955377,1307310,1.145,-0.036,-0.065,37.2,-8.4,-6.6,-8.9,-35.9,6.1,0.615741447,-0.190923795,-0.65846736,-0.388286996
382,959331,1307310,1.141,-0.028,-0.057,39.7,-11.1,-1.3,-8.9,-35.9,6.1,0.615741447,-0.190466018,-0.658955657,-0.387707144
383,961534,1307310,1.137,-0.028,-0.061,40.5,-12.7,2.8,-8.9,-35.9,6.1,0.615741447,-0.190069277,-0.659474471,-0.387005219
384,963863,1307320,1.133,-0.02,-0.057,40.5,-13.2,5.5,-8.9,-35.9,6.1,0.615771966,-0.189672536,-0.659962767,-0.386303293
385,966299,1307320,1.117,-0.016,-0.065,40.7,-12.7,6.9,-9.1,-35.9,6.3,0.615802484,-0.189367351,-0.660451064,-0.385570849
386,968432,1307320,1.106,-0.016,-0.064,41.4,-11.5,7.5,-9.1,-35.9,6.3,0.615863521,-0.189031648,-0.66093936,-0.384838404
387,970532,1307320,1.102,-0.016,-0.072,43,-9.9,7.7,-9.1,-35.9,6.3,0.615985595,-0.188634907,-0.661397137,-0.384075442
388,973088,1307330,1.098,-0.015,-0.08,45.4,-8,7.8,-9.1,-35.9,6.3,0.616107669,-0.188207648,-0.661854915,-0.383281961
389,975242,1307330,1.078,-0.019,-0.099,48.4,-5.8,7.8,-9.1,-35.5,6.8,0.61629078,-0.187719352,-0.662282174,-0.382427442
390,977549,1307330,1.078,-0.019,-0.111,51.8,-3.8,7.7,-9.1,-35.5,6.8,0.61650441,-0.187170019,-0.662739952,-0.381572924
391,980766,1307330,1.075,-0.022,-0.123,55.4,-1.8,7.3,-9.1,-35.5,6.8,0.616779077,-0.18652913,-0.663197729,-0.380657369
392,982828,1307340,1.075,-0.022,-0.123,55.4,-1.8,7.3,-9.1,-35.5,6.8,0.616779077,-0.18652913,-0.663197729,-0.380657369
393,985905,1307340,1.071,-0.034,-0.162,63.5,1.6,5.8,-9.4,-35.6,7,0.617389447,-0.185064241,-0.664143803,-0.378704184
394,988138,1307340,1.067,-0.037,-0.185,67.7,3.4,4.8,-9.4,-35.6,7,0.617755669,-0.184179205,-0.664632099,-0.377697073
395,990504,1307340,1.059,-0.049,-0.201,72,5.2,3.3,-9.4,-35.6,7,0.618152409,-0.183233131,-0.665150914,-0.376628925
396,993552,1307350,1.063,-0.064,-0.236,76.5,7.1,1.6,-9.4,-35.6,7,0.618579669,-0.182164983,-0.665669729,-0.375469222
397,995685,1307350,1.083,-0.079,-0.257,85.9,11.2,-1.9,-9.4,-35.6,7,0.619037446,-0.181554613,-0.66646321,-0.37366863
398,997556,1307350,1.083,-0.079,-0.257,85.9,11.2,-1.9,-9.4,-35.6,7,0.619495224,-0.180272835,-0.667012543,-0.372478408
399,1001534,1307350,1.083,-0.079,-0.257,85.9,11.2,-1.9,-9.4,-35.6,7,0.619495224,-0.180272835,-0.667012543,-0.372478408
400,1003396,1307360,1.064,-0.134,-0.296,95.5,16.2,-4.3,-9.4,-35.6,7,0.620624409,-0.177373577,-0.668141728,-0.36997589
401,1005721,1307360,1.079,-0.153,-0.304,100,18.5,-5.3,-9.3,-35.2,7.8,0.621234779,-0.175817133,-0.66872158,-0.368663594
402,1007554,1307360,1.107,-0.158,-0.301,104.4,20.6,-6.8,-9.3,-35.2,7.8,0.621875668,-0.174138615,-0.669301431,-0.36732078
403,1010636,1307360,1.158,-0.201,-0.31,108.6,22.1,-8.8,-9.3,-35.2,7.8,0.622547075,-0.172338023,-0.669911802,-0.365916929
404,1012529,1307370,1.22,-0.183,-0.28,112.1,23.3,-10.8,-9.3,-35.2,7.8,0.623218482,-0.170476394,-0.670522172,-0.364513077
405,1016552,1307370,1.208,-0.237,-0.284,114.6,24.6,-11.8,-9.1,-34.9,8.8,0.623889889,-0.168553728,-0.67116306,-0.363109226
406,1018832,1307370,1.193,-0.351,-0.297,115.4,26,-11.4,-9.1,-34.9,8.8,0.624622333,-0.166600543,-0.671742912,-0.361644337
407,1020742,1307370,1.193,-0.351,-0.297,115.4,26,-11.4,-9.1,-34.9,8.8,0.624622333,-0.166600543,-0.671742912,-0.361644337
408,1023018,1307380,1.193,-0.351,-0.297,115.4,26,-11.4,-9.1,-34.9,8.8,0.624622333,-0.166600543,-0.671742912,-0.361644337
409,1026162,1307380,1.275,-0.431,-0.276,110.5,30.4,-6.6,-9.2,-33.9,9.2,0.626911222,-0.160954619,-0.673299356,-0.357341227
410,1027635,1307380,1.267,-0.493,-0.281,109.1,30.6,-6,-9.2,-33.9,9.2,0.627704703,-0.159123508,-0.673757134,-0.355937376
411,1030718,1307380,1.31,-0.486,-0.269,108.2,30,-5.1,-9.2,-33.9,9.2,0.628467666,-0.157322916,-0.674184393,-0.354503006
412,1032498,1307390,1.298,-0.506,-0.27,108,29,-2.7,-9.2,-33.9,9.2,0.629261147,-0.155583361,-0.67464217,-0.353068636
413,1036580,1307390,1.298,-0.506,-0.27,108,29,-2.7,-9.2,-33.9,9.2,0.629261147,-0.155583361,-0.67464217,-0.353068636
414,1038161,1307390,1.248,-0.501,-0.28,113.6,25.7,7.8,-9.1,-34.2,9.6,0.630848109,-0.152256844,-0.675588244,-0.349833674
415,1040499,1307390,1.248,-0.473,-0.288,119.9,23.6,15.7,-9.1,-34.2,9.6,0.631733146,-0.150608844,-0.676107059,-0.347911008
416,1043771,1307400,1.244,-0.434,-0.295,128.5,20.8,24.1,-9.1,-34.2,9.6,0.632618183,-0.149082919,-0.676717429,-0.345744194
417,1045832,1307400,1.24,-0.343,-0.31,138.4,17.7,32,-9.1,-34.2,9.6,0.633594775,-0.147495956,-0.677419355,-0.343333232
418,1048096,1307400,1.236,-0.304,-0.321,148.3,14.8,39.1,-9.1,-34.2,9.6,0.634571368,-0.145908994,-0.678182318,-0.340647603
419,1050314,1307400,1.236,-0.304,-0.321,148.3,14.8,39.1,-9.1,-34.2,9.6,0.634571368,-0.145908994,-0.678182318,-0.340647603
420,1053322,1307410,1.236,-0.304,-0.321,148.3,14.8,39.1,-9.1,-34.2,9.6,0.634571368,-0.145908994,-0.678182318,-0.340647603
421,1055495,1307410,1.197,-0.127,-0.349,172.6,10.6,54.2,-9.8,-33,11.2,0.637684256,-0.140995514,-0.680867946,-0.331308939
422,1058808,1307410,1.205,-0.087,-0.361,179.7,10.8,57.2,-9.8,-33,11.2,0.638843959,-0.139286477,-0.681844539,-0.327890866
423,1060905,1307410,1.216,-0.052,-0.372,187,11.5,59.2,-9.8,-33,11.2,0.640003662,-0.137455367,-0.682821131,-0.3243202
424,1062705,1307420,1.189,0.002,-0.375,194.4,13.1,60.4,-9.8,-33,11.2,0.641224403,-0.135563219,-0.683828242,-0.320596942
425,1066784,1307420,1.154,0.026,-0.366,202,15.9,61.3,-10.5,-32.1,12.2,0.642475661,-0.133518479,-0.684835353,-0.316782128
426,1068975,1307420,1.162,0.054,-0.382,209.6,19.7,62.3,-10.5,-32.1,12.2,0.643787957,-0.131382183,-0.685811945,-0.312814722
427,1071280,1307420,1.142,0.062,-0.381,216.9,24,63.3,-10.5,-32.1,12.2,0.645191809,-0.129123814,-0.686788537,-0.30875576
428,1072703,1307430,1.115,0.09,-0.392,223.3,28.3,63.8,-10.5,-32.1,12.2,0.646687216,-0.12674337,-0.687704093,-0.304574725
429,1076775,1307430,1.13,0.102,-0.408,228.1,32.3,62.8,-10.8,-32.1,13,0.648213141,-0.124240852,-0.688558611,-0.30036317
430,1078938,1307430,1.146,0.098,-0.416,231.4,36.3,60.2,-10.8,-32.1,13,0.649769585,-0.121646779,-0.689382611,-0.296121097
431,1081303,1307430,1.115,0.083,-0.42,233,40.5,56.3,-10.8,-32.1,13,0.651356548,-0.118930631,-0.690176092,-0.291909543
432,1082738,1307440,1.131,0.071,-0.443,233.7,44.9,51.9,-10.8,-32.1,13,0.65294351,-0.11609241,-0.690878018,-0.287789544
433,1087001,1307440,1.138,0.059,-0.448,234,49.6,48.1,-11.2,-31.1,14,0.65459151,-0.113162633,-0.691518906,-0.283669546
434,1089174,1307440,1.146,0.055,-0.456,234.7,53.9,45.1,-11.2,-31.1,14,0.656239509,-0.110171819,-0.692068239,-0.279641102
435,1091302,1307440,1.166,0.043,-0.464,236.1,58.1,43.2,-11.2,-31.1,14,0.657948546,-0.10708945,-0.692556536,-0.275582141
436,1093347,1307450,1.17,0.043,-0.468,238.1,61.5,42.2,-11.2,-31.1,14,0.659688101,-0.103915525,-0.692983795,-0.271523179
437,1095591,1307450,1.178,0.032,-0.476,240.2,64.3,41.7,-11.2,-31.1,14,0.661427656,-0.100680563,-0.693380535,-0.267433699
438,1098720,1307450,1.182,0.032,-0.484,241.6,66.2,41.1,-11.2,-31.1,14,0.663197729,-0.0974761193,-0.693746757,-0.2633137
439,1100801,1307450,1.193,0.032,-0.488,241.8,67.4,40.4,-11.2,-31.1,14,0.664967803,-0.0941801202,-0.694051943,-0.259193701
440,1102998,1307460,1.193,0.036,-0.492,240.7,68,40,-11.2,-31.1,14,0.666707358,-0.0909146397,-0.694326609,-0.255104221
441,1106207,1307460,1.205,0.032,-0.504,238.8,68.1,40.1,-12.4,-29.4,16.5,0.668416395,-0.0876796777,-0.694601276,-0.251045259
442,1107549,1307460,1.197,0.055,-0.5,236.5,68.1,40.9,-12.4,-29.4,16.5,0.670125431,-0.0844752342,-0.694814905,-0.246986297
443,1110583,1307460,1.197,0.055,-0.5,236.5,68.1,40.9,-12.4,-29.4,16.5,0.670125431,-0.0844752342,-0.694814905,-0.246986297
444,1113666,1307470,1.193,0.044,-0.531,231.5,66.9,43.5,-12.4,-29.4,16.5,0.673451949,-0.0782189398,-0.695150609,-0.238898892
445,1115089,1307470,1.19,0.068,-0.542,229.3,65.1,45.8,-12.9,-28.4,17,0.675038911,-0.0751976073,-0.695303201,-0.234870449
446,1118035,1307470,1.186,0.079,-0.538,227.9,62.3,49.4,-12.9,-28.4,17,0.676625874,-0.0722678304,-0.695455794,-0.230780969
447,1121197,1307470,1.201,0.111,-0.546,227.7,54.6,59.8,-12.9,-28.4,17,0.679586169,-0.0667134617,-0.695852535,-0.22235786
448,1122541,1307480,1.162,0.135,-0.545,228,50.8,66,-13.3,-27.8,18.3,0.68099002,-0.0640583514,-0.696096683,-0.217993713
449,1126394,1307480,1.162,0.135,-0.545,228,50.8,66,-13.3,-27.8,18.3,0.68099002,-0.0640583514,-0.696096683,-0.217993713
450,1127761,1307480,1.158,0.154,-0.541,228,47.2,72.5,-13.3,-27.8,18.3,0.682363353,-0.0615558336,-0.696371349,-0.213507492
451,1130807,1307480,1.154,0.174,-0.541,227.5,44.1,78.9,-13.3,-27.8,18.3,0.683706168,-0.0591753899,-0.696676534,-0.208929716
452,1133045,1307490,1.146,0.237,-0.532,223.9,39.4,89.1,-13.4,-27.1,18.8,0.686269723,-0.0547196875,-0.697256386,-0.199591052
453,1136342,1307490,1.146,0.237,-0.532,223.9,39.4,89.1,-13.4,-27.1,18.8,0.686269723,-0.0547196875,-0.697256386,-0.199591052
454,1138408,1307490,1.135,0.237,-0.532,220.3,37.9,92.3,-13.4,-27.1,18.8,0.687490463,-0.0526749474,-0.697500534,-0.194891202
455,1140528,1307490,1.127,0.253,-0.527,215.5,37,94.1,-13.4,-27.1,18.8,0.688711203,-0.0507217627,-0.697744682,-0.190252388
456,1143698,1307500,1.111,0.265,-0.527,209.9,36.2,95.2,-13.4,-27.1,18.8,0.689870907,-0.0488601337,-0.697958312,-0.185644093
457,1145077,1307500,1.111,0.28,-0.519,198.5,34.3,96,-13.4,-27.1,18.8,0.691000092,-0.0471510971,-0.698141423,-0.181218909
458,1148058,1307500,1.092,0.288,-0.518,198.5,34.3,96,-13.4,-27.1,18.8,0.692098758,-0.0455336161,-0.698294015,-0.176793725
459,1151150,1307500,1.076,0.312,-0.49,188.7,33.3,96.5,-13.4,-27.1,18.8,0.694204535,-0.0424207282,-0.698538163,-0.16809595
460,1152555,1307510,1.076,0.312,-0.49,188.7,33.3,96.5,-13.4,-27.1,18.8,0.694204535,-0.0424207282,-0.698538163,-0.16809595
461,1155543,1307510,1.076,0.312,-0.49,188.7,33.3,96.5,-13.4,-27.1,18.8,0.694204535,-0.0424207282,-0.698538163,-0.16809595
462,1158726,1307510,1.08,0.339,-0.471,181.2,32.6,94.2,-14.1,-24.8,20.1,0.696218757,-0.0395519883,-0.698690756,-0.15970336
463,1160774,1307510,1.08,0.339,-0.471,181.2,32.6,94.2,-14.1,-24.8,20.1,0.696218757,-0.0395519883,-0.698690756,-0.15970336
464,1163000,1307520,1.044,0.37,-0.45,177.7,31.2,88.9,-15.1,-24.2,20.1,0.698995941,-0.0352488784,-0.69881283,-0.147526475
465,1166210,1307520,1.044,0.37,-0.45,177.7,31.2,88.9,-15.1,-24.2,20.1,0.698995941,-0.0352488784,-0.69881283,-0.147526475
466,1168422,1307520,1.052,0.386,-0.446,179.7,30.9,87.9,-15.1,-24.2,20.1,0.699880978,-0.033722953,-0.698843348,-0.143467513
467,1170556,1307520,1.06,0.413,-0.442,183.5,30.6,87.3,-15.1,-24.2,20.1,0.700766015,-0.032166509,-0.698873867,-0.139347514
468,1173692,1307530,1.087,0.452,-0.442,195.3,28.5,87.4,-14.9,-23.1,21.5,0.702414014,-0.0287789544,-0.698995941,-0.130863369
469,1175093,1307530,1.118,0.487,-0.446,202.8,27.5,87.6,-14.9,-23.1,21.5,0.703207495,-0.0269478439,-0.699087497,-0.126438185
470,1178991,1307530,1.118,0.487,-0.446,202.8,27.5,87.6,-14.9,-23.1,21.5,0.703207495,-0.0269478439,-0.699087497,-0.126438185
471,1181206,1307530,1.118,0.487,-0.446,202.8,27.5,87.6,-14.9,-23.1,21.5,0.703207495,-0.0269478439,-0.699087497,-0.126438185
472,1182595,1307540,1.118,0.487,-0.446,202.8,27.5,87.6,-14.9,-23.1,21.5,0.703207495,-0.0269478439,-0.699087497,-0.126438185
473,1185587,1307540,1.028,0.585,-0.369,238.7,34.6,87.4,-15.6,-22,21.7,0.706411939,-0.0181585131,-0.699362163,-0.107364116
474,1188703,1307540,1.036,0.605,-0.369,246.1,37.7,85,-15.6,-22,21.7,0.707266457,-0.0155644398,-0.699301126,-0.102298044
475,1190064,1307540,1.067,0.62,-0.381,250.9,39.1,80.3,-15.6,-22,21.7,0.708120975,-0.012817774,-0.699209571,-0.0972319712
476,1193984,1307550,1.067,0.62,-0.381,250.9,39.1,80.3,-15.6,-22,21.7,0.708120975,-0.012817774,-0.699209571,-0.0972319712
477,1196274,1307550,1.177,0.674,-0.39,254.3,37.8,66.1,-15.6,-22,21.7,0.709646901,-0.00683614612,-0.699056978,-0.0874660482
478,1198383,1307550,1.177,0.674,-0.39,254.3,37.8,66.1,-15.6,-22,21.7,0.709646901,-0.00683614612,-0.699056978,-0.0874660482
479,1200599,1307550,1.341,0.707,-0.404,254.7,39.3,56,-15.6,-22,21.7,0.711081271,-0.000549333171,-0.698751793,-0.0779137547
480,1203021,1307560,1.341,0.707,-0.404,254.7,39.3,56,-15.6,-22,21.7,0.711081271,-0.000549333171,-0.698751793,-0.0779137547
481,1205331,1307560,1.505,0.796,-0.414,257.3,55.8,63.8,-16.4,-19.7,22.9,0.712759789,0.00570696127,-0.698019349,-0.0682088687
482,1207588,1307560,1.454,0.796,-0.378,259.3,76.5,80.2,-16.4,-19.7,22.9,0.714011048,0.00863673818,-0.697225867,-0.0629902036
483,1211314,1307560,1.036,0.67,-0.29,260.2,106.2,104.8,-16.4,-19.7,22.9,0.715689566,0.0112308115,-0.695913572,-0.0574053163
484,1213363,1307570,1.043,0.646,-0.271,258.2,140.4,132.1,-17.3,-18,23.3,0.717917417,0.0134281442,-0.694082461,-0.0513626514
485,1215578,1307570,1.043,0.646,-0.271,258.2,140.4,132.1,-17.3,-18,23.3,0.717917417,0.0134281442,-0.694082461,-0.0513626514
486,1218846,1307570,0.852,0.589,-0.221,252.9,172.7,153.9,-17.3,-18,23.3,0.720603046,0.0152592547,-0.691671499,-0.0450758385
487,1220834,1307570,0.981,0.588,-0.266,244.4,198,164.5,-17.3,-18,23.3,0.723624378,0.0168156987,-0.688833277,-0.0387279885
488,1223085,1307580,0.75,0.538,-0.145,234.4,214.5,162.8,-17.3,-18,23.3,0.726920377,0.0182500687,-0.685689871,-0.0325632496
489,1225290,1307580,0.852,0.514,-0.183,224.6,223.5,152.4,-18.6,-16.7,23.2,0.730246895,0.0196539201,-0.682332835,-0.0267036958
490,1229290,1307580,0.656,0.476,-0.082,216.5,227.2,138.1,-18.6,-16.7,23.2,0.733603931,0.0212103641,-0.678884243,-0.0211798456
491,1231434,1307580,0.746,0.451,-0.068,210.7,226.8,123.6,-18.6,-16.7,23.2,0.73689993,0.0228278451,-0.675405133,-0.0159611805
492,1233691,1307590,0.671,0.411,0.006,205.8,214.4,100.6,-19.1,-15.2,23.1,0.743125706,0.0264900662,-0.668568987,-0.00625629444
493,1235894,1307590,0.847,0.398,-0.024,206.9,204,93.6,-19.1,-15.2,23.1,0.745994446,0.0285348064,-0.665303507,-0.001617481
494,1238097,1307590,0.82,0.39,0.011,209.9,191.9,89.3,-19.1,-15.2,23.1,0.748619037,0.0306405835,-0.662251656,0.00299081393
495,1241172,1307590,0.82,0.39,0.011,209.9,191.9,89.3,-19.1,-15.2,23.1,0.748619037,0.0306405835,-0.662251656,0.00299081393
496,1242620,1307600,0.82,0.39,0.011,209.9,191.9,89.3,-19.1,-15.2,23.1,0.748619037,0.0306405835,-0.662251656,0.00299081393
497,1246494,1307600,0.702,0.308,0.067,225.2,152.7,87.2,-19.1,-15.2,23.1,0.755027924,0.0377208777,-0.654347362,0.0171819208
498,1248046,1307600,0.765,0.296,0.066,230.2,137.7,87.1,-19.1,-15.2,23.1,0.756767479,0.0402233955,-0.652058473,0.0220343638
499,1251312,1307600,1.007,0.333,0.007,234.5,120.1,85.5,-19.1,-15.2,23.1,0.758201849,0.0428174688,-0.650013733,0.0268562883
500,1253415,1307610,1.007,0.333,0.007,234.5,120.1,85.5,-19.1,-15.2,23.1,0.758201849,0.0428174688,-0.650013733,0.0268562883
501,1255603,1307610,0.937,0.286,0.035,243.7,83,79.9,-19.9,-13.1,23,0.760216071,0.0483718375,-0.646778771,0.0365916929
502,1257912,1307610,0.925,0.278,0.047,249.6,69,78.7,-19.9,-13.1,23,0.76085696,0.0513626514,-0.645496994,0.0414746544
503,1260809,1307610,0.925,0.278,0.047,249.6,69,78.7,-19.9,-13.1,23,0.76085696,0.0513626514,-0.645496994,0.0414746544
504,1263126,1307620,0.98,0.285,0.054,261.5,53.9,77.9,-20.3,-11.7,23.3,0.76168096,0.0576189459,-0.643299661,0.051515244
505,1265365,1307620,1.105,0.303,0.056,265.5,48,73.1,-20.3,-11.7,23.3,0.761925108,0.0609454634,-0.642262032,0.056489761
506,1268326,1307620,1.105,0.303,0.056,265.5,48,73.1,-20.3,-11.7,23.3,0.761925108,0.0609454634,-0.642262032,0.056489761
507,1270677,1307620,1.105,0.303,0.056,265.5,48,73.1,-20.3,-11.7,23.3,0.761925108,0.0609454634,-0.642262032,0.056489761
508,1272846,1307630,1.105,0.303,0.056,265.5,48,73.1,-20.3,-11.7,23.3,0.761925108,0.0609454634,-0.642262032,0.056489761
509,1275805,1307630,1.105,0.303,0.056,265.5,48,73.1,-20.3,-11.7,23.3,0.761925108,0.0609454634,-0.642262032,0.056489761
510,1278111,1307630,1.105,0.303,0.056,265.5,48,73.1,-20.3,-11.7,23.3,0.761925108,0.0609454634,-0.642262032,0.056489761
511,1280507,1307630,1.217,0.012,0.301,241.6,49.4,29.7,-20.4,-10.2,23.1,0.762260811,0.0826746422,-0.636555071,0.0828272347
512,1283771,1307640,1.119,-0.026,0.38,228.6,66.2,30.2,-20.7,-9.6,23.4,0.76268807,0.0859401227,-0.635090182,0.0866115299
513,1285805,1307640,1.264,0.014,0.378,213.3,86.7,34.4,-20.7,-9.6,23.4,0.763451033,0.0888393811,-0.63328959,0.0903042695
514,1288020,1307640,1.162,0,0.427,196.9,109.1,43.1,-20.7,-9.6,23.4,0.764488662,0.0913113804,-0.631153294,0.0939664907
515,1291189,1307640,1.162,0,0.427,196.9,109.1,43.1,-20.7,-9.6,23.4,0.764488662,0.0913113804,-0.631153294,0.0939664907
516,1293353,1307650,1.162,0,0.427,196.9,109.1,43.1,-20.7,-9.6,23.4,0.764488662,0.0913113804,-0.631153294,0.0939664907
517,1295569,1307650,0.654,-0.178,0.641,166.8,177.6,85.7,-20.7,-9.6,23.4,0.769585253,0.0957670827,-0.622333445,0.105807672
518,1297816,1307650,0.759,-0.133,0.703,171.1,195.4,93.2,-20.7,-9.6,23.4,0.771660512,0.0969267861,-0.618854335,0.110110782
519,1301088,1307650,0.759,-0.133,0.703,171.1,195.4,93.2,-20.7,-9.6,23.4,0.771660512,0.0969267861,-0.618854335,0.110110782
520,1303102,1307660,0.759,-0.133,0.703,171.1,195.4,93.2,-20.7,-9.6,23.4,0.771660512,0.0969267861,-0.618854335,0.110110782
521,1305400,1307660,0.277,-0.12,1.017,243,224.8,83.3,-22.1,-7,21.6,0.778313547,0.102450636,-0.606769005,0.124546037
522,1308816,1307660,0.277,-0.12,1.017,243,224.8,83.3,-22.1,-7,21.6,0.778313547,0.102450636,-0.606769005,0.124546037
523,1310674,1307660,0.492,0.172,0.981,336.9,220.5,72.1,-22.1,-7,21.6,0.782311472,0.109836116,-0.597735527,0.136295663
524,1312951,1307670,0.425,0.275,0.94,390.8,208.2,71.8,-22.4,-5.5,21.3,0.783837397,0.114932707,-0.59315775,0.143131809
525,1316098,1307670,0.375,0.406,0.9,444.5,191.8,78.9,-22.4,-5.5,21.3,0.784936064,0.120914335,-0.588641011,0.1507004
526,1318201,1307670,0.378,0.811,0.799,495.6,176.4,93.9,-22.4,-5.5,21.3,0.785515915,0.127597888,-0.584215827,0.159123508
527,1320443,1307670,0.328,0.97,0.731,542.8,165.7,114.6,-22.4,-5.5,21.3,0.785668508,0.134861293,-0.579760125,0.168462172
528,1324153,1307680,0.238,1.187,0.7,583.8,161.1,136.7,-23.2,-2.4,20.4,0.78542436,0.142551958,-0.575182348,0.178655354
529,1326465,1307680,0.238,1.187,0.7,583.8,161.1,136.7,-23.2,-2.4,20.4,0.78542436,0.142551958,-0.575182348,0.178655354
530,1328758,1307680,0.257,1.796,0.637,616.2,161.3,155.8,-23.2,-2.4,20.4,0.784844508,0.15048677,-0.570451979,0.189519944
531,1330820,1307680,0.12,2.037,0.646,636.5,164.2,166.9,-23.2,-2.4,20.4,0.784020508,0.158635212,-0.565507981,0.200842311
532,1333137,1307690,0.206,2.222,0.58,640.8,167.4,166.6,-23.2,-2.4,20.4,0.783043916,0.166783654,-0.560319834,0.212134159
533,1335414,1307690,0.108,2.415,0.6,625.9,169.1,154.7,-22.9,0.1,19.3,0.782036805,0.174779504,-0.555040132,0.223029267
534,1339320,1307690,0.057,2.632,0.588,589.8,169.3,133.7,-22.9,0.1,19.3,0.78112125,0.182378613,-0.54976043,0.233100375
535,1341549,1307690,0.057,2.632,0.588,589.8,169.3,133.7,-22.9,0.1,19.3,0.78112125,0.182378613,-0.54976043,0.233100375
536,1344003,1307700,0.057,2.632,0.588,589.8,169.3,133.7,-22.9,0.1,19.3,0.78112125,0.182378613,-0.54976043,0.233100375
537,1346004,1307700,0,2.094,0.602,263.3,154.9,34.5,-23.3,2.8,19.4,0.78051088,0.198461867,-0.535660878,0.253822443
538,1347630,1307700,0.124,1.807,0.593,263.3,154.9,34.5,-23.3,2.8,19.4,0.780968657,0.201696829,-0.531693472,0.258125553
539,1350571,1307700,0.285,1.51,0.586,155.2,138.1,16.8,-23.3,2.8,19.4,0.781792657,0.203344829,-0.528519547,0.2608417
540,1353554,1307710,0.441,1.249,0.584,51.3,109.7,1.5,-23.3,2.8,19.4,0.782830287,0.203588977,-0.526383251,0.261940367
541,1355010,1307710,0.661,0.811,0.583,-39.7,70.4,-10.9,-23.5,0.9,18.3,0.783867916,0.202642903,-0.525345622,0.261604663
542,1358167,1307710,0.751,0.641,0.591,-113,25.8,-17.9,-23.5,0.9,18.3,0.784752953,0.200781274,-0.525467696,0.260109256
543,1360402,1307710,0.872,0.514,0.614,-167.6,-16.8,-17.3,-23.5,0.9,18.3,0.785393841,0.198187201,-0.5266274,0.257820368
544,1363385,1307720,0.934,0.36,0.635,-231.1,-75.2,-0.5,-23.5,0.9,18.3,0.785515915,0.194647053,-0.529221473,0.254829554
545,1365520,1307720,1.036,0.181,0.694,-246.3,-85.7,8.8,-23.2,-0.2,18.2,0.785515915,0.190801721,-0.532090213,0.251777703
546,1369663,1307720,1.047,0.113,0.732,-253,-84.4,15.6,-23.2,-0.2,18.2,0.785485397,0.186742759,-0.534958953,0.248756371
547,1371637,1307720,1.047,0.113,0.732,-253,-84.4,15.6,-23.2,-0.2,18.2,0.785485397,0.186742759,-0.534958953,0.248756371
548,1373029,1307730,1.047,0.113,0.732,-253,-84.4,15.6,-23.2,-0.2,18.2,0.785485397,0.186742759,-0.534958953,0.248756371
549,1375993,1307730,0.919,-0.119,0.7,-233.8,-48.6,15,-23.2,-0.3,19.3,0.785943175,0.174535356,-0.542252876,0.240302744
550,1377668,1307730,0.899,-0.103,0.693,-213.9,-37.6,7.3,-23.2,-0.3,19.3,0.78624836,0.170995209,-0.544053468,0.237739189
551,1381767,1307730,0.891,-0.024,0.682,-187,-29,-2.9,-23.2,-0.3,19.3,0.786614582,0.167973876,-0.545518357,0.235358745
552,1383660,1307740,0.798,0.102,0.642,-155.6,-22.1,-13.1,-23.2,-0.3,19.3,0.786980804,0.165562914,-0.546647542,0.233191931
553,1385941,1307740,0.747,0.154,0.608,-124.4,-16.1,-21.3,-23.7,-0.6,19.3,0.787347026,0.163762322,-0.547471541,0.231299783
554,1388278,1307740,0.696,0.191,0.59,-97.8,-10.6,-27.6,-23.7,-0.6,19.3,0.787713248,0.162450026,-0.548051393,0.229621265
555,1390288,1307740,0.63,0.223,0.553,-77.7,-5.1,-33.9,-23.7,-0.6,19.3,0.78807947,0.161564989,-0.548387097,0.22809534
556,1394243,1307750,0.599,0.228,0.557,-63.9,0.5,-41.9,-23.7,-0.6,19.3,0.788537248,0.160954619,-0.548570208,0.226599933
557,1396509,1307750,0.575,0.232,0.558,-54.8,6.4,-51.8,-23.1,0,21.1,0.789056063,0.160588397,-0.548539689,0.225074007
558,1397987,1307750,0.564,0.259,0.562,-48.5,11.9,-62.5,-23.1,0,21.1,0.789666433,0.160466323,-0.548356578,0.223456526
559,1401353,1307750,0.564,0.259,0.562,-48.5,11.9,-62.5,-23.1,0,21.1,0.789666433,0.160466323,-0.548356578,0.223456526
560,1403381,1307760,0.548,0.338,0.559,-42.1,20.5,-83.2,-23.1,0,21.1,0.79116184,0.160649434,-0.547593616,0.219855342
561,1405610,1307760,0.532,0.346,0.564,-42.9,23.6,-91.9,-23.5,-1.8,19.2,0.792046876,0.160893582,-0.547044282,0.217841121
562,1408008,1307760,0.544,0.389,0.552,-46.7,25.9,-99.4,-23.5,-1.8,19.2,0.79299295,0.16113773,-0.546494949,0.215643788
563,1410350,1307760,0.571,0.409,0.54,-52.9,26.9,-105.9,-23.5,-1.8,19.2,0.794000061,0.16135136,-0.545884579,0.213263344
564,1412690,1307770,0.571,0.409,0.54,-52.9,26.9,-105.9,-23.5,-1.8,19.2,0.794000061,0.16135136,-0.545884579,0.213263344
565,1415886,1307770,0.603,0.432,0.52,-69.7,25.3,-115.8,-23.9,-2.6,19.2,0.796105838,0.161564989,-0.544785913,0.207953124
566,1418172,1307770,0.63,0.44,0.5,-79,23.4,-119.1,-23.9,-2.6,19.2,0.797204505,0.161503952,-0.544328135,0.205023347
567,1420456,1307770,0.63,0.44,0.5,-79,23.4,-119.1,-23.9,-2.6,19.2,0.797204505,0.161503952,-0.544328135,0.205023347
568,1422801,1307780,0.63,0.44,0.5,-79,23.4,-119.1,-23.9,-2.6,19.2,0.797204505,0.161503952,-0.544328135,0.205023347
569,1425330,1307780,0.732,0.475,0.417,-115,8.8,-118.5,-23.8,-3.5,18.8,0.801477096,0.159886471,-0.543290506,0.192022462
570,1428968,1307780,0.755,0.475,0.397,-124.1,3,-114.3,-23.8,-3.5,18.8,0.80242317,0.159062471,-0.543351543,0.188543352
571,1430914,1307780,0.755,0.475,0.397,-124.1,3,-114.3,-23.8,-3.5,18.8,0.80242317,0.159062471,-0.543351543,0.188543352
572,1433271,1307790,0.755,0.475,0.397,-124.1,3,-114.3,-23.8,-3.5,18.8,0.80242317,0.159062471,-0.543351543,0.188543352
573,1435256,1307790,0.755,0.475,0.397,-124.1,3,-114.3,-23.8,-3.5,18.8,0.80242317,0.159062471,-0.543351543,0.188543352
574,1438973,1307790,0.755,0.475,0.397,-124.1,3,-114.3,-23.8,-3.5,18.8,0.80242317,0.159062471,-0.543351543,0.188543352
575,1440591,1307790,0.888,0.45,0.402,-151,-26.8,-97.3,-23.9,-3.9,18.7,0.805993835,0.152806177,-0.545701468,0.170812098
576,1442972,1307800,0.888,0.45,0.402,-151,-26.8,-97.3,-23.9,-3.9,18.7,0.805993835,0.152806177,-0.545701468,0.170812098
577,1445799,1307800,0.927,0.43,0.382,-153.8,-39.4,-96.7,-24,-4.2,21.1,0.80712302,0.150547807,-0.547044282,0.163121433
578,1447655,1307800,0.943,0.422,0.373,-155.8,-44.4,-95.7,-24,-4.2,21.1,0.807428205,0.149082919,-0.548051393,0.159398175
579,1450037,1307800,0.998,0.395,0.325,-158.7,-48.5,-93.4,-24,-4.2,21.1,0.807672353,0.147587512,-0.54915006,0.155735954
580,1453160,1307810,0.998,0.395,0.325,-158.7,-48.5,-93.4,-24,-4.2,21.1,0.807672353,0.147587512,-0.54915006,0.155735954
581,1455160,1307810,1.01,0.36,0.274,-166.6,-54,-85.1,-23.8,-6,19.1,0.808038575,0.144230476,-0.551561022,0.148350475
582,1458434,1307810,1.018,0.345,0.254,-170.2,-55.7,-80.6,-23.8,-6,19.1,0.808160649,0.142368847,-0.552812281,0.144718772
583,1461860,1307810,1.042,0.317,0.225,-173.1,-57.7,-77.1,-23.8,-6,19.1,0.808221686,0.140446181,-0.554155095,0.141087069
584,1463905,1307820,1.073,0.302,0.201,-175.3,-60.3,-75.4,-23.6,-7.2,19,0.808282723,0.138431959,-0.555528428,0.137455367
585,1465949,1307820,1.089,0.282,0.181,-177.3,-63.4,-75.4,-23.6,-7.2,19,0.808252205,0.136417737,-0.556932279,0.133762627
586,1469071,1307820,1.089,0.282,0.181,-177.3,-63.4,-75.4,-23.6,-7.2,19,0.808252205,0.136417737,-0.556932279,0.133762627
587,1470821,1307820,1.116,0.235,0.157,-180.8,-69,-77.1,-23.6,-7.2,19,0.808099612,0.132328257,-0.559892575,0.126285592
588,1473162,1307830,1.124,0.227,0.16,-181.4,-70.3,-77.5,-23.4,-7.5,19.9,0.80794702,0.130252998,-0.5614185,0.122501297
589,1475272,1307830,1.116,0.219,0.16,-180.7,-70.6,-77.3,-23.4,-7.5,19.9,0.807794427,0.128208258,-0.562913907,0.118717002
590,1477890,1307830,1.124,0.195,0.164,-179.2,-70.1,-76.9,-23.4,-7.5,19.9,0.807641835,0.126194037,-0.564378796,0.114963225
591,1480046,1307830,1.124,0.195,0.164,-179.2,-70.1,-76.9,-23.4,-7.5,19.9,0.807641835,0.126194037,-0.564378796,0.114963225
592,1484557,1307840,1.124,0.195,0.164,-179.2,-70.1,-76.9,-23.4,-7.5,19.9,0.807641835,0.126194037,-0.564378796,0.114963225
593,1486919,1307840,1.112,0.132,0.187,-174,-65.8,-74.8,-23.4,-8.7,19.7,0.807092502,0.12018189,-0.568620869,0.103885006
594,1489086,1307840,1.1,0.128,0.206,-171.2,-63.3,-73.8,-23.4,-8.7,19.7,0.806909391,0.118228706,-0.569902646,0.100314341
595,1491409,1307840,1.1,0.128,0.206,-171.2,-63.3,-73.8,-23.4,-8.7,19.7,0.806909391,0.118228706,-0.569902646,0.100314341
596,1493446,1307850,1.1,0.128,0.206,-171.2,-63.3,-73.8,-23.4,-8.7,19.7,0.806909391,0.118228706,-0.569902646,0.100314341
597,1495509,1307850,1.1,0.128,0.206,-171.2,-63.3,-73.8,-23.4,-8.7,19.7,0.806909391,0.118228706,-0.569902646,0.100314341
598,1499729,1307850,1.1,0.128,0.206,-171.2,-63.3,-73.8,-23.4,-8.7,19.7,0.806909391,0.118228706,-0.569902646,0.100314341
599,1500016,1307850,1.1,0.128,0.206,-171.2,-63.3,-73.8,-23.4,-8.7,19.7,0.806909391,0.118228706,-0.569902646,0.100314341
600,1503965,1307860,1.1,0.128,0.206,-171.2,-63.3,-73.8,-23.4,-8.7,19.7,0.806909391,0.118228706,-0.569902646,0.100314341
601,1506295,1307860,0.885,0.173,0.273,-134.7,-34.3,-65.8,-22.9,-10.5,19.5,0.80629902,0.106204413,-0.576647237,0.0777306436
602,1508305,1307860,0.873,0.193,0.274,-130.7,-32.4,-65.7,-22.9,-10.5,19.5,0.80629902,0.104800562,-0.577257607,0.0748924223
603,1510508,1307860,0.85,0.205,0.267,-127.7,-32,-65.5,-22.9,-10.5,19.5,0.80629902,0.103427229,-0.577898495,0.0720542009
604,1514678,1307870,0.823,0.241,0.26,-125.1,-32.8,-64.9,-22.4,-11.4,19.7,0.806268502,0.102084414,-0.578508866,0.0692770165
605,1515088,1307870,0.803,0.253,0.256,-122.7,-34,-63.9,-22.4,-11.4,19.7,0.806207465,0.100772118,-0.579149754,0.0664998321
606,1518986,1307870,0.791,0.269,0.261,-120.1,-35.3,-62.5,-22.4,-11.4,19.7,0.806085391,0.0995208594,-0.579821162,0.0638142033
607,1521242,1307870,0.764,0.293,0.254,-117.4,-36.3,-60.9,-22.4,-11.4,19.7,0.805963317,0.098239082,-0.580492569,0.0611896115
608,1523400,1307880,0.756,0.305,0.25,-115.1,-37.3,-59.4,-22.6,-12,19.5,0.805810724,0.0970488601,-0.581163976,0.0585955382
609,1525658,1307880,0.745,0.313,0.246,-112.9,-38.2,-58.2,-22.6,-12,19.5,0.805658132,0.0958586383,-0.581835383,0.0560625019
610,1527786,1307880,0.737,0.325,0.239,-111,-39.2,-57.2,-22.6,-12,19.5,0.805444502,0.0946684164,-0.582567827,0.0535599841
611,1530831,1307880,0.737,0.325,0.239,-111,-39.2,-57.2,-22.6,-12,19.5,0.805444502,0.0946684164,-0.582567827,0.0535599841
612,1532615,1307890,0.737,0.325,0.239,-111,-39.2,-57.2,-22.6,-12,19.5,0.805444502,0.0946684164,-0.582567827,0.0535599841
613,1535729,1307890,0.725,0.38,0.244,-105.7,-43.8,-57.6,-22.7,-12.9,19.9,0.804681539,0.0913418989,-0.584795679,0.0461745048
614,1537586,1307890,0.744,0.419,0.244,-104.7,-46,-59,-22.7,-12.9,19.9,0.804345836,0.0903042695,-0.58558916,0.0437330241
615,1541434,1307890,0.744,0.419,0.244,-104.7,-46,-59,-22.7,-12.9,19.9,0.804345836,0.0903042695,-0.58558916,0.0437330241
616,1543698,1307900,0.744,0.419,0.244,-104.7,-46,-59,-22.7,-12.9,19.9,0.804345836,0.0903042695,-0.58558916,0.0437330241
617,1545669,1307900,0.748,0.434,0.24,-108.4,-52.8,-61.1,-22.6,-13.1,21.3,0.803186132,0.0871608631,-0.588152715,0.0361339152
618,1547907,1307900,0.76,0.454,0.228,-111.4,-54.4,-60.6,-22.6,-13.1,21.3,0.802758873,0.0860316782,-0.589098788,0.0335398419
619,1551202,1307900,0.76,0.454,0.228,-111.4,-54.4,-60.6,-22.6,-13.1,21.3,0.802758873,0.0860316782,-0.589098788,0.0335398419
620,1553202,1307910,0.764,0.466,0.232,-114.6,-55.9,-60.3,-22.6,-13.1,21.3,0.802270577,0.0848414563,-0.590044862,0.0308847316
621,1555407,1307910,0.764,0.466,0.232,-114.6,-55.9,-60.3,-22.6,-13.1,21.3,0.802270577,0.0848414563,-0.590044862,0.0308847316
622,1558395,1307910,0.764,0.466,0.232,-114.6,-55.9,-60.3,-22.6,-13.1,21.3,0.802270577,0.0848414563,-0.590044862,0.0308847316
623,1560074,1307910,0.764,0.466,0.232,-114.6,-55.9,-60.3,-22.6,-13.1,21.3,0.802270577,0.0848414563,-0.590044862,0.0308847316
624,1563137,1307920,0.764,0.466,0.232,-114.6,-55.9,-60.3,-22.6,-13.1,21.3,0.802270577,0.0848414563,-0.590044862,0.0308847316
625,1566357,1307920,0.819,0.477,0.216,-133.9,-69.8,-78.2,-22.2,-14.5,19.5,0.79894406,0.0771202734,-0.596270638,0.0133671072
626,1568668,1307920,0.846,0.481,0.211,-138.4,-73.9,-83.3,-22.2,-14.5,19.5,0.798211615,0.075777459,-0.59746086,0.0100100711
627,1570764,1307920,0.873,0.48,0.207,-143.4,-78,-88,-22.2,-14.5,19.5,0.797448653,0.0744651631,-0.5986816,0.00646992401
628,1572943,1307930,0.893,0.476,0.199,-148.5,-81.6,-91.2,-21.7,-15.1,19.7,0.796624653,0.0730918302,-0.599993896,0.00280770287
629,1575939,1307930,0.92,0.457,0.19,-153,-84.4,-92.8,-21.7,-15.1,19.7,0.795770135,0.0716574602,-0.601306192,-0.000915555284
630,1578234,1307930,0.92,0.457,0.19,-153,-84.4,-92.8,-21.7,-15.1,19.7,0.795770135,0.0716574602,-0.601306192,-0.000915555284
631,1580404,1307930,0.952,0.456,0.186,-156.6,-86.5,-92.5,-21.7,-15.1,19.7,0.794885098,0.0701620533,-0.602649007,-0.00473036897
632,1583684,1307940,0.967,0.464,0.186,-159.1,-87.8,-91,-21.7,-15.1,19.7,0.793939024,0.0685750908,-0.60402234,-0.00851466414
633,1585855,1307940,0.975,0.456,0.189,-161,-88.5,-88.9,-21.4,-16.4,19.7,0.79299295,0.0669270913,-0.605395672,-0.0123294778
634,1587990,1307940,0.983,0.444,0.185,-162.7,-88.9,-86.5,-21.4,-16.4,19.7,0.792016358,0.0652485733,-0.606738487,-0.0160832545
635,1591198,1307940,1.014,0.452,0.181,-164.9,-89.5,-84.3,-21.4,-16.4,19.7,0.791039766,0.0634784997,-0.60811182,-0.0198675497
636,1593203,1307950,1.046,0.459,0.168,-167.3,-90.7,-82.6,-21.4,-16.4,19.7,0.790032655,0.0616473891,-0.609485153,-0.0236213263
637,1596327,1307950,1.073,0.448,0.144,-169.6,-92.2,-81.1,-20.6,-17.1,21.3,0.788964507,0.0597552416,-0.610858486,-0.0274056215
638,1597690,1307950,1.077,0.428,0.132,-171.4,-93.4,-79.5,-20.6,-17.1,21.3,0.787896359,0.0578020569,-0.612262337,-0.0311899167
639,1600674,1307950,1.061,0.424,0.136,-172.2,-93.4,-77.3,-20.6,-17.1,21.3,0.786797693,0.0558183538,-0.61363567,-0.0349436934
640,1602831,1307960,1.089,0.428,0.128,-172.4,-92.3,-75.2,-20.6,-17.1,21.3,0.785699026,0.0538041322,-0.615009003,-0.0386059145
641,1605937,1307960,1.104,0.424,0.124,-172.1,-90.5,-74,-20,-18,20.1,0.784630879,0.0517593921,-0.616321299,-0.0423291726
642,1607598,1307960,1.128,0.424,0.1,-171.7,-88.3,-73.8,-20,-18,20.1,0.783562731,0.0497146519,-0.617572558,-0.0460219123
643,1610692,1307960,1.14,0.432,0.096,-171.1,-85.8,-73.8,-20,-18,20.1,0.782494583,0.0477004303,-0.618793298,-0.0496841334
644,1613958,1307970,1.093,0.436,0.105,-170.4,-82.6,-73.4,-20,-18,20.1,0.781487472,0.0456862087,-0.619922483,-0.0533158361
645,1615377,1307970,1.081,0.436,0.105,-169.9,-78.9,-72.3,-19.7,-19.1,19.6,0.780480361,0.0437025056,-0.620990631,-0.0569170202
646,1618405,1307970,1.085,0.448,0.109,-170.5,-75.6,-70.9,-19.7,-19.1,19.6,0.779534288,0.0416577654,-0.621997742,-0.0605182043
647,1620629,1307970,1.073,0.452,0.097,-172.4,-73.2,-69.6,-19.7,-19.1,19.6,0.778588214,0.0395825068,-0.622943815,-0.0640583514
648,1623700,1307980,1.089,0.448,0.085,-175.2,-72.2,-68.7,-19.7,-19.1,19.6,0.777672658,0.0373851741,-0.623859371,-0.0677205725
649,1625011,1307980,1.073,0.445,0.074,-178.1,-72,-68.2,-19.8,-19.8,19.4,0.776726585,0.0351878414,-0.624774926,-0.0713522752
650,1628038,1307980,1.069,0.452,0.078,-180.4,-72.2,-68.1,-19.8,-19.8,19.4,0.775749992,0.0329905087,-0.625659963,-0.0750144963
651,1631253,1307980,1.069,0.46,0.07,-181.6,-72.5,-68.3,-19.8,-19.8,19.4,0.7747734,0.030732139,-0.626545,-0.0787072359
652,1633354,1307990,1.081,0.456,0.066,-181.8,-72.4,-69,-19.8,-19.8,19.4,0.773766289,0.0284432508,-0.627399518,-0.0823999756
653,1635641,1307990,1.081,0.453,0.054,-181.9,-72.1,-69.9,-18.8,-20.7,19.2,0.772759178,0.0262153996,-0.628223518,-0.0861232337
654,1637870,1307990,1.073,0.445,0.039,-182.2,-71.2,-71,-18.8,-20.7,19.2,0.771752068,0.0239875484,-0.629047517,-0.0898770104
655,1640772,1307990,1.07,0.445,0.031,-183,-69.5,-72,-18.8,-20.7,19.2,0.770744957,0.0217291787,-0.62981048,-0.0936307871
656,1643079,1308000,1.073,0.441,0.027,-184.6,-67.1,-73,-18.8,-20.7,19.2,0.769768365,0.0195318461,-0.630512406,-0.0974150822
657,1646485,1308000,1.085,0.418,0.011,-186.7,-64.5,-74.1,-18.9,-21.9,19.6,0.768791772,0.0172734764,-0.631183813,-0.101260414
658,1648667,1308000,1.081,0.414,0.003,-189.2,-62.1,-74.9,-18.9,-21.9,19.6,0.76781518,0.0149845882,-0.631763665,-0.105136265
659,1650604,1308000,1.089,0.41,0,-191.7,-60,-75.6,-18.9,-21.9,19.6,0.766869106,0.0126956999,-0.632282479,-0.109073153
660,1653560,1308010,1.085,0.414,0,-193.8,-58,-76,-18.9,-21.9,19.6,0.765953551,0.0103457747,-0.632770775,-0.113040559
661,1655079,1308010,1.089,0.41,-0.004,-196.2,-56.4,-76.4,-18.3,-23,18.9,0.765007477,0.00799584948,-0.633198035,-0.117038484
662,1657920,1308010,1.117,0.398,-0.02,-199.3,-55.1,-76.7,-18.3,-23,18.9,0.764091922,0.00558488723,-0.633594775,-0.121066927
663,1661208,1308010,1.105,0.383,-0.036,-203.7,-53.9,-77,-18.3,-23,18.9,0.763145848,0.00311288797,-0.633930479,-0.125186926
664,1662471,1308020,1.117,0.375,-0.036,-209.1,-52.5,-77.1,-18.3,-23,18.9,0.762199774,0.000549333171,-0.634235664,-0.129367962
665,1665369,1308020,1.105,0.356,-0.052,-215.2,-50.6,-77,-17.7,-24,18,0.761284219,-0.00207525864,-0.634449293,-0.133610034
666,1668346,1308020,1.094,0.34,-0.064,-221.3,-48.2,-77.2,-17.7,-24,18,0.760368664,-0.0048219245,-0.634601886,-0.137974181
667,1671531,1308020,1.082,0.313,-0.064,-227.1,-45.5,-78,-17.7,-24,18,0.759483627,-0.00766014588,-0.634693442,-0.142399365
668,1672845,1308030,1.086,0.302,-0.084,-232.4,-42.7,-79.1,-17.7,-24,18,0.758568072,-0.0105288858,-0.634662923,-0.146916105
669,1675806,1308030,1.074,0.274,-0.088,-236.8,-40,-80.4,-17.5,-24.8,18,0.757713553,-0.0134586627,-0.634571368,-0.1515244
670,1678737,1308030,1.07,0.259,-0.096,-239.9,-37.3,-81.3,-17.5,-24.8,18,0.756828516,-0.0164494766,-0.634418775,-0.156163213
671,1680193,1308030,1.066,0.247,-0.1,-241.5,-34.7,-81.5,-17.5,-24.8,18,0.755973998,-0.019409772,-0.634205145,-0.160863063
672,1683056,1308040,1.047,0.232,-0.096,-241.3,-32.3,-81,-17.5,-24.8,18,0.75511948,-0.0223395489,-0.63389996,-0.165501877
673,1686285,1308040,1.039,0.228,-0.096,-239.6,-30.3,-80,-16.9,-26.4,16.8,0.75429548,-0.0253303629,-0.633564257,-0.17014069
674,1687724,1308040,1.035,0.228,-0.092,-236.8,-28.7,-79,-16.9,-26.4,16.8,0.75347148,-0.0282601398,-0.633198035,-0.174687948
675,1690687,1308040,1.039,0.232,-0.084,-233.6,-27.6,-78.2,-16.9,-26.4,16.8,0.752616962,-0.0310983612,-0.632801294,-0.179174169
676,1693942,1308050,1.031,0.228,-0.084,-230.5,-27,-78.1,-16.9,-26.4,16.8,0.751792962,-0.0339365825,-0.632374035,-0.183629872
677,1696226,1308050,1.023,0.228,-0.072,-227.7,-26.6,-78.5,-16.8,-27.2,15.8,0.75041963,-0.0367137669,-0.632557146,-0.187932981
678,1698249,1308050,1.023,0.228,-0.072,-225,-26.2,-79.2,-16.8,-27.2,15.8,0.749565111,-0.0393993957,-0.632129887,-0.192297128
679,1700423,1308050,1.019,0.232,-0.072,-222.6,-25.7,-79.9,-16.8,-27.2,15.8,0.748649556,-0.0420239875,-0.631672109,-0.196661275
680,1703748,1308060,1.031,0.231,-0.064,-220.1,-25,-80.2,-16.8,-27.2,15.8,0.747764519,-0.0446485794,-0.631214331,-0.200964385
681,1705791,1308060,1.047,0.235,-0.068,-217.3,-24.6,-79.9,-16.4,-27.6,15.3,0.746848964,-0.0471510971,-0.630726035,-0.205236976
682,1708058,1308060,1.066,0.235,-0.061,-214.5,-24.6,-79.3,-16.4,-27.6,15.3,0.745933409,-0.0497146519,-0.630237739,-0.209448531
683,1711337,1308060,1.078,0.238,-0.053,-211.8,-24.8,-78.8,-16.4,-27.6,15.3,0.744987335,-0.0521866512,-0.629749443,-0.213629566
684,1713810,1308070,1.082,0.238,-0.053,-209.6,-24.7,-78.7,-16.4,-27.6,15.3,0.744041261,-0.054628132,-0.629261147,-0.217749565
685,1715823,1308070,1.101,0.238,-0.046,-208.3,-24,-79,-15.9,-28.8,14.6,0.743064669,-0.0570390942,-0.628742332,-0.221869564
686,1717943,1308070,1.117,0.226,-0.034,-208,-22.7,-79.9,-15.9,-28.8,14.6,0.742088076,-0.0594195379,-0.628192999,-0.225989563
687,1721311,1308070,1.136,0.218,-0.035,-208.9,-21,-81.1,-15.9,-28.8,14.6,0.741142003,-0.0617999817,-0.627613147,-0.23014008
688,1723850,1308080,1.133,0.202,-0.027,-210.6,-19.1,-82.1,-15.9,-28.8,14.6,0.74016541,-0.0641804254,-0.626972259,-0.234321116
689,1725820,1308080,1.129,0.186,-0.015,-212.3,-16.7,-82.3,-15.3,-29.6,13.3,0.739188818,-0.0665608692,-0.626270333,-0.238502152
690,1728081,1308080,1.152,0.186,-0.012,-213.2,-14.4,-81.5,-15.3,-29.6,13.3,0.738273263,-0.0689413129,-0.62550737,-0.242744224
691,1730298,1308080,1.164,0.178,-0.016,-213.1,-12.7,-80.1,-15.3,-29.6,13.3,0.737327189,-0.0713522752,-0.62468337,-0.246894742
692,1734393,1308090,1.172,0.166,-0.013,-212.2,-12,-78.6,-15.3,-29.6,13.3,0.736411634,-0.0737632374,-0.623859371,-0.251045259
693,1736672,1308090,1.215,0.158,-0.021,-211,-11.9,-77.1,-15.3,-30.6,12.8,0.73546556,-0.0761741997,-0.623004852,-0.255134739
694,1738915,1308090,1.238,0.154,-0.03,-209.1,-12.1,-75.7,-15.3,-30.6,12.8,0.734519486,-0.0785546434,-0.622150334,-0.259163182
695,1740899,1308090,1.262,0.161,-0.03,-206.5,-12,-74.5,-15.3,-30.6,12.8,0.733573412,-0.0809350871,-0.621295816,-0.263130589
696,1742770,1308100,1.273,0.173,-0.034,-203.4,-10.9,-73.4,-15.3,-30.6,12.8,0.732657857,-0.0832544939,-0.620441298,-0.267067476
697,1746819,1308100,1.222,0.17,-0.037,-200.3,-8.4,-72.4,-14.7,-31.3,11.6,0.731742302,-0.0855128636,-0.619525742,-0.270912809
698,1749138,1308100,1.176,0.166,-0.028,-197.6,-4.7,-71.2,-14.7,-31.3,11.6,0.730857265,-0.0877407147,-0.61854915,-0.274697104
699,1751472,1308100,1.14,0.171,-0.031,-195.3,-0.5,-69.9,-14.7,-31.3,11.6,0.730063784,-0.0899075289,-0.617511521,-0.27845088
700,1753328,1308110,1.117,0.183,-0.043,-193,2.7,-68.2,-14.7,-31.3,11.6,0.729300821,-0.0920438246,-0.616443373,-0.28214362
701,1755772,1308110,1.101,0.187,-0.046,-190.2,4.1,-66.2,-14.4,-31.9,11.1,0.728568377,-0.0941801202,-0.615314188,-0.285775323
702,1758003,1308110,1.082,0.195,-0.046,-186.2,3.6,-63.8,-14.4,-31.9,11.1,0.727835932,-0.0962553789,-0.614215522,-0.289284951
703,1760532,1308110,1.066,0.203,-0.057,-180.7,2.1,-61.2,-14.4,-31.9,11.1,0.72707297,-0.098239082,-0.613177892,-0.292672506
704,1762800,1308120,1.051,0.216,-0.068,-174.1,0.3,-58.4,-14.4,-31.9,11.1,0.726340526,-0.100253304,-0.612170782,-0.295937986
705,1766977,1308120,1.047,0.231,-0.08,-167.3,-1.4,-55.9,-14.4,-32.3,10,0.725577563,-0.102145451,-0.611224708,-0.299050874
706,1769065,1308120,1.039,0.235,-0.084,-161.1,-3.2,-53.9,-14.4,-32.3,10,0.7248146,-0.104037599,-0.610339671,-0.302041688
707,1771388,1308120,1.031,0.247,-0.091,-155.7,-4.5,-52.5,-14.4,-32.3,10,0.724051637,-0.105807672,-0.609515671,-0.304940947
708,1773375,1308130,1.031,0.259,-0.107,-152.1,-5.1,-52,-14.4,-32.3,10,0.723288675,-0.107516709,-0.608691671,-0.307779168
709,1775605,1308130,1.043,0.252,-0.111,-150.4,-5.4,-52.5,-13.6,-32.5,9.5,0.722495193,-0.109286782,-0.60789819,-0.310586871
710,1777668,1308130,1.055,0.24,-0.103,-150.7,-5.7,-54.1,-13.6,-32.5,9.5,0.721701712,-0.110934782,-0.607104709,-0.313425092
711,1781340,1308130,1.066,0.22,-0.096,-152.2,-5.9,-56.2,-13.6,-32.5,9.5,0.720847194,-0.112674337,-0.606280709,-0.316293832
712,1783290,1308140,1.07,0.208,-0.088,-154.1,-5.8,-58.5,-13.6,-32.5,9.5,0.719992676,-0.114352855,-0.605456709,-0.319254128
713,1785524,1308140,1.082,0.2,-0.081,-155.7,-5.6,-60.8,-13.6,-33.1,8.9,0.719107639,-0.116031373,-0.604602191,-0.322244942
714,1787748,1308140,1.09,0.184,-0.07,-156.9,-5.2,-63,-13.6,-33.1,8.9,0.718192083,-0.117709891,-0.603717154,-0.325296793
715,1790390,1308140,1.101,0.152,-0.051,-157.4,-4.8,-64.7,-13.6,-33.1,8.9,0.71724601,-0.119357891,-0.602862636,-0.328348643
716,1792592,1308150,1.109,0.132,-0.035,-157.6,-4.4,-65.7,-13.6,-33.1,8.9,0.716299936,-0.120975372,-0.601947081,-0.331461531
717,1797066,1308150,1.117,0.108,-0.032,-157.4,-4.4,-66,-13.6,-34,7.8,0.715353862,-0.122623371,-0.601062044,-0.334543901
718,1797478,1308150,1.117,0.1,-0.02,-156.8,-4.9,-66.1,-13.6,-34,7.8,0.71437727,-0.124210334,-0.600177007,-0.337595752
719,1802012,1308150,1.113,0.084,-0.012,-155.8,-5.7,-65.7,-13.6,-34,7.8,0.713400678,-0.125827815,-0.599291971,-0.340647603
720,1803939,1308160,1.113,0.073,-0.009,-154.6,-6.7,-65,-13.6,-34,7.8,0.712393567,-0.127445296,-0.598406934,-0.343668935
721,1806334,1308160,1.101,0.065,-0.001,-153.1,-8.1,-63.9,-13.8,-34.2,7.5,0.711386456,-0.129032258,-0.597552416,-0.346629231
722,1808889,1308160,1.097,0.049,0.006,-151.2,-9.7,-62.6,-13.8,-34.2,7.5,0.710348827,-0.130649739,-0.596758934,-0.349559008
723,1810868,1308160,1.094,0.041,0.006,-149,-11.4,-61.2,-13.8,-34.2,7.5,0.709280679,-0.132236702,-0.595965453,-0.352397229
724,1813019,1308170,1.086,0.041,0.014,-146.4,-13,-59.8,-13.8,-34.2,7.5,0.708243049,-0.133823664,-0.59520249,-0.355204932
725,1815254,1308170,1.07,0.041,0.014,-143.3,-14.4,-58.4,-12.9,-34.8,6.6,0.707174902,-0.135410627,-0.594470046,-0.357890561
726,1817823,1308170,1.066,0.045,0.014,-140,-15.7,-57.1,-12.9,-34.8,6.6,0.706106754,-0.136936552,-0.593798639,-0.360576189
727,1820037,1308170,1.066,0.049,0.018,-136.9,-17,-55.8,-12.9,-34.8,6.6,0.705038606,-0.138462477,-0.59315775,-0.363139744
728,1823509,1308180,1.058,0.057,0.015,-133.8,-18.3,-54.6,-12.9,-34.8,6.6,0.70393994,-0.139957884,-0.592516861,-0.365672781
729,1825284,1308180,1.054,0.065,0.015,-131,-19.7,-53.2,-12.7,-34.4,6.1,0.702871792,-0.141453291,-0.59193701,-0.368114261
730,1827708,1308180,1.047,0.073,0.023,-128.6,-21,-51.9,-12.7,-34.4,6.1,0.701773125,-0.14291818,-0.591387677,-0.370494705
731,1831197,1308180,1.043,0.077,0.019,-126.5,-22.1,-50.8,-12.7,-34.4,6.1,0.700674459,-0.144383068,-0.590868862,-0.37284463
732,1832638,1308190,1.031,0.081,0.023,-125,-22.9,-50,-12.7,-34.4,6.1,0.699575793,-0.145817438,-0.590350047,-0.375164037
733,1836573,1308190,1.035,0.085,0.027,-123.7,-23.7,-49.6,-12,-35.2,5.6,0.698477126,-0.147282327,-0.589861751,-0.377422407
734,1838873,1308190,1.027,0.081,0.027,-122.8,-24.2,-49.4,-12,-35.2,5.6,0.697347942,-0.148716697,-0.589373455,-0.379680776
735,1840821,1308190,1.023,0.081,0.023,-122.3,-24.6,-49.3,-12,-35.2,5.6,0.696218757,-0.150151067,-0.588885159,-0.381939146
736,1843094,1308200,1.019,0.073,0.015,-122,-24.8,-49.5,-12,-35.2,5.6,0.695089572,-0.151554918,-0.588427381,-0.384166997
737,1845357,1308200,1.015,0.062,0.011,-122.2,-25.1,-50,-11.8,-35.8,3.8,0.693716239,-0.153691214,-0.5884579,-0.385784478
738,1847899,1308200,1.015,0.062,0.011,-122.2,-25.1,-50,-11.8,-35.8,3.8,0.692556536,-0.155125584,-0.587969604,-0.388012329
739,1850163,1308200,1.011,0.046,0.011,-122.3,-24.9,-50.4,-11.8,-35.8,3.8,0.691396832,-0.156529435,-0.587481307,-0.390270699
740,1852623,1308210,1.008,0.046,0.004,-122,-24.6,-50.6,-11.8,-35.8,3.8,0.69020661,-0.157933287,-0.586962493,-0.39249855
741,1855689,1308210,1.012,0.034,0.003,-121.4,-24.3,-50.7,-11.6,-36,4.6,0.689046907,-0.159306619,-0.586474197,-0.394726402
742,1857631,1308210,1.004,0.027,0.003,-120.5,-23.8,-50.4,-11.6,-36,4.6,0.687887204,-0.160679952,-0.585955382,-0.396954253
743,1860829,1308210,0.984,0.019,0,-119.4,-23.3,-50.2,-11.6,-36,4.6,0.6867275,-0.162053285,-0.585467086,-0.399151585
744,1863031,1308220,0.976,0.015,0,-118.2,-23,-50,-11.6,-36,4.6,0.685567797,-0.163365581,-0.584948271,-0.4013184
745,1867171,1308220,0.976,0.003,0,-116.8,-22.7,-49.8,-11.3,-36.2,3.9,0.684438612,-0.164677877,-0.584429456,-0.403485214
746,1867460,1308220,0.98,0.007,0,-115.5,-22.4,-49.5,-11.3,-36.2,3.9,0.683309427,-0.165990173,-0.58394116,-0.405621509
747,1871424,1308220,0.972,0,0.008,-114.1,-22.3,-49.2,-11.3,-36.2,3.9,0.682149724,-0.167210913,-0.583422346,-0.407727287
748,1873798,1308230,0.98,-0.004,0.011,-112.6,-22.7,-48.8,-11.3,-36.2,3.9,0.681020539,-0.168492691,-0.58293405,-0.409802545
749,1875755,1308230,0.972,-0.008,0.019,-111,-23.2,-48.3,-11.1,-36.1,3.9,0.679891354,-0.16974395,-0.582476272,-0.411847285
750,1877670,1308230,0.965,-0.019,0.023,-109.4,-23.8,-47.7,-11.1,-36.1,3.9,0.678731651,-0.17096469,-0.582018494,-0.413861507
751,1881692,1308230,0.961,-0.023,0.035,-107.8,-24.1,-46.8,-11.1,-36.1,3.9,0.677602466,-0.17218543,-0.581560717,-0.415814692
752,1883911,1308240,0.961,-0.023,0.035,-106.1,-24.4,-45.8,-11.1,-36.1,3.9,0.676473281,-0.173406171,-0.581133457,-0.417767876
753,1886097,1308240,0.961,-0.023,0.039,-104.6,-24.7,-44.7,-10,-36.6,3.1,0.675374615,-0.174596393,-0.580736717,-0.419629505
754,1888298,1308240,0.957,-0.031,0.047,-103.1,-25,-43.8,-10,-36.6,3.1,0.67424543,-0.175786615,-0.580309458,-0.421491134
755,1890491,1308240,0.965,-0.031,0.05,-101.6,-25.3,-43,-10,-36.6,3.1,0.673146764,-0.176976836,-0.579912717,-0.423322245
756,1894748,1308250,0.964,-0.035,0.054,-100,-25.5,-42.5,-10,-36.6,3.1,0.672048097,-0.17813654,-0.579515976,-0.425122837
757,1895170,1308250,0.968,-0.032,0.066,-96,-26.2,-41.4,-10,-36.7,0.9,0.670918912,-0.180639058,-0.579607532,-0.425733207
758,1899008,1308250,0.968,-0.024,0.07,-96,-26.2,-41.4,-10,-36.7,0.9,0.669820246,-0.181768242,-0.579271828,-0.427442244
759,1901319,1308250,0.976,-0.02,0.078,-93.3,-26.4,-41,-10,-36.7,0.9,0.66872158,-0.18283639,-0.578936125,-0.429120762
760,1903847,1308260,0.972,-0.016,0.086,-90.2,-26.5,-40.4,-10,-36.7,0.9,0.667653432,-0.183904538,-0.57863094,-0.430738243
761,1905843,1308260,0.984,-0.013,0.089,-87,-26.6,-39.6,-10,-36.7,1.9,0.666585284,-0.184942167,-0.578356273,-0.432325205
762,1908017,1308260,0.988,-0.013,0.097,-83.6,-26.7,-38.5,-10,-36.7,1.9,0.665547655,-0.18591876,-0.578112125,-0.433820612
763,1910643,1308260,0.992,-0.005,0.101,-80.1,-27,-37.2,-10,-36.7,1.9,0.664540544,-0.186864834,-0.577898495,-0.435254982
764,1913330,1308270,1.007,0.017,0.109,-76.7,-27.4,-35.9,-10,-36.7,1.9,0.663533433,-0.187780389,-0.577715384,-0.436658834
765,1915591,1308270,1.011,0.025,0.109,-73.5,-28,-34.5,-9.7,-37,2,0.662526322,-0.188665426,-0.577562792,-0.437971129
766,1917853,1308270,1.011,0.025,0.109,-70.4,-28.8,-33.1,-9.7,-37,2,0.661580248,-0.189550462,-0.577440718,-0.43919187
767,1920268,1308270,0.995,0.029,0.121,-67.7,-29.5,-31.3,-9.7,-37,2,0.660603656,-0.190404981,-0.577349162,-0.440382092
768,1922594,1308280,0.988,0.041,0.117,-65.2,-30.4,-29.6,-9.7,-37,2,0.659657582,-0.191290017,-0.577288125,-0.441511277
769,1924997,1308280,0.995,0.052,0.125,-63,-31.6,-28.5,-9.3,-37.1,1.8,0.658742027,-0.192114017,-0.577257607,-0.442579424
770,1929317,1308280,1.011,0.072,0.125,-61.1,-33.3,-28,-9.3,-37.1,1.8,0.657795953,-0.192968535,-0.577257607,-0.443617054
771,1931558,1308280,1.023,0.084,0.121,-59.2,-35,-28.3,-9.3,-37.1,1.8,0.656819361,-0.193823054,-0.577318644,-0.444624165
772,1933238,1308290,1.027,0.083,0.125,-57.6,-36.5,-28.8,-9.3,-37.1,1.8,0.655842769,-0.194616535,-0.577379681,-0.445600757
773,1935640,1308290,1.034,0.095,0.121,-56.2,-37.1,-29.3,-9,-37.2,2,0.654835658,-0.195410016,-0.577501755,-0.446577349
774,1937672,1308290,1.038,0.099,0.125,-55,-37.3,-29.4,-9,-37.2,2,0.653859066,-0.196203497,-0.577623829,-0.447523423
775,1940844,1308290,1.054,0.103,0.125,-53.8,-37.1,-29.2,-9,-37.2,2,0.652851955,-0.19696646,-0.577745903,-0.448469497
776,1943796,1308300,1.046,0.107,0.121,-52.5,-36.8,-28.5,-9,-37.2,2,0.651905881,-0.197698904,-0.577867977,-0.449385052
777,1945652,1308300,1.054,0.114,0.125,-50.2,-35.8,-26.4,-8.9,-37.1,-0.9,0.650959807,-0.199133274,-0.578234199,-0.449659719
778,1947867,1308300,1.05,0.111,0.129,-50.2,-35.8,-26.4,-8.9,-37.1,-0.9,0.650013733,-0.199865719,-0.578356273,-0.450514237
779,1951908,1308300,1.042,0.111,0.129,-49,-35.3,-25.4,-8.9,-37.1,-0.9,0.649098178,-0.200598163,-0.578478347,-0.451338237
780,1954276,1308310,1.042,0.111,0.129,-47.8,-34.8,-24.3,-8.9,-37.1,-0.9,0.648213141,-0.201300089,-0.57863094,-0.452131718
781,1956517,1308310,1.054,0.114,0.125,-46.7,-34.3,-23.1,-8.7,-37,0.7,0.647358623,-0.202032533,-0.578753014,-0.452894681
782,1958812,1308310,1.054,0.114,0.125,-45.8,-33.9,-21.7,-8.7,-37,0.7,0.646504105,-0.202734458,-0.578875088,-0.453596606
783,1960702,1308310,1.046,0.115,0.129,-44.8,-33.4,-20.1,-8.7,-37,0.7,0.645680105,-0.203436384,-0.578997162,-0.454359569
784,1962972,1308320,1.034,0.115,0.129,-43.8,-32.6,-18.5,-8.7,-37,0.7,0.644886624,-0.20413831,-0.579088717,-0.455000458
785,1966380,1308320,1.023,0.115,0.133,-42.6,-31.7,-16.8,-8.7,-37.3,0.6,0.644123661,-0.204840236,-0.579180273,-0.455641346
786,1968480,1308320,1.023,0.119,0.133,-41.4,-31.2,-15.3,-8.7,-37.3,0.6,0.643391217,-0.205542161,-0.579271828,-0.456251717
787,1970335,1308320,1.019,0.115,0.129,-40.2,-31,-14.3,-8.7,-37.3,0.6,0.642689291,-0.206244087,-0.579393902,-0.456831568
788,1972750,1308330,1.019,0.115,0.133,-38.9,-31.2,-13.9,-8.7,-37.3,0.6,0.641956847,-0.206915494,-0.579485458,-0.457350383
789,1975047,1308330,1.019,0.115,0.137,-37.5,-31.3,-13.9,-8.9,-37.2,0.5,0.641254921,-0.207586901,-0.57963805,-0.457899716
790,1979548,1308330,1.019,0.115,0.137,-36.1,-31.3,-14.1,-8.9,-37.2,0.5,0.640552995,-0.20822779,-0.579760125,-0.458418531
791,1981743,1308330,1.019,0.115,0.129,-34.5,-31.1,-14.3,-8.9,-37.2,0.5,0.639881588,-0.20883816,-0.579912717,-0.458906827
792,1983814,1308340,1.023,0.115,0.137,-32.7,-30.8,-14.4,-8.9,-37.2,0.5,0.639179662,-0.209418012,-0.580095828,-0.459364605
793,1986287,1308340,1.019,0.115,0.137,-31,-30.4,-14.2,-8.4,-36.9,0.2,0.638508255,-0.209967345,-0.580278939,-0.459822382
794,1988285,1308340,1.019,0.119,0.137,-29.3,-30,-13.9,-8.4,-36.9,0.2,0.637867367,-0.210516678,-0.58046205,-0.460249641
795,1990223,1308340,1.023,0.123,0.133,-27.7,-29.6,-13.4,-8.4,-36.9,0.2,0.637226478,-0.211035493,-0.580645161,-0.460646382
796,1994256,1308350,1.023,0.123,0.133,-26.2,-29.3,-12.8,-8.4,-36.9,0.2,0.636585589,-0.211523789,-0.580858791,-0.461043123
797,1996392,1308350,1.019,0.127,0.134,-23.6,-29,-11.8,-8,-37.4,-1.7,0.636066774,-0.213293863,-0.581347087,-0.460310678
798,1998733,1308350,1.019,0.127,0.134,-23.6,-29,-11.8,-8,-37.4,-1.7,0.635456404,-0.213782159,-0.581591235,-0.460646382
799,2000738,1308350,1.019,0.123,0.13,-22.5,-28.9,-11.4,-8,-37.4,-1.7,0.634876553,-0.214239937,-0.581804865,-0.460951567
800,2002906,1308360,0.999,0.123,0.134,-21.4,-28.9,-11.1,-8,-37.4,-1.7,0.634296701,-0.214667196,-0.582049013,-0.461226234
801,2006948,1308360,0.976,0.108,0.13,-20.3,-29.1,-10.7,-8.6,-37.5,0.4,0.633716849,-0.215124973,-0.582293161,-0.4615009
802,2009107,1308360,0.98,0.104,0.126,-19.1,-29.6,-10.5,-8.6,-37.5,0.4,0.633167516,-0.215552232,-0.582567827,-0.461745048
803,2011258,1308360,0.995,0.107,0.126,-17.4,-30.7,-10.5,-8.6,-37.5,0.4,0.632587664,-0.215948973,-0.582873012,-0.461989196
804,2012656,1308370,1.007,0.111,0.13,-15,-32.7,-10.9,-8.6,-37.5,0.4,0.631977294,-0.216345714,-0.583208716,-0.462172308
805,2015650,1308370,1.011,0.111,0.126,-11.9,-34.9,-11.5,-8.3,-37.6,0.2,0.631366924,-0.216742454,-0.583635975,-0.4623249
806,2018916,1308370,1.003,0.111,0.126,-8.6,-36.8,-12.2,-8.3,-37.6,0.2,0.630726035,-0.217078158,-0.584093753,-0.462416456
807,2020240,1308370,1.023,0.123,0.13,-5.3,-38.1,-12.7,-8.3,-37.6,0.2,0.630085147,-0.217352824,-0.584643086,-0.462477493
808,2024175,1308380,1.042,0.134,0.125,-2.4,-38.8,-13,-8.3,-37.6,0.2,0.629444258,-0.217627491,-0.585222938,-0.462508011
809,2026328,1308380,1.05,0.146,0.129,0.2,-39.3,-12.8,-8.3,-37.1,0.5,0.628803369,-0.217841121,-0.585802789,-0.462508011
810,2027677,1308380,1.054,0.162,0.129,2.2,-39.6,-12.6,-8.3,-37.1,0.5,0.628192999,-0.21805475,-0.586443678,-0.462446974
811,2030774,1308380,1.058,0.161,0.129,3.2,-39,-12.2,-8.3,-37.1,0.5,0.627582629,-0.218237861,-0.587054048,-0.462385937
812,2033039,1308390,1.054,0.162,0.129,3.1,-37.7,-11.4,-8.3,-37.1,0.5,0.627002777,-0.218451491,-0.587664418,-0.4623249
813,2035366,1308390,1.054,0.169,0.13,2.2,-36,-10.3,-8.1,-37.5,0.3,0.626453444,-0.218634602,-0.58824427,-0.462263863
814,2037659,1308390,1.062,0.173,0.129,0.9,-34.6,-8.6,-8.1,-37.5,0.3,0.625904111,-0.21887875,-0.588763085,-0.462202826
815,2040652,1308390,1.069,0.181,0.129,-0.2,-33.4,-6.7,-8.1,-37.5,0.3,0.625415815,-0.219122898,-0.589251381,-0.462141789
816,2042497,1308400,1.058,0.181,0.13,-1,-32.3,-4.6,-8.1,-37.5,0.3,0.624958037,-0.219397565,-0.589709159,-0.462080752
817,2045701,1308400,1.023,0.181,0.134,-1.9,-29.7,-0.4,-8,-37.4,-1.8,0.624561296,-0.220221564,-0.590227973,-0.461531419
818,2048131,1308400,1.019,0.181,0.134,-1.9,-29.7,-0.4,-8,-37.4,-1.8,0.624164556,-0.220557268,-0.590594195,-0.461409345
819,2050221,1308400,1.023,0.181,0.134,-2.3,-28.6,0.9,-8,-37.4,-1.8,0.623798334,-0.220892972,-0.590960417,-0.461287271
820,2053303,1308410,1.015,0.182,0.134,-2.7,-27.8,1.5,-8,-37.4,-1.8,0.623432112,-0.221228675,-0.59132664,-0.461165197
821,2055660,1308410,1.011,0.178,0.142,-3.1,-27.3,1.8,-7.7,-37.9,0.2,0.623096408,-0.221564379,-0.591631825,-0.461073641
822,2058033,1308410,1.011,0.174,0.142,-3.1,-26.8,1.8,-7.7,-37.9,0.2,0.622730186,-0.221900082,-0.591967528,-0.460951567
823,2061223,1308410,1.007,0.17,0.134,-2.8,-26.5,1.9,-7.7,-37.9,0.2,0.622394482,-0.222235786,-0.592303232,-0.460829493
824,2063285,1308420,1.003,0.17,0.134,-1.9,-26.2,2.1,-7.7,-37.9,0.2,0.622058779,-0.222540971,-0.592608417,-0.460707419
825,2065581,1308420,0.999,0.178,0.138,-0.9,-26.1,2.4,-8,-37.6,-0.1,0.621753594,-0.222846156,-0.592944121,-0.460554827
826,2068735,1308420,0.999,0.178,0.138,0,-25.9,3,-8,-37.6,-0.1,0.621448408,-0.223151341,-0.593279824,-0.460371715
827,2070788,1308420,1.003,0.178,0.138,0.9,-25.7,3.6,-8,-37.6,-0.1,0.621173742,-0.223456526,-0.593615528,-0.460188604
828,2072530,1308430,0.983,0.166,0.139,1.6,-25.6,4.3,-8,-37.6,-0.1,0.620868557,-0.223731193,-0.59398175,-0.460005493
829,2075598,1308430,0.98,0.178,0.135,2,-25.5,4.9,-8,-37.5,0.4,0.62059389,-0.224036378,-0.594317454,-0.459761345
830,2077834,1308430,0.976,0.174,0.131,2.7,-25.6,5.4,-8,-37.5,0.4,0.620349742,-0.224311045,-0.594653157,-0.459547716
831,2080904,1308430,0.968,0.163,0.131,3.6,-26,5.7,-8,-37.5,0.4,0.620075076,-0.22461623,-0.595019379,-0.459273049
832,2082493,1308440,0.983,0.178,0.131,5.2,-26.8,5.9,-8,-37.5,0.4,0.619830927,-0.224890896,-0.59541612,-0.458998383
833,2085389,1308440,0.991,0.186,0.135,7.3,-28.1,5.9,-8.1,-37.3,0.6,0.619556261,-0.225135044,-0.595843379,-0.458693197
834,2089381,1308440,0.991,0.194,0.131,10,-29.5,6,-8.1,-37.3,0.6,0.619281594,-0.225379192,-0.596301157,-0.458326975
835,2091639,1308440,0.995,0.205,0.147,12.6,-30.4,6,-8.1,-37.3,0.6,0.619006928,-0.225592822,-0.596819971,-0.457930235
836,2093926,1308450,1.007,0.221,0.143,14.9,-30.5,6,-8.1,-37.3,0.6,0.618732261,-0.225775933,-0.597338786,-0.457502976
837,2096149,1308450,1.007,0.232,0.151,17.3,-29.3,5.9,-7.8,-37.5,-1.5,0.618518632,-0.226264229,-0.597949156,-0.456770531
838,2097486,1308450,1.007,0.232,0.151,17.3,-29.3,5.9,-7.8,-37.5,-1.5,0.618305002,-0.226386303,-0.598467971,-0.456312754
839,2100528,1308450,0.995,0.237,0.147,17.1,-28.1,6.2,-7.8,-37.5,-1.5,0.618060854,-0.226508377,-0.598986785,-0.455885495
840,2103651,1308460,0.983,0.233,0.151,16,-26.6,6.8,-7.8,-37.5,-1.5,0.617877743,-0.22666097,-0.599475082,-0.455427717
841,2104986,1308460,0.983,0.237,0.143,14.6,-25,7.4,-7.9,-36.9,0.4,0.617694632,-0.226783044,-0.599932859,-0.455030976
842,2107973,1308460,0.976,0.233,0.14,13.2,-23.6,7.6,-7.9,-36.9,0.4,0.617511521,-0.226966155,-0.6003296,-0.454634236
843,2111079,1308460,0.972,0.233,0.136,12.4,-22.5,7.5,-7.9,-36.9,0.4,0.617358928,-0.227118748,-0.600726341,-0.454268014
844,2112477,1308470,0.976,0.245,0.132,12.4,-21.6,7.2,-7.9,-36.9,0.4,0.617206336,-0.22727134,-0.601092563,-0.453871273
845,2115483,1308470,0.972,0.245,0.132,12.8,-21,7,-7.7,-36.8,0.7,0.617084262,-0.227393414,-0.601489303,-0.453505051
846,2118620,1308470,0.976,0.257,0.132,13.5,-20.4,7,-7.7,-36.8,0.7,0.616931669,-0.22748497,-0.601855525,-0.453138829
847,2120042,1308470,0.968,0.265,0.132,14.3,-19.9,7.2,-7.7,-36.8,0.7,0.616809595,-0.227607044,-0.602221747,-0.452772607
848,2123855,1308480,0.968,0.257,0.132,14.8,-19.4,7.6,-7.7,-36.8,0.7,0.616718039,-0.227698599,-0.60258797,-0.452375866
849,2125250,1308480,0.964,0.265,0.128,15.1,-19,8.1,-8,-36.7,0.8,0.616626484,-0.227759636,-0.602954192,-0.451948607
850,2129246,1308480,0.968,0.265,0.128,15.1,-18.6,8.6,-8,-36.7,0.8,0.616534928,-0.22788171,-0.603320414,-0.451551866
851,2131324,1308480,0.96,0.261,0.128,15.3,-18.4,8.9,-8,-36.7,0.8,0.616443373,-0.227973266,-0.603686636,-0.451155126
852,2132694,1308490,0.956,0.253,0.128,15.6,-18.2,9,-8,-36.7,0.8,0.616382336,-0.228064821,-0.60402234,-0.450727866
853,2135716,1308490,0.96,0.269,0.125,16.1,-17.9,8.9,-7.9,-37,1,0.616321299,-0.228125858,-0.604388562,-0.450300607
854,2138126,1308490,0.956,0.273,0.125,16.9,-17.6,8.7,-7.9,-37,1,0.616260262,-0.228186895,-0.604754784,-0.449873348
855,2140400,1308490,0.964,0.284,0.125,18.1,-17.4,8.3,-7.9,-37,1,0.616199225,-0.228217414,-0.605121006,-0.449446089
856,2143255,1308500,0.964,0.296,0.129,19.4,-17.4,8.1,-7.9,-37,1,0.616138188,-0.228247932,-0.605517747,-0.448988311
857,2145488,1308500,0.964,0.292,0.125,20.6,-17.1,8.3,-8.4,-37.4,-0.8,0.615863521,-0.228247932,-0.606189154,-0.448438978
858,2148653,1308500,0.964,0.292,0.125,20.6,-17.1,8.3,-8.4,-37.4,-0.8,0.615833003,-0.228247932,-0.606555376,-0.447981201
859,2150041,1308500,0.956,0.281,0.125,20.2,-16.8,8.7,-8.4,-37.4,-0.8,0.615802484,-0.228247932,-0.606952116,-0.447492904
860,2153960,1308510,0.964,0.312,0.125,19.5,-16.3,8.7,-8.4,-37.4,-0.8,0.615741447,-0.228278451,-0.607318339,-0.447035127
861,2155626,1308510,0.964,0.308,0.129,18.8,-15.7,8.1,-8.1,-36.9,1,0.615710929,-0.228278451,-0.607684561,-0.446607868
862,2157991,1308510,0.952,0.296,0.129,18.1,-15,7,-8.1,-36.9,1,0.61568041,-0.228278451,-0.608020264,-0.446180609
863,2161220,1308510,0.956,0.304,0.125,17.4,-14.5,5.9,-8.1,-36.9,1,0.615619373,-0.228278451,-0.608355968,-0.445783868
864,2162580,1308520,0.964,0.3,0.121,16.7,-14.1,5,-8.1,-36.9,1,0.615588855,-0.228247932,-0.608691671,-0.445448164
865,2166132,1308520,0.976,0.308,0.125,16.3,-14.3,4.6,-8.2,-37.6,0.9,0.615497299,-0.228217414,-0.608996857,-0.445112461
866,2167550,1308520,0.983,0.319,0.125,16.3,-14.6,4.5,-8.2,-37.6,0.9,0.615436262,-0.228217414,-0.60933256,-0.444746239
867,2170583,1308520,0.995,0.327,0.129,16.4,-14.8,4.5,-8.2,-37.6,0.9,0.615375225,-0.228186895,-0.609668264,-0.444380016
868,2173740,1308530,0.983,0.315,0.129,16.2,-14.1,4.8,-8.2,-37.6,0.9,0.615314188,-0.228186895,-0.610003967,-0.444044313
869,2175064,1308530,0.972,0.308,0.133,15,-12.7,5.3,-8.3,-36.8,1.2,0.615253151,-0.228186895,-0.610278634,-0.443708609
870,2178303,1308530,0.964,0.304,0.129,12.9,-10.7,5.9,-8.3,-36.8,1.2,0.615253151,-0.228186895,-0.610522782,-0.443403424
871,2180616,1308530,0.964,0.292,0.121,10.3,-8.9,6,-8.3,-36.8,1.2,0.615222633,-0.228217414,-0.610705893,-0.443128758
872,2183727,1308540,0.964,0.288,0.121,7.6,-7.2,5.6,-8.3,-36.8,1.2,0.615222633,-0.228247932,-0.610858486,-0.442915128
873,2185113,1308540,0.964,0.277,0.121,5.3,-6,4.6,-8.4,-37.1,0.8,0.615222633,-0.228308969,-0.61098056,-0.442762535
874,2188814,1308540,0.96,0.265,0.113,4,-5.1,3.6,-8.4,-37.1,0.8,0.615222633,-0.228339488,-0.611072115,-0.442640461
875,2190872,1308540,0.968,0.265,0.105,3.6,-4.5,3,-8.4,-37.1,0.8,0.615192114,-0.228370006,-0.611133152,-0.442518387
876,2193164,1308550,0.968,0.265,0.109,3.9,-4,2.7,-8.4,-37.1,0.8,0.615192114,-0.228400525,-0.611224708,-0.442396313
877,2195295,1308550,0.972,0.265,0.109,5.4,-3.1,2.6,-8.2,-37.3,0.2,0.615009003,-0.228461562,-0.611529893,-0.442182684
878,2198926,1308550,0.968,0.265,0.109,5.4,-3.1,2.6,-8.2,-37.3,0.2,0.615039521,-0.228461562,-0.611621448,-0.44206061
879,2200944,1308550,0.964,0.261,0.12,6,-2.8,2.6,-8.2,-37.3,0.2,0.615039521,-0.228431043,-0.611713004,-0.441938536
880,2203271,1308560,0.972,0.261,0.113,6.3,-2.4,2.6,-8.2,-37.3,0.2,0.61507004,-0.228400525,-0.611774041,-0.441785943
881,2205437,1308560,0.968,0.261,0.113,6.2,-2.4,2.8,-8.4,-37.6,1.3,0.615100558,-0.228400525,-0.611865596,-0.441663869
882,2207648,1308560,0.968,0.257,0.109,5.9,-2.4,2.8,-8.4,-37.6,1.3,0.615131077,-0.228370006,-0.611926634,-0.441541795
883,2209996,1308560,0.968,0.253,0.116,5.4,-2.3,2.8,-8.4,-37.6,1.3,0.615131077,-0.228370006,-0.612018189,-0.441419721
884,2213784,1308570,0.964,0.257,0.117,4.9,-2,2.7,-8.4,-37.6,1.3,0.615161596,-0.228339488,-0.612079226,-0.441297647
885,2215827,1308570,0.964,0.253,0.113,4.8,-1.5,2.7,-8.5,-37.5,1,0.615192114,-0.228339488,-0.612109745,-0.441175573
886,2217703,1308570,0.96,0.257,0.105,4.8,-1,2.4,-8.5,-37.5,1,0.615222633,-0.228308969,-0.612170782,-0.441084017
887,2221777,1308570,0.964,0.257,0.109,5,-0.7,2.3,-8.5,-37.5,1,0.61528367,-0.228278451,-0.6122013,-0.440992462
888,2223984,1308580,0.956,0.257,0.113,5.3,-0.5,2.1,-8.5,-37.5,1,0.615314188,-0.228247932,-0.612262337,-0.440870388
889,2226282,1308580,0.956,0.257,0.109,5.5,-0.4,2,-8,-37.1,1.1,0.615344707,-0.228186895,-0.612323374,-0.440778832
890,2228367,1308580,0.952,0.257,0.105,5.8,-0.2,1.9,-8,-37.1,1.1,0.615405744,-0.228156377,-0.612353893,-0.440656758
891,2231508,1308580,0.948,0.257,0.109,6.1,0,1.8,-8,-37.1,1.1,0.615436262,-0.22809534,-0.61241493,-0.440565203
892,2233187,1308590,0.944,0.261,0.109,6.4,0.1,1.4,-8,-37.1,1.1,0.615497299,-0.228034303,-0.612475967,-0.440443129
893,2235158,1308590,0.948,0.265,0.109,6.7,0.1,0.8,-8.2,-37.5,1.2,0.615527818,-0.227942747,-0.612537004,-0.440351573
894,2238124,1308590,0.948,0.265,0.113,7,0.2,0.1,-8.2,-37.5,1.2,0.615588855,-0.227851192,-0.612598041,-0.440260018
895,2241641,1308590,0.948,0.273,0.109,7.2,0.3,-0.6,-8.2,-37.5,1.2,0.615619373,-0.227729118,-0.612659078,-0.440168462
896,2243826,1308600,0.948,0.273,0.109,7.3,0.6,-1.3,-8.2,-37.5,1.2,0.615649892,-0.227607044,-0.612720115,-0.440107425
897,2246123,1308600,0.948,0.273,0.109,7.6,1,-2.3,-8.4,-37.3,0.6,0.615405744,-0.22748497,-0.613116855,-0.439924314
898,2248768,1308600,0.948,0.273,0.109,7.6,1,-2.3,-8.4,-37.3,0.6,0.615436262,-0.227332377,-0.613177892,-0.439893796
899,2251183,1308600,0.944,0.269,0.117,7.9,1.3,-2.7,-8.4,-37.3,0.6,0.615466781,-0.227179785,-0.613238929,-0.439832759
900,2253263,1308610,0.937,0.261,0.113,8.3,1.6,-3,-8.4,-37.3,0.6,0.615497299,-0.227027192,-0.613330485,-0.439771722
901,2255437,1308610,0.933,0.265,0.109,9,1.9,-3.4,-8.3,-36.9,1.1,0.615558336,-0.226844081,-0.613391522,-0.439680166
902,2259192,1308610,0.956,0.273,0.113,9.8,2.1,-4.1,-8.3,-36.9,1.1,0.615588855,-0.226630451,-0.613483077,-0.439619129
903,2261453,1308610,0.956,0.277,0.109,10.5,2.2,-5.2,-8.3,-36.9,1.1,0.615619373,-0.226386303,-0.613574633,-0.439558092
904,2263796,1308620,0.96,0.281,0.121,11,2.4,-6.4,-8.3,-36.9,1.1,0.615649892,-0.226142155,-0.613696707,-0.439527573
905,2265798,1308620,0.96,0.285,0.117,11.3,2.7,-7.3,-8.3,-37.1,0.9,0.615649892,-0.225867489,-0.613788263,-0.439466536
906,2268053,1308620,0.972,0.284,0.125,11.3,3.1,-7.7,-8.3,-37.1,0.9,0.61568041,-0.225562304,-0.613910337,-0.439436018
907,2270400,1308620,0.964,0.284,0.117,11.2,3.4,-7.6,-8.3,-37.1,0.9,0.615710929,-0.225287637,-0.614001892,-0.439405499
908,2273016,1308630,0.968,0.284,0.121,11,3.7,-7.3,-8.3,-37.1,0.9,0.615741447,-0.22501297,-0.614093448,-0.439374981
909,2275117,1308630,0.976,0.284,0.121,11,3.6,-6.7,-8.1,-37.6,0.8,0.615771966,-0.224738304,-0.614185003,-0.439344462
910,2277577,1308630,0.972,0.284,0.117,11.3,3.3,-6.1,-8.1,-37.6,0.8,0.615833003,-0.224463637,-0.61424604,-0.439283425
911,2281799,1308630,0.968,0.284,0.121,11.8,3.1,-5.5,-8.1,-37.6,0.8,0.615863521,-0.224188971,-0.614368114,-0.439222388
912,2283212,1308640,0.964,0.281,0.113,12.1,3.3,-5,-8.1,-37.6,0.8,0.615924558,-0.223944823,-0.61445967,-0.439161351
913,2285680,1308640,0.964,0.277,0.121,12,3.8,-5,-8.6,-37.3,1,0.615985595,-0.223670156,-0.614551225,-0.439069796
914,2287662,1308640,0.972,0.276,0.121,11.6,4.7,-5.2,-8.6,-37.3,1,0.616077151,-0.223395489,-0.614642781,-0.439008759
915,2290534,1308640,0.968,0.277,0.117,10.9,5.5,-5.5,-8.6,-37.3,1,0.616138188,-0.223120823,-0.614703818,-0.43897824
916,2293614,1308650,0.968,0.277,0.117,10.2,6.1,-5.7,-8.6,-37.3,1,0.616229743,-0.222846156,-0.614734336,-0.438947722
917,2296753,1308650,0.968,0.277,0.121,9.4,6.5,-5.5,-8.4,-37.3,1.1,0.616168706,-0.222602008,-0.614947966,-0.438856166
918,2298010,1308650,0.968,0.277,0.121,9.4,6.5,-5.5,-8.4,-37.3,1.1,0.616229743,-0.22235786,-0.614978484,-0.438825648
919,2301426,1308650,0.964,0.277,0.121,9.5,6.3,-5.2,-8.4,-37.3,1.1,0.616321299,-0.222083193,-0.615009003,-0.438795129
920,2303689,1308660,0.972,0.284,0.125,9.7,6.1,-5,-8.4,-37.3,1.1,0.616412854,-0.221839045,-0.615039521,-0.438764611
921,2305540,1308660,0.972,0.284,0.125,10,6,-4.9,-8.4,-37.4,1.2,0.616473891,-0.221564379,-0.61507004,-0.438734092
922,2309125,1308660,0.972,0.28,0.121,10.2,5.9,-4.7,-8.4,-37.4,1.2,0.616565447,-0.221320231,-0.615100558,-0.438703574
923,2311003,1308660,0.972,0.288,0.121,10.5,5.9,-4.4,-8.4,-37.4,1.2,0.616657002,-0.221045564,-0.615161596,-0.438642537
924,2312698,1308670,0.968,0.292,0.125,10.9,5.9,-4.1,-8.4,-37.4,1.2,0.616748558,-0.220801416,-0.615192114,-0.4385815
925,2315878,1308670,0.972,0.288,0.125,11.2,5.8,-3.9,-8.2,-37.2,1.4,0.616840114,-0.220526749,-0.615253151,-0.438489944
926,2317627,1308670,0.972,0.296,0.125,11.3,5.6,-3.8,-8.2,-37.2,1.4,0.616931669,-0.220282601,-0.61528367,-0.438428907
927,2321705,1308670,0.972,0.296,0.125,11.5,5.4,-3.5,-8.2,-37.2,1.4,0.617023225,-0.220007935,-0.615344707,-0.438337352
928,2324296,1308680,0.964,0.3,0.129,11.6,5.2,-2.9,-8.2,-37.2,1.4,0.617145299,-0.219763787,-0.615405744,-0.438245796
929,2326499,1308680,0.968,0.304,0.125,11.9,5.2,-2.2,-7.7,-37.1,1.1,0.617236854,-0.219519639,-0.615466781,-0.438154241
930,2328483,1308680,0.964,0.304,0.125,12.2,5.1,-1.3,-7.7,-37.1,1.1,0.617358928,-0.219306009,-0.615527818,-0.438032167
931,2331278,1308680,0.956,0.304,0.125,12.6,5,-0.3,-7.7,-37.1,1.1,0.617481002,-0.219061861,-0.615558336,-0.437879574
932,2332644,1308690,0.952,0.312,0.129,13.2,4.9,0.5,-7.7,-37.1,1.1,0.617603076,-0.218848231,-0.615619373,-0.437726981
933,2336359,1308690,0.948,0.308,0.129,13.9,4.6,1.2,-7.8,-37.1,1.8,0.617755669,-0.218634602,-0.61568041,-0.43754387
934,2337997,1308690,0.944,0.316,0.129,14.5,4.3,1.7,-7.8,-37.1,1.8,0.617908261,-0.218420972,-0.615771966,-0.437360759
935,2341607,1308690,0.944,0.32,0.125,15,3.9,2.1,-7.8,-37.1,1.8,0.618030335,-0.218207343,-0.615833003,-0.43714713
936,2342889,1308700,0.944,0.324,0.129,15.2,3.5,2.3,-7.8,-37.1,1.8,0.618152409,-0.217993713,-0.615924558,-0.436902982
937,2345107,1308700,0.94,0.328,0.13,15.4,2.7,2.4,-8.4,-37.1,1.7,0.61793878,-0.217352824,-0.616382336,-0.436964019
938,2347753,1308700,0.94,0.332,0.13,15.4,2.7,2.4,-8.4,-37.1,1.7,0.618060854,-0.217169713,-0.616473891,-0.436750389
939,2351406,1308700,0.944,0.332,0.13,15.5,2.5,2.4,-8.4,-37.1,1.7,0.618152409,-0.216956084,-0.616565447,-0.436506241
940,2354306,1308710,0.936,0.328,0.134,15.5,2.5,2.3,-8.4,-37.1,1.7,0.618305002,-0.216772973,-0.616687521,-0.436292611
941,2356813,1308710,0.929,0.336,0.134,15.6,2.4,2.1,-8.1,-36.9,2,0.618457595,-0.216559343,-0.616779077,-0.436017945
942,2358840,1308710,0.933,0.34,0.134,15.5,2.2,1.9,-8.1,-36.9,2,0.618579669,-0.216345714,-0.616901151,-0.435834834
943,2360428,1308710,0.94,0.339,0.134,15.3,2.1,1.4,-8.1,-36.9,2,0.618671224,-0.216132084,-0.617023225,-0.435621204
944,2362480,1308720,0.94,0.336,0.134,14.9,2,0.7,-8.1,-36.9,2,0.618793298,-0.215918455,-0.61711478,-0.435407575
945,2366858,1308720,0.944,0.332,0.133,14.4,1.8,0.1,-8.6,-36.9,1.7,0.618884854,-0.215704825,-0.617236854,-0.435224464
946,2369626,1308720,0.948,0.332,0.129,14.1,1.8,-0.4,-8.6,-36.9,1.7,0.618976409,-0.215491195,-0.61732841,-0.435041353
947,2371299,1308720,0.948,0.332,0.133,13.8,2,-0.6,-8.6,-36.9,1.7,0.619067965,-0.215277566,-0.617450484,-0.43488876
948,2373084,1308730,0.944,0.324,0.133,13.6,2.2,-0.7,-8.6,-36.9,1.7,0.61915952,-0.215063936,-0.617542039,-0.434705649
949,2374956,1308730,0.944,0.324,0.133,13.5,2.5,-0.7,-8.4,-37.3,1.7,0.619220557,-0.214850307,-0.617664113,-0.434553056
950,2378765,1308730,0.944,0.32,0.133,13.3,2.6,-0.8,-8.4,-37.3,1.7,0.619312113,-0.214636677,-0.617755669,-0.434400464
951,2380218,1308730,0.94,0.32,0.133,13,2.8,-0.8,-8.4,-37.3,1.7,0.619403668,-0.214423048,-0.617847224,-0.434247871
952,2382413,1308740,0.944,0.32,0.133,12.7,2.8,-1,-8.4,-37.3,1.7,0.619495224,-0.214209418,-0.617908261,-0.43406476
953,2385253,1308740,0.94,0.316,0.133,12.3,2.9,-1.2,-8.5,-37.2,2.1,0.619586779,-0.213995788,-0.617999817,-0.433973205
954,2389549,1308740,0.944,0.316,0.133,11.9,2.8,-1.3,-8.5,-37.2,2.1,0.619678335,-0.213782159,-0.618091372,-0.433851131
955,2391198,1308740,0.94,0.312,0.129,11.4,2.8,-1.3,-8.5,-37.2,2.1,0.619739372,-0.213599048,-0.618152409,-0.433729057
956,2392749,1308750,0.948,0.316,0.133,11,2.7,-1.4,-8.5,-37.2,2.1,0.619830927,-0.213385418,-0.618243965,-0.433606983
957,2395148,1308750,0.948,0.304,0.129,10.1,2.7,-1.8,-8.4,-37.3,1.9,0.619464705,-0.212652974,-0.618671224,-0.433881649
958,2398039,1308750,0.948,0.304,0.129,10.1,2.7,-1.8,-8.4,-37.3,1.9,0.619525742,-0.212469863,-0.618732261,-0.433790094
959,2401248,1308750,0.944,0.296,0.133,9.7,2.8,-1.9,-8.4,-37.3,1.9,0.619586779,-0.212286752,-0.618793298,-0.433698538
960,2403150,1308760,0.948,0.296,0.133,9.4,3.1,-2,-8.4,-37.3,1.9,0.619647816,-0.212103641,-0.618854335,-0.433606983
961,2405697,1308760,0.944,0.292,0.129,9.3,3.2,-1.9,-8.3,-37,1.8,0.619708853,-0.21192053,-0.618915372,-0.433515427
962,2408513,1308760,0.94,0.292,0.129,9.3,3.2,-1.7,-8.3,-37,1.8,0.619800409,-0.211737419,-0.618976409,-0.433423872
963,2410702,1308760,0.948,0.288,0.129,9.3,3.2,-1.5,-8.3,-37,1.8,0.619861446,-0.211554308,-0.619006928,-0.433332316
964,2414084,1308770,0.952,0.288,0.129,9.2,3.3,-1.4,-8.3,-37,1.8,0.619922483,-0.211371197,-0.619067965,-0.433240761
965,2415969,1308770,0.948,0.292,0.129,9,3.3,-1.6,-8.2,-37,2,0.620014039,-0.211157567,-0.619098483,-0.433179724
966,2418250,1308770,0.944,0.284,0.133,8.8,3.3,-1.9,-8.2,-37,2,0.620075076,-0.211004975,-0.61915952,-0.433088168
967,2421917,1308770,0.948,0.288,0.129,8.8,3.2,-2.1,-8.2,-37,2,0.620136113,-0.210852382,-0.619220557,-0.433027131
968,2424293,1308780,0.952,0.284,0.129,8.9,3.1,-2,-8.2,-37,2,0.62019715,-0.210669271,-0.619251076,-0.432935575
969,2426998,1308780,0.952,0.284,0.129,9.1,3,-1.8,-8.7,-36.9,2.1,0.620258187,-0.21048616,-0.619312113,-0.43284402
970,2429243,1308780,0.948,0.288,0.129,9.5,2.8,-1.4,-8.7,-36.9,2.1,0.620349742,-0.210303049,-0.61937315,-0.432752464
971,2430940,1308780,0.944,0.288,0.129,9.9,2.7,-1,-8.7,-36.9,2.1,0.620410779,-0.210119938,-0.619434187,-0.432660909
972,2432979,1308790,0.948,0.284,0.129,10.4,2.6,-0.5,-8.7,-36.9,2.1,0.620502335,-0.209967345,-0.619495224,-0.432538835
973,2435471,1308790,0.948,0.288,0.129,10.9,2.6,0,-8.3,-37,1.9,0.620563372,-0.209784234,-0.619556261,-0.432386242
974,2437507,1308790,0.94,0.296,0.129,11.5,2.6,0.6,-8.3,-37,1.9,0.620654927,-0.209601123,-0.619647816,-0.43223365
975,2441710,1308790,0.94,0.3,0.133,12.2,2.5,1.2,-8.3,-37,1.9,0.620777001,-0.209448531,-0.619708853,-0.432050539
976,2443355,1308800,0.94,0.3,0.133,13,2.4,1.7,-8.3,-37,1.9,0.620868557,-0.209265419,-0.619800409,-0.431867428
977,2445183,1308800,0.936,0.304,0.133,14.3,1.9,2.5,-8.6,-37.2,2,0.620715964,-0.20883816,-0.620166631,-0.431806391
978,2448884,1308800,0.936,0.304,0.133,14.9,1.6,2.7,-8.6,-37.2,2,0.620838038,-0.208655049,-0.620258187,-0.431562243
979,2451252,1308800,0.933,0.312,0.133,14.9,1.6,2.7,-8.6,-37.2,2,0.620929594,-0.208471938,-0.620380261,-0.431348613
980,2452670,1308810,0.933,0.312,0.133,15.5,1.3,2.9,-8.6,-37.2,2,0.621051668,-0.208288827,-0.620471816,-0.431104465
981,2456827,1308810,0.936,0.316,0.133,16.1,1.2,3.1,-8.5,-37.2,2.5,0.621173742,-0.208105716,-0.62059389,-0.430829798
982,2459279,1308810,0.933,0.32,0.13,16.7,1.2,3.3,-8.5,-37.2,2.5,0.621295816,-0.207922605,-0.620715964,-0.43058565
983,2461949,1308810,0.936,0.328,0.13,17.2,1.3,3.3,-8.5,-37.2,2.5,0.621448408,-0.207708975,-0.620868557,-0.430310984
984,2463873,1308820,0.933,0.328,0.134,17.7,1.4,3.3,-8.5,-37.2,2.5,0.621570482,-0.207495346,-0.620990631,-0.430036317
985,2466297,1308820,0.936,0.332,0.137,18,1.4,3.3,-8.5,-37.2,2.4,0.621692557,-0.207251198,-0.621112705,-0.429731132
986,2467946,1308820,0.94,0.332,0.134,18.2,1.4,3.4,-8.5,-37.2,2.4,0.621845149,-0.207068087,-0.621265297,-0.429456465
987,2470338,1308820,0.936,0.336,0.134,18.3,1.3,3.4,-8.5,-37.2,2.4,0.621967223,-0.206854457,-0.621387371,-0.42915128
988,2472619,1308830,0.936,0.339,0.134,18.4,1.3,3.4,-8.5,-37.2,2.4,0.622058779,-0.206640828,-0.621539964,-0.428876614
989,2475118,1308830,0.936,0.336,0.138,18.6,1.4,3.4,-8.6,-37.3,2.7,0.62224189,-0.206427198,-0.621662038,-0.428571429
990,2479757,1308830,0.94,0.347,0.138,18.8,1.5,3.5,-8.6,-37.3,2.7,0.622363964,-0.206213569,-0.621814631,-0.428266243
991,2480184,1308830,0.94,0.343,0.138,18.8,1.6,3.5,-8.6,-37.3,2.7,0.622516556,-0.20596942,-0.621936705,-0.427991577
992,2482634,1308840,0.936,0.343,0.134,18.8,1.8,3.2,-8.6,-37.3,2.7,0.622669149,-0.205755791,-0.622058779,-0.427686392
993,2486650,1308840,0.94,0.343,0.138,18.7,1.9,2.8,-8.5,-37.2,2.8,0.622791223,-0.205511643,-0.622211371,-0.427411725
994,2489041,1308840,0.94,0.339,0.138,18.7,2.1,2.4,-8.5,-37.2,2.8,0.622943815,-0.205267495,-0.622363964,-0.427137059
995,2491501,1308840,0.94,0.335,0.141,18.6,2.1,2.2,-8.5,-37.2,2.8,0.623065889,-0.205023347,-0.622486038,-0.426862392
996,2493155,1308850,0.94,0.343,0.138,18.4,2.1,2.2,-8.5,-37.2,2.8,0.623187963,-0.204779199,-0.622608112,-0.426587725
997,2495039,1308850,0.94,0.343,0.138,18.1,2.2,2.1,-8.5,-37,3,0.623035371,-0.203985717,-0.622943815,-0.426740318
998,2498911,1308850,0.944,0.347,0.134,17.7,2.3,2,-8.5,-37,3,0.623157445,-0.203741569,-0.623065889,-0.42649617
999,2501300,1308850,0.944,0.339,0.141,17.4,2.5,2,-8.5,-37,3,0.623279519,-0.203497421,-0.623187963,-0.426221503
1000,2503515,1308860,0.94,0.343,0.138,17,2.7,1.9,-8.5,-37,3,0.623401593,-0.203283792,-0.623310038,-0.425977355
1001,2506887,1308860,0.936,0.347,0.138,16.6,2.7,1.8,-8.5,-37,2.7,0.623554186,-0.203070162,-0.623401593,-0.425733207
1002,2509088,1308860,0.94,0.347,0.138,16,2.6,1.7,-8.5,-37,2.7,0.62367626,-0.202826014,-0.623523667,-0.425519578
1003,2510925,1308860,0.944,0.343,0.137,15.3,2.3,1.4,-8.5,-37,2.7,0.623767815,-0.202612384,-0.623615223,-0.425305948
1004,2513026,1308870,0.944,0.343,0.141,14.5,2,1.1,-8.5,-37,2.7,0.623889889,-0.202429273,-0.623737297,-0.425092318
1005,2516483,1308870,0.948,0.343,0.134,13.8,1.9,0.9,-8.5,-36.8,2.6,0.623981445,-0.202215644,-0.623828852,-0.424909207
1006,2518239,1308870,0.952,0.339,0.133,13.3,2.1,0.7,-8.5,-36.8,2.6,0.624073,-0.202032533,-0.623920408,-0.424726096
1007,2520653,1308870,0.952,0.339,0.133,13.2,2.4,0.7,-8.5,-36.8,2.6,0.624164556,-0.201849422,-0.624011963,-0.424542985
1008,2522818,1308880,0.948,0.335,0.137,13.1,2.6,0.7,-8.5,-36.8,2.6,0.62428663,-0.201666311,-0.624073,-0.424359874
1009,2525891,1308880,0.952,0.339,0.133,13.1,2.9,0.8,-8.5,-36.6,2.8,0.624378185,-0.201452681,-0.624164556,-0.424176763
1010,2528741,1308880,0.948,0.335,0.133,13.1,3,1,-8.5,-36.6,2.8,0.624500259,-0.20126957,-0.624225593,-0.423993652
1011,2530146,1308880,0.948,0.339,0.137,13,3,1.3,-8.5,-36.6,2.8,0.624591815,-0.201086459,-0.624317148,-0.423810541
1012,2532465,1308890,0.952,0.339,0.137,12.9,2.9,1.4,-8.5,-36.6,2.8,0.624713889,-0.200903348,-0.624378185,-0.42362743
1013,2536428,1308890,0.952,0.335,0.133,12.5,2.7,1.3,-8.3,-36.4,2.9,0.624805445,-0.200720237,-0.624469741,-0.423444319
1014,2538988,1308890,0.96,0.339,0.137,12.1,2.4,1.2,-8.3,-36.4,2.9,0.624927519,-0.200537126,-0.624530778,-0.423291726
1015,2540628,1308890,0.952,0.347,0.137,11.5,2.2,1.1,-8.3,-36.4,2.9,0.625019074,-0.200384533,-0.624591815,-0.423139134
1016,2542793,1308900,0.956,0.339,0.137,10.8,2.1,0.9,-8.3,-36.4,2.9,0.625080111,-0.200231941,-0.624652852,-0.422986541
