sample_index,elapsed_us,device_time_ms,acc_x_g,acc_y_g,acc_z_g,gyro_x_dps,gyro_y_dps,gyro_z_dps,mag_x_ut,mag_y_ut,mag_z_ut,quat_w,quat_x,quat_y,quat_z
0,2706,683510,0.944,0.312,0.149,3.2,0.2,0.3,-11.5,-33,10.1,0.648060549,-0.141758477,-0.634083071,-0.397228919
1,5421,683510,0.948,0.312,0.149,3.4,0.3,0.3,-10.2,-34.7,9.9,0.648091067,-0.141697439,-0.63411359,-0.397167882
2,7589,683510,0.944,0.312,0.149,3.6,0.5,0,-10.2,-34.7,9.9,0.648091067,-0.141636402,-0.634144108,-0.397106845
3,11411,683510,0.944,0.312,0.145,3.7,0.5,0,-10.2,-34.7,9.9,0.648121586,-0.141575365,-0.634174627,-0.397076327
4,13723,683520,0.944,0.316,0.149,3.7,0.5,0,-10.2,-34.7,9.9,0.648152104,-0.141514328,-0.634205145,-0.39701529
5,15931,683520,0.944,0.308,0.149,3.7,0.4,-0.1,-11.3,-33.6,9.9,0.648152104,-0.141453291,-0.634235664,-0.396954253
6,18656,683520,0.944,0.308,0.149,3.8,0.3,-0.1,-11.3,-33.6,9.9,0.648182623,-0.141392254,-0.634266182,-0.396923734
7,21533,683520,0.952,0.311,0.157,3.9,0.2,0,-11.3,-33.6,9.9,0.648182623,-0.141331217,-0.634266182,-0.396862697
8,22916,683530,0.948,0.308,0.153,3.9,0.3,0,-11.3,-33.6,9.9,0.648213141,-0.141300699,-0.634296701,-0.39680166
9,25160,683530,0.952,0.316,0.149,3.9,0.4,0,-11.5,-33.4,10,0.648213141,-0.141239662,-0.634327219,-0.396771142
10,28458,683530,0.948,0.304,0.149,3.8,0.5,-0.1,-11.5,-33.4,10,0.64824366,-0.141178625,-0.634357738,-0.396710105
11,31506,683530,0.952,0.312,0.145,3.9,0.5,-0.3,-11.5,-33.4,10,0.648274178,-0.141087069,-0.634388256,-0.396679586
12,33722,683540,0.948,0.308,0.149,3.9,0.6,-0.4,-11.5,-33.4,10,0.648274178,-0.141026032,-0.634418775,-0.396618549
13,35108,683540,0.948,0.304,0.145,4,0.4,-0.5,-11.3,-33.2,10.3,0.648304697,-0.140964995,-0.634449293,-0.396588031
14,38047,683540,0.944,0.3,0.153,4,0.4,-0.4,-11.3,-33.2,10.3,0.648304697,-0.140903958,-0.634479812,-0.396526994
15,40294,683540,0.952,0.3,0.145,4,0.4,-0.4,-11.3,-33.2,10.3,0.648335215,-0.140842921,-0.634510331,-0.396465957
16,43442,683550,0.952,0.304,0.145,3.9,0.5,-0.3,-11.3,-33.2,10.3,0.648335215,-0.140751366,-0.634540849,-0.396435438
17,46473,683550,0.952,0.304,0.145,3.9,0.5,-0.3,-11.3,-33.2,10.3,0.648335215,-0.140751366,-0.634540849,-0.396435438
18,48766,683550,0.952,0.3,0.149,3.6,0.5,0,-10.9,-33.6,9.6,0.648426771,-0.140934477,-0.634632405,-0.396099734
19,50196,683550,0.952,0.296,0.145,3.5,0.4,0,-10.9,-33.6,9.6,0.648426771,-0.140842921,-0.634662923,-0.396038697
20,53666,683560,0.952,0.3,0.152,3.4,0.4,0,-10.9,-33.6,9.6,0.648457289,-0.140812403,-0.634693442,-0.396008179
21,55510,683560,0.952,0.296,0.152,3.4,0.4,-0.1,-10.4,-34.6,9.9,0.648457289,-0.140781884,-0.634693442,-0.395947142
22,57762,683560,0.956,0.296,0.148,3.3,0.4,-0.2,-10.4,-34.6,9.9,0.648487808,-0.140720847,-0.63472396,-0.395916623
23,60866,683560,0.952,0.3,0.145,3.2,0.4,-0.1,-10.4,-34.6,9.9,0.648487808,-0.14065981,-0.634754479,-0.395855586
24,63841,683570,0.952,0.304,0.153,3.1,0.4,-0.1,-10.4,-34.6,9.9,0.648518326,-0.140598773,-0.634784997,-0.395825068
25,65191,683570,0.948,0.296,0.153,3.2,0.5,0,-11.2,-33.9,10,0.648518326,-0.140568255,-0.634784997,-0.395794549
26,68462,683570,0.948,0.296,0.153,3.2,0.5,0,-11.2,-33.9,10,0.648548845,-0.140507218,-0.634815516,-0.395733512
27,70490,683570,0.952,0.3,0.149,3.2,0.6,0,-11.2,-33.9,10,0.648548845,-0.140446181,-0.634815516,-0.395702994
28,72712,683580,0.948,0.308,0.153,3.2,0.5,-0.1,-11.2,-33.9,10,0.648579363,-0.140385144,-0.634846034,-0.395672475
29,75880,683580,0.948,0.308,0.153,3.2,0.5,-0.1,-11.2,-33.9,10,0.648579363,-0.140385144,-0.634846034,-0.395672475
30,78920,683580,0.944,0.304,0.153,3.2,0.5,0,-11.3,-33.5,10.2,0.648609882,-0.140293588,-0.634907071,-0.39558092
31,80265,683580,0.944,0.304,0.153,3.1,0.5,0,-11.3,-33.5,10.2,0.6486404,-0.140232551,-0.634907071,-0.395519883
32,83464,683590,0.944,0.3,0.149,2.9,0.6,-0.1,-11.3,-33.5,10.2,0.6486404,-0.140202033,-0.63493759,-0.395489364
33,86484,683590,0.944,0.308,0.149,2.9,0.7,-0.2,-11,-33.7,10.2,0.648670919,-0.140140996,-0.63493759,-0.395458846
34,88922,683590,0.94,0.312,0.145,2.9,0.7,-0.2,-11,-33.7,10.2,0.648670919,-0.140079958,-0.634968108,-0.395428327
35,90795,683590,0.94,0.316,0.153,3,0.7,-0.1,-11,-33.7,10.2,0.648701437,-0.14004944,-0.634968108,-0.395397809
36,94033,683600,0.944,0.316,0.149,3,0.7,0,-11,-33.7,10.2,0.648701437,-0.139988403,-0.634998627,-0.395336772
37,95437,683600,0.944,0.316,0.149,3,0.7,0,-11,-33.7,10.2,0.648701437,-0.139988403,-0.634998627,-0.395336772
38,97796,683600,0.944,0.32,0.149,3.1,0.5,0.4,-10.9,-33.3,10.1,0.648762474,-0.140018921,-0.635059664,-0.395153661
39,100970,683600,0.944,0.32,0.149,3.1,0.5,0.4,-10.9,-33.3,10.1,0.648762474,-0.140018921,-0.635059664,-0.395153661
40,103038,683610,0.94,0.32,0.153,3.1,0.5,0.4,-10.9,-33.3,10.1,0.648792993,-0.139927366,-0.635090182,-0.395062105
41,105466,683610,0.94,0.323,0.153,3.1,0.6,0.4,-10.9,-34.5,10,0.648823511,-0.139866329,-0.635120701,-0.395001068
42,107586,683610,0.936,0.327,0.153,3.1,0.7,0.3,-10.9,-34.5,10,0.64885403,-0.13983581,-0.635120701,-0.39497055
43,112228,683610,0.936,0.327,0.153,3.1,0.7,0.3,-10.9,-34.5,10,0.64885403,-0.13983581,-0.635120701,-0.39497055
44,114502,683620,0.94,0.335,0.153,3.3,0.8,0.2,-10.9,-34.5,10,0.648884548,-0.139744255,-0.635151219,-0.394878994
45,116183,683620,0.94,0.331,0.149,3.4,0.8,0.1,-10.5,-33.4,9.9,0.648915067,-0.139683218,-0.635181738,-0.394817957
46,118563,683620,0.94,0.335,0.153,3.4,0.9,-0.1,-10.5,-33.4,9.9,0.648945585,-0.139622181,-0.635212256,-0.394787439
47,120567,683620,0.944,0.335,0.149,3.4,1,-0.3,-10.5,-33.4,9.9,0.648976104,-0.139561144,-0.635212256,-0.394726402
48,122545,683630,0.944,0.331,0.149,3.3,1.1,-0.5,-10.5,-33.4,9.9,0.648976104,-0.139500107,-0.635242775,-0.394695883
49,126283,683630,0.944,0.327,0.153,3.2,1.2,-0.6,-10.7,-33.3,9.9,0.649006623,-0.139408551,-0.635242775,-0.394665365
50,127941,683630,0.944,0.331,0.149,3.1,1.3,-0.6,-10.7,-33.3,9.9,0.649037141,-0.139347514,-0.635242775,-0.394634846
51,130391,683630,0.944,0.327,0.145,2.9,1.3,-0.7,-10.7,-33.3,9.9,0.649037141,-0.139286477,-0.635273293,-0.394604328
52,132647,683640,0.944,0.327,0.149,2.8,1.4,-0.9,-10.7,-33.3,9.9,0.64906766,-0.13922544,-0.635273293,-0.394604328
53,135104,683640,0.948,0.323,0.149,2.7,1.5,-1.1,-10.6,-33.2,10.4,0.649098178,-0.139164403,-0.635273293,-0.394573809
54,139549,683640,0.944,0.323,0.149,2.6,1.4,-1.2,-10.6,-33.2,10.4,0.649098178,-0.139103366,-0.635273293,-0.394573809
55,141773,683640,0.952,0.319,0.149,2.4,1.2,-1.3,-10.6,-33.2,10.4,0.649128697,-0.139042329,-0.635273293,-0.394543291
56,144007,683650,0.948,0.32,0.149,2.2,1.1,-1.3,-10.6,-33.2,10.4,0.649128697,-0.138981292,-0.635303812,-0.394543291
57,146307,683650,0.948,0.32,0.149,2.2,1.1,-1.3,-10.6,-33.2,10.4,0.649128697,-0.138981292,-0.635303812,-0.394543291
58,148603,683650,0.948,0.32,0.145,1.5,0.7,-1.2,-10.5,-33.2,10.1,0.649128697,-0.138889737,-0.635364849,-0.394482253
59,150496,683650,0.952,0.312,0.149,1.2,0.8,-1.2,-10.5,-33.2,10.1,0.649128697,-0.138889737,-0.635364849,-0.394482253
60,152855,683660,0.948,0.316,0.153,1,0.9,-1.1,-10.5,-33.2,10.1,0.649128697,-0.1388287,-0.635364849,-0.394482253
61,155074,683660,0.948,0.312,0.153,0.8,0.9,-1.2,-10.4,-34.2,9.9,0.649128697,-0.138798181,-0.635364849,-0.394512772
62,157717,683660,0.952,0.312,0.153,0.6,0.9,-1.2,-10.4,-34.2,9.9,0.649128697,-0.138767663,-0.635364849,-0.394512772
63,161005,683660,0.952,0.312,0.153,0.6,0.9,-1.2,-10.4,-34.2,9.9,0.649128697,-0.138767663,-0.635364849,-0.394512772
64,162512,683670,0.956,0.308,0.153,0.1,0.5,-1,-10.4,-34.2,9.9,0.649128697,-0.138706626,-0.63533433,-0.394543291
65,165537,683670,0.952,0.312,0.153,0,0.4,-0.9,-10.6,-33.5,10.1,0.649128697,-0.138706626,-0.63533433,-0.394543291
66,167720,683670,0.952,0.312,0.149,-0.1,0.3,-0.9,-10.6,-33.5,10.1,0.649128697,-0.138676107,-0.63533433,-0.394573809
67,170001,683670,0.948,0.308,0.149,-0.3,0.3,-1.1,-10.6,-33.5,10.1,0.649128697,-0.138676107,-0.63533433,-0.394604328
68,172751,683680,0.952,0.312,0.149,-0.4,0.4,-1.2,-10.6,-33.5,10.1,0.649128697,-0.138645589,-0.63533433,-0.394604328
69,176932,683680,0.944,0.312,0.157,-0.4,0.4,-1.3,-10.8,-33.7,10.1,0.649098178,-0.138645589,-0.63533433,-0.394634846
70,178969,683680,0.944,0.308,0.153,-0.4,0.4,-1.5,-10.8,-33.7,10.1,0.649098178,-0.13861507,-0.635303812,-0.394665365
71,180366,683680,0.944,0.304,0.149,-0.5,0.4,-1.5,-10.8,-33.7,10.1,0.649098178,-0.13861507,-0.635303812,-0.394695883
72,183378,683690,0.944,0.304,0.149,-0.5,0.4,-1.5,-10.8,-33.7,10.1,0.649098178,-0.138584552,-0.635303812,-0.394726402
73,186283,683690,0.94,0.304,0.153,-0.5,0.4,-1.4,-10.2,-33.2,9.7,0.64906766,-0.138584552,-0.635303812,-0.39475692
74,187843,683690,0.94,0.304,0.145,-0.6,0.6,-1.3,-10.2,-33.2,9.7,0.64906766,-0.138554033,-0.635273293,-0.394787439
75,190019,683690,0.936,0.304,0.145,-0.5,0.8,-1.2,-10.2,-33.2,9.7,0.64906766,-0.138554033,-0.635273293,-0.394817957
76,192565,683700,0.936,0.3,0.149,-0.4,0.9,-1.2,-10.2,-33.2,9.7,0.64906766,-0.138523515,-0.635242775,-0.394848476
77,195013,683700,0.936,0.3,0.149,-0.4,0.9,-1.2,-10.2,-33.2,9.7,0.64906766,-0.138523515,-0.635242775,-0.394848476
78,197781,683700,0.936,0.304,0.149,-0.2,0.9,-1.1,-11,-33.6,10.2,0.649098178,-0.13861507,-0.635242775,-0.394787439
79,200425,683700,0.936,0.308,0.145,-0.2,0.9,-1,-11,-33.6,10.2,0.649098178,-0.13861507,-0.635242775,-0.394817957
80,202552,683710,0.936,0.308,0.145,-0.2,0.9,-1,-11,-33.6,10.2,0.649098178,-0.13861507,-0.635242775,-0.394817957
81,205656,683710,0.936,0.312,0.149,0,0.7,-0.7,-10.9,-33.9,10.3,0.649128697,-0.138554033,-0.635212256,-0.394817957
82,209050,683710,0.936,0.316,0.153,0.3,0.7,-0.6,-10.9,-33.9,10.3,0.649128697,-0.138554033,-0.635212256,-0.394848476
83,211376,683710,0.932,0.32,0.153,0.4,0.5,-0.5,-10.9,-33.9,10.3,0.649128697,-0.138523515,-0.635212256,-0.394848476
84,213652,683720,0.936,0.32,0.149,0.6,0.4,-0.3,-10.9,-33.9,10.3,0.649128697,-0.138523515,-0.635212256,-0.394848476
85,215277,683720,0.932,0.324,0.149,0.6,0.4,-0.1,-10.2,-33.8,10.2,0.649159215,-0.138492996,-0.635212256,-0.394848476
86,219819,683720,0.936,0.327,0.157,0.6,0.5,0,-10.2,-33.8,10.2,0.649159215,-0.138492996,-0.635212256,-0.394817957
87,220017,683720,0.936,0.331,0.153,0.7,0.6,0,-10.2,-33.8,10.2,0.649159215,-0.138462477,-0.635212256,-0.394817957
88,222948,683730,0.936,0.327,0.153,0.8,0.7,-0.1,-10.2,-33.8,10.2,0.649189734,-0.138431959,-0.635181738,-0.394817957
89,226640,683730,0.94,0.331,0.157,0.9,0.8,-0.1,-10.1,-33.6,10.3,0.649189734,-0.138431959,-0.635181738,-0.394787439
90,227914,683730,0.936,0.327,0.153,0.9,0.9,-0.1,-10.1,-33.6,10.3,0.649189734,-0.13840144,-0.635181738,-0.394787439
91,231823,683730,0.936,0.335,0.153,1,1,-0.2,-10.1,-33.6,10.3,0.649220252,-0.138370922,-0.635181738,-0.394787439
92,233375,683740,0.94,0.327,0.149,1.1,1,-0.3,-10.1,-33.6,10.3,0.649220252,-0.138340403,-0.635181738,-0.394787439
93,235509,683740,0.94,0.327,0.153,1.2,0.9,-0.5,-10.6,-33.7,10.2,0.649250771,-0.138309885,-0.635181738,-0.394787439
94,237642,683740,0.94,0.327,0.149,1.3,0.9,-0.7,-10.6,-33.7,10.2,0.649250771,-0.138279366,-0.635181738,-0.39475692
95,240010,683740,0.944,0.323,0.157,1.4,0.9,-0.9,-10.6,-33.7,10.2,0.649281289,-0.138218329,-0.635181738,-0.39475692
96,242919,683750,0.948,0.323,0.153,1.5,0.9,-0.9,-10.6,-33.7,10.2,0.649281289,-0.138187811,-0.635181738,-0.39475692
97,246550,683750,0.948,0.323,0.153,1.5,0.9,-0.9,-10.6,-33.7,10.2,0.649281289,-0.138187811,-0.635181738,-0.39475692
98,247982,683750,0.944,0.323,0.153,1.3,1,-0.9,-10.7,-33.4,10.1,0.649281289,-0.138096255,-0.635212256,-0.39475692
99,251167,683750,0.944,0.319,0.153,1.1,1,-0.9,-10.7,-33.4,10.1,0.649281289,-0.138065737,-0.635212256,-0.39475692
100,252703,683760,0.952,0.319,0.149,0.9,0.9,-0.9,-10.7,-33.4,10.1,0.649311808,-0.138035218,-0.635212256,-0.39475692
101,255055,683760,0.944,0.323,0.149,0.8,0.8,-0.9,-10.9,-33.8,10.2,0.649311808,-0.1380047,-0.635212256,-0.39475692
102,258134,683760,0.952,0.319,0.153,0.5,0.8,-0.9,-10.9,-33.8,10.2,0.649311808,-0.137974181,-0.635181738,-0.39475692
103,260303,683760,0.952,0.319,0.153,0.5,0.8,-0.9,-10.9,-33.8,10.2,0.649311808,-0.137974181,-0.635181738,-0.39475692
104,263542,683770,0.944,0.312,0.153,0,0.7,-0.8,-10.9,-33.8,10.2,0.649311808,-0.137913144,-0.635181738,-0.394787439
105,265592,683770,0.948,0.312,0.145,-0.1,0.6,-0.8,-11.1,-33.7,10.5,0.649311808,-0.137913144,-0.635181738,-0.394787439
106,267762,683770,0.952,0.308,0.149,-0.3,0.5,-0.8,-11.1,-33.7,10.5,0.649311808,-0.137913144,-0.635151219,-0.394817957
107,271737,683770,0.948,0.308,0.153,-0.5,0.4,-0.7,-11.1,-33.7,10.5,0.649311808,-0.137882626,-0.635151219,-0.394848476
108,274067,683780,0.952,0.315,0.153,-0.8,0.2,-0.6,-11.1,-33.7,10.5,0.649311808,-0.137882626,-0.635151219,-0.394848476
109,276638,683780,0.948,0.312,0.149,-1,0,-0.5,-10.6,-33.9,10.1,0.649311808,-0.137913144,-0.635151219,-0.394878994
110,278873,683780,0.944,0.308,0.145,-1.3,0,-0.5,-10.6,-33.9,10.1,0.649281289,-0.137913144,-0.635120701,-0.394909513
111,281233,683780,0.944,0.304,0.153,-1.5,-0.1,-0.5,-10.6,-33.9,10.1,0.649281289,-0.137913144,-0.635120701,-0.394940031
112,283074,683790,0.948,0.308,0.149,-1.7,-0.1,-0.5,-10.6,-33.9,10.1,0.649281289,-0.137913144,-0.635120701,-0.39497055
113,285300,683790,0.944,0.304,0.149,-1.7,-0.2,-0.3,-10.8,-33.7,10.2,0.649250771,-0.137974181,-0.635090182,-0.395001068
114,287680,683790,0.944,0.308,0.149,-1.8,-0.2,-0.2,-10.8,-33.7,10.2,0.649250771,-0.1380047,-0.635090182,-0.395001068
115,292014,683790,0.944,0.308,0.149,-1.8,-0.2,-0.1,-10.8,-33.7,10.2,0.649250771,-0.1380047,-0.635059664,-0.395062105
116,294227,683800,0.944,0.304,0.149,-1.8,-0.2,-0.1,-10.8,-33.7,10.2,0.649220252,-0.138035218,-0.635059664,-0.395062105
117,296476,683800,0.944,0.304,0.149,-1.8,-0.2,-0.1,-10.8,-33.7,10.2,0.649220252,-0.138035218,-0.635059664,-0.395062105
118,298681,683800,0.948,0.312,0.149,-1.7,-0.2,-0.3,-10.6,-33.8,9.8,0.649250771,-0.138279366,-0.635059664,-0.39497055
119,300580,683800,0.94,0.312,0.149,-1.6,-0.2,-0.3,-10.6,-33.8,9.8,0.649220252,-0.138309885,-0.635059664,-0.395001068
120,302869,683810,0.94,0.316,0.153,-1.6,-0.2,-0.3,-10.6,-33.8,9.8,0.649220252,-0.138309885,-0.635029145,-0.395001068
121,305487,683810,0.936,0.308,0.149,-1.5,-0.2,-0.2,-10.9,-34,10.1,0.649220252,-0.138340403,-0.635029145,-0.395062105
122,308552,683810,0.936,0.312,0.153,-1.5,-0.1,-0.2,-10.9,-34,10.1,0.649189734,-0.138370922,-0.635029145,-0.395062105
123,310420,683810,0.936,0.312,0.153,-1.5,-0.1,-0.2,-10.9,-34,10.1,0.649189734,-0.138370922,-0.635029145,-0.395062105
124,312768,683820,0.94,0.316,0.149,-1.3,-0.2,-0.4,-10.9,-34,10.1,0.649189734,-0.13840144,-0.634998627,-0.395123142
125,315116,683820,0.94,0.312,0.157,-1.2,-0.1,-0.6,-10.8,-33.7,10.3,0.649159215,-0.13840144,-0.634998627,-0.395153661
126,319595,683820,0.936,0.32,0.153,-1.1,-0.2,-0.6,-10.8,-33.7,10.3,0.649159215,-0.13840144,-0.634998627,-0.395184179
127,321950,683820,0.936,0.316,0.149,-1,-0.1,-0.7,-10.8,-33.7,10.3,0.649159215,-0.138431959,-0.634998627,-0.395214698
128,324125,683830,0.94,0.316,0.153,-0.9,0,-0.5,-10.8,-33.7,10.3,0.649128697,-0.138431959,-0.634968108,-0.395214698
129,326289,683830,0.94,0.32,0.149,-0.9,0,-0.4,-10.8,-34.3,10.1,0.649128697,-0.138431959,-0.634968108,-0.395245216
130,328585,683830,0.94,0.316,0.157,-0.9,0.2,-0.3,-10.8,-34.3,10.1,0.649128697,-0.138431959,-0.634968108,-0.395245216
131,330942,683830,0.944,0.319,0.153,-0.8,0.4,-0.3,-10.8,-34.3,10.1,0.649128697,-0.138431959,-0.63493759,-0.395275735
132,332816,683840,0.944,0.323,0.153,-0.7,0.4,-0.4,-10.8,-34.3,10.1,0.649128697,-0.138431959,-0.63493759,-0.395306253
133,335934,683840,0.94,0.323,0.153,-0.5,0.4,-0.3,-11,-34.1,10.4,0.649128697,-0.138431959,-0.63493759,-0.395306253
134,338408,683840,0.944,0.319,0.153,-0.5,0.4,-0.2,-11,-34.1,10.4,0.649128697,-0.138431959,-0.634907071,-0.395336772
135,340296,683840,0.94,0.316,0.153,-0.4,0.5,-0.2,-11,-34.1,10.4,0.649128697,-0.138431959,-0.634907071,-0.395336772
136,343540,683850,0.94,0.316,0.149,-0.4,0.5,-0.2,-11,-34.1,10.4,0.649128697,-0.138431959,-0.634907071,-0.395336772
137,345016,683850,0.94,0.316,0.149,-0.4,0.5,-0.2,-11,-34.1,10.4,0.649128697,-0.138431959,-0.634907071,-0.395336772
138,347561,683850,0.944,0.316,0.157,-0.4,0.5,-0.2,-10.6,-33.9,10,0.649159215,-0.138492996,-0.634907071,-0.395306253
139,351107,683850,0.944,0.32,0.149,-0.4,0.4,-0.3,-10.6,-33.9,10,0.649159215,-0.138492996,-0.634907071,-0.395306253
140,353565,683860,0.944,0.316,0.157,-0.3,0.4,-0.4,-10.6,-33.9,10,0.649159215,-0.138492996,-0.634876553,-0.395336772
141,355417,683860,0.948,0.316,0.153,-0.3,0.4,-0.4,-10.9,-33.6,10.2,0.649159215,-0.138492996,-0.634876553,-0.395336772
142,357730,683860,0.94,0.32,0.153,-0.4,0.4,-0.4,-10.9,-33.6,10.2,0.649159215,-0.138492996,-0.634876553,-0.39536729
143,361061,683860,0.94,0.32,0.153,-0.4,0.4,-0.4,-10.9,-33.6,10.2,0.649159215,-0.138492996,-0.634876553,-0.39536729
144,363142,683870,0.94,0.32,0.153,-0.4,0.4,-0.4,-10.9,-33.6,10.2,0.649159215,-0.138492996,-0.634876553,-0.39536729
145,365310,683870,0.94,0.316,0.153,-0.9,0.5,-0.1,-10.7,-34.2,10.2,0.649159215,-0.138492996,-0.634815516,-0.395397809
146,368543,683870,0.944,0.316,0.149,-1,0.4,-0.1,-10.7,-34.2,10.2,0.649159215,-0.138492996,-0.634815516,-0.395428327
147,370545,683870,0.94,0.316,0.149,-1.1,0.2,0,-10.7,-34.2,10.2,0.649159215,-0.138523515,-0.634784997,-0.395428327
148,373867,683880,0.944,0.319,0.157,-1.2,0.1,0,-10.7,-34.2,10.2,0.649159215,-0.138523515,-0.634784997,-0.395458846
149,376135,683880,0.94,0.32,0.149,-1.2,0,0,-10.9,-33.9,9.9,0.649159215,-0.138554033,-0.634784997,-0.395458846
150,378430,683880,0.944,0.319,0.153,-1.2,0,0,-10.9,-33.9,9.9,0.649159215,-0.138554033,-0.634754479,-0.395489364
151,380889,683880,0.944,0.312,0.153,-1.3,-0.2,0,-10.9,-33.9,9.9,0.649159215,-0.138584552,-0.634754479,-0.395519883
152,383003,683890,0.944,0.319,0.153,-1.6,0,0,-10.9,-33.9,9.9,0.649159215,-0.13861507,-0.634754479,-0.395519883
153,385283,683890,0.944,0.316,0.149,-1.9,-0.1,0,-10.8,-34.1,10.2,0.649128697,-0.138645589,-0.63472396,-0.395550401
154,388697,683890,0.944,0.316,0.149,-2.1,-0.2,0,-10.8,-34.1,10.2,0.649128697,-0.138676107,-0.63472396,-0.39558092
155,390498,683890,0.944,0.316,0.153,-2.2,-0.3,0.1,-10.8,-34.1,10.2,0.649128697,-0.138706626,-0.634693442,-0.395611438
156,392762,683900,0.944,0.32,0.145,-2.1,-0.4,0.2,-10.8,-34.1,10.2,0.649098178,-0.138737144,-0.634693442,-0.395641957
157,396050,683900,0.944,0.32,0.145,-2.1,-0.4,0.2,-10.8,-34.1,10.2,0.649098178,-0.138737144,-0.634693442,-0.395641957
158,398134,683900,0.944,0.323,0.149,-2.2,-0.3,0.4,-10.4,-34,10.2,0.64906766,-0.138950774,-0.63472396,-0.395550401
159,400308,683900,0.944,0.32,0.145,-2.2,-0.3,0.4,-10.4,-34,10.2,0.64906766,-0.139011811,-0.63472396,-0.39558092
160,403509,683910,0.944,0.32,0.149,-2.1,-0.3,0.3,-10.4,-34,10.2,0.649037141,-0.139042329,-0.634693442,-0.395611438
161,406675,683910,0.944,0.323,0.149,-2.1,-0.3,0.5,-10.5,-33.3,10.1,0.649037141,-0.139072848,-0.634693442,-0.395641957
162,408908,683910,0.944,0.327,0.149,-2.1,-0.3,0.5,-10.5,-33.3,10.1,0.649037141,-0.139103366,-0.634662923,-0.395641957
163,411180,683910,0.944,0.327,0.149,-2.1,-0.3,0.5,-10.5,-33.3,10.1,0.649037141,-0.139103366,-0.634662923,-0.395641957
164,413401,683920,0.944,0.323,0.153,-2.4,-0.4,0.3,-10.5,-33.3,10.1,0.649006623,-0.139194922,-0.634632405,-0.395702994
165,415381,683920,0.94,0.32,0.145,-2.5,-0.4,0.3,-11.1,-34.2,10,0.649006623,-0.139255959,-0.634632405,-0.395733512
166,417715,683920,0.944,0.32,0.149,-2.6,-0.4,0.3,-11.1,-34.2,10,0.649006623,-0.139286477,-0.634601886,-0.395764031
167,420594,683920,0.944,0.323,0.149,-2.6,-0.5,0.3,-11.1,-34.2,10,0.648976104,-0.139347514,-0.634571368,-0.395794549
168,423825,683930,0.94,0.32,0.149,-2.5,-0.4,0.2,-11.1,-34.2,10,0.648976104,-0.139378033,-0.634571368,-0.395825068
169,426062,683930,0.944,0.319,0.153,-2.3,-0.3,0.2,-10.9,-34.6,10.1,0.648976104,-0.13943907,-0.634540849,-0.395855586
170,429036,683930,0.94,0.32,0.153,-2.2,-0.2,0.2,-10.9,-34.6,10.1,0.648945585,-0.139469588,-0.634540849,-0.395886105
171,431295,683930,0.944,0.319,0.153,-2.1,-0.2,0.3,-10.9,-34.6,10.1,0.648945585,-0.139500107,-0.634510331,-0.395916623
172,432645,683940,0.944,0.316,0.153,-2.2,-0.2,0.3,-10.9,-34.6,10.1,0.648945585,-0.139530625,-0.634510331,-0.395916623
173,435532,683940,0.944,0.32,0.149,-2.2,-0.2,0.3,-10.7,-34.1,9.6,0.648945585,-0.139591662,-0.634479812,-0.395947142
174,438781,683940,0.944,0.316,0.149,-2.1,-0.2,0.1,-10.7,-34.1,9.6,0.648915067,-0.139622181,-0.634479812,-0.39597766
175,440165,683940,0.94,0.312,0.153,-2,0,0.1,-10.7,-34.1,9.6,0.648915067,-0.139652699,-0.634449293,-0.396008179
176,443412,683950,0.94,0.312,0.153,-2,0,0.1,-10.7,-34.1,9.6,0.648915067,-0.139652699,-0.634449293,-0.396008179
177,446301,683950,0.944,0.312,0.153,-1.9,-0.2,0.1,-10.7,-34.1,9.6,0.648915067,-0.139683218,-0.634449293,-0.396038697
178,447758,683950,0.948,0.312,0.157,-1.9,-0.2,0,-10.8,-34.5,10.2,0.648884548,-0.139866329,-0.634449293,-0.39597766
179,450988,683950,0.948,0.312,0.157,-2.1,-0.2,0,-10.8,-34.5,10.2,0.648884548,-0.139866329,-0.634449293,-0.396008179
180,452609,683960,0.948,0.312,0.153,-2.2,-0.2,0,-10.8,-34.5,10.2,0.648884548,-0.139927366,-0.634418775,-0.396038697
181,456342,683960,0.944,0.312,0.157,-2.2,-0.2,0.1,-10.9,-33.3,10.6,0.64885403,-0.139957884,-0.634418775,-0.396069216
182,457871,683960,0.944,0.316,0.153,-2.1,-0.2,0.2,-10.9,-33.3,10.6,0.64885403,-0.139988403,-0.634388256,-0.396069216
183,461982,683960,0.948,0.312,0.157,-2.1,-0.2,0.2,-10.9,-33.3,10.6,0.64885403,-0.14004944,-0.634388256,-0.396099734
184,462582,683970,0.944,0.312,0.153,-2.1,-0.3,0.1,-10.9,-33.3,10.6,0.648823511,-0.140079958,-0.634357738,-0.396130253
185,466837,683970,0.944,0.316,0.157,-2.1,-0.3,0.2,-11,-34.3,9.7,0.648823511,-0.140110477,-0.634357738,-0.396160772
186,468350,683970,0.948,0.311,0.161,-2.1,-0.2,0.1,-11,-34.3,9.7,0.648823511,-0.140140996,-0.634327219,-0.39619129
187,470961,683970,0.948,0.312,0.157,-2.1,-0.1,0.1,-11,-34.3,9.7,0.648823511,-0.140171514,-0.634327219,-0.396221809
188,472798,683980,0.948,0.315,0.157,-2.1,0,0.1,-11,-34.3,9.7,0.648792993,-0.140202033,-0.634296701,-0.396252327
189,476527,683980,0.944,0.312,0.157,-2.3,0,0.2,-10.8,-34.1,9.7,0.648792993,-0.14026307,-0.634266182,-0.396282846
190,479052,683980,0.944,0.312,0.157,-2.4,-0.1,0.3,-10.8,-34.1,9.7,0.648792993,-0.140293588,-0.634266182,-0.396282846
191,480671,683980,0.944,0.312,0.157,-2.4,-0.1,0.4,-10.8,-34.1,9.7,0.648792993,-0.140324107,-0.634235664,-0.396313364
192,482947,683990,0.944,0.316,0.153,-2.4,-0.2,0.5,-10.8,-34.1,9.7,0.648792993,-0.140385144,-0.634205145,-0.396343883
193,485328,683990,0.94,0.316,0.157,-2.3,-0.2,0.5,-10.8,-34.6,9.9,0.648762474,-0.140415662,-0.634205145,-0.396374401
194,489148,683990,0.94,0.32,0.153,-2.3,-0.2,0.5,-10.8,-34.6,9.9,0.648762474,-0.140476699,-0.634174627,-0.39640492
195,491248,683990,0.94,0.323,0.157,-2.3,-0.1,0.5,-10.8,-34.6,9.9,0.648762474,-0.140507218,-0.634174627,-0.396435438
196,493465,684000,0.944,0.319,0.157,-2.2,-0.1,0.6,-10.8,-34.6,9.9,0.648762474,-0.140537736,-0.634144108,-0.396435438
197,496404,684000,0.944,0.319,0.157,-2.2,-0.1,0.6,-10.8,-34.6,9.9,0.648762474,-0.140537736,-0.634144108,-0.396435438
198,497812,684000,0.94,0.323,0.153,-2.2,-0.2,0.8,-10.8,-34.7,9.6,0.648762474,-0.14065981,-0.63411359,-0.396465957
199,501395,684000,0.94,0.323,0.161,-2.3,-0.2,0.8,-10.8,-34.7,9.6,0.648762474,-0.140720847,-0.634083071,-0.396465957
200,503138,684010,0.944,0.327,0.157,-2.3,-0.2,0.8,-10.8,-34.7,9.6,0.648762474,-0.140751366,-0.634052553,-0.396496475
201,505307,684010,0.94,0.323,0.161,-2.2,-0.3,0.8,-11,-33.1,10.6,0.648762474,-0.140812403,-0.634052553,-0.396496475
202,509491,684010,0.94,0.327,0.165,-2.1,-0.4,0.8,-11,-33.1,10.6,0.648762474,-0.140842921,-0.634022034,-0.396526994
203,511983,684010,0.94,0.327,0.157,-2.1,-0.3,0.9,-11,-33.1,10.6,0.648731956,-0.140903958,-0.634022034,-0.396526994
204,514292,684020,0.94,0.323,0.157,-2.1,-0.2,0.8,-11,-33.1,10.6,0.648731956,-0.140934477,-0.633991516,-0.396557512
205,516512,684020,0.94,0.327,0.157,-2.1,-0.1,0.7,-10.4,-34.4,9.5,0.648731956,-0.140995514,-0.633991516,-0.396557512
206,518193,684020,0.936,0.331,0.157,-2.1,-0.1,0.7,-10.4,-34.4,9.5,0.648731956,-0.141026032,-0.633960997,-0.396588031
207,520288,684020,0.94,0.327,0.161,-2,-0.1,0.6,-10.4,-34.4,9.5,0.648731956,-0.141056551,-0.633960997,-0.396618549
208,522718,684030,0.94,0.335,0.157,-1.9,-0.1,0.5,-10.4,-34.4,9.5,0.648731956,-0.141117588,-0.633930479,-0.396618549
209,525169,684030,0.94,0.331,0.161,-1.8,-0.2,0.6,-10.6,-34.6,9.1,0.648731956,-0.141148106,-0.63389996,-0.396649068
210,529445,684030,0.936,0.335,0.157,-1.8,-0.3,0.6,-10.6,-34.6,9.1,0.648731956,-0.141178625,-0.63389996,-0.396649068
211,531814,684030,0.936,0.331,0.161,-1.7,-0.4,0.6,-10.6,-34.6,9.1,0.648701437,-0.141209143,-0.63389996,-0.396679586
212,534163,684040,0.936,0.335,0.161,-1.8,-0.6,0.4,-10.6,-34.6,9.1,0.648701437,-0.14127018,-0.633869442,-0.396679586
213,536251,684040,0.936,0.331,0.165,-1.8,-0.7,0.2,-10.5,-34.5,9.6,0.648701437,-0.141300699,-0.633869442,-0.396710105
214,538676,684040,0.94,0.335,0.161,-1.8,-0.7,0.1,-10.5,-34.5,9.6,0.648670919,-0.141331217,-0.633869442,-0.396740623
215,540317,684040,0.936,0.335,0.169,-1.8,-0.7,0.1,-10.5,-34.5,9.6,0.648670919,-0.141361736,-0.633869442,-0.396740623
216,544473,684050,0.94,0.331,0.165,-1.9,-0.8,0.1,-10.5,-34.5,9.6,0.6486404,-0.141392254,-0.633869442,-0.396771142
217,546790,684050,0.94,0.331,0.165,-1.9,-0.8,0.1,-10.5,-34.5,9.6,0.6486404,-0.141392254,-0.633869442,-0.396771142
218,548988,684050,0.936,0.335,0.165,-1.9,-1,0,-11,-34.7,9,0.648609882,-0.141300699,-0.633777886,-0.396954253
219,551060,684050,0.94,0.327,0.161,-1.8,-1,0,-11,-34.7,9,0.648579363,-0.141361736,-0.633777886,-0.396954253
220,553761,684060,0.94,0.327,0.157,-1.8,-0.9,-0.1,-11,-34.7,9,0.648579363,-0.141392254,-0.633777886,-0.39701529
221,556271,684060,0.936,0.331,0.157,-1.9,-0.8,0,-10.7,-32.9,10.8,0.648548845,-0.141422773,-0.633777886,-0.397045808
222,557884,684060,0.94,0.335,0.165,-1.9,-0.8,0,-10.7,-32.9,10.8,0.648548845,-0.141453291,-0.633777886,-0.397076327
223,560349,684060,0.944,0.339,0.157,-1.9,-0.8,0,-10.7,-32.9,10.8,0.648518326,-0.14148381,-0.633777886,-0.397106845
224,563565,684070,0.936,0.335,0.161,-1.9,-1.1,0,-10.7,-32.9,10.8,0.648487808,-0.141514328,-0.633777886,-0.397106845
225,565553,684070,0.936,0.339,0.165,-1.8,-1.3,0,-10.9,-34.9,9,0.648457289,-0.141544847,-0.633777886,-0.397137364
226,569105,684070,0.936,0.339,0.165,-1.8,-1.5,0,-10.9,-34.9,9,0.648457289,-0.141605884,-0.633777886,-0.397167882
227,570509,684070,0.936,0.339,0.161,-1.9,-1.6,0.1,-10.9,-34.9,9,0.648426771,-0.141636402,-0.633777886,-0.397167882
228,572947,684080,0.944,0.339,0.165,-2.1,-1.7,0,-10.9,-34.9,9,0.648396252,-0.141697439,-0.633777886,-0.397198401
229,576323,684080,0.936,0.347,0.161,-2.2,-1.7,0.1,-10.5,-34.6,9.2,0.648365734,-0.141727958,-0.633777886,-0.397228919
230,579001,684080,0.94,0.343,0.157,-2.4,-1.7,0.2,-10.5,-34.6,9.2,0.648335215,-0.141788995,-0.633777886,-0.397259438
231,581042,684080,0.94,0.351,0.161,-2.6,-1.8,0.3,-10.5,-34.6,9.2,0.648304697,-0.141819514,-0.633777886,-0.397289956
232,583001,684090,0.94,0.355,0.165,-2.7,-1.8,0.3,-10.5,-34.6,9.2,0.648274178,-0.141911069,-0.633777886,-0.397289956
233,585251,684090,0.94,0.351,0.161,-2.9,-1.8,0.2,-10.8,-34.4,8.9,0.64824366,-0.141972106,-0.633777886,-0.397320475
234,587790,684090,0.936,0.355,0.161,-3.2,-1.6,0,-10.8,-34.4,8.9,0.648213141,-0.142033143,-0.633777886,-0.397381512
235,591543,684090,0.936,0.359,0.157,-3.9,-1.3,-0.6,-10.8,-34.4,8.9,0.648152104,-0.14209418,-0.633777886,-0.397442549
236,593654,684100,0.932,0.359,0.161,-4.7,-0.8,-1.3,-10.8,-34.4,8.9,0.648121586,-0.142155217,-0.633777886,-0.397503586
237,596051,684100,0.932,0.359,0.161,-4.7,-0.8,-1.3,-10.8,-34.4,8.9,0.648121586,-0.142155217,-0.633777886,-0.397503586
238,597812,684100,0.936,0.355,0.165,-6.6,0,-2.7,-10.7,-34.3,9.4,0.647907956,-0.141941588,-0.633716849,-0.397991882
239,600077,684100,0.928,0.355,0.165,-7.3,0.4,-3,-10.7,-34.3,9.4,0.647877438,-0.142002625,-0.633655812,-0.398144475
240,602549,684110,0.925,0.347,0.161,-7.8,0.8,-3.3,-10.7,-34.3,9.4,0.647816401,-0.142063662,-0.633594775,-0.398297067
241,607043,684110,0.928,0.355,0.165,-8.5,1.1,-3.6,-11.1,-33.1,10.9,0.647785882,-0.142124699,-0.63350322,-0.398480178
242,609289,684110,0.928,0.351,0.161,-8.9,1.2,-4,-11.1,-33.1,10.9,0.647724845,-0.142155217,-0.633442183,-0.398663289
243,611422,684110,0.925,0.347,0.169,-9.4,1.3,-4.3,-11.1,-33.1,10.9,0.647694327,-0.142246773,-0.633350627,-0.3988464
244,613716,684120,0.928,0.335,0.161,-9.7,1.3,-4.5,-11.1,-33.1,10.9,0.64763329,-0.14230781,-0.633259072,-0.39906003
245,615845,684120,0.928,0.335,0.165,-9.8,1.2,-4.7,-10.5,-34.3,8.9,0.647572253,-0.142368847,-0.633167516,-0.399273659
246,617972,684120,0.929,0.331,0.157,-9.8,0.9,-4.7,-10.5,-34.3,8.9,0.647511216,-0.142429884,-0.633075961,-0.399487289
247,620244,684120,0.928,0.331,0.161,-9.5,0.5,-4.2,-10.5,-34.3,8.9,0.647480697,-0.142490921,-0.633014924,-0.3996704
248,622704,684130,0.932,0.327,0.157,-8.8,0,-3.6,-10.5,-34.3,8.9,0.64741966,-0.142582476,-0.632923368,-0.399853511
249,626290,684130,0.94,0.331,0.165,-7.8,-0.6,-2.8,-10.4,-34.3,8.5,0.647358623,-0.142643513,-0.63289285,-0.399975585
250,628534,684130,0.94,0.335,0.169,-6.9,-1.2,-2.3,-10.4,-34.3,8.5,0.647297586,-0.142735069,-0.632862331,-0.400128178
251,630650,684130,0.94,0.331,0.165,-6.6,-1.7,-1.9,-10.4,-34.3,8.5,0.647236549,-0.142796106,-0.632831812,-0.400219733
252,632993,684140,0.944,0.327,0.169,-6.9,-1.8,-1.8,-10.4,-34.3,8.5,0.647175512,-0.142887661,-0.632801294,-0.400341807
253,635204,684140,0.94,0.327,0.169,-7.7,-1.8,-1.8,-10.5,-34.4,9,0.647083956,-0.143009735,-0.632770775,-0.400463881
254,638399,684140,0.944,0.327,0.176,-8.6,-1.8,-2,-10.5,-34.4,9,0.647022919,-0.143101291,-0.632709738,-0.400616474
255,640135,684140,0.94,0.331,0.169,-9.4,-1.9,-2.4,-10.5,-34.4,9,0.646961882,-0.143223365,-0.63267922,-0.400769066
256,643347,684150,0.94,0.327,0.18,-9.8,-2,-2.8,-10.5,-34.4,9,0.646870327,-0.143345439,-0.632618183,-0.400952177
257,645366,684150,0.94,0.327,0.18,-9.8,-2,-2.8,-10.5,-34.4,9,0.646870327,-0.143345439,-0.632618183,-0.400952177
258,647682,684150,0.936,0.315,0.176,-10.1,-2.2,-3.3,-10.6,-34.1,8.7,0.646748253,-0.14352855,-0.632435072,-0.401348918
259,650840,684150,0.932,0.319,0.177,-10.2,-2.3,-3.5,-10.6,-34.1,8.7,0.646656697,-0.143650624,-0.632404553,-0.401532029
260,652925,684160,0.928,0.315,0.18,-10.3,-2.3,-3.7,-10.6,-34.1,8.7,0.646534623,-0.14374218,-0.632343516,-0.401745659
261,655181,684160,0.925,0.315,0.181,-10.6,-2.3,-3.9,-10.6,-33.5,10.4,0.646443068,-0.143864254,-0.632312998,-0.40192877
262,658347,684160,0.925,0.315,0.181,-10.9,-2.4,-4,-10.6,-33.5,10.4,0.646351512,-0.143986328,-0.632251961,-0.402142399
263,660422,684160,0.925,0.311,0.184,-11.1,-2.5,-4,-10.6,-33.5,10.4,0.646229438,-0.144108402,-0.632190924,-0.40232551
264,662738,684170,0.921,0.311,0.184,-11.3,-2.6,-4.1,-10.6,-33.5,10.4,0.646137883,-0.144230476,-0.632160405,-0.40253914
265,665344,684170,0.913,0.312,0.189,-11.4,-2.6,-4.2,-10.8,-34.6,8.7,0.646015809,-0.14435255,-0.632099368,-0.40275277
266,668972,684170,0.917,0.315,0.181,-11.5,-2.6,-4.2,-10.8,-34.6,8.7,0.645893735,-0.144505142,-0.632038331,-0.402966399
267,671174,684170,0.921,0.311,0.188,-11.5,-2.6,-4.1,-10.8,-34.6,8.7,0.645802179,-0.144627216,-0.632007813,-0.403180029
268,673402,684180,0.917,0.315,0.181,-11.5,-2.6,-4,-10.8,-34.6,8.7,0.645680105,-0.14474929,-0.631946776,-0.403393658
269,675519,684180,0.913,0.323,0.189,-11.4,-2.4,-3.9,-10.4,-34.6,8.4,0.645588549,-0.144871364,-0.631885739,-0.403576769
270,677815,684180,0.913,0.319,0.185,-11.2,-2.2,-3.7,-10.4,-34.6,8.4,0.645496994,-0.145023957,-0.631824702,-0.403790399
271,679989,684180,0.917,0.327,0.189,-11,-2.1,-3.8,-10.4,-34.6,8.4,0.64537492,-0.145146031,-0.631794183,-0.40397351
272,682568,684190,0.913,0.331,0.185,-10.6,-2.1,-3.8,-10.4,-34.6,8.4,0.645283364,-0.145237587,-0.631733146,-0.40418714
273,687060,684190,0.917,0.331,0.189,-10.3,-2.1,-4,-11,-34.6,8.9,0.645191809,-0.145359661,-0.631672109,-0.404370251
274,689257,684190,0.913,0.331,0.185,-10.1,-2.1,-4.1,-11,-34.6,8.9,0.645100253,-0.145451216,-0.631641591,-0.404553362
275,691580,684190,0.917,0.339,0.185,-9.8,-2.1,-4.3,-11,-34.6,8.9,0.645008698,-0.14557329,-0.631580554,-0.404766991
276,693759,684200,0.921,0.339,0.185,-9.5,-2.1,-4.3,-11,-34.6,8.9,0.644886624,-0.145664846,-0.631550035,-0.404950102
277,695914,684200,0.921,0.339,0.185,-9.5,-2.1,-4.3,-11,-34.6,8.9,0.644886624,-0.145664846,-0.631550035,-0.404950102
278,697810,684200,0.924,0.351,0.189,-8.9,-2.1,-4.6,-10.8,-34.4,8.6,0.64476455,-0.145695364,-0.631366924,-0.405438398
279,699962,684200,0.924,0.351,0.185,-8.6,-2.1,-4.8,-10.8,-34.4,8.6,0.644672994,-0.145725883,-0.631336406,-0.405621509
280,703677,684210,0.932,0.347,0.185,-8.3,-2.1,-4.9,-10.8,-34.4,8.6,0.644581439,-0.145847957,-0.631305887,-0.405804621
281,705895,684210,0.924,0.351,0.189,-8.2,-2.2,-5,-10.6,-33.8,10.3,0.644459365,-0.145908994,-0.631275369,-0.405957213
282,707736,684210,0.928,0.354,0.189,-8.1,-2.4,-4.9,-10.6,-33.8,10.3,0.644367809,-0.145970031,-0.63124485,-0.406140324
283,711260,684210,0.928,0.354,0.189,-8.1,-2.4,-4.9,-10.6,-33.8,10.3,0.644367809,-0.145970031,-0.63124485,-0.406140324
284,713598,684220,0.924,0.358,0.189,-8.3,-2.9,-5.1,-10.6,-33.8,10.3,0.64415418,-0.146122623,-0.631214331,-0.406506546
285,715832,684220,0.928,0.358,0.189,-8.4,-3.2,-5.4,-10.1,-34.1,8.9,0.644032105,-0.14618366,-0.631214331,-0.406689657
286,717675,684220,0.92,0.362,0.197,-8.7,-3.6,-5.7,-10.1,-34.1,8.9,0.643879513,-0.146275216,-0.631183813,-0.406872768
287,721687,684220,0.928,0.358,0.197,-9.1,-4,-6,-10.1,-34.1,8.9,0.643757439,-0.146336253,-0.631183813,-0.407055879
288,723993,684230,0.924,0.354,0.201,-9.8,-4.4,-6.3,-10.1,-34.1,8.9,0.643604846,-0.146427808,-0.631183813,-0.407269509
289,726230,684230,0.917,0.355,0.193,-10.5,-4.7,-6.6,-10.3,-34.2,8.3,0.643452254,-0.146519364,-0.631183813,-0.407513657
290,728005,684230,0.917,0.347,0.205,-11.3,-5,-7.1,-10.3,-34.2,8.3,0.643269143,-0.146641438,-0.631183813,-0.407727287
291,730055,684230,0.909,0.339,0.201,-12.1,-5.2,-7.4,-10.3,-34.2,8.3,0.64311655,-0.146763512,-0.631153294,-0.408001953
292,732526,684240,0.905,0.335,0.201,-13,-5.5,-7.9,-10.3,-34.2,8.3,0.642902921,-0.146885586,-0.631153294,-0.40827662
293,736119,684240,0.909,0.335,0.205,-13.8,-5.7,-8.1,-10.2,-34.7,8.1,0.64271981,-0.14700766,-0.631122776,-0.408551286
294,737983,684240,0.905,0.331,0.212,-14.4,-5.9,-8.2,-10.2,-34.7,8.1,0.64250618,-0.147160253,-0.631122776,-0.408856471
295,740034,684240,0.901,0.331,0.209,-14.9,-6.2,-8.2,-10.2,-34.7,8.1,0.642323069,-0.147312845,-0.631092257,-0.409161657
296,742518,684250,0.897,0.331,0.209,-15.2,-6.4,-8,-10.2,-34.7,8.1,0.642109439,-0.147465438,-0.631061739,-0.409466842
297,747060,684250,0.897,0.331,0.209,-15.2,-6.4,-8,-10.2,-34.7,8.1,0.642109439,-0.147465438,-0.631061739,-0.409466842
298,749014,684250,0.897,0.323,0.201,-14.9,-7.1,-7.1,-9.8,-33.8,8.2,0.641834773,-0.147679067,-0.630817591,-0.410199286
299,751250,684250,0.901,0.327,0.205,-14.6,-7.5,-6.5,-9.8,-33.8,8.2,0.641590625,-0.147862178,-0.630817591,-0.410443434
300,753508,684260,0.901,0.331,0.209,-14.1,-7.8,-6.2,-9.8,-33.8,8.2,0.641407514,-0.148045289,-0.630817591,-0.410718101
301,755560,684260,0.901,0.331,0.205,-13.6,-8,-6,-10.1,-34.1,9.9,0.641193884,-0.148228401,-0.630817591,-0.410962249
302,757490,684260,0.901,0.335,0.201,-13.3,-8.2,-5.9,-10.1,-34.1,9.9,0.640980255,-0.148411512,-0.630848109,-0.411206397
303,761849,684260,0.897,0.339,0.197,-13,-8.5,-5.7,-10.1,-34.1,9.9,0.640797143,-0.148594623,-0.630848109,-0.411420026
304,764093,684270,0.897,0.343,0.197,-12.8,-8.8,-5.7,-10.1,-34.1,9.9,0.640552995,-0.148777734,-0.630878628,-0.411664174
305,766401,684270,0.893,0.347,0.201,-12.5,-9.1,-5.9,-10.1,-34.2,8.3,0.640339366,-0.148960845,-0.630909146,-0.411877804
306,767981,684270,0.897,0.351,0.201,-12.1,-9.4,-6.2,-10.1,-34.2,8.3,0.640125736,-0.149113437,-0.630970183,-0.412121952
307,770046,684270,0.893,0.355,0.201,-11.8,-9.8,-6.4,-10.1,-34.2,8.3,0.639881588,-0.149296548,-0.631000702,-0.412335582
308,772472,684280,0.893,0.355,0.197,-11.3,-10.3,-6.5,-10.1,-34.2,8.3,0.639667959,-0.149449141,-0.631092257,-0.412549211
309,776237,684280,0.893,0.355,0.197,-10.9,-10.6,-6.5,-9.8,-34.2,8.4,0.639423811,-0.149601733,-0.631153294,-0.412762841
310,777949,684280,0.893,0.367,0.197,-10.6,-11,-6.6,-9.8,-34.2,8.4,0.639149144,-0.149754326,-0.63124485,-0.412945952
311,779982,684280,0.893,0.363,0.201,-10.4,-11.3,-6.7,-9.8,-34.2,8.4,0.638904996,-0.149906919,-0.631305887,-0.413159581
312,782945,684290,0.893,0.367,0.186,-10.3,-11.6,-7,-9.8,-34.2,8.4,0.638660848,-0.150059511,-0.631397443,-0.413373211
313,785898,684290,0.889,0.375,0.194,-10.1,-11.7,-7.2,-9.9,-34.5,8.2,0.638386181,-0.150212104,-0.631519517,-0.413556322
314,788624,684290,0.885,0.375,0.19,-10.1,-11.9,-7.3,-9.9,-34.5,8.2,0.638142033,-0.150364696,-0.631611072,-0.413769951
315,790007,684290,0.889,0.378,0.19,-10.1,-12,-7.5,-9.9,-34.5,8.2,0.637867367,-0.150517289,-0.631702628,-0.413983581
316,792990,684300,0.881,0.375,0.194,-10.1,-12,-7.8,-9.9,-34.5,8.2,0.6375927,-0.150608844,-0.631794183,-0.414166692
317,795333,684300,0.881,0.375,0.194,-10.1,-12,-7.8,-9.9,-34.5,8.2,0.6375927,-0.150608844,-0.631794183,-0.414166692
318,798306,684300,0.885,0.383,0.186,-10.4,-12,-8.3,-9.5,-33.9,8.6,0.637073885,-0.150242622,-0.631733146,-0.415265358
319,800000,684300,0.885,0.379,0.186,-10.9,-12.1,-8.6,-9.5,-33.9,8.6,0.6367687,-0.150364696,-0.631824702,-0.415478988
320,802961,684310,0.881,0.375,0.186,-11.3,-12.3,-8.8,-9.5,-33.9,8.6,0.636494034,-0.150517289,-0.631916257,-0.415723136
321,805238,684310,0.881,0.371,0.186,-11.9,-12.4,-9,-9.8,-34.9,9.1,0.636188849,-0.150669881,-0.632007813,-0.415967284
322,808444,684310,0.881,0.371,0.186,-12.4,-12.6,-9.2,-9.8,-34.9,9.1,0.635883663,-0.150852992,-0.632099368,-0.416241951
323,809999,684310,0.881,0.371,0.186,-13.2,-12.6,-9.5,-9.8,-34.9,9.1,0.635608997,-0.151005585,-0.632190924,-0.416486099
324,812977,684320,0.885,0.363,0.186,-13.8,-12.6,-9.7,-9.8,-34.9,9.1,0.635273293,-0.151188696,-0.632282479,-0.416791284
325,815897,684320,0.889,0.363,0.193,-14.4,-12.7,-9.6,-9.8,-35,8.6,0.634968108,-0.151371807,-0.632343516,-0.417096469
326,818921,684320,0.889,0.363,0.19,-14.9,-12.8,-9.6,-9.8,-35,8.6,0.634662923,-0.151554918,-0.632435072,-0.417401654
327,820503,684320,0.897,0.367,0.189,-15.3,-12.9,-9.7,-9.8,-35,8.6,0.634327219,-0.151738029,-0.632496109,-0.417676321
328,822783,684330,0.897,0.363,0.186,-15.7,-13.2,-9.8,-9.8,-35,8.6,0.634022034,-0.151951659,-0.632587664,-0.418012024
329,826024,684330,0.897,0.367,0.189,-16,-13.4,-9.9,-9.4,-35.1,8.1,0.633686331,-0.152165288,-0.632648701,-0.418317209
330,828236,684330,0.901,0.371,0.189,-16.3,-13.7,-10,-9.4,-35.1,8.1,0.633350627,-0.152378918,-0.632709738,-0.418622394
331,831209,684330,0.905,0.374,0.193,-16.3,-14,-10,-9.4,-35.1,8.1,0.633014924,-0.152562029,-0.632801294,-0.418958098
332,832777,684340,0.905,0.374,0.182,-16.3,-14.2,-9.9,-9.4,-35.1,8.1,0.63267922,-0.152806177,-0.63289285,-0.419263283
333,835895,684340,0.909,0.382,0.186,-16.1,-14.5,-9.8,-9.4,-35,8.5,0.632312998,-0.153019807,-0.632953887,-0.419568468
334,839123,684340,0.909,0.386,0.19,-15.9,-14.7,-9.7,-9.4,-35,8.5,0.631977294,-0.153233436,-0.633045442,-0.419873653
335,840741,684340,0.917,0.394,0.193,-15.5,-14.8,-9.7,-9.4,-35,8.5,0.631641591,-0.153477584,-0.633167516,-0.420178838
336,843740,684350,0.913,0.398,0.19,-15.1,-14.9,-9.6,-9.4,-35,8.5,0.631275369,-0.153691214,-0.633259072,-0.420484024
337,845088,684350,0.913,0.398,0.19,-15.1,-14.9,-9.6,-9.4,-35,8.5,0.631275369,-0.153691214,-0.633259072,-0.420484024
338,847957,684350,0.92,0.413,0.19,-14.1,-15.3,-9.6,-9.6,-35.2,8.1,0.630603961,-0.153813288,-0.633381146,-0.421277505
339,851098,684350,0.917,0.417,0.19,-13.7,-15.2,-9.8,-9.6,-35.2,8.1,0.630237739,-0.153996399,-0.63350322,-0.421552171
340,852561,684360,0.92,0.421,0.19,-13.1,-15.3,-9.8,-9.6,-35.2,8.1,0.629871517,-0.15417951,-0.633625294,-0.421826838
341,855813,684360,0.92,0.433,0.186,-12.6,-15.4,-9.8,-9.6,-34.9,8.9,0.629566332,-0.154362621,-0.633747368,-0.422070986
342,857734,684360,0.917,0.445,0.186,-12,-15.4,-9.7,-9.6,-34.9,8.9,0.62920011,-0.154515213,-0.633869442,-0.422315134
343,861032,684360,0.913,0.445,0.186,-11.5,-15.3,-9.6,-9.6,-34.9,8.9,0.628864406,-0.154698325,-0.634022034,-0.422559282
344,864030,684370,0.917,0.453,0.182,-11.2,-15.4,-9.8,-9.6,-34.9,8.9,0.628528703,-0.154881436,-0.634144108,-0.42280343
345,866297,684370,0.913,0.461,0.186,-10.9,-15.4,-10,-9.6,-34.9,8.5,0.628192999,-0.155034028,-0.634296701,-0.423047578
346,868606,684370,0.909,0.465,0.183,-10.7,-15.5,-10.3,-9.6,-34.9,8.5,0.627826777,-0.155156102,-0.634449293,-0.423291726
347,870533,684370,0.909,0.473,0.179,-10.5,-15.7,-10.5,-9.6,-34.9,8.5,0.627491073,-0.155308695,-0.634601886,-0.423505356
348,872904,684380,0.905,0.469,0.183,-10.5,-16,-10.6,-9.6,-34.9,8.5,0.627124851,-0.155461287,-0.634754479,-0.423749504
349,875542,684380,0.897,0.469,0.179,-10.8,-16.5,-10.9,-9.4,-34.7,8.6,0.626758629,-0.15561388,-0.63493759,-0.423993652
350,877620,684380,0.893,0.469,0.179,-11.4,-16.8,-11.2,-9.4,-34.7,8.6,0.626392407,-0.155766472,-0.635090182,-0.4242378
351,882121,684380,0.889,0.473,0.179,-12.2,-17.4,-11.5,-9.4,-34.7,8.6,0.625965148,-0.155919065,-0.635242775,-0.424512467
352,884331,684390,0.885,0.473,0.171,-13.3,-18,-11.6,-9.4,-34.7,8.6,0.625598926,-0.156132694,-0.635425886,-0.424817652
353,886556,684390,0.881,0.469,0.168,-14.6,-18.7,-11.6,-9,-35.3,8.5,0.625171667,-0.156346324,-0.635578478,-0.425092318
354,888967,684390,0.878,0.469,0.175,-15.8,-19.3,-11.6,-9,-35.3,8.5,0.624744407,-0.156559954,-0.635731071,-0.425428022
355,890597,684390,0.874,0.469,0.168,-17.2,-19.7,-11.7,-9,-35.3,8.5,0.62428663,-0.15683462,-0.635883663,-0.425733207
356,892925,684400,0.866,0.462,0.16,-18.7,-20.2,-11.8,-9,-35.3,8.5,0.623859371,-0.157109287,-0.636005737,-0.426099429
357,895378,684400,0.866,0.462,0.16,-18.7,-20.2,-11.8,-9,-35.3,8.5,0.623859371,-0.157109287,-0.636005737,-0.426099429
358,897569,684400,0.854,0.466,0.156,-21.6,-20.9,-12,-8.9,-35,8.2,0.622699667,-0.157170324,-0.636280404,-0.427350688
359,900147,684400,0.85,0.458,0.144,-22.6,-21.4,-11.9,-8.9,-35,8.2,0.622211371,-0.157506027,-0.636402478,-0.427747429
360,902632,684410,0.85,0.466,0.141,-23.3,-22,-11.7,-8.9,-35,8.2,0.621723075,-0.15787225,-0.636524552,-0.428174688
361,905126,684410,0.846,0.466,0.141,-23.6,-22.6,-11.4,-9,-35.3,8.6,0.62120426,-0.158238472,-0.636646626,-0.428571429
362,907894,684410,0.846,0.474,0.137,-23.8,-23.4,-11,-9,-35.3,8.6,0.620685446,-0.158635212,-0.636799219,-0.428968169
363,910371,684410,0.843,0.474,0.137,-23.9,-24.1,-10.5,-9,-35.3,8.6,0.620166631,-0.159031953,-0.636921293,-0.42936491
364,913082,684420,0.846,0.482,0.137,-23.8,-24.7,-10,-9,-35.3,8.6,0.619647816,-0.159398175,-0.637073885,-0.429731132
365,916241,684420,0.846,0.486,0.137,-23.8,-25.4,-9.6,-9.1,-35.2,8.4,0.619129002,-0.159855953,-0.637226478,-0.430127873
366,918068,684420,0.85,0.494,0.137,-23.8,-25.8,-9.2,-9.1,-35.2,8.4,0.618610187,-0.16031373,-0.63737907,-0.430494095
367,920389,684420,0.854,0.501,0.137,-23.8,-26.4,-8.9,-9.1,-35.2,8.4,0.618060854,-0.160740989,-0.637562181,-0.430829798
368,922733,684430,0.854,0.505,0.137,-23.7,-26.9,-8.8,-9.1,-35.2,8.4,0.617511521,-0.161198767,-0.637684256,-0.43119602
369,925090,684430,0.858,0.517,0.137,-23.4,-27.3,-8.6,-8.7,-35,8.1,0.616992706,-0.161656545,-0.637897885,-0.431531724
370,927535,684430,0.866,0.517,0.137,-23.2,-27.6,-8.8,-8.7,-35,8.1,0.616412854,-0.162114322,-0.638080996,-0.431897946
371,931467,684430,0.874,0.529,0.141,-22.9,-27.8,-9,-8.7,-35,8.1,0.615863521,-0.162541581,-0.638264107,-0.43223365
372,932915,684440,0.87,0.536,0.145,-22.6,-27.9,-9.4,-8.7,-35,8.1,0.615314188,-0.162968841,-0.638477737,-0.432569353
373,936106,684440,0.87,0.54,0.141,-22.6,-27.9,-10.2,-8.6,-34.7,8.3,0.614734336,-0.1633961,-0.638660848,-0.432935575
374,937627,684440,0.881,0.552,0.137,-23.1,-27.5,-11.3,-8.6,-34.7,8.3,0.614185003,-0.163823359,-0.638874477,-0.433301798
375,941461,684440,0.885,0.548,0.141,-24.2,-27,-12.8,-8.6,-34.7,8.3,0.613574633,-0.164220099,-0.63902707,-0.433729057
376,942828,684450,0.897,0.552,0.137,-25.4,-26.6,-14.2,-8.6,-34.7,8.3,0.612994781,-0.16461684,-0.639210181,-0.434156316
377,945147,684450,0.897,0.552,0.137,-25.4,-26.6,-14.2,-8.6,-34.7,8.3,0.612994781,-0.16461684,-0.639210181,-0.434156316
378,949264,684450,0.909,0.559,0.141,-26.8,-25.9,-16.5,-8.1,-35.3,8.3,0.611529893,-0.164891507,-0.639606922,-0.435529649
379,951198,684450,0.917,0.563,0.137,-27,-25.4,-17.2,-8.1,-35.3,8.3,0.610919523,-0.165257729,-0.639759514,-0.436017945
380,953567,684460,0.928,0.563,0.133,-27.3,-24.6,-17.8,-8.1,-35.3,8.3,0.610309153,-0.165623951,-0.639881588,-0.436567278
381,955552,684460,0.967,0.575,0.132,-27.6,-23.7,-18.2,-8.3,-35.5,7.8,0.609698782,-0.165959655,-0.640003662,-0.437116611
382,957883,684460,0.995,0.578,0.12,-28,-22.5,-18.4,-8.3,-35.5,7.8,0.609088412,-0.166295358,-0.640095218,-0.437665944
383,961598,684460,0.995,0.578,0.12,-28,-22.5,-18.4,-8.3,-35.5,7.8,0.609088412,-0.166295358,-0.640095218,-0.437665944
384,963661,684470,1.171,0.608,0.082,-27.8,-18,-15.2,-8.3,-35.5,7.8,0.608050783,-0.166936247,-0.640217292,-0.438734092
385,965168,684470,1.108,0.612,0.11,-26.4,-13.4,-8.9,-8.1,-35.6,8.1,0.607684561,-0.167302469,-0.640156255,-0.43919187
386,967554,684470,1.014,0.598,0.132,-24.2,-6.1,2.3,-8.1,-35.6,8.1,0.607531968,-0.16769921,-0.640003662,-0.439466536
387,972120,684470,0.979,0.59,0.128,-22.2,3.3,17.6,-8.1,-35.6,8.1,0.607654042,-0.168187506,-0.639698477,-0.439558092
388,974282,684480,0.983,0.563,0.124,-22.2,13.3,33.2,-8.1,-35.6,8.1,0.608081301,-0.168828394,-0.639179662,-0.439466536
389,976979,684480,0.952,0.567,0.136,-24.7,21.9,44.7,-8.1,-35.1,8,0.60872219,-0.169591357,-0.638477737,-0.439313944
390,978922,684480,0.827,0.541,0.138,-29.1,28.2,50.3,-8.1,-35.1,8,0.609485153,-0.170415357,-0.637623218,-0.439161351
391,980235,684480,0.831,0.533,0.138,-34.5,32.5,50.6,-8.1,-35.1,8,0.610309153,-0.171269875,-0.636677145,-0.439069796
392,983493,684490,0.846,0.513,0.137,-40.6,34.2,46.1,-8.1,-35.1,8,0.611072115,-0.172093875,-0.635670034,-0.439161351
393,985174,684490,0.842,0.498,0.137,-47.2,33.1,37.3,-8.3,-35.6,7.8,0.611713004,-0.172948393,-0.634632405,-0.439436018
394,987952,684490,0.839,0.494,0.133,-53.8,29.7,25.7,-8.3,-35.6,7.8,0.612170782,-0.173741874,-0.633625294,-0.439924314
395,990344,684490,0.788,0.443,0.13,-59.8,24.9,13.8,-8.3,-35.6,7.8,0.61241493,-0.174474319,-0.632648701,-0.440687277
396,994446,684500,0.792,0.42,0.125,-64.5,19.6,3,-8.3,-35.6,7.8,0.612475967,-0.175206763,-0.631763665,-0.441602832
397,996193,684500,0.792,0.42,0.125,-64.5,19.6,3,-8.3,-35.6,7.8,0.612475967,-0.175206763,-0.631763665,-0.441602832
398,997643,684500,0.948,0.399,0.107,-68.3,7,-14.9,-8.5,-35.6,7.4,0.611774041,-0.176335948,-0.630390332,-0.444044313
399,1000963,684500,0.956,0.391,0.11,-66.8,-0.6,-22,-8.5,-35.6,7.4,0.611285745,-0.176946318,-0.629840999,-0.445234535
400,1002551,684510,0.944,0.379,0.13,-63,-8.8,-26.1,-8.5,-35.6,7.4,0.610675375,-0.17752617,-0.629444258,-0.446424757
401,1005321,684510,0.948,0.371,0.13,-57.5,-16.6,-25.9,-8.4,-36.1,6.3,0.609973449,-0.178075503,-0.62920011,-0.447492904
402,1007757,684510,0.979,0.367,0.129,-51.8,-23.2,-21.7,-8.4,-36.1,6.3,0.609241005,-0.178716391,-0.629108554,-0.44840846
403,1012148,684510,0.991,0.362,0.133,-47.2,-28.7,-15.3,-8.4,-36.1,6.3,0.60850856,-0.179387799,-0.629078036,-0.449140904
404,1012520,684520,1.003,0.354,0.137,-44.8,-32.8,-9.1,-8.4,-36.1,6.3,0.607806635,-0.18018128,-0.629108554,-0.449751274
405,1016504,684520,1.026,0.35,0.148,-45,-35.5,-4.4,-8.5,-35.9,6.8,0.60707419,-0.181066317,-0.629169591,-0.450300607
406,1018985,684520,1.034,0.346,0.159,-47.4,-37.1,-1.3,-8.5,-35.9,6.8,0.606372265,-0.182042909,-0.62920011,-0.450819422
407,1021294,684520,1.038,0.35,0.163,-51.7,-37.6,0,-8.5,-35.9,6.8,0.605639821,-0.183111057,-0.629169591,-0.451368755
408,1023077,684530,1.038,0.349,0.179,-57.5,-37.6,0.4,-8.5,-35.9,6.8,0.604907376,-0.184240242,-0.629108554,-0.452009644
409,1025385,684530,1.046,0.337,0.179,-64.3,-37.5,0.3,-8.1,-35.8,7.1,0.604144414,-0.185460982,-0.628955962,-0.452742088
410,1027690,684530,1.053,0.326,0.174,-71.8,-37.7,0.3,-8.1,-35.8,7.1,0.603320414,-0.186803797,-0.628742332,-0.453566088
411,1030919,684530,1.042,0.291,0.163,-79.2,-38.2,0.7,-8.1,-35.8,7.1,0.602496414,-0.188238166,-0.628467666,-0.454481643
412,1032992,684540,1.026,0.263,0.159,-85.7,-38.6,1.7,-8.1,-35.8,7.1,0.601611377,-0.189764092,-0.628101444,-0.455488754
413,1035408,684540,1.026,0.248,0.143,-90.3,-38.2,2.6,-8.1,-36,6.4,0.600756859,-0.191351054,-0.627704703,-0.456526383
414,1039251,684540,1.022,0.232,0.139,-92.1,-36.6,3,-8.1,-36,6.4,0.599902341,-0.192968535,-0.627246925,-0.457594531
415,1041256,684540,1.015,0.217,0.131,-91.1,-33.7,2.2,-8.1,-36,6.4,0.599078341,-0.194524979,-0.626758629,-0.458662679
416,1043473,684550,0.999,0.225,0.135,-87.3,-29.8,0.1,-8.1,-36,6.4,0.59828486,-0.195989868,-0.626270333,-0.459730827
417,1045574,684550,0.999,0.225,0.135,-87.3,-29.8,0.1,-8.1,-36,6.4,0.59828486,-0.195989868,-0.626270333,-0.459730827
418,1047470,684550,0.991,0.252,0.151,-73.1,-20.1,-6.6,-7.8,-36.4,6.2,0.597064119,-0.198278756,-0.625354778,-0.461622974
419,1050482,684550,0.972,0.264,0.144,-64.6,-15.6,-9.9,-7.8,-36.4,6.2,0.596453749,-0.199133274,-0.624958037,-0.46253853
420,1052688,684560,0.968,0.276,0.14,-56.5,-12.3,-12,-7.8,-36.4,6.2,0.595934935,-0.1998352,-0.624591815,-0.463423566
421,1055965,684560,0.96,0.284,0.14,-49.4,-10.4,-12.5,-7.8,-36.4,4.1,0.595446638,-0.200415052,-0.62428663,-0.464217048
422,1057821,684560,0.964,0.288,0.14,-43.2,-9.7,-11.7,-7.8,-36.4,4.1,0.594988861,-0.200903348,-0.624011963,-0.464918973
423,1061034,684560,0.972,0.296,0.144,-37.8,-9.6,-10.3,-7.8,-36.4,4.1,0.59459212,-0.201361126,-0.623798334,-0.465529344
424,1063751,684570,0.979,0.299,0.156,-32.6,-9.6,-9.2,-7.8,-36.4,4.1,0.594225898,-0.201757866,-0.623645741,-0.466048158
425,1065421,684570,0.979,0.307,0.172,-27.8,-9.3,-8.9,-7.7,-36.2,5.5,0.593890194,-0.20209357,-0.623523667,-0.466505936
426,1067908,684570,0.995,0.306,0.203,-23.2,-8.4,-9.3,-7.7,-36.2,5.5,0.593585009,-0.202337718,-0.623432112,-0.466902676
427,1071658,684570,1.006,0.302,0.214,-19,-6.7,-10.1,-7.7,-36.2,5.5,0.593310343,-0.202520829,-0.623371075,-0.467268899
428,1073855,684580,1.014,0.302,0.226,-15,-4.2,-11.2,-7.7,-36.2,5.5,0.593066195,-0.202612384,-0.623310038,-0.467604602
429,1076072,684580,1.026,0.306,0.222,-11.3,-1.3,-12.7,-7.8,-36.6,5.6,0.592852565,-0.202612384,-0.623279519,-0.467909787
430,1077572,684580,1.038,0.294,0.21,-7.6,2.1,-14.3,-7.8,-36.6,5.6,0.592699973,-0.20249031,-0.623249001,-0.468214972
431,1079999,684580,1.042,0.286,0.194,-3.6,6,-15.9,-7.8,-36.6,5.6,0.592608417,-0.202246162,-0.623187963,-0.468489639
432,1083678,684590,1.046,0.279,0.174,1,10,-17.7,-7.8,-36.6,5.6,0.592577898,-0.20187994,-0.623157445,-0.468764306
433,1086124,684590,1.05,0.275,0.143,6.8,13.4,-19.8,-7.9,-37,5.6,0.592577898,-0.201391644,-0.623126926,-0.468977935
434,1088017,684590,1.042,0.292,0.096,14.6,15.6,-22.5,-7.9,-37,5.6,0.592638936,-0.200750755,-0.623187963,-0.469130528
435,1090288,684590,1.015,0.297,0.046,24.4,16.4,-25.6,-7.9,-37,5.6,0.592699973,-0.199896237,-0.623340556,-0.469191565
436,1092573,684600,1.003,0.321,0.007,36.3,15.8,-28.9,-7.9,-37,5.6,0.59276101,-0.198889126,-0.623615223,-0.469161046
437,1095082,684600,1.003,0.321,0.007,36.3,15.8,-28.9,-7.9,-37,5.6,0.59276101,-0.198889126,-0.623615223,-0.469161046
438,1098673,684600,0.926,0.351,-0.096,61.2,11.8,-35.5,-7.8,-36.4,6,0.592883084,-0.196325571,-0.624988556,-0.468276009
439,1100935,684600,0.941,0.359,-0.116,71.4,9.7,-37.7,-7.8,-36.4,6,0.592913602,-0.194799646,-0.625751518,-0.467818232
440,1103974,684610,0.926,0.348,-0.143,78,8.2,-38.5,-7.8,-36.4,6,0.592974639,-0.193182165,-0.626606037,-0.467268899
441,1106215,684610,0.871,0.31,-0.178,79.8,7.7,-37.4,-7.1,-36.4,4.4,0.593035676,-0.191534165,-0.627491073,-0.466719565
442,1107840,684610,0.852,0.283,-0.193,76.6,8.2,-34.5,-7.1,-36.4,4.4,0.593127232,-0.19000824,-0.628315073,-0.466139714
443,1111596,684610,0.852,0.271,-0.174,68.4,9.5,-30.2,-7.1,-36.4,4.4,0.593218787,-0.188604389,-0.62898648,-0.465651418
444,1113055,684620,0.93,0.296,-0.128,56.2,11.6,-25.4,-7.1,-36.4,4.4,0.593340861,-0.187414167,-0.629535813,-0.465254677
445,1115042,684620,0.887,0.253,-0.085,40.9,13.7,-21,-7.2,-36.4,6.5,0.593493454,-0.186437574,-0.629840999,-0.465010529
446,1117541,684620,0.762,0.149,-0.092,22.6,14.9,-16.6,-7.2,-36.4,6.5,0.593615528,-0.185766167,-0.629963073,-0.46498001
447,1121777,684620,0.809,0.148,-0.092,0.6,14.2,-11,-7.2,-36.4,6.5,0.593707083,-0.185460982,-0.62981048,-0.465163121
448,1123699,684630,0.922,0.072,-0.08,-24.4,10.7,-4.8,-7.2,-36.4,6.5,0.593707083,-0.185613575,-0.629444258,-0.465620899
449,1125242,684630,0.938,0.048,-0.057,-50.6,4.4,1.1,-7.1,-36.6,6,0.593585009,-0.186223945,-0.628864406,-0.466322825
450,1127604,684630,0.969,0.02,-0.022,-75.8,-3.3,6.2,-7.1,-36.6,6,0.593279824,-0.18735313,-0.628131962,-0.467268899
451,1131021,684630,0.898,-0.14,0.003,-99.8,-10.6,11.7,-7.1,-36.6,6,0.592852565,-0.188909574,-0.627185888,-0.468428602
452,1133396,684640,0.903,-0.234,-0.02,-123.3,-16.6,17.9,-7.1,-36.6,6,0.592303232,-0.190923795,-0.626056703,-0.469801935
453,1135304,684640,0.981,-0.293,-0.023,-146.9,-22.5,24.8,-7,-36.7,5.7,0.591631825,-0.193395795,-0.624744407,-0.471388897
454,1138868,684640,1.008,-0.345,-0.016,-169.4,-29.2,31.1,-7,-36.7,5.7,0.590807825,-0.196295053,-0.623249001,-0.473189489
455,1141110,684640,1.149,-0.472,-0.028,-203,-44.9,39.2,-7,-36.7,5.7,0.589739677,-0.199896237,-0.621539964,-0.47523423
456,1142743,684650,1.161,-0.546,-0.048,-211.4,-51.7,43.2,-7,-36.7,5.7,0.588579974,-0.203741569,-0.619830927,-0.477309488
457,1145100,684650,1.188,-0.641,-0.03,-212.8,-57,48.9,-6.8,-37,4.8,0.587359233,-0.207739494,-0.618121891,-0.47932371
458,1148442,684650,1.212,-0.712,-0.047,-206.2,-60.8,56.3,-6.8,-37,4.8,0.586169012,-0.211767937,-0.616473891,-0.481093783
459,1151862,684650,1.247,-0.79,-0.108,-191.5,-64,64.1,-6.8,-37,4.8,0.585100864,-0.215765862,-0.614978484,-0.482528153
460,1153443,684660,1.279,-0.864,-0.16,-168.5,-66.3,70.4,-6.8,-37,4.8,0.58415479,-0.219550157,-0.613727226,-0.483596301
461,1155189,684660,1.302,-0.911,-0.188,-136.6,-66.5,74,-7.4,-37,1.4,0.583391827,-0.22296823,-0.612781152,-0.484145634
462,1158072,684660,1.4,-0.904,-0.198,-94.9,-62.4,73.4,-7.4,-37,1.4,0.582873012,-0.225806452,-0.6122013,-0.484176153
463,1160362,684660,1.4,-0.784,-0.114,-45.4,-53.1,68.7,-7.4,-37,1.4,0.582659383,-0.22788171,-0.612048708,-0.483657338
464,1163592,684670,1.392,-0.694,-0.082,5.7,-39.9,61.7,-7.4,-37,1.4,0.582781457,-0.229041414,-0.612323374,-0.48258919
465,1165390,684670,1.345,-0.595,-0.111,50.4,-25.9,55.3,-7.5,-36.9,3.9,0.583269753,-0.229438154,-0.612903226,-0.481093783
466,1167655,684670,1.321,-0.539,-0.129,82.9,-14,51.6,-7.5,-36.9,3.9,0.584063234,-0.229224525,-0.613696707,-0.479232154
467,1170153,684670,1.286,-0.488,-0.144,102.4,-5.3,50.5,-7.5,-36.9,3.9,0.585009308,-0.228644673,-0.614581744,-0.477187414
468,1172520,684680,1.27,-0.444,-0.155,111.7,0.5,50.4,-7.5,-36.9,3.9,0.586107974,-0.22788171,-0.615466781,-0.475051119
469,1176946,684680,1.22,-0.384,-0.2,114.8,4.5,50.2,-7.8,-36.8,4.2,0.587267678,-0.227027192,-0.616351817,-0.472884304
470,1179178,684680,1.204,-0.356,-0.207,115.1,7.3,49.2,-7.8,-36.8,4.2,0.588427381,-0.226142155,-0.617206336,-0.470748009
471,1181369,684680,1.177,-0.336,-0.211,115.3,9,47.9,-7.8,-36.8,4.2,0.589617603,-0.2252266,-0.618030335,-0.468642232
472,1183597,684690,1.13,-0.3,-0.221,117.3,9.8,46.5,-7.8,-36.8,4.2,0.590807825,-0.224219489,-0.618884854,-0.466505936
473,1185788,684690,1.11,-0.284,-0.224,121.9,9.9,45.8,-7.9,-36.6,5.3,0.591998047,-0.22318186,-0.61976989,-0.464308603
474,1187842,684690,1.095,-0.261,-0.216,129.1,9.4,45.8,-7.9,-36.6,5.3,0.593218787,-0.222022156,-0.620715964,-0.462019715
475,1190109,684690,1.087,-0.241,-0.204,138.3,8.7,46.9,-7.9,-36.6,5.3,0.594470046,-0.220801416,-0.621784112,-0.459578234
476,1194021,684700,1.056,-0.198,-0.199,148.3,8.1,48.9,-7.9,-36.6,5.3,0.595782342,-0.219458602,-0.622913297,-0.456953642
477,1196306,684700,1.036,-0.186,-0.198,158,7.8,51.7,-8.6,-36.4,6,0.597155675,-0.217993713,-0.624134037,-0.454176458
478,1198526,684700,1.032,-0.17,-0.198,166.7,7.9,55.2,-8.6,-36.4,6,0.598590045,-0.216528825,-0.625415815,-0.451216163
479,1200864,684700,1.028,-0.146,-0.213,174.3,8.4,59,-8.6,-36.4,6,0.60011597,-0.214972381,-0.626728111,-0.448103275
480,1202897,684710,1.036,-0.134,-0.225,181,9.1,63.1,-8.6,-36.4,6,0.601702933,-0.2133549,-0.628101444,-0.444837794
481,1205103,684710,1.04,-0.111,-0.237,187.3,9.9,67.2,-8.9,-36,4.5,0.603350932,-0.211737419,-0.629444258,-0.441419721
482,1208845,684710,1.04,-0.091,-0.252,193.5,10.8,70.8,-8.9,-36,4.5,0.605090487,-0.210058901,-0.630848109,-0.437879574
483,1211070,684710,1.04,-0.047,-0.287,199.7,11.9,73.7,-8.9,-36,4.5,0.606860561,-0.208319346,-0.632251961,-0.434217353
484,1213864,684720,1.036,-0.027,-0.302,205.4,13.1,76.2,-8.9,-36,4.5,0.608691671,-0.206518754,-0.633655812,-0.430433058
485,1216043,684720,1.04,-0.011,-0.314,210.8,14.2,78.2,-9.4,-35.4,7.5,0.610553301,-0.204657125,-0.635090182,-0.426526688
486,1219098,684720,1.052,0.027,-0.341,216,14.8,79.8,-9.4,-35.4,7.5,0.612475967,-0.202734458,-0.636555071,-0.422528764
487,1220328,684720,1.056,0.043,-0.352,221.3,14.6,81.2,-9.4,-35.4,7.5,0.614398633,-0.200781274,-0.638019959,-0.418439283
488,1223459,684730,1.068,0.063,-0.356,226.9,13.7,82.3,-9.4,-35.4,7.5,0.616321299,-0.198767052,-0.639545885,-0.414227729
489,1224949,684730,1.072,0.078,-0.368,232.6,12,83,-9.8,-35,8.7,0.618243965,-0.196661275,-0.641102329,-0.409894101
490,1227881,684730,1.087,0.082,-0.384,238.2,9.9,83.8,-9.8,-35,8.7,0.620136113,-0.194524979,-0.642750328,-0.405468917
491,1231002,684730,1.095,0.09,-0.384,243.6,7.7,84.3,-9.8,-35,8.7,0.62202826,-0.192358165,-0.644428846,-0.400952177
492,1232458,684740,1.111,0.09,-0.384,248.8,5.5,84.7,-9.8,-35,8.7,0.623859371,-0.190130314,-0.646168401,-0.396313364
493,1235747,684740,1.123,0.09,-0.388,253.7,3.5,85.1,-10.2,-34.3,10.1,0.625690481,-0.187841426,-0.647938475,-0.391582995
494,1238795,684740,1.13,0.059,-0.408,258.5,2,85.4,-10.2,-34.3,10.1,0.627521592,-0.185491501,-0.649769585,-0.386761071
495,1240504,684740,1.126,0.07,-0.396,263.3,1.3,85.2,-10.2,-34.3,10.1,0.629291665,-0.183080538,-0.651600696,-0.381847591
496,1243906,684750,1.138,0.086,-0.404,267.9,1.4,84.5,-10.2,-34.3,10.1,0.631092257,-0.180578021,-0.653462325,-0.376903592
497,1246096,684750,1.158,0.094,-0.42,271.3,2.1,83.4,-11,-33.6,11.1,0.632862331,-0.178014466,-0.655323954,-0.371868038
498,1247604,684750,1.17,0.094,-0.428,272.5,3.6,82.7,-11,-33.6,11.1,0.634632405,-0.175389874,-0.657155065,-0.366832484
499,1250077,684750,1.185,0.094,-0.429,271.3,5.9,82.6,-11,-33.6,11.1,0.636402478,-0.172765282,-0.658925138,-0.36179693
500,1254412,684760,1.197,0.082,-0.425,267.9,9.2,82.8,-11,-33.6,11.1,0.63820307,-0.17014069,-0.660573138,-0.356852931
501,1256656,684760,1.216,0.069,-0.418,262.7,13,82.9,-11.4,-32.6,11,0.639973144,-0.167607654,-0.662129582,-0.351939451
502,1258999,684760,1.216,0.062,-0.414,256.4,17.1,82.5,-11.4,-32.6,11,0.641804254,-0.165074618,-0.663533433,-0.347148045
503,1261169,684760,1.212,0.05,-0.414,249.3,21.2,81.7,-11.4,-32.6,11,0.643604846,-0.162602618,-0.66481521,-0.342448195
504,1262694,684770,1.189,0.019,-0.422,242,25.4,80.6,-11.4,-32.6,11,0.645435957,-0.160191656,-0.665974914,-0.337900937
505,1266011,684770,1.177,0.007,-0.414,235.1,29.4,79.9,-11.6,-31.7,13.6,0.647267067,-0.157811213,-0.667012543,-0.333445235
506,1267571,684770,1.158,-0.003,-0.421,229.3,32.8,80.3,-11.6,-31.7,13.6,0.649098178,-0.155491806,-0.667928098,-0.329081088
507,1270126,684770,1.154,-0.007,-0.425,225.1,35.6,81.9,-11.6,-31.7,13.6,0.650959807,-0.153263955,-0.668752098,-0.324777978
508,1274596,684780,1.138,-0.023,-0.429,222.8,37.8,84.6,-11.6,-31.7,13.6,0.652851955,-0.151066622,-0.669515061,-0.320444349
509,1276701,684780,1.142,-0.026,-0.437,222.1,39.4,87.9,-11.7,-30.6,14.6,0.654774621,-0.148899808,-0.670186468,-0.316080203
510,1279034,684780,1.142,-0.03,-0.437,223,40.4,91.1,-11.7,-30.6,14.6,0.656697287,-0.146763512,-0.670857875,-0.3116245
511,1281328,684780,1.138,-0.007,-0.437,225.8,40.8,93.8,-11.7,-30.6,14.6,0.658650472,-0.144627216,-0.671498764,-0.307107761
512,1283568,684790,1.135,0.004,-0.452,230.1,40.8,96,-11.7,-30.6,14.6,0.660603656,-0.142460402,-0.672139653,-0.302468947
513,1285546,684790,1.138,0.016,-0.452,235.7,40.3,97.7,-12.7,-29.6,15.6,0.662556841,-0.140232551,-0.672780541,-0.297738578
514,1287766,684790,1.135,0.036,-0.464,241.6,39.7,98.5,-12.7,-29.6,15.6,0.664510025,-0.137913144,-0.673482467,-0.292886135
515,1290192,684790,1.131,0.075,-0.475,248,38.8,98.6,-12.7,-29.6,15.6,0.66646321,-0.135502182,-0.674184393,-0.287911618
516,1292623,684800,1.142,0.095,-0.471,254.7,37.7,97.8,-12.7,-29.6,15.6,0.668355358,-0.132999664,-0.674947356,-0.282845546
517,1296156,684800,1.15,0.122,-0.475,261.7,36.2,96.7,-13.1,-28.7,16.7,0.670247505,-0.130405591,-0.675740837,-0.277687918
518,1298526,684800,1.166,0.181,-0.47,268.6,34.5,95.4,-13.1,-28.7,16.7,0.672078616,-0.127658925,-0.676564837,-0.272408216
519,1300538,684800,1.174,0.212,-0.474,274.9,32.6,94.1,-13.1,-28.7,16.7,0.673879208,-0.124820704,-0.677449873,-0.267067476
520,1302853,684810,1.166,0.232,-0.473,279.7,30.8,92.6,-13.1,-28.7,16.7,0.675618763,-0.121890927,-0.678365429,-0.2616657
521,1305162,684810,1.173,0.267,-0.477,282.6,29.2,90.8,-13.9,-27.8,16.2,0.677297281,-0.118900113,-0.679280984,-0.256202887
522,1307595,684810,1.166,0.295,-0.492,283.7,28,88.6,-13.9,-27.8,16.2,0.67894528,-0.11587878,-0.680196539,-0.250740074
523,1312037,684810,1.174,0.307,-0.496,283.5,26.9,86.1,-13.9,-27.8,16.2,0.680501724,-0.112796411,-0.681112094,-0.245338298
524,1314529,684820,1.174,0.322,-0.504,282.7,26.4,83.4,-13.9,-27.8,16.2,0.68202765,-0.109683523,-0.68202765,-0.23996704
525,1316924,684820,1.189,0.334,-0.508,281.8,26.3,80.5,-13.9,-26.2,18.9,0.683523057,-0.106540117,-0.682912687,-0.234595782
526,1319425,684820,1.201,0.354,-0.512,281.2,26.8,77.7,-13.9,-26.2,18.9,0.684957427,-0.10339671,-0.683736686,-0.22931608
527,1321453,684820,1.213,0.361,-0.504,280.6,27.6,75.1,-13.9,-26.2,18.9,0.686361278,-0.100161748,-0.684560686,-0.224066897
528,1323039,684830,1.213,0.369,-0.5,279.7,29.2,72.8,-13.9,-26.2,18.9,0.687734611,-0.0969267861,-0.685323649,-0.21887875
529,1325666,684830,1.232,0.372,-0.485,277.8,31.4,70.7,-14,-25,19.7,0.689138462,-0.0936613056,-0.685995056,-0.213721122
530,1328863,684830,1.236,0.372,-0.477,274.7,34.1,68.7,-14,-25,19.7,0.690511795,-0.0903958251,-0.686605426,-0.208624531
531,1331651,684830,1.236,0.36,-0.469,270.3,37.1,66.6,-14,-25,19.7,0.691885128,-0.0871608631,-0.687154759,-0.203650014
532,1333889,684840,1.244,0.344,-0.454,265.1,40.4,64.4,-14,-25,19.7,0.69328898,-0.0839259011,-0.687582018,-0.198767052
533,1336115,684840,1.247,0.34,-0.446,259.6,43.9,62.3,-14.7,-24,20.5,0.694662313,-0.0807519761,-0.687917722,-0.194006165
534,1338109,684840,1.243,0.344,-0.427,254.4,47.6,60.6,-14.7,-24,20.5,0.696066164,-0.0776085696,-0.68816187,-0.189367351
535,1340391,684840,1.232,0.344,-0.411,250,51.1,59.8,-14.7,-24,20.5,0.697500534,-0.0744956816,-0.688283944,-0.184759056
536,1342667,684850,1.208,0.344,-0.379,246.2,54.3,59.7,-14.7,-24,20.5,0.698934904,-0.0713827937,-0.688344981,-0.180242317
537,1345184,684850,1.192,0.344,-0.363,242.9,57.2,60.3,-15.1,-22.5,20.7,0.700399792,-0.0683919797,-0.688344981,-0.175756096
538,1348679,684850,1.169,0.356,-0.351,240,59.5,61.4,-15.1,-22.5,20.7,0.701895199,-0.0654316843,-0.688222907,-0.171300394
539,1350320,684850,1.141,0.367,-0.327,237.5,60.8,62.9,-15.1,-22.5,20.7,0.703360088,-0.0625019074,-0.688100833,-0.16687521
540,1352570,684860,1.122,0.387,-0.314,235.7,60.9,64.7,-15.1,-22.5,20.7,0.704824976,-0.059602649,-0.687917722,-0.162419507
541,1355217,684860,1.102,0.399,-0.302,234.7,59.9,67.1,-15.8,-21.7,21.2,0.706259346,-0.0568254646,-0.687734611,-0.157933287
542,1357538,684860,1.083,0.415,-0.286,234.5,58.2,69.5,-15.8,-21.7,21.2,0.707663198,-0.0540482803,-0.6875515,-0.153416547
543,1361974,684860,1.051,0.446,-0.261,235.4,56,71.5,-15.8,-21.7,21.2,0.709006012,-0.0513016144,-0.687368389,-0.148838771
544,1364610,684870,1.055,0.477,-0.249,237.2,53.5,72.6,-15.8,-21.7,21.2,0.71028779,-0.0485244301,-0.687215796,-0.144230476
545,1366936,684870,1.032,0.509,-0.229,239.9,50.9,72.8,-16.2,-20.5,22.4,0.711539048,-0.0457472457,-0.687093722,-0.139530625
546,1369039,684870,1.012,0.524,-0.213,243.1,48.4,72,-16.2,-20.5,22.4,0.712698752,-0.0429090243,-0.687002167,-0.134830775
547,1370959,684870,1.004,0.587,-0.192,246.7,46.5,70.3,-16.2,-20.5,22.4,0.713827937,-0.0399792474,-0.68694113,-0.130069887
548,1372941,684880,1.004,0.614,-0.18,250.4,45.3,67.9,-16.2,-20.5,22.4,0.714926603,-0.036957915,-0.686849574,-0.125309
549,1375216,684880,1.027,0.637,-0.173,254.6,45.1,64.9,-16.4,-19.5,22.5,0.715964232,-0.033845027,-0.686788537,-0.120517594
550,1378721,684880,1.066,0.676,-0.157,259.3,46.3,61.5,-16.4,-19.5,22.5,0.717001862,-0.030610065,-0.686696982,-0.115695669
551,1380408,684880,1.054,0.699,-0.129,264.7,49.5,58.3,-16.4,-19.5,22.5,0.718039491,-0.0271919919,-0.686544389,-0.110843226
552,1382780,684890,1.07,0.73,-0.11,271,54.9,55.7,-16.4,-19.5,22.5,0.719168676,-0.0236518448,-0.686269723,-0.105929746
553,1385262,684890,1.14,0.757,-0.107,277.6,62.6,54.2,-17,-18.1,23.3,0.720358898,-0.0199591052,-0.6859035,-0.100955229
554,1387512,684890,1.155,0.783,-0.048,283.2,73.1,53.6,-17,-18.1,23.3,0.721671194,-0.01617481,-0.685323649,-0.0959196753
555,1390998,684890,0.98,0.761,0.001,286.3,86.9,53.8,-17,-18.1,23.3,0.723166601,-0.0122684408,-0.684530168,-0.0908230842
556,1393497,684900,0.964,0.765,0.009,286.2,102.5,54,-17,-18.1,23.3,0.724875637,-0.0083620716,-0.68346202,-0.0856959746
557,1395056,684900,1.155,0.814,0.002,282.6,117.2,53.2,-16.9,-16.5,23.4,0.726767785,-0.00445570238,-0.682088687,-0.0806604205
558,1398491,684900,1.128,0.794,0.011,275.4,129.2,51,-16.9,-16.5,23.4,0.728782006,-0.000640888699,-0.680501724,-0.075777459
559,1400891,684900,0.96,0.749,0.044,265,139.4,48.7,-16.9,-16.5,23.4,0.730918302,0.00305185095,-0.678731651,-0.0710776086
560,1404182,684910,0.796,0.676,0.05,252.1,148.7,47,-16.9,-16.5,23.4,0.733146153,0.00662251656,-0.676717429,-0.0665608692
561,1406399,684910,0.698,0.646,0.071,237.6,155.3,44.2,-17.8,-15.1,23.6,0.73546556,0.0099795526,-0.674581133,-0.0622882778
562,1408681,684910,0.655,0.615,0.072,222.9,156.1,37.4,-17.8,-15.1,23.6,0.737754448,0.0132145146,-0.672383801,-0.0583819086
563,1410922,684910,0.761,0.606,0.023,208.2,148.8,25.7,-17.8,-15.1,23.6,0.739890744,0.0163579211,-0.670247505,-0.0549027985
564,1412874,684920,1.191,0.641,-0.062,193.7,134.5,11.5,-17.8,-15.1,23.6,0.74181341,0.0195013276,-0.668294321,-0.0517899106
565,1415198,684920,1.187,0.583,-0.066,180,117.3,0.1,-18.4,-14.3,23.1,0.743430891,0.0225531785,-0.666585284,-0.0491653188
566,1418288,684920,1.156,0.52,-0.071,167.6,102.9,-3.1,-18.4,-14.3,23.1,0.744834742,0.0253913999,-0.665089877,-0.046723838
567,1421228,684920,1.187,0.493,-0.071,156.8,94.8,3.7,-18.4,-14.3,23.1,0.74611652,0.0280159917,-0.663716544,-0.0443128758
568,1422761,684930,1.199,0.429,-0.041,146.6,93.1,17.3,-18.4,-14.3,23.1,0.747398297,0.0302438429,-0.662343211,-0.041871395
569,1425922,684930,1.218,0.405,-0.014,135.9,95.6,32.5,-18.6,-14,23.2,0.748710593,0.0320749535,-0.660908841,-0.0393078402
570,1428751,684930,1.257,0.419,0.058,123.8,100,45.5,-18.6,-14,23.2,0.750083926,0.0335398419,-0.659413434,-0.0367137669
571,1430978,684930,1.108,0.282,0.157,109.7,104,55.2,-18.6,-14,23.2,0.751548814,0.0346079897,-0.65785699,-0.0341502121
572,1433982,684940,1.127,0.257,0.231,92.9,106.4,61.5,-18.6,-14,23.2,0.753044221,0.035340434,-0.656208991,-0.0317087313
573,1436154,684940,1.045,0.167,0.298,73.6,107,64.4,-19.1,-13.1,23.4,0.754570147,0.0356761376,-0.654560991,-0.0295113987
574,1437635,684940,0.975,0.092,0.353,52,106.8,63.9,-19.1,-13.1,23.4,0.756096072,0.0356761376,-0.652882473,-0.0276497696
575,1440604,684940,0.912,-0.041,0.447,30.1,106.7,60.6,-19.1,-13.1,23.4,0.757621998,0.035401471,-0.651173437,-0.0261238441
576,1443654,684950,0.857,-0.127,0.474,9.8,106.8,56.1,-19.1,-13.1,23.4,0.759147923,0.0348521378,-0.6494644,-0.0249641408
577,1445130,684950,0.838,-0.178,0.501,-5.4,106.4,51.9,-19.6,-13,22.5,0.760704367,0.0340586566,-0.647724845,-0.0241096225
578,1448026,684950,0.74,-0.249,0.611,-13,105.4,49.1,-19.6,-13,22.5,0.762230293,0.0332041383,-0.646015809,-0.0234076968
579,1451149,684950,0.677,-0.253,0.675,-10.7,103.4,48.1,-19.6,-13,22.5,0.763695181,0.0324106571,-0.644306772,-0.0226752525
580,1452578,684960,0.638,-0.249,0.735,1.8,99.9,49.6,-19.6,-13,22.5,0.765129551,0.0317697684,-0.642689291,-0.0217291787
581,1455931,684960,0.551,-0.257,0.787,23.1,94.3,53.5,-20,-12.4,23.3,0.766472365,0.0314645833,-0.641163366,-0.0204779199
582,1458977,684960,0.621,-0.173,0.892,51.5,86.6,59.3,-20,-12.4,23.3,0.767662587,0.0315256203,-0.639759514,-0.0186773278
583,1461270,684960,0.574,-0.119,0.976,85.6,78,65.8,-20,-12.4,23.3,0.768730735,0.0320749535,-0.638538774,-0.0163579211
584,1463492,684970,0.566,-0.08,1.039,124.5,70.5,71.9,-20,-12.4,23.3,0.76964629,0.0332041383,-0.637440107,-0.0133671072
585,1466483,684970,0.597,-0.003,1.114,167.6,65.4,77.5,-20.1,-12,22.7,0.770439772,0.0349436934,-0.636432997,-0.0096743675
586,1468690,684970,0.526,0.062,1.167,214.9,63.7,82.7,-20.1,-12,22.7,0.771172216,0.0373851741,-0.635456404,-0.00524918363
587,1470083,684970,0.553,0.141,1.16,266.3,65.8,87.6,-20.1,-12,22.7,0.771874142,0.0407116916,-0.634449293,-3.05185095e-05
588,1473354,684980,0.51,0.212,1.134,321.5,71.9,92.4,-20.1,-12,22.7,0.772545549,0.0448316904,-0.633320109,0.00601214637
589,1475329,684980,0.507,0.465,1.023,379,82.7,97,-20.3,-10.3,23.4,0.773277993,0.049836726,-0.631946776,0.0129703665
590,1478469,684980,0.456,0.628,0.944,437.8,98.5,102.1,-20.3,-10.3,23.4,0.774101993,0.0558183538,-0.630237739,0.020844142
591,1480083,684980,0.468,0.852,0.876,495.9,118.9,108.3,-20.3,-10.3,23.4,0.775017548,0.0626545,-0.628070925,0.0296334727
592,1484550,684990,0.417,1.297,0.804,549.6,142,116.2,-20.3,-10.3,23.4,0.776085696,0.0702536088,-0.625446333,0.0393078402
593,1486873,684990,0.171,1.547,0.827,594.7,165.4,124.7,-20.8,-7.8,22.8,0.777245399,0.0784630879,-0.62224189,0.049775689
594,1489226,684990,0.244,1.805,0.829,627.1,187.3,131.1,-20.8,-7.8,22.8,0.778496658,0.087099826,-0.61854915,0.0608233894
595,1490934,684990,0.318,2.048,0.823,642.7,204.8,132.3,-20.8,-7.8,22.8,0.779778436,0.0959501938,-0.614398633,0.0721457564
596,1494033,685000,0.126,2.422,0.89,637.8,216.4,126.4,-20.8,-7.8,22.8,0.781060213,0.104770043,-0.609912412,0.0832850124
597,1496376,685000,0.08,2.573,0.845,609.1,220.7,112.5,-21.4,-4.7,22.6,0.782311472,0.11322367,-0.60524308,0.0938138981
598,1498558,685000,0.049,2.629,0.776,553.5,217.5,91.1,-21.4,-4.7,22.6,0.783562731,0.121036409,-0.600573748,0.103213599
599,1500918,685000,0.092,2.516,0.649,469.5,205.7,64.9,-21.4,-4.7,22.6,0.78481399,0.127719962,-0.596118046,0.110995819
600,1502832,685010,0.159,2.312,0.602,359.2,184.1,37.3,-21.4,-4.7,22.6,0.786095767,0.132938627,-0.592181158,0.116794336
601,1506935,685010,0.284,2.068,0.565,230.1,152.9,11,-22.4,-3.2,21.9,0.787377544,0.1363567,-0.589007233,0.120426038
602,1508732,685010,0.437,1.772,0.559,92.2,113.5,-13.1,-22.4,-3.2,21.9,0.788567766,0.137821589,-0.586748863,0.121738334
603,1511048,685010,0.637,1.208,0.553,-44.7,69.4,-33.3,-22.4,-3.2,21.9,0.789696951,0.137272256,-0.58558916,0.120792261
604,1512610,685020,0.7,0.968,0.545,-173.7,24.3,-47,-22.4,-3.2,21.9,0.790643025,0.134830775,-0.585467086,0.117831965
605,1516040,685020,0.77,0.736,0.513,-289.5,-17.9,-52.4,-22.2,-3.3,21.7,0.791375469,0.130558184,-0.586352123,0.113162633
606,1518521,685020,0.845,0.582,0.51,-388.4,-54.6,-50.2,-22.2,-3.3,21.7,0.791894284,0.124607074,-0.588091678,0.107181005
607,1520469,685020,0.849,0.203,0.443,-467.6,-83.9,-41.9,-22.2,-3.3,21.7,0.792138432,0.117252113,-0.59050264,0.100192267
608,1522765,685030,0.857,0.069,0.441,-525.8,-105.1,-30.1,-22.2,-3.3,21.7,0.792138432,0.108798486,-0.593340861,0.0926541948
609,1525250,685030,0.85,-0.043,0.428,-562.7,-118.4,-17.3,-22.2,-5.7,21.9,0.791924802,0.0995208594,-0.596453749,0.0847804193
610,1528161,685030,0.866,-0.271,0.386,-578.8,-125.3,-6.4,-22.2,-5.7,21.9,0.791467025,0.0898159734,-0.599627674,0.0768456069
611,1530264,685030,0.889,-0.33,0.393,-575,-127.3,0.1,-22.2,-5.7,21.9,0.790887173,0.0800805689,-0.602740562,0.0690633869
612,1532546,685040,0.932,-0.362,0.395,-552.6,-124.9,1.5,-22.2,-5.7,21.9,0.79012421,0.0707113865,-0.605670339,0.0616168706
613,1537198,685040,0.963,-0.358,0.399,-513.7,-118.5,-2.2,-21.7,-7.8,21.9,0.789300211,0.0620441298,-0.608355968,0.0545976135
614,1538941,685040,0.979,-0.253,0.419,-462.2,-108,-9.3,-21.7,-7.8,21.9,0.788476211,0.0543534654,-0.610736412,0.0481276894
615,1540448,685040,0.967,-0.202,0.404,-403.7,-93.5,-17.3,-21.7,-7.8,21.9,0.78768273,0.0477309488,-0.612720115,0.0423596912
616,1543813,685050,0.889,-0.13,0.391,-344,-75.7,-24.4,-21.7,-7.8,21.9,0.787041841,0.0422070986,-0.614307077,0.0372631001
617,1546083,685050,0.713,-0.029,0.329,-288.7,-55.7,-30.3,-21.3,-9.1,22.4,0.786553545,0.0376903592,-0.615436262,0.0328073977
618,1548439,685050,0.651,0.003,0.279,-241.1,-35.7,-36.4,-21.3,-9.1,22.4,0.786309397,0.0340586566,-0.616199225,0.028931547
619,1550408,685050,0.624,0.024,0.241,-202.7,-17.8,-44.3,-21.3,-9.1,22.4,0.786217841,0.0311899167,-0.616595965,0.0253913999
620,1552717,685060,0.593,0.033,0.187,-173,-3.8,-55.2,-21.3,-9.1,22.4,0.786309397,0.028992584,-0.616718039,0.0220954009
621,1555920,685060,0.57,0.073,0.133,-149.8,6.4,-68.9,-21.7,-10.4,22.1,0.786523026,0.0273445845,-0.616626484,0.0189214759
622,1557832,685060,0.55,0.089,0.13,-131,14,-84.1,-21.7,-10.4,22.1,0.786828211,0.0262153996,-0.616382336,0.0157475509
623,1560229,685060,0.538,0.109,0.118,-115.5,19.6,-99.6,-21.7,-10.4,22.1,0.787194433,0.0255745109,-0.616016114,0.0124820704
624,1563497,685070,0.507,0.129,0.111,-103.6,23.5,-114.3,-21.7,-10.4,22.1,0.787591174,0.0252693258,-0.615588855,0.00915555284
625,1566557,685070,0.495,0.145,0.104,-96,25.2,-127.4,-21.7,-11.2,21.9,0.787987915,0.0253608814,-0.615100558,0.00567644276
626,1568765,685070,0.495,0.145,0.104,-93.8,23.9,-138.8,-21.7,-11.2,21.9,0.788384655,0.0256050295,-0.614612262,0.00204474013
627,1570975,685070,0.495,0.173,0.112,-97.1,18.6,-148.7,-21.7,-11.2,21.9,0.78868984,0.0259407331,-0.614215522,-0.00177007355
628,1572527,685080,0.546,0.176,0.096,-106.3,8.5,-157.1,-21.7,-11.2,21.9,0.788842433,0.0262153996,-0.613971374,-0.00589007233
629,1576236,685080,0.566,0.18,0.111,-121,-6.6,-163.9,-21.1,-12.2,21.4,0.788811914,0.0263374737,-0.613971374,-0.0103457747
630,1577579,685080,0.624,0.171,0.09,-140.4,-26.8,-168.9,-21.1,-12.2,21.4,0.788476211,0.0261238441,-0.61424604,-0.0151371807
631,1580535,685080,0.734,0.143,0.068,-163.2,-51.2,-172.4,-21.1,-12.2,21.4,0.787804804,0.025635548,-0.615009003,-0.0203253273
632,1582808,685090,0.816,0.13,0.075,-187.5,-78.4,-174.4,-21.1,-12.2,21.4,0.786767174,0.0247199927,-0.616168706,-0.025879696
633,1586047,685090,0.914,0.109,0.049,-211.7,-107.2,-175.4,-21,-13.4,21.1,0.785332804,0.0234076968,-0.617786187,-0.0317697684
634,1588096,685090,1.007,0.069,0.027,-234.2,-135.9,-175.2,-21,-13.4,21.1,0.783471175,0.0216071047,-0.619830927,-0.0380260628
635,1590351,685090,1.207,0.024,-0.019,-253.4,-162.5,-174.1,-21,-13.4,21.1,0.781243324,0.0195318461,-0.622302927,-0.0445265053
636,1592558,685100,1.308,0.019,-0.021,-267.8,-184.4,-172.4,-21,-13.4,21.1,0.778649251,0.0170903653,-0.62511063,-0.0511795404
637,1595778,685100,1.441,-0.013,-0.023,-276.2,-199.8,-169.6,-20.4,-15.2,21.6,0.775811029,0.0145268105,-0.628101444,-0.0578936125
638,1597857,685100,1.554,-0.009,0.15,-277.6,-207.9,-165.4,-20.4,-15.2,21.6,0.772820215,0.0118411817,-0.631183813,-0.0645466475
639,1600974,685100,1.597,-0.03,0.2,-273.1,-210.1,-158.7,-20.4,-15.2,21.6,0.769737846,0.00912503433,-0.634296701,-0.0710470901
640,1603839,685110,1.635,-0.058,0.253,-265.5,-209.4,-149.4,-20.4,-15.2,21.6,0.76659444,0.00640888699,-0.637348552,-0.0772423475
641,1605183,685110,1.686,-0.055,0.26,-258.4,-208.1,-137.8,-19.7,-17.2,22.1,0.76351207,0.00363170263,-0.640339366,-0.0831934568
642,1608358,685110,1.722,-0.059,0.209,-252.7,-207.2,-124.6,-19.7,-17.2,22.1,0.760399182,0.000793481246,-0.64333018,-0.0888088626
643,1610505,685110,1.698,-0.073,0.154,-247,-204.4,-110.6,-19.7,-17.2,22.1,0.757286294,-0.00210577715,-0.64619892,-0.0941190832
644,1612711,685120,1.691,-0.061,0.115,-237.7,-196.5,-95.6,-19.7,-17.2,22.1,0.75429548,-0.00509659108,-0.648945585,-0.0990325632
645,1615551,685120,1.562,-0.007,0.052,-221.8,-180.4,-80,-18.6,-18.1,21.8,0.751518296,-0.00799584948,-0.651448103,-0.103488266
646,1618705,685120,1.308,0.026,0.084,-197.4,-154.5,-63.3,-18.6,-18.1,21.8,0.749137852,-0.0106814783,-0.653523362,-0.107303079
647,1620106,685120,1.144,0.074,0.119,-166.6,-120.5,-45.7,-18.6,-18.1,21.8,0.747276223,-0.0130314035,-0.655110324,-0.110385449
648,1623296,685130,1.062,0.134,0.121,-134,-84.3,-27.6,-18.6,-18.1,21.8,0.745963927,-0.0150456252,-0.656178472,-0.112735374
649,1626233,685130,0.948,0.229,0.132,-104.6,-53.3,-11,-18,-18.5,21.9,0.745139927,-0.0167241432,-0.656788842,-0.114352855
650,1627616,685130,0.905,0.289,0.134,-81.6,-32.1,1.8,-18,-18.5,21.9,0.744651631,-0.0181585131,-0.657094028,-0.115512558
651,1630873,685130,0.882,0.328,0.135,-65.9,-20.8,9.4,-18,-18.5,21.9,0.744346446,-0.019409772,-0.657277139,-0.11630604
652,1632860,685140,0.878,0.376,0.131,-56.6,-16,11.6,-18,-18.5,21.9,0.744102298,-0.0205084384,-0.657399213,-0.11691641
653,1635123,685140,0.839,0.38,0.132,-52.5,-14,9.6,-18.2,-18.7,21.7,0.743919187,-0.0215765862,-0.65746025,-0.117496261
654,1638413,685140,0.823,0.376,0.132,-51.5,-12,5.1,-18.2,-18.7,21.7,0.743736076,-0.022461623,-0.657521287,-0.118167669
655,1640379,685140,0.804,0.361,0.109,-51.5,-9.3,-0.7,-18.2,-18.7,21.7,0.743552965,-0.0233161412,-0.657551805,-0.118900113
656,1643355,685150,0.757,0.401,0.079,-50.6,-6.4,-7.2,-18.2,-18.7,21.7,0.743430891,-0.0240485855,-0.657521287,-0.119724113
657,1646223,685150,0.729,0.424,0.142,-47.2,-5.1,-13.6,-18.4,-19,21.5,0.743308817,-0.0246589557,-0.657490768,-0.120639668
658,1647643,685150,0.752,0.415,0.2,-41.9,-6,-19.5,-18.4,-19,21.5,0.743125706,-0.0250862148,-0.657490768,-0.121555223
659,1650492,685150,0.787,0.375,0.266,-38.2,-9.2,-24.6,-18.4,-19,21.5,0.742912076,-0.0253913999,-0.657551805,-0.122501297
660,1652771,685160,0.795,0.339,0.265,-39.9,-12.5,-29.4,-18.4,-19,21.5,0.74263741,-0.025635548,-0.657673879,-0.123538926
661,1655898,685160,0.788,0.308,0.253,-47.9,-14.4,-33.7,-18.3,-19.5,21.8,0.742301706,-0.0259712516,-0.657795953,-0.124790185
662,1658801,685160,0.788,0.281,0.245,-59.3,-14.5,-38,-18.3,-19.5,21.8,0.741966002,-0.0264290292,-0.657887509,-0.126194037
663,1661012,685160,0.756,0.258,0.226,-70,-13.8,-41.6,-18.3,-19.5,21.8,0.74159978,-0.0269783624,-0.657948546,-0.127903073
664,1663911,685170,0.749,0.243,0.198,-77.4,-13.7,-43.8,-18.3,-19.5,21.8,0.741233558,-0.0276497696,-0.657979064,-0.129734184
665,1666187,685170,0.749,0.239,0.171,-81,-15.2,-44.2,-17.6,-20,21.1,0.740836818,-0.0283822138,-0.658009583,-0.131595813
666,1667628,685170,0.745,0.232,0.151,-81.5,-18.5,-42.6,-17.6,-20,21.1,0.740409558,-0.0291451765,-0.658101138,-0.133426923
667,1671581,685170,0.722,0.236,0.144,-80.1,-23.1,-39.9,-17.6,-20,21.1,0.739890744,-0.0299081393,-0.658253731,-0.135227515
668,1673538,685180,0.726,0.224,0.14,-77.8,-27.9,-36.6,-17.6,-20,21.1,0.739341411,-0.030732139,-0.658497879,-0.136906034
669,1676577,685180,0.722,0.224,0.144,-75,-32.5,-33.7,-17.8,-20.4,21.1,0.73873104,-0.0315256203,-0.658833583,-0.138523515
670,1678879,685180,0.733,0.263,0.156,-71.9,-36.5,-31.5,-17.8,-20.4,21.1,0.738059633,-0.0323801386,-0.659230323,-0.140018921
671,1681080,685180,0.729,0.263,0.152,-68.5,-39.8,-29.9,-17.8,-20.4,21.1,0.737327189,-0.0331736198,-0.659688101,-0.141453291
672,1683326,685190,0.725,0.283,0.156,-65,-42,-29,-17.8,-20.4,21.1,0.736594745,-0.0339365825,-0.660176397,-0.142796106
673,1685415,685190,0.721,0.31,0.172,-61.4,-43.2,-28.5,-17.2,-20.5,20.9,0.735831782,-0.0346385083,-0.660695212,-0.14413892
674,1687600,685190,0.721,0.31,0.172,-61.4,-43.2,-28.5,-17.2,-20.5,20.9,0.735831782,-0.0346385083,-0.660695212,-0.14413892
675,1690954,685190,0.749,0.349,0.161,-53.6,-42.8,-28.7,-17.2,-20.5,20.9,0.734305857,-0.0358897671,-0.661763359,-0.14661092
676,1692579,685200,0.745,0.377,0.149,-49,-41,-29.3,-17.2,-20.5,20.9,0.733603931,-0.0363780633,-0.662312693,-0.147740104
677,1695800,685200,0.741,0.377,0.142,-44.3,-38.2,-30.5,-17.1,-21.1,20.6,0.732902005,-0.0367748039,-0.662800989,-0.148838771
678,1698665,685200,0.749,0.393,0.138,-40.3,-34.9,-31.9,-17.1,-21.1,20.6,0.732261116,-0.037079989,-0.663258766,-0.149906919
679,1700151,685200,0.749,0.408,0.138,-37.3,-31.5,-34.1,-17.1,-21.1,20.6,0.731650746,-0.0372631001,-0.663655507,-0.150975066
680,1702968,685210,0.745,0.42,0.138,-34.8,-28.7,-37.5,-17.1,-21.1,20.6,0.731101413,-0.0373851741,-0.664021729,-0.152043214
681,1706220,685210,0.764,0.479,0.138,-32.3,-26.5,-42.4,-17.5,-21.8,21.2,0.73055208,-0.0373546556,-0.664387951,-0.153172399
682,1707623,685210,0.776,0.506,0.135,-30.4,-25.7,-48.3,-17.5,-21.8,21.2,0.729972228,-0.0372325816,-0.664723655,-0.154362621
683,1710886,685210,0.788,0.51,0.123,-30.1,-26.5,-54.2,-17.5,-21.8,21.2,0.729392376,-0.037018952,-0.665089877,-0.155644398
684,1712818,685220,0.846,0.592,0.119,-32.1,-28.8,-59.2,-17.5,-21.8,21.2,0.728751488,-0.0367748039,-0.665486618,-0.15704825
685,1715885,685220,0.862,0.596,0.115,-36.8,-32.5,-62.6,-16.3,-21.4,21.1,0.728019044,-0.0365611744,-0.665944395,-0.158543657
686,1718813,685220,0.901,0.623,0.114,-44.1,-36.7,-64.2,-16.3,-21.4,21.1,0.727225562,-0.0364696188,-0.666402173,-0.160161138
687,1720214,685220,0.905,0.607,0.087,-53.7,-41.4,-63.6,-16.3,-21.4,21.1,0.726371044,-0.0365306558,-0.666920988,-0.161931211
688,1723442,685230,0.952,0.626,0.106,-64.7,-46.4,-61.3,-16.3,-21.4,21.1,0.72542497,-0.0368358409,-0.667470321,-0.163823359
689,1726304,685230,1.003,0.649,0.105,-76.3,-51.6,-58.6,-16.1,-22.1,21.2,0.724387341,-0.0373546556,-0.668080691,-0.165807062
690,1728684,685230,1.03,0.637,0.096,-87.8,-57,-56.4,-16.1,-22.1,21.2,0.723288675,-0.0381176183,-0.668691061,-0.167943358
691,1730760,685230,1.022,0.606,0.092,-99.3,-62.4,-54.6,-16.1,-22.1,21.2,0.722098453,-0.0390942106,-0.669362468,-0.170201727
692,1733594,685240,1.007,0.575,0.096,-111,-67.6,-52.3,-16.1,-22.1,21.2,0.720816675,-0.040375988,-0.670064394,-0.172582171
693,1735108,685240,1.014,0.563,0.104,-123,-72.3,-50,-15.8,-22.5,21,0.719443342,-0.0418408765,-0.67076632,-0.175115207
694,1739109,685240,1.05,0.554,0.103,-135,-76.6,-49.3,-15.8,-22.5,21,0.718008972,-0.043549913,-0.671498764,-0.177770318
695,1741292,685240,1.085,0.523,0.063,-147.4,-81.1,-50.9,-15.8,-22.5,21,0.716483047,-0.0454115421,-0.672231208,-0.180669576
696,1743555,685250,1.116,0.515,0.039,-159.9,-85.6,-54.4,-15.8,-22.5,21,0.714835047,-0.0474562822,-0.672994171,-0.183782464
697,1746437,685250,1.128,0.5,0.027,-172.1,-89.8,-58.2,-15.5,-23.5,20.6,0.713095492,-0.0496536149,-0.673757134,-0.187108982
698,1747751,685250,1.156,0.48,-0.001,-183.2,-92.9,-61,-15.5,-23.5,20.6,0.711264382,-0.0519730216,-0.674520096,-0.190649129
699,1750972,685250,1.183,0.456,-0.017,-192.9,-94.5,-61.9,-15.5,-23.5,20.6,0.709402753,-0.0544450209,-0.675252541,-0.194341868
700,1753796,685260,1.203,0.425,-0.045,-201.4,-94.7,-60.6,-15.5,-23.5,20.6,0.707510605,-0.0570696127,-0.675923948,-0.198126164
701,1755959,685260,1.211,0.406,-0.057,-208.3,-93.3,-57.6,-15.7,-24.7,19.6,0.705618458,-0.0598467971,-0.676534318,-0.201971496
702,1758035,685260,1.219,0.343,-0.074,-213.3,-90.1,-53.5,-15.7,-24.7,19.6,0.703756829,-0.0627460555,-0.677053133,-0.205847346
703,1760323,685260,1.222,0.323,-0.074,-215.5,-84.9,-49.1,-15.7,-24.7,19.6,0.701956236,-0.0657063509,-0.677419355,-0.20966216
704,1762671,685270,1.223,0.296,-0.078,-214.8,-78.2,-44.9,-15.7,-24.7,19.6,0.700277718,-0.0686971648,-0.677694021,-0.213415937
705,1765763,685270,1.215,0.253,-0.079,-211.2,-70.9,-41.1,-13.9,-25.2,19,0.698721274,-0.0716269417,-0.677846614,-0.217017121
706,1767642,685270,1.211,0.233,-0.071,-205.1,-63.5,-38.1,-13.9,-25.2,19,0.697286905,-0.0744956816,-0.677907651,-0.220557268
707,1770503,685270,1.207,0.218,-0.071,-197,-56.7,-35.7,-13.9,-25.2,19,0.69594409,-0.0772423475,-0.677877132,-0.223914304
708,1773526,685280,1.203,0.21,-0.071,-187.6,-50.3,-34.1,-13.9,-25.2,19,0.694692831,-0.0798364208,-0.677785577,-0.227118748
709,1774988,685280,1.195,0.202,-0.059,-177.7,-44.8,-33,-13.7,-26,18.6,0.693563646,-0.082247383,-0.677632984,-0.230170598
710,1778246,685280,1.187,0.202,-0.063,-167.7,-40,-32.2,-13.7,-26,18.6,0.692495499,-0.0845057527,-0.677449873,-0.233069857
711,1781119,685280,1.168,0.21,-0.055,-158.3,-36.1,-31.4,-13.7,-26,18.6,0.691518906,-0.0866115299,-0.677236244,-0.235816523
712,1782615,685290,1.144,0.234,-0.054,-150,-33,-30.2,-13.7,-26,18.6,0.690572832,-0.0886257515,-0.677022614,-0.238441115
713,1786004,685290,1.137,0.246,-0.062,-143.2,-31,-28.6,-13.9,-26.3,18.1,0.689687796,-0.0905178991,-0.676747948,-0.240913114
714,1787456,685290,1.137,0.246,-0.07,-138.4,-30.3,-26.5,-13.9,-26.3,18.1,0.688833277,-0.0923490097,-0.676564837,-0.243293558
715,1790363,685290,1.133,0.254,-0.077,-135.6,-30.4,-24.4,-13.9,-26.3,18.1,0.687978759,-0.0942106388,-0.676351207,-0.245612964
716,1792705,685300,1.125,0.258,-0.093,-134.3,-31,-22.7,-13.9,-26.3,18.1,0.687124241,-0.0960417493,-0.676137577,-0.247871334
717,1795806,685300,1.117,0.266,-0.093,-133.7,-31.6,-21.3,-13.3,-27,17.9,0.686239204,-0.0979033784,-0.675923948,-0.250099185
718,1797944,685300,1.109,0.27,-0.104,-133.2,-31.9,-20.2,-13.3,-27,17.9,0.685384686,-0.0997650075,-0.675710318,-0.252296518
719,1800261,685300,1.098,0.27,-0.104,-132.3,-31.9,-19,-13.3,-27,17.9,0.684499649,-0.101657155,-0.675527207,-0.254463332
720,1803388,685310,1.078,0.267,-0.104,-131,-31.7,-18,-13.3,-27,17.9,0.683645131,-0.103518784,-0.675283059,-0.256599628
721,1806169,685310,1.074,0.267,-0.107,-129.6,-31.2,-17.1,-14.6,-28,17.3,0.682790613,-0.105380413,-0.67506943,-0.258674886
722,1807685,685310,1.066,0.263,-0.107,-128.4,-30.6,-16.7,-14.6,-28,17.3,0.681936094,-0.107211524,-0.674825282,-0.260750145
723,1810757,685310,1.059,0.251,-0.115,-127.8,-29.8,-16.8,-14.6,-28,17.3,0.681112094,-0.109042634,-0.674581133,-0.262825404
724,1813711,685320,1.051,0.252,-0.123,-127.7,-28.8,-17.6,-14.6,-28,17.3,0.680288095,-0.110843226,-0.674336985,-0.264900662
725,1815286,685320,1.039,0.244,-0.119,-128.2,-27.5,-18.8,-12.9,-28.3,17,0.679464095,-0.1126133,-0.6740318,-0.266975921
726,1818320,685320,1.035,0.244,-0.123,-129.2,-26,-20.3,-12.9,-28.3,17,0.678640095,-0.114352855,-0.673726615,-0.269112217
727,1820973,685320,1.035,0.228,-0.131,-130.5,-24.4,-22,-12.9,-28.3,17,0.677816095,-0.116153447,-0.673360393,-0.271309549
728,1822512,685330,1.028,0.225,-0.138,-132.1,-22.7,-23.7,-12.9,-28.3,17,0.676992096,-0.117893002,-0.672963652,-0.2735374
729,1825450,685330,1.024,0.225,-0.134,-134,-21,-25.2,-12.4,-28.8,16.3,0.676198614,-0.119632557,-0.672536393,-0.275826289
730,1828718,685330,1.035,0.228,-0.135,-136.1,-19.6,-26.6,-12.4,-28.8,16.3,0.675374615,-0.121341594,-0.672078616,-0.278176214
731,1830512,685330,1.028,0.229,-0.134,-138.6,-18.4,-27.5,-12.4,-28.8,16.3,0.674581133,-0.123111667,-0.67159032,-0.280556658
732,1832873,685340,1.035,0.217,-0.143,-141.3,-17.8,-27.7,-12.4,-28.8,16.3,0.673757134,-0.124881741,-0.671040986,-0.282998138
733,1835512,685340,1.035,0.201,-0.154,-144.5,-17.7,-27.3,-12.3,-29,15.8,0.672933134,-0.126712851,-0.670491653,-0.285470138
734,1838425,685340,1.047,0.186,-0.163,-147.9,-18,-26.6,-12.3,-29,15.8,0.672078616,-0.128604999,-0.669911802,-0.287972655
735,1841173,685340,1.051,0.174,-0.159,-150.9,-18.7,-26,-12.3,-29,15.8,0.671224097,-0.130558184,-0.669301431,-0.290505692
736,1842534,685350,1.063,0.174,-0.159,-152.9,-19.4,-26,-12.3,-29,15.8,0.670339061,-0.132541887,-0.668691061,-0.293038728
737,1845495,685350,1.063,0.174,-0.159,-152.9,-19.4,-26,-12.3,-29,15.8,0.670339061,-0.132541887,-0.668691061,-0.293038728
738,1848743,685350,1.094,0.149,-0.152,-154.5,-20.7,-27.4,-12.4,-30.1,15,0.668111209,-0.136722922,-0.66789758,-0.297982727
739,1850679,685350,1.11,0.145,-0.153,-154.6,-21,-28.5,-12.4,-30.1,15,0.667165136,-0.138706626,-0.66728721,-0.3005768
740,1853569,685360,1.114,0.138,-0.157,-154.3,-20.9,-29.3,-12.4,-30.1,15,0.666188543,-0.14065981,-0.66667684,-0.303201392
741,1855664,685360,1.125,0.141,-0.141,-153.7,-20.6,-30.1,-13.7,-30.5,14.5,0.665211951,-0.142582476,-0.666035951,-0.305795465
742,1858794,685360,1.125,0.149,-0.125,-152.4,-19.8,-30.6,-13.7,-30.5,14.5,0.664235359,-0.144474624,-0.665395062,-0.308389538
743,1860317,685360,1.129,0.152,-0.118,-150.7,-18.6,-30.8,-13.7,-30.5,14.5,0.663289285,-0.146336253,-0.664754173,-0.310983612
744,1863602,685370,1.117,0.164,-0.102,-148.6,-17.1,-30.7,-13.7,-30.5,14.5,0.662343211,-0.148167364,-0.664082766,-0.313516648
745,1865647,685370,1.109,0.172,-0.09,-146.4,-15.8,-30.2,-12,-31,13.8,0.661427656,-0.149937437,-0.663411359,-0.316019166
746,1868713,685370,1.109,0.18,-0.082,-144.5,-15.1,-29.6,-12,-31,13.8,0.660542619,-0.151707511,-0.662709433,-0.318491165
747,1870362,685370,1.102,0.188,-0.078,-142.7,-14.8,-29,-12,-31,13.8,0.659627064,-0.153447066,-0.662038026,-0.320932646
748,1873359,685380,1.086,0.207,-0.069,-140.8,-14.9,-28.3,-12,-31,13.8,0.658742027,-0.155156102,-0.661366619,-0.323313089
749,1876144,685380,1.078,0.211,-0.061,-138.7,-15.4,-27.6,-11.8,-31.4,13.1,0.65785699,-0.156865139,-0.660695212,-0.325663015
750,1877692,685380,1.066,0.219,-0.057,-136.4,-16,-27.1,-11.8,-31.4,13.1,0.656971953,-0.158543657,-0.660023804,-0.327951903
751,1880980,685380,1.051,0.235,-0.049,-133.7,-16.6,-27,-11.8,-31.4,13.1,0.656056398,-0.160191656,-0.659413434,-0.330210273
752,1882485,685390,1.047,0.247,-0.048,-131,-17.1,-27.3,-11.8,-31.4,13.1,0.655171361,-0.161809137,-0.658803064,-0.332438124
753,1885311,685390,1.035,0.255,-0.048,-128.4,-17.5,-27.6,-11.3,-32.3,12.4,0.654255806,-0.163365581,-0.658223212,-0.334604938
754,1887839,685390,1.023,0.259,-0.048,-126.2,-17.6,-28.1,-11.3,-32.3,12.4,0.653309732,-0.164891507,-0.657643361,-0.336741234
755,1891034,685390,1.008,0.267,-0.044,-124.5,-17.4,-28.5,-11.3,-32.3,12.4,0.652424696,-0.166386914,-0.657094028,-0.338877529
756,1892746,685400,1.004,0.267,-0.044,-123.3,-16.9,-29.1,-11.3,-32.3,12.4,0.65150914,-0.167851802,-0.656514176,-0.341013825
757,1895520,685400,1.004,0.267,-0.044,-123.3,-16.9,-29.1,-11.3,-32.3,12.4,0.65150914,-0.167851802,-0.656514176,-0.341013825
758,1898903,685400,0.996,0.271,-0.051,-121.5,-14.8,-31,-10.6,-32.2,11.7,0.649403363,-0.170659505,-0.655690176,-0.345164342
759,1901026,685400,0.996,0.275,-0.047,-120.3,-13.6,-32.2,-10.6,-32.2,11.7,0.648518326,-0.172002319,-0.655110324,-0.347270119
760,1903831,685410,0.996,0.275,-0.043,-118.9,-12.5,-33.3,-10.6,-32.2,11.7,0.64763329,-0.173314615,-0.654499954,-0.349406415
761,1905506,685410,1,0.271,-0.047,-117.2,-11.5,-34.3,-12.9,-32.8,11.5,0.646778771,-0.174565874,-0.653920103,-0.351512192
762,1908524,685410,1.004,0.275,-0.051,-115.6,-10.5,-35.1,-12.9,-32.8,11.5,0.645924253,-0.175756096,-0.653309732,-0.353617969
763,1911397,685410,1.008,0.275,-0.044,-114.2,-9.5,-35.9,-12.9,-32.8,11.5,0.645069735,-0.176946318,-0.652699362,-0.355723746
764,1912953,685420,1.008,0.271,-0.044,-113.1,-8.7,-36.6,-12.9,-32.8,11.5,0.644215217,-0.178075503,-0.652058473,-0.357799005
765,1916119,685420,1.015,0.263,-0.048,-112.4,-8.1,-37.1,-11.1,-33.2,11,0.643360698,-0.179204688,-0.651448103,-0.359904782
766,1918173,685420,1.023,0.263,-0.044,-112.1,-7.7,-37.6,-11.1,-33.2,11,0.64250618,-0.180303354,-0.650837733,-0.361980041
767,1920432,685420,1.023,0.255,-0.044,-112,-7.4,-37.8,-11.1,-33.2,11,0.64168218,-0.181371502,-0.650196844,-0.364085818
768,1922747,685430,1.031,0.251,-0.048,-112.3,-7.2,-38,-11.1,-33.2,11,0.640827662,-0.182470168,-0.649555956,-0.366191595
769,1925114,685430,1.035,0.247,-0.048,-112.8,-7.1,-38.2,-10.6,-33.4,10.3,0.639973144,-0.183568834,-0.648884548,-0.368297372
770,1928908,685430,1.035,0.243,-0.04,-113.6,-7.2,-38.3,-10.6,-33.4,10.3,0.639088107,-0.184667501,-0.64824366,-0.37040315
771,1931240,685430,1.035,0.231,-0.045,-114.4,-7.4,-38.6,-10.6,-33.4,10.3,0.63820307,-0.185766167,-0.647572253,-0.372508927
772,1933470,685440,1.031,0.219,-0.045,-115.5,-7.8,-38.7,-10.6,-33.4,10.3,0.637318033,-0.186895352,-0.646900845,-0.374675741
773,1935464,685440,1.031,0.219,-0.049,-116.6,-8.3,-38.8,-10.5,-33.5,10,0.636402478,-0.188055055,-0.64619892,-0.376812037
774,1937740,685440,1.027,0.212,-0.045,-117.7,-9,-38.6,-10.5,-33.5,10,0.635456404,-0.189214759,-0.645496994,-0.378978851
775,1940275,685440,1.027,0.211,-0.041,-118.8,-9.5,-38.3,-10.5,-33.5,10,0.634510331,-0.190374462,-0.644825587,-0.381145665
776,1942590,685450,1.023,0.2,-0.049,-119.8,-9.9,-37.9,-10.5,-33.5,10,0.633564257,-0.191595202,-0.644123661,-0.383281961
777,1947100,685450,1.023,0.2,-0.049,-119.8,-9.9,-37.9,-10.5,-33.5,10,0.633564257,-0.191595202,-0.644123661,-0.383281961
778,1949238,685450,1.015,0.184,-0.045,-121.9,-11.1,-35.9,-10.3,-34.1,9.3,0.631000702,-0.194799646,-0.643574328,-0.386852626
779,1951488,685450,1.012,0.176,-0.041,-122.8,-12,-34.6,-10.3,-34.1,9.3,0.63002411,-0.196111942,-0.642841884,-0.388988922
780,1953088,685460,1.008,0.169,-0.045,-123.5,-12.8,-33.1,-10.3,-34.1,9.3,0.629016999,-0.197454756,-0.642109439,-0.391094699
781,1955489,685460,1,0.165,-0.037,-124.2,-13.5,-31.9,-11.5,-34.5,8.6,0.628009888,-0.198828089,-0.641376995,-0.393230995
782,1957804,685460,0.996,0.161,-0.029,-124.6,-14.2,-30.8,-11.5,-34.5,8.6,0.627002777,-0.200201422,-0.640644551,-0.395336772
783,1961885,685460,0.996,0.161,-0.033,-125,-14.7,-30,-11.5,-34.5,8.6,0.625965148,-0.201635792,-0.639881588,-0.397442549
784,1964127,685470,0.996,0.161,-0.033,-125,-14.7,-30,-11.5,-34.5,8.6,0.625965148,-0.201635792,-0.639881588,-0.397442549
785,1966338,685470,0.984,0.153,-0.029,-124.7,-15.1,-28.8,-9.8,-34.4,8.4,0.623981445,-0.204474013,-0.638386181,-0.401593066
786,1968533,685470,0.976,0.153,-0.025,-124.4,-15.2,-28.3,-9.8,-34.4,8.4,0.622943815,-0.205908383,-0.637623218,-0.403637806
787,1970307,685470,0.976,0.157,-0.021,-123.9,-15.3,-27.8,-9.8,-34.4,8.4,0.621936705,-0.207342753,-0.636860256,-0.405682546
788,1974355,685480,0.965,0.149,-0.021,-123.1,-15.3,-27.3,-9.8,-34.4,8.4,0.620929594,-0.208777123,-0.636097293,-0.40766625
789,1976435,685480,0.969,0.153,-0.021,-122,-15.3,-26.7,-9.3,-34.7,7.5,0.619891964,-0.210180975,-0.63533433,-0.409680471
790,1978726,685480,0.957,0.149,-0.025,-120.7,-15.2,-26.3,-9.3,-34.7,7.5,0.618915372,-0.211584826,-0.634571368,-0.411633656
791,1981445,685480,0.957,0.157,-0.017,-119.2,-15,-25.9,-9.3,-34.7,7.5,0.617908261,-0.212988678,-0.633838923,-0.413556322
792,1983982,685490,0.953,0.153,-0.021,-117.5,-15,-25.7,-9.3,-34.7,7.5,0.616931669,-0.214331492,-0.633106479,-0.415448469
793,1986590,685490,0.953,0.157,-0.02,-115.8,-15,-25.7,-9.5,-35.7,6.8,0.615924558,-0.215674306,-0.632374035,-0.417340617
794,1989527,685490,0.929,0.146,-0.02,-114.3,-15,-25.9,-9.5,-35.7,6.8,0.614947966,-0.216986602,-0.631641591,-0.419171728
795,1990021,685490,0.941,0.149,-0.016,-112.5,-14.9,-26.2,-9.5,-35.7,6.8,0.613971374,-0.21826838,-0.630939665,-0.421002838
796,1993979,685500,0.941,0.149,-0.016,-112.5,-14.9,-26.2,-9.5,-35.7,6.8,0.613971374,-0.21826838,-0.630939665,-0.421002838
797,1996216,685500,0.937,0.149,-0.012,-110.8,-14.7,-26.8,-9.5,-35.7,6.8,0.612994781,-0.219519639,-0.630237739,-0.422833949
798,1998033,685500,0.933,0.149,-0.012,-106.9,-14.6,-28.7,-9.1,-35.4,6.6,0.610919523,-0.222266305,-0.629169591,-0.426007874
799,2000951,685500,0.937,0.149,-0.005,-104.7,-14.8,-29.8,-9.1,-35.4,6.6,0.60994293,-0.223395489,-0.628528703,-0.427777947
800,2003004,685510,0.937,0.149,-0.005,-102.2,-15.2,-30.7,-9.1,-35.4,6.6,0.60893582,-0.224463637,-0.627918332,-0.429517502
801,2005180,685510,0.949,0.161,0.002,-99.5,-15.8,-31.7,-10.3,-35.6,5.7,0.607928709,-0.225501267,-0.627338481,-0.431226539
802,2007694,685510,0.949,0.161,0.002,-96.6,-16.5,-32.2,-10.3,-35.6,5.7,0.606921598,-0.226508377,-0.626819666,-0.432874538
803,2011260,685510,0.953,0.168,0.014,-93.8,-17.3,-32.7,-10.3,-35.6,5.7,0.605914487,-0.227454451,-0.62633137,-0.434522538
804,2012691,685520,0.961,0.184,0.018,-91.2,-18,-32.4,-10.3,-35.6,5.7,0.604907376,-0.228400525,-0.625843074,-0.4361095
805,2015856,685520,0.964,0.188,0.022,-89.1,-18.6,-31.7,-9.1,-35.6,5.7,0.603900266,-0.22931608,-0.625415815,-0.437635426
806,2017837,685520,0.968,0.199,0.026,-87.5,-19.1,-30.4,-9.1,-35.6,5.7,0.602923673,-0.230231635,-0.624988556,-0.439130833
807,2020219,685520,0.972,0.203,0.03,-86.6,-19.6,-28.9,-9.1,-35.6,5.7,0.601916562,-0.231147191,-0.624561296,-0.440595721
808,2023351,685530,0.968,0.207,0.026,-86.1,-20,-27.2,-9.1,-35.6,5.7,0.600970489,-0.232123783,-0.624134037,-0.442030091
809,2025604,685530,0.968,0.211,0.026,-85.9,-20.3,-25.5,-9,-35.9,5.5,0.599993896,-0.233100375,-0.62367626,-0.443433943
810,2027803,685530,0.96,0.203,0.03,-85.9,-20.5,-23.8,-9,-35.9,5.5,0.599047823,-0.234076968,-0.623249001,-0.444807276
811,2030955,685530,0.96,0.2,0.026,-85.9,-20.5,-22.3,-9,-35.9,5.5,0.598101749,-0.235114597,-0.622791223,-0.44615009
812,2033763,685540,0.968,0.203,0.026,-85.7,-20.4,-21.5,-9,-35.9,5.5,0.597186193,-0.236121708,-0.622333445,-0.447492904
813,2035111,685540,0.972,0.203,0.026,-85.1,-20.2,-21.6,-9,-36.3,4.6,0.596270638,-0.237128819,-0.621875668,-0.448835719
814,2038438,685540,0.972,0.203,0.026,-84.2,-20,-22.4,-9,-36.3,4.6,0.595324564,-0.238135929,-0.62141789,-0.450178533
815,2040416,685540,0.972,0.188,0.022,-83.1,-19.9,-23.5,-9,-36.3,4.6,0.594409009,-0.239082003,-0.620990631,-0.451490829
816,2042725,685550,0.968,0.184,0.022,-82.2,-19.6,-24.6,-9,-36.3,4.6,0.593462935,-0.239997559,-0.620563372,-0.452833644
817,2045945,685550,0.968,0.184,0.022,-82.2,-19.6,-24.6,-9,-36.3,4.6,0.593462935,-0.239997559,-0.620563372,-0.452833644
818,2047950,685550,0.992,0.172,0.021,-80.7,-19.1,-26.8,-8.6,-36.5,4,0.591479232,-0.242255928,-0.61998352,-0.455000458
819,2050305,685550,1,0.176,0.021,-79.8,-19.2,-27.8,-8.6,-36.5,4,0.59050264,-0.243110446,-0.619586779,-0.456343272
820,2052557,685560,1.007,0.168,0.025,-79,-19.3,-28.5,-8.6,-36.5,4,0.589556566,-0.243934446,-0.619190039,-0.457686087
821,2055027,685560,1.011,0.16,0.021,-78.7,-19.3,-28.5,-9.4,-36.7,3.8,0.588579974,-0.244758446,-0.618823817,-0.458998383
822,2058463,685560,1.015,0.14,0.016,-78.8,-19,-27.8,-9.4,-36.7,3.8,0.5876339,-0.245582446,-0.618427076,-0.460310678
823,2060476,685560,1.007,0.125,0.012,-79.5,-18.1,-26.4,-9.4,-36.7,3.8,0.586687826,-0.246406446,-0.617999817,-0.461653493
824,2062747,685570,1.004,0.125,0.012,-80.4,-16.9,-24.9,-9.4,-36.7,3.8,0.585772271,-0.247291482,-0.617542039,-0.462965789
825,2065258,685570,1,0.109,0.02,-81.4,-15.4,-23.5,-8.2,-36.6,3.7,0.584887234,-0.248146001,-0.617023225,-0.464278085
826,2068844,685570,0.996,0.097,0.024,-82.1,-13.9,-22.4,-8.2,-36.6,3.7,0.584032716,-0.249061556,-0.61650441,-0.465590381
827,2071108,685570,1,0.089,0.012,-82.3,-12.5,-21.7,-8.2,-36.6,3.7,0.583178198,-0.249916074,-0.615924558,-0.466902676
828,2073151,685580,0.996,0.082,0.012,-82.1,-11.5,-21.4,-8.2,-36.6,3.7,0.582354198,-0.250801111,-0.615375225,-0.468214972
829,2075389,685580,0.988,0.074,0.02,-81.5,-10.8,-21.1,-8.3,-36.8,3,0.581560717,-0.251655629,-0.614795373,-0.469527268
830,2077756,685580,0.988,0.07,0.02,-80.4,-10.3,-21,-8.3,-36.8,3,0.580767235,-0.252510147,-0.614215522,-0.470809046
831,2080312,685580,0.988,0.07,0.024,-79,-10.3,-20.9,-8.3,-36.8,3,0.579973754,-0.253334147,-0.61363567,-0.472060305
832,2083981,685590,0.988,0.066,0.024,-77.2,-10.8,-20.8,-8.3,-36.8,3,0.579180273,-0.254158147,-0.613086337,-0.473311563
833,2086224,685590,1.007,0.066,0.023,-75,-11.7,-20.9,-8.1,-36.9,2.4,0.578386792,-0.254951628,-0.612567522,-0.474501785
834,2088429,685590,1.011,0.069,0.019,-72.2,-13,-21.1,-8.1,-36.9,2.4,0.57759331,-0.255714591,-0.612109745,-0.475661489
835,2091670,685590,1.015,0.077,0.023,-69,-14,-21.3,-8.1,-36.9,2.4,0.576799829,-0.256447035,-0.611682485,-0.476790674
836,2093413,685600,1.007,0.085,0.031,-65.3,-14.9,-21.3,-8.1,-36.9,2.4,0.576006348,-0.257118442,-0.611316263,-0.477828303
837,2095517,685600,1.007,0.085,0.031,-65.3,-14.9,-21.3,-8.1,-36.9,2.4,0.576006348,-0.257118442,-0.611316263,-0.477828303
838,2098425,685600,1.023,0.1,0.035,-57.6,-15.6,-20.4,-7.8,-37,2.4,0.574907682,-0.259956664,-0.610736412,-0.478347118
839,2100005,685600,1.023,0.112,0.035,-53.8,-15.8,-19.7,-7.8,-37,2.4,0.574205756,-0.260536515,-0.610492264,-0.479232154
840,2102783,685610,1.031,0.128,0.032,-50.1,-16,-18.9,-7.8,-37,2.4,0.57350383,-0.261085849,-0.610278634,-0.480056154
841,2105988,685610,1.039,0.14,0.035,-46.4,-16.3,-18,-8.3,-37.2,1.8,0.572832423,-0.261574145,-0.610095523,-0.480788598
842,2107443,685610,1.031,0.143,0.044,-43,-16.3,-17.1,-8.3,-37.2,1.8,0.572191534,-0.262062441,-0.60994293,-0.481490524
843,2110357,685610,1.027,0.159,0.048,-39.6,-16.2,-16.2,-8.3,-37.2,1.8,0.571581164,-0.262520219,-0.609820856,-0.482131413
844,2113513,685620,1.027,0.175,0.056,-36.5,-15.7,-15.2,-8.3,-37.2,1.8,0.571001312,-0.262947478,-0.609729301,-0.482711264
845,2115027,685620,1.031,0.179,0.052,-33.8,-15.3,-14.2,-8.4,-37.3,1.6,0.570451979,-0.2633137,-0.609637745,-0.483260598
846,2118077,685620,1.031,0.183,0.048,-31.4,-14.9,-13.3,-8.4,-37.3,1.6,0.569933164,-0.26371044,-0.609576708,-0.483748894
847,2120317,685620,1.015,0.187,0.056,-29.2,-14.5,-12.5,-8.4,-37.3,1.6,0.569444868,-0.264046144,-0.609515671,-0.484206671
848,2122616,685630,1.015,0.187,0.056,-29.2,-14.5,-12.5,-8.4,-37.3,1.6,0.569444868,-0.264046144,-0.609515671,-0.484206671
849,2125132,685630,1.015,0.198,0.06,-25.2,-12.7,-11.2,-7.8,-37.3,1.9,0.568529313,-0.264687033,-0.609424116,-0.485030671
850,2128702,685630,1.011,0.218,0.064,-22.7,-11.3,-10.8,-7.8,-37.3,1.9,0.568132572,-0.264931181,-0.609393597,-0.485427412
851,2130872,685630,1.011,0.222,0.06,-19.8,-9.9,-10.7,-7.8,-37.3,1.9,0.56776635,-0.26514481,-0.609363079,-0.485763115
852,2133896,685640,1.011,0.226,0.064,-16.8,-8.9,-10.7,-7.8,-37.3,1.9,0.567430647,-0.265297403,-0.609363079,-0.4860683
853,2136124,685640,1.003,0.226,0.057,-14.1,-8.3,-10.9,-7.9,-37.2,1.9,0.567125462,-0.265419477,-0.609363079,-0.486342967
854,2138427,685640,1.003,0.226,0.053,-12.1,-8.1,-11.1,-7.9,-37.2,1.9,0.566820276,-0.265511032,-0.609424116,-0.486587115
855,2139963,685640,1.003,0.234,0.057,-10.7,-8.2,-11.4,-7.9,-37.2,1.9,0.56654561,-0.265572069,-0.609454634,-0.486800745
856,2143788,685650,1.011,0.241,0.065,-9.2,-8.5,-11.9,-7.9,-37.2,1.9,0.566240425,-0.265633106,-0.60954619,-0.487044893
857,2145265,685650,1.011,0.241,0.065,-9.2,-8.5,-11.9,-7.9,-37.2,1.9,0.566240425,-0.265633106,-0.60954619,-0.487044893
858,2148457,685650,1.023,0.273,0.077,-5.9,-8.8,-13.7,-7.9,-37.3,1.4,0.565660573,-0.266243477,-0.609973449,-0.486800745
859,2150430,685650,1.03,0.276,0.076,-4.8,-8.9,-14,-7.9,-37.3,1.4,0.565355388,-0.266212958,-0.610126041,-0.487014374
860,2152740,685660,1.038,0.288,0.08,-4.5,-9,-13.2,-7.9,-37.3,1.4,0.565080721,-0.26618244,-0.610248115,-0.487197485
861,2155930,685660,1.007,0.277,0.081,-5.4,-8.8,-11.5,-7.9,-37.3,1.5,0.564806055,-0.26618244,-0.610339671,-0.487350078
862,2157976,685660,0.991,0.273,0.081,-7.3,-8.3,-9.1,-7.9,-37.3,1.5,0.564561907,-0.266243477,-0.610461745,-0.487533189
863,2160259,685660,0.991,0.265,0.081,-9.9,-7.5,-6.9,-7.9,-37.3,1.5,0.564317759,-0.266365551,-0.610492264,-0.487685781
864,2163506,685670,1.003,0.253,0.081,-12.5,-6.5,-5.2,-7.9,-37.3,1.5,0.564104129,-0.266518143,-0.610461745,-0.487899411
865,2165002,685670,0.995,0.245,0.085,-14.4,-5.7,-4.6,-8.2,-37,1.7,0.5638905,-0.266701254,-0.610400708,-0.488113041
866,2167600,685670,0.991,0.238,0.081,-15.4,-5.1,-4.8,-8.2,-37,1.7,0.56367687,-0.266884365,-0.610339671,-0.488357189
867,2171016,685670,0.988,0.238,0.085,-15.4,-4.7,-5.3,-8.2,-37,1.7,0.56346324,-0.267036958,-0.610248115,-0.488570818
868,2172524,685680,0.988,0.234,0.085,-14.6,-4.5,-5.5,-8.2,-37,1.7,0.563280129,-0.26718955,-0.610187078,-0.488814966
869,2177174,685680,0.988,0.234,0.085,-13.4,-4.7,-5.2,-8,-37.3,1.1,0.5630665,-0.267342143,-0.610126041,-0.489028596
870,2179336,685680,0.988,0.23,0.084,-12.1,-5,-4.6,-8,-37.3,1.1,0.562883389,-0.267494736,-0.610095523,-0.489242225
871,2181866,685680,0.98,0.222,0.085,-10.9,-5.2,-3.9,-8,-37.3,1.1,0.562700278,-0.26761681,-0.610065004,-0.489394818
872,2184055,685690,0.984,0.23,0.085,-9.8,-5.3,-3.1,-8,-37.3,1.1,0.562547685,-0.267769402,-0.610034486,-0.489516892
873,2186281,685690,0.988,0.23,0.081,-8.9,-5.3,-2.3,-8,-37.3,1.4,0.562395093,-0.267891476,-0.610003967,-0.489638966
874,2188585,685690,0.984,0.222,0.081,-8.2,-5.4,-1.5,-8,-37.3,1.4,0.562273019,-0.268044069,-0.610003967,-0.489730522
875,2190926,685690,0.984,0.222,0.088,-7.5,-5.4,-0.7,-8,-37.3,1.4,0.562150945,-0.268166143,-0.610003967,-0.489822077
876,2192895,685700,0.984,0.222,0.084,-6.7,-5.4,-0.1,-8,-37.3,1.4,0.562028871,-0.268318735,-0.610003967,-0.489883114
877,2195238,685700,0.984,0.222,0.084,-6.7,-5.4,-0.1,-8,-37.3,1.4,0.562028871,-0.268318735,-0.610003967,-0.489883114
878,2197709,685700,0.976,0.234,0.077,-5.2,-5.7,1,-7.8,-37,1.2,0.561967833,-0.268990143,-0.609973449,-0.489608448
879,2200012,685700,0.976,0.234,0.085,-4.3,-5.9,1.4,-7.8,-37,1.2,0.561876278,-0.269112217,-0.610003967,-0.489608448
880,2204373,685710,0.968,0.238,0.085,-3.3,-6.1,1.6,-7.8,-37,1.2,0.561784722,-0.269234291,-0.610034486,-0.489608448
881,2206585,685710,0.964,0.242,0.085,-2.1,-6.2,1.7,-7.6,-37.6,1.3,0.561693167,-0.269356365,-0.610065004,-0.489577929
882,2208834,685710,0.972,0.242,0.085,-0.8,-6.4,1.7,-7.6,-37.6,1.3,0.56163213,-0.269478439,-0.610126041,-0.489516892
883,2211044,685710,0.968,0.246,0.085,0.4,-6.5,2,-7.6,-37.6,1.3,0.561571093,-0.269569994,-0.610217597,-0.489455855
884,2212667,685720,0.96,0.253,0.097,1.7,-6.7,2.1,-7.6,-37.6,1.3,0.561510056,-0.269631031,-0.610309153,-0.489364299
885,2215157,685720,0.956,0.258,0.085,3.1,-6.7,2.1,-7.3,-36.9,1.6,0.561479537,-0.269692068,-0.610400708,-0.489242225
886,2217552,685720,0.956,0.265,0.085,4.6,-6.7,1.9,-7.3,-36.9,1.6,0.5614185,-0.269753105,-0.610522782,-0.489120151
887,2221880,685720,0.952,0.277,0.09,5.9,-6.4,1.8,-7.3,-36.9,1.6,0.561387982,-0.269753105,-0.610644856,-0.488998077
888,2224108,685730,0.948,0.273,0.086,7,-6.1,1.8,-7.3,-36.9,1.6,0.561387982,-0.269753105,-0.610797449,-0.488845485
889,2226293,685730,0.952,0.281,0.086,7.9,-5.9,1.9,-7.8,-37,1.6,0.561357463,-0.269753105,-0.610950041,-0.488662374
890,2228491,685730,0.952,0.285,0.082,8.6,-5.7,1.8,-7.8,-37,1.6,0.561357463,-0.269722587,-0.611102634,-0.488509781
891,2230744,685730,0.948,0.289,0.086,9.3,-5.6,1.6,-7.8,-37,1.6,0.561357463,-0.269692068,-0.611255226,-0.48832667
892,2232829,685740,0.944,0.293,0.09,10,-5.7,1.3,-7.8,-37,1.6,0.561357463,-0.26966155,-0.611407819,-0.488143559
893,2235098,685740,0.941,0.293,0.082,10.6,-5.8,0.9,-7.4,-36.6,1.7,0.561357463,-0.269600513,-0.61159093,-0.487960448
894,2238320,685740,0.941,0.297,0.09,11.3,-5.9,0.3,-7.4,-36.6,1.7,0.561326945,-0.269539476,-0.611774041,-0.487746818
895,2240371,685740,0.944,0.297,0.094,11.9,-5.9,-0.1,-7.4,-36.6,1.7,0.561326945,-0.26944792,-0.611987671,-0.487563707
896,2242592,685750,0.944,0.297,0.094,11.9,-5.9,-0.1,-7.4,-36.6,1.7,0.561326945,-0.26944792,-0.611987671,-0.487563707
897,2245533,685750,0.941,0.297,0.098,12.3,-5.9,-0.5,-7.4,-36.6,1.7,0.561326945,-0.269356365,-0.6122013,-0.487380596
898,2247833,685750,0.941,0.297,0.098,12.7,-5.9,-1.3,-7.6,-37,2.1,0.561174352,-0.269142735,-0.612750633,-0.486953337
899,2250109,685750,0.944,0.297,0.09,12.7,-5.9,-1.5,-7.6,-37,2.1,0.561174352,-0.269020661,-0.612964263,-0.486770226
900,2253060,685760,0.944,0.293,0.098,12.7,-5.9,-1.6,-7.6,-37,2.1,0.561143834,-0.268929106,-0.613177892,-0.486587115
901,2255340,685760,0.944,0.297,0.102,12.6,-5.7,-1.8,-7.5,-37.5,1.7,0.561113315,-0.268807031,-0.613391522,-0.486404004
902,2259371,685760,0.941,0.297,0.094,12.5,-5.5,-1.9,-7.5,-37.5,1.7,0.561113315,-0.268684957,-0.613605152,-0.486220893
903,2261550,685760,0.94,0.293,0.11,12.3,-5.2,-2,-7.5,-37.5,1.7,0.561082797,-0.268562883,-0.613818781,-0.486037782
904,2262809,685770,0.941,0.289,0.102,12.1,-5.1,-1.9,-7.5,-37.5,1.7,0.561052278,-0.268440809,-0.614001892,-0.485885189
905,2266127,685770,0.937,0.293,0.102,11.7,-4.9,-1.6,-8,-37.6,1.6,0.561052278,-0.268318735,-0.614215522,-0.485702078
906,2268350,685770,0.937,0.293,0.102,11.2,-4.9,-1.4,-8,-37.6,1.6,0.56102176,-0.26822718,-0.614398633,-0.485549486
907,2270302,685770,0.937,0.285,0.102,10.8,-4.9,-1.3,-8,-37.6,1.6,0.56102176,-0.268105106,-0.614581744,-0.485396893
908,2273706,685780,0.937,0.289,0.102,10.5,-5,-1.1,-8,-37.6,1.6,0.560991241,-0.26801355,-0.614764855,-0.485244301
909,2275211,685780,0.937,0.289,0.102,10.4,-5.1,-0.8,-8.5,-37.3,1.3,0.560991241,-0.267952513,-0.614947966,-0.48506119
910,2278066,685780,0.937,0.285,0.098,10.2,-5.4,0,-8.5,-37.3,1.3,0.560960723,-0.267860958,-0.615131077,-0.484908597
911,2281156,685780,0.937,0.285,0.098,10.1,-5.5,0.3,-8.5,-37.3,1.3,0.560960723,-0.267799921,-0.61528367,-0.484725486
912,2282542,685790,0.937,0.285,0.094,10.2,-5.6,0.6,-8.5,-37.3,1.3,0.560930204,-0.267738884,-0.615466781,-0.484542375
913,2285589,685790,0.941,0.285,0.09,10.2,-5.6,0.8,-8.6,-37.5,1.5,0.560930204,-0.267708365,-0.615649892,-0.484389782
914,2288763,685790,0.941,0.289,0.098,10.2,-5.5,1,-8.6,-37.5,1.5,0.560930204,-0.267647328,-0.615802484,-0.484206671
915,2290231,685790,0.941,0.289,0.094,10.2,-5.3,1.2,-8.6,-37.5,1.5,0.560930204,-0.267586291,-0.615985595,-0.483993042
916,2293769,685800,0.941,0.293,0.094,10.3,-5.2,1.4,-8.6,-37.5,1.5,0.560930204,-0.267555773,-0.616138188,-0.483809931
917,2295370,685800,0.941,0.293,0.094,10.3,-5.2,1.4,-8.6,-37.5,1.5,0.560930204,-0.267555773,-0.616138188,-0.483809931
918,2297564,685800,0.941,0.293,0.094,10.6,-5.4,1.7,-8.7,-37.2,1.7,0.560960723,-0.267494736,-0.616473891,-0.483382672
919,2301130,685800,0.948,0.301,0.09,10.7,-5.5,1.6,-8.7,-37.2,1.7,0.560960723,-0.267464217,-0.616657002,-0.483169042
920,2302760,685810,0.944,0.305,0.086,10.9,-5.5,1.5,-8.7,-37.2,1.7,0.560991241,-0.26740318,-0.616809595,-0.482985931
921,2305523,685810,0.944,0.309,0.086,11,-5.5,1.3,-7.5,-37.2,1.9,0.560991241,-0.267342143,-0.616992706,-0.482772301
922,2308837,685810,0.948,0.313,0.09,11.1,-5.4,1.2,-7.5,-37.2,1.9,0.560991241,-0.267281106,-0.617175817,-0.48258919
923,2311164,685810,0.948,0.316,0.09,11.2,-5.3,1.1,-7.5,-37.2,1.9,0.560991241,-0.267220069,-0.617358928,-0.482406079
924,2313506,685820,0.952,0.324,0.09,11.3,-5.1,0.8,-7.5,-37.2,1.9,0.560991241,-0.267128513,-0.617542039,-0.48219245
925,2315578,685820,0.948,0.332,0.09,11.6,-4.9,0.5,-8.6,-36.8,2.3,0.560991241,-0.267036958,-0.61772515,-0.482009339
926,2317761,685820,0.952,0.332,0.094,11.9,-4.5,0.2,-8.6,-36.8,2.3,0.56102176,-0.266945402,-0.617877743,-0.481826228
927,2321166,685820,0.952,0.336,0.09,12.1,-4.1,0,-8.6,-36.8,2.3,0.56102176,-0.266853847,-0.618060854,-0.481643117
928,2323416,685830,0.952,0.34,0.09,12.4,-3.8,-0.3,-8.6,-36.8,2.3,0.561052278,-0.266731773,-0.618243965,-0.481429487
929,2326799,685830,0.956,0.348,0.09,12.6,-3.6,-0.6,-8.5,-36.8,2.1,0.561052278,-0.266609699,-0.618427076,-0.481246376
930,2329582,685830,0.956,0.352,0.094,12.8,-3.2,-0.8,-8.5,-36.8,2.1,0.561082797,-0.266487625,-0.618610187,-0.481063265
931,2331752,685830,0.952,0.359,0.102,12.9,-2.9,-1.2,-8.5,-36.8,2.1,0.561113315,-0.266335032,-0.618793298,-0.480910672
932,2333959,685840,0.956,0.359,0.098,13,-2.7,-1.6,-8.5,-36.8,2.1,0.561143834,-0.26618244,-0.618976409,-0.480727561
933,2336336,685840,0.96,0.359,0.098,13,-2.6,-2,-8.5,-37,2,0.561143834,-0.266029847,-0.61915952,-0.480574969
934,2338666,685840,0.952,0.363,0.098,12.9,-2.4,-2.3,-8.5,-37,2,0.561174352,-0.265846736,-0.619342631,-0.480391858
935,2340926,685840,0.96,0.367,0.102,12.8,-2.2,-2.8,-8.5,-37,2,0.561174352,-0.265694143,-0.619495224,-0.480239265
936,2342938,685850,0.956,0.371,0.098,12.8,-2,-3.2,-8.5,-37,2,0.561204871,-0.265511032,-0.619678335,-0.480117191
937,2346689,685850,0.956,0.371,0.098,12.8,-2,-3.2,-8.5,-37,2,0.561204871,-0.265511032,-0.619678335,-0.480117191
938,2348990,685850,0.96,0.363,0.11,12.7,-1.3,-3.9,-8.3,-36.8,2.1,0.561052278,-0.264809107,-0.620136113,-0.480056154
939,2351443,685850,0.96,0.371,0.11,12.7,-1.1,-4.1,-8.3,-36.8,2.1,0.561082797,-0.264625996,-0.620319224,-0.47993408
940,2352995,685860,0.956,0.375,0.11,12.7,-0.8,-4.2,-8.3,-36.8,2.1,0.561082797,-0.264412366,-0.620471816,-0.479812006
941,2356319,685860,0.956,0.375,0.11,12.7,-0.6,-4.4,-7.1,-37.7,2.1,0.561113315,-0.264198737,-0.620654927,-0.479689932
942,2358188,685860,0.952,0.379,0.114,12.6,-0.3,-4.6,-7.1,-37.7,2.1,0.561113315,-0.263985107,-0.62080752,-0.479567858
943,2360325,685860,0.956,0.375,0.114,12.4,0,-4.8,-7.1,-37.7,2.1,0.561143834,-0.263771477,-0.620960112,-0.479476302
944,2363693,685870,0.952,0.375,0.114,12.2,0.2,-4.9,-7.1,-37.7,2.1,0.561174352,-0.263557848,-0.621112705,-0.479354228
945,2365306,685870,0.952,0.375,0.114,11.9,0.4,-4.9,-8.3,-37.3,2.4,0.561204871,-0.263344218,-0.621265297,-0.479262673
946,2368774,685870,0.952,0.375,0.114,11.4,0.8,-4.9,-8.3,-37.3,2.4,0.561204871,-0.26310007,-0.621387371,-0.479171117
947,2370431,685870,0.948,0.375,0.11,10.9,1.2,-4.8,-8.3,-37.3,2.4,0.561235389,-0.262886441,-0.621539964,-0.479079562
948,2372845,685880,0.952,0.371,0.114,10.5,1.5,-4.8,-8.3,-37.3,2.4,0.561265908,-0.26270333,-0.621662038,-0.478988006
949,2375215,685880,0.948,0.367,0.11,10.1,1.8,-4.7,-8.1,-37.6,2.4,0.561326945,-0.2624897,-0.621753594,-0.478957488
950,2377487,685880,0.952,0.367,0.118,9.6,2,-4.6,-8.1,-37.6,2.4,0.561357463,-0.26227607,-0.621845149,-0.478896451
951,2381455,685880,0.948,0.367,0.114,9,2.3,-4.5,-8.1,-37.6,2.4,0.561387982,-0.262092959,-0.621936705,-0.478835414
952,2383527,685890,0.952,0.367,0.114,8.5,2.6,-4.4,-8.1,-37.6,2.4,0.5614185,-0.26187933,-0.62202826,-0.478774377
953,2385296,685890,0.944,0.367,0.118,7.9,2.9,-4.5,-8.5,-37.3,2.5,0.561449019,-0.261696219,-0.622119816,-0.478743858
954,2388962,685890,0.948,0.367,0.114,7.3,3,-4.4,-8.5,-37.3,2.5,0.561510056,-0.261513108,-0.622180853,-0.47871334
955,2390414,685890,0.948,0.367,0.118,6.8,3.2,-4.3,-8.5,-37.3,2.5,0.561540574,-0.261329997,-0.62224189,-0.47871334
956,2392904,685900,0.948,0.363,0.118,6.4,3.5,-4.3,-8.5,-37.3,2.5,0.561571093,-0.261177404,-0.622272408,-0.478682821
957,2395103,685900,0.948,0.363,0.118,6.4,3.5,-4.3,-8.5,-37.3,2.5,0.561571093,-0.261177404,-0.622272408,-0.478682821
958,2399347,685900,0.948,0.359,0.114,5.3,4,-4.2,-8.4,-37.8,2.3,0.561449019,-0.260048219,-0.622333445,-0.479354228
959,2401631,685900,0.952,0.359,0.118,4.8,4.2,-4.1,-8.4,-37.8,2.3,0.561479537,-0.259895627,-0.622363964,-0.479384747
960,2404215,685910,0.948,0.359,0.114,4.3,4.3,-4,-8.4,-37.8,2.3,0.561540574,-0.259743034,-0.622363964,-0.479384747
961,2406046,685910,0.948,0.359,0.11,4,4.4,-3.8,-6.9,-37.2,2.5,0.561571093,-0.259590442,-0.622394482,-0.479415265
962,2407946,685910,0.944,0.359,0.114,3.6,4.4,-3.6,-6.9,-37.2,2.5,0.56163213,-0.259437849,-0.622394482,-0.479415265
963,2410315,685910,0.956,0.363,0.11,3.3,4.5,-3.3,-6.9,-37.2,2.5,0.561662648,-0.259315775,-0.622394482,-0.479445784
964,2413251,685920,0.952,0.367,0.114,3,4.6,-3.1,-6.9,-37.2,2.5,0.561723685,-0.259193701,-0.622363964,-0.479476302
965,2415190,685920,0.952,0.367,0.11,2.7,4.8,-2.9,-9,-36.8,2.7,0.561754204,-0.259071627,-0.622363964,-0.479506821
966,2419265,685920,0.956,0.363,0.114,2.3,5,-2.8,-9,-36.8,2.7,0.561815241,-0.258949553,-0.622333445,-0.479537339
967,2421010,685920,0.956,0.367,0.11,1.8,5.4,-2.8,-9,-36.8,2.7,0.561876278,-0.258827479,-0.622302927,-0.479567858
968,2423490,685930,0.956,0.363,0.11,1.2,5.7,-3,-9,-36.8,2.7,0.561906796,-0.258705405,-0.622272408,-0.479628895
969,2425591,685930,0.968,0.363,0.11,0.6,6.1,-3.1,-9,-36.8,2.7,0.561967833,-0.258583331,-0.622211371,-0.479689932
970,2427674,685930,0.964,0.363,0.11,0.1,6.4,-3.3,-9,-36.8,2.7,0.562028871,-0.258491775,-0.622150334,-0.479750969
971,2431579,685930,0.968,0.359,0.114,-0.2,6.7,-3.3,-9,-36.8,2.7,0.562089908,-0.258369701,-0.622058779,-0.479842524
972,2434028,685940,0.968,0.359,0.11,-0.5,6.9,-3.6,-9,-36.8,2.7,0.562150945,-0.258247627,-0.62202826,-0.47993408
973,2436295,685940,0.968,0.355,0.11,-0.7,7.2,-3.8,-8.7,-36.9,2.4,0.562181463,-0.258125553,-0.621936705,-0.480025636
974,2438522,685940,0.972,0.351,0.11,-1,7.3,-4,-8.7,-36.9,2.4,0.5622425,-0.258003479,-0.621875668,-0.48014771
975,2440380,685940,0.976,0.355,0.11,-1.2,7.5,-4.1,-8.7,-36.9,2.4,0.562303537,-0.257881405,-0.621784112,-0.480239265
976,2442740,685950,0.976,0.351,0.11,-1.5,7.6,-4.2,-8.7,-36.9,2.4,0.562334056,-0.257759331,-0.621692557,-0.480361339
977,2445681,685950,0.976,0.351,0.11,-1.5,7.6,-4.2,-8.7,-36.9,2.4,0.562334056,-0.257759331,-0.621692557,-0.480361339
978,2447926,685950,0.976,0.347,0.113,-1.9,8.3,-4.9,-8.8,-37,2.2,0.562364574,-0.257240516,-0.621539964,-0.480849635
979,2451276,685950,0.972,0.347,0.114,-2,8.6,-5,-8.8,-37,2.2,0.562395093,-0.257087924,-0.621448408,-0.481002228
980,2453539,685960,0.972,0.343,0.114,-2.1,8.8,-5.1,-8.8,-37,2.2,0.56245613,-0.25696585,-0.621326334,-0.48115482
981,2455485,685960,0.968,0.343,0.118,-2.1,9.1,-5.2,-6.9,-37.5,2.2,0.562517167,-0.256813257,-0.621234779,-0.481276894
982,2457520,685960,0.968,0.343,0.118,-2.1,9.3,-5.3,-6.9,-37.5,2.2,0.562578204,-0.256660665,-0.621112705,-0.481429487
983,2460050,685960,0.968,0.343,0.114,-1.9,9.4,-5.5,-6.9,-37.5,2.2,0.562639241,-0.256538591,-0.621021149,-0.48158208
984,2463607,685970,0.968,0.343,0.118,-1.8,9.4,-5.6,-6.9,-37.5,2.2,0.562700278,-0.256324961,-0.620899075,-0.481734672
985,2465455,685970,0.964,0.347,0.114,-1.8,9.4,-5.5,-8.7,-37,2.5,0.562761315,-0.256233406,-0.62080752,-0.481887265
986,2467715,685970,0.964,0.339,0.121,-1.9,9.3,-5.5,-8.7,-37,2.5,0.562791833,-0.256080813,-0.620715964,-0.482039857
987,2470325,685970,0.964,0.339,0.118,-2,9.4,-5.4,-8.7,-37,2.5,0.56285287,-0.25592822,-0.62059389,-0.482161931
988,2473961,685980,0.96,0.343,0.118,-2.1,9.5,-5.3,-8.7,-37,2.5,0.562913907,-0.255775628,-0.620502335,-0.482314524
989,2476135,685980,0.96,0.343,0.118,-2.1,9.7,-5.3,-8.3,-37,2.6,0.562974944,-0.255623035,-0.620380261,-0.482467116
990,2478473,685980,0.956,0.343,0.118,-2.1,9.8,-5.3,-8.3,-37,2.6,0.5630665,-0.255470443,-0.620258187,-0.482619709
991,2480403,685980,0.956,0.339,0.118,-2.1,10,-5.2,-8.3,-37,2.6,0.563127537,-0.25531785,-0.620136113,-0.482772301
992,2482826,685990,0.948,0.336,0.118,-2,10,-5.1,-8.3,-37,2.6,0.563188574,-0.255165258,-0.620014039,-0.482894375
993,2485169,685990,0.952,0.34,0.114,-2,10.1,-5,-8.4,-36.6,2.3,0.563249611,-0.255012665,-0.619922483,-0.483077486
994,2488451,685990,0.952,0.34,0.114,-2,10.1,-4.9,-8.4,-36.6,2.3,0.563341166,-0.254890591,-0.619800409,-0.483199561
995,2490524,685990,0.944,0.34,0.118,-1.9,10.1,-4.8,-8.4,-36.6,2.3,0.563402203,-0.254737999,-0.619678335,-0.483352153
996,2494522,686000,0.944,0.34,0.118,-1.8,10,-4.6,-8.4,-36.6,2.3,0.56346324,-0.254585406,-0.619556261,-0.483504746
997,2496916,686000,0.944,0.34,0.118,-1.8,10,-4.6,-8.4,-36.6,2.3,0.56346324,-0.254585406,-0.619556261,-0.483504746
998,2499045,686000,0.94,0.344,0.118,-1.5,9.9,-4.4,-8.8,-36.9,2.6,0.563615833,-0.25409711,-0.619312113,-0.483901486
999,2501256,686000,0.94,0.344,0.118,-1.4,9.8,-4.2,-8.8,-36.9,2.6,0.56367687,-0.253975036,-0.619190039,-0.484054079
1000,2503569,686010,0.936,0.348,0.114,-1.3,9.8,-4.1,-8.8,-36.9,2.6,0.563768426,-0.253822443,-0.619098483,-0.484176153
1001,2505850,686010,0.936,0.347,0.126,-1.3,9.8,-3.9,-6.7,-37.8,2.1,0.563859981,-0.253669851,-0.618976409,-0.484298227
1002,2507808,686010,0.936,0.351,0.126,-1.2,9.9,-3.8,-6.7,-37.8,2.1,0.563921018,-0.253547777,-0.618854335,-0.484420301
1003,2510165,686010,0.936,0.351,0.126,-1.1,9.9,-3.6,-6.7,-37.8,2.1,0.564012574,-0.253395184,-0.61876278,-0.484511856
1004,2513475,686020,0.933,0.348,0.126,-1,9.9,-3.6,-6.7,-37.8,2.1,0.564104129,-0.253242592,-0.618640706,-0.48463393
1005,2514972,686020,0.933,0.355,0.126,-0.9,10,-3.6,-8.2,-36.5,2.4,0.564195685,-0.253120518,-0.618518632,-0.484756005
1006,2517912,686020,0.929,0.355,0.126,-0.9,10.1,-3.7,-8.2,-36.5,2.4,0.56428724,-0.252967925,-0.618396558,-0.48484756
1007,2521225,686020,0.933,0.355,0.126,-0.9,10.3,-3.7,-8.2,-36.5,2.4,0.564378796,-0.252815332,-0.618305002,-0.484969634
1008,2523400,686030,0.929,0.355,0.13,-0.9,10.3,-3.7,-8.2,-36.5,2.4,0.56450087,-0.25266274,-0.618152409,-0.485091708
1009,2526528,686030,0.925,0.359,0.126,-0.8,10.3,-3.6,-8.1,-36.8,2.2,0.564592425,-0.252510147,-0.618060854,-0.485213782
1010,2528705,686030,0.925,0.355,0.126,-0.8,10.2,-3.5,-8.1,-36.8,2.2,0.564683981,-0.252357555,-0.61793878,-0.485305338
1011,2531006,686030,0.925,0.351,0.13,-0.7,10.3,-3.4,-8.1,-36.8,2.2,0.564775536,-0.252235481,-0.617816706,-0.485427412
1012,2533039,686040,0.925,0.351,0.13,-0.7,10.5,-3.5,-8.1,-36.8,2.2,0.564867092,-0.252082888,-0.617694632,-0.485549486
1013,2535216,686040,0.921,0.348,0.13,-0.7,10.6,-3.3,-8.3,-36.4,2.1,0.564989166,-0.251930296,-0.617603076,-0.485641041
1014,2539244,686040,0.921,0.352,0.13,-0.7,10.5,-3.2,-8.3,-36.4,2.1,0.565080721,-0.251777703,-0.617481002,-0.485763115
1015,2541464,686040,0.917,0.352,0.126,-0.7,10.3,-2.9,-8.3,-36.4,2.1,0.565202795,-0.251625111,-0.617358928,-0.485854671
1016,2543744,686050,0.925,0.351,0.13,-0.8,10.1,-2.8,-8.3,-36.4,2.1,0.565294351,-0.251503037,-0.617236854,-0.485976745
