sample_index,elapsed_us,device_time_ms,acc_x_g,acc_y_g,acc_z_g,gyro_x_dps,gyro_y_dps,gyro_z_dps,mag_x_ut,mag_y_ut,mag_z_ut,quat_w,quat_x,quat_y,quat_z
0,3264,817950,0.988,0.036,-0.026,0,-0.2,0,-35.6,5.6,26.4,0.169316691,0.70146794,-0.14557329,0.676747948
1,5775,817950,0.988,0.04,-0.026,0.1,-0.1,0,-35.6,5.6,26.4,0.169286172,0.70146794,-0.14557329,0.676747948
2,9710,817960,0.985,0.044,-0.034,0.1,-0.1,0,-35.4,5,26.3,0.169286172,0.70146794,-0.14557329,0.676747948
3,11188,817960,0.985,0.04,-0.026,0.1,0,0,-35.4,5,26.3,0.169286172,0.70146794,-0.14557329,0.676747948
4,13525,817960,0.988,0.044,-0.026,0.1,0,0,-35.4,5,26.3,0.169286172,0.70146794,-0.14557329,0.676747948
5,15737,817960,0.988,0.04,-0.026,0.1,0.1,0.1,-35.4,5,26.3,0.169286172,0.70146794,-0.14557329,0.676747948
6,18454,817970,0.985,0.044,-0.03,0,0.1,0,-35.6,4.2,26.4,0.169286172,0.70146794,-0.14557329,0.676747948
7,21343,817970,0.988,0.036,-0.018,0,0.1,0,-35.6,4.2,26.4,0.169286172,0.70146794,-0.14557329,0.676747948
8,23105,817970,0.985,0.036,-0.022,0,0.1,0,-35.6,4.2,26.4,0.169286172,0.70146794,-0.14557329,0.676747948
9,26609,817970,0.985,0.04,-0.022,0,0.1,0,-35.6,4.2,26.4,0.169286172,0.70146794,-0.14557329,0.676747948
10,28206,817980,0.981,0.04,-0.022,0,0.1,0,-35.5,3.5,26.2,0.169286172,0.70146794,-0.14557329,0.676808985
11,31320,817980,0.985,0.036,-0.03,0,0.1,0,-35.5,3.5,26.2,0.169286172,0.70146794,-0.14557329,0.676808985
12,33538,817980,0.985,0.036,-0.022,0,0.1,0,-35.5,3.5,26.2,0.169286172,0.70146794,-0.14557329,0.676808985
13,36523,817980,0.985,0.04,-0.026,0,0,0,-35.5,3.5,26.2,0.169286172,0.70146794,-0.14557329,0.676808985
14,38238,817990,0.985,0.04,-0.026,0,0,0,-35.5,3.5,26.2,0.169286172,0.70146794,-0.14557329,0.676808985
15,41733,817990,0.985,0.04,-0.026,0,0,0,-35.2,7.6,27.7,0.169286172,0.701437422,-0.14557329,0.676808985
16,43257,817990,0.988,0.04,-0.022,0,0,0.1,-35.2,7.6,27.7,0.169286172,0.701437422,-0.14557329,0.676808985
17,46281,817990,0.988,0.04,-0.026,0,0.1,0.2,-35.2,7.6,27.7,0.169286172,0.701437422,-0.145603809,0.676808985
18,48474,818000,0.988,0.04,-0.03,0,0.1,0.1,-35.1,5.1,26.2,0.169286172,0.701437422,-0.145603809,0.676808985
19,51682,818000,0.985,0.044,-0.022,0,0.1,0,-35.1,5.1,26.2,0.169286172,0.701437422,-0.145603809,0.676808985
20,53395,818000,0.988,0.04,-0.026,0,0,0,-35.1,5.1,26.2,0.169255654,0.701437422,-0.145603809,0.676808985
21,55715,818000,0.985,0.04,-0.026,0.1,0,0,-35.1,5.1,26.2,0.169255654,0.701437422,-0.145603809,0.676808985
22,59232,818010,0.988,0.04,-0.022,0.1,0,0,-35.5,5.5,25.9,0.169255654,0.701437422,-0.145603809,0.676808985
23,60684,818010,0.985,0.036,-0.022,0.1,0.1,0,-35.5,5.5,25.9,0.169255654,0.701437422,-0.14557329,0.676839503
24,63655,818010,0.988,0.04,-0.03,0.1,0.1,0,-35.5,5.5,25.9,0.169255654,0.701437422,-0.14557329,0.676839503
25,66696,818010,0.981,0.036,-0.026,0.1,0.1,0,-35.5,5.5,25.9,0.169255654,0.701437422,-0.14557329,0.676839503
26,68229,818020,0.981,0.04,-0.022,0,0.1,-0.1,-35.4,5.3,25.9,0.169255654,0.701437422,-0.14557329,0.676839503
27,70722,818020,0.988,0.04,-0.022,0,0,0,-35.4,5.3,25.9,0.169255654,0.701437422,-0.14557329,0.676839503
28,74158,818020,0.988,0.048,-0.022,0,0,0,-35.4,5.3,25.9,0.169255654,0.701437422,-0.14557329,0.676839503
29,75678,818020,0.988,0.036,-0.026,0,0,0,-35.4,5.3,25.9,0.169255654,0.701437422,-0.14557329,0.676839503
30,78787,818030,0.985,0.036,-0.022,0,0,0,-35.3,6.3,26.2,0.169255654,0.701437422,-0.14557329,0.676839503
31,81760,818030,0.985,0.04,-0.026,0.1,0.1,0.1,-35.3,6.3,26.2,0.169255654,0.701437422,-0.14557329,0.676839503
32,83271,818030,0.988,0.04,-0.022,0,0.2,0,-35.3,6.3,26.2,0.169255654,0.701437422,-0.14557329,0.676839503
33,86354,818030,0.988,0.04,-0.026,0,0.3,0,-35.3,6.3,26.2,0.169255654,0.701406903,-0.14557329,0.676839503
34,88528,818040,0.988,0.04,-0.026,0,0.3,0,-35.3,6.3,26.2,0.169255654,0.701406903,-0.14557329,0.676839503
35,90675,818040,0.988,0.044,-0.018,0,0.1,0.1,-35.2,6.4,26.9,0.169255654,0.701406903,-0.14557329,0.676870022
36,93777,818040,0.985,0.044,-0.03,0,0.2,0.1,-35.2,6.4,26.9,0.169255654,0.701406903,-0.14557329,0.676870022
37,95599,818040,0.985,0.036,-0.022,0,0.1,0,-35.2,6.4,26.9,0.169255654,0.701376385,-0.14557329,0.676870022
38,99302,818050,0.985,0.036,-0.026,0,0.1,0,-35.5,6.2,26.9,0.169255654,0.701376385,-0.14557329,0.676870022
39,100772,818050,0.985,0.04,-0.022,0,0,0,-35.5,6.2,26.9,0.169255654,0.701376385,-0.14557329,0.676870022
40,103304,818050,0.985,0.036,-0.03,0,0,0,-35.5,6.2,26.9,0.169255654,0.701376385,-0.14557329,0.676870022
41,105644,818050,0.985,0.044,-0.022,0,0,0,-35.5,6.2,26.9,0.169255654,0.701376385,-0.14557329,0.676870022
42,109773,818060,0.981,0.044,-0.026,0,-0.1,0,-35.2,6.3,26.7,0.169255654,0.701376385,-0.14557329,0.676870022
43,111888,818060,0.988,0.036,-0.026,0,0,0,-35.2,6.3,26.7,0.169255654,0.701376385,-0.14557329,0.676870022
44,114267,818060,0.988,0.036,-0.026,0,0,0,-35.2,6.3,26.7,0.169255654,0.701376385,-0.14557329,0.676870022
45,115960,818060,0.985,0.04,-0.022,0,0,-0.1,-35.2,6.3,26.7,0.169255654,0.701376385,-0.14557329,0.676870022
46,118327,818070,0.985,0.036,-0.018,0,0,0,-35,6.8,27.2,0.169255654,0.701376385,-0.14557329,0.676870022
47,120936,818070,0.981,0.04,-0.022,0,0,0,-35,6.8,27.2,0.169255654,0.701376385,-0.14557329,0.676870022
48,124109,818070,0.985,0.036,-0.03,0,0,0,-35,6.8,27.2,0.169255654,0.701376385,-0.14557329,0.676870022
49,126019,818070,0.988,0.04,-0.026,0,0,0,-35,6.8,27.2,0.169255654,0.701376385,-0.14557329,0.676870022
50,128188,818080,0.981,0.04,-0.026,0,0,0,-35.4,6.7,27,0.169255654,0.701376385,-0.14557329,0.676870022
51,130644,818080,0.985,0.044,-0.022,0.1,0,0,-35.4,6.7,27,0.169255654,0.701376385,-0.14557329,0.676870022
52,134673,818080,0.988,0.036,-0.026,0.1,0,0,-35.4,6.7,27,0.169255654,0.701376385,-0.14557329,0.676870022
53,136965,818080,0.988,0.04,-0.026,0.1,0.1,0,-35.4,6.7,27,0.169255654,0.701376385,-0.14557329,0.676870022
54,139202,818090,0.988,0.04,-0.026,0.1,0.1,0,-35.4,6.7,27,0.169255654,0.701376385,-0.14557329,0.676870022
55,141436,818090,0.985,0.04,-0.022,0,0.1,0,-35.2,5.3,26.8,0.169286172,0.701376385,-0.14557329,0.676870022
56,143652,818090,0.981,0.04,-0.03,0,0.1,0,-35.2,5.3,26.8,0.169255654,0.701376385,-0.145542772,0.67690054
57,145961,818090,0.988,0.036,-0.03,0,0.1,0,-35.2,5.3,26.8,0.169286172,0.701376385,-0.145542772,0.67690054
58,148263,818100,0.985,0.036,-0.026,0,0.2,0,-35.7,6.9,26.7,0.169286172,0.701376385,-0.145542772,0.67690054
59,150826,818100,0.985,0.04,-0.026,0,0.2,0,-35.7,6.9,26.7,0.169286172,0.701376385,-0.145542772,0.67690054
60,153227,818100,0.988,0.04,-0.026,0,0.1,0,-35.7,6.9,26.7,0.169286172,0.701376385,-0.145542772,0.67690054
61,157163,818100,0.988,0.04,-0.03,0,0,0,-35.7,6.9,26.7,0.169286172,0.701376385,-0.145542772,0.67690054
62,159528,818110,0.988,0.04,-0.03,0,0,0,-36.4,7,26.5,0.169286172,0.701376385,-0.145542772,0.67690054
63,160891,818110,0.985,0.04,-0.022,0.1,0,0,-36.4,7,26.5,0.169286172,0.701376385,-0.145542772,0.67690054
64,163857,818110,0.981,0.04,-0.026,0.1,0,0,-36.4,7,26.5,0.169255654,0.701376385,-0.145542772,0.67690054
65,165870,818110,0.981,0.04,-0.026,0.1,0,0,-36.4,7,26.5,0.169255654,0.701376385,-0.145542772,0.67690054
66,169869,818120,0.981,0.036,-0.026,0,0,0,-37.3,7.2,26.5,0.169255654,0.701376385,-0.145542772,0.67690054
67,171251,818120,0.981,0.036,-0.026,0,0.1,0,-37.3,7.2,26.5,0.169255654,0.701376385,-0.145542772,0.67690054
68,174287,818120,0.985,0.036,-0.026,-0.1,0.2,0,-37.3,7.2,26.5,0.169255654,0.701345866,-0.145542772,0.67690054
69,176614,818120,0.985,0.04,-0.022,-0.1,0.3,0.1,-37.3,7.2,26.5,0.169255654,0.701345866,-0.145542772,0.67690054
70,178829,818130,0.988,0.04,-0.026,-0.1,0.1,0,-37.5,7,26.6,0.169255654,0.701345866,-0.14557329,0.676931059
71,180578,818130,0.985,0.04,-0.026,0,0,0,-37.5,7,26.6,0.169255654,0.701345866,-0.14557329,0.676931059
72,183258,818130,0.988,0.04,-0.03,0,0,0,-37.5,7,26.6,0.169255654,0.701345866,-0.14557329,0.676931059
73,186168,818130,0.988,0.04,-0.022,0,0,0,-37.5,7,26.6,0.169255654,0.701345866,-0.14557329,0.676931059
74,188479,818140,0.985,0.036,-0.026,0,0,0,-34,4.9,26.7,0.169286172,0.701345866,-0.145542772,0.67690054
75,191335,818140,0.985,0.036,-0.026,0,0,0,-34,4.9,26.7,0.169286172,0.701345866,-0.145542772,0.67690054
76,194313,818140,0.985,0.04,-0.022,0,0,0,-34,4.9,26.7,0.169286172,0.701345866,-0.145542772,0.67690054
77,196492,818140,0.985,0.044,-0.026,0,0,0,-34,4.9,26.7,0.169286172,0.701345866,-0.145542772,0.67690054
78,198914,818150,0.988,0.04,-0.026,0,0.1,0,-36.9,7.4,26.9,0.169286172,0.701345866,-0.145542772,0.67690054
79,200848,818150,0.985,0.04,-0.022,0,0.1,0,-36.9,7.4,26.9,0.169286172,0.701345866,-0.145542772,0.67690054
80,204035,818150,0.988,0.04,-0.026,0,0,0,-36.9,7.4,26.9,0.169286172,0.701345866,-0.145542772,0.67690054
81,205544,818150,0.985,0.04,-0.026,0,0,0,-36.9,7.4,26.9,0.169286172,0.701345866,-0.145542772,0.67690054
82,208732,818160,0.988,0.032,-0.026,-0.1,0,0,-36.7,7.2,26.6,0.169286172,0.701345866,-0.145542772,0.67690054
83,210946,818160,0.985,0.04,-0.026,-0.1,0,0,-36.7,7.2,26.6,0.169286172,0.701345866,-0.145542772,0.67690054
84,213203,818160,0.988,0.04,-0.026,-0.1,0,0,-36.7,7.2,26.6,0.169286172,0.701345866,-0.145542772,0.67690054
85,216896,818160,0.985,0.04,-0.026,0,0,0,-36.7,7.2,26.6,0.169286172,0.701345866,-0.145542772,0.67690054
86,219424,818170,0.985,0.04,-0.026,0.1,0,0,-36,7.2,26.5,0.169286172,0.701345866,-0.145542772,0.67690054
87,221551,818170,0.985,0.036,-0.03,0.1,0,0,-36,7.2,26.5,0.169286172,0.701345866,-0.145542772,0.67690054
88,223112,818170,0.988,0.04,-0.026,0,0,0,-36,7.2,26.5,0.169286172,0.701345866,-0.145542772,0.67690054
89,226468,818170,0.985,0.04,-0.026,0,0,0,-36,7.2,26.5,0.169286172,0.701345866,-0.145542772,0.67690054
90,228090,818180,0.985,0.04,-0.022,0,0.1,0,-35.5,7,26.9,0.169286172,0.701345866,-0.145542772,0.67690054
91,231632,818180,0.988,0.036,-0.022,0,0.1,0,-35.5,7,26.9,0.169286172,0.701345866,-0.145542772,0.67690054
92,233154,818180,0.988,0.032,-0.018,0,0,0,-35.5,7,26.9,0.169286172,0.701345866,-0.145542772,0.676931059
93,235767,818180,0.985,0.04,-0.03,0,0,0.1,-35.5,7,26.9,0.169286172,0.701345866,-0.145542772,0.676931059
94,239344,818190,0.985,0.04,-0.026,0,-0.1,0,-35,6,27,0.169255654,0.701315348,-0.14557329,0.676931059
95,241497,818190,0.988,0.04,-0.026,0,-0.1,0,-35,6,27,0.169255654,0.701315348,-0.14557329,0.676931059
96,243115,818190,0.985,0.04,-0.026,0,-0.1,0,-35,6,27,0.169255654,0.701315348,-0.14557329,0.676931059
97,246144,818190,0.988,0.036,-0.022,0,-0.1,0,-35,6,27,0.169255654,0.701345866,-0.14557329,0.676931059
98,248182,818200,0.985,0.04,-0.022,0,0,0,-34.7,6.1,26.7,0.169255654,0.701345866,-0.14557329,0.676931059
99,250975,818200,0.988,0.04,-0.018,0,0,0,-34.7,6.1,26.7,0.169255654,0.701345866,-0.14557329,0.676931059
100,254852,818200,0.985,0.04,-0.022,0,0.1,0,-34.7,6.1,26.7,0.169255654,0.701315348,-0.14557329,0.676931059
101,256526,818200,0.988,0.04,-0.022,0,0,0,-34.7,6.1,26.7,0.169255654,0.701315348,-0.14557329,0.676931059
102,257962,818210,0.985,0.04,-0.026,0,0,0,-34.9,5.9,26.7,0.169255654,0.701315348,-0.14557329,0.676931059
103,261797,818210,0.985,0.036,-0.022,0,0,0,-34.9,5.9,26.7,0.169255654,0.701315348,-0.14557329,0.676931059
104,263302,818210,0.985,0.04,-0.022,0,-0.1,0,-34.9,5.9,26.7,0.169255654,0.701345866,-0.14557329,0.676931059
105,265798,818210,0.985,0.04,-0.018,0,0,0,-34.9,5.9,26.7,0.169255654,0.701345866,-0.14557329,0.676931059
106,269526,818220,0.985,0.032,-0.018,0,-0.1,0,-34.7,6,26.9,0.169255654,0.701345866,-0.14557329,0.676931059
107,271544,818220,0.981,0.04,-0.022,0,-0.1,0,-34.7,6,26.9,0.169255654,0.701345866,-0.14557329,0.676931059
108,273848,818220,0.981,0.036,-0.03,0,-0.2,0,-34.7,6,26.9,0.169255654,0.701345866,-0.14557329,0.676931059
109,276171,818220,0.988,0.036,-0.022,0.1,-0.2,0,-34.7,6,26.9,0.169255654,0.701345866,-0.14557329,0.676931059
110,278456,818230,0.985,0.044,-0.018,0.1,-0.2,0,-34.7,6,27.2,0.169255654,0.701345866,-0.14557329,0.676931059
111,280795,818230,0.981,0.036,-0.018,0.1,-0.1,0,-34.7,6,27.2,0.169255654,0.701345866,-0.14557329,0.676931059
112,283428,818230,0.985,0.032,-0.026,0.1,0,0,-34.7,6,27.2,0.169255654,0.701345866,-0.14557329,0.676931059
113,285779,818230,0.985,0.04,-0.022,0,0.1,0,-34.7,6,27.2,0.169255654,0.701345866,-0.14557329,0.676931059
114,289296,818240,0.988,0.04,-0.022,0,0.1,0,-34.7,6,27.2,0.169255654,0.701315348,-0.14557329,0.676961577
115,291648,818240,0.985,0.04,-0.022,0,0.1,0,-34.7,6,27.2,0.169255654,0.701315348,-0.145542772,0.676961577
116,293811,818240,0.988,0.04,-0.022,0,0,0,-34.7,6,27.2,0.169255654,0.701315348,-0.145542772,0.676961577
117,296096,818240,0.988,0.036,-0.026,0,0,0,-34.7,6,27.2,0.169255654,0.701315348,-0.145542772,0.676961577
118,298267,818250,0.985,0.036,-0.026,0,-0.1,0,-34.1,6,27.1,0.169255654,0.701315348,-0.145542772,0.676961577
119,300896,818250,0.985,0.04,-0.022,0,0,0,-34.1,6,27.1,0.169255654,0.701315348,-0.145542772,0.676961577
120,305119,818250,0.985,0.036,-0.026,0,0.1,0,-34.1,6,27.1,0.169255654,0.701315348,-0.145542772,0.676961577
121,305968,818250,0.985,0.044,-0.022,0,0.2,0,-34.1,6,27.1,0.169255654,0.701315348,-0.145542772,0.676961577
122,308215,818260,0.985,0.044,-0.026,0,0.2,0.1,-34.3,6.1,26.6,0.169255654,0.701284829,-0.145542772,0.676961577
123,310728,818260,0.985,0.04,-0.022,0,0,0,-34.3,6.1,26.6,0.169255654,0.701284829,-0.145542772,0.676961577
124,314819,818260,0.988,0.044,-0.03,0,0,0,-34.3,6.1,26.6,0.169255654,0.701284829,-0.145542772,0.676961577
125,317122,818260,0.988,0.04,-0.022,0.1,0,0,-34.3,6.1,26.6,0.169255654,0.701315348,-0.145542772,0.676961577
126,319347,818270,0.985,0.04,-0.022,0,0,-0.1,-34.2,6,27,0.169255654,0.701315348,-0.145542772,0.676961577
127,321678,818270,0.985,0.04,-0.022,0,0.1,-0.1,-34.2,6,27,0.169255654,0.701284829,-0.145542772,0.676961577
128,323885,818270,0.988,0.04,-0.034,0,0,-0.1,-34.2,6,27,0.169255654,0.701284829,-0.145542772,0.676961577
129,326039,818270,0.988,0.036,-0.026,0,0,0,-34.2,6,27,0.169255654,0.701315348,-0.145542772,0.676961577
130,328374,818280,0.988,0.04,-0.026,0,-0.1,0,-34.1,5.7,27,0.169255654,0.701315348,-0.145542772,0.676961577
131,330681,818280,0.988,0.04,-0.022,0,-0.2,0.1,-34.1,5.7,27,0.169255654,0.701315348,-0.145542772,0.676961577
132,334225,818280,0.988,0.04,-0.022,0,-0.1,0.2,-34.1,5.7,27,0.169255654,0.701315348,-0.145542772,0.676961577
133,335725,818280,0.985,0.04,-0.03,0,0,0.1,-34.1,5.7,27,0.169255654,0.701315348,-0.145542772,0.676961577
134,338152,818290,0.985,0.04,-0.022,0,0.1,0,-34.1,5.7,27,0.169255654,0.701315348,-0.145542772,0.676961577
135,341758,818290,0.985,0.04,-0.022,0,0.1,0,-34.1,5.7,27,0.169255654,0.701315348,-0.145542772,0.676961577
136,343299,818290,0.985,0.036,-0.026,0,0,0,-34.1,5.7,27,0.169255654,0.701315348,-0.145542772,0.676961577
137,347211,818290,0.981,0.04,-0.026,0,0,0,-34.1,5.7,27,0.169255654,0.701315348,-0.145542772,0.676961577
138,349298,818300,0.985,0.044,-0.022,0,0,0,-33.9,5.8,26.6,0.169255654,0.701284829,-0.145542772,0.676961577
139,350904,818300,0.985,0.04,-0.022,0,0.1,0,-33.9,5.8,26.6,0.169255654,0.701284829,-0.145542772,0.676961577
140,353193,818300,0.981,0.04,-0.03,0,0.1,0,-33.9,5.8,26.6,0.169255654,0.701284829,-0.145542772,0.676992096
141,355787,818300,0.988,0.032,-0.022,0,0.1,0,-33.9,5.8,26.6,0.169255654,0.701284829,-0.145542772,0.676992096
142,359287,818310,0.988,0.04,-0.026,0,0.1,0,-34.2,5.9,27,0.169255654,0.701284829,-0.145542772,0.676992096
143,360817,818310,0.988,0.04,-0.022,0,0,0,-34.2,5.9,27,0.169255654,0.701284829,-0.145542772,0.676992096
144,363381,818310,0.985,0.04,-0.026,0.1,0,0,-34.2,5.9,27,0.169255654,0.701284829,-0.145542772,0.676992096
145,366838,818310,0.988,0.036,-0.018,0,0,0.1,-34.2,5.9,27,0.169255654,0.701284829,-0.145542772,0.676992096
146,368289,818320,0.988,0.04,-0.022,0,0,0,-34,6,26.9,0.169255654,0.701284829,-0.145542772,0.676992096
147,370728,818320,0.981,0.04,-0.026,0,0,0,-34,6,26.9,0.169255654,0.701284829,-0.145542772,0.676992096
148,373636,818320,0.985,0.036,-0.026,0,0,0,-34,6,26.9,0.169255654,0.701284829,-0.145542772,0.676992096
149,375879,818320,0.985,0.036,-0.03,0,0,0,-34,6,26.9,0.169255654,0.701284829,-0.145542772,0.676992096
150,378183,818330,0.988,0.04,-0.022,0,-0.1,0,-34.2,5.9,26.9,0.169255654,0.701284829,-0.145542772,0.676992096
151,380665,818330,0.988,0.036,-0.022,0,-0.1,0,-34.2,5.9,26.9,0.169255654,0.701284829,-0.145542772,0.676992096
152,383231,818330,0.985,0.04,-0.026,0,-0.1,0,-34.2,5.9,26.9,0.169255654,0.701284829,-0.145542772,0.676992096
153,386751,818330,0.988,0.036,-0.018,0,0,0,-34.2,5.9,26.9,0.169255654,0.701284829,-0.145542772,0.676992096
154,388253,818340,0.988,0.036,-0.018,0,0,0,-34.2,5.9,26.9,0.169255654,0.701284829,-0.145542772,0.676992096
155,390770,818340,0.981,0.04,-0.022,0,0,0,-34.2,5.9,26.9,0.169255654,0.701254311,-0.145542772,0.677022614
156,394182,818340,0.985,0.04,-0.022,0,0,0,-34.2,5.9,26.9,0.169255654,0.701254311,-0.145542772,0.677022614
157,395775,818340,0.981,0.032,-0.03,0,0,0.1,-34.2,5.9,26.9,0.169255654,0.701254311,-0.14557329,0.677022614
158,398446,818350,0.985,0.04,-0.038,-0.1,-0.1,0.1,-35,5.8,27.1,0.169255654,0.701254311,-0.14557329,0.677022614
159,401780,818350,0.981,0.04,-0.03,-0.1,-0.1,0,-35,5.8,27.1,0.169255654,0.701254311,-0.14557329,0.676992096
160,403273,818350,0.985,0.036,-0.022,-0.1,-0.2,0,-35,5.8,27.1,0.169255654,0.701284829,-0.14557329,0.676992096
161,406436,818350,0.988,0.044,-0.026,0,-0.1,0,-35,5.8,27.1,0.169255654,0.701284829,-0.14557329,0.676992096
162,408662,818360,0.992,0.04,-0.026,0,-0.2,0,-34.9,6,27.1,0.169255654,0.701284829,-0.14557329,0.676992096
163,410889,818360,0.988,0.04,-0.026,0,-0.2,0,-34.9,6,27.1,0.169255654,0.701284829,-0.14557329,0.676992096
164,413152,818360,0.992,0.04,-0.03,0,-0.2,0,-34.9,6,27.1,0.169255654,0.701284829,-0.14557329,0.676992096
165,415669,818360,0.992,0.044,-0.022,0,-0.2,0,-34.9,6,27.1,0.169255654,0.701284829,-0.14557329,0.676992096
166,419151,818370,0.988,0.04,-0.022,0,-0.1,0,-35.1,5.9,27.7,0.169255654,0.701284829,-0.14557329,0.676992096
167,420781,818370,0.981,0.036,-0.022,0,0,0,-35.1,5.9,27.7,0.169255654,0.701284829,-0.14557329,0.676992096
168,423626,818370,0.981,0.04,-0.026,0,0,0,-35.1,5.9,27.7,0.169255654,0.701284829,-0.14557329,0.676992096
169,425869,818370,0.981,0.04,-0.018,0.1,0.1,0,-35.1,5.9,27.7,0.169255654,0.701284829,-0.14557329,0.676992096
170,428844,818380,0.985,0.032,-0.022,0,0.1,0,-34.9,6,28,0.169255654,0.701284829,-0.14557329,0.676992096
171,431110,818380,0.981,0.036,-0.022,0,0.1,0,-34.9,6,28,0.169255654,0.701284829,-0.14557329,0.676992096
172,434056,818380,0.981,0.04,-0.022,-0.1,0.1,0,-34.9,6,28,0.169255654,0.701284829,-0.14557329,0.676992096
173,435710,818380,0.977,0.036,-0.018,-0.1,0.1,0,-34.9,6,28,0.169255654,0.701284829,-0.14557329,0.676992096
174,438645,818390,0.985,0.04,-0.03,0,0,0,-34.9,6,28,0.169255654,0.701254311,-0.14557329,0.677022614
175,441729,818390,0.988,0.04,-0.026,0,0,0,-34.9,6,28,0.169255654,0.701254311,-0.14557329,0.677022614
176,443181,818390,0.988,0.036,-0.026,0.1,0,0,-34.9,6,28,0.169255654,0.701254311,-0.14557329,0.677022614
177,446119,818390,0.988,0.036,-0.026,0.1,-0.1,0.1,-34.9,6,28,0.169225135,0.701254311,-0.14557329,0.677022614
178,449241,818400,0.988,0.04,-0.03,0.1,-0.2,0,-34.8,6.5,27.8,0.169225135,0.701254311,-0.14557329,0.677022614
179,450784,818400,0.988,0.04,-0.026,0,-0.2,0,-34.8,6.5,27.8,0.169225135,0.701254311,-0.14557329,0.677022614
180,454713,818400,0.988,0.04,-0.03,0,-0.3,0,-34.8,6.5,27.8,0.169225135,0.701254311,-0.14557329,0.677022614
181,456127,818400,0.988,0.04,-0.026,0,-0.3,0,-34.8,6.5,27.8,0.169225135,0.701254311,-0.14557329,0.676992096
182,458451,818410,0.985,0.036,-0.026,0,-0.2,0,-34.9,6,28,0.169225135,0.701284829,-0.14557329,0.676992096
183,461002,818410,0.985,0.032,-0.026,0,-0.1,0,-34.9,6,28,0.169225135,0.701284829,-0.14557329,0.676992096
184,464505,818410,0.981,0.044,-0.026,0,-0.1,0,-34.9,6,28,0.169225135,0.701284829,-0.145603809,0.676992096
185,466676,818410,0.981,0.04,-0.03,0,0,0,-34.9,6,28,0.169225135,0.701284829,-0.145603809,0.676992096
186,468212,818420,0.985,0.044,-0.03,0,0,0,-34.9,5.9,28.1,0.169225135,0.701284829,-0.145603809,0.676992096
187,470831,818420,0.985,0.04,-0.026,0,0.1,0,-34.9,5.9,28.1,0.169225135,0.701284829,-0.145603809,0.676992096
188,474702,818420,0.992,0.04,-0.026,0,0.2,0,-34.9,5.9,28.1,0.169225135,0.701254311,-0.14557329,0.676992096
189,476346,818420,0.988,0.04,-0.022,0,0.2,0,-34.9,5.9,28.1,0.169225135,0.701254311,-0.14557329,0.677022614
190,478581,818430,0.988,0.04,-0.022,0.1,0.1,0,-35.2,6.3,27.7,0.169225135,0.701254311,-0.14557329,0.677022614
191,481123,818430,0.988,0.044,-0.026,0,0,0,-35.2,6.3,27.7,0.169225135,0.701254311,-0.14557329,0.677022614
192,483306,818430,0.985,0.036,-0.022,0,0.1,0,-35.2,6.3,27.7,0.169225135,0.701254311,-0.14557329,0.677022614
193,485802,818430,0.981,0.036,-0.026,0,0.2,0,-35.2,6.3,27.7,0.169225135,0.701254311,-0.14557329,0.677022614
194,488726,818440,0.981,0.036,-0.026,0,0.2,0,-35.2,6.3,27.7,0.169225135,0.701254311,-0.14557329,0.677022614
195,491028,818440,0.981,0.04,-0.03,0,0.1,0,-35.2,6.3,27.7,0.169225135,0.701254311,-0.14557329,0.677022614
196,493246,818440,0.981,0.04,-0.022,0,0.1,0,-35.2,6.3,27.7,0.169225135,0.701254311,-0.14557329,0.677022614
197,496180,818440,0.981,0.036,-0.026,0,0.1,0,-35.2,6.3,27.7,0.169225135,0.701254311,-0.14557329,0.677022614
198,499414,818450,0.985,0.044,-0.022,0,0.1,0,-35,6.2,26.7,0.169225135,0.701223792,-0.14557329,0.677022614
199,500922,818450,0.988,0.04,-0.022,0,0,0,-35,6.2,26.7,0.169225135,0.701223792,-0.14557329,0.677053133
200,503573,818450,0.988,0.04,-0.026,0,0,0,-35,6.2,26.7,0.169225135,0.701223792,-0.14557329,0.677022614
201,506865,818450,0.988,0.036,-0.026,0,0,0,-35,6.2,26.7,0.169225135,0.701223792,-0.14557329,0.677022614
202,509113,818460,0.985,0.044,-0.026,0,0,0,-34.9,6,26.1,0.169225135,0.701223792,-0.14557329,0.677022614
203,511718,818460,0.988,0.04,-0.026,0,0,0,-34.9,6,26.1,0.169225135,0.701223792,-0.14557329,0.677022614
204,514027,818460,0.988,0.036,-0.03,0,0,0,-34.9,6,26.1,0.169225135,0.701223792,-0.14557329,0.677022614
205,516226,818460,0.988,0.044,-0.022,0.1,0.1,0,-34.9,6,26.1,0.169225135,0.701223792,-0.14557329,0.677053133
206,518674,818470,0.985,0.036,-0.034,0,0.2,0,-35.2,6.1,25.7,0.169225135,0.701223792,-0.14557329,0.677053133
207,520677,818470,0.985,0.04,-0.026,0,0.2,0,-35.2,6.1,25.7,0.169225135,0.701223792,-0.14557329,0.677053133
208,524885,818470,0.981,0.04,-0.026,0,0.2,0,-35.2,6.1,25.7,0.169225135,0.701223792,-0.14557329,0.677053133
209,527047,818470,0.981,0.04,-0.026,-0.1,0.2,0,-35.2,6.1,25.7,0.169225135,0.701223792,-0.14557329,0.677053133
210,529208,818480,0.985,0.04,-0.03,-0.1,0.2,0,-35,6,26.1,0.169255654,0.701223792,-0.14557329,0.677053133
211,531563,818480,0.985,0.044,-0.022,0,0,0.1,-35,6,26.1,0.169255654,0.701223792,-0.14557329,0.677053133
212,533785,818480,0.988,0.04,-0.022,0,0,0.1,-35,6,26.1,0.169225135,0.701223792,-0.14557329,0.677053133
213,536004,818480,0.988,0.044,-0.022,0,0,0,-35,6,26.1,0.169225135,0.701223792,-0.14557329,0.677053133
214,538344,818490,0.988,0.044,-0.022,0,0,0,-35,6,26.1,0.169225135,0.701223792,-0.14557329,0.677053133
215,541892,818490,0.985,0.036,-0.022,0,-0.1,0,-35,6,26.1,0.169255654,0.701223792,-0.14557329,0.677053133
216,544176,818490,0.985,0.04,-0.026,0.1,-0.1,0,-35,6,26.1,0.169255654,0.701223792,-0.145542772,0.677053133
217,546353,818490,0.981,0.044,-0.026,0.1,-0.1,0,-35,6,26.1,0.169255654,0.701223792,-0.145542772,0.677053133
218,548687,818500,0.985,0.04,-0.022,0.1,0,0,-34.9,6.5,26.5,0.169255654,0.701223792,-0.145542772,0.677053133
219,550769,818500,0.985,0.04,-0.026,0,0,0,-34.9,6.5,26.5,0.169255654,0.701223792,-0.145542772,0.677053133
220,553163,818500,0.985,0.036,-0.026,0,0,0,-34.9,6.5,26.5,0.169255654,0.701223792,-0.145542772,0.677053133
221,556027,818500,0.985,0.04,-0.022,0,0,0,-34.9,6.5,26.5,0.169255654,0.701223792,-0.145542772,0.677053133
222,558353,818510,0.988,0.036,-0.026,0,0,0,-35.5,6.3,26.5,0.169255654,0.701223792,-0.145542772,0.677053133
223,560911,818510,0.988,0.04,-0.03,0,0,0,-35.5,6.3,26.5,0.169255654,0.701223792,-0.145542772,0.677053133
224,563172,818510,0.988,0.04,-0.022,0.1,0,0,-35.5,6.3,26.5,0.169255654,0.701223792,-0.145542772,0.677053133
225,565772,818510,0.988,0.04,-0.022,0.1,0,0,-35.5,6.3,26.5,0.169255654,0.701223792,-0.145542772,0.677053133
226,568838,818520,0.988,0.04,-0.026,0.1,0,0,-35,5.9,27,0.169255654,0.701223792,-0.145542772,0.677053133
227,570747,818520,0.985,0.04,-0.022,0,0,0,-35,5.9,27,0.169255654,0.701223792,-0.145542772,0.677053133
228,573469,818520,0.988,0.036,-0.026,0,0,0,-35,5.9,27,0.169255654,0.701223792,-0.145542772,0.677053133
229,575845,818520,0.985,0.04,-0.022,0,0,0,-35,5.9,27,0.169255654,0.701223792,-0.145542772,0.677053133
230,578797,818530,0.985,0.036,-0.022,0,0,0.1,-34.9,5,26.6,0.169255654,0.701223792,-0.145542772,0.677053133
231,580716,818530,0.988,0.04,-0.026,0,0,0,-34.9,5,26.6,0.169255654,0.701223792,-0.145542772,0.677053133
232,583332,818530,0.985,0.04,-0.026,0,0,0,-34.9,5,26.6,0.169255654,0.701223792,-0.145542772,0.677053133
233,587453,818530,0.985,0.04,-0.026,0,0,0,-34.9,5,26.6,0.169255654,0.701223792,-0.145542772,0.677053133
234,588082,818540,0.985,0.036,-0.03,0,0,0,-34.9,5,26.6,0.169255654,0.701223792,-0.145542772,0.677053133
235,591155,818540,0.985,0.036,-0.026,0.1,0,0,-34.9,5,26.6,0.169255654,0.701223792,-0.145542772,0.677053133
236,593357,818540,0.985,0.044,-0.03,0.1,0,0,-34.9,5,26.6,0.169225135,0.701223792,-0.145542772,0.677053133
237,595704,818540,0.988,0.04,-0.03,0.1,-0.1,0,-34.9,5,26.6,0.169225135,0.701223792,-0.145542772,0.677053133
238,598146,818550,0.985,0.032,-0.026,0,-0.1,0.1,-34.6,4.8,25.7,0.169225135,0.701223792,-0.145542772,0.677053133
239,602218,818550,0.985,0.04,-0.022,0,-0.1,0,-34.6,4.8,25.7,0.169225135,0.701223792,-0.145542772,0.677053133
240,604492,818550,0.988,0.04,-0.026,0,-0.1,0,-34.6,4.8,25.7,0.169225135,0.701223792,-0.145542772,0.677053133
241,606706,818550,0.988,0.036,-0.026,0,-0.1,0,-34.6,4.8,25.7,0.169225135,0.701254311,-0.145542772,0.677053133
242,608953,818560,0.988,0.04,-0.026,0,-0.1,0,-34.9,4.6,25.7,0.169225135,0.701254311,-0.145542772,0.677053133
243,611096,818560,0.988,0.04,-0.026,-0.1,-0.1,0,-34.9,4.6,25.7,0.169225135,0.701254311,-0.14557329,0.677053133
244,613433,818560,0.988,0.044,-0.022,-0.1,-0.1,0,-34.9,4.6,25.7,0.169225135,0.701254311,-0.14557329,0.677022614
245,615645,818560,0.985,0.04,-0.022,-0.1,0,0,-34.9,4.6,25.7,0.169225135,0.701254311,-0.14557329,0.677022614
246,618175,818570,0.981,0.036,-0.022,-0.1,0.1,0,-35.2,4.5,25.8,0.169225135,0.701254311,-0.14557329,0.677022614
247,622480,818570,0.985,0.036,-0.026,-0.1,0,0,-35.2,4.5,25.8,0.169225135,0.701254311,-0.14557329,0.677022614
248,624629,818570,0.981,0.036,-0.026,0,0.1,0,-35.2,4.5,25.8,0.169225135,0.701254311,-0.14557329,0.677053133
249,626082,818570,0.977,0.04,-0.026,0,0,0,-35.2,4.5,25.8,0.169225135,0.701223792,-0.14557329,0.677053133
250,628354,818580,0.985,0.04,-0.026,0,0,0,-35.2,4.5,25.4,0.169225135,0.701223792,-0.14557329,0.677053133
251,630829,818580,0.988,0.044,-0.018,0.1,0,0,-35.2,4.5,25.4,0.169225135,0.701223792,-0.14557329,0.677053133
252,633208,818580,0.988,0.032,-0.018,0.1,-0.1,0,-35.2,4.5,25.4,0.169225135,0.701254311,-0.14557329,0.677022614
253,636599,818580,0.988,0.036,-0.022,0,-0.2,-0.1,-35.2,4.5,25.4,0.169225135,0.701254311,-0.14557329,0.677022614
254,638156,818590,0.988,0.036,-0.022,0,-0.2,-0.1,-35.2,4.5,25.4,0.169225135,0.701254311,-0.14557329,0.677022614
255,641618,818590,0.985,0.04,-0.026,0,-0.1,0,-35.2,4.5,25.4,0.169225135,0.701223792,-0.14557329,0.677053133
256,643142,818590,0.985,0.04,-0.03,0,-0.1,0,-35.2,4.5,25.4,0.169225135,0.701223792,-0.14557329,0.677053133
257,645585,818590,0.985,0.036,-0.03,0,-0.1,0,-35.2,4.5,25.4,0.169225135,0.701223792,-0.14557329,0.677053133
258,649100,818600,0.985,0.04,-0.022,0,-0.1,0,-35.2,6.4,26.9,0.169225135,0.701223792,-0.14557329,0.677053133
259,650611,818600,0.985,0.04,-0.026,0,-0.1,0,-35.2,6.4,26.9,0.169225135,0.701223792,-0.14557329,0.677053133
260,653155,818600,0.988,0.036,-0.026,0.1,0,0,-35.2,6.4,26.9,0.169225135,0.701223792,-0.14557329,0.677053133
261,656607,818600,0.985,0.04,-0.026,0,0,0,-35.2,6.4,26.9,0.169225135,0.701223792,-0.14557329,0.677053133
262,658115,818610,0.985,0.036,-0.026,0,0,0,-35.2,6.8,26.8,0.169225135,0.701223792,-0.14557329,0.677053133
263,660694,818610,0.985,0.04,-0.022,0,0,0.1,-35.2,6.8,26.8,0.169225135,0.701223792,-0.14557329,0.677053133
264,665039,818610,0.985,0.044,-0.018,0,0,0.2,-35.2,6.8,26.8,0.169225135,0.701223792,-0.14557329,0.677053133
265,665600,818610,0.985,0.036,-0.03,-0.1,0,0.1,-35.2,6.8,26.8,0.169225135,0.701223792,-0.14557329,0.677053133
266,668701,818620,0.985,0.036,-0.022,-0.1,0,0,-35,7.3,26.6,0.169225135,0.701223792,-0.14557329,0.677053133
267,670894,818620,0.985,0.04,-0.026,-0.1,0,0,-35,7.3,26.6,0.169225135,0.701223792,-0.14557329,0.677053133
268,673158,818620,0.988,0.04,-0.022,-0.1,0,0,-35,7.3,26.6,0.169225135,0.701223792,-0.145603809,0.677053133
269,675779,818620,0.988,0.04,-0.022,0,0,0,-35,7.3,26.6,0.169225135,0.701223792,-0.145603809,0.677053133
270,678070,818630,0.985,0.044,-0.022,0,0,0,-35.5,7.2,26.5,0.169225135,0.701223792,-0.145603809,0.677053133
271,682266,818630,0.988,0.044,-0.026,0,0,0,-35.5,7.2,26.5,0.169225135,0.701223792,-0.145603809,0.677053133
272,684466,818630,0.988,0.04,-0.022,0,-0.1,0,-35.5,7.2,26.5,0.169225135,0.701223792,-0.145603809,0.677053133
273,686728,818630,0.985,0.04,-0.018,0.1,-0.2,0,-35.5,7.2,26.5,0.169225135,0.701223792,-0.14557329,0.677053133
274,688961,818640,0.985,0.036,-0.026,0.1,-0.1,0,-35.5,7.2,26.5,0.169255654,0.701223792,-0.145542772,0.677053133
275,691256,818640,0.981,0.04,-0.026,0,0,0,-35.5,7.2,26.5,0.169255654,0.701223792,-0.145542772,0.677053133
276,693500,818640,0.981,0.04,-0.03,0,0,0,-35.5,7.2,26.5,0.169255654,0.701223792,-0.145542772,0.677053133
277,695653,818640,0.985,0.04,-0.018,0,0,0,-35.5,7.2,26.5,0.169255654,0.701223792,-0.145542772,0.677053133
278,699671,818650,0.988,0.036,-0.022,0,0,0,-35,5.8,27.1,0.169255654,0.701223792,-0.145542772,0.677053133
279,701859,818650,0.988,0.044,-0.026,0,-0.1,0,-35,5.8,27.1,0.169255654,0.701223792,-0.145542772,0.677053133
280,703433,818650,0.988,0.04,-0.022,0,-0.1,0,-35,5.8,27.1,0.169255654,0.701223792,-0.145542772,0.677053133
281,705694,818650,0.988,0.036,-0.03,0,0,0,-35,5.8,27.1,0.169255654,0.701223792,-0.145542772,0.677053133
282,708067,818660,0.985,0.04,-0.026,0,0,0,-35,5.8,27.1,0.169255654,0.701223792,-0.145542772,0.677053133
283,711059,818660,0.985,0.04,-0.022,0,0.1,0,-35,5.8,27.1,0.169255654,0.701223792,-0.145542772,0.677053133
284,713395,818660,0.988,0.032,-0.026,0,0.1,0,-35,5.8,27.1,0.169255654,0.701223792,-0.145542772,0.677053133
285,715632,818660,0.985,0.036,-0.022,0,0.1,0,-35,5.8,27.1,0.169255654,0.701223792,-0.145542772,0.677083651
286,719282,818670,0.988,0.04,-0.03,0,0.1,0,-35,5.8,27.1,0.169255654,0.701193274,-0.145542772,0.677083651
287,721423,818670,0.988,0.036,-0.026,0,0,0,-35,5.8,27.1,0.169255654,0.701193274,-0.145542772,0.677083651
288,723609,818670,0.985,0.044,-0.026,0,0,0,-35,5.8,27.1,0.169255654,0.701193274,-0.145542772,0.677083651
289,725997,818670,0.985,0.036,-0.026,0.1,0,0,-35,5.8,27.1,0.169255654,0.701223792,-0.145542772,0.677083651
290,728267,818680,0.988,0.04,-0.026,0.1,0,0,-35,5.8,27.1,0.169255654,0.701223792,-0.145542772,0.677083651
291,732173,818680,0.992,0.04,-0.026,0,0,0,-35,5.8,27.1,0.169255654,0.701223792,-0.145542772,0.677083651
292,734431,818680,0.988,0.04,-0.022,0,0,0,-35,5.8,27.1,0.169255654,0.701223792,-0.145542772,0.677083651
293,735903,818680,0.988,0.04,-0.022,0,0.1,0,-35,5.8,27.1,0.169255654,0.701223792,-0.145542772,0.677083651
294,738240,818690,0.988,0.04,-0.022,0,0.1,0,-35,5.8,27.1,0.169255654,0.701223792,-0.145542772,0.677083651
295,742183,818690,0.985,0.032,-0.026,0,0.2,0,-35,5.8,27.1,0.169255654,0.701193274,-0.145542772,0.677083651
296,744412,818690,0.985,0.036,-0.026,0,0.2,0,-35,5.8,27.1,0.169255654,0.701193274,-0.145542772,0.677083651
297,746752,818690,0.985,0.04,-0.022,0,0.2,0,-35,5.8,27.1,0.169255654,0.701193274,-0.145542772,0.677083651
298,748721,818700,0.985,0.04,-0.03,0,0.1,0.1,-34.3,4.7,26.8,0.169255654,0.701193274,-0.145542772,0.677083651
299,750972,818700,0.981,0.04,-0.026,0,0.1,0.1,-34.3,4.7,26.8,0.169255654,0.701193274,-0.145542772,0.677083651
300,753234,818700,0.985,0.044,-0.026,0,0.1,0,-34.3,4.7,26.8,0.169255654,0.701193274,-0.145542772,0.677083651
301,755830,818700,0.988,0.04,-0.022,0,0.1,0,-34.3,4.7,26.8,0.169255654,0.701193274,-0.145542772,0.67711417
302,759301,818710,0.985,0.036,-0.026,0,0.2,0,-34.3,4.7,26.8,0.169255654,0.701162755,-0.145542772,0.67711417
303,761524,818710,0.988,0.04,-0.026,0,0.1,0,-34.3,4.7,26.8,0.169255654,0.701162755,-0.145542772,0.67711417
304,763776,818710,0.985,0.04,-0.022,0,0,0,-34.3,4.7,26.8,0.169255654,0.701162755,-0.145542772,0.67711417
305,766075,818710,0.992,0.04,-0.022,0,0,0,-34.3,4.7,26.8,0.169255654,0.701162755,-0.145542772,0.67711417
306,768312,818720,0.988,0.04,-0.026,0,0,0,-34.3,4.7,26.8,0.169255654,0.701162755,-0.145542772,0.67711417
307,772230,818720,0.985,0.04,-0.026,0,0,0,-34.3,4.7,26.8,0.169255654,0.701162755,-0.145542772,0.67711417
308,774442,818720,0.985,0.04,-0.03,0,0,0,-34.3,4.7,26.8,0.169255654,0.701162755,-0.145542772,0.67711417
309,775926,818720,0.985,0.04,-0.026,0,-0.1,0,-34.3,4.7,26.8,0.169255654,0.701193274,-0.145542772,0.67711417
310,778140,818730,0.985,0.044,-0.022,0,-0.1,0,-34.3,4.7,26.8,0.169255654,0.701193274,-0.145542772,0.677083651
311,781413,818730,0.985,0.04,-0.022,0,-0.1,0,-34.3,4.7,26.8,0.169255654,0.701193274,-0.145542772,0.677083651
312,783126,818730,0.988,0.04,-0.026,0,0,0,-34.3,4.7,26.8,0.169255654,0.701193274,-0.145542772,0.677083651
313,785705,818730,0.985,0.04,-0.03,0,0,0,-34.3,4.7,26.8,0.169255654,0.701193274,-0.145542772,0.677083651
314,788423,818740,0.992,0.036,-0.03,0,-0.1,0,-34.3,4.7,26.8,0.169286172,0.701193274,-0.145512253,0.677083651
315,791494,818740,0.992,0.036,-0.03,0,-0.1,0,-34.3,4.7,26.8,0.169286172,0.701193274,-0.145512253,0.677083651
316,793210,818740,0.988,0.04,-0.022,0,-0.2,0,-34.3,4.7,26.8,0.169286172,0.701193274,-0.145512253,0.677083651
317,796708,818740,0.988,0.04,-0.026,-0.1,-0.1,0,-34.3,4.7,26.8,0.169286172,0.701193274,-0.145512253,0.677083651
318,798149,818750,0.988,0.04,-0.026,-0.1,-0.1,0,-34.3,5.8,26.9,0.169286172,0.701193274,-0.145512253,0.677083651
319,801561,818750,0.988,0.036,-0.026,-0.1,0,0,-34.3,5.8,26.9,0.169286172,0.701193274,-0.145512253,0.677083651
320,803144,818750,0.981,0.04,-0.026,0,0,0,-34.3,5.8,26.9,0.169286172,0.701193274,-0.145512253,0.677083651
321,806767,818750,0.985,0.04,-0.026,0,0.2,0,-34.3,5.8,26.9,0.169286172,0.701193274,-0.145512253,0.677083651
322,808230,818760,0.985,0.04,-0.026,0,0.2,0,-34.3,5.8,26.9,0.169286172,0.701193274,-0.145512253,0.677083651
323,811463,818760,0.985,0.04,-0.026,0,0.1,0,-34.3,5.8,26.9,0.169286172,0.701193274,-0.145512253,0.677083651
324,813157,818760,0.988,0.036,-0.022,0,0,0.2,-34.3,5.8,26.9,0.169286172,0.701193274,-0.145512253,0.677083651
325,815719,818760,0.985,0.036,-0.026,0,0,0.2,-34.3,5.8,26.9,0.169286172,0.701193274,-0.145542772,0.677083651
326,818737,818770,0.985,0.036,-0.022,0.1,0,0.1,-34.3,5.8,26.9,0.169286172,0.701193274,-0.145542772,0.677083651
327,820686,818770,0.985,0.036,-0.022,0.1,0,0,-34.3,5.8,26.9,0.169286172,0.701193274,-0.145542772,0.677083651
328,824261,818770,0.981,0.04,-0.018,0.1,0,0,-34.3,5.8,26.9,0.169255654,0.701193274,-0.145512253,0.677083651
329,825842,818770,0.981,0.04,-0.022,0.1,0,0,-34.3,5.8,26.9,0.169255654,0.701193274,-0.145512253,0.677083651
330,828050,818780,0.988,0.04,-0.03,0.1,0,0,-34.3,5.8,26.9,0.169255654,0.701193274,-0.145512253,0.677083651
331,831088,818780,0.985,0.04,-0.026,0,0,0,-34.3,5.8,26.9,0.169255654,0.701193274,-0.145512253,0.677083651
332,834243,818780,0.988,0.036,-0.03,0,0,0,-34.3,5.8,26.9,0.169255654,0.701193274,-0.145512253,0.677083651
333,835778,818780,0.988,0.044,-0.03,0,0,0,-34.3,5.8,26.9,0.169255654,0.701193274,-0.145512253,0.677083651
334,839003,818790,0.988,0.044,-0.03,0,0,0,-34.3,5.8,26.9,0.169255654,0.701193274,-0.145512253,0.677083651
335,840624,818790,0.985,0.04,-0.026,0,0,0,-34.4,5.5,26.9,0.169255654,0.701223792,-0.145512253,0.677053133
336,843621,818790,0.988,0.044,-0.022,0,0,0,-34.4,5.5,26.9,0.169255654,0.701223792,-0.145512253,0.677053133
337,846677,818790,0.988,0.04,-0.026,0,0,0,-34.4,5.5,26.9,0.169255654,0.701223792,-0.145512253,0.677053133
338,848075,818800,0.985,0.04,-0.026,0,0,0,-35.2,6.2,26.8,0.169255654,0.701223792,-0.145512253,0.677053133
339,850979,818800,0.988,0.036,-0.026,0,0.1,0,-35.2,6.2,26.8,0.169255654,0.701223792,-0.145512253,0.677053133
340,854082,818800,0.985,0.04,-0.03,0,0.1,0,-35.2,6.2,26.8,0.169255654,0.701223792,-0.145512253,0.677053133
341,855668,818800,0.985,0.04,-0.03,0,0,0,-35.2,6.2,26.8,0.169255654,0.701223792,-0.145512253,0.677053133
342,859356,818810,0.988,0.04,-0.026,0,0,0,-34.6,6.3,26.7,0.169255654,0.701223792,-0.145512253,0.677053133
343,860875,818810,0.985,0.036,-0.022,0,0,0,-34.6,6.3,26.7,0.169255654,0.701223792,-0.145512253,0.677053133
344,863860,818810,0.985,0.04,-0.022,0,0,0,-34.6,6.3,26.7,0.169255654,0.701223792,-0.145512253,0.677053133
345,866092,818810,0.985,0.036,-0.026,0,0,0,-34.6,6.3,26.7,0.169255654,0.701223792,-0.145512253,0.677053133
346,868360,818820,0.985,0.04,-0.022,0,0.1,0,-34.6,6.3,27,0.169255654,0.701223792,-0.145512253,0.677053133
347,870776,818820,0.985,0.044,-0.022,0,0.1,-0.1,-34.6,6.3,27,0.169255654,0.701223792,-0.145512253,0.677053133
348,875237,818820,0.988,0.04,-0.022,0,0,-0.1,-34.6,6.3,27,0.169255654,0.701223792,-0.145512253,0.677053133
349,875862,818820,0.988,0.04,-0.026,0.1,-0.1,-0.1,-34.6,6.3,27,0.169255654,0.701223792,-0.145512253,0.677053133
350,879725,818830,0.985,0.04,-0.022,0,-0.1,0,-34.6,5.9,26.8,0.169255654,0.701223792,-0.145512253,0.677053133
351,881751,818830,0.985,0.036,-0.018,0,-0.1,0,-34.6,5.9,26.8,0.169255654,0.701223792,-0.145512253,0.677053133
352,884009,818830,0.985,0.044,-0.026,0,0,0,-34.6,5.9,26.8,0.169255654,0.701223792,-0.145512253,0.677053133
353,886290,818830,0.988,0.04,-0.022,0,0,0,-34.6,5.9,26.8,0.169255654,0.701223792,-0.145512253,0.677053133
354,888661,818840,0.988,0.04,-0.022,0,0,0,-34.6,5.9,26.8,0.169255654,0.701223792,-0.145512253,0.677053133
355,890914,818840,0.985,0.036,-0.03,0,-0.1,0.1,-34.7,6.1,26.9,0.169286172,0.701193274,-0.145512253,0.677083651
356,893253,818840,0.985,0.04,-0.026,0,-0.1,0,-34.7,6.1,26.9,0.169255654,0.701223792,-0.145512253,0.677083651
357,895674,818840,0.985,0.036,-0.026,0,-0.1,0,-34.7,6.1,26.9,0.169255654,0.701223792,-0.145512253,0.677083651
358,899705,818850,0.981,0.04,-0.022,0,0,-0.2,-36.6,6,26.9,0.169286172,0.701223792,-0.145512253,0.677083651
359,901782,818850,0.985,0.04,-0.026,0,0,-0.2,-36.6,6,26.9,0.169286172,0.701223792,-0.145512253,0.677083651
360,904785,818850,0.988,0.04,-0.018,0,0,0,-36.6,6,26.9,0.169286172,0.701223792,-0.145512253,0.677083651
361,905901,818850,0.988,0.044,-0.022,0,0,0,-36.6,6,26.9,0.169286172,0.701223792,-0.145512253,0.677053133
362,908258,818860,0.988,0.036,-0.022,0,0,0,-33.7,6.1,27,0.169286172,0.701223792,-0.145512253,0.677053133
363,910683,818860,0.985,0.036,-0.026,0,0.1,-0.1,-33.7,6.1,27,0.169286172,0.701223792,-0.145512253,0.677053133
364,913599,818860,0.988,0.04,-0.026,0,0.2,-0.1,-33.7,6.1,27,0.169286172,0.701223792,-0.145481735,0.677083651
365,915975,818860,0.985,0.04,-0.022,0,0.1,-0.1,-33.7,6.1,27,0.169286172,0.701223792,-0.145481735,0.677083651
366,918457,818870,0.985,0.04,-0.022,0,0,-0.1,-33.8,6.2,26.8,0.169286172,0.701223792,-0.145481735,0.677083651
367,920805,818870,0.985,0.04,-0.034,0.1,-0.1,-0.1,-33.8,6.2,26.8,0.169286172,0.701223792,-0.145481735,0.677083651
368,924814,818870,0.985,0.04,-0.026,0,-0.1,0,-33.8,6.2,26.8,0.169286172,0.701223792,-0.145481735,0.677053133
369,927203,818870,0.985,0.04,-0.026,0,-0.1,0,-33.8,6.2,26.8,0.169286172,0.701223792,-0.145481735,0.677053133
370,929017,818880,0.988,0.04,-0.026,0,-0.1,0,-33.9,5.8,26.8,0.169286172,0.701223792,-0.145481735,0.677053133
371,931236,818880,0.985,0.04,-0.022,0,0,0,-33.9,5.8,26.8,0.169286172,0.701223792,-0.145481735,0.677053133
372,933157,818880,0.981,0.044,-0.026,0,0,0,-33.9,5.8,26.8,0.169286172,0.701223792,-0.145481735,0.677053133
373,935943,818880,0.985,0.04,-0.022,0,0,0,-33.9,5.8,26.8,0.169286172,0.701223792,-0.145481735,0.677053133
374,939065,818890,0.985,0.04,-0.022,0,0,0,-33.9,5.8,26.8,0.169286172,0.701223792,-0.145481735,0.677053133
375,941233,818890,0.985,0.04,-0.03,0,0,0,-33.9,6,26.7,0.169316691,0.701223792,-0.145451216,0.677053133
376,943049,818890,0.985,0.044,-0.022,0,0.2,0,-33.9,6,26.7,0.169316691,0.701223792,-0.145451216,0.677083651
377,946608,818890,0.985,0.04,-0.03,0,0.3,0,-33.9,6,26.7,0.169316691,0.701193274,-0.145451216,0.677083651
378,948828,818900,0.985,0.04,-0.022,0,0.3,0,-35.2,5.8,27,0.169316691,0.701193274,-0.145451216,0.677083651
379,950975,818900,0.985,0.032,-0.026,0,0.2,0,-35.2,5.8,27,0.169316691,0.701193274,-0.145451216,0.677083651
380,953292,818900,0.985,0.04,-0.026,0,0,0,-35.2,5.8,27,0.169316691,0.701193274,-0.145451216,0.677083651
381,955969,818900,0.988,0.04,-0.026,0,0,0,-35.2,5.8,27,0.169316691,0.701193274,-0.145451216,0.677083651
382,958144,818910,0.985,0.044,-0.026,0,0,-0.1,-35.2,5.7,26.6,0.169316691,0.701193274,-0.145451216,0.677083651
383,961315,818910,0.985,0.04,-0.026,0,0,0,-35.2,5.7,26.6,0.169316691,0.701193274,-0.145451216,0.677083651
384,963455,818910,0.981,0.04,-0.022,0,0,0,-35.2,5.7,26.6,0.169316691,0.701193274,-0.145451216,0.677083651
385,967307,818910,0.981,0.036,-0.022,0,0,0.1,-35.2,5.7,26.6,0.169316691,0.701193274,-0.145451216,0.677083651
386,969518,818920,0.985,0.044,-0.022,0,-0.1,0.1,-35.1,5.8,26.7,0.169316691,0.701193274,-0.145481735,0.677083651
387,971934,818920,0.988,0.036,-0.03,0,-0.1,0,-35.1,5.8,26.7,0.169316691,0.701193274,-0.145481735,0.677083651
388,974082,818920,0.988,0.032,-0.022,0,-0.1,0,-35.1,5.8,26.7,0.169316691,0.701193274,-0.145481735,0.677083651
389,976475,818920,0.985,0.04,-0.026,0,-0.1,0,-35.1,5.8,26.7,0.169316691,0.701193274,-0.145481735,0.677083651
390,978673,818930,0.981,0.04,-0.022,0,-0.1,0,-35.2,5.8,26.5,0.169316691,0.701223792,-0.145481735,0.677083651
391,981736,818930,0.981,0.036,-0.022,0,0,0,-35.2,5.8,26.5,0.169316691,0.701223792,-0.145481735,0.677083651
392,983239,818930,0.981,0.04,-0.026,0.1,0,-0.1,-35.2,5.8,26.5,0.169316691,0.701223792,-0.145451216,0.677083651
393,985687,818930,0.985,0.044,-0.03,0.1,0,-0.1,-35.2,5.8,26.5,0.169316691,0.701223792,-0.145451216,0.677083651
394,988189,818940,0.985,0.044,-0.03,0.1,0,-0.1,-35.2,5.8,26.5,0.169316691,0.701223792,-0.145451216,0.677083651
395,990736,818940,0.985,0.032,-0.026,0,-0.1,0,-35.2,5.9,27,0.169316691,0.701223792,-0.145451216,0.677053133
396,994016,818940,0.981,0.04,-0.026,0,-0.1,0,-35.2,5.9,27,0.169316691,0.701223792,-0.145451216,0.677053133
397,995990,818940,0.985,0.036,-0.03,0,-0.2,0,-35.2,5.9,27,0.169316691,0.701223792,-0.145451216,0.677053133
398,999089,818950,0.992,0.044,-0.026,0,-0.3,0,-35.1,5.8,26,0.169316691,0.701223792,-0.145451216,0.677053133
399,1000701,818950,0.985,0.04,-0.026,0,-0.3,0,-35.1,5.8,26,0.169316691,0.701254311,-0.145451216,0.677053133
400,1005056,818950,0.985,0.04,-0.022,0,-0.1,0,-35.1,5.8,26,0.169316691,0.701254311,-0.145451216,0.677053133
401,1007222,818950,0.985,0.036,-0.026,0,0,0,-35.1,5.8,26,0.169316691,0.701254311,-0.145451216,0.677053133
402,1009319,818960,0.981,0.036,-0.034,0,0.1,0,-35.2,6.3,27.1,0.169316691,0.701254311,-0.145451216,0.677053133
403,1011730,818960,0.985,0.04,-0.022,0,0.2,0,-35.2,6.3,27.1,0.169316691,0.701223792,-0.145451216,0.677053133
404,1014194,818960,0.985,0.044,-0.018,0,0.2,0,-35.2,6.3,27.1,0.169316691,0.701223792,-0.145451216,0.677053133
405,1016290,818960,0.988,0.036,-0.03,0,0,0,-35.2,6.3,27.1,0.169316691,0.701223792,-0.145451216,0.677053133
406,1018760,818970,0.985,0.04,-0.026,0,0,0,-35.4,6.2,27.9,0.169316691,0.701223792,-0.145451216,0.677053133
407,1020882,818970,0.988,0.04,-0.03,0,0,0,-35.4,6.2,27.9,0.169316691,0.701223792,-0.145451216,0.677053133
408,1023346,818970,0.988,0.032,-0.022,0,0,0,-35.4,6.2,27.9,0.169316691,0.701223792,-0.145451216,0.677053133
409,1025596,818970,0.985,0.036,-0.026,0,0,-0.1,-35.4,6.2,27.9,0.169316691,0.701223792,-0.145451216,0.677053133
410,1029103,818980,0.985,0.04,-0.022,0,0,-0.1,-34.7,6.3,28.2,0.169316691,0.701223792,-0.145451216,0.677053133
411,1030668,818980,0.988,0.04,-0.026,0.1,-0.1,0,-34.7,6.3,28.2,0.169316691,0.701223792,-0.145451216,0.677053133
412,1033227,818980,0.988,0.04,-0.03,0.1,0,0,-34.7,6.3,28.2,0.169316691,0.701223792,-0.145451216,0.677053133
413,1035713,818980,0.988,0.04,-0.022,0.1,0,0,-34.7,6.3,28.2,0.169316691,0.701223792,-0.145451216,0.677053133
414,1038785,818990,0.988,0.04,-0.022,0.1,0,0,-34.7,6.3,28.2,0.169316691,0.701223792,-0.145451216,0.677053133
415,1041042,818990,0.985,0.04,-0.026,0,0,0,-35.4,6,28.6,0.169316691,0.701254311,-0.145420698,0.677053133
416,1043223,818990,0.981,0.04,-0.026,-0.1,0,0,-35.4,6,28.6,0.169316691,0.701254311,-0.145420698,0.677053133
417,1046001,818990,0.988,0.036,-0.026,0,-0.1,0,-35.4,6,28.6,0.169316691,0.701254311,-0.145420698,0.677053133
418,1048937,819000,0.981,0.04,-0.026,0,-0.1,0,-35.1,6.1,25.2,0.169316691,0.701254311,-0.145420698,0.677053133
419,1050698,819000,0.985,0.04,-0.026,0,-0.1,0,-35.1,6.1,25.2,0.169316691,0.701254311,-0.145420698,0.677022614
420,1054051,819000,0.985,0.04,-0.026,0,-0.1,0,-35.1,6.1,25.2,0.169316691,0.701254311,-0.145420698,0.677022614
421,1055737,819000,0.985,0.04,-0.026,0,0,0,-35.1,6.1,25.2,0.169316691,0.701254311,-0.145420698,0.677022614
422,1059427,819010,0.981,0.04,-0.022,0,0,-0.1,-34.7,6,27.2,0.169316691,0.701254311,-0.145420698,0.677022614
423,1060794,819010,0.988,0.04,-0.026,0,0.1,-0.1,-34.7,6,27.2,0.169316691,0.701254311,-0.145420698,0.677022614
424,1063523,819010,0.988,0.04,-0.022,0,0,0,-34.7,6,27.2,0.169316691,0.701254311,-0.145420698,0.677022614
425,1066041,819010,0.985,0.044,-0.026,0.1,0,0,-34.7,6,27.2,0.169316691,0.701254311,-0.145420698,0.677022614
426,1068155,819020,0.985,0.04,-0.026,0,-0.1,0,-34.8,6.1,26.9,0.169316691,0.701254311,-0.145420698,0.677022614
427,1071222,819020,0.988,0.04,-0.026,0,-0.1,0,-34.8,6.1,26.9,0.169316691,0.701254311,-0.145420698,0.677022614
428,1073454,819020,0.988,0.036,-0.022,0,-0.1,0,-34.8,6.1,26.9,0.169316691,0.701254311,-0.145420698,0.677022614
429,1075714,819020,0.988,0.036,-0.022,0,-0.1,0,-34.8,6.1,26.9,0.169316691,0.701254311,-0.145420698,0.677022614
430,1079705,819030,0.988,0.04,-0.022,0,0,0,-35,6,25.9,0.169316691,0.701254311,-0.145420698,0.677022614
431,1081964,819030,0.985,0.04,-0.018,0,0,0,-35,6,25.9,0.169316691,0.701254311,-0.145420698,0.677022614
432,1083454,819030,0.988,0.036,-0.026,0,0,-0.1,-35,6,25.9,0.169316691,0.701254311,-0.145420698,0.677022614
433,1085708,819030,0.985,0.04,-0.026,0,0,0,-35,6,25.9,0.169316691,0.701254311,-0.145420698,0.677022614
434,1088288,819040,0.985,0.04,-0.026,0,0,0,-35,6,25.9,0.169316691,0.701254311,-0.145420698,0.677022614
435,1090653,819040,0.985,0.04,-0.022,0,0,0.1,-35,6.3,25.7,0.169316691,0.701254311,-0.145420698,0.677053133
436,1094811,819040,0.985,0.036,-0.026,0,-0.1,0,-35,6.3,25.7,0.169316691,0.701254311,-0.145420698,0.677053133
437,1096811,819040,0.985,0.04,-0.022,0,-0.2,0,-35,6.3,25.7,0.169316691,0.701254311,-0.145451216,0.677022614
438,1098497,819050,0.985,0.036,-0.022,0,-0.1,0,-35.1,5.9,26.7,0.169316691,0.701254311,-0.145451216,0.677022614
439,1100721,819050,0.988,0.036,-0.026,0,0,0,-35.1,5.9,26.7,0.169316691,0.701254311,-0.145451216,0.677022614
440,1103752,819050,0.988,0.04,-0.018,0,0.1,0,-35.1,5.9,26.7,0.169347209,0.701254311,-0.145451216,0.677022614
441,1106029,819050,0.985,0.036,-0.026,0,0,0,-35.1,5.9,26.7,0.169347209,0.701254311,-0.145451216,0.677022614
442,1108067,819060,0.985,0.04,-0.026,0,0,0,-34.9,6.2,26.6,0.169347209,0.701254311,-0.145451216,0.677022614
443,1111320,819060,0.985,0.04,-0.026,0,-0.1,0,-34.9,6.2,26.6,0.169347209,0.701254311,-0.145451216,0.677022614
444,1113275,819060,0.985,0.036,-0.03,-0.1,-0.1,0,-34.9,6.2,26.6,0.169347209,0.701254311,-0.145451216,0.677022614
445,1117123,819060,0.985,0.04,-0.026,-0.1,-0.1,0,-34.9,6.2,26.6,0.169347209,0.701254311,-0.145451216,0.677022614
446,1119327,819070,0.985,0.04,-0.03,0,-0.1,0,-35,6,27.1,0.169347209,0.701254311,-0.145451216,0.677022614
447,1121469,819070,0.988,0.04,-0.022,0,0,0,-35,6,27.1,0.169347209,0.701254311,-0.145451216,0.677022614
448,1123495,819070,0.985,0.036,-0.022,0,-0.1,0,-35,6,27.1,0.169347209,0.701254311,-0.145451216,0.677022614
449,1125587,819070,0.985,0.04,-0.018,0,-0.1,0,-35,6,27.1,0.169347209,0.701254311,-0.145451216,0.677022614
450,1129129,819080,0.985,0.044,-0.026,0,0,0,-35.1,6.1,26.4,0.169347209,0.701254311,-0.145451216,0.677022614
451,1130715,819080,0.988,0.036,-0.022,0,0.1,0,-35.1,6.1,26.4,0.169347209,0.701254311,-0.145451216,0.677022614
452,1133154,819080,0.988,0.036,-0.026,0,0.1,0,-35.1,6.1,26.4,0.169347209,0.701254311,-0.145451216,0.677022614
453,1136627,819080,0.988,0.036,-0.022,-0.1,0,0,-35.1,6.1,26.4,0.169347209,0.701254311,-0.145451216,0.677022614
454,1138436,819090,0.988,0.036,-0.022,-0.1,0,0,-35.1,6.1,26.4,0.169347209,0.701254311,-0.145451216,0.677022614
455,1140852,819090,0.985,0.044,-0.026,0,0,-0.1,-35.1,6.3,26.9,0.169347209,0.701254311,-0.145451216,0.677022614
456,1144406,819090,0.988,0.044,-0.026,0,0,0,-35.1,6.3,26.9,0.169347209,0.701254311,-0.145451216,0.677022614
457,1146661,819090,0.988,0.036,-0.022,0,0,0,-35.1,6.3,26.9,0.169347209,0.701254311,-0.145451216,0.677022614
458,1148159,819100,0.985,0.04,-0.022,0,0,0.1,-35.1,6.6,27.9,0.169347209,0.701254311,-0.145451216,0.677022614
459,1151669,819100,0.985,0.044,-0.022,0,0,0.2,-35.1,6.6,27.9,0.169347209,0.701254311,-0.145451216,0.677022614
460,1153248,819100,0.988,0.04,-0.022,0,0,0.1,-35.1,6.6,27.9,0.169347209,0.701254311,-0.145451216,0.677022614
461,1155780,819100,0.988,0.04,-0.022,0,0.1,0,-35.1,6.6,27.9,0.169347209,0.701254311,-0.145451216,0.677022614
462,1158466,819110,0.985,0.04,-0.03,0,0.1,0,-35.3,4.9,25.8,0.169347209,0.701254311,-0.145451216,0.677022614
463,1160813,819110,0.985,0.044,-0.026,0,0.1,0,-35.3,4.9,25.8,0.169347209,0.701254311,-0.145451216,0.677022614
464,1163233,819110,0.985,0.04,-0.022,0,0.1,0,-35.3,4.9,25.8,0.169347209,0.701254311,-0.145451216,0.677022614
465,1165714,819110,0.981,0.04,-0.022,0,0,0,-35.3,4.9,25.8,0.169347209,0.701254311,-0.145451216,0.677022614
466,1169807,819120,0.985,0.04,-0.026,0.1,0,0,-35,4.2,26,0.169347209,0.701254311,-0.145451216,0.677022614
467,1172107,819120,0.981,0.036,-0.026,0.1,0,0,-35,4.2,26,0.169347209,0.701254311,-0.145451216,0.677022614
468,1174334,819120,0.988,0.044,-0.026,0.1,0.2,0.1,-35,4.2,26,0.169316691,0.701223792,-0.145451216,0.677053133
469,1176535,819120,0.985,0.044,-0.03,0,0.2,0.1,-35,4.2,26,0.169316691,0.701223792,-0.145451216,0.677053133
470,1178850,819130,0.988,0.04,-0.026,0,0.1,0.1,-35,4.1,25.9,0.169316691,0.701223792,-0.145451216,0.677053133
471,1181099,819130,0.981,0.04,-0.026,0,0,0,-35,4.1,25.9,0.169316691,0.701223792,-0.145451216,0.677053133
472,1183355,819130,0.985,0.04,-0.022,-0.1,0,0,-35,4.1,25.9,0.169316691,0.701223792,-0.145451216,0.677053133
473,1185575,819130,0.988,0.04,-0.022,-0.1,0,0,-35,4.1,25.9,0.169316691,0.701223792,-0.145481735,0.677053133
474,1188027,819140,0.985,0.036,-0.026,-0.1,-0.1,0,-35.1,3.7,26.2,0.169347209,0.701223792,-0.145451216,0.677053133
475,1191580,819140,0.988,0.036,-0.022,-0.1,-0.1,0,-35.1,3.7,26.2,0.169347209,0.701223792,-0.145451216,0.677053133
476,1193834,819140,0.985,0.04,-0.026,0,0,0,-35.1,3.7,26.2,0.169347209,0.701223792,-0.145451216,0.677053133
477,1196085,819140,0.985,0.036,-0.026,0,0.1,0,-35.1,3.7,26.2,0.169347209,0.701223792,-0.145451216,0.677053133
478,1198277,819150,0.985,0.036,-0.026,0.1,0.1,-0.1,-35.2,7.4,27.1,0.169347209,0.701223792,-0.145451216,0.677053133
479,1200600,819150,0.985,0.036,-0.026,0.1,0.1,-0.2,-35.2,7.4,27.1,0.169347209,0.701223792,-0.145451216,0.677053133
480,1203147,819150,0.981,0.036,-0.022,0.1,0.1,-0.2,-35.2,7.4,27.1,0.169347209,0.701223792,-0.145451216,0.677053133
481,1206541,819150,0.985,0.036,-0.026,0.1,0.1,-0.2,-35.2,7.4,27.1,0.169347209,0.701223792,-0.145451216,0.677053133
482,1208640,819160,0.988,0.036,-0.026,0.1,0.2,-0.1,-35.3,5.5,26.8,0.169347209,0.701223792,-0.145451216,0.677053133
483,1210913,819160,0.985,0.044,-0.018,0,0.2,0,-35.3,5.5,26.8,0.169347209,0.701223792,-0.145451216,0.677083651
484,1213756,819160,0.988,0.04,-0.022,0,0.2,0.1,-35.3,5.5,26.8,0.169347209,0.701193274,-0.145451216,0.677083651
485,1215919,819160,0.985,0.036,-0.026,0,0,0.1,-35.3,5.5,26.8,0.169347209,0.701193274,-0.145451216,0.677083651
486,1218980,819170,0.988,0.04,-0.026,0,0,0,-35.1,6.5,26.7,0.169347209,0.701193274,-0.145451216,0.677083651
487,1221949,819170,0.985,0.044,-0.022,0,0,0,-35.1,6.5,26.7,0.169347209,0.701193274,-0.145451216,0.677083651
488,1223358,819170,0.985,0.04,-0.022,0,0,-0.1,-35.1,6.5,26.7,0.169347209,0.701193274,-0.145420698,0.677083651
489,1226326,819170,0.985,0.036,-0.026,0,0,0,-35.1,6.5,26.7,0.169347209,0.701193274,-0.145420698,0.677083651
490,1229572,819180,0.985,0.036,-0.022,0,0,0,-35,6.8,26.8,0.169347209,0.701193274,-0.145420698,0.677083651
491,1230892,819180,0.985,0.04,-0.026,0,-0.1,0,-35,6.8,26.8,0.169347209,0.701193274,-0.145420698,0.677083651
492,1234267,819180,0.985,0.04,-0.03,0,-0.1,-0.1,-35,6.8,26.8,0.169347209,0.701223792,-0.145420698,0.677053133
493,1235651,819180,0.985,0.04,-0.022,-0.1,-0.1,0,-35,6.8,26.8,0.169347209,0.701223792,-0.145420698,0.677053133
494,1238661,819190,0.988,0.04,-0.026,0,-0.2,0,-35.2,7.4,26.7,0.169347209,0.701223792,-0.145451216,0.677053133
495,1240666,819190,0.985,0.04,-0.022,0,-0.2,0,-35.2,7.4,26.7,0.169347209,0.701223792,-0.145451216,0.677053133
496,1243733,819190,0.985,0.04,-0.026,0,-0.2,0,-35.2,7.4,26.7,0.169347209,0.701223792,-0.145451216,0.677053133
497,1245899,819190,0.985,0.04,-0.026,0,-0.2,0,-35.2,7.4,26.7,0.169347209,0.701223792,-0.145451216,0.677053133
498,1249722,819200,0.988,0.04,-0.022,0,-0.1,0,-35.2,5.7,26.9,0.169347209,0.701223792,-0.145451216,0.677053133
499,1252014,819200,0.992,0.036,-0.022,0.1,-0.1,0,-35.2,5.7,26.9,0.169347209,0.701223792,-0.145451216,0.677053133
500,1254179,819200,0.985,0.036,-0.026,0.1,-0.1,0,-35.2,5.7,26.9,0.169347209,0.701223792,-0.145451216,0.677053133
501,1256359,819200,0.985,0.04,-0.03,0.1,-0.1,0,-35.2,5.7,26.9,0.169347209,0.701223792,-0.145451216,0.677053133
502,1258764,819210,0.985,0.04,-0.026,0.1,-0.1,0,-35.3,6.5,26.8,0.169347209,0.701254311,-0.145420698,0.677053133
503,1260952,819210,0.985,0.036,-0.026,0.1,-0.1,0,-35.3,6.5,26.8,0.169347209,0.701254311,-0.145420698,0.677053133
504,1264157,819210,0.988,0.044,-0.022,0,-0.1,0,-35.3,6.5,26.8,0.169347209,0.701254311,-0.145420698,0.677022614
505,1265759,819210,0.985,0.04,-0.026,0,-0.2,0,-35.3,6.5,26.8,0.169347209,0.701254311,-0.145420698,0.677022614
506,1269791,819220,0.985,0.036,-0.026,-0.1,-0.3,0.1,-35.5,6.4,26.7,0.169347209,0.701254311,-0.145451216,0.677022614
507,1272007,819220,0.985,0.036,-0.026,-0.1,-0.3,0.1,-35.5,6.4,26.7,0.169347209,0.701254311,-0.145451216,0.677022614
508,1274254,819220,0.985,0.04,-0.022,0,-0.1,0,-35.5,6.4,26.7,0.169347209,0.701254311,-0.145451216,0.677022614
509,1276435,819220,0.985,0.04,-0.026,-0.1,-0.1,0,-35.5,6.4,26.7,0.169347209,0.701254311,-0.145451216,0.677022614
510,1278661,819230,0.985,0.044,-0.026,0,0,0,-35.6,6.2,26.7,0.169347209,0.701254311,-0.145451216,0.677022614
511,1281025,819230,0.985,0.036,-0.022,0,-0.1,0,-35.6,6.2,26.7,0.169347209,0.701254311,-0.145451216,0.677022614
512,1283248,819230,0.977,0.04,-0.022,0,0,0,-35.6,6.2,26.7,0.169347209,0.701254311,-0.145451216,0.677022614
513,1285882,819230,0.988,0.032,-0.026,0,0,0,-35.6,6.2,26.7,0.169347209,0.701254311,-0.145451216,0.677022614
514,1288056,819240,0.988,0.036,-0.026,0,0,0.1,-36.3,6.3,27,0.169316691,0.701254311,-0.145451216,0.677022614
515,1292279,819240,0.988,0.036,-0.026,0,0,0.1,-36.3,6.3,27,0.169316691,0.701254311,-0.145451216,0.677022614
516,1294447,819240,0.985,0.04,-0.026,0,-0.1,0.1,-36.3,6.3,27,0.169316691,0.701254311,-0.145451216,0.677022614
517,1295930,819240,0.988,0.04,-0.026,0,-0.3,0,-36.3,6.3,27,0.169316691,0.701254311,-0.145451216,0.677022614
518,1298258,819250,0.981,0.036,-0.03,0,-0.2,0,-34.6,4.6,26.7,0.169316691,0.701254311,-0.145451216,0.677022614
519,1300821,819250,0.985,0.036,-0.026,0,-0.1,0,-34.6,4.6,26.7,0.169316691,0.701254311,-0.145451216,0.677022614
520,1303160,819250,0.988,0.032,-0.026,0,-0.1,0,-34.6,4.6,26.7,0.169316691,0.701254311,-0.145481735,0.677022614
521,1307256,819250,0.985,0.04,-0.022,0,-0.1,0,-34.6,4.6,26.7,0.169316691,0.701254311,-0.145481735,0.677022614
522,1309477,819260,0.988,0.04,-0.026,0,0,0,-36.9,7.2,27,0.169316691,0.701254311,-0.145481735,0.677022614
523,1311732,819260,0.981,0.04,-0.018,0,0,0,-36.9,7.2,27,0.169316691,0.701254311,-0.145481735,0.677022614
524,1314249,819260,0.985,0.04,-0.026,0,0,0,-36.9,7.2,27,0.169316691,0.701254311,-0.145481735,0.677022614
525,1316587,819260,0.981,0.036,-0.022,0,0,0,-36.9,7.2,27,0.169316691,0.701254311,-0.145481735,0.677022614
526,1319051,819270,0.985,0.04,-0.026,0,-0.1,0,-36.8,7.3,27.3,0.169316691,0.701254311,-0.145481735,0.677022614
527,1321131,819270,0.985,0.036,-0.03,-0.1,-0.1,0,-36.8,7.3,27.3,0.169316691,0.701254311,-0.145481735,0.676992096
528,1323357,819270,0.988,0.04,-0.022,-0.1,0,0,-36.8,7.3,27.3,0.169316691,0.701254311,-0.145481735,0.676992096
529,1326150,819270,0.985,0.04,-0.03,0,0.1,0,-36.8,7.3,27.3,0.169316691,0.701254311,-0.145481735,0.676992096
530,1328405,819280,0.988,0.04,-0.022,0,0.2,0,-37.4,7.2,27.2,0.169316691,0.701254311,-0.145481735,0.677022614
531,1331292,819280,0.985,0.036,-0.022,0,0.2,0,-37.4,7.2,27.2,0.169316691,0.701254311,-0.145481735,0.677022614
532,1333547,819280,0.985,0.04,-0.026,0,0.1,0,-37.4,7.2,27.2,0.169316691,0.701254311,-0.145481735,0.677022614
533,1335785,819280,0.988,0.04,-0.022,0,0,0,-37.4,7.2,27.2,0.169316691,0.701254311,-0.145481735,0.677022614
534,1338444,819290,0.988,0.036,-0.03,0,0,0,-36.7,7.6,26.9,0.169316691,0.701223792,-0.145481735,0.677022614
535,1340703,819290,0.988,0.036,-0.018,0,0,0,-36.7,7.6,26.9,0.169316691,0.701223792,-0.145481735,0.677022614
536,1344878,819290,0.988,0.04,-0.034,0,0,0.1,-36.7,7.6,26.9,0.169316691,0.701223792,-0.145481735,0.677022614
537,1346739,819290,0.981,0.04,-0.026,0,0,0.2,-36.7,7.6,26.9,0.169316691,0.701223792,-0.145481735,0.677022614
538,1348390,819300,0.985,0.04,-0.022,0,0,0.2,-34.3,5.4,26.8,0.169316691,0.701223792,-0.145481735,0.677022614
539,1350727,819300,0.985,0.044,-0.03,0,0,0.1,-34.3,5.4,26.8,0.169316691,0.701223792,-0.145481735,0.677022614
540,1354897,819300,0.981,0.044,-0.022,0,0,0,-34.3,5.4,26.8,0.169316691,0.701223792,-0.145481735,0.677022614
541,1357089,819300,0.988,0.04,-0.026,0,0,0,-34.3,5.4,26.8,0.169316691,0.701223792,-0.145481735,0.677053133
542,1359306,819310,0.985,0.04,-0.026,0,0,0,-35.8,6.1,26.7,0.169316691,0.701223792,-0.145481735,0.677053133
543,1361594,819310,0.985,0.04,-0.026,0,0,0,-35.8,6.1,26.7,0.169316691,0.701223792,-0.145481735,0.677053133
544,1364230,819310,0.985,0.04,-0.022,0,-0.1,0,-35.8,6.1,26.7,0.169316691,0.701223792,-0.145481735,0.677022614
545,1366565,819310,0.988,0.04,-0.026,0,-0.1,0,-35.8,6.1,26.7,0.169316691,0.701254311,-0.145512253,0.677022614
546,1368708,819320,0.981,0.036,-0.026,0,-0.1,0,-35.2,6.5,27,0.169316691,0.701254311,-0.145512253,0.677022614
547,1370667,819320,0.981,0.036,-0.026,0,0,-0.1,-35.2,6.5,27,0.169316691,0.701254311,-0.145481735,0.677022614
548,1373199,819320,0.988,0.04,-0.022,0,0,-0.1,-35.2,6.5,27,0.169316691,0.701254311,-0.145481735,0.677022614
549,1376656,819320,0.985,0.04,-0.022,0,0,-0.1,-35.2,6.5,27,0.169316691,0.701254311,-0.145481735,0.677022614
550,1378246,819330,0.988,0.04,-0.026,-0.1,0,0,-34.8,6.4,27.3,0.169316691,0.701254311,-0.145481735,0.677022614
551,1380719,819330,0.988,0.04,-0.026,-0.1,-0.1,0,-34.8,6.4,27.3,0.169316691,0.701254311,-0.145481735,0.677022614
552,1384967,819330,0.985,0.04,-0.026,0,-0.1,0,-34.8,6.4,27.3,0.169316691,0.701254311,-0.145481735,0.677022614
553,1387184,819330,0.985,0.04,-0.018,0,-0.1,0,-34.8,6.4,27.3,0.169316691,0.701254311,-0.145481735,0.677022614
554,1389423,819340,0.985,0.04,-0.022,0,-0.1,0,-33.9,6,27,0.169347209,0.701254311,-0.145481735,0.677022614
555,1391280,819340,0.988,0.04,-0.022,0,-0.1,0,-33.9,6,27,0.169347209,0.701254311,-0.145481735,0.677022614
556,1393213,819340,0.988,0.04,-0.026,0,0,0,-33.9,6,27,0.169347209,0.701254311,-0.145481735,0.677022614
557,1396669,819340,0.985,0.04,-0.026,0,0.1,0,-33.9,6,27,0.169347209,0.701254311,-0.145481735,0.677022614
558,1398222,819350,0.985,0.04,-0.022,0,0.1,0,-35.3,6.2,26.8,0.169347209,0.701254311,-0.145481735,0.677022614
559,1400612,819350,0.985,0.036,-0.026,0,0,0,-35.3,6.2,26.8,0.169347209,0.701254311,-0.145481735,0.677022614
560,1403866,819350,0.985,0.04,-0.022,0,0,0,-35.3,6.2,26.8,0.169347209,0.701254311,-0.145481735,0.677022614
561,1406115,819350,0.988,0.036,-0.03,0,0,0,-35.3,6.2,26.8,0.169347209,0.701254311,-0.145481735,0.677022614
562,1408421,819360,0.988,0.04,-0.026,0,0,0,-34.8,5.8,26.6,0.169347209,0.701254311,-0.145481735,0.677022614
563,1410699,819360,0.988,0.036,-0.026,0,0,0,-34.8,5.8,26.6,0.169347209,0.701254311,-0.145481735,0.677022614
564,1413099,819360,0.743,0.027,-0.014,0,0.1,0,-34.8,5.8,26.6,0.169347209,0.701254311,-0.145481735,0.677022614
565,1416610,819360,-4.169,-0.992,0.249,-0.2,1.3,0,-34.8,5.8,26.6,0.169347209,0.701223792,-0.145481735,0.677053133
566,1418087,819370,3.983,-1.624,-8.105,-9.3,42.9,1.5,-34.7,6.3,27,0.169591357,0.700552385,-0.145481735,0.677694021
567,1421030,819370,0.417,0.186,-7.958,-17.7,165.4,-3.8,-34.7,6.3,27,0.170445875,0.698049867,-0.145084994,0.680135502
568,1424191,819370,5.181,2.384,-8.154,10.5,281.2,-16.7,-34.7,6.3,27,0.171422468,0.693960387,-0.143620106,0.684377575
569,1425714,819370,7.171,7.877,7.525,89.7,265.5,-34.1,-34.7,6.3,27,0.171422468,0.69042024,-0.140751366,0.688528092
570,1428518,819380,7.969,-4.484,7.819,142.3,82.2,-41.4,-36.7,6.4,25.7,0.17014069,0.689840388,-0.137699515,0.690054018
571,1430739,819380,1.87,-6.641,3.552,68.8,-110,-27.5,-36.7,6.4,25.7,0.169164098,0.691824091,-0.136631367,0.688467055
572,1433798,819380,-5.638,3.752,6.982,-51.5,-124.6,-2.2,-36.7,6.4,25.7,0.169621876,0.693502609,-0.137852107,0.686452834
573,1435975,819380,-0.988,-2.345,6.553,-106.5,25.1,15.7,-36.7,6.4,25.7,0.171086764,0.69267861,-0.139591662,0.686574908
574,1439094,819390,2.66,-4.581,1.519,-78.6,147.2,15.9,-35.9,6.7,27.4,0.172490616,0.690145573,-0.140446181,0.688619648
575,1440782,819390,1.717,-0.754,0.943,-50.9,112.3,3.6,-35.9,6.7,27.4,0.173528245,0.688253426,-0.140842921,0.690145573
576,1443476,819390,-1.837,-0.482,-2.11,-40.4,-3.6,-9.5,-35.9,6.7,27.4,0.174260689,0.68816187,-0.141331217,0.689931944
577,1446492,819390,-0.703,-2.059,-3.893,-12.2,-47.3,-18.3,-35.9,6.7,27.4,0.174596393,0.688894314,-0.141422773,0.689107944
578,1448233,819400,0.367,-1.93,-3.739,15.5,-10.3,-19.6,-37.7,6.3,27,0.174626911,0.689168981,-0.140934477,0.688924833
579,1450967,819400,0.575,-1.257,-1.232,19.8,20.8,-11.8,-37.7,6.3,27,0.174565874,0.68898587,-0.140385144,0.689260537
580,1454296,819400,1.32,-2.488,0.58,10.3,9.1,-1.2,-37.7,6.3,27,0.1744438,0.688863796,-0.140171514,0.689443648
581,1455744,819400,1.28,-1.12,1.189,0,-20.9,7.2,-37.7,6.3,27,0.174291208,0.689168981,-0.140354625,0.689138462
582,1458778,819410,0.999,0.88,2.399,-3.7,-38.6,10.4,-34.9,6.6,27.2,0.17404706,0.689718314,-0.140720847,0.688589129
583,1461071,819410,1.161,0.335,0.441,3.2,-35.8,8.1,-34.9,6.6,27.2,0.173772393,0.690237129,-0.140934477,0.688100833
584,1463276,819410,1.048,0.501,0.299,16.5,-20.4,2.6,-34.9,6.6,27.2,0.173436689,0.690603351,-0.140781884,0.687856685
585,1466259,819410,0.968,1.089,0.39,23.5,-6,-2.3,-34.9,6.6,27.2,0.173070467,0.690786462,-0.140415662,0.687826167
586,1468499,819420,1.079,0.807,-0.27,22.1,1.9,-4.8,-34.8,6.4,27.3,0.172826319,0.690847499,-0.140018921,0.687887204
587,1471616,819420,1.04,-0.033,-1.27,16.8,5.3,-4.8,-34.8,6.4,27.3,0.172673727,0.690847499,-0.139683218,0.688009278
588,1473159,819420,0.963,0.022,-1.287,8.8,6.1,-2.9,-34.8,6.4,27.3,0.172582171,0.690786462,-0.139469588,0.688131352
589,1476808,819420,0.792,-0.148,-0.744,-0.5,5.2,-0.2,-34.8,6.4,27.3,0.17261269,0.690725425,-0.139469588,0.688192389
590,1478251,819430,1.111,-0.548,-0.553,-7.3,2,2,-35,6.5,27.3,0.172704245,0.690664388,-0.139591662,0.688222907
591,1482123,819430,1.224,-0.351,-0.409,-10.3,-3.3,3.4,-35,6.5,27.3,0.172795801,0.690664388,-0.139805292,0.688131352
592,1484297,819430,1.241,-0.08,-0.261,-8.9,-9,3.9,-35,6.5,27.3,0.172856838,0.690755943,-0.14004944,0.687978759
593,1486623,819430,1.202,0.022,-0.252,-2.6,-11.2,3.6,-35,6.5,27.3,0.172795801,0.690878018,-0.140171514,0.687826167
594,1488996,819440,1.071,0.434,0.055,5.1,-7.6,2.8,-34.9,6.2,27.2,0.172673727,0.69103061,-0.140171514,0.687734611
595,1490709,819440,1.098,0.457,-0.003,10.9,-1,2.1,-34.9,6.2,27.2,0.172460097,0.691061129,-0.14004944,0.68776513
596,1493791,819440,1.047,0.225,-0.154,11.6,4.8,1.7,-34.9,6.2,27.2,0.172276986,0.69103061,-0.139866329,0.687887204
597,1496105,819440,0.978,0.379,0.098,8.1,7.8,1.7,-34.9,6.2,27.2,0.172154912,0.690939055,-0.139744255,0.688039796
598,1498300,819450,1.063,0.327,0.146,2.7,7.5,1.9,-36.9,6.5,27.2,0.172093875,0.69081698,-0.139713736,0.68816187
599,1500630,819450,1.125,0.189,0.144,-1.6,4.4,2,-36.9,6.5,27.2,0.172093875,0.690755943,-0.139744255,0.688222907
600,1504323,819450,1.153,0.213,0.241,-3.9,-0.1,1.6,-36.9,6.5,27.2,0.172154912,0.690725425,-0.13983581,0.688222907
601,1506622,819450,1.091,0.198,0.475,-4.4,-3.7,1.1,-36.9,6.5,27.2,0.17218543,0.690755943,-0.139927366,0.68816187
602,1508390,819460,1.067,0.04,0.358,-4,-4.5,0.5,-35.7,6.1,27.4,0.172215949,0.69081698,-0.140018921,0.688070315
603,1510690,819460,0.997,0.009,0.282,-3,-2.8,0.1,-35.7,6.1,27.4,0.172246467,0.690847499,-0.140079958,0.688039796
604,1514101,819460,0.918,0.005,-0.13,-2.6,0,0.1,-35.7,6.1,27.4,0.172307505,0.690847499,-0.140110477,0.688009278
605,1515733,819460,0.91,0.037,-0.282,-2.1,2.4,0.2,-35.7,6.1,27.4,0.172338023,0.690786462,-0.140140996,0.688039796
606,1518201,819470,0.945,0.115,-0.221,-1.4,3.7,0.2,-36.1,6.5,27.6,0.172368542,0.690725425,-0.140140996,0.688100833
607,1520942,819470,1.024,0.146,-0.102,-1,3.1,0.3,-36.1,6.5,27.6,0.172368542,0.690694906,-0.140171514,0.688131352
608,1524935,819470,1.09,-0.014,0.08,-1.2,0.6,0.5,-36.1,6.5,27.6,0.17239906,0.690664388,-0.140171514,0.68816187
609,1525557,819470,1.043,-0.05,0.054,-2.3,-2.3,0.7,-36.1,6.5,27.6,0.17239906,0.690694906,-0.140232551,0.688100833
610,1528503,819480,0.977,-0.041,0.009,-3.5,-3.7,1.1,-35.7,6.2,27.2,0.172429579,0.690725425,-0.140324107,0.688039796
611,1530578,819480,0.93,-0.045,-0.13,-3.8,-2.7,1.2,-35.7,6.2,27.2,0.172460097,0.690755943,-0.140415662,0.688009278
612,1534653,819480,0.945,-0.022,-0.126,-3,-0.8,1.2,-35.7,6.2,27.2,0.172490616,0.690755943,-0.140476699,0.687978759
613,1536858,819480,0.969,0.048,-0.01,-1.6,0.3,1,-35.7,6.2,27.2,0.172490616,0.690725425,-0.140507218,0.687978759
614,1538659,819490,1.005,0.108,0.211,-0.1,0,1.1,-35.9,6.2,27.5,0.172490616,0.690725425,-0.140537736,0.687978759
615,1540715,819490,1.016,0.108,0.246,0.8,-1.3,1.3,-35.9,6.2,27.5,0.172460097,0.690755943,-0.140537736,0.687978759
616,1543546,819490,1.02,0.088,0.246,1.2,-2.6,1.3,-35.9,6.2,27.5,0.17239906,0.690786462,-0.140568255,0.687948241
617,1545839,819490,1.016,0.044,0.176,0.9,-3,1.4,-35.9,6.2,27.5,0.172368542,0.690847499,-0.140568255,0.687917722
618,1548191,819500,0.992,0.025,0.039,0,-2.7,1.4,-36.6,6.4,27.1,0.172338023,0.690878018,-0.140629292,0.687887204
619,1550611,819500,1.004,0.04,-0.011,-0.7,-1.9,1.4,-36.6,6.4,27.1,0.172307505,0.690908536,-0.14065981,0.687856685
620,1554188,819500,1.012,0.024,-0.074,-1,-1.3,1.3,-36.6,6.4,27.1,0.172307505,0.690908536,-0.140690329,0.687826167
621,1555700,819500,1,0.016,-0.066,-1,-1.4,1.4,-36.6,6.4,27.1,0.172307505,0.690908536,-0.140751366,0.687826167
622,1558161,819510,0.992,0.056,-0.034,-0.9,-1.9,1.6,-36.2,6.3,27.8,0.172276986,0.690939055,-0.140781884,0.687795648
623,1561653,819510,0.996,0.04,-0.066,-0.9,-2.7,1.9,-36.2,6.3,27.8,0.172246467,0.690969573,-0.140842921,0.687734611
624,1563223,819510,1,0.032,-0.019,-0.8,-3.2,2.2,-36.2,6.3,27.8,0.172215949,0.691000092,-0.140903958,0.687704093
625,1566318,819510,1,0.048,-0.007,-0.8,-3.5,2.4,-36.2,6.3,27.8,0.17218543,0.691061129,-0.140964995,0.687643056
626,1568539,819520,1.02,-0.002,-0.003,-1,-3.8,2.4,-36.3,6.5,28.7,0.172154912,0.691091647,-0.141026032,0.687612537
627,1570771,819520,1.012,-0.006,-0.011,-1.4,-4.3,2.2,-36.3,6.5,28.7,0.172093875,0.691152684,-0.141117588,0.6875515
628,1574556,819520,1.004,-0.022,-0.026,-1.9,-4.9,2.1,-36.3,6.5,28.7,0.172093875,0.691213721,-0.141178625,0.687459944
629,1576021,819520,0.961,-0.057,-0.056,-2.4,-5.3,2.3,-36.3,6.5,28.7,0.172093875,0.691274758,-0.14127018,0.687398907
630,1579045,819530,0.945,-0.077,-0.071,-2.9,-5.6,2.8,-36,6.4,29,0.172093875,0.691335795,-0.141392254,0.687307352
631,1580730,819530,0.945,-0.1,-0.056,-3.3,-6,3.4,-36,6.4,29,0.172063356,0.691396832,-0.141514328,0.687215796
632,1584253,819530,0.945,-0.104,-0.024,-3.8,-6.9,4,-36,6.4,29,0.172032838,0.691488388,-0.141666921,0.687124241
633,1585855,819530,0.965,-0.076,0.06,-4,-8.6,4.4,-36,6.4,29,0.172002319,0.691579943,-0.141819514,0.687002167
634,1588292,819540,0.961,-0.076,0.166,-3.9,-10.7,4.6,-35.9,6.5,29.4,0.171697134,0.691732536,-0.142246773,0.686849574
635,1590565,819540,0.961,-0.076,0.166,-3.6,-12.7,4.7,-35.9,6.5,29.4,0.171636097,0.691885128,-0.142429884,0.686666463
636,1594005,819540,0.965,-0.009,0.174,-3.1,-13.5,4.8,-35.9,6.5,29.4,0.17157506,0.692068239,-0.142612995,0.686452834
637,1595581,819540,0.95,0.014,0.182,-2.3,-13.3,4.9,-35.9,6.5,29.4,0.171483505,0.692220832,-0.142765587,0.686269723
638,1599260,819550,0.946,0.01,0.205,-1.4,-12.3,4.8,-36,6.3,25.6,0.171391949,0.692373424,-0.14291818,0.686086612
639,1600777,819550,0.926,0.006,0.159,-0.9,-11.2,4.6,-36,6.3,25.6,0.171300394,0.692556536,-0.143040254,0.685934019
640,1603629,819550,0.93,0.037,0.12,-0.8,-10.7,4.5,-36,6.3,25.6,0.171239357,0.69267861,-0.143162328,0.685781426
641,1606572,819550,0.938,0.025,0.123,-1.1,-11.4,4.3,-36,6.3,25.6,0.171117283,0.692831202,-0.143284402,0.685628834
642,1608168,819560,0.926,-0.001,0.104,-1.6,-12.9,4.1,-35.7,6.2,27.9,0.171056246,0.693014313,-0.143406476,0.685445723
643,1610696,819560,0.915,0.006,0.089,-2.5,-14.3,4,-35.7,6.2,27.9,0.170995209,0.693197424,-0.143559069,0.685232093
644,1614097,819560,0.919,0.022,0.128,-3.4,-14.9,3.8,-35.7,6.2,27.9,0.170934172,0.693411054,-0.14374218,0.685018464
645,1615733,819560,0.903,0.041,0.148,-3.8,-14.9,3.8,-35.7,6.2,27.9,0.170903653,0.693594165,-0.143894772,0.684804834
646,1618518,819570,0.892,0.061,0.14,-3.7,-14.5,3.8,-35.8,6.4,27.4,0.170842616,0.693807794,-0.144077883,0.684560686
647,1621568,819570,0.872,0.124,0.149,-3.1,-14.2,3.5,-35.8,6.4,27.4,0.170812098,0.693990905,-0.144230476,0.684377575
648,1623096,819570,1.009,0.218,0.14,-2.4,-13.7,3,-35.8,6.4,27.4,0.170751061,0.694174017,-0.14435255,0.684163945
649,1626030,819570,0.908,0.238,0.245,-1,-12.9,1.9,-35.8,6.4,27.4,0.170690023,0.694357128,-0.144444105,0.683980834
650,1629099,819580,0.876,0.195,0.023,0.2,-12.3,0.6,-35.6,6,27.2,0.170628986,0.694540239,-0.144505142,0.683797723
651,1630676,819580,0.849,0.223,0.055,1,-12.2,-0.5,-35.6,6,27.2,0.170598468,0.69472335,-0.144535661,0.683614612
652,1633174,819580,0.9,0.297,0.061,1.3,-12.7,-1,-35.6,6,27.2,0.170567949,0.694936979,-0.144535661,0.683400983
653,1636595,819580,0.861,0.278,0.145,1.8,-13.2,-1,-35.6,6,27.2,0.170506912,0.69512009,-0.144535661,0.683217872
654,1638174,819590,0.856,0.172,0.032,2.1,-13.9,-1,-35.7,5.9,26.6,0.171086764,0.695272683,-0.143925291,0.683065279
655,1640556,819590,0.888,0.191,0.034,2.1,-14.7,-1,-35.7,5.9,26.6,0.171025727,0.695486312,-0.143925291,0.68285165
656,1643168,819590,0.907,0.171,0.065,1.6,-16.1,-0.8,-35.7,5.9,26.6,0.17096469,0.695730461,-0.143955809,0.682607501
657,1646030,819590,0.977,0.056,0.028,1.2,-18.2,-0.5,-35.7,5.9,26.6,0.170873135,0.696005127,-0.143986328,0.682332835
658,1649071,819600,1.02,0.02,0.015,0.4,-20.8,0,-35.4,6.1,27,0.170812098,0.696340831,-0.144047365,0.68202765
659,1650684,819600,1.051,-0.006,0.006,-0.8,-23.5,0.5,-35.4,6.1,27,0.170751061,0.696676534,-0.144169439,0.681661428
660,1654187,819600,1.066,-0.026,-0.005,-2.1,-25.5,1.1,-35.4,6.1,27,0.170690023,0.697042756,-0.144322031,0.681264687
661,1655706,819600,1.074,-0.058,-0.068,-2.8,-26,1.3,-35.4,6.1,27,0.170628986,0.697408979,-0.144474624,0.680867946
662,1658591,819610,1.058,-0.054,-0.099,-3,-25.1,1.3,-35.7,6.2,27.1,0.170567949,0.697775201,-0.144627216,0.680471206
663,1660801,819610,1.062,-0.034,-0.122,-2.7,-23.1,1,-35.7,6.2,27.1,0.170537431,0.698110904,-0.14474929,0.680104984
664,1663675,819610,1.054,-0.011,-0.106,-1.9,-20.9,0.7,-35.7,6.2,27.1,0.170476394,0.698416089,-0.144901883,0.679799799
665,1665975,819610,1.023,-0.022,-0.125,-0.9,-18.9,0.3,-35.7,6.2,27.1,0.170415357,0.698690756,-0.144993439,0.679494613
666,1669196,819620,1.019,-0.018,-0.203,0,-17.5,0.1,-35.7,6.2,26.7,0.170384838,0.698934904,-0.145054476,0.679250465
667,1671287,819620,1.027,0,-0.274,0.4,-16.5,-0.1,-35.7,6.2,26.7,0.170323801,0.699179052,-0.145115513,0.678975799
668,1673293,819620,1.027,0.02,-0.274,1,-15.7,-0.3,-35.7,6.2,26.7,0.170262764,0.6994232,-0.145146031,0.678762169
669,1676332,819620,1.019,0.012,-0.282,1.7,-14.7,-0.4,-35.7,6.2,26.7,0.17014069,0.699667348,-0.145146031,0.678518021
670,1678610,819630,1.038,0.004,-0.318,2.4,-13.4,-0.4,-35.5,6.2,26.8,0.170110172,0.699850459,-0.14517655,0.67833491
671,1680859,819630,1.058,0.043,-0.326,2.7,-12.3,-0.3,-35.5,6.2,26.8,0.170049135,0.700064089,-0.14517655,0.678151799
672,1683060,819630,1.074,0.051,-0.327,3.2,-11.4,-0.3,-35.5,6.2,26.8,0.169957579,0.7002472,-0.145146031,0.677968688
673,1685635,819630,1.07,0.047,-0.338,3.6,-10.6,-0.1,-35.5,6.2,26.8,0.169866024,0.700399792,-0.145146031,0.677816095
674,1689130,819640,1.077,0.063,-0.331,3.8,-9.7,-0.2,-35.7,6.3,26.4,0.169774468,0.700582904,-0.145115513,0.677694021
675,1690662,819640,1.074,0.078,-0.315,3.8,-8.4,-0.1,-35.7,6.3,26.4,0.169682913,0.700704978,-0.145084994,0.677571947
676,1694102,819640,1.07,0.078,-0.299,3.7,-6.7,0,-35.7,6.3,26.4,0.169621876,0.700827052,-0.145054476,0.677480392
677,1695605,819640,1.066,0.078,-0.291,3.5,-4.9,0,-35.7,6.3,26.4,0.169560839,0.700918607,-0.145023957,0.677419355
678,1698482,819650,1.05,0.079,-0.255,3.2,-3.2,0,-35.1,6.2,27.6,0.169499802,0.700979644,-0.144993439,0.677388836
679,1701558,819650,1.039,0.087,-0.239,2.7,-1.5,0,-35.1,6.2,27.6,0.169438765,0.701010163,-0.14496292,0.677358318
680,1703147,819650,1.027,0.083,-0.212,2.2,-0.2,0.1,-35.1,6.2,27.6,0.169408246,0.701010163,-0.144932402,0.677358318
681,1706016,819650,1.015,0.079,-0.184,1.6,0.9,0,-35.1,6.2,27.6,0.169377728,0.701010163,-0.144901883,0.677388836
682,1709126,819660,0.992,0.075,-0.132,0.9,1.8,0,-35.1,4.9,26.2,0.169377728,0.700979644,-0.144871364,0.677419355
683,1710670,819660,0.984,0.072,-0.112,0.2,2.7,0,-35.1,4.9,26.2,0.169377728,0.700949126,-0.144871364,0.677449873
684,1714251,819660,0.981,0.064,-0.089,-0.2,3.3,0,-35.1,4.9,26.2,0.169408246,0.700888089,-0.144840846,0.67751091
685,1715694,819660,0.977,0.064,-0.045,-0.6,3.8,0,-35.1,4.9,26.2,0.169408246,0.700827052,-0.144840846,0.677571947
686,1718631,819670,0.981,0.052,-0.022,-1.1,3.9,0,-35.2,4.5,25.9,0.169438765,0.700766015,-0.144840846,0.677632984
687,1721621,819670,0.981,0.052,-0.002,-1.4,3.8,0.1,-35.2,4.5,25.9,0.169469283,0.700704978,-0.144840846,0.677663503
688,1723255,819670,0.985,0.048,0.008,-1.8,3.6,0.1,-35.2,4.5,25.9,0.16953032,0.700643941,-0.144871364,0.67772454
689,1726078,819670,0.981,0.044,0.024,-2.1,3.4,0.1,-35.2,4.5,25.9,0.169560839,0.700582904,-0.144901883,0.677785577
690,1728413,819680,0.989,0.033,0.028,-2.4,3.3,0.1,-35,3.6,25.9,0.169591357,0.700521867,-0.144932402,0.677816095
691,1730557,819680,0.992,0.029,0.035,-2.4,3.3,0.2,-35,3.6,25.9,0.169652394,0.700460829,-0.144932402,0.677877132
692,1733385,819680,0.985,0.025,0.051,-2.4,3.3,0.2,-35,3.6,25.9,0.169682913,0.700399792,-0.14496292,0.677907651
693,1736704,819680,0.981,0.025,0.055,-2.3,3.5,0.2,-35,3.6,25.9,0.16974395,0.700338755,-0.144993439,0.677968688
694,1738909,819690,0.965,0.017,0.06,-2,3.5,0.2,-35.2,3.4,26.1,0.169774468,0.700186163,-0.145023957,0.678090762
695,1741069,819690,0.965,0.017,0.06,-1.7,3.5,0,-35.2,3.4,26.1,0.169835505,0.700155644,-0.145023957,0.678121281
696,1743273,819690,0.946,0.021,0.068,-1.4,3.4,0,-35.2,3.4,26.1,0.169866024,0.700094607,-0.145023957,0.678182318
697,1746177,819690,0.938,0.021,0.061,-1,3.2,0,-35.2,3.4,26.1,0.169866024,0.70003357,-0.145054476,0.678212836
698,1749327,819700,0.938,0.021,0.061,-0.6,2.9,0,-35.4,8,27.9,0.169896542,0.700003052,-0.145023957,0.678273873
699,1750754,819700,0.93,0.021,0.057,-0.2,2.3,0,-35.4,8,27.9,0.169927061,0.699972533,-0.145023957,0.678304392
700,1753569,819700,0.934,0.025,0.049,0,1.3,0,-35.4,8,27.9,0.169927061,0.699942015,-0.145023957,0.67833491
701,1755749,819700,0.946,0.029,0.045,0.4,0.4,0,-35.4,8,27.9,0.169896542,0.699942015,-0.145023957,0.67833491
702,1758266,819710,0.954,0.029,0.041,0.7,-0.5,0,-35.6,4.8,26,0.169896542,0.699942015,-0.145023957,0.67833491
703,1760514,819710,0.973,0.037,0.028,0.9,-1.5,0,-35.6,4.8,26,0.169866024,0.699972533,-0.144993439,0.678304392
704,1764053,819710,0.985,0.04,0.028,1,-2.3,0,-35.6,4.8,26,0.169866024,0.700003052,-0.144993439,0.678273873
705,1765581,819710,0.996,0.04,0.024,1.1,-2.9,0,-35.6,4.8,26,0.169835505,0.700064089,-0.144993439,0.678243355
706,1769093,819720,1.004,0.052,0.015,1,-3.3,0,-35.5,5.7,26.5,0.169804987,0.700125126,-0.144993439,0.678182318
707,1770693,819720,1,0.048,0.004,1,-3.2,0,-35.5,5.7,26.5,0.169774468,0.700155644,-0.144993439,0.678151799
708,1773345,819720,0.996,0.048,-0.003,1,-2.9,0,-35.5,5.7,26.5,0.16974395,0.700186163,-0.14496292,0.678090762
709,1776456,819720,0.989,0.052,-0.007,0.9,-2.5,0,-35.5,5.7,26.5,0.169713431,0.7002472,-0.14496292,0.678060244
710,1778062,819730,0.981,0.048,-0.034,0.7,-2.2,0,-35.5,6,26.6,0.169713431,0.700308237,-0.14496292,0.678029725
711,1780932,819730,0.973,0.044,-0.037,0.5,-2,0,-35.5,6,26.6,0.169682913,0.700338755,-0.14496292,0.677999207
712,1784085,819730,0.969,0.04,-0.053,0.4,-2,0,-35.5,6,26.6,0.169682913,0.700369274,-0.14496292,0.677968688
713,1785810,819730,0.969,0.04,-0.057,0.2,-2.3,0,-35.5,6,26.6,0.169652394,0.700399792,-0.14496292,0.677938169
714,1788907,819740,0.977,0.036,-0.069,0.1,-2.6,0.1,-35.3,6.9,26.5,0.169652394,0.700491348,-0.144993439,0.677816095
715,1790565,819740,0.984,0.032,-0.065,0,-2.9,0.1,-35.3,6.9,26.5,0.169621876,0.700552385,-0.144993439,0.677785577
716,1794091,819740,0.988,0.032,-0.073,0,-3.2,0,-35.3,6.9,26.5,0.169621876,0.700582904,-0.145023957,0.67772454
717,1795615,819740,1.008,0.036,-0.082,0,-3.3,0,-35.3,6.9,26.5,0.169621876,0.700643941,-0.145023957,0.677694021
718,1798153,819750,1.012,0.036,-0.082,0.1,-3.2,0.1,-35.4,6.2,26.9,0.169591357,0.700674459,-0.145054476,0.677632984
719,1801589,819750,1.016,0.04,-0.078,0.2,-3,0,-35.4,6.2,26.9,0.169591357,0.700735496,-0.145054476,0.677571947
720,1803192,819750,1.02,0.048,-0.082,0.2,-2.7,0,-35.4,6.2,26.9,0.169560839,0.700766015,-0.145054476,0.677541429
721,1806020,819750,1.019,0.044,-0.086,0.4,-2.4,0,-35.4,6.2,26.9,0.169560839,0.700827052,-0.145054476,0.67751091
722,1809166,819760,1.02,0.048,-0.078,0.5,-1.8,0.1,-35.2,6.3,27.1,0.16953032,0.70085757,-0.145054476,0.677480392
723,1810638,819760,1.012,0.044,-0.074,0.5,-1.1,0.1,-35.2,6.3,27.1,0.16953032,0.70085757,-0.145054476,0.677480392
724,1813534,819760,0.996,0.044,-0.069,0.3,-0.4,0,-35.2,6.3,27.1,0.169499802,0.70085757,-0.145054476,0.677449873
725,1816513,819760,0.988,0.04,-0.077,0.2,0.2,0,-35.2,6.3,27.1,0.169499802,0.70085757,-0.145054476,0.677480392
726,1818201,819770,0.977,0.04,-0.061,0.2,0.7,0,-35.6,6.1,27,0.169499802,0.70085757,-0.145054476,0.677480392
727,1820844,819770,0.981,0.036,-0.065,0.1,0.9,0,-35.6,6.1,27,0.169499802,0.70085757,-0.145054476,0.677480392
728,1823933,819770,0.973,0.036,-0.057,0.1,1,0,-35.6,6.1,27,0.169499802,0.700827052,-0.145023957,0.67751091
729,1825614,819770,0.973,0.04,-0.053,0,0.8,0,-35.6,6.1,27,0.169499802,0.700827052,-0.145023957,0.67751091
730,1828407,819780,0.977,0.04,-0.045,0,0.6,0,-34.9,6.3,26.9,0.169499802,0.700796533,-0.145023957,0.677541429
731,1830802,819780,0.985,0.044,-0.042,0,0.4,0,-34.9,6.3,26.9,0.169499802,0.700796533,-0.145023957,0.677541429
732,1834143,819780,0.985,0.04,-0.034,0,0.2,0.1,-34.9,6.3,26.9,0.169499802,0.700796533,-0.145023957,0.677541429
733,1835656,819780,0.996,0.044,-0.026,0,0,0.1,-34.9,6.3,26.9,0.169499802,0.700796533,-0.145023957,0.677541429
734,1838215,819790,0.996,0.044,-0.019,0,0,0.1,-35.4,6.1,27.1,0.169499802,0.700827052,-0.145054476,0.67751091
735,1841041,819790,1,0.044,-0.019,0,-0.1,0.1,-35.4,6.1,27.1,0.169499802,0.70085757,-0.145054476,0.677480392
736,1844077,819790,0.996,0.048,-0.011,-0.1,-0.1,0,-35.4,6.1,27.1,0.169499802,0.70085757,-0.145054476,0.677480392
737,1845661,819790,0.992,0.04,-0.014,-0.2,0,0,-35.4,6.1,27.1,0.169499802,0.70085757,-0.145054476,0.677480392
738,1848562,819800,0.985,0.04,-0.01,-0.3,0.2,0,-35.1,4.8,26.9,0.169499802,0.700827052,-0.145054476,0.677480392
739,1850533,819800,0.981,0.044,-0.006,-0.4,0.6,0,-35.1,4.8,26.9,0.16953032,0.700827052,-0.145054476,0.67751091
740,1853372,819800,0.977,0.044,0.001,-0.3,0.9,0,-35.1,4.8,26.9,0.16953032,0.700827052,-0.145054476,0.67751091
741,1855538,819800,0.973,0.037,-0.002,-0.3,0.9,0,-35.1,4.8,26.9,0.16953032,0.700796533,-0.145054476,0.677541429
742,1858602,819810,0.969,0.033,-0.01,-0.2,0.8,0,-36.4,6.7,27,0.16953032,0.700796533,-0.145054476,0.677541429
743,1861855,819810,0.965,0.033,-0.006,-0.1,0.6,0,-36.4,6.7,27,0.16953032,0.700766015,-0.145054476,0.677541429
744,1863363,819810,0.969,0.033,-0.002,-0.1,0.2,0,-36.4,6.7,27,0.169560839,0.700766015,-0.145054476,0.677541429
745,1865520,819810,0.981,0.036,-0.006,0,0,0,-36.4,6.7,27,0.169560839,0.700766015,-0.145054476,0.677541429
746,1868592,819820,0.985,0.033,-0.002,0.1,-0.3,0,-36.5,6.7,27.1,0.169560839,0.700766015,-0.145054476,0.677541429
747,1871831,819820,0.992,0.04,-0.003,0.1,-0.7,0,-36.5,6.7,27.1,0.16953032,0.700796533,-0.145054476,0.677541429
748,1873239,819820,0.992,0.044,-0.007,0.1,-0.8,0,-36.5,6.7,27.1,0.16953032,0.700796533,-0.145054476,0.67751091
749,1876028,819820,0.992,0.044,-0.007,0.2,-0.7,0,-36.5,6.7,27.1,0.16953032,0.700827052,-0.145054476,0.67751091
750,1879156,819830,0.992,0.048,-0.015,0.2,-0.5,0,-37.3,7,26.8,0.16953032,0.700827052,-0.145054476,0.67751091
751,1880864,819830,0.992,0.044,-0.011,0.2,-0.4,0,-37.3,7,26.8,0.16953032,0.700827052,-0.145054476,0.67751091
752,1883858,819830,0.988,0.044,-0.018,0.2,-0.4,0,-37.3,7,26.8,0.169499802,0.700827052,-0.145054476,0.67751091
753,1886561,819830,0.981,0.04,-0.022,0.1,-0.3,0,-37.3,7,26.8,0.169499802,0.70085757,-0.145054476,0.677480392
754,1889221,819840,0.969,0.044,-0.022,0.1,-0.3,-0.1,-37.5,6.9,27,0.16953032,0.700827052,-0.145023957,0.67751091
755,1890917,819840,0.969,0.044,-0.022,0,-0.3,0,-37.5,6.9,27,0.16953032,0.700827052,-0.145023957,0.67751091
756,1894093,819840,0.973,0.036,-0.03,0.1,-0.4,0,-37.5,6.9,27,0.16953032,0.700827052,-0.145023957,0.67751091
757,1897071,819840,0.977,0.036,-0.03,0.1,-0.6,-0.1,-37.5,6.9,27,0.16953032,0.700827052,-0.145023957,0.67751091
758,1898787,819850,0.981,0.036,-0.034,0.1,-0.8,-0.1,-34.1,5.2,27,0.16953032,0.70085757,-0.145023957,0.677480392
759,1900908,819850,0.988,0.04,-0.034,0.1,-0.9,0,-34.1,5.2,27,0.16953032,0.70085757,-0.145023957,0.677480392
760,1903714,819850,0.992,0.04,-0.03,0.1,-1,0,-34.1,5.2,27,0.16953032,0.700888089,-0.145023957,0.677449873
761,1905618,819850,0.992,0.044,-0.026,0.1,-1.2,0.1,-34.1,5.2,27,0.169499802,0.700888089,-0.145023957,0.677449873
762,1908409,819860,0.996,0.04,-0.034,0.2,-1.1,0,-37,6.5,27.1,0.169499802,0.700918607,-0.145023957,0.677419355
763,1911282,819860,0.996,0.04,-0.038,0.2,-0.9,0,-37,6.5,27.1,0.169499802,0.700949126,-0.145023957,0.677419355
764,1914370,819860,0.996,0.044,-0.034,0.1,-0.7,0,-37,6.5,27.1,0.169499802,0.700949126,-0.145023957,0.677388836
765,1915963,819860,0.988,0.04,-0.042,0.1,-0.4,0,-37,6.5,27.1,0.169499802,0.700949126,-0.145023957,0.677388836
766,1918338,819870,0.985,0.036,-0.038,0.1,-0.2,0,-35.8,6.4,26.8,0.169499802,0.700949126,-0.145023957,0.677388836
767,1920653,819870,0.981,0.048,-0.034,0.1,0,0,-35.8,6.4,26.8,0.169499802,0.700949126,-0.145023957,0.677388836
768,1924891,819870,0.977,0.04,-0.034,0.1,0.1,0,-35.8,6.4,26.8,0.169499802,0.700949126,-0.145023957,0.677388836
769,1927088,819870,0.977,0.036,-0.026,0.1,0.1,0,-35.8,6.4,26.8,0.169499802,0.700949126,-0.145023957,0.677388836
770,1928592,819880,0.977,0.04,-0.034,0,0,0,-35.7,6.1,26.8,0.169499802,0.700949126,-0.145023957,0.677388836
771,1930942,819880,0.981,0.036,-0.034,0,-0.1,0,-35.7,6.1,26.8,0.169499802,0.700949126,-0.145023957,0.677388836
772,1933149,819880,0.981,0.04,-0.034,0,-0.2,0,-35.7,6.1,26.8,0.169499802,0.700949126,-0.145023957,0.677388836
773,1935732,819880,0.992,0.04,-0.026,0,-0.3,0,-35.7,6.1,26.8,0.169469283,0.700979644,-0.145023957,0.677388836
774,1939943,819890,0.988,0.044,-0.018,0.1,-0.2,0.1,-35,6.3,26.8,0.169469283,0.701010163,-0.145023957,0.677327799
775,1942216,819890,0.996,0.04,-0.03,0.1,-0.1,0.1,-35,6.3,26.8,0.169469283,0.701010163,-0.145023957,0.677327799
776,1944446,819890,0.996,0.044,-0.022,0.1,-0.1,0,-35,6.3,26.8,0.169469283,0.701010163,-0.145023957,0.677327799
777,1946716,819890,0.988,0.036,-0.026,0,0,0,-35,6.3,26.8,0.169469283,0.701040681,-0.145023957,0.677327799
778,1948909,819900,0.992,0.04,-0.022,0,0,0,-35.4,5.9,27,0.169469283,0.701040681,-0.145023957,0.677327799
779,1951153,819900,0.992,0.04,-0.018,0,0.1,0,-35.4,5.9,27,0.169469283,0.701010163,-0.145023957,0.677327799
780,1953339,819900,0.981,0.036,-0.018,0,0.1,0,-35.4,5.9,27,0.169469283,0.701010163,-0.145023957,0.677327799
781,1955754,819900,0.977,0.04,-0.022,0,0.2,0,-35.4,5.9,27,0.169469283,0.701010163,-0.145023957,0.677327799
782,1958114,819910,0.977,0.04,-0.022,-0.1,0.2,0,-35.1,6.3,27.3,0.169469283,0.701010163,-0.145023957,0.677327799
783,1961475,819910,0.981,0.036,-0.018,0,0.2,0,-35.1,6.3,27.3,0.169469283,0.701010163,-0.145023957,0.677327799
784,1963713,819910,0.981,0.036,-0.026,-0.1,0.1,0,-35.1,6.3,27.3,0.169469283,0.701010163,-0.145023957,0.677327799
785,1965956,819910,0.977,0.036,-0.026,-0.1,0,0,-35.1,6.3,27.3,0.169469283,0.701010163,-0.145023957,0.677327799
786,1968205,819920,0.981,0.04,-0.022,-0.1,-0.1,-0.1,-35.5,6,27,0.169469283,0.701010163,-0.145023957,0.677327799
787,1970591,819920,0.988,0.044,-0.022,0,-0.4,-0.2,-35.5,6,27,0.169469283,0.701010163,-0.145023957,0.677327799
788,1974038,819920,0.988,0.04,-0.018,0,-0.5,-0.1,-35.5,6,27,0.169469283,0.701040681,-0.145023957,0.677327799
789,1976080,819920,0.992,0.036,-0.026,0.1,-0.6,0,-35.5,6,27,0.169469283,0.701040681,-0.145023957,0.677297281
790,1978446,819930,0.992,0.036,-0.022,0,-0.5,0.1,-35.2,6.2,27,0.169469283,0.701040681,-0.145023957,0.677297281
791,1980983,819930,0.992,0.04,-0.03,0,-0.4,0.1,-35.2,6.2,27,0.169469283,0.701040681,-0.145023957,0.677297281
792,1983700,819930,0.992,0.044,-0.018,-0.1,-0.3,0,-35.2,6.2,27,0.169469283,0.701040681,-0.145054476,0.677297281
793,1986184,819930,0.988,0.044,-0.022,-0.1,-0.2,0,-35.2,6.2,27,0.169469283,0.7010712,-0.145054476,0.677266762
794,1989120,819940,0.988,0.044,-0.026,0,-0.2,0,-35.3,5.8,26.9,0.169469283,0.701040681,-0.145023957,0.677297281
795,1991895,819940,0.988,0.044,-0.018,0,-0.1,0,-35.3,5.8,26.9,0.169469283,0.7010712,-0.145023957,0.677297281
796,1993562,819940,0.988,0.04,-0.022,0,-0.1,0,-35.3,5.8,26.9,0.169469283,0.7010712,-0.145023957,0.677266762
797,1995787,819940,0.985,0.04,-0.018,0,-0.1,0,-35.3,5.8,26.9,0.169469283,0.7010712,-0.145023957,0.677266762
798,1998400,819950,0.981,0.036,-0.018,0,-0.1,0,-36.7,6,27,0.169469283,0.7010712,-0.145023957,0.677266762
799,2000627,819950,0.981,0.036,-0.022,0,-0.1,0,-36.7,6,27,0.169469283,0.7010712,-0.145023957,0.677266762
800,2003272,819950,0.981,0.04,-0.022,0,0,0,-36.7,6,27,0.169469283,0.7010712,-0.145023957,0.677266762
801,2007394,819950,0.988,0.04,-0.022,0,-0.1,0,-36.7,6,27,0.169469283,0.7010712,-0.145023957,0.677266762
802,2009559,819960,0.988,0.04,-0.026,0,-0.1,0.1,-34.2,6.1,27,0.169469283,0.7010712,-0.145054476,0.677266762
803,2011063,819960,0.988,0.036,-0.026,0,-0.1,0,-34.2,6.1,27,0.169469283,0.7010712,-0.145054476,0.677266762
804,2014135,819960,0.985,0.036,-0.022,0.1,-0.1,0,-34.2,6.1,27,0.169469283,0.7010712,-0.145054476,0.677266762
805,2015642,819960,0.981,0.04,-0.018,0.1,-0.1,0,-34.2,6.1,27,0.169469283,0.7010712,-0.145054476,0.677266762
806,2018194,819970,0.981,0.04,-0.03,0.1,-0.1,0,-33.9,5.9,27,0.169469283,0.7010712,-0.145054476,0.677266762
807,2021584,819970,0.985,0.04,-0.03,0.1,-0.1,0,-33.9,5.9,27,0.169438765,0.7010712,-0.145054476,0.677266762
808,2023128,819970,0.985,0.04,-0.03,0.1,-0.1,0,-33.9,5.9,27,0.169438765,0.7010712,-0.145023957,0.677266762
809,2025826,819970,0.985,0.04,-0.026,0.1,-0.1,0,-33.9,5.9,27,0.169438765,0.701101718,-0.145023957,0.677266762
810,2029188,819980,0.981,0.04,-0.03,0,-0.1,0,-34,6,27.1,0.169438765,0.701101718,-0.145023957,0.677266762
811,2030765,819980,0.981,0.04,-0.022,0,-0.1,0,-34,6,27.1,0.169438765,0.701101718,-0.145023957,0.677266762
812,2033550,819980,0.992,0.04,-0.022,0,-0.1,0,-34,6,27.1,0.169438765,0.701101718,-0.145023957,0.677236244
813,2036710,819980,0.992,0.044,-0.026,0,-0.2,0,-34,6,27.1,0.169438765,0.701101718,-0.145023957,0.677236244
814,2038212,819990,0.988,0.044,-0.022,0,-0.3,0,-34.4,5.7,27.1,0.169469283,0.701101718,-0.145023957,0.677236244
815,2040639,819990,0.988,0.044,-0.022,0,-0.3,0,-34.4,5.7,27.1,0.169469283,0.701132237,-0.145023957,0.677236244
816,2044139,819990,0.988,0.04,-0.026,0,-0.2,0,-34.4,5.7,27.1,0.169469283,0.701132237,-0.145023957,0.677205725
817,2045669,819990,0.992,0.04,-0.026,0,-0.1,0,-34.4,5.7,27.1,0.169469283,0.701132237,-0.145023957,0.677205725
818,2048248,820000,0.988,0.04,-0.022,0,0,0,-36.1,5.9,27,0.169469283,0.701132237,-0.145023957,0.677205725
819,2050586,820000,0.981,0.04,-0.026,0,0.1,0,-36.1,5.9,27,0.169469283,0.701132237,-0.145023957,0.677236244
820,2054739,820000,0.981,0.044,-0.026,0,0.1,0.1,-36.1,5.9,27,0.169469283,0.701132237,-0.145023957,0.677236244
821,2056541,820000,0.981,0.04,-0.022,0,0.2,0,-36.1,5.9,27,0.169469283,0.701101718,-0.145023957,0.677236244
822,2058120,820010,0.977,0.04,-0.022,0,0.2,0,-34.5,6,27.2,0.169438765,0.701101718,-0.145023957,0.677236244
823,2060795,820010,0.985,0.04,-0.026,0,0.1,0,-34.5,6,27.2,0.169469283,0.701101718,-0.145023957,0.677236244
824,2064926,820010,0.985,0.04,-0.022,0,-0.1,0,-34.5,6,27.2,0.169438765,0.701101718,-0.145023957,0.677236244
825,2065553,820010,0.985,0.044,-0.03,0,-0.3,0,-34.5,6,27.2,0.169438765,0.701101718,-0.145023957,0.677236244
826,2068577,820020,0.985,0.036,-0.026,0,-0.4,0,-34.6,5.7,27,0.169438765,0.701132237,-0.145023957,0.677236244
827,2070846,820020,0.988,0.04,-0.026,0,-0.4,0,-34.6,5.7,27,0.169438765,0.701132237,-0.145023957,0.677205725
828,2073386,820020,0.988,0.04,-0.026,0,-0.4,0,-34.6,5.7,27,0.169438765,0.701132237,-0.145023957,0.677205725
829,2075624,820020,0.988,0.044,-0.03,0,-0.3,0,-34.6,5.7,27,0.169438765,0.701132237,-0.145023957,0.677205725
830,2079973,820030,0.988,0.044,-0.026,0,-0.2,0,-34.4,5.9,27,0.169438765,0.701132237,-0.145023957,0.677205725
831,2080605,820030,0.988,0.04,-0.026,0.1,-0.1,0,-34.4,5.9,27,0.169438765,0.701132237,-0.145023957,0.677205725
832,2083651,820030,0.988,0.036,-0.022,0.1,-0.1,0,-34.4,5.9,27,0.169438765,0.701162755,-0.145023957,0.677205725
833,2085881,820030,0.985,0.044,-0.026,0.1,-0.1,0,-34.4,5.9,27,0.169438765,0.701162755,-0.145023957,0.677205725
834,2088155,820040,0.985,0.04,-0.022,0,0,0.1,-34.7,5.9,27.2,0.169438765,0.701162755,-0.145023957,0.677175207
835,2091429,820040,0.985,0.04,-0.022,0,0,0.1,-34.7,5.9,27.2,0.169438765,0.701162755,-0.145023957,0.677175207
836,2093187,820040,0.988,0.04,-0.026,0,0,0,-34.7,5.9,27.2,0.169438765,0.701162755,-0.145023957,0.677175207
837,2095699,820040,0.981,0.04,-0.022,0,0,0,-34.7,5.9,27.2,0.169438765,0.701162755,-0.145023957,0.677175207
838,2098243,820050,0.981,0.036,-0.026,0,0,0,-35.1,5.9,26.9,0.169438765,0.701162755,-0.145023957,0.677175207
839,2101325,820050,0.985,0.04,-0.022,0,0.1,0,-35.1,5.9,26.9,0.169438765,0.701162755,-0.145023957,0.677175207
840,2104284,820050,0.988,0.036,-0.026,0,0.2,0,-35.1,5.9,26.9,0.169438765,0.701162755,-0.145023957,0.677205725
841,2105804,820050,0.988,0.036,-0.026,0,0.1,0,-35.1,5.9,26.9,0.169438765,0.701162755,-0.145023957,0.677205725
842,2108877,820060,0.985,0.036,-0.026,0,0,0,-35.7,6,26.9,0.169438765,0.701162755,-0.145023957,0.677205725
843,2111885,820060,0.985,0.032,-0.026,0,-0.2,0,-35.7,6,26.9,0.169438765,0.701162755,-0.145023957,0.677175207
844,2113331,820060,0.985,0.04,-0.026,0,-0.2,0,-35.7,6,26.9,0.169438765,0.701162755,-0.145023957,0.677175207
845,2116453,820060,0.985,0.044,-0.022,0,-0.2,0,-35.7,6,26.9,0.169438765,0.701162755,-0.145023957,0.677175207
846,2118279,820070,0.985,0.04,-0.03,0,-0.2,0,-35.3,6.2,27.2,0.169438765,0.701162755,-0.145023957,0.677175207
847,2120609,820070,0.988,0.04,-0.022,0,-0.2,0,-35.3,6.2,27.2,0.169438765,0.701162755,-0.145023957,0.677175207
848,2124865,820070,0.985,0.044,-0.026,0,-0.2,0,-35.3,6.2,27.2,0.169438765,0.701162755,-0.145023957,0.677175207
849,2127066,820070,0.985,0.04,-0.026,0.1,-0.1,0,-35.3,6.2,27.2,0.169438765,0.701162755,-0.145023957,0.677175207
850,2128476,820080,0.988,0.044,-0.026,0.1,-0.1,0,-35.6,5.7,27.5,0.169438765,0.701193274,-0.145023957,0.677175207
851,2130681,820080,0.985,0.036,-0.026,0.1,0,0,-35.6,5.7,27.5,0.169438765,0.701193274,-0.145023957,0.677175207
852,2133677,820080,0.981,0.04,-0.022,0,0,0,-35.6,5.7,27.5,0.169438765,0.701193274,-0.145023957,0.677175207
853,2135918,820080,0.985,0.036,-0.022,0,-0.1,0,-35.6,5.7,27.5,0.169438765,0.701193274,-0.145023957,0.677175207
854,2138245,820090,0.988,0.04,-0.026,0,-0.3,0,-35.4,6,28.2,0.169408246,0.701193274,-0.145023957,0.677175207
855,2141569,820090,0.988,0.04,-0.022,0,-0.3,0,-35.4,6,28.2,0.169408246,0.701193274,-0.145023957,0.677175207
856,2143593,820090,0.988,0.04,-0.026,0,-0.2,0.1,-35.4,6,28.2,0.169408246,0.701193274,-0.145023957,0.677144688
857,2146759,820090,0.985,0.04,-0.026,0,-0.1,0.1,-35.4,6,28.2,0.169408246,0.701193274,-0.145023957,0.677144688
858,2148232,820100,0.988,0.04,-0.022,0,-0.1,0,-35.3,6,25.5,0.169408246,0.701193274,-0.145023957,0.677144688
859,2150689,820100,0.988,0.04,-0.026,0,-0.1,0,-35.3,6,25.5,0.169408246,0.701193274,-0.145023957,0.677144688
860,2154129,820100,0.985,0.044,-0.026,0,0,0,-35.3,6,25.5,0.169408246,0.701193274,-0.145023957,0.677144688
861,2155619,820100,0.981,0.036,-0.026,0,0.1,0,-35.3,6,25.5,0.169408246,0.701193274,-0.145023957,0.677144688
862,2158201,820110,0.985,0.036,-0.022,0,0.3,0.1,-35,5.8,27.4,0.169408246,0.701193274,-0.145023957,0.677175207
863,2161764,820110,0.985,0.044,-0.018,0.1,0.2,0,-35,5.8,27.4,0.169408246,0.701193274,-0.145023957,0.677175207
864,2163277,820110,0.977,0.036,-0.022,0.1,0.2,0,-35,5.8,27.4,0.169408246,0.701193274,-0.145023957,0.677175207
865,2167243,820110,0.981,0.036,-0.03,0.1,0.1,0,-35,5.8,27.4,0.169408246,0.701193274,-0.145023957,0.677175207
866,2169441,820120,0.981,0.036,-0.03,0,0,0,-35.3,5.8,27.1,0.169408246,0.701193274,-0.145023957,0.677175207
867,2170822,820120,0.985,0.04,-0.026,0,-0.2,0,-35.3,5.8,27.1,0.169408246,0.701193274,-0.145023957,0.677175207
868,2174689,820120,0.988,0.04,-0.026,-0.1,-0.3,0,-35.3,5.8,27.1,0.169408246,0.701193274,-0.145023957,0.677175207
869,2176823,820120,0.992,0.036,-0.026,-0.1,-0.4,0,-35.3,5.8,27.1,0.169408246,0.701193274,-0.145054476,0.677144688
870,2179074,820130,0.992,0.04,-0.018,0,-0.4,0,-35.1,5.7,27.2,0.169408246,0.701193274,-0.145054476,0.677144688
871,2181604,820130,0.988,0.04,-0.026,0,-0.3,0,-35.1,5.7,27.2,0.169408246,0.701193274,-0.145054476,0.677144688
872,2183790,820130,0.988,0.04,-0.022,0.1,-0.3,0,-35.1,5.7,27.2,0.169408246,0.701223792,-0.145023957,0.677144688
873,2185991,820130,0.988,0.04,-0.026,0,-0.1,0,-35.1,5.7,27.2,0.169408246,0.701223792,-0.145023957,0.677144688
874,2188345,820140,0.985,0.04,-0.03,0,0,0,-35.7,5.4,26.9,0.169408246,0.701193274,-0.145023957,0.677144688
875,2190646,820140,0.985,0.044,-0.022,0,0,0,-35.7,5.4,26.9,0.169408246,0.701193274,-0.145023957,0.677144688
876,2193112,820140,0.985,0.044,-0.026,0,0,0,-35.7,5.4,26.9,0.169408246,0.701193274,-0.145023957,0.677144688
877,2197383,820140,0.981,0.044,-0.018,0,0,0,-35.7,5.4,26.9,0.169408246,0.701193274,-0.145023957,0.677144688
878,2199628,820150,0.981,0.036,-0.022,0,0,0,-35.4,6.2,26.3,0.169408246,0.701193274,-0.145023957,0.677144688
879,2201801,820150,0.985,0.04,-0.026,0,0,0,-35.4,6.2,26.3,0.169408246,0.701193274,-0.145023957,0.677144688
880,2204066,820150,0.985,0.036,-0.022,0,0,0,-35.4,6.2,26.3,0.169408246,0.701193274,-0.145023957,0.677144688
881,2206291,820150,0.985,0.036,-0.026,0,0,0,-35.4,6.2,26.3,0.169408246,0.701193274,-0.145023957,0.677144688
882,2208520,820160,0.985,0.036,-0.022,0,-0.1,0,-35,6.1,26.6,0.169408246,0.701193274,-0.145023957,0.677144688
883,2210757,820160,0.988,0.04,-0.026,0,-0.1,0,-35,6.1,26.6,0.169408246,0.701193274,-0.145023957,0.677144688
884,2214844,820160,0.988,0.04,-0.022,0,-0.1,0,-35,6.1,26.6,0.169408246,0.701193274,-0.145023957,0.677144688
885,2217167,820160,0.988,0.04,-0.03,0.1,-0.1,0,-35,6.1,26.6,0.169408246,0.701223792,-0.145023957,0.677144688
886,2219383,820170,0.992,0.04,-0.022,0.1,-0.1,0,-35.3,5.5,26.2,0.169408246,0.701223792,-0.145023957,0.677144688
887,2221561,820170,0.985,0.04,-0.022,0.1,0,0,-35.3,5.5,26.2,0.169408246,0.701223792,-0.145023957,0.677144688
888,2223824,820170,0.988,0.04,-0.018,0.1,0,0,-35.3,5.5,26.2,0.169377728,0.701223792,-0.145023957,0.677144688
889,2226066,820170,0.988,0.04,-0.022,0.1,0,0,-35.3,5.5,26.2,0.169377728,0.701223792,-0.145023957,0.677144688
890,2228284,820180,0.985,0.044,-0.026,0,0.1,0,-35.3,5.7,26.4,0.169377728,0.701223792,-0.145023957,0.677144688
891,2230535,820180,0.981,0.036,-0.026,0,0.1,0,-35.3,5.7,26.4,0.169377728,0.701193274,-0.145023957,0.677144688
892,2233028,820180,0.985,0.036,-0.026,-0.1,0,0,-35.3,5.7,26.4,0.169377728,0.701193274,-0.145023957,0.677144688
893,2236639,820180,0.981,0.04,-0.03,-0.1,0,0,-35.3,5.7,26.4,0.169377728,0.701193274,-0.145023957,0.677144688
894,2238099,820190,0.985,0.04,-0.026,0,-0.1,0,-35,5.8,26.1,0.169377728,0.701223792,-0.145054476,0.67711417
895,2240570,820190,0.985,0.04,-0.018,0,-0.1,0,-35,5.8,26.1,0.169377728,0.701223792,-0.145054476,0.67711417
896,2244032,820190,0.988,0.044,-0.022,0,-0.3,0,-35,5.8,26.1,0.169377728,0.701254311,-0.145054476,0.67711417
897,2245735,820190,0.988,0.036,-0.022,0,-0.3,0,-35,5.8,26.1,0.169377728,0.701254311,-0.145054476,0.67711417
898,2248033,820200,0.988,0.04,-0.03,0,-0.3,0,-35.3,6.1,27,0.169377728,0.701254311,-0.145054476,0.67711417
899,2251564,820200,0.988,0.036,-0.026,0.1,-0.1,0,-35.3,6.1,27,0.169377728,0.701254311,-0.145054476,0.67711417
900,2253253,820200,0.988,0.04,-0.026,0.1,0,0,-35.3,6.1,27,0.169377728,0.701254311,-0.145023957,0.67711417
901,2257019,820200,0.985,0.04,-0.018,0.1,0,0,-35.3,6.1,27,0.169377728,0.701254311,-0.145023957,0.67711417
902,2259175,820210,0.988,0.04,-0.026,0,0,0,-35.2,6.1,26.6,0.169377728,0.701254311,-0.145023957,0.67711417
903,2261373,820210,0.985,0.044,-0.03,0,-0.1,0.1,-35.2,6.1,26.6,0.169377728,0.701254311,-0.145054476,0.67711417
904,2264294,820210,0.985,0.036,-0.022,0,-0.1,0,-35.2,6.1,26.6,0.169377728,0.701254311,-0.145054476,0.67711417
905,2265871,820210,0.985,0.036,-0.03,0,0,0,-35.2,6.1,26.6,0.169377728,0.701254311,-0.145054476,0.67711417
906,2268104,820220,0.985,0.04,-0.03,0,0,0,-35.2,5.5,26.5,0.169377728,0.701254311,-0.145054476,0.67711417
907,2270568,820220,0.981,0.036,-0.022,-0.1,0,0.1,-35.2,5.5,26.5,0.169377728,0.701254311,-0.145054476,0.67711417
908,2273525,820220,0.985,0.036,-0.018,-0.1,0,0.2,-35.2,5.5,26.5,0.169377728,0.701254311,-0.145054476,0.677083651
909,2276545,820220,0.985,0.036,-0.026,-0.1,-0.1,0.2,-35.2,5.5,26.5,0.169377728,0.701254311,-0.145054476,0.677083651
910,2278190,820230,0.988,0.04,-0.018,-0.1,-0.1,0,-35.3,5.4,26.6,0.169377728,0.701254311,-0.145054476,0.677083651
911,2280971,820230,0.985,0.036,-0.03,0,-0.1,0,-35.3,5.4,26.6,0.169377728,0.701254311,-0.145054476,0.677083651
912,2283996,820230,0.988,0.044,-0.026,0,0,0,-35.3,5.4,26.6,0.169377728,0.701254311,-0.145054476,0.677083651
913,2285710,820230,0.985,0.04,-0.022,0,0,0,-35.3,5.4,26.6,0.169377728,0.701254311,-0.145084994,0.677083651
914,2288573,820240,0.985,0.04,-0.022,0,0.1,0,-35.6,4.8,26.5,0.169377728,0.701254311,-0.145054476,0.67711417
915,2292243,820240,0.985,0.044,-0.03,0,0.1,0,-35.6,4.8,26.5,0.169377728,0.701254311,-0.145054476,0.67711417
916,2293669,820240,0.981,0.04,-0.022,0,0,0,-35.6,4.8,26.5,0.169377728,0.701254311,-0.145054476,0.67711417
917,2295676,820240,0.985,0.036,-0.026,0,0,0,-35.6,4.8,26.5,0.169377728,0.701254311,-0.145054476,0.67711417
918,2299171,820250,0.985,0.036,-0.026,0,0.1,0,-35.4,7.5,27.9,0.169377728,0.701254311,-0.145054476,0.67711417
919,2300733,820250,0.988,0.044,-0.022,0,0.1,0,-35.4,7.5,27.9,0.169377728,0.701254311,-0.145084994,0.67711417
920,2304113,820250,0.981,0.04,-0.026,0,0.1,0,-35.4,7.5,27.9,0.169377728,0.701254311,-0.145054476,0.67711417
921,2305680,820250,0.985,0.04,-0.03,0,0.1,0,-35.4,7.5,27.9,0.169377728,0.701223792,-0.145054476,0.67711417
922,2308648,820260,0.988,0.044,-0.026,0,-0.1,-0.1,-35.2,4.7,25.8,0.169377728,0.701254311,-0.145054476,0.67711417
923,2310960,820260,0.985,0.04,-0.026,0,-0.3,0,-35.2,4.7,25.8,0.169377728,0.701254311,-0.145054476,0.67711417
924,2313281,820260,0.988,0.04,-0.022,0,-0.4,0,-35.2,4.7,25.8,0.169377728,0.701254311,-0.145054476,0.677083651
925,2316036,820260,0.988,0.04,-0.03,0,-0.4,0,-35.2,4.7,25.8,0.169377728,0.701254311,-0.145054476,0.677083651
926,2319284,820270,0.988,0.04,-0.026,-0.1,-0.4,0,-35,4.6,26.1,0.169377728,0.701254311,-0.145084994,0.677083651
927,2320780,820270,0.988,0.036,-0.026,0,-0.4,-0.1,-35,4.6,26.1,0.169377728,0.701284829,-0.145084994,0.677083651
928,2323177,820270,0.988,0.04,-0.026,0,-0.3,-0.1,-35,4.6,26.1,0.169377728,0.701284829,-0.145084994,0.677053133
929,2326369,820270,0.985,0.04,-0.022,0,-0.1,-0.1,-35,4.6,26.1,0.169377728,0.701284829,-0.145054476,0.677053133
930,2329323,820280,0.985,0.044,-0.022,0,0,0,-34.9,4.8,25.9,0.169377728,0.701284829,-0.145054476,0.677053133
931,2331535,820280,0.981,0.036,-0.018,0,0.1,0,-34.9,4.8,25.9,0.169377728,0.701284829,-0.145054476,0.677053133
932,2333743,820280,0.985,0.04,-0.026,0,0.1,0,-34.9,4.8,25.9,0.169377728,0.701284829,-0.145054476,0.677083651
933,2336003,820280,0.985,0.04,-0.026,0,0.1,0,-34.9,4.8,25.9,0.169377728,0.701284829,-0.145084994,0.677083651
934,2338385,820290,0.985,0.04,-0.022,0,0,0,-35.4,5.1,25.5,0.169408246,0.701254311,-0.145054476,0.677083651
935,2340653,820290,0.988,0.04,-0.022,0,0,0,-35.4,5.1,25.5,0.169408246,0.701254311,-0.145054476,0.677083651
936,2343165,820290,0.988,0.036,-0.022,0,0,0,-35.4,5.1,25.5,0.169408246,0.701254311,-0.145054476,0.677083651
937,2346290,820290,0.988,0.04,-0.026,0,-0.1,0,-35.4,5.1,25.5,0.169408246,0.701254311,-0.145054476,0.677083651
938,2348730,820300,0.985,0.04,-0.018,0.1,-0.1,0,-35.5,6.8,26.8,0.169408246,0.701254311,-0.145054476,0.677083651
939,2350851,820300,0.988,0.04,-0.026,0,-0.1,0,-35.5,6.8,26.8,0.169408246,0.701254311,-0.145054476,0.677083651
940,2353220,820300,0.992,0.044,-0.026,0,0,0,-35.5,6.8,26.8,0.169408246,0.701254311,-0.145054476,0.677083651
941,2355897,820300,0.988,0.04,-0.022,0,0.1,0,-35.5,6.8,26.8,0.169408246,0.701254311,-0.145054476,0.677083651
942,2358448,820310,0.985,0.04,-0.026,0,0.1,0,-35.1,6.3,27.1,0.169408246,0.701254311,-0.145054476,0.677083651
943,2361879,820310,0.985,0.036,-0.026,0,0.1,0,-35.1,6.3,27.1,0.169408246,0.701254311,-0.145054476,0.677083651
944,2363483,820310,0.985,0.044,-0.026,0,0,0,-35.1,6.3,27.1,0.169408246,0.701254311,-0.145054476,0.677083651
945,2366672,820310,0.981,0.036,-0.026,0,0,0,-35.1,6.3,27.1,0.169408246,0.701254311,-0.145054476,0.677083651
946,2368255,820320,0.981,0.04,-0.026,0,0,-0.1,-35,6.8,26.8,0.169408246,0.701254311,-0.145054476,0.677083651
947,2370687,820320,0.985,0.036,-0.022,0,0,-0.1,-35,6.8,26.8,0.169408246,0.701254311,-0.145054476,0.677083651
948,2373273,820320,0.981,0.044,-0.026,0,0,0,-35,6.8,26.8,0.169408246,0.701254311,-0.145054476,0.677083651
949,2377154,820320,0.985,0.044,-0.022,0,0.1,0,-35,6.8,26.8,0.169408246,0.701254311,-0.145054476,0.677083651
950,2379410,820330,0.988,0.04,-0.026,0,0.1,0,-34.8,7.3,26.7,0.169408246,0.701254311,-0.145054476,0.677083651
951,2380901,820330,0.988,0.036,-0.022,-0.1,0.1,0.1,-34.8,7.3,26.7,0.169408246,0.701254311,-0.145054476,0.677083651
952,2383127,820330,0.988,0.04,-0.022,-0.1,0,0,-34.8,7.3,26.7,0.169408246,0.701254311,-0.145054476,0.677083651
953,2385563,820330,0.988,0.044,-0.022,0,-0.1,0,-34.8,7.3,26.7,0.169408246,0.701254311,-0.145054476,0.677083651
954,2388577,820340,0.988,0.04,-0.022,0,-0.2,0,-35.2,7,26.9,0.169408246,0.701223792,-0.145054476,0.67711417
955,2390692,820340,0.988,0.04,-0.022,0,-0.2,0,-35.2,7,26.9,0.169408246,0.701254311,-0.145054476,0.67711417
956,2393350,820340,0.988,0.04,-0.026,0.1,0,-0.1,-35.2,7,26.9,0.169408246,0.701254311,-0.145054476,0.67711417
957,2396659,820340,0.992,0.04,-0.022,0.1,0,-0.1,-35.2,7,26.9,0.169408246,0.701254311,-0.145054476,0.67711417
958,2398978,820350,0.988,0.04,-0.026,0,0,-0.1,-35.3,5.7,27,0.169408246,0.701254311,-0.145023957,0.67711417
959,2401133,820350,0.985,0.04,-0.022,0,0.1,0,-35.3,5.7,27,0.169408246,0.701254311,-0.145023957,0.67711417
960,2404000,820350,0.985,0.04,-0.034,0,0.1,0,-35.3,5.7,27,0.169408246,0.701254311,-0.145023957,0.67711417
961,2405714,820350,0.985,0.036,-0.026,0,0.1,0,-35.3,5.7,27,0.169408246,0.701223792,-0.145023957,0.67711417
962,2408313,820360,0.981,0.036,-0.022,0,0,0,-35.4,6.4,26.7,0.169408246,0.701223792,-0.145023957,0.67711417
963,2410749,820360,0.985,0.04,-0.022,0,0,0.1,-35.4,6.4,26.7,0.169408246,0.701223792,-0.145054476,0.67711417
964,2413541,820360,0.988,0.036,-0.018,0,0,0.1,-35.4,6.4,26.7,0.169408246,0.701223792,-0.145054476,0.67711417
965,2416828,820360,0.988,0.04,-0.022,0,-0.1,0,-35.4,6.4,26.7,0.169408246,0.701223792,-0.145054476,0.67711417
966,2419032,820370,0.985,0.04,-0.022,0.1,-0.1,0,-36,6.5,26.6,0.169408246,0.701254311,-0.145054476,0.67711417
967,2420722,820370,0.985,0.044,-0.022,0.1,0,0,-36,6.5,26.6,0.169408246,0.701254311,-0.145023957,0.67711417
968,2423211,820370,0.988,0.04,-0.03,0.1,0,0,-36,6.5,26.6,0.169408246,0.701254311,-0.145023957,0.67711417
969,2425824,820370,0.985,0.04,-0.022,0.1,0,0,-36,6.5,26.6,0.169408246,0.701254311,-0.145023957,0.67711417
970,2429093,820380,0.985,0.044,-0.03,0.1,0.1,0,-36.2,6.7,27,0.169408246,0.701254311,-0.145023957,0.67711417
971,2431329,820380,0.985,0.04,-0.022,0,0.1,0,-36.2,6.7,27,0.169408246,0.701223792,-0.145023957,0.67711417
972,2433612,820380,0.985,0.04,-0.022,0,0.1,0,-36.2,6.7,27,0.169408246,0.701223792,-0.145023957,0.67711417
973,2435914,820380,0.981,0.04,-0.022,0,0.1,0.1,-36.2,6.7,27,0.169408246,0.701223792,-0.145023957,0.67711417
974,2438144,820390,0.985,0.044,-0.022,0,0.1,0.2,-37,6.8,26.7,0.169408246,0.701223792,-0.145023957,0.67711417
975,2440791,820390,0.985,0.04,-0.03,0,0.1,0.2,-37,6.8,26.7,0.169408246,0.701223792,-0.145023957,0.67711417
976,2443175,820390,0.985,0.036,-0.026,0,0,0,-37,6.8,26.7,0.169408246,0.701223792,-0.145023957,0.67711417
977,2446073,820390,0.992,0.036,-0.026,0,-0.1,0,-37,6.8,26.7,0.169408246,0.701223792,-0.145023957,0.67711417
978,2448430,820400,0.988,0.04,-0.026,0,-0.3,0,-34.4,4.8,27.1,0.169408246,0.701223792,-0.145023957,0.67711417
979,2450870,820400,0.988,0.044,-0.026,0,-0.3,-0.1,-34.4,4.8,27.1,0.169408246,0.701223792,-0.145023957,0.67711417
980,2453191,820400,0.988,0.036,-0.022,0,-0.2,0,-34.4,4.8,27.1,0.169408246,0.701254311,-0.145023957,0.67711417
981,2455811,820400,0.988,0.04,-0.026,0,-0.1,0,-34.4,4.8,27.1,0.169408246,0.701254311,-0.145023957,0.67711417
982,2459746,820410,0.985,0.044,-0.026,0,0,0,-36.7,7.3,27,0.169408246,0.701254311,-0.145023957,0.67711417
983,2461555,820410,0.985,0.044,-0.022,0,0,0,-36.7,7.3,27,0.169408246,0.701254311,-0.145023957,0.67711417
984,2463310,820410,0.988,0.04,-0.026,0,0,0,-36.7,7.3,27,0.169408246,0.701254311,-0.145023957,0.67711417
985,2465775,820410,0.981,0.04,-0.022,0,0,0,-36.7,7.3,27,0.169408246,0.701254311,-0.145023957,0.67711417
986,2469966,820420,0.981,0.04,-0.022,0,0,0,-37,7.3,26.9,0.169408246,0.701254311,-0.145023957,0.67711417
987,2470621,820420,0.981,0.04,-0.026,0,0,0,-37,7.3,26.9,0.169408246,0.701254311,-0.145023957,0.67711417
988,2473636,820420,0.981,0.04,-0.022,-0.1,0,0,-37,7.3,26.9,0.169408246,0.701254311,-0.145023957,0.67711417
989,2475853,820420,0.985,0.04,-0.03,-0.1,0,0,-37,7.3,26.9,0.169408246,0.701223792,-0.145023957,0.67711417
990,2478189,820430,0.988,0.036,-0.03,0,0.1,0,-36.6,6.9,26.9,0.169408246,0.701223792,-0.145023957,0.67711417
991,2480620,820430,0.988,0.04,-0.026,0,0.1,0,-36.6,6.9,26.9,0.169408246,0.701223792,-0.145023957,0.67711417
992,2484912,820430,0.988,0.04,-0.022,0,0,0.2,-36.6,6.9,26.9,0.169408246,0.701223792,-0.145023957,0.67711417
993,2486587,820430,0.988,0.04,-0.03,0,0,0.2,-36.6,6.9,26.9,0.169408246,0.701223792,-0.145023957,0.67711417
994,2488193,820440,0.988,0.04,-0.022,0,-0.1,0.1,-36.5,7.9,27,0.169408246,0.701254311,-0.145054476,0.677083651
995,2490789,820440,0.988,0.04,-0.026,0.1,-0.2,0,-36.5,7.9,27,0.169408246,0.701254311,-0.145054476,0.677083651
996,2494244,820440,0.988,0.04,-0.03,0,-0.3,0,-36.5,7.9,27,0.169377728,0.701254311,-0.145054476,0.677083651
997,2496628,820440,0.988,0.036,-0.022,0,-0.3,0,-36.5,7.9,27,0.169377728,0.701254311,-0.145054476,0.677083651
998,2498768,820450,0.988,0.036,-0.018,0,-0.3,0,-34.8,5.9,26.7,0.169377728,0.701284829,-0.145054476,0.677083651
999,2500989,820450,0.985,0.032,-0.026,0,-0.3,0,-34.8,5.9,26.7,0.169377728,0.701284829,-0.145054476,0.677083651
1000,2503298,820450,0.988,0.036,-0.022,0,-0.2,0,-34.8,5.9,26.7,0.169377728,0.701284829,-0.145054476,0.677053133
1001,2505596,820450,0.981,0.036,-0.026,0,-0.1,0,-34.8,5.9,26.7,0.169377728,0.701284829,-0.145054476,0.677053133
1002,2508079,820460,0.988,0.036,-0.022,0,0,0,-35.5,5.8,27.2,0.169377728,0.701284829,-0.145054476,0.677053133
1003,2511630,820460,0.985,0.04,-0.018,0,0,0,-35.5,5.8,27.2,0.169377728,0.701284829,-0.145054476,0.677053133
1004,2513253,820460,0.988,0.04,-0.022,0,0,0,-35.5,5.8,27.2,0.169377728,0.701284829,-0.145054476,0.677053133
1005,2516436,820460,0.988,0.036,-0.026,0,0,0,-35.5,5.8,27.2,0.169377728,0.701284829,-0.145054476,0.677053133
1006,2518129,820470,0.985,0.04,-0.022,0,-0.1,0,-35,5.9,27.2,0.169408246,0.701284829,-0.145054476,0.677053133
1007,2520993,820470,0.985,0.036,-0.026,0,-0.1,0,-35,5.9,27.2,0.169377728,0.701284829,-0.145054476,0.677053133
1008,2523165,820470,0.985,0.036,-0.03,0,-0.1,0,-35,5.9,27.2,0.169377728,0.701284829,-0.145054476,0.677053133
1009,2526227,820470,0.985,0.04,-0.022,0.1,-0.1,0,-35,5.9,27.2,0.169377728,0.701284829,-0.145054476,0.677053133
1010,2528467,820480,0.985,0.044,-0.026,0.1,0,0,-34.5,5.9,26.9,0.169377728,0.701284829,-0.145054476,0.677053133
1011,2530731,820480,0.985,0.036,-0.026,0.1,0,0,-34.5,5.9,26.9,0.169377728,0.701284829,-0.145054476,0.677053133
1012,2533309,820480,0.988,0.04,-0.03,0,0,0,-34.5,5.9,26.9,0.169377728,0.701284829,-0.145054476,0.677053133
1013,2536811,820480,0.985,0.044,-0.026,0,0.1,0.2,-34.5,5.9,26.9,0.169377728,0.701284829,-0.145054476,0.677053133
1014,2539007,820490,0.988,0.036,-0.026,-0.1,0.1,0.2,-34.7,6.2,27,0.169377728,0.701315348,-0.145054476,0.677022614
1015,2541214,820490,0.988,0.036,-0.026,0,0,0,-34.7,6.2,27,0.169377728,0.701315348,-0.145054476,0.677022614
1016,2543497,820490,0.985,0.04,-0.022,0,0,0,-34.7,6.2,27,0.169377728,0.701315348,-0.145054476,0.677022614
1017,2546729,820490,0.985,0.04,-0.026,0,0,0,-34.7,6.2,27,0.169377728,0.701315348,-0.145054476,0.677022614
1018,2548401,820500,0.985,0.04,-0.022,0,0.1,-0.1,-34.7,6.2,27,0.169408246,0.701315348,-0.145054476,0.677022614
1019,2550953,820500,0.985,0.036,-0.026,0,0,-0.2,-34.7,6.2,27,0.169408246,0.701315348,-0.145054476,0.677022614
1020,2553085,820500,0.985,0.04,-0.026,0,0,-0.1,-34.7,6.2,27,0.169408246,0.701315348,-0.145054476,0.677022614
1021,2557341,820500,0.988,0.044,-0.026,0,0,0,-34.7,6.2,27,0.169408246,0.701315348,-0.145054476,0.677022614
1022,2559550,820510,0.985,0.04,-0.026,0,0,0,-34.6,5.6,26.8,0.169408246,0.701315348,-0.145054476,0.677022614
1023,2561592,820510,0.985,0.04,-0.026,0,0,0,-34.6,5.6,26.8,0.169408246,0.701315348,-0.145054476,0.677022614
1024,2563959,820510,0.985,0.04,-0.022,0,0,0,-34.6,5.6,26.8,0.169408246,0.701315348,-0.145054476,0.677022614
1025,2566094,820510,0.988,0.036,-0.022,0,0,0,-34.6,5.6,26.8,0.169408246,0.701315348,-0.145054476,0.677022614
1026,2568328,820520,0.985,0.04,-0.034,0,0,0,-34.5,6.2,27,0.169408246,0.701315348,-0.145054476,0.677022614
1027,2572227,820520,0.988,0.036,-0.026,0,0,0,-34.5,6.2,27,0.169408246,0.701315348,-0.145054476,0.677022614
1028,2574371,820520,0.985,0.036,-0.03,0,0,0,-34.5,6.2,27,0.169408246,0.701315348,-0.145054476,0.677022614
1029,2575827,820520,0.988,0.036,-0.03,0,0,0,-34.5,6.2,27,0.169408246,0.701315348,-0.145054476,0.677022614
1030,2579687,820530,0.988,0.044,-0.026,0,-0.1,0.2,-34.5,6.2,27.2,0.169408246,0.701315348,-0.145054476,0.677022614
1031,2581207,820530,0.988,0.04,-0.026,0,-0.1,0.2,-34.5,6.2,27.2,0.169377728,0.701315348,-0.145054476,0.677022614
1032,2584268,820530,0.985,0.044,-0.026,0,-0.1,0.2,-34.5,6.2,27.2,0.169377728,0.701315348,-0.145054476,0.677022614
1033,2585740,820530,0.985,0.036,-0.022,-0.1,-0.1,0,-34.5,6.2,27.2,0.169377728,0.701315348,-0.145054476,0.677022614
1034,2588774,820540,0.985,0.04,-0.026,-0.1,-0.2,0,-34.8,5.9,26.9,0.169408246,0.701315348,-0.145054476,0.677022614
1035,2591073,820540,0.985,0.04,-0.026,0,-0.2,-0.1,-34.8,5.9,26.9,0.169408246,0.701345866,-0.145054476,0.677022614
1036,2593258,820540,0.985,0.044,-0.022,0.1,-0.1,0,-34.8,5.9,26.9,0.169408246,0.701345866,-0.145054476,0.676992096
1037,2596249,820540,0.985,0.036,-0.018,0.1,0.1,0,-34.8,5.9,26.9,0.169408246,0.701345866,-0.145054476,0.677022614
1038,2598485,820550,0.985,0.04,-0.014,0.2,0.2,0,-34.8,5.9,26.9,0.169408246,0.701345866,-0.145023957,0.677022614
1039,2601582,820550,0.988,0.04,-0.03,0.1,0.2,0,-34.8,5.9,26.9,0.169408246,0.701315348,-0.145023957,0.677022614
1040,2603051,820550,0.985,0.04,-0.026,0,0.3,0,-34.8,5.9,26.9,0.169408246,0.701315348,-0.145023957,0.677022614
1041,2605550,820550,0.988,0.04,-0.022,0,0.1,0,-34.8,5.9,26.9,0.169408246,0.701315348,-0.145023957,0.677022614
1042,2609088,820560,0.985,0.032,-0.026,0,0,0,-33.6,5.9,27.2,0.169408246,0.701315348,-0.145023957,0.677022614
1043,2610935,820560,0.985,0.036,-0.026,0,-0.2,0,-33.6,5.9,27.2,0.169408246,0.701315348,-0.145023957,0.677022614
1044,2614006,820560,0.985,0.036,-0.018,0,-0.1,0,-33.6,5.9,27.2,0.169408246,0.701315348,-0.145054476,0.677022614
1045,2615614,820560,0.985,0.036,-0.026,0,0,0,-33.6,5.9,27.2,0.169408246,0.701315348,-0.145023957,0.677022614
1046,2618455,820570,0.985,0.04,-0.022,0,0,0,-33.9,5.7,27,0.169408246,0.701315348,-0.145023957,0.677022614
1047,2621508,820570,0.985,0.036,-0.03,0.1,0.1,0,-33.9,5.7,27,0.169408246,0.701315348,-0.145023957,0.677022614
1048,2623276,820570,0.988,0.04,-0.022,0.1,0.2,0,-33.9,5.7,27,0.169408246,0.701315348,-0.145023957,0.677022614
1049,2625628,820570,0.985,0.036,-0.022,0,0.2,0,-33.9,5.7,27,0.169408246,0.701315348,-0.145023957,0.677022614
1050,2629788,820580,0.988,0.04,-0.026,0,0.3,-0.1,-33.7,5.7,27.2,0.169408246,0.701315348,-0.145023957,0.677053133
1051,2632040,820580,0.985,0.044,-0.026,0,0.2,0,-33.7,5.7,27.2,0.169408246,0.701315348,-0.145023957,0.677053133
1052,2634224,820580,0.985,0.04,-0.03,0.1,0.1,0,-33.7,5.7,27.2,0.169408246,0.701315348,-0.145023957,0.677053133
1053,2636575,820580,0.985,0.044,-0.018,0.1,-0.1,0,-33.7,5.7,27.2,0.169408246,0.701315348,-0.145023957,0.677053133
1054,2638968,820590,0.985,0.04,-0.03,0,-0.1,0,-33.8,5.8,27,0.169408246,0.701315348,-0.144993439,0.677022614
1055,2641285,820590,0.985,0.032,-0.026,0,-0.1,0,-33.8,5.8,27,0.169408246,0.701315348,-0.144993439,0.677022614
1056,2643505,820590,0.981,0.036,-0.03,0,0,0,-33.8,5.8,27,0.169408246,0.701315348,-0.144993439,0.677022614
1057,2645716,820590,0.985,0.04,-0.026,0,0,0,-33.8,5.8,27,0.169408246,0.701315348,-0.144993439,0.677022614
1058,2648343,820600,0.988,0.036,-0.022,0,0,0,-33.8,5.8,27,0.169408246,0.701315348,-0.144993439,0.677022614
1059,2650566,820600,0.988,0.04,-0.03,0,-0.1,0,-33.8,5.8,27,0.169408246,0.701315348,-0.144993439,0.677022614
1060,2653941,820600,0.992,0.036,-0.03,0,-0.1,0,-33.8,5.8,27,0.169408246,0.701315348,-0.144993439,0.677022614
1061,2655691,820600,0.988,0.04,-0.022,0,-0.1,0,-33.8,5.8,27,0.169408246,0.701315348,-0.144993439,0.677022614
1062,2659214,820610,0.985,0.04,-0.022,0.1,-0.1,0,-35.2,5.9,26.8,0.169408246,0.701345866,-0.144993439,0.677022614
1063,2660678,820610,0.988,0.044,-0.022,0,-0.1,0,-35.2,5.9,26.8,0.169408246,0.701345866,-0.144993439,0.677022614
1064,2663343,820610,0.981,0.04,-0.026,0,0,0,-35.2,5.9,26.8,0.169408246,0.701345866,-0.144993439,0.677022614
1065,2666699,820610,0.985,0.04,-0.026,0,0.1,0,-35.2,5.9,26.8,0.169408246,0.701345866,-0.144993439,0.677022614
1066,2668194,820620,0.981,0.04,-0.022,-0.1,0.2,0,-35.2,6.1,27,0.169408246,0.701315348,-0.144993439,0.677022614
1067,2670724,820620,0.985,0.04,-0.022,0,0.1,0,-35.2,6.1,27,0.169408246,0.701315348,-0.144993439,0.677022614
1068,2674331,820620,0.988,0.04,-0.026,-0.1,0,0,-35.2,6.1,27,0.169408246,0.701315348,-0.144993439,0.677022614
1069,2676524,820620,0.985,0.032,-0.026,0,-0.1,0,-35.2,6.1,27,0.169408246,0.701315348,-0.144993439,0.677022614
1070,2678711,820630,0.988,0.036,-0.026,0,-0.1,0,-35.4,6.2,27.3,0.169408246,0.701315348,-0.144993439,0.677022614
1071,2680964,820630,0.988,0.036,-0.022,0,-0.1,0,-35.4,6.2,27.3,0.169408246,0.701315348,-0.144993439,0.677022614
1072,2683240,820630,0.985,0.036,-0.026,0,-0.1,0,-35.4,6.2,27.3,0.169408246,0.701345866,-0.145023957,0.677022614
1073,2685785,820630,0.985,0.036,-0.026,0,-0.1,0,-35.4,6.2,27.3,0.169408246,0.701345866,-0.145023957,0.677022614
1074,2689273,820640,0.985,0.032,-0.026,0,0,0,-35.3,6.1,27.4,0.169377728,0.701315348,-0.145054476,0.677022614
1075,2690718,820640,0.985,0.032,-0.026,0,0,0,-35.3,6.1,27.4,0.169377728,0.701315348,-0.145054476,0.677022614
1076,2693715,820640,0.985,0.04,-0.026,0,0,0,-35.3,6.1,27.4,0.169377728,0.701315348,-0.145054476,0.677022614
1077,2695990,820640,0.985,0.04,-0.026,0.1,0,0,-35.3,6.1,27.4,0.169377728,0.701315348,-0.145054476,0.677022614
1078,2698167,820650,0.988,0.04,-0.026,0,0.1,0,-35.3,6.1,27.4,0.169377728,0.701315348,-0.145054476,0.677022614
1079,2700702,820650,0.985,0.04,-0.026,0,0.1,0,-35.3,6.1,27.4,0.169377728,0.701315348,-0.145054476,0.677022614
1080,2704231,820650,0.981,0.036,-0.026,0,0.2,0,-35.3,6.1,27.4,0.169377728,0.701315348,-0.145054476,0.677022614
1081,2706494,820650,0.981,0.04,-0.026,0,0.1,0.1,-35.3,6.1,27.4,0.169377728,0.701315348,-0.145054476,0.677053133
1082,2708755,820660,0.985,0.036,-0.022,0,0,0,-35.1,6,27.4,0.169377728,0.701315348,-0.145054476,0.677053133
1083,2710995,820660,0.985,0.036,-0.022,0,0,0,-35.1,6,27.4,0.169377728,0.701315348,-0.145054476,0.677053133
1084,2714098,820660,0.985,0.04,-0.018,0,-0.1,0,-35.1,6,27.4,0.169377728,0.701315348,-0.145054476,0.677022614
1085,2715620,820660,0.988,0.04,-0.022,0,-0.1,0,-35.1,6,27.4,0.169347209,0.701315348,-0.145054476,0.677022614
1086,2718116,820670,0.988,0.04,-0.022,0,-0.2,0,-35,5.9,28.1,0.169347209,0.701315348,-0.145054476,0.677022614
1087,2721672,820670,0.988,0.04,-0.022,0,-0.3,0,-35,5.9,28.1,0.169347209,0.701315348,-0.145054476,0.677022614
1088,2723625,820670,0.985,0.044,-0.03,0.1,-0.3,0,-35,5.9,28.1,0.169347209,0.701345866,-0.145054476,0.677022614
1089,2725946,820670,0.985,0.04,-0.026,0.1,-0.2,0,-35,5.9,28.1,0.169347209,0.701345866,-0.145054476,0.677022614
1090,2728199,820680,0.985,0.044,-0.018,0.1,-0.1,0,-34.9,6.1,28.7,0.169347209,0.701345866,-0.145054476,0.677022614
1091,2730735,820680,0.988,0.044,-0.022,0.1,0,0,-34.9,6.1,28.7,0.169347209,0.701345866,-0.145054476,0.677022614
1092,2733589,820680,0.988,0.044,-0.026,0.1,0,0,-34.9,6.1,28.7,0.169347209,0.701345866,-0.145054476,0.677022614
1093,2736571,820680,0.985,0.04,-0.022,0.1,0,0.1,-34.9,6.1,28.7,0.169347209,0.701345866,-0.145054476,0.677022614
1094,2738456,820690,0.981,0.04,-0.026,0,0,0,-34.7,6.3,28.5,0.169377728,0.701315348,-0.144993439,0.677053133
1095,2740559,820690,0.981,0.036,-0.026,0,0,0,-34.7,6.3,28.5,0.169408246,0.701315348,-0.144993439,0.677053133
1096,2743660,820690,0.985,0.04,-0.026,0,0,0,-34.7,6.3,28.5,0.169408246,0.701315348,-0.144993439,0.677053133
1097,2745687,820690,0.981,0.044,-0.026,0,0,0,-34.7,6.3,28.5,0.169408246,0.701315348,-0.144993439,0.677053133
1098,2748845,820700,0.985,0.04,-0.026,0,0,0,-34.7,6.3,28.5,0.169408246,0.701315348,-0.144993439,0.677053133
1099,2751166,820700,0.985,0.036,-0.026,-0.1,0,0,-34.7,6.3,28.5,0.169408246,0.701315348,-0.144993439,0.677053133
1100,2753452,820700,0.985,0.036,-0.022,-0.1,0,0.1,-34.7,6.3,28.5,0.169408246,0.701315348,-0.145023957,0.677053133
1101,2755871,820700,0.988,0.04,-0.018,0,0,0.1,-34.7,6.3,28.5,0.169408246,0.701315348,-0.145023957,0.677053133
