sample_index,elapsed_us,device_time_ms,acc_x_g,acc_y_g,acc_z_g,gyro_x_dps,gyro_y_dps,gyro_z_dps,mag_x_ut,mag_y_ut,mag_z_ut,quat_w,quat_x,quat_y,quat_z
0,7488,1015820,0.997,-0.023,0.161,-11.5,-2.7,-2.3,-7.2,23.8,-19.4,0.18222602,-0.633777886,-0.126560259,-0.74098941
1,9624,1015820,0.997,-0.023,0.161,-11.5,-2.7,-2.3,-7.2,23.8,-19.4,0.18222602,-0.633777886,-0.126560259,-0.74098941
2,11946,1015820,0.997,-0.023,0.161,-11.5,-2.7,-2.3,-7.2,23.8,-19.4,0.18222602,-0.633777886,-0.126560259,-0.74098941
3,14243,1015820,0.997,-0.023,0.161,-11.5,-2.7,-2.3,-7.2,23.8,-19.4,0.18222602,-0.633777886,-0.126560259,-0.74098941
4,16667,1015830,0.997,-0.023,0.161,-11.5,-2.7,-2.3,-7.2,23.8,-19.4,0.18222602,-0.633777886,-0.126560259,-0.74098941
5,18949,1015830,0.997,-0.023,0.161,-11.5,-2.7,-2.3,-7.2,23.8,-19.4,0.18222602,-0.633777886,-0.126560259,-0.74098941
6,22541,1015830,0.997,-0.023,0.161,-11.5,-2.7,-2.3,-7.2,23.8,-19.4,0.18222602,-0.633777886,-0.126560259,-0.74098941
7,25457,1015830,0.997,-0.023,0.161,-11.5,-2.7,-2.3,-7.2,23.8,-19.4,0.18222602,-0.633777886,-0.126560259,-0.74098941
8,27779,1015840,0.997,-0.023,0.161,-11.5,-2.7,-2.3,-7.2,23.8,-19.4,0.18222602,-0.633777886,-0.126560259,-0.74098941
9,29967,1015840,0.997,-0.023,0.161,-11.5,-2.7,-2.3,-7.2,23.8,-19.4,0.18222602,-0.633777886,-0.126560259,-0.74098941
10,31481,1015840,0.997,-0.023,0.161,-11.5,-2.7,-2.3,-7.2,23.8,-19.4,0.18222602,-0.633777886,-0.126560259,-0.74098941
11,34386,1015840,0.997,-0.023,0.161,-11.5,-2.7,-2.3,-7.2,23.8,-19.4,0.18222602,-0.633777886,-0.126560259,-0.74098941
12,37494,1015850,0.997,-0.023,0.161,-11.5,-2.7,-2.3,-7.2,23.8,-19.4,0.18222602,-0.633777886,-0.126560259,-0.74098941
13,40516,1015850,0.997,-0.023,0.161,-11.5,-2.7,-2.3,-7.2,23.8,-19.4,0.18222602,-0.633777886,-0.126560259,-0.74098941
14,42793,1015850,0.997,-0.023,0.161,-11.5,-2.7,-2.3,-7.2,23.8,-19.4,0.18222602,-0.633777886,-0.126560259,-0.74098941
15,44994,1015850,0.997,-0.023,0.161,-11.5,-2.7,-2.3,-7.2,23.8,-19.4,0.18222602,-0.633777886,-0.126560259,-0.74098941
16,47067,1015860,0.997,-0.023,0.161,-11.5,-2.7,-2.3,-7.2,23.8,-19.4,0.18222602,-0.633777886,-0.126560259,-0.74098941
17,49309,1015860,0.997,-0.023,0.161,-11.5,-2.7,-2.3,-7.2,23.8,-19.4,0.18222602,-0.633777886,-0.126560259,-0.74098941
18,52515,1015860,0.997,-0.023,0.161,-11.5,-2.7,-2.3,-7.2,23.8,-19.4,0.18222602,-0.633777886,-0.126560259,-0.74098941
19,54659,1015860,0.997,-0.023,0.161,-11.5,-2.7,-2.3,-7.2,23.8,-19.4,0.18222602,-0.633777886,-0.126560259,-0.74098941
20,56491,1015870,0.997,-0.023,0.161,-11.5,-2.7,-2.3,-7.2,23.8,-19.4,0.18222602,-0.633777886,-0.126560259,-0.74098941
21,59668,1015870,0.997,-0.023,0.161,-11.5,-2.7,-2.3,-7.2,23.8,-19.4,0.18222602,-0.633777886,-0.126560259,-0.74098941
22,63284,1015870,0.997,-0.023,0.161,-11.5,-2.7,-2.3,-7.2,23.8,-19.4,0.18222602,-0.633777886,-0.126560259,-0.74098941
23,65587,1015870,0.997,-0.023,0.161,-11.5,-2.7,-2.3,-7.2,23.8,-19.4,0.18222602,-0.633777886,-0.126560259,-0.74098941
24,67618,1015880,0.997,-0.023,0.161,-11.5,-2.7,-2.3,-7.2,23.8,-19.4,0.18222602,-0.633777886,-0.126560259,-0.74098941
25,69777,1015880,0.997,-0.023,0.161,-11.5,-2.7,-2.3,-7.2,23.8,-19.4,0.18222602,-0.633777886,-0.126560259,-0.74098941
26,71867,1015880,0.997,-0.023,0.161,-11.5,-2.7,-2.3,-7.2,23.8,-19.4,0.18222602,-0.633777886,-0.126560259,-0.74098941
27,76205,1015880,0.997,-0.023,0.161,-11.5,-2.7,-2.3,-7.2,23.8,-19.4,0.18222602,-0.633777886,-0.126560259,-0.74098941
28,78026,1015890,0.997,-0.023,0.161,-11.5,-2.7,-2.3,-7.2,23.8,-19.4,0.18222602,-0.633777886,-0.126560259,-0.74098941
29,80402,1015890,0.997,-0.023,0.161,-11.5,-2.7,-2.3,-7.2,23.8,-19.4,0.18222602,-0.633777886,-0.126560259,-0.74098941
30,82891,1015890,0.997,-0.023,0.161,-11.5,-2.7,-2.3,-7.2,23.8,-19.4,0.18222602,-0.633777886,-0.126560259,-0.74098941
31,85194,1015890,0.997,-0.023,0.161,-11.5,-2.7,-2.3,-7.2,23.8,-19.4,0.18222602,-0.633777886,-0.126560259,-0.74098941
32,87346,1015900,0.997,-0.023,0.161,-11.5,-2.7,-2.3,-7.2,23.8,-19.4,0.18222602,-0.633777886,-0.126560259,-0.74098941
33,89674,1015900,0.997,-0.023,0.161,-11.5,-2.7,-2.3,-7.2,23.8,-19.4,0.18222602,-0.633777886,-0.126560259,-0.74098941
34,91888,1015900,0.997,-0.023,0.161,-11.5,-2.7,-2.3,-7.2,23.8,-19.4,0.18222602,-0.633777886,-0.126560259,-0.74098941
35,94286,1015900,0.997,-0.023,0.161,-11.5,-2.7,-2.3,-7.2,23.8,-19.4,0.18222602,-0.633777886,-0.126560259,-0.74098941
36,96593,1015910,0.997,-0.023,0.161,-11.5,-2.7,-2.3,-7.2,23.8,-19.4,0.18222602,-0.633777886,-0.126560259,-0.74098941
37,99082,1015910,0.997,-0.023,0.161,-11.5,-2.7,-2.3,-7.2,23.8,-19.4,0.18222602,-0.633777886,-0.126560259,-0.74098941
38,102759,1015910,0.997,-0.023,0.161,-11.5,-2.7,-2.3,-7.2,23.8,-19.4,0.18222602,-0.633777886,-0.126560259,-0.74098941
39,104606,1015910,0.997,-0.023,0.161,-11.5,-2.7,-2.3,-7.2,23.8,-19.4,0.18222602,-0.633777886,-0.126560259,-0.74098941
40,106901,1015920,0.997,-0.023,0.161,-11.5,-2.7,-2.3,-7.2,23.8,-19.4,0.18222602,-0.633777886,-0.126560259,-0.74098941
41,110898,1015920,0.997,-0.023,0.161,-11.5,-2.7,-2.3,-7.2,23.8,-19.4,0.18222602,-0.633777886,-0.126560259,-0.74098941
42,112758,1015920,0.997,-0.023,0.161,-11.5,-2.7,-2.3,-7.2,23.8,-19.4,0.18222602,-0.633777886,-0.126560259,-0.74098941
43,114820,1015920,0.997,-0.023,0.161,-11.5,-2.7,-2.3,-7.2,23.8,-19.4,0.18222602,-0.633777886,-0.126560259,-0.74098941
44,117157,1015930,0.997,-0.023,0.161,-11.5,-2.7,-2.3,-7.2,23.8,-19.4,0.18222602,-0.633777886,-0.126560259,-0.74098941
45,119187,1015930,0.997,-0.023,0.161,-11.5,-2.7,-2.3,-7.2,23.8,-19.4,0.18222602,-0.633777886,-0.126560259,-0.74098941
46,121665,1015930,0.997,-0.023,0.161,-11.5,-2.7,-2.3,-7.2,23.8,-19.4,0.18222602,-0.633777886,-0.126560259,-0.74098941
47,125612,1015930,0.997,-0.023,0.161,-11.5,-2.7,-2.3,-7.2,23.8,-19.4,0.18222602,-0.633777886,-0.126560259,-0.74098941
48,127949,1015940,0.997,-0.023,0.161,-11.5,-2.7,-2.3,-7.2,23.8,-19.4,0.18222602,-0.633777886,-0.126560259,-0.74098941
49,130091,1015940,0.997,-0.023,0.161,-11.5,-2.7,-2.3,-7.2,23.8,-19.4,0.18222602,-0.633777886,-0.126560259,-0.74098941
50,131526,1015940,0.997,-0.023,0.161,-11.5,-2.7,-2.3,-7.2,23.8,-19.4,0.18222602,-0.633777886,-0.126560259,-0.74098941
51,135394,1015940,0.997,-0.023,0.161,-11.5,-2.7,-2.3,-7.2,23.8,-19.4,0.18222602,-0.633777886,-0.126560259,-0.74098941
52,137819,1015950,0.997,-0.023,0.161,-11.5,-2.7,-2.3,-7.2,23.8,-19.4,0.18222602,-0.633777886,-0.126560259,-0.74098941
53,139712,1015950,0.997,-0.023,0.161,-11.5,-2.7,-2.3,-7.2,23.8,-19.4,0.18222602,-0.633777886,-0.126560259,-0.74098941
54,141809,1015950,0.997,-0.023,0.161,-11.5,-2.7,-2.3,-7.2,23.8,-19.4,0.18222602,-0.633777886,-0.126560259,-0.74098941
55,145030,1015950,0.997,-0.023,0.161,-11.5,-2.7,-2.3,-7.2,23.8,-19.4,0.18222602,-0.633777886,-0.126560259,-0.74098941
56,147889,1015960,1.035,-0.066,0.153,-1.9,-0.3,-3.9,-7,23.8,-18.9,0.168248543,-0.637928404,-0.120883816,-0.741660817
57,150079,1015960,1.035,-0.066,0.153,-1.9,-0.3,-3.9,-7,23.8,-18.9,0.168248543,-0.637928404,-0.120883816,-0.741660817
58,152092,1015960,1.035,-0.066,0.153,-1.9,-0.3,-3.9,-7,23.8,-18.9,0.168248543,-0.637928404,-0.120883816,-0.741660817
59,155157,1015960,1.035,-0.066,0.153,-1.9,-0.3,-3.9,-7,23.8,-18.9,0.168248543,-0.637928404,-0.120883816,-0.741660817
60,156672,1015970,1.035,-0.066,0.153,-1.9,-0.3,-3.9,-7,23.8,-18.9,0.168248543,-0.637928404,-0.120883816,-0.741660817
61,160632,1015970,1.035,-0.066,0.153,-1.9,-0.3,-3.9,-7,23.8,-18.9,0.168248543,-0.637928404,-0.120883816,-0.741660817
62,162784,1015970,1.035,-0.066,0.153,-1.9,-0.3,-3.9,-7,23.8,-18.9,0.168248543,-0.637928404,-0.120883816,-0.741660817
63,165030,1015970,1.035,-0.066,0.153,-1.9,-0.3,-3.9,-7,23.8,-18.9,0.168248543,-0.637928404,-0.120883816,-0.741660817
64,167845,1015980,1.035,-0.066,0.153,-1.9,-0.3,-3.9,-7,23.8,-18.9,0.168248543,-0.637928404,-0.120883816,-0.741660817
65,170146,1015980,1.035,-0.066,0.153,-1.9,-0.3,-3.9,-7,23.8,-18.9,0.168248543,-0.637928404,-0.120883816,-0.741660817
66,172207,1015980,1.035,-0.066,0.153,-1.9,-0.3,-3.9,-7,23.8,-18.9,0.168248543,-0.637928404,-0.120883816,-0.741660817
67,174436,1015980,1.035,-0.066,0.153,-1.9,-0.3,-3.9,-7,23.8,-18.9,0.168248543,-0.637928404,-0.120883816,-0.741660817
68,177525,1015990,1.035,-0.066,0.153,-1.9,-0.3,-3.9,-7,23.8,-18.9,0.168248543,-0.637928404,-0.120883816,-0.741660817
69,179538,1015990,1.035,-0.066,0.153,-1.9,-0.3,-3.9,-7,23.8,-18.9,0.168248543,-0.637928404,-0.120883816,-0.741660817
70,182617,1015990,1.035,-0.066,0.153,-1.9,-0.3,-3.9,-7,23.8,-18.9,0.168248543,-0.637928404,-0.120883816,-0.741660817
71,184072,1015990,1.035,-0.066,0.153,-1.9,-0.3,-3.9,-7,23.8,-18.9,0.168248543,-0.637928404,-0.120883816,-0.741660817
72,187207,1016000,1.035,-0.066,0.153,-1.9,-0.3,-3.9,-7,23.8,-18.9,0.168248543,-0.637928404,-0.120883816,-0.741660817
73,190992,1016000,1.035,-0.066,0.153,-1.9,-0.3,-3.9,-7,23.8,-18.9,0.168248543,-0.637928404,-0.120883816,-0.741660817
74,192434,1016000,1.035,-0.066,0.153,-1.9,-0.3,-3.9,-7,23.8,-18.9,0.168248543,-0.637928404,-0.120883816,-0.741660817
75,194205,1016000,1.035,-0.066,0.153,-1.9,-0.3,-3.9,-7,23.8,-18.9,0.168248543,-0.637928404,-0.120883816,-0.741660817
76,197407,1016010,1.035,-0.066,0.153,-1.9,-0.3,-3.9,-7,23.8,-18.9,0.168248543,-0.637928404,-0.120883816,-0.741660817
77,199070,1016010,1.035,-0.066,0.153,-1.9,-0.3,-3.9,-7,23.8,-18.9,0.168248543,-0.637928404,-0.120883816,-0.741660817
78,202824,1016010,1.035,-0.066,0.153,-1.9,-0.3,-3.9,-7,23.8,-18.9,0.168248543,-0.637928404,-0.120883816,-0.741660817
79,205038,1016010,1.035,-0.066,0.153,-1.9,-0.3,-3.9,-7,23.8,-18.9,0.168248543,-0.637928404,-0.120883816,-0.741660817
80,206588,1016020,1.035,-0.066,0.153,-1.9,-0.3,-3.9,-7,23.8,-18.9,0.168248543,-0.637928404,-0.120883816,-0.741660817
81,208991,1016020,1.035,-0.066,0.153,-1.9,-0.3,-3.9,-7,23.8,-18.9,0.168248543,-0.637928404,-0.120883816,-0.741660817
82,213586,1016020,1.035,-0.066,0.153,-1.9,-0.3,-3.9,-7,23.8,-18.9,0.168248543,-0.637928404,-0.120883816,-0.741660817
83,215896,1016020,1.035,-0.066,0.153,-1.9,-0.3,-3.9,-7,23.8,-18.9,0.168248543,-0.637928404,-0.120883816,-0.741660817
84,218234,1016030,1.035,-0.066,0.153,-1.9,-0.3,-3.9,-7,23.8,-18.9,0.168248543,-0.637928404,-0.120883816,-0.741660817
85,220252,1016030,1.035,-0.066,0.153,-1.9,-0.3,-3.9,-7,23.8,-18.9,0.168248543,-0.637928404,-0.120883816,-0.741660817
86,222779,1016030,1.035,-0.066,0.153,-1.9,-0.3,-3.9,-7,23.8,-18.9,0.168248543,-0.637928404,-0.120883816,-0.741660817
87,224691,1016030,1.035,-0.066,0.153,-1.9,-0.3,-3.9,-7,23.8,-18.9,0.168248543,-0.637928404,-0.120883816,-0.741660817
88,226940,1016040,1.035,-0.066,0.153,-1.9,-0.3,-3.9,-7,23.8,-18.9,0.168248543,-0.637928404,-0.120883816,-0.741660817
89,229430,1016040,1.035,-0.066,0.153,-1.9,-0.3,-3.9,-7,23.8,-18.9,0.168248543,-0.637928404,-0.120883816,-0.741660817
90,231746,1016040,1.035,-0.066,0.153,-1.9,-0.3,-3.9,-7,23.8,-18.9,0.168248543,-0.637928404,-0.120883816,-0.741660817
91,233937,1016040,1.035,-0.066,0.153,-1.9,-0.3,-3.9,-7,23.8,-18.9,0.168248543,-0.637928404,-0.120883816,-0.741660817
92,238248,1016050,1.035,-0.066,0.153,-1.9,-0.3,-3.9,-7,23.8,-18.9,0.168248543,-0.637928404,-0.120883816,-0.741660817
93,240708,1016050,1.035,-0.066,0.153,-1.9,-0.3,-3.9,-7,23.8,-18.9,0.168248543,-0.637928404,-0.120883816,-0.741660817
94,242905,1016050,1.035,-0.066,0.153,-1.9,-0.3,-3.9,-7,23.8,-18.9,0.168248543,-0.637928404,-0.120883816,-0.741660817
95,244748,1016050,1.035,-0.066,0.153,-1.9,-0.3,-3.9,-7,23.8,-18.9,0.168248543,-0.637928404,-0.120883816,-0.741660817
96,247033,1016060,1.035,-0.066,0.153,-1.9,-0.3,-3.9,-7,23.8,-18.9,0.168248543,-0.637928404,-0.120883816,-0.741660817
97,249380,1016060,1.035,-0.066,0.153,-1.9,-0.3,-3.9,-7,23.8,-18.9,0.168248543,-0.637928404,-0.120883816,-0.741660817
98,251944,1016060,1.035,-0.066,0.153,-1.9,-0.3,-3.9,-7,23.8,-18.9,0.168248543,-0.637928404,-0.120883816,-0.741660817
99,255893,1016060,1.035,-0.066,0.153,-1.9,-0.3,-3.9,-7,23.8,-18.9,0.168248543,-0.637928404,-0.120883816,-0.741660817
100,258434,1016070,1.035,-0.066,0.153,-1.9,-0.3,-3.9,-7,23.8,-18.9,0.168248543,-0.637928404,-0.120883816,-0.741660817
101,261064,1016070,1.035,-0.066,0.153,-1.9,-0.3,-3.9,-7,23.8,-18.9,0.168248543,-0.637928404,-0.120883816,-0.741660817
102,263023,1016070,1.035,-0.066,0.153,-1.9,-0.3,-3.9,-7,23.8,-18.9,0.168248543,-0.637928404,-0.120883816,-0.741660817
103,265207,1016070,1.035,-0.066,0.153,-1.9,-0.3,-3.9,-7,23.8,-18.9,0.168248543,-0.637928404,-0.120883816,-0.741660817
104,267899,1016080,1.035,-0.066,0.153,-1.9,-0.3,-3.9,-7,23.8,-18.9,0.168248543,-0.637928404,-0.120883816,-0.741660817
105,270611,1016080,1.035,-0.066,0.153,-1.9,-0.3,-3.9,-7,23.8,-18.9,0.168248543,-0.637928404,-0.120883816,-0.741660817
106,272926,1016080,1.035,-0.066,0.153,-1.9,-0.3,-3.9,-7,23.8,-18.9,0.168248543,-0.637928404,-0.120883816,-0.741660817
107,275608,1016080,1.035,-0.066,0.153,-1.9,-0.3,-3.9,-7,23.8,-18.9,0.168248543,-0.637928404,-0.120883816,-0.741660817
108,278073,1016090,1.035,-0.066,0.153,-1.9,-0.3,-3.9,-7,23.8,-18.9,0.168248543,-0.637928404,-0.120883816,-0.741660817
109,280116,1016090,1.035,-0.066,0.153,-1.9,-0.3,-3.9,-7,23.8,-18.9,0.168248543,-0.637928404,-0.120883816,-0.741660817
110,282382,1016090,1.035,-0.066,0.153,-1.9,-0.3,-3.9,-7,23.8,-18.9,0.168248543,-0.637928404,-0.120883816,-0.741660817
111,284347,1016090,1.035,-0.066,0.153,-1.9,-0.3,-3.9,-7,23.8,-18.9,0.168248543,-0.637928404,-0.120883816,-0.741660817
112,286516,1016100,1.035,-0.066,0.153,-1.9,-0.3,-3.9,-7,23.8,-18.9,0.168248543,-0.637928404,-0.120883816,-0.741660817
113,290484,1016100,1.035,-0.066,0.153,-1.9,-0.3,-3.9,-7,23.8,-18.9,0.168248543,-0.637928404,-0.120883816,-0.741660817
114,293157,1016100,1.035,-0.066,0.153,-1.9,-0.3,-3.9,-7,23.8,-18.9,0.168248543,-0.637928404,-0.120883816,-0.741660817
115,295261,1016100,1.035,-0.066,0.153,-1.9,-0.3,-3.9,-7,23.8,-18.9,0.168248543,-0.637928404,-0.120883816,-0.741660817
116,297116,1016110,1.035,-0.066,0.153,-1.9,-0.3,-3.9,-7,23.8,-18.9,0.168248543,-0.637928404,-0.120883816,-0.741660817
117,299778,1016110,1.035,-0.066,0.153,-1.9,-0.3,-3.9,-7,23.8,-18.9,0.168248543,-0.637928404,-0.120883816,-0.741660817
118,301963,1016110,1.035,-0.066,0.153,-1.9,-0.3,-3.9,-7,23.8,-18.9,0.168248543,-0.637928404,-0.120883816,-0.741660817
119,304451,1016110,1.035,-0.066,0.153,-1.9,-0.3,-3.9,-7,23.8,-18.9,0.168248543,-0.637928404,-0.120883816,-0.741660817
120,308474,1016120,0.977,-0.026,0.146,3.6,0.5,3.2,-6.8,23.7,-19,0.172917875,-0.636249886,-0.124057741,-0.741508225
121,310799,1016120,0.977,-0.026,0.146,3.4,0.3,3.1,-6.8,23.7,-19,0.173039949,-0.636219367,-0.12408826,-0.741508225
122,312686,1016120,0.977,-0.026,0.146,3.4,0.3,3.1,-6.8,23.7,-19,0.173039949,-0.636219367,-0.12408826,-0.741508225
123,314667,1016120,0.977,-0.026,0.146,3.4,0.3,3.1,-6.8,23.7,-19,0.173039949,-0.636219367,-0.12408826,-0.741508225
124,316996,1016130,0.977,-0.026,0.146,3.4,0.3,3.1,-6.8,23.7,-19,0.173039949,-0.636219367,-0.12408826,-0.741508225
125,319273,1016130,0.977,-0.026,0.146,3.4,0.3,3.1,-6.8,23.7,-19,0.173039949,-0.636219367,-0.12408826,-0.741508225
126,321930,1016130,0.977,-0.026,0.146,3.4,0.3,3.1,-6.8,23.7,-19,0.173039949,-0.636219367,-0.12408826,-0.741508225
127,324407,1016130,0.977,-0.026,0.146,3.4,0.3,3.1,-6.8,23.7,-19,0.173039949,-0.636219367,-0.12408826,-0.741508225
128,326711,1016140,0.977,-0.026,0.146,3.4,0.3,3.1,-6.8,23.7,-19,0.173039949,-0.636219367,-0.12408826,-0.741508225
129,329395,1016140,0.977,-0.026,0.146,3.4,0.3,3.1,-6.8,23.7,-19,0.173039949,-0.636219367,-0.12408826,-0.741508225
130,331868,1016140,0.977,-0.026,0.146,3.4,0.3,3.1,-6.8,23.7,-19,0.173039949,-0.636219367,-0.12408826,-0.741508225
131,335151,1016140,0.977,-0.026,0.146,3.4,0.3,3.1,-6.8,23.7,-19,0.173039949,-0.636219367,-0.12408826,-0.741508225
132,337289,1016150,0.977,-0.026,0.146,3.4,0.3,3.1,-6.8,23.7,-19,0.173039949,-0.636219367,-0.12408826,-0.741508225
133,339552,1016150,0.977,-0.026,0.146,3.4,0.3,3.1,-6.8,23.7,-19,0.173039949,-0.636219367,-0.12408826,-0.741508225
134,341750,1016150,0.977,-0.026,0.146,3.4,0.3,3.1,-6.8,23.7,-19,0.173039949,-0.636219367,-0.12408826,-0.741508225
135,345159,1016150,0.977,-0.026,0.146,3.4,0.3,3.1,-6.8,23.7,-19,0.173039949,-0.636219367,-0.12408826,-0.741508225
136,347175,1016160,0.977,-0.026,0.146,3.4,0.3,3.1,-6.8,23.7,-19,0.173039949,-0.636219367,-0.12408826,-0.741508225
137,349033,1016160,0.977,-0.026,0.146,3.4,0.3,3.1,-6.8,23.7,-19,0.173039949,-0.636219367,-0.12408826,-0.741508225
138,352238,1016160,0.977,-0.026,0.146,3.4,0.3,3.1,-6.8,23.7,-19,0.173039949,-0.636219367,-0.12408826,-0.741508225
139,354362,1016160,0.977,-0.026,0.146,3.4,0.3,3.1,-6.8,23.7,-19,0.173039949,-0.636219367,-0.12408826,-0.741508225
140,356692,1016170,0.977,-0.026,0.146,3.4,0.3,3.1,-6.8,23.7,-19,0.173039949,-0.636219367,-0.12408826,-0.741508225
141,359116,1016170,0.977,-0.026,0.146,3.4,0.3,3.1,-6.8,23.7,-19,0.173039949,-0.636219367,-0.12408826,-0.741508225
142,362783,1016170,0.977,-0.026,0.146,3.4,0.3,3.1,-6.8,23.7,-19,0.173039949,-0.636219367,-0.12408826,-0.741508225
143,365080,1016170,0.977,-0.026,0.146,3.4,0.3,3.1,-6.8,23.7,-19,0.173039949,-0.636219367,-0.12408826,-0.741508225
144,366569,1016180,0.977,-0.026,0.146,3.4,0.3,3.1,-6.8,23.7,-19,0.173039949,-0.636219367,-0.12408826,-0.741508225
145,370014,1016180,0.977,-0.026,0.146,3.4,0.3,3.1,-6.8,23.7,-19,0.173039949,-0.636219367,-0.12408826,-0.741508225
146,371467,1016180,0.977,-0.026,0.146,3.4,0.3,3.1,-6.8,23.7,-19,0.173039949,-0.636219367,-0.12408826,-0.741508225
147,375239,1016180,0.977,-0.026,0.146,3.4,0.3,3.1,-6.8,23.7,-19,0.173039949,-0.636219367,-0.12408826,-0.741508225
148,376642,1016190,0.977,-0.026,0.146,3.4,0.3,3.1,-6.8,23.7,-19,0.173039949,-0.636219367,-0.12408826,-0.741508225
149,379985,1016190,0.977,-0.026,0.146,3.4,0.3,3.1,-6.8,23.7,-19,0.173039949,-0.636219367,-0.12408826,-0.741508225
150,381906,1016190,0.977,-0.026,0.146,3.4,0.3,3.1,-6.8,23.7,-19,0.173039949,-0.636219367,-0.12408826,-0.741508225
151,385199,1016190,0.977,-0.026,0.146,3.4,0.3,3.1,-6.8,23.7,-19,0.173039949,-0.636219367,-0.12408826,-0.741508225
152,387244,1016200,0.977,-0.026,0.146,3.4,0.3,3.1,-6.8,23.7,-19,0.173039949,-0.636219367,-0.12408826,-0.741508225
153,389424,1016200,0.977,-0.026,0.146,3.4,0.3,3.1,-6.8,23.7,-19,0.173039949,-0.636219367,-0.12408826,-0.741508225
154,392663,1016200,0.977,-0.026,0.146,3.4,0.3,3.1,-6.8,23.7,-19,0.173039949,-0.636219367,-0.12408826,-0.741508225
155,394732,1016200,0.977,-0.026,0.146,3.4,0.3,3.1,-6.8,23.7,-19,0.173039949,-0.636219367,-0.12408826,-0.741508225
156,397225,1016210,0.977,-0.026,0.146,3.4,0.3,3.1,-6.8,23.7,-19,0.173039949,-0.636219367,-0.12408826,-0.741508225
157,398944,1016210,0.977,-0.026,0.146,3.4,0.3,3.1,-6.8,23.7,-19,0.173039949,-0.636219367,-0.12408826,-0.741508225
158,401780,1016210,0.977,-0.026,0.146,3.4,0.3,3.1,-6.8,23.7,-19,0.173039949,-0.636219367,-0.12408826,-0.741508225
159,405060,1016210,0.977,-0.026,0.146,3.4,0.3,3.1,-6.8,23.7,-19,0.173039949,-0.636219367,-0.12408826,-0.741508225
160,406452,1016220,0.977,-0.026,0.146,3.4,0.3,3.1,-6.8,23.7,-19,0.173039949,-0.636219367,-0.12408826,-0.741508225
161,410293,1016220,0.977,-0.026,0.146,3.4,0.3,3.1,-6.8,23.7,-19,0.173039949,-0.636219367,-0.12408826,-0.741508225
162,411671,1016220,0.977,-0.026,0.146,3.4,0.3,3.1,-6.8,23.7,-19,0.173039949,-0.636219367,-0.12408826,-0.741508225
163,414621,1016220,0.977,-0.026,0.146,3.4,0.3,3.1,-6.8,23.7,-19,0.173039949,-0.636219367,-0.12408826,-0.741508225
164,417768,1016230,0.977,-0.026,0.146,3.4,0.3,3.1,-6.8,23.7,-19,0.173039949,-0.636219367,-0.12408826,-0.741508225
165,420054,1016230,0.977,-0.026,0.146,3.4,0.3,3.1,-6.8,23.7,-19,0.173039949,-0.636219367,-0.12408826,-0.741508225
166,422037,1016230,0.977,-0.026,0.146,3.4,0.3,3.1,-6.8,23.7,-19,0.173039949,-0.636219367,-0.12408826,-0.741508225
167,425187,1016230,0.977,-0.026,0.146,3.4,0.3,3.1,-6.8,23.7,-19,0.173039949,-0.636219367,-0.12408826,-0.741508225
168,427546,1016240,1.001,-0.007,0.161,0.1,-2,-0.3,-6.9,24.2,-20.1,0.174810022,-0.636921293,-0.124576556,-0.740409558
169,429524,1016240,1.001,-0.007,0.161,0.1,-2,-0.3,-6.9,24.2,-20.1,0.174810022,-0.636921293,-0.124576556,-0.740409558
170,431805,1016240,1.001,-0.007,0.161,0.1,-2,-0.3,-6.9,24.2,-20.1,0.174810022,-0.636921293,-0.124576556,-0.740409558
171,434935,1016240,1.001,-0.007,0.161,0.1,-2,-0.3,-6.9,24.2,-20.1,0.174810022,-0.636921293,-0.124576556,-0.740409558
172,438164,1016250,1.001,-0.007,0.161,0.1,-2,-0.3,-6.9,24.2,-20.1,0.174810022,-0.636921293,-0.124576556,-0.740409558
173,440183,1016250,1.001,-0.007,0.161,0.1,-2,-0.3,-6.9,24.2,-20.1,0.174810022,-0.636921293,-0.124576556,-0.740409558
174,441667,1016250,1.001,-0.007,0.161,0.1,-2,-0.3,-6.9,24.2,-20.1,0.174810022,-0.636921293,-0.124576556,-0.740409558
175,444496,1016250,1.001,-0.007,0.161,0.1,-2,-0.3,-6.9,24.2,-20.1,0.174810022,-0.636921293,-0.124576556,-0.740409558
176,447732,1016260,1.001,-0.007,0.161,0.1,-2,-0.3,-6.9,24.2,-20.1,0.174810022,-0.636921293,-0.124576556,-0.740409558
177,449173,1016260,1.001,-0.007,0.161,0.1,-2,-0.3,-6.9,24.2,-20.1,0.174810022,-0.636921293,-0.124576556,-0.740409558
178,452112,1016260,1.001,-0.007,0.161,0.1,-2,-0.3,-6.9,24.2,-20.1,0.174810022,-0.636921293,-0.124576556,-0.740409558
179,454363,1016260,1.001,-0.007,0.161,0.1,-2,-0.3,-6.9,24.2,-20.1,0.174810022,-0.636921293,-0.124576556,-0.740409558
180,457459,1016270,1.001,-0.007,0.161,0.1,-2,-0.3,-6.9,24.2,-20.1,0.174810022,-0.636921293,-0.124576556,-0.740409558
181,459313,1016270,1.001,-0.007,0.161,0.1,-2,-0.3,-6.9,24.2,-20.1,0.174810022,-0.636921293,-0.124576556,-0.740409558
182,462476,1016270,1.001,-0.007,0.161,0.1,-2,-0.3,-6.9,24.2,-20.1,0.174810022,-0.636921293,-0.124576556,-0.740409558
183,463942,1016270,1.001,-0.007,0.161,0.1,-2,-0.3,-6.9,24.2,-20.1,0.174810022,-0.636921293,-0.124576556,-0.740409558
184,466822,1016280,1.001,-0.007,0.161,0.1,-2,-0.3,-6.9,24.2,-20.1,0.174810022,-0.636921293,-0.124576556,-0.740409558
185,469967,1016280,1.001,-0.007,0.161,0.1,-2,-0.3,-6.9,24.2,-20.1,0.174810022,-0.636921293,-0.124576556,-0.740409558
186,472732,1016280,1.001,-0.007,0.161,0.1,-2,-0.3,-6.9,24.2,-20.1,0.174810022,-0.636921293,-0.124576556,-0.740409558
187,474133,1016280,1.001,-0.007,0.161,0.1,-2,-0.3,-6.9,24.2,-20.1,0.174810022,-0.636921293,-0.124576556,-0.740409558
188,477133,1016290,1.001,-0.007,0.161,0.1,-2,-0.3,-6.9,24.2,-20.1,0.174810022,-0.636921293,-0.124576556,-0.740409558
189,479340,1016290,1.001,-0.007,0.161,0.1,-2,-0.3,-6.9,24.2,-20.1,0.174810022,-0.636921293,-0.124576556,-0.740409558
190,482453,1016290,1.001,-0.007,0.161,0.1,-2,-0.3,-6.9,24.2,-20.1,0.174810022,-0.636921293,-0.124576556,-0.740409558
191,483915,1016290,1.001,-0.007,0.161,0.1,-2,-0.3,-6.9,24.2,-20.1,0.174810022,-0.636921293,-0.124576556,-0.740409558
192,486803,1016300,1.001,-0.007,0.161,0.1,-2,-0.3,-6.9,24.2,-20.1,0.174810022,-0.636921293,-0.124576556,-0.740409558
193,490005,1016300,1.001,-0.007,0.161,0.1,-2,-0.3,-6.9,24.2,-20.1,0.174810022,-0.636921293,-0.124576556,-0.740409558
194,491546,1016300,1.001,-0.007,0.161,0.1,-2,-0.3,-6.9,24.2,-20.1,0.174810022,-0.636921293,-0.124576556,-0.740409558
195,493950,1016300,1.001,-0.007,0.161,0.1,-2,-0.3,-6.9,24.2,-20.1,0.174810022,-0.636921293,-0.124576556,-0.740409558
196,497193,1016310,1.001,-0.007,0.161,0.1,-2,-0.3,-6.9,24.2,-20.1,0.174810022,-0.636921293,-0.124576556,-0.740409558
197,499459,1016310,1.001,-0.007,0.161,0.1,-2,-0.3,-6.9,24.2,-20.1,0.174810022,-0.636921293,-0.124576556,-0.740409558
198,502504,1016310,1.001,-0.007,0.161,0.1,-2,-0.3,-6.9,24.2,-20.1,0.174810022,-0.636921293,-0.124576556,-0.740409558
199,505265,1016310,1.001,-0.007,0.161,0.1,-2,-0.3,-6.9,24.2,-20.1,0.174810022,-0.636921293,-0.124576556,-0.740409558
200,506658,1016320,1.001,-0.007,0.161,0.1,-2,-0.3,-6.9,24.2,-20.1,0.174810022,-0.636921293,-0.124576556,-0.740409558
201,509725,1016320,1.001,-0.007,0.161,0.1,-2,-0.3,-6.9,24.2,-20.1,0.174810022,-0.636921293,-0.124576556,-0.740409558
202,511901,1016320,1.001,-0.007,0.161,0.1,-2,-0.3,-6.9,24.2,-20.1,0.174810022,-0.636921293,-0.124576556,-0.740409558
203,515012,1016320,1.001,-0.007,0.161,0.1,-2,-0.3,-6.9,24.2,-20.1,0.174810022,-0.636921293,-0.124576556,-0.740409558
204,516571,1016330,1.001,-0.007,0.161,0.1,-2,-0.3,-6.9,24.2,-20.1,0.174810022,-0.636921293,-0.124576556,-0.740409558
205,519160,1016330,1.001,-0.007,0.161,0.1,-2,-0.3,-6.9,24.2,-20.1,0.174810022,-0.636921293,-0.124576556,-0.740409558
206,522446,1016330,1.001,-0.007,0.161,0.1,-2,-0.3,-6.9,24.2,-20.1,0.174810022,-0.636921293,-0.124576556,-0.740409558
207,524613,1016330,1.001,-0.007,0.161,0.1,-2,-0.3,-6.9,24.2,-20.1,0.174810022,-0.636921293,-0.124576556,-0.740409558
208,527658,1016340,1.001,-0.007,0.161,0.1,-2,-0.3,-6.9,24.2,-20.1,0.174810022,-0.636921293,-0.124576556,-0.740409558
209,529761,1016340,1.001,-0.007,0.161,0.1,-2,-0.3,-6.9,24.2,-20.1,0.174810022,-0.636921293,-0.124576556,-0.740409558
210,531960,1016340,1.001,-0.007,0.161,0.1,-2,-0.3,-6.9,24.2,-20.1,0.174810022,-0.636921293,-0.124576556,-0.740409558
211,534293,1016340,1.001,-0.007,0.161,0.1,-2,-0.3,-6.9,24.2,-20.1,0.174810022,-0.636921293,-0.124576556,-0.740409558
212,536825,1016350,1.001,-0.007,0.161,0.1,-2,-0.3,-6.9,24.2,-20.1,0.174810022,-0.636921293,-0.124576556,-0.740409558
213,539206,1016350,1.001,-0.007,0.161,0.1,-2,-0.3,-6.9,24.2,-20.1,0.174810022,-0.636921293,-0.124576556,-0.740409558
214,543529,1016350,1.001,-0.007,0.161,0.1,-2,-0.3,-6.9,24.2,-20.1,0.174810022,-0.636921293,-0.124576556,-0.740409558
215,544005,1016350,1.001,-0.007,0.161,0.1,-2,-0.3,-6.9,24.2,-20.1,0.174810022,-0.636921293,-0.124576556,-0.740409558
216,546577,1016360,1.001,-0.007,0.161,0.1,-2,-0.3,-6.9,24.2,-20.1,0.174810022,-0.636921293,-0.124576556,-0.740409558
217,550952,1016360,1.001,-0.007,0.161,0.1,-2,-0.3,-6.9,24.2,-20.1,0.174810022,-0.636921293,-0.124576556,-0.740409558
218,553144,1016360,1.001,-0.007,0.161,0.1,-2,-0.3,-6.9,24.2,-20.1,0.174810022,-0.636921293,-0.124576556,-0.740409558
219,555350,1016360,1.001,-0.007,0.161,0.1,-2,-0.3,-6.9,24.2,-20.1,0.174810022,-0.636921293,-0.124576556,-0.740409558
220,556629,1016370,1.001,-0.007,0.161,0.1,-2,-0.3,-6.9,24.2,-20.1,0.174810022,-0.636921293,-0.124576556,-0.740409558
221,559694,1016370,1.001,-0.007,0.161,0.1,-2,-0.3,-6.9,24.2,-20.1,0.174810022,-0.636921293,-0.124576556,-0.740409558
222,562559,1016370,1.001,-0.007,0.161,0.1,-2,-0.3,-6.9,24.2,-20.1,0.174810022,-0.636921293,-0.124576556,-0.740409558
223,564094,1016370,1.001,-0.007,0.161,0.1,-2,-0.3,-6.9,24.2,-20.1,0.174810022,-0.636921293,-0.124576556,-0.740409558
224,567751,1016380,1.001,-0.007,0.161,0.1,-2,-0.3,-6.9,24.2,-20.1,0.174810022,-0.636921293,-0.124576556,-0.740409558
225,569282,1016380,1.001,-0.007,0.161,0.1,-2,-0.3,-6.9,24.2,-20.1,0.174810022,-0.636921293,-0.124576556,-0.740409558
226,571802,1016380,1.001,-0.007,0.161,0.1,-2,-0.3,-6.9,24.2,-20.1,0.174810022,-0.636921293,-0.124576556,-0.740409558
227,575568,1016380,1.001,-0.007,0.161,0.1,-2,-0.3,-6.9,24.2,-20.1,0.174810022,-0.636921293,-0.124576556,-0.740409558
228,577493,1016390,1.001,-0.007,0.161,0.1,-2,-0.3,-6.9,24.2,-20.1,0.174810022,-0.636921293,-0.124576556,-0.740409558
229,578955,1016390,1.001,-0.007,0.161,0.1,-2,-0.3,-6.9,24.2,-20.1,0.174810022,-0.636921293,-0.124576556,-0.740409558
230,581569,1016390,1.001,-0.007,0.161,0.1,-2,-0.3,-6.9,24.2,-20.1,0.174810022,-0.636921293,-0.124576556,-0.740409558
231,585190,1016390,1.001,-0.007,0.161,0.1,-2,-0.3,-6.9,24.2,-20.1,0.174810022,-0.636921293,-0.124576556,-0.740409558
232,587269,1016400,1.001,-0.007,0.161,0.1,-2,-0.3,-6.9,24.2,-20.1,0.174810022,-0.636921293,-0.124576556,-0.740409558
233,589399,1016400,1.001,-0.007,0.161,0.1,-2,-0.3,-6.9,24.2,-20.1,0.174810022,-0.636921293,-0.124576556,-0.740409558
234,592654,1016400,1.001,-0.007,0.161,0.1,-2,-0.3,-6.9,24.2,-20.1,0.174810022,-0.636921293,-0.124576556,-0.740409558
235,594736,1016400,1.001,-0.007,0.161,0.1,-2,-0.3,-6.9,24.2,-20.1,0.174810022,-0.636921293,-0.124576556,-0.740409558
236,596987,1016410,1.001,-0.007,0.161,0.1,-2,-0.3,-6.9,24.2,-20.1,0.174810022,-0.636921293,-0.124576556,-0.740409558
237,599283,1016410,1.001,-0.007,0.161,0.1,-2,-0.3,-6.9,24.2,-20.1,0.174810022,-0.636921293,-0.124576556,-0.740409558
238,601786,1016410,1.001,-0.007,0.161,0.1,-2,-0.3,-6.9,24.2,-20.1,0.174810022,-0.636921293,-0.124576556,-0.740409558
239,604069,1016410,1.001,-0.007,0.161,0.1,-2,-0.3,-6.9,24.2,-20.1,0.174810022,-0.636921293,-0.124576556,-0.740409558
240,607520,1016420,1.001,-0.007,0.161,0.1,-2,-0.3,-6.9,24.2,-20.1,0.174810022,-0.636921293,-0.124576556,-0.740409558
241,608972,1016420,1.001,-0.007,0.161,0.1,-2,-0.3,-6.9,24.2,-20.1,0.174810022,-0.636921293,-0.124576556,-0.740409558
242,612769,1016420,1.001,-0.007,0.161,0.1,-2,-0.3,-6.9,24.2,-20.1,0.174810022,-0.636921293,-0.124576556,-0.740409558
243,614242,1016420,1.001,-0.007,0.161,0.1,-2,-0.3,-6.9,24.2,-20.1,0.174810022,-0.636921293,-0.124576556,-0.740409558
244,617569,1016430,1.001,-0.007,0.161,0.1,-2,-0.3,-6.9,24.2,-20.1,0.174810022,-0.636921293,-0.124576556,-0.740409558
245,619116,1016430,1.001,-0.007,0.161,0.1,-2,-0.3,-6.9,24.2,-20.1,0.174810022,-0.636921293,-0.124576556,-0.740409558
246,622011,1016430,1.001,-0.007,0.161,0.1,-2,-0.3,-6.9,24.2,-20.1,0.174810022,-0.636921293,-0.124576556,-0.740409558
247,625218,1016430,1.001,-0.007,0.161,0.1,-2,-0.3,-6.9,24.2,-20.1,0.174810022,-0.636921293,-0.124576556,-0.740409558
248,627447,1016440,1.001,-0.007,0.161,0.1,-2,-0.3,-6.9,24.2,-20.1,0.174810022,-0.636921293,-0.124576556,-0.740409558
249,629426,1016440,1.001,-0.007,0.161,0.1,-2,-0.3,-6.9,24.2,-20.1,0.174810022,-0.636921293,-0.124576556,-0.740409558
250,633585,1016440,1.001,-0.007,0.161,0.1,-2,-0.3,-6.9,24.2,-20.1,0.174810022,-0.636921293,-0.124576556,-0.740409558
251,635505,1016440,1.001,-0.007,0.161,0.1,-2,-0.3,-6.9,24.2,-20.1,0.174810022,-0.636921293,-0.124576556,-0.740409558
252,637706,1016450,1.001,-0.007,0.161,0.1,-2,-0.3,-6.9,24.2,-20.1,0.174810022,-0.636921293,-0.124576556,-0.740409558
253,639785,1016450,1.001,-0.007,0.161,0.1,-2,-0.3,-6.9,24.2,-20.1,0.174810022,-0.636921293,-0.124576556,-0.740409558
254,642004,1016450,1.001,-0.007,0.161,0.1,-2,-0.3,-6.9,24.2,-20.1,0.174810022,-0.636921293,-0.124576556,-0.740409558
255,644354,1016450,1.001,-0.007,0.161,0.1,-2,-0.3,-6.9,24.2,-20.1,0.174810022,-0.636921293,-0.124576556,-0.740409558
256,647673,1016460,1.001,-0.007,0.161,0.1,-2,-0.3,-6.9,24.2,-20.1,0.174810022,-0.636921293,-0.124576556,-0.740409558
257,649866,1016460,1.001,-0.007,0.161,0.1,-2,-0.3,-6.9,24.2,-20.1,0.174810022,-0.636921293,-0.124576556,-0.740409558
258,652731,1016460,0.973,-0.01,0.15,-1.6,-0.7,1.5,-6.2,23.7,-18.8,0.176793725,-0.635395367,-0.126071963,-0.74098941
259,655006,1016460,0.973,-0.01,0.15,-1.6,-0.7,1.5,-6.2,23.7,-18.8,0.176793725,-0.635395367,-0.126071963,-0.74098941
260,656791,1016470,0.973,-0.01,0.15,-1.6,-0.7,1.5,-6.2,23.7,-18.8,0.176793725,-0.635395367,-0.126071963,-0.74098941
261,660096,1016470,0.973,-0.01,0.15,-1.6,-0.7,1.5,-6.2,23.7,-18.8,0.176793725,-0.635395367,-0.126071963,-0.74098941
262,662024,1016470,0.973,-0.01,0.15,-1.6,-0.7,1.5,-6.2,23.7,-18.8,0.176793725,-0.635395367,-0.126071963,-0.74098941
263,665292,1016470,0.973,-0.01,0.15,-1.6,-0.7,1.5,-6.2,23.7,-18.8,0.176793725,-0.635395367,-0.126071963,-0.74098941
264,666995,1016480,0.973,-0.01,0.15,-1.6,-0.7,1.5,-6.2,23.7,-18.8,0.176793725,-0.635395367,-0.126071963,-0.74098941
265,670818,1016480,0.973,-0.01,0.15,-1.6,-0.7,1.5,-6.2,23.7,-18.8,0.176793725,-0.635395367,-0.126071963,-0.74098941
266,672545,1016480,0.973,-0.01,0.15,-1.6,-0.7,1.5,-6.2,23.7,-18.8,0.176793725,-0.635395367,-0.126071963,-0.74098941
267,673960,1016480,0.973,-0.01,0.15,-1.6,-0.7,1.5,-6.2,23.7,-18.8,0.176793725,-0.635395367,-0.126071963,-0.74098941
268,677631,1016490,0.973,-0.01,0.15,-1.6,-0.7,1.5,-6.2,23.7,-18.8,0.176793725,-0.635395367,-0.126071963,-0.74098941
269,678895,1016490,0.973,-0.01,0.15,-1.6,-0.7,1.5,-6.2,23.7,-18.8,0.176793725,-0.635395367,-0.126071963,-0.74098941
270,682006,1016490,0.973,-0.01,0.15,-1.6,-0.7,1.5,-6.2,23.7,-18.8,0.176793725,-0.635395367,-0.126071963,-0.74098941
271,685771,1016490,0.973,-0.01,0.15,-1.6,-0.7,1.5,-6.2,23.7,-18.8,0.176793725,-0.635395367,-0.126071963,-0.74098941
272,687479,1016500,0.973,-0.01,0.15,-1.6,-0.7,1.5,-6.2,23.7,-18.8,0.176793725,-0.635395367,-0.126071963,-0.74098941
273,689622,1016500,0.973,-0.01,0.15,-1.6,-0.7,1.5,-6.2,23.7,-18.8,0.176793725,-0.635395367,-0.126071963,-0.74098941
274,691745,1016500,0.973,-0.01,0.15,-1.6,-0.7,1.5,-6.2,23.7,-18.8,0.176793725,-0.635395367,-0.126071963,-0.74098941
275,694879,1016500,0.973,-0.01,0.15,-1.6,-0.7,1.5,-6.2,23.7,-18.8,0.176793725,-0.635395367,-0.126071963,-0.74098941
276,697018,1016510,0.973,-0.01,0.15,-1.6,-0.7,1.5,-6.2,23.7,-18.8,0.176793725,-0.635395367,-0.126071963,-0.74098941
277,700211,1016510,0.973,-0.01,0.15,-1.6,-0.7,1.5,-6.2,23.7,-18.8,0.176793725,-0.635395367,-0.126071963,-0.74098941
278,701649,1016510,0.973,-0.01,0.15,-1.6,-0.7,1.5,-6.2,23.7,-18.8,0.176793725,-0.635395367,-0.126071963,-0.74098941
279,705271,1016510,0.973,-0.01,0.15,-1.6,-0.7,1.5,-6.2,23.7,-18.8,0.176793725,-0.635395367,-0.126071963,-0.74098941
280,706687,1016520,0.973,-0.01,0.15,-1.6,-0.7,1.5,-6.2,23.7,-18.8,0.176793725,-0.635395367,-0.126071963,-0.74098941
281,711085,1016520,0.973,-0.01,0.15,-1.6,-0.7,1.5,-6.2,23.7,-18.8,0.176793725,-0.635395367,-0.126071963,-0.74098941
282,712850,1016520,0.973,-0.01,0.15,-1.6,-0.7,1.5,-6.2,23.7,-18.8,0.176793725,-0.635395367,-0.126071963,-0.74098941
283,715141,1016520,0.973,-0.01,0.15,-1.6,-0.7,1.5,-6.2,23.7,-18.8,0.176793725,-0.635395367,-0.126071963,-0.74098941
284,716648,1016530,0.973,-0.01,0.15,-1.6,-0.7,1.5,-6.2,23.7,-18.8,0.176793725,-0.635395367,-0.126071963,-0.74098941
285,720725,1016530,0.973,-0.01,0.15,-1.6,-0.7,1.5,-6.2,23.7,-18.8,0.176793725,-0.635395367,-0.126071963,-0.74098941
286,722750,1016530,0.973,-0.01,0.15,-1.6,-0.7,1.5,-6.2,23.7,-18.8,0.176793725,-0.635395367,-0.126071963,-0.74098941
287,725038,1016530,0.973,-0.01,0.15,-1.6,-0.7,1.5,-6.2,23.7,-18.8,0.176793725,-0.635395367,-0.126071963,-0.74098941
288,726740,1016540,0.973,-0.01,0.15,-1.6,-0.7,1.5,-6.2,23.7,-18.8,0.176793725,-0.635395367,-0.126071963,-0.74098941
289,729267,1016540,0.973,-0.01,0.15,-1.6,-0.7,1.5,-6.2,23.7,-18.8,0.176793725,-0.635395367,-0.126071963,-0.74098941
290,731606,1016540,0.973,-0.01,0.15,-1.6,-0.7,1.5,-6.2,23.7,-18.8,0.176793725,-0.635395367,-0.126071963,-0.74098941
291,735220,1016540,0.973,-0.01,0.15,-1.6,-0.7,1.5,-6.2,23.7,-18.8,0.176793725,-0.635395367,-0.126071963,-0.74098941
292,737192,1016550,0.973,-0.01,0.15,-1.6,-0.7,1.5,-6.2,23.7,-18.8,0.176793725,-0.635395367,-0.126071963,-0.74098941
293,740910,1016550,0.973,-0.01,0.15,-1.6,-0.7,1.5,-6.2,23.7,-18.8,0.176793725,-0.635395367,-0.126071963,-0.74098941
294,741455,1016550,0.973,-0.01,0.15,-1.6,-0.7,1.5,-6.2,23.7,-18.8,0.176793725,-0.635395367,-0.126071963,-0.74098941
295,745401,1016550,0.973,-0.01,0.15,-1.6,-0.7,1.5,-6.2,23.7,-18.8,0.176793725,-0.635395367,-0.126071963,-0.74098941
296,747852,1016560,0.973,-0.01,0.15,-1.6,-0.7,1.5,-6.2,23.7,-18.8,0.176793725,-0.635395367,-0.126071963,-0.74098941
297,750191,1016560,0.973,-0.01,0.15,-1.6,-0.7,1.5,-6.2,23.7,-18.8,0.176793725,-0.635395367,-0.126071963,-0.74098941
298,752133,1016560,0.973,-0.01,0.15,-1.6,-0.7,1.5,-6.2,23.7,-18.8,0.176793725,-0.635395367,-0.126071963,-0.74098941
299,754677,1016560,0.973,-0.01,0.15,-1.6,-0.7,1.5,-6.2,23.7,-18.8,0.176793725,-0.635395367,-0.126071963,-0.74098941
300,756799,1016570,0.973,-0.01,0.15,-1.6,-0.7,1.5,-6.2,23.7,-18.8,0.176793725,-0.635395367,-0.126071963,-0.74098941
301,759350,1016570,0.973,-0.01,0.15,-1.6,-0.7,1.5,-6.2,23.7,-18.8,0.176793725,-0.635395367,-0.126071963,-0.74098941
302,764023,1016570,0.973,-0.01,0.15,-1.6,-0.7,1.5,-6.2,23.7,-18.8,0.176793725,-0.635395367,-0.126071963,-0.74098941
303,764023,1016570,0.973,-0.01,0.15,-1.6,-0.7,1.5,-6.2,23.7,-18.8,0.176793725,-0.635395367,-0.126071963,-0.74098941
304,766562,1016580,0.973,-0.01,0.15,-1.6,-0.7,1.5,-6.2,23.7,-18.8,0.176793725,-0.635395367,-0.126071963,-0.74098941
305,769377,1016580,0.973,-0.01,0.15,-1.6,-0.7,1.5,-6.2,23.7,-18.8,0.176793725,-0.635395367,-0.126071963,-0.74098941
306,772023,1016580,0.973,-0.01,0.15,-1.6,-0.7,1.5,-6.2,23.7,-18.8,0.176793725,-0.635395367,-0.126071963,-0.74098941
307,774263,1016580,0.973,-0.01,0.15,-1.6,-0.7,1.5,-6.2,23.7,-18.8,0.176793725,-0.635395367,-0.126071963,-0.74098941
308,778510,1016590,0.973,-0.01,0.15,-1.6,-0.7,1.5,-6.2,23.7,-18.8,0.176793725,-0.635395367,-0.126071963,-0.74098941
309,780711,1016590,0.973,-0.01,0.15,-1.6,-0.7,1.5,-6.2,23.7,-18.8,0.176793725,-0.635395367,-0.126071963,-0.74098941
310,782933,1016590,0.973,-0.01,0.15,-1.6,-0.7,1.5,-6.2,23.7,-18.8,0.176793725,-0.635395367,-0.126071963,-0.74098941
311,785246,1016590,0.973,-0.01,0.15,-1.6,-0.7,1.5,-6.2,23.7,-18.8,0.176793725,-0.635395367,-0.126071963,-0.74098941
312,787200,1016600,0.973,-0.01,0.15,-1.6,-0.7,1.5,-6.2,23.7,-18.8,0.176793725,-0.635395367,-0.126071963,-0.74098941
313,789412,1016600,0.973,-0.01,0.15,-1.6,-0.7,1.5,-6.2,23.7,-18.8,0.176793725,-0.635395367,-0.126071963,-0.74098941
314,792309,1016600,0.973,-0.01,0.15,-1.6,-0.7,1.5,-6.2,23.7,-18.8,0.176793725,-0.635395367,-0.126071963,-0.74098941
315,795244,1016600,0.973,-0.01,0.15,-1.6,-0.7,1.5,-6.2,23.7,-18.8,0.176793725,-0.635395367,-0.126071963,-0.74098941
316,797229,1016610,0.973,-0.01,0.15,-1.6,-0.7,1.5,-6.2,23.7,-18.8,0.176793725,-0.635395367,-0.126071963,-0.74098941
317,799461,1016610,0.973,-0.01,0.15,-1.6,-0.7,1.5,-6.2,23.7,-18.8,0.176793725,-0.635395367,-0.126071963,-0.74098941
318,801826,1016610,0.973,-0.01,0.15,-1.6,-0.7,1.5,-6.2,23.7,-18.8,0.176793725,-0.635395367,-0.126071963,-0.74098941
319,804520,1016610,0.973,-0.01,0.15,-1.6,-0.7,1.5,-6.2,23.7,-18.8,0.176793725,-0.635395367,-0.126071963,-0.74098941
320,807168,1016620,0.973,-0.01,0.15,-1.6,-0.7,1.5,-6.2,23.7,-18.8,0.176793725,-0.635395367,-0.126071963,-0.74098941
321,809303,1016620,0.973,-0.01,0.15,-1.6,-0.7,1.5,-6.2,23.7,-18.8,0.176793725,-0.635395367,-0.126071963,-0.74098941
322,813419,1016620,0.973,-0.01,0.15,-1.6,-0.7,1.5,-6.2,23.7,-18.8,0.176793725,-0.635395367,-0.126071963,-0.74098941
323,815572,1016620,0.973,-0.01,0.15,-1.6,-0.7,1.5,-6.2,23.7,-18.8,0.176793725,-0.635395367,-0.126071963,-0.74098941
324,817848,1016630,0.973,-0.01,0.15,-1.6,-0.7,1.5,-6.2,23.7,-18.8,0.176793725,-0.635395367,-0.126071963,-0.74098941
325,820208,1016630,0.973,-0.01,0.15,-1.6,-0.7,1.5,-6.2,23.7,-18.8,0.176793725,-0.635395367,-0.126071963,-0.74098941
326,822065,1016630,0.973,-0.01,0.15,-1.6,-0.7,1.5,-6.2,23.7,-18.8,0.176793725,-0.635395367,-0.126071963,-0.74098941
327,824264,1016630,0.973,-0.01,0.15,-1.6,-0.7,1.5,-6.2,23.7,-18.8,0.176793725,-0.635395367,-0.126071963,-0.74098941
328,826970,1016640,0.973,-0.01,0.15,-1.6,-0.7,1.5,-6.2,23.7,-18.8,0.176793725,-0.635395367,-0.126071963,-0.74098941
329,829015,1016640,0.973,-0.01,0.15,-1.6,-0.7,1.5,-6.2,23.7,-18.8,0.176793725,-0.635395367,-0.126071963,-0.74098941
330,831541,1016640,0.973,-0.01,0.15,-1.6,-0.7,1.5,-6.2,23.7,-18.8,0.176793725,-0.635395367,-0.126071963,-0.74098941
331,835940,1016640,0.973,-0.01,0.15,-1.6,-0.7,1.5,-6.2,23.7,-18.8,0.176793725,-0.635395367,-0.126071963,-0.74098941
332,838229,1016650,0.973,-0.01,0.15,-1.6,-0.7,1.5,-6.2,23.7,-18.8,0.176793725,-0.635395367,-0.126071963,-0.74098941
333,840440,1016650,0.973,-0.01,0.15,-1.6,-0.7,1.5,-6.2,23.7,-18.8,0.176793725,-0.635395367,-0.126071963,-0.74098941
334,842687,1016650,0.973,-0.01,0.15,-1.6,-0.7,1.5,-6.2,23.7,-18.8,0.176793725,-0.635395367,-0.126071963,-0.74098941
335,844616,1016650,0.973,-0.01,0.15,-1.6,-0.7,1.5,-6.2,23.7,-18.8,0.176793725,-0.635395367,-0.126071963,-0.74098941
336,846899,1016660,0.973,-0.01,0.15,-1.6,-0.7,1.5,-6.2,23.7,-18.8,0.176793725,-0.635395367,-0.126071963,-0.74098941
337,850961,1016660,0.973,-0.01,0.15,-1.6,-0.7,1.5,-6.2,23.7,-18.8,0.176793725,-0.635395367,-0.126071963,-0.74098941
338,853175,1016660,0.973,-0.01,0.15,-1.6,-0.7,1.5,-6.2,23.7,-18.8,0.176793725,-0.635395367,-0.126071963,-0.74098941
339,855305,1016660,0.973,-0.01,0.15,-1.6,-0.7,1.5,-6.2,23.7,-18.8,0.176793725,-0.635395367,-0.126071963,-0.74098941
340,857709,1016670,0.973,-0.01,0.15,-1.6,-0.7,1.5,-6.2,23.7,-18.8,0.176793725,-0.635395367,-0.126071963,-0.74098941
341,859776,1016670,0.973,-0.01,0.15,-1.6,-0.7,1.5,-6.2,23.7,-18.8,0.176793725,-0.635395367,-0.126071963,-0.74098941
342,861853,1016670,0.973,-0.01,0.15,-1.6,-0.7,1.5,-6.2,23.7,-18.8,0.176793725,-0.635395367,-0.126071963,-0.74098941
343,865959,1016670,0.973,-0.01,0.15,-1.6,-0.7,1.5,-6.2,23.7,-18.8,0.176793725,-0.635395367,-0.126071963,-0.74098941
344,868178,1016680,0.973,-0.01,0.15,-1.6,-0.7,1.5,-6.2,23.7,-18.8,0.176793725,-0.635395367,-0.126071963,-0.74098941
345,870259,1016680,0.973,-0.01,0.15,-1.6,-0.7,1.5,-6.2,23.7,-18.8,0.176793725,-0.635395367,-0.126071963,-0.74098941
346,871698,1016680,0.973,-0.01,0.15,-1.6,-0.7,1.5,-6.2,23.7,-18.8,0.176793725,-0.635395367,-0.126071963,-0.74098941
347,875635,1016680,0.973,-0.01,0.15,-1.6,-0.7,1.5,-6.2,23.7,-18.8,0.176793725,-0.635395367,-0.126071963,-0.74098941
348,877817,1016690,0.973,-0.01,0.15,-1.6,-0.7,1.5,-6.2,23.7,-18.8,0.176793725,-0.635395367,-0.126071963,-0.74098941
349,880099,1016690,0.973,-0.01,0.15,-1.6,-0.7,1.5,-6.2,23.7,-18.8,0.176793725,-0.635395367,-0.126071963,-0.74098941
350,881603,1016690,1.004,-0.042,0.153,-3.2,1.2,-1.4,-6.5,24.2,-17.8,0.172704245,-0.637318033,-0.123447371,-0.740745262
351,884716,1016690,1.004,-0.042,0.153,-3.2,1.2,-1.4,-6.5,24.2,-17.8,0.172704245,-0.637318033,-0.123447371,-0.740745262
352,886991,1016700,1.004,-0.042,0.153,-3.2,1.2,-1.4,-6.5,24.2,-17.8,0.172704245,-0.637318033,-0.123447371,-0.740745262
353,889509,1016700,1.004,-0.042,0.153,-3.2,1.2,-1.4,-6.5,24.2,-17.8,0.172704245,-0.637318033,-0.123447371,-0.740745262
354,892547,1016700,1.004,-0.042,0.153,-3.2,1.2,-1.4,-6.5,24.2,-17.8,0.172704245,-0.637318033,-0.123447371,-0.740745262
355,893950,1016700,1.004,-0.042,0.153,-3.2,1.2,-1.4,-6.5,24.2,-17.8,0.172704245,-0.637318033,-0.123447371,-0.740745262
356,896872,1016710,1.004,-0.042,0.153,-3.2,1.2,-1.4,-6.5,24.2,-17.8,0.172704245,-0.637318033,-0.123447371,-0.740745262
357,900212,1016710,1.004,-0.042,0.153,-3.2,1.2,-1.4,-6.5,24.2,-17.8,0.172704245,-0.637318033,-0.123447371,-0.740745262
358,901671,1016710,1.004,-0.042,0.153,-3.2,1.2,-1.4,-6.5,24.2,-17.8,0.172704245,-0.637318033,-0.123447371,-0.740745262
359,904679,1016710,1.004,-0.042,0.153,-3.2,1.2,-1.4,-6.5,24.2,-17.8,0.172704245,-0.637318033,-0.123447371,-0.740745262
360,907065,1016720,1.004,-0.042,0.153,-3.2,1.2,-1.4,-6.5,24.2,-17.8,0.172704245,-0.637318033,-0.123447371,-0.740745262
361,909182,1016720,1.004,-0.042,0.153,-3.2,1.2,-1.4,-6.5,24.2,-17.8,0.172704245,-0.637318033,-0.123447371,-0.740745262
362,913248,1016720,1.004,-0.042,0.153,-3.2,1.2,-1.4,-6.5,24.2,-17.8,0.172704245,-0.637318033,-0.123447371,-0.740745262
363,915409,1016720,1.004,-0.042,0.153,-3.2,1.2,-1.4,-6.5,24.2,-17.8,0.172704245,-0.637318033,-0.123447371,-0.740745262
364,917665,1016730,1.004,-0.042,0.153,-3.2,1.2,-1.4,-6.5,24.2,-17.8,0.172704245,-0.637318033,-0.123447371,-0.740745262
365,919095,1016730,1.004,-0.042,0.153,-3.2,1.2,-1.4,-6.5,24.2,-17.8,0.172704245,-0.637318033,-0.123447371,-0.740745262
366,922094,1016730,1.004,-0.042,0.153,-3.2,1.2,-1.4,-6.5,24.2,-17.8,0.172704245,-0.637318033,-0.123447371,-0.740745262
367,924007,1016730,1.004,-0.042,0.153,-3.2,1.2,-1.4,-6.5,24.2,-17.8,0.172704245,-0.637318033,-0.123447371,-0.740745262
368,928182,1016740,1.004,-0.042,0.153,-3.2,1.2,-1.4,-6.5,24.2,-17.8,0.172704245,-0.637318033,-0.123447371,-0.740745262
369,930427,1016740,1.004,-0.042,0.153,-3.2,1.2,-1.4,-6.5,24.2,-17.8,0.172704245,-0.637318033,-0.123447371,-0.740745262
370,932628,1016740,1.004,-0.042,0.153,-3.2,1.2,-1.4,-6.5,24.2,-17.8,0.172704245,-0.637318033,-0.123447371,-0.740745262
371,934185,1016740,1.004,-0.042,0.153,-3.2,1.2,-1.4,-6.5,24.2,-17.8,0.172704245,-0.637318033,-0.123447371,-0.740745262
372,938323,1016750,1.004,-0.042,0.153,-3.2,1.2,-1.4,-6.5,24.2,-17.8,0.172704245,-0.637318033,-0.123447371,-0.740745262
373,940504,1016750,1.004,-0.042,0.153,-3.2,1.2,-1.4,-6.5,24.2,-17.8,0.172704245,-0.637318033,-0.123447371,-0.740745262
374,942722,1016750,1.004,-0.042,0.153,-3.2,1.2,-1.4,-6.5,24.2,-17.8,0.172704245,-0.637318033,-0.123447371,-0.740745262
375,945104,1016750,1.004,-0.042,0.153,-3.2,1.2,-1.4,-6.5,24.2,-17.8,0.172704245,-0.637318033,-0.123447371,-0.740745262
376,947089,1016760,1.004,-0.042,0.153,-3.2,1.2,-1.4,-6.5,24.2,-17.8,0.172704245,-0.637318033,-0.123447371,-0.740745262
377,949334,1016760,1.004,-0.042,0.153,-3.2,1.2,-1.4,-6.5,24.2,-17.8,0.172704245,-0.637318033,-0.123447371,-0.740745262
378,952624,1016760,1.004,-0.042,0.153,-3.2,1.2,-1.4,-6.5,24.2,-17.8,0.172704245,-0.637318033,-0.123447371,-0.740745262
379,954702,1016760,1.004,-0.042,0.153,-3.2,1.2,-1.4,-6.5,24.2,-17.8,0.172704245,-0.637318033,-0.123447371,-0.740745262
380,957381,1016770,1.004,-0.042,0.153,-3.2,1.2,-1.4,-6.5,24.2,-17.8,0.172704245,-0.637318033,-0.123447371,-0.740745262
381,960079,1016770,1.004,-0.042,0.153,-3.2,1.2,-1.4,-6.5,24.2,-17.8,0.172704245,-0.637318033,-0.123447371,-0.740745262
382,962097,1016770,1.004,-0.042,0.153,-3.2,1.2,-1.4,-6.5,24.2,-17.8,0.172704245,-0.637318033,-0.123447371,-0.740745262
383,964161,1016770,1.004,-0.042,0.153,-3.2,1.2,-1.4,-6.5,24.2,-17.8,0.172704245,-0.637318033,-0.123447371,-0.740745262
384,968409,1016780,1.004,-0.042,0.153,-3.2,1.2,-1.4,-6.5,24.2,-17.8,0.172704245,-0.637318033,-0.123447371,-0.740745262
385,970559,1016780,1.004,-0.042,0.153,-3.2,1.2,-1.4,-6.5,24.2,-17.8,0.172704245,-0.637318033,-0.123447371,-0.740745262
386,972787,1016780,1.004,-0.042,0.153,-3.2,1.2,-1.4,-6.5,24.2,-17.8,0.172704245,-0.637318033,-0.123447371,-0.740745262
387,975043,1016780,1.004,-0.042,0.153,-3.2,1.2,-1.4,-6.5,24.2,-17.8,0.172704245,-0.637318033,-0.123447371,-0.740745262
388,977124,1016790,1.004,-0.042,0.153,-3.2,1.2,-1.4,-6.5,24.2,-17.8,0.172704245,-0.637318033,-0.123447371,-0.740745262
389,979271,1016790,1.004,-0.042,0.153,-3.2,1.2,-1.4,-6.5,24.2,-17.8,0.172704245,-0.637318033,-0.123447371,-0.740745262
390,982541,1016790,1.004,-0.042,0.153,-3.2,1.2,-1.4,-6.5,24.2,-17.8,0.172704245,-0.637318033,-0.123447371,-0.740745262
391,984016,1016790,1.004,-0.042,0.153,-3.2,1.2,-1.4,-6.5,24.2,-17.8,0.172704245,-0.637318033,-0.123447371,-0.740745262
392,988481,1016800,1.004,-0.042,0.153,-3.2,1.2,-1.4,-6.5,24.2,-17.8,0.172704245,-0.637318033,-0.123447371,-0.740745262
393,990921,1016800,0.996,-0.066,0.154,-4.5,2.5,-4,-6.8,23.8,-19,0.168279061,-0.636249886,-0.12161626,-0.743003632
394,993069,1016800,0.996,-0.066,0.154,-4.5,2.5,-4,-6.8,23.8,-19,0.168279061,-0.636249886,-0.12161626,-0.743003632
395,995259,1016800,0.996,-0.066,0.154,-4.5,2.5,-4,-6.8,23.8,-19,0.168279061,-0.636249886,-0.12161626,-0.743003632
396,997550,1016810,0.996,-0.066,0.154,-4.5,2.5,-4,-6.8,23.8,-19,0.168279061,-0.636249886,-0.12161626,-0.743003632
397,999069,1016810,0.996,-0.066,0.154,-4.5,2.5,-4,-6.8,23.8,-19,0.168279061,-0.636249886,-0.12161626,-0.743003632
398,1002872,1016810,0.996,-0.066,0.154,-4.5,2.5,-4,-6.8,23.8,-19,0.168279061,-0.636249886,-0.12161626,-0.743003632
399,1005190,1016810,0.996,-0.066,0.154,-4.5,2.5,-4,-6.8,23.8,-19,0.168279061,-0.636249886,-0.12161626,-0.743003632
400,1006609,1016820,0.996,-0.066,0.154,-4.5,2.5,-4,-6.8,23.8,-19,0.168279061,-0.636249886,-0.12161626,-0.743003632
401,1009596,1016820,0.996,-0.066,0.154,-4.5,2.5,-4,-6.8,23.8,-19,0.168279061,-0.636249886,-0.12161626,-0.743003632
402,1011726,1016820,0.996,-0.066,0.154,-4.5,2.5,-4,-6.8,23.8,-19,0.168279061,-0.636249886,-0.12161626,-0.743003632
403,1015110,1016820,0.996,-0.066,0.154,-4.5,2.5,-4,-6.8,23.8,-19,0.168279061,-0.636249886,-0.12161626,-0.743003632
404,1017507,1016830,0.996,-0.066,0.154,-4.5,2.5,-4,-6.8,23.8,-19,0.168279061,-0.636249886,-0.12161626,-0.743003632
405,1019765,1016830,0.996,-0.066,0.154,-4.5,2.5,-4,-6.8,23.8,-19,0.168279061,-0.636249886,-0.12161626,-0.743003632
406,1021574,1016830,0.996,-0.066,0.154,-4.5,2.5,-4,-6.8,23.8,-19,0.168279061,-0.636249886,-0.12161626,-0.743003632
407,1024565,1016830,0.996,-0.066,0.154,-4.5,2.5,-4,-6.8,23.8,-19,0.168279061,-0.636249886,-0.12161626,-0.743003632
408,1026837,1016840,0.996,-0.066,0.154,-4.5,2.5,-4,-6.8,23.8,-19,0.168279061,-0.636249886,-0.12161626,-0.743003632
409,1030109,1016840,0.996,-0.066,0.154,-4.5,2.5,-4,-6.8,23.8,-19,0.168279061,-0.636249886,-0.12161626,-0.743003632
410,1032148,1016840,0.996,-0.066,0.154,-4.5,2.5,-4,-6.8,23.8,-19,0.168279061,-0.636249886,-0.12161626,-0.743003632
411,1034293,1016840,0.996,-0.066,0.154,-4.5,2.5,-4,-6.8,23.8,-19,0.168279061,-0.636249886,-0.12161626,-0.743003632
412,1037511,1016850,0.996,-0.066,0.154,-4.5,2.5,-4,-6.8,23.8,-19,0.168279061,-0.636249886,-0.12161626,-0.743003632
413,1039026,1016850,0.996,-0.066,0.154,-4.5,2.5,-4,-6.8,23.8,-19,0.168279061,-0.636249886,-0.12161626,-0.743003632
414,1042123,1016850,0.996,-0.066,0.154,-4.5,2.5,-4,-6.8,23.8,-19,0.168279061,-0.636249886,-0.12161626,-0.743003632
415,1044536,1016850,0.996,-0.066,0.154,-4.5,2.5,-4,-6.8,23.8,-19,0.168279061,-0.636249886,-0.12161626,-0.743003632
416,1046810,1016860,0.996,-0.066,0.154,-4.5,2.5,-4,-6.8,23.8,-19,0.168279061,-0.636249886,-0.12161626,-0.743003632
417,1050032,1016860,0.996,-0.066,0.154,-4.5,2.5,-4,-6.8,23.8,-19,0.168279061,-0.636249886,-0.12161626,-0.743003632
418,1052113,1016860,0.996,-0.066,0.154,-4.5,2.5,-4,-6.8,23.8,-19,0.168279061,-0.636249886,-0.12161626,-0.743003632
419,1054249,1016860,0.996,-0.066,0.154,-4.5,2.5,-4,-6.8,23.8,-19,0.168279061,-0.636249886,-0.12161626,-0.743003632
420,1057454,1016870,0.996,-0.066,0.154,-4.5,2.5,-4,-6.8,23.8,-19,0.168279061,-0.636249886,-0.12161626,-0.743003632
421,1060399,1016870,0.996,-0.066,0.154,-4.5,2.5,-4,-6.8,23.8,-19,0.168279061,-0.636249886,-0.12161626,-0.743003632
422,1061680,1016870,0.996,-0.066,0.154,-4.5,2.5,-4,-6.8,23.8,-19,0.168279061,-0.636249886,-0.12161626,-0.743003632
423,1064924,1016870,0.996,-0.066,0.154,-4.5,2.5,-4,-6.8,23.8,-19,0.168279061,-0.636249886,-0.12161626,-0.743003632
424,1067700,1016880,0.996,-0.066,0.154,-4.5,2.5,-4,-6.8,23.8,-19,0.168279061,-0.636249886,-0.12161626,-0.743003632
425,1069230,1016880,0.996,-0.066,0.154,-4.5,2.5,-4,-6.8,23.8,-19,0.168279061,-0.636249886,-0.12161626,-0.743003632
426,1072390,1016880,0.996,-0.066,0.154,-4.5,2.5,-4,-6.8,23.8,-19,0.168279061,-0.636249886,-0.12161626,-0.743003632
427,1074341,1016880,0.996,-0.066,0.154,-4.5,2.5,-4,-6.8,23.8,-19,0.168279061,-0.636249886,-0.12161626,-0.743003632
428,1077496,1016890,0.996,-0.066,0.154,-4.5,2.5,-4,-6.8,23.8,-19,0.168279061,-0.636249886,-0.12161626,-0.743003632
429,1080316,1016890,0.996,-0.066,0.154,-4.5,2.5,-4,-6.8,23.8,-19,0.168279061,-0.636249886,-0.12161626,-0.743003632
430,1081673,1016890,0.996,-0.066,0.154,-4.5,2.5,-4,-6.8,23.8,-19,0.168279061,-0.636249886,-0.12161626,-0.743003632
431,1084890,1016890,0.996,-0.066,0.154,-4.5,2.5,-4,-6.8,23.8,-19,0.168279061,-0.636249886,-0.12161626,-0.743003632
432,1086985,1016900,0.996,-0.066,0.154,-4.5,2.5,-4,-6.8,23.8,-19,0.168279061,-0.636249886,-0.12161626,-0.743003632
433,1090459,1016900,0.996,-0.066,0.154,-4.5,2.5,-4,-6.8,23.8,-19,0.168279061,-0.636249886,-0.12161626,-0.743003632
434,1092682,1016900,0.996,-0.066,0.154,-4.5,2.5,-4,-6.8,23.8,-19,0.168279061,-0.636249886,-0.12161626,-0.743003632
435,1094035,1016900,0.996,-0.066,0.154,-4.5,2.5,-4,-6.8,23.8,-19,0.168279061,-0.636249886,-0.12161626,-0.743003632
436,1097178,1016910,0.996,-0.066,0.154,-4.5,2.5,-4,-6.8,23.8,-19,0.168279061,-0.636249886,-0.12161626,-0.743003632
437,1099316,1016910,0.996,-0.066,0.154,-4.5,2.5,-4,-6.8,23.8,-19,0.168279061,-0.636249886,-0.12161626,-0.743003632
438,1102067,1016910,0.996,-0.066,0.154,-4.5,2.5,-4,-6.8,23.8,-19,0.168279061,-0.636249886,-0.12161626,-0.743003632
439,1104416,1016910,0.996,-0.066,0.154,-4.5,2.5,-4,-6.8,23.8,-19,0.168279061,-0.636249886,-0.12161626,-0.743003632
440,1108819,1016920,0.996,-0.066,0.154,-4.5,2.5,-4,-6.8,23.8,-19,0.168279061,-0.636249886,-0.12161626,-0.743003632
441,1109207,1016920,0.996,-0.066,0.154,-4.5,2.5,-4,-6.8,23.8,-19,0.168279061,-0.636249886,-0.12161626,-0.743003632
442,1111659,1016920,0.996,-0.066,0.154,-4.5,2.5,-4,-6.8,23.8,-19,0.168279061,-0.636249886,-0.12161626,-0.743003632
443,1116155,1016920,0.996,-0.066,0.154,-4.5,2.5,-4,-6.8,23.8,-19,0.168279061,-0.636249886,-0.12161626,-0.743003632
444,1118366,1016930,0.996,-0.066,0.154,-4.5,2.5,-4,-6.8,23.8,-19,0.168279061,-0.636249886,-0.12161626,-0.743003632
445,1120478,1016930,0.996,-0.066,0.154,-4.5,2.5,-4,-6.8,23.8,-19,0.168279061,-0.636249886,-0.12161626,-0.743003632
446,1122802,1016930,0.996,-0.066,0.154,-4.5,2.5,-4,-6.8,23.8,-19,0.168279061,-0.636249886,-0.12161626,-0.743003632
447,1124722,1016930,0.996,-0.066,0.154,-4.5,2.5,-4,-6.8,23.8,-19,0.168279061,-0.636249886,-0.12161626,-0.743003632
448,1127055,1016940,0.996,-0.066,0.154,-4.5,2.5,-4,-6.8,23.8,-19,0.168279061,-0.636249886,-0.12161626,-0.743003632
449,1129038,1016940,0.996,-0.066,0.154,-4.5,2.5,-4,-6.8,23.8,-19,0.168279061,-0.636249886,-0.12161626,-0.743003632
450,1132820,1016940,0.996,-0.066,0.154,-4.5,2.5,-4,-6.8,23.8,-19,0.168279061,-0.636249886,-0.12161626,-0.743003632
451,1134760,1016940,0.996,-0.066,0.154,-4.5,2.5,-4,-6.8,23.8,-19,0.168279061,-0.636249886,-0.12161626,-0.743003632
452,1138087,1016950,0.996,-0.066,0.154,-4.5,2.5,-4,-6.8,23.8,-19,0.168279061,-0.636249886,-0.12161626,-0.743003632
453,1140343,1016950,0.996,-0.066,0.154,-4.5,2.5,-4,-6.8,23.8,-19,0.168279061,-0.636249886,-0.12161626,-0.743003632
454,1142430,1016950,0.996,-0.066,0.154,-4.5,2.5,-4,-6.8,23.8,-19,0.168279061,-0.636249886,-0.12161626,-0.743003632
455,1144229,1016950,0.996,-0.066,0.154,-4.5,2.5,-4,-6.8,23.8,-19,0.168279061,-0.636249886,-0.12161626,-0.743003632
456,1148328,1016960,0.996,-0.066,0.154,-4.5,2.5,-4,-6.8,23.8,-19,0.168279061,-0.636249886,-0.12161626,-0.743003632
457,1150638,1016960,0.996,-0.066,0.154,-4.5,2.5,-4,-6.8,23.8,-19,0.168279061,-0.636249886,-0.12161626,-0.743003632
458,1152891,1016960,0.996,-0.066,0.154,-4.5,2.5,-4,-6.8,23.8,-19,0.168279061,-0.636249886,-0.12161626,-0.743003632
459,1155080,1016960,0.996,-0.066,0.154,-4.5,2.5,-4,-6.8,23.8,-19,0.168279061,-0.636249886,-0.12161626,-0.743003632
460,1157098,1016970,0.996,-0.066,0.154,-4.5,2.5,-4,-6.8,23.8,-19,0.168279061,-0.636249886,-0.12161626,-0.743003632
461,1159324,1016970,0.996,-0.066,0.154,-4.5,2.5,-4,-6.8,23.8,-19,0.168279061,-0.636249886,-0.12161626,-0.743003632
462,1162770,1016970,0.996,-0.066,0.154,-4.5,2.5,-4,-6.8,23.8,-19,0.168279061,-0.636249886,-0.12161626,-0.743003632
463,1164708,1016970,0.996,-0.066,0.154,-4.5,2.5,-4,-6.8,23.8,-19,0.168279061,-0.636249886,-0.12161626,-0.743003632
464,1166918,1016980,0.996,-0.066,0.154,-4.5,2.5,-4,-6.8,23.8,-19,0.168279061,-0.636249886,-0.12161626,-0.743003632
465,1169232,1016980,0.996,-0.066,0.154,-4.5,2.5,-4,-6.8,23.8,-19,0.168279061,-0.636249886,-0.12161626,-0.743003632
466,1171720,1016980,0.996,-0.066,0.154,-4.5,2.5,-4,-6.8,23.8,-19,0.168279061,-0.636249886,-0.12161626,-0.743003632
467,1174003,1016980,0.996,-0.066,0.154,-4.5,2.5,-4,-6.8,23.8,-19,0.168279061,-0.636249886,-0.12161626,-0.743003632
468,1178026,1016990,0.996,-0.066,0.154,-4.5,2.5,-4,-6.8,23.8,-19,0.168279061,-0.636249886,-0.12161626,-0.743003632
469,1180109,1016990,0.996,-0.066,0.154,-4.5,2.5,-4,-6.8,23.8,-19,0.168279061,-0.636249886,-0.12161626,-0.743003632
470,1181722,1016990,0.965,0.016,0.134,-1.3,-1.4,1,-7.2,23.9,-18.5,0.166386914,-0.634632405,-0.120334483,-0.744987335
471,1184233,1016990,0.965,0.016,0.134,-1.3,-1.4,1,-7.2,23.9,-18.5,0.166386914,-0.634632405,-0.120334483,-0.744987335
472,1188062,1017000,0.965,0.016,0.134,-1.3,-1.4,1,-7.2,23.9,-18.5,0.166386914,-0.634632405,-0.120334483,-0.744987335
473,1189968,1017000,0.965,0.016,0.134,-1.3,-1.4,1,-7.2,23.9,-18.5,0.166386914,-0.634632405,-0.120334483,-0.744987335
474,1191714,1017000,0.965,0.016,0.134,-1.3,-1.4,1,-7.2,23.9,-18.5,0.166386914,-0.634632405,-0.120334483,-0.744987335
475,1193968,1017000,0.965,0.016,0.134,-1.3,-1.4,1,-7.2,23.9,-18.5,0.166386914,-0.634632405,-0.120334483,-0.744987335
476,1197645,1017010,0.965,0.016,0.134,-1.3,-1.4,1,-7.2,23.9,-18.5,0.166386914,-0.634632405,-0.120334483,-0.744987335
477,1199037,1017010,0.989,0.031,0.13,-4.1,-1.5,1.1,-7.2,23.9,-18.6,0.166203803,-0.63493759,-0.119937742,-0.744834742
478,1202025,1017010,0.989,0.031,0.13,-4.1,-1.5,1.1,-7.2,23.9,-18.6,0.166203803,-0.63493759,-0.119937742,-0.744834742
479,1204269,1017010,0.989,0.031,0.13,-4.1,-1.5,1.1,-7.2,23.9,-18.6,0.166203803,-0.63493759,-0.119937742,-0.744834742
480,1207527,1017020,0.989,0.031,0.13,-4.1,-1.5,1.1,-7.2,23.9,-18.6,0.166203803,-0.63493759,-0.119937742,-0.744834742
481,1209561,1017020,0.989,0.031,0.13,-4.1,-1.5,1.1,-7.2,23.9,-18.6,0.166203803,-0.63493759,-0.119937742,-0.744834742
482,1211876,1017020,0.989,0.031,0.13,-4.1,-1.5,1.1,-7.2,23.9,-18.6,0.166203803,-0.63493759,-0.119937742,-0.744834742
483,1214934,1017020,0.989,0.031,0.13,-4.1,-1.5,1.1,-7.2,23.9,-18.6,0.166203803,-0.63493759,-0.119937742,-0.744834742
484,1216414,1017030,0.989,0.031,0.13,-4.1,-1.5,1.1,-7.2,23.9,-18.6,0.166203803,-0.63493759,-0.119937742,-0.744834742
485,1220218,1017030,0.989,0.031,0.13,-4.1,-1.5,1.1,-7.2,23.9,-18.6,0.166203803,-0.63493759,-0.119937742,-0.744834742
486,1222505,1017030,0.989,0.031,0.13,-4.1,-1.5,1.1,-7.2,23.9,-18.6,0.166203803,-0.63493759,-0.119937742,-0.744834742
487,1224543,1017030,0.989,0.031,0.13,-4.1,-1.5,1.1,-7.2,23.9,-18.6,0.166203803,-0.63493759,-0.119937742,-0.744834742
488,1226753,1017040,0.989,0.031,0.13,-4.1,-1.5,1.1,-7.2,23.9,-18.6,0.166203803,-0.63493759,-0.119937742,-0.744834742
489,1229909,1017040,0.989,0.031,0.13,-4.1,-1.5,1.1,-7.2,23.9,-18.6,0.166203803,-0.63493759,-0.119937742,-0.744834742
490,1232777,1017040,0.989,0.031,0.13,-4.1,-1.5,1.1,-7.2,23.9,-18.6,0.166203803,-0.63493759,-0.119937742,-0.744834742
491,1234932,1017040,0.989,0.031,0.13,-4.1,-1.5,1.1,-7.2,23.9,-18.6,0.166203803,-0.63493759,-0.119937742,-0.744834742
492,1237754,1017050,0.989,0.031,0.13,-4.1,-1.5,1.1,-7.2,23.9,-18.6,0.166203803,-0.63493759,-0.119937742,-0.744834742
493,1239219,1017050,0.989,0.031,0.13,-4.1,-1.5,1.1,-7.2,23.9,-18.6,0.166203803,-0.63493759,-0.119937742,-0.744834742
494,1242215,1017050,0.989,0.031,0.13,-4.1,-1.5,1.1,-7.2,23.9,-18.6,0.166203803,-0.63493759,-0.119937742,-0.744834742
495,1244374,1017050,0.989,0.031,0.13,-4.1,-1.5,1.1,-7.2,23.9,-18.6,0.166203803,-0.63493759,-0.119937742,-0.744834742
496,1247691,1017060,0.989,0.031,0.13,-4.1,-1.5,1.1,-7.2,23.9,-18.6,0.166203803,-0.63493759,-0.119937742,-0.744834742
497,1249107,1017060,0.989,0.031,0.13,-4.1,-1.5,1.1,-7.2,23.9,-18.6,0.166203803,-0.63493759,-0.119937742,-0.744834742
498,1252391,1017060,0.989,0.031,0.13,-4.1,-1.5,1.1,-7.2,23.9,-18.6,0.166203803,-0.63493759,-0.119937742,-0.744834742
499,1255356,1017060,0.989,0.031,0.13,-4.1,-1.5,1.1,-7.2,23.9,-18.6,0.166203803,-0.63493759,-0.119937742,-0.744834742
500,1257519,1017070,0.989,0.031,0.13,-4.1,-1.5,1.1,-7.2,23.9,-18.6,0.166203803,-0.63493759,-0.119937742,-0.744834742
501,1259015,1017070,0.989,0.031,0.13,-4.1,-1.5,1.1,-7.2,23.9,-18.6,0.166203803,-0.63493759,-0.119937742,-0.744834742
502,1261979,1017070,0.989,0.031,0.13,-4.1,-1.5,1.1,-7.2,23.9,-18.6,0.166203803,-0.63493759,-0.119937742,-0.744834742
503,1265080,1017070,0.989,0.031,0.13,-4.1,-1.5,1.1,-7.2,23.9,-18.6,0.166203803,-0.63493759,-0.119937742,-0.744834742
504,1266542,1017080,0.989,0.031,0.13,-4.1,-1.5,1.1,-7.2,23.9,-18.6,0.166203803,-0.63493759,-0.119937742,-0.744834742
505,1269681,1017080,0.989,0.031,0.13,-4.1,-1.5,1.1,-7.2,23.9,-18.6,0.166203803,-0.63493759,-0.119937742,-0.744834742
506,1273078,1017080,0.989,0.031,0.13,-4.1,-1.5,1.1,-7.2,23.9,-18.6,0.166203803,-0.63493759,-0.119937742,-0.744834742
507,1275274,1017080,0.989,0.031,0.13,-4.1,-1.5,1.1,-7.2,23.9,-18.6,0.166203803,-0.63493759,-0.119937742,-0.744834742
508,1277036,1017090,0.989,0.031,0.13,-4.1,-1.5,1.1,-7.2,23.9,-18.6,0.166203803,-0.63493759,-0.119937742,-0.744834742
509,1279112,1017090,0.989,0.031,0.13,-4.1,-1.5,1.1,-7.2,23.9,-18.6,0.166203803,-0.63493759,-0.119937742,-0.744834742
510,1282627,1017090,0.989,0.031,0.13,-4.1,-1.5,1.1,-7.2,23.9,-18.6,0.166203803,-0.63493759,-0.119937742,-0.744834742
511,1284458,1017090,0.989,0.031,0.13,-4.1,-1.5,1.1,-7.2,23.9,-18.6,0.166203803,-0.63493759,-0.119937742,-0.744834742
512,1287763,1017100,0.989,0.031,0.13,-4.1,-1.5,1.1,-7.2,23.9,-18.6,0.166203803,-0.63493759,-0.119937742,-0.744834742
513,1290148,1017100,0.989,0.031,0.13,-4.1,-1.5,1.1,-7.2,23.9,-18.6,0.166203803,-0.63493759,-0.119937742,-0.744834742
514,1291700,1017100,0.989,0.031,0.13,-4.1,-1.5,1.1,-7.2,23.9,-18.6,0.166203803,-0.63493759,-0.119937742,-0.744834742
515,1295222,1017100,0.989,0.031,0.13,-4.1,-1.5,1.1,-7.2,23.9,-18.6,0.166203803,-0.63493759,-0.119937742,-0.744834742
516,1297803,1017110,0.989,0.031,0.13,-4.1,-1.5,1.1,-7.2,23.9,-18.6,0.166203803,-0.63493759,-0.119937742,-0.744834742
517,1299495,1017110,0.989,0.031,0.13,-4.1,-1.5,1.1,-7.2,23.9,-18.6,0.166203803,-0.63493759,-0.119937742,-0.744834742
518,1303677,1017110,0.989,0.031,0.13,-4.1,-1.5,1.1,-7.2,23.9,-18.6,0.166203803,-0.63493759,-0.119937742,-0.744834742
519,1306054,1017110,0.989,0.031,0.13,-4.1,-1.5,1.1,-7.2,23.9,-18.6,0.166203803,-0.63493759,-0.119937742,-0.744834742
520,1308376,1017120,0.989,0.031,0.13,-4.1,-1.5,1.1,-7.2,23.9,-18.6,0.166203803,-0.63493759,-0.119937742,-0.744834742
521,1310460,1017120,0.989,0.031,0.13,-4.1,-1.5,1.1,-7.2,23.9,-18.6,0.166203803,-0.63493759,-0.119937742,-0.744834742
522,1312665,1017120,0.989,0.031,0.13,-4.1,-1.5,1.1,-7.2,23.9,-18.6,0.166203803,-0.63493759,-0.119937742,-0.744834742
523,1314526,1017120,0.989,0.031,0.13,-4.1,-1.5,1.1,-7.2,23.9,-18.6,0.166203803,-0.63493759,-0.119937742,-0.744834742
524,1316773,1017130,0.989,0.031,0.13,-4.1,-1.5,1.1,-7.2,23.9,-18.6,0.166203803,-0.63493759,-0.119937742,-0.744834742
525,1319197,1017130,0.989,0.031,0.13,-4.1,-1.5,1.1,-7.2,23.9,-18.6,0.166203803,-0.63493759,-0.119937742,-0.744834742
526,1321441,1017130,0.989,0.031,0.13,-4.1,-1.5,1.1,-7.2,23.9,-18.6,0.166203803,-0.63493759,-0.119937742,-0.744834742
527,1324974,1017130,0.989,0.031,0.13,-4.1,-1.5,1.1,-7.2,23.9,-18.6,0.166203803,-0.63493759,-0.119937742,-0.744834742
528,1327977,1017140,0.989,0.031,0.13,-4.1,-1.5,1.1,-7.2,23.9,-18.6,0.166203803,-0.63493759,-0.119937742,-0.744834742
529,1329155,1017140,0.989,0.031,0.13,-4.1,-1.5,1.1,-7.2,23.9,-18.6,0.166203803,-0.63493759,-0.119937742,-0.744834742
530,1331956,1017140,0.989,0.031,0.13,-4.1,-1.5,1.1,-7.2,23.9,-18.6,0.166203803,-0.63493759,-0.119937742,-0.744834742
531,1335102,1017140,0.989,0.031,0.13,-4.1,-1.5,1.1,-7.2,23.9,-18.6,0.166203803,-0.63493759,-0.119937742,-0.744834742
532,1336721,1017150,0.989,0.031,0.13,-4.1,-1.5,1.1,-7.2,23.9,-18.6,0.166203803,-0.63493759,-0.119937742,-0.744834742
533,1340352,1017150,0.989,0.031,0.13,-4.1,-1.5,1.1,-7.2,23.9,-18.6,0.166203803,-0.63493759,-0.119937742,-0.744834742
534,1342057,1017150,0.989,0.031,0.13,-4.1,-1.5,1.1,-7.2,23.9,-18.6,0.166203803,-0.63493759,-0.119937742,-0.744834742
535,1343983,1017150,0.989,0.031,0.13,-4.1,-1.5,1.1,-7.2,23.9,-18.6,0.166203803,-0.63493759,-0.119937742,-0.744834742
536,1346929,1017160,0.989,0.031,0.13,-4.1,-1.5,1.1,-7.2,23.9,-18.6,0.166203803,-0.63493759,-0.119937742,-0.744834742
537,1349584,1017160,0.989,0.031,0.13,-4.1,-1.5,1.1,-7.2,23.9,-18.6,0.166203803,-0.63493759,-0.119937742,-0.744834742
538,1352753,1017160,0.989,0.031,0.13,-4.1,-1.5,1.1,-7.2,23.9,-18.6,0.166203803,-0.63493759,-0.119937742,-0.744834742
539,1354113,1017160,0.989,0.031,0.13,-4.1,-1.5,1.1,-7.2,23.9,-18.6,0.166203803,-0.63493759,-0.119937742,-0.744834742
540,1357159,1017170,0.989,0.031,0.13,-4.1,-1.5,1.1,-7.2,23.9,-18.6,0.166203803,-0.63493759,-0.119937742,-0.744834742
541,1359471,1017170,0.989,0.031,0.13,-4.1,-1.5,1.1,-7.2,23.9,-18.6,0.166203803,-0.63493759,-0.119937742,-0.744834742
542,1361919,1017170,0.989,0.031,0.13,-4.1,-1.5,1.1,-7.2,23.9,-18.6,0.166203803,-0.63493759,-0.119937742,-0.744834742
543,1364165,1017170,0.989,0.031,0.13,-4.1,-1.5,1.1,-7.2,23.9,-18.6,0.166203803,-0.63493759,-0.119937742,-0.744834742
544,1366566,1017180,0.989,0.031,0.13,-4.1,-1.5,1.1,-7.2,23.9,-18.6,0.166203803,-0.63493759,-0.119937742,-0.744834742
545,1368969,1017180,0.989,0.031,0.13,-4.1,-1.5,1.1,-7.2,23.9,-18.6,0.166203803,-0.63493759,-0.119937742,-0.744834742
546,1372755,1017180,0.989,0.031,0.13,-4.1,-1.5,1.1,-7.2,23.9,-18.6,0.166203803,-0.63493759,-0.119937742,-0.744834742
547,1374367,1017180,0.989,0.031,0.13,-4.1,-1.5,1.1,-7.2,23.9,-18.6,0.166203803,-0.63493759,-0.119937742,-0.744834742
548,1376900,1017190,0.989,0.031,0.13,-4.1,-1.5,1.1,-7.2,23.9,-18.6,0.166203803,-0.63493759,-0.119937742,-0.744834742
549,1380577,1017190,0.989,0.031,0.13,-4.1,-1.5,1.1,-7.2,23.9,-18.6,0.166203803,-0.63493759,-0.119937742,-0.744834742
550,1382502,1017190,0.989,0.031,0.13,-4.1,-1.5,1.1,-7.2,23.9,-18.6,0.166203803,-0.63493759,-0.119937742,-0.744834742
551,1383979,1017190,0.989,0.031,0.13,-4.1,-1.5,1.1,-7.2,23.9,-18.6,0.166203803,-0.63493759,-0.119937742,-0.744834742
552,1387053,1017200,0.989,0.031,0.13,-4.1,-1.5,1.1,-7.2,23.9,-18.6,0.166203803,-0.63493759,-0.119937742,-0.744834742
553,1389494,1017200,0.989,0.031,0.13,-4.1,-1.5,1.1,-7.2,23.9,-18.6,0.166203803,-0.63493759,-0.119937742,-0.744834742
554,1391658,1017200,0.989,0.031,0.13,-4.1,-1.5,1.1,-7.2,23.9,-18.6,0.166203803,-0.63493759,-0.119937742,-0.744834742
555,1395758,1017200,0.989,0.031,0.13,-4.1,-1.5,1.1,-7.2,23.9,-18.6,0.166203803,-0.63493759,-0.119937742,-0.744834742
556,1397866,1017210,0.989,0.031,0.13,-4.1,-1.5,1.1,-7.2,23.9,-18.6,0.166203803,-0.63493759,-0.119937742,-0.744834742
557,1400286,1017210,0.989,0.031,0.13,-4.1,-1.5,1.1,-7.2,23.9,-18.6,0.166203803,-0.63493759,-0.119937742,-0.744834742
558,1402177,1017210,0.989,0.031,0.13,-4.1,-1.5,1.1,-7.2,23.9,-18.6,0.166203803,-0.63493759,-0.119937742,-0.744834742
559,1404422,1017210,0.989,0.031,0.13,-4.1,-1.5,1.1,-7.2,23.9,-18.6,0.166203803,-0.63493759,-0.119937742,-0.744834742
560,1406614,1017220,0.989,0.031,0.13,-4.1,-1.5,1.1,-7.2,23.9,-18.6,0.166203803,-0.63493759,-0.119937742,-0.744834742
561,1409690,1017220,0.989,0.031,0.13,-4.1,-1.5,1.1,-7.2,23.9,-18.6,0.166203803,-0.63493759,-0.119937742,-0.744834742
562,1411970,1017220,0.989,0.031,0.13,-4.1,-1.5,1.1,-7.2,23.9,-18.6,0.166203803,-0.63493759,-0.119937742,-0.744834742
563,1414424,1017220,0.989,0.031,0.13,-4.1,-1.5,1.1,-7.2,23.9,-18.6,0.166203803,-0.63493759,-0.119937742,-0.744834742
564,1416710,1017230,0.989,0.031,0.13,-4.1,-1.5,1.1,-7.2,23.9,-18.6,0.166203803,-0.63493759,-0.119937742,-0.744834742
565,1421027,1017230,0.989,0.031,0.13,-4.1,-1.5,1.1,-7.2,23.9,-18.6,0.166203803,-0.63493759,-0.119937742,-0.744834742
566,1423096,1017230,0.989,0.031,0.13,-4.1,-1.5,1.1,-7.2,23.9,-18.6,0.166203803,-0.63493759,-0.119937742,-0.744834742
567,1426024,1017230,1.004,-0.015,0.048,-62.4,-5,-14.4,-6.5,25.6,-16,0.118228706,-0.648945585,-0.0848719749,-0.746757408
568,1426543,1017240,1.004,-0.015,0.048,-62.4,-5,-14.4,-6.5,25.6,-16,0.118228706,-0.648945585,-0.0848719749,-0.746757408
569,1430424,1017240,1.004,-0.015,0.048,-62.4,-5,-14.4,-6.5,25.6,-16,0.118228706,-0.648945585,-0.0848719749,-0.746757408
570,1432570,1017240,1.004,-0.015,0.048,-62.4,-5,-14.4,-6.5,25.6,-16,0.118228706,-0.648945585,-0.0848719749,-0.746757408
571,1434580,1017240,1.004,-0.015,0.048,-62.4,-5,-14.4,-6.5,25.6,-16,0.118228706,-0.648945585,-0.0848719749,-0.746757408
572,1436701,1017250,1.004,-0.015,0.048,-62.4,-5,-14.4,-6.5,25.6,-16,0.118228706,-0.648945585,-0.0848719749,-0.746757408
573,1440085,1017250,1.004,-0.015,0.048,-62.4,-5,-14.4,-6.5,25.6,-16,0.118228706,-0.648945585,-0.0848719749,-0.746757408
574,1441591,1017250,1.004,-0.015,0.048,-62.4,-5,-14.4,-6.5,25.6,-16,0.118228706,-0.648945585,-0.0848719749,-0.746757408
575,1445114,1017250,1.004,-0.015,0.048,-62.4,-5,-14.4,-6.5,25.6,-16,0.118228706,-0.648945585,-0.0848719749,-0.746757408
576,1448377,1017260,1.004,-0.015,0.048,-62.4,-5,-14.4,-6.5,25.6,-16,0.118228706,-0.648945585,-0.0848719749,-0.746757408
577,1450244,1017260,1.043,-0.106,0.082,-74.3,-7.6,-15.9,-6.9,25.5,-15.7,0.105807672,-0.651356548,-0.0759300516,-0.747459334
578,1452421,1017260,1.043,-0.106,0.082,-74.3,-7.6,-15.9,-6.9,25.5,-15.7,0.105807672,-0.651356548,-0.0759300516,-0.747459334
579,1454568,1017260,1.043,-0.106,0.082,-74.3,-7.6,-15.9,-6.9,25.5,-15.7,0.105807672,-0.651356548,-0.0759300516,-0.747459334
580,1456819,1017270,1.043,-0.106,0.082,-74.3,-7.6,-15.9,-6.9,25.5,-15.7,0.105807672,-0.651356548,-0.0759300516,-0.747459334
581,1459744,1017270,1.043,-0.106,0.082,-74.3,-7.6,-15.9,-6.9,25.5,-15.7,0.105807672,-0.651356548,-0.0759300516,-0.747459334
582,1462124,1017270,1.043,-0.106,0.082,-74.3,-7.6,-15.9,-6.9,25.5,-15.7,0.105807672,-0.651356548,-0.0759300516,-0.747459334
583,1464331,1017270,1.043,-0.106,0.082,-74.3,-7.6,-15.9,-6.9,25.5,-15.7,0.105807672,-0.651356548,-0.0759300516,-0.747459334
584,1466847,1017280,1.043,-0.106,0.082,-74.3,-7.6,-15.9,-6.9,25.5,-15.7,0.105807672,-0.651356548,-0.0759300516,-0.747459334
585,1469043,1017280,1.043,-0.106,0.082,-74.3,-7.6,-15.9,-6.9,25.5,-15.7,0.105807672,-0.651356548,-0.0759300516,-0.747459334
586,1472759,1017280,1.043,-0.106,0.082,-74.3,-7.6,-15.9,-6.9,25.5,-15.7,0.105807672,-0.651356548,-0.0759300516,-0.747459334
587,1475009,1017280,1.043,-0.106,0.082,-74.3,-7.6,-15.9,-6.9,25.5,-15.7,0.105807672,-0.651356548,-0.0759300516,-0.747459334
588,1477011,1017290,1.043,-0.106,0.082,-74.3,-7.6,-15.9,-6.9,25.5,-15.7,0.105807672,-0.651356548,-0.0759300516,-0.747459334
589,1479308,1017290,1.043,-0.106,0.082,-74.3,-7.6,-15.9,-6.9,25.5,-15.7,0.105807672,-0.651356548,-0.0759300516,-0.747459334
590,1481781,1017290,1.043,-0.106,0.082,-74.3,-7.6,-15.9,-6.9,25.5,-15.7,0.105807672,-0.651356548,-0.0759300516,-0.747459334
591,1483978,1017290,1.043,-0.106,0.082,-74.3,-7.6,-15.9,-6.9,25.5,-15.7,0.105807672,-0.651356548,-0.0759300516,-0.747459334
592,1487758,1017300,1.043,-0.106,0.082,-74.3,-7.6,-15.9,-6.9,25.5,-15.7,0.105807672,-0.651356548,-0.0759300516,-0.747459334
593,1490067,1017300,1.043,-0.106,0.082,-74.3,-7.6,-15.9,-6.9,25.5,-15.7,0.105807672,-0.651356548,-0.0759300516,-0.747459334
594,1492009,1017300,1.043,-0.106,0.082,-74.3,-7.6,-15.9,-6.9,25.5,-15.7,0.105807672,-0.651356548,-0.0759300516,-0.747459334
595,1494325,1017300,1.043,-0.106,0.082,-74.3,-7.6,-15.9,-6.9,25.5,-15.7,0.105807672,-0.651356548,-0.0759300516,-0.747459334
596,1496657,1017310,1.043,-0.106,0.082,-74.3,-7.6,-15.9,-6.9,25.5,-15.7,0.105807672,-0.651356548,-0.0759300516,-0.747459334
597,1498967,1017310,1.043,-0.106,0.082,-74.3,-7.6,-15.9,-6.9,25.5,-15.7,0.105807672,-0.651356548,-0.0759300516,-0.747459334
598,1502657,1017310,1.043,-0.106,0.082,-74.3,-7.6,-15.9,-6.9,25.5,-15.7,0.105807672,-0.651356548,-0.0759300516,-0.747459334
599,1504914,1017310,1.043,-0.106,0.082,-74.3,-7.6,-15.9,-6.9,25.5,-15.7,0.105807672,-0.651356548,-0.0759300516,-0.747459334
600,1507071,1017320,1.043,-0.106,0.082,-74.3,-7.6,-15.9,-6.9,25.5,-15.7,0.105807672,-0.651356548,-0.0759300516,-0.747459334
601,1509263,1017320,1.043,-0.106,0.082,-74.3,-7.6,-15.9,-6.9,25.5,-15.7,0.105807672,-0.651356548,-0.0759300516,-0.747459334
602,1512212,1017320,1.043,-0.106,0.082,-74.3,-7.6,-15.9,-6.9,25.5,-15.7,0.105807672,-0.651356548,-0.0759300516,-0.747459334
603,1514507,1017320,1.043,-0.106,0.082,-74.3,-7.6,-15.9,-6.9,25.5,-15.7,0.105807672,-0.651356548,-0.0759300516,-0.747459334
604,1516797,1017330,1.043,-0.106,0.082,-74.3,-7.6,-15.9,-6.9,25.5,-15.7,0.105807672,-0.651356548,-0.0759300516,-0.747459334
605,1519654,1017330,1.043,-0.106,0.082,-74.3,-7.6,-15.9,-6.9,25.5,-15.7,0.105807672,-0.651356548,-0.0759300516,-0.747459334
606,1522738,1017330,1.043,-0.106,0.082,-74.3,-7.6,-15.9,-6.9,25.5,-15.7,0.105807672,-0.651356548,-0.0759300516,-0.747459334
607,1524191,1017330,1.043,-0.106,0.082,-74.3,-7.6,-15.9,-6.9,25.5,-15.7,0.105807672,-0.651356548,-0.0759300516,-0.747459334
608,1527378,1017340,1.043,-0.106,0.082,-74.3,-7.6,-15.9,-6.9,25.5,-15.7,0.105807672,-0.651356548,-0.0759300516,-0.747459334
609,1530350,1017340,1.043,-0.106,0.082,-74.3,-7.6,-15.9,-6.9,25.5,-15.7,0.105807672,-0.651356548,-0.0759300516,-0.747459334
610,1532654,1017340,1.043,-0.106,0.082,-74.3,-7.6,-15.9,-6.9,25.5,-15.7,0.105807672,-0.651356548,-0.0759300516,-0.747459334
611,1533960,1017340,1.043,-0.106,0.082,-74.3,-7.6,-15.9,-6.9,25.5,-15.7,0.105807672,-0.651356548,-0.0759300516,-0.747459334
612,1537909,1017350,1.043,-0.106,0.082,-74.3,-7.6,-15.9,-6.9,25.5,-15.7,0.105807672,-0.651356548,-0.0759300516,-0.747459334
613,1540170,1017350,1.043,-0.106,0.082,-74.3,-7.6,-15.9,-6.9,25.5,-15.7,0.105807672,-0.651356548,-0.0759300516,-0.747459334
614,1542154,1017350,1.043,-0.106,0.082,-74.3,-7.6,-15.9,-6.9,25.5,-15.7,0.105807672,-0.651356548,-0.0759300516,-0.747459334
615,1545390,1017350,1.043,-0.106,0.082,-74.3,-7.6,-15.9,-6.9,25.5,-15.7,0.105807672,-0.651356548,-0.0759300516,-0.747459334
616,1547624,1017360,1.043,-0.106,0.082,-74.3,-7.6,-15.9,-6.9,25.5,-15.7,0.105807672,-0.651356548,-0.0759300516,-0.747459334
617,1550397,1017360,1.043,-0.106,0.082,-74.3,-7.6,-15.9,-6.9,25.5,-15.7,0.105807672,-0.651356548,-0.0759300516,-0.747459334
618,1551865,1017360,1.026,-0.57,0.162,-11.1,38.5,-30.5,-9.2,26.9,-11.8,0.0610065004,-0.651142918,-0.0486770226,-0.754875332
619,1554947,1017360,1.026,-0.57,0.162,-11.1,38.5,-30.5,-9.2,26.9,-11.8,0.0610065004,-0.651142918,-0.0486770226,-0.754875332
620,1557666,1017370,1.026,-0.57,0.162,-11.1,38.5,-30.5,-9.2,26.9,-11.8,0.0610065004,-0.651142918,-0.0486770226,-0.754875332
621,1559267,1017370,1.026,-0.57,0.162,-11.1,38.5,-30.5,-9.2,26.9,-11.8,0.0610065004,-0.651142918,-0.0486770226,-0.754875332
622,1562355,1017370,1.026,-0.57,0.162,-11.1,38.5,-30.5,-9.2,26.9,-11.8,0.0610065004,-0.651142918,-0.0486770226,-0.754875332
623,1565218,1017370,1.026,-0.57,0.162,-11.1,38.5,-30.5,-9.2,26.9,-11.8,0.0610065004,-0.651142918,-0.0486770226,-0.754875332
624,1566729,1017380,1.026,-0.57,0.162,-11.1,38.5,-30.5,-9.2,26.9,-11.8,0.0610065004,-0.651142918,-0.0486770226,-0.754875332
625,1569900,1017380,1.026,-0.57,0.162,-11.1,38.5,-30.5,-9.2,26.9,-11.8,0.0610065004,-0.651142918,-0.0486770226,-0.754875332
626,1572861,1017380,1.026,-0.57,0.162,-11.1,38.5,-30.5,-9.2,26.9,-11.8,0.0610065004,-0.651142918,-0.0486770226,-0.754875332
627,1574304,1017380,1.026,-0.57,0.162,-11.1,38.5,-30.5,-9.2,26.9,-11.8,0.0610065004,-0.651142918,-0.0486770226,-0.754875332
628,1577097,1017390,1.026,-0.57,0.162,-11.1,38.5,-30.5,-9.2,26.9,-11.8,0.0610065004,-0.651142918,-0.0486770226,-0.754875332
629,1580228,1017390,1.026,-0.57,0.162,-11.1,38.5,-30.5,-9.2,26.9,-11.8,0.0610065004,-0.651142918,-0.0486770226,-0.754875332
630,1581742,1017390,0.939,-0.823,0.187,-16.8,4.1,-23.1,-8.9,26.8,-12.9,0.0515457625,-0.647083956,-0.0470595416,-0.759178442
631,1584800,1017390,0.939,-0.823,0.187,-16.8,4.1,-23.1,-8.9,26.8,-12.9,0.0515457625,-0.647083956,-0.0470595416,-0.759178442
632,1587825,1017400,0.939,-0.823,0.187,-16.8,4.1,-23.1,-8.9,26.8,-12.9,0.0515457625,-0.647083956,-0.0470595416,-0.759178442
633,1589246,1017400,0.939,-0.823,0.187,-16.8,4.1,-23.1,-8.9,26.8,-12.9,0.0515457625,-0.647083956,-0.0470595416,-0.759178442
634,1592343,1017400,0.939,-0.823,0.187,-16.8,4.1,-23.1,-8.9,26.8,-12.9,0.0515457625,-0.647083956,-0.0470595416,-0.759178442
635,1595333,1017400,0.939,-0.823,0.187,-16.8,4.1,-23.1,-8.9,26.8,-12.9,0.0515457625,-0.647083956,-0.0470595416,-0.759178442
636,1596747,1017410,0.939,-0.823,0.187,-16.8,4.1,-23.1,-8.9,26.8,-12.9,0.0515457625,-0.647083956,-0.0470595416,-0.759178442
637,1599851,1017410,0.939,-0.823,0.187,-16.8,4.1,-23.1,-8.9,26.8,-12.9,0.0515457625,-0.647083956,-0.0470595416,-0.759178442
638,1602661,1017410,1.005,-0.933,0.128,7.4,-1.1,-11.2,-9.2,26.8,-13.3,0.0495620594,-0.646412549,-0.0488601337,-0.759758293
639,1604088,1017410,1.005,-0.933,0.128,7.4,-1.1,-11.2,-9.2,26.8,-13.3,0.0495620594,-0.646412549,-0.0488601337,-0.759758293
640,1607135,1017420,1.005,-0.933,0.128,7.4,-1.1,-11.2,-9.2,26.8,-13.3,0.0495620594,-0.646412549,-0.0488601337,-0.759758293
641,1610363,1017420,1.005,-0.933,0.128,7.4,-1.1,-11.2,-9.2,26.8,-13.3,0.0495620594,-0.646412549,-0.0488601337,-0.759758293
642,1612422,1017420,1.005,-0.933,0.128,7.4,-1.1,-11.2,-9.2,26.8,-13.3,0.0495620594,-0.646412549,-0.0488601337,-0.759758293
643,1613901,1017420,1.005,-0.933,0.128,7.4,-1.1,-11.2,-9.2,26.8,-13.3,0.0495620594,-0.646412549,-0.0488601337,-0.759758293
644,1616878,1017430,1.005,-0.933,0.128,7.4,-1.1,-11.2,-9.2,26.8,-13.3,0.0495620594,-0.646412549,-0.0488601337,-0.759758293
645,1620035,1017430,1.005,-0.933,0.128,7.4,-1.1,-11.2,-9.2,26.8,-13.3,0.0495620594,-0.646412549,-0.0488601337,-0.759758293
646,1621400,1017430,1.005,-0.933,0.128,7.4,-1.1,-11.2,-9.2,26.8,-13.3,0.0495620594,-0.646412549,-0.0488601337,-0.759758293
647,1624389,1017430,1.005,-0.933,0.128,7.4,-1.1,-11.2,-9.2,26.8,-13.3,0.0495620594,-0.646412549,-0.0488601337,-0.759758293
648,1627510,1017440,1.005,-0.933,0.128,7.4,-1.1,-11.2,-9.2,26.8,-13.3,0.0495620594,-0.646412549,-0.0488601337,-0.759758293
649,1630374,1017440,1.005,-0.933,0.128,7.4,-1.1,-11.2,-9.2,26.8,-13.3,0.0495620594,-0.646412549,-0.0488601337,-0.759758293
650,1631868,1017440,1.005,-0.933,0.128,7.4,-1.1,-11.2,-9.2,26.8,-13.3,0.0495620594,-0.646412549,-0.0488601337,-0.759758293
651,1634931,1017440,1.005,-0.933,0.128,7.4,-1.1,-11.2,-9.2,26.8,-13.3,0.0495620594,-0.646412549,-0.0488601337,-0.759758293
652,1636505,1017450,1.005,-0.933,0.128,7.4,-1.1,-11.2,-9.2,26.8,-13.3,0.0495620594,-0.646412549,-0.0488601337,-0.759758293
653,1639421,1017450,1.005,-0.933,0.128,7.4,-1.1,-11.2,-9.2,26.8,-13.3,0.0495620594,-0.646412549,-0.0488601337,-0.759758293
654,1642388,1017450,1.005,-0.933,0.128,7.4,-1.1,-11.2,-9.2,26.8,-13.3,0.0495620594,-0.646412549,-0.0488601337,-0.759758293
655,1643909,1017450,1.005,-0.933,0.128,7.4,-1.1,-11.2,-9.2,26.8,-13.3,0.0495620594,-0.646412549,-0.0488601337,-0.759758293
656,1646863,1017460,1.005,-0.933,0.128,7.4,-1.1,-11.2,-9.2,26.8,-13.3,0.0495620594,-0.646412549,-0.0488601337,-0.759758293
657,1649952,1017460,1.005,-0.933,0.128,7.4,-1.1,-11.2,-9.2,26.8,-13.3,0.0495620594,-0.646412549,-0.0488601337,-0.759758293
658,1652865,1017460,1.005,-0.933,0.128,7.4,-1.1,-11.2,-9.2,26.8,-13.3,0.0495620594,-0.646412549,-0.0488601337,-0.759758293
659,1654363,1017460,1.005,-0.933,0.128,7.4,-1.1,-11.2,-9.2,26.8,-13.3,0.0495620594,-0.646412549,-0.0488601337,-0.759758293
660,1657474,1017470,1.005,-0.933,0.128,7.4,-1.1,-11.2,-9.2,26.8,-13.3,0.0495620594,-0.646412549,-0.0488601337,-0.759758293
661,1660296,1017470,1.005,-0.933,0.128,7.4,-1.1,-11.2,-9.2,26.8,-13.3,0.0495620594,-0.646412549,-0.0488601337,-0.759758293
662,1661833,1017470,1.005,-0.933,0.128,7.4,-1.1,-11.2,-9.2,26.8,-13.3,0.0495620594,-0.646412549,-0.0488601337,-0.759758293
663,1664992,1017470,1.005,-0.933,0.128,7.4,-1.1,-11.2,-9.2,26.8,-13.3,0.0495620594,-0.646412549,-0.0488601337,-0.759758293
664,1667887,1017480,1.005,-0.933,0.128,7.4,-1.1,-11.2,-9.2,26.8,-13.3,0.0495620594,-0.646412549,-0.0488601337,-0.759758293
665,1669375,1017480,1.005,-0.933,0.128,7.4,-1.1,-11.2,-9.2,26.8,-13.3,0.0495620594,-0.646412549,-0.0488601337,-0.759758293
666,1671578,1017480,1.005,-0.933,0.128,7.4,-1.1,-11.2,-9.2,26.8,-13.3,0.0495620594,-0.646412549,-0.0488601337,-0.759758293
667,1674495,1017480,1.005,-0.933,0.128,7.4,-1.1,-11.2,-9.2,26.8,-13.3,0.0495620594,-0.646412549,-0.0488601337,-0.759758293
668,1676944,1017490,1.005,-0.933,0.128,7.4,-1.1,-11.2,-9.2,26.8,-13.3,0.0495620594,-0.646412549,-0.0488601337,-0.759758293
669,1679960,1017490,1.005,-0.933,0.128,7.4,-1.1,-11.2,-9.2,26.8,-13.3,0.0495620594,-0.646412549,-0.0488601337,-0.759758293
670,1682856,1017490,1.005,-0.933,0.128,7.4,-1.1,-11.2,-9.2,26.8,-13.3,0.0495620594,-0.646412549,-0.0488601337,-0.759758293
671,1684233,1017490,1.005,-0.933,0.128,7.4,-1.1,-11.2,-9.2,26.8,-13.3,0.0495620594,-0.646412549,-0.0488601337,-0.759758293
672,1687428,1017500,1.005,-0.933,0.128,7.4,-1.1,-11.2,-9.2,26.8,-13.3,0.0495620594,-0.646412549,-0.0488601337,-0.759758293
673,1690415,1017500,1.005,-0.933,0.128,7.4,-1.1,-11.2,-9.2,26.8,-13.3,0.0495620594,-0.646412549,-0.0488601337,-0.759758293
674,1691908,1017500,1.005,-0.933,0.128,7.4,-1.1,-11.2,-9.2,26.8,-13.3,0.0495620594,-0.646412549,-0.0488601337,-0.759758293
675,1695449,1017500,1.005,-0.933,0.128,7.4,-1.1,-11.2,-9.2,26.8,-13.3,0.0495620594,-0.646412549,-0.0488601337,-0.759758293
676,1697809,1017510,1.005,-0.933,0.128,7.4,-1.1,-11.2,-9.2,26.8,-13.3,0.0495620594,-0.646412549,-0.0488601337,-0.759758293
677,1699500,1017510,1.005,-0.933,0.128,7.4,-1.1,-11.2,-9.2,26.8,-13.3,0.0495620594,-0.646412549,-0.0488601337,-0.759758293
678,1702673,1017510,1.005,-0.933,0.128,7.4,-1.1,-11.2,-9.2,26.8,-13.3,0.0495620594,-0.646412549,-0.0488601337,-0.759758293
679,1704888,1017510,1.005,-0.933,0.128,7.4,-1.1,-11.2,-9.2,26.8,-13.3,0.0495620594,-0.646412549,-0.0488601337,-0.759758293
680,1707752,1017520,1.005,-0.933,0.128,7.4,-1.1,-11.2,-9.2,26.8,-13.3,0.0495620594,-0.646412549,-0.0488601337,-0.759758293
681,1709130,1017520,1.005,-0.933,0.128,7.4,-1.1,-11.2,-9.2,26.8,-13.3,0.0495620594,-0.646412549,-0.0488601337,-0.759758293
682,1712164,1017520,1.005,-0.933,0.128,7.4,-1.1,-11.2,-9.2,26.8,-13.3,0.0495620594,-0.646412549,-0.0488601337,-0.759758293
683,1715267,1017520,1.005,-0.933,0.128,7.4,-1.1,-11.2,-9.2,26.8,-13.3,0.0495620594,-0.646412549,-0.0488601337,-0.759758293
684,1716685,1017530,1.005,-0.933,0.128,7.4,-1.1,-11.2,-9.2,26.8,-13.3,0.0495620594,-0.646412549,-0.0488601337,-0.759758293
685,1719896,1017530,1.005,-0.933,0.128,7.4,-1.1,-11.2,-9.2,26.8,-13.3,0.0495620594,-0.646412549,-0.0488601337,-0.759758293
686,1723039,1017530,1.005,-0.933,0.128,7.4,-1.1,-11.2,-9.2,26.8,-13.3,0.0495620594,-0.646412549,-0.0488601337,-0.759758293
687,1725441,1017530,1.005,-0.933,0.128,7.4,-1.1,-11.2,-9.2,26.8,-13.3,0.0495620594,-0.646412549,-0.0488601337,-0.759758293
688,1727328,1017540,1.005,-0.933,0.128,7.4,-1.1,-11.2,-9.2,26.8,-13.3,0.0495620594,-0.646412549,-0.0488601337,-0.759758293
689,1729441,1017540,1.005,-0.933,0.128,7.4,-1.1,-11.2,-9.2,26.8,-13.3,0.0495620594,-0.646412549,-0.0488601337,-0.759758293
690,1732642,1017540,1.005,-0.933,0.128,7.4,-1.1,-11.2,-9.2,26.8,-13.3,0.0495620594,-0.646412549,-0.0488601337,-0.759758293
691,1734039,1017540,1.005,-0.933,0.128,7.4,-1.1,-11.2,-9.2,26.8,-13.3,0.0495620594,-0.646412549,-0.0488601337,-0.759758293
692,1738360,1017550,1.005,-0.933,0.128,7.4,-1.1,-11.2,-9.2,26.8,-13.3,0.0495620594,-0.646412549,-0.0488601337,-0.759758293
693,1740556,1017550,1.164,-0.426,-0.298,283.8,60.8,160,-5.2,21.6,-22.4,0.223334452,-0.598162786,-0.145268105,-0.755760369
694,1742748,1017550,1.164,-0.426,-0.298,283.8,60.8,160,-5.2,21.6,-22.4,0.223334452,-0.598162786,-0.145268105,-0.755760369
695,1744922,1017550,1.164,-0.426,-0.298,283.8,60.8,160,-5.2,21.6,-22.4,0.223334452,-0.598162786,-0.145268105,-0.755760369
696,1747157,1017560,1.164,-0.426,-0.298,283.8,60.8,160,-5.2,21.6,-22.4,0.223334452,-0.598162786,-0.145268105,-0.755760369
697,1749265,1017560,1.164,-0.426,-0.298,283.8,60.8,160,-5.2,21.6,-22.4,0.223334452,-0.598162786,-0.145268105,-0.755760369
698,1752334,1017560,1.164,-0.426,-0.298,283.8,60.8,160,-5.2,21.6,-22.4,0.223334452,-0.598162786,-0.145268105,-0.755760369
699,1754619,1017560,1.164,-0.426,-0.298,283.8,60.8,160,-5.2,21.6,-22.4,0.223334452,-0.598162786,-0.145268105,-0.755760369
700,1756823,1017570,1.164,-0.426,-0.298,283.8,60.8,160,-5.2,21.6,-22.4,0.223334452,-0.598162786,-0.145268105,-0.755760369
701,1760130,1017570,1.164,-0.426,-0.298,283.8,60.8,160,-5.2,21.6,-22.4,0.223334452,-0.598162786,-0.145268105,-0.755760369
702,1761607,1017570,1.164,-0.426,-0.298,283.8,60.8,160,-5.2,21.6,-22.4,0.223334452,-0.598162786,-0.145268105,-0.755760369
703,1764104,1017570,1.164,-0.426,-0.298,283.8,60.8,160,-5.2,21.6,-22.4,0.223334452,-0.598162786,-0.145268105,-0.755760369
704,1766455,1017580,1.164,-0.426,-0.298,283.8,60.8,160,-5.2,21.6,-22.4,0.223334452,-0.598162786,-0.145268105,-0.755760369
705,1770096,1017580,1.164,-0.426,-0.298,283.8,60.8,160,-5.2,21.6,-22.4,0.223334452,-0.598162786,-0.145268105,-0.755760369
706,1771615,1017580,1.164,-0.426,-0.298,283.8,60.8,160,-5.2,21.6,-22.4,0.223334452,-0.598162786,-0.145268105,-0.755760369
707,1775442,1017580,1.164,-0.426,-0.298,283.8,60.8,160,-5.2,21.6,-22.4,0.223334452,-0.598162786,-0.145268105,-0.755760369
708,1777951,1017590,1.164,-0.426,-0.298,283.8,60.8,160,-5.2,21.6,-22.4,0.223334452,-0.598162786,-0.145268105,-0.755760369
709,1779884,1017590,1.164,-0.426,-0.298,283.8,60.8,160,-5.2,21.6,-22.4,0.223334452,-0.598162786,-0.145268105,-0.755760369
710,1781425,1017590,1.164,-0.426,-0.298,283.8,60.8,160,-5.2,21.6,-22.4,0.223334452,-0.598162786,-0.145268105,-0.755760369
711,1785796,1017590,1.164,-0.426,-0.298,283.8,60.8,160,-5.2,21.6,-22.4,0.223334452,-0.598162786,-0.145268105,-0.755760369
712,1787613,1017600,1.164,-0.426,-0.298,283.8,60.8,160,-5.2,21.6,-22.4,0.223334452,-0.598162786,-0.145268105,-0.755760369
713,1788943,1017600,1.164,-0.426,-0.298,283.8,60.8,160,-5.2,21.6,-22.4,0.223334452,-0.598162786,-0.145268105,-0.755760369
714,1792824,1017600,1.164,-0.426,-0.298,283.8,60.8,160,-5.2,21.6,-22.4,0.223334452,-0.598162786,-0.145268105,-0.755760369
715,1795412,1017600,1.63,-0.352,-0.291,179.4,158.8,261.5,1.3,19,-25,0.368480483,-0.548356578,-0.133579516,-0.738670003
716,1797744,1017610,1.63,-0.352,-0.291,179.4,158.8,261.5,1.3,19,-25,0.368480483,-0.548356578,-0.133579516,-0.738670003
717,1799237,1017610,1.63,-0.352,-0.291,179.4,158.8,261.5,1.3,19,-25,0.368480483,-0.548356578,-0.133579516,-0.738670003
718,1802526,1017610,1.63,-0.352,-0.291,179.4,158.8,261.5,1.3,19,-25,0.368480483,-0.548356578,-0.133579516,-0.738670003
719,1804593,1017610,1.63,-0.352,-0.291,179.4,158.8,261.5,1.3,19,-25,0.368480483,-0.548356578,-0.133579516,-0.738670003
720,1806488,1017620,1.63,-0.352,-0.291,179.4,158.8,261.5,1.3,19,-25,0.368480483,-0.548356578,-0.133579516,-0.738670003
721,1811139,1017620,1.63,-0.352,-0.291,179.4,158.8,261.5,1.3,19,-25,0.368480483,-0.548356578,-0.133579516,-0.738670003
722,1812668,1017620,1.63,-0.352,-0.291,179.4,158.8,261.5,1.3,19,-25,0.368480483,-0.548356578,-0.133579516,-0.738670003
723,1814478,1017620,1.63,-0.352,-0.291,179.4,158.8,261.5,1.3,19,-25,0.368480483,-0.548356578,-0.133579516,-0.738670003
724,1816627,1017630,1.63,-0.352,-0.291,179.4,158.8,261.5,1.3,19,-25,0.368480483,-0.548356578,-0.133579516,-0.738670003
725,1820136,1017630,1.63,-0.352,-0.291,179.4,158.8,261.5,1.3,19,-25,0.368480483,-0.548356578,-0.133579516,-0.738670003
726,1821484,1017630,1.63,-0.352,-0.291,179.4,158.8,261.5,1.3,19,-25,0.368480483,-0.548356578,-0.133579516,-0.738670003
727,1825343,1017630,1.63,-0.352,-0.291,179.4,158.8,261.5,1.3,19,-25,0.368480483,-0.548356578,-0.133579516,-0.738670003
728,1826694,1017640,1.63,-0.352,-0.291,179.4,158.8,261.5,1.3,19,-25,0.368480483,-0.548356578,-0.133579516,-0.738670003
729,1830448,1017640,1.63,-0.352,-0.291,179.4,158.8,261.5,1.3,19,-25,0.368480483,-0.548356578,-0.133579516,-0.738670003
730,1832819,1017640,-0.212,0.416,-0.497,47,189.1,399.3,6.4,13.3,-27,0.503097629,-0.502059999,-0.124423963,-0.692312387
731,1834657,1017640,-0.212,0.416,-0.497,47,189.1,399.3,6.4,13.3,-27,0.503097629,-0.502059999,-0.124423963,-0.692312387
732,1837907,1017650,-0.212,0.416,-0.497,47,189.1,399.3,6.4,13.3,-27,0.503097629,-0.502059999,-0.124423963,-0.692312387
733,1840082,1017650,-0.212,0.416,-0.497,47,189.1,399.3,6.4,13.3,-27,0.503097629,-0.502059999,-0.124423963,-0.692312387
734,1842545,1017650,-0.212,0.416,-0.497,47,189.1,399.3,6.4,13.3,-27,0.503097629,-0.502059999,-0.124423963,-0.692312387
735,1844371,1017650,-0.212,0.416,-0.497,47,189.1,399.3,6.4,13.3,-27,0.503097629,-0.502059999,-0.124423963,-0.692312387
736,1846879,1017660,-0.212,0.416,-0.497,47,189.1,399.3,6.4,13.3,-27,0.503097629,-0.502059999,-0.124423963,-0.692312387
737,1848960,1017660,-0.212,0.416,-0.497,47,189.1,399.3,6.4,13.3,-27,0.503097629,-0.502059999,-0.124423963,-0.692312387
738,1851614,1017660,-0.212,0.416,-0.497,47,189.1,399.3,6.4,13.3,-27,0.503097629,-0.502059999,-0.124423963,-0.692312387
739,1853996,1017660,-0.212,0.416,-0.497,47,189.1,399.3,6.4,13.3,-27,0.503097629,-0.502059999,-0.124423963,-0.692312387
740,1857348,1017670,-0.212,0.416,-0.497,47,189.1,399.3,6.4,13.3,-27,0.503097629,-0.502059999,-0.124423963,-0.692312387
741,1859653,1017670,-0.212,0.416,-0.497,47,189.1,399.3,6.4,13.3,-27,0.503097629,-0.502059999,-0.124423963,-0.692312387
742,1861597,1017670,-0.212,0.416,-0.497,47,189.1,399.3,6.4,13.3,-27,0.503097629,-0.502059999,-0.124423963,-0.692312387
743,1864721,1017670,-0.212,0.416,-0.497,47,189.1,399.3,6.4,13.3,-27,0.503097629,-0.502059999,-0.124423963,-0.692312387
744,1867020,1017680,-0.212,0.416,-0.497,47,189.1,399.3,6.4,13.3,-27,0.503097629,-0.502059999,-0.124423963,-0.692312387
745,1869210,1017680,-0.212,0.416,-0.497,47,189.1,399.3,6.4,13.3,-27,0.503097629,-0.502059999,-0.124423963,-0.692312387
746,1872613,1017680,-0.212,0.416,-0.497,47,189.1,399.3,6.4,13.3,-27,0.503097629,-0.502059999,-0.124423963,-0.692312387
747,1874328,1017680,-0.212,0.416,-0.497,47,189.1,399.3,6.4,13.3,-27,0.503097629,-0.502059999,-0.124423963,-0.692312387
748,1877232,1017690,-0.212,0.416,-0.497,47,189.1,399.3,6.4,13.3,-27,0.503097629,-0.502059999,-0.124423963,-0.692312387
749,1879392,1017690,-0.212,0.416,-0.497,47,189.1,399.3,6.4,13.3,-27,0.503097629,-0.502059999,-0.124423963,-0.692312387
750,1881515,1017690,-0.212,0.416,-0.497,47,189.1,399.3,6.4,13.3,-27,0.503097629,-0.502059999,-0.124423963,-0.692312387
751,1885832,1017690,-0.212,0.416,-0.497,47,189.1,399.3,6.4,13.3,-27,0.503097629,-0.502059999,-0.124423963,-0.692312387
752,1887939,1017700,-0.212,0.416,-0.497,47,189.1,399.3,6.4,13.3,-27,0.503097629,-0.502059999,-0.124423963,-0.692312387
753,1890031,1017700,-0.212,0.416,-0.497,47,189.1,399.3,6.4,13.3,-27,0.503097629,-0.502059999,-0.124423963,-0.692312387
754,1892258,1017700,0.469,2.154,0.876,-625.1,124.5,-122,8.2,6.5,-27.6,0.60441908,-0.412854396,-0.155949583,-0.663197729
755,1894435,1017700,0.469,2.154,0.876,-625.1,124.5,-122,8.2,6.5,-27.6,0.60441908,-0.412854396,-0.155949583,-0.663197729
756,1898136,1017710,0.469,2.154,0.876,-625.1,124.5,-122,8.2,6.5,-27.6,0.60441908,-0.412854396,-0.155949583,-0.663197729
757,1899582,1017710,0.583,0.031,0.228,-1024.6,-15.4,-251.8,8.2,6.5,-27.6,0.571733757,-0.443067721,-0.123630482,-0.679342021
758,1901459,1017710,0.583,0.031,0.228,-1024.6,-15.4,-251.8,8.2,6.5,-27.6,0.571733757,-0.443067721,-0.123630482,-0.679342021
759,1905398,1017710,0.583,0.031,0.228,-1024.6,-15.4,-251.8,8.2,6.5,-27.6,0.571733757,-0.443067721,-0.123630482,-0.679342021
760,1906898,1017720,0.583,0.031,0.228,-1024.6,-15.4,-251.8,8.2,6.5,-27.6,0.571733757,-0.443067721,-0.123630482,-0.679342021
761,1910977,1017720,0.583,0.031,0.228,-1024.6,-15.4,-251.8,8.2,6.5,-27.6,0.571733757,-0.443067721,-0.123630482,-0.679342021
762,1912948,1017720,0.583,0.031,0.228,-1024.6,-15.4,-251.8,8.2,6.5,-27.6,0.571733757,-0.443067721,-0.123630482,-0.679342021
763,1914580,1017720,0.583,0.031,0.228,-1024.6,-15.4,-251.8,8.2,6.5,-27.6,0.571733757,-0.443067721,-0.123630482,-0.679342021
764,1916944,1017730,0.583,0.031,0.228,-1024.6,-15.4,-251.8,8.2,6.5,-27.6,0.571733757,-0.443067721,-0.123630482,-0.679342021
765,1919571,1017730,0.583,0.031,0.228,-1024.6,-15.4,-251.8,8.2,6.5,-27.6,0.571733757,-0.443067721,-0.123630482,-0.679342021
766,1923390,1017730,0.583,0.031,0.228,-1024.6,-15.4,-251.8,8.2,6.5,-27.6,0.571733757,-0.443067721,-0.123630482,-0.679342021
767,1925200,1017730,0.583,0.031,0.228,-1024.6,-15.4,-251.8,8.2,6.5,-27.6,0.571733757,-0.443067721,-0.123630482,-0.679342021
768,1926957,1017740,0.583,0.031,0.228,-1024.6,-15.4,-251.8,8.2,6.5,-27.6,0.571733757,-0.443067721,-0.123630482,-0.679342021
769,1930602,1017740,0.583,0.031,0.228,-1024.6,-15.4,-251.8,8.2,6.5,-27.6,0.571733757,-0.443067721,-0.123630482,-0.679342021
770,1932435,1017740,0.583,0.031,0.228,-1024.6,-15.4,-251.8,8.2,6.5,-27.6,0.571733757,-0.443067721,-0.123630482,-0.679342021
771,1934095,1017740,0.583,0.031,0.228,-1024.6,-15.4,-251.8,8.2,6.5,-27.6,0.571733757,-0.443067721,-0.123630482,-0.679342021
772,1937889,1017750,0.583,0.031,0.228,-1024.6,-15.4,-251.8,8.2,6.5,-27.6,0.571733757,-0.443067721,-0.123630482,-0.679342021
773,1940346,1017750,0.583,0.031,0.228,-1024.6,-15.4,-251.8,8.2,6.5,-27.6,0.571733757,-0.443067721,-0.123630482,-0.679342021
774,1942158,1017750,0.583,0.031,0.228,-1024.6,-15.4,-251.8,8.2,6.5,-27.6,0.571733757,-0.443067721,-0.123630482,-0.679342021
775,1944522,1017750,0.583,0.031,0.228,-1024.6,-15.4,-251.8,8.2,6.5,-27.6,0.571733757,-0.443067721,-0.123630482,-0.679342021
776,1946636,1017760,0.583,0.031,0.228,-1024.6,-15.4,-251.8,8.2,6.5,-27.6,0.571733757,-0.443067721,-0.123630482,-0.679342021
777,1949921,1017760,0.583,0.031,0.228,-1024.6,-15.4,-251.8,8.2,6.5,-27.6,0.571733757,-0.443067721,-0.123630482,-0.679342021
778,1953348,1017760,0.583,0.031,0.228,-1024.6,-15.4,-251.8,8.2,6.5,-27.6,0.571733757,-0.443067721,-0.123630482,-0.679342021
779,1955220,1017760,0.583,0.031,0.228,-1024.6,-15.4,-251.8,8.2,6.5,-27.6,0.571733757,-0.443067721,-0.123630482,-0.679342021
780,1957715,1017770,0.583,0.031,0.228,-1024.6,-15.4,-251.8,8.2,6.5,-27.6,0.571733757,-0.443067721,-0.123630482,-0.679342021
781,1960533,1017770,0.583,0.031,0.228,-1024.6,-15.4,-251.8,8.2,6.5,-27.6,0.571733757,-0.443067721,-0.123630482,-0.679342021
782,1962153,1017770,0.583,0.031,0.228,-1024.6,-15.4,-251.8,8.2,6.5,-27.6,0.571733757,-0.443067721,-0.123630482,-0.679342021
783,1964681,1017770,0.583,0.031,0.228,-1024.6,-15.4,-251.8,8.2,6.5,-27.6,0.571733757,-0.443067721,-0.123630482,-0.679342021
784,1966647,1017780,0.583,0.031,0.228,-1024.6,-15.4,-251.8,8.2,6.5,-27.6,0.571733757,-0.443067721,-0.123630482,-0.679342021
785,1970863,1017780,0.583,0.031,0.228,-1024.6,-15.4,-251.8,8.2,6.5,-27.6,0.571733757,-0.443067721,-0.123630482,-0.679342021
786,1973398,1017780,0.583,0.031,0.228,-1024.6,-15.4,-251.8,8.2,6.5,-27.6,0.571733757,-0.443067721,-0.123630482,-0.679342021
787,1975642,1017780,0.583,0.031,0.228,-1024.6,-15.4,-251.8,8.2,6.5,-27.6,0.571733757,-0.443067721,-0.123630482,-0.679342021
788,1977741,1017790,0.583,0.031,0.228,-1024.6,-15.4,-251.8,8.2,6.5,-27.6,0.571733757,-0.443067721,-0.123630482,-0.679342021
789,1979413,1017790,0.583,0.031,0.228,-1024.6,-15.4,-251.8,8.2,6.5,-27.6,0.571733757,-0.443067721,-0.123630482,-0.679342021
790,1981507,1017790,0.583,0.031,0.228,-1024.6,-15.4,-251.8,8.2,6.5,-27.6,0.571733757,-0.443067721,-0.123630482,-0.679342021
791,1985653,1017790,0.583,0.031,0.228,-1024.6,-15.4,-251.8,8.2,6.5,-27.6,0.571733757,-0.443067721,-0.123630482,-0.679342021
792,1987743,1017800,0.583,0.031,0.228,-1024.6,-15.4,-251.8,8.2,6.5,-27.6,0.571733757,-0.443067721,-0.123630482,-0.679342021
793,1990390,1017800,0.583,0.031,0.228,-1024.6,-15.4,-251.8,8.2,6.5,-27.6,0.571733757,-0.443067721,-0.123630482,-0.679342021
794,1992087,1017800,0.583,0.031,0.228,-1024.6,-15.4,-251.8,8.2,6.5,-27.6,0.571733757,-0.443067721,-0.123630482,-0.679342021
795,1994386,1017800,0.583,0.031,0.228,-1024.6,-15.4,-251.8,8.2,6.5,-27.6,0.571733757,-0.443067721,-0.123630482,-0.679342021
796,1996814,1017810,0.583,0.031,0.228,-1024.6,-15.4,-251.8,8.2,6.5,-27.6,0.571733757,-0.443067721,-0.123630482,-0.679342021
797,1999158,1017810,0.583,0.031,0.228,-1024.6,-15.4,-251.8,8.2,6.5,-27.6,0.571733757,-0.443067721,-0.123630482,-0.679342021
798,2002606,1017810,0.583,0.031,0.228,-1024.6,-15.4,-251.8,8.2,6.5,-27.6,0.571733757,-0.443067721,-0.123630482,-0.679342021
799,2004913,1017810,0.583,0.031,0.228,-1024.6,-15.4,-251.8,8.2,6.5,-27.6,0.571733757,-0.443067721,-0.123630482,-0.679342021
800,2006798,1017820,0.583,0.031,0.228,-1024.6,-15.4,-251.8,8.2,6.5,-27.6,0.571733757,-0.443067721,-0.123630482,-0.679342021
801,2010539,1017820,0.583,0.031,0.228,-1024.6,-15.4,-251.8,8.2,6.5,-27.6,0.571733757,-0.443067721,-0.123630482,-0.679342021
802,2012721,1017820,0.583,0.031,0.228,-1024.6,-15.4,-251.8,8.2,6.5,-27.6,0.571733757,-0.443067721,-0.123630482,-0.679342021
803,2014472,1017820,0.583,0.031,0.228,-1024.6,-15.4,-251.8,8.2,6.5,-27.6,0.571733757,-0.443067721,-0.123630482,-0.679342021
804,2017690,1017830,0.583,0.031,0.228,-1024.6,-15.4,-251.8,8.2,6.5,-27.6,0.571733757,-0.443067721,-0.123630482,-0.679342021
805,2020170,1017830,0.583,0.031,0.228,-1024.6,-15.4,-251.8,8.2,6.5,-27.6,0.571733757,-0.443067721,-0.123630482,-0.679342021
806,2022379,1017830,0.583,0.031,0.228,-1024.6,-15.4,-251.8,8.2,6.5,-27.6,0.571733757,-0.443067721,-0.123630482,-0.679342021
807,2024234,1017830,0.583,0.031,0.228,-1024.6,-15.4,-251.8,8.2,6.5,-27.6,0.571733757,-0.443067721,-0.123630482,-0.679342021
808,2028550,1017840,0.583,0.031,0.228,-1024.6,-15.4,-251.8,8.2,6.5,-27.6,0.571733757,-0.443067721,-0.123630482,-0.679342021
809,2030681,1017840,0.583,0.031,0.228,-1024.6,-15.4,-251.8,8.2,6.5,-27.6,0.571733757,-0.443067721,-0.123630482,-0.679342021
810,2032960,1017840,0.583,0.031,0.228,-1024.6,-15.4,-251.8,8.2,6.5,-27.6,0.571733757,-0.443067721,-0.123630482,-0.679342021
811,2035111,1017840,0.583,0.031,0.228,-1024.6,-15.4,-251.8,8.2,6.5,-27.6,0.571733757,-0.443067721,-0.123630482,-0.679342021
812,2036581,1017850,0.583,0.031,0.228,-1024.6,-15.4,-251.8,8.2,6.5,-27.6,0.571733757,-0.443067721,-0.123630482,-0.679342021
813,2039249,1017850,0.583,0.031,0.228,-1024.6,-15.4,-251.8,8.2,6.5,-27.6,0.571733757,-0.443067721,-0.123630482,-0.679342021
814,2042622,1017850,0.583,0.031,0.228,-1024.6,-15.4,-251.8,8.2,6.5,-27.6,0.571733757,-0.443067721,-0.123630482,-0.679342021
815,2044648,1017850,0.583,0.031,0.228,-1024.6,-15.4,-251.8,8.2,6.5,-27.6,0.571733757,-0.443067721,-0.123630482,-0.679342021
816,2046889,1017860,0.583,0.031,0.228,-1024.6,-15.4,-251.8,8.2,6.5,-27.6,0.571733757,-0.443067721,-0.123630482,-0.679342021
817,2050878,1017860,0.583,0.031,0.228,-1024.6,-15.4,-251.8,8.2,6.5,-27.6,0.571733757,-0.443067721,-0.123630482,-0.679342021
818,2053195,1017860,0.583,0.031,0.228,-1024.6,-15.4,-251.8,8.2,6.5,-27.6,0.571733757,-0.443067721,-0.123630482,-0.679342021
819,2055587,1017860,0.827,-0.898,0.409,-33.1,-50.6,85.7,7.6,14.4,-25.9,0.539323099,-0.547044282,-0.0520340587,-0.638050478
820,2058030,1017870,0.827,-0.898,0.409,-33.1,-50.6,85.7,7.6,14.4,-25.9,0.539323099,-0.547044282,-0.0520340587,-0.638050478
821,2060077,1017870,0.827,-0.898,0.409,-33.1,-50.6,85.7,7.6,14.4,-25.9,0.539323099,-0.547044282,-0.0520340587,-0.638050478
822,2061486,1017870,0.827,-0.898,0.409,-33.1,-50.6,85.7,7.6,14.4,-25.9,0.539323099,-0.547044282,-0.0520340587,-0.638050478
823,2064537,1017870,0.827,-0.898,0.409,-33.1,-50.6,85.7,7.6,14.4,-25.9,0.539323099,-0.547044282,-0.0520340587,-0.638050478
824,2066644,1017880,0.827,-0.898,0.409,-33.1,-50.6,85.7,7.6,14.4,-25.9,0.539323099,-0.547044282,-0.0520340587,-0.638050478
825,2070747,1017880,0.827,-0.898,0.409,-33.1,-50.6,85.7,7.6,14.4,-25.9,0.539323099,-0.547044282,-0.0520340587,-0.638050478
826,2072914,1017880,0.827,-0.898,0.409,-33.1,-50.6,85.7,7.6,14.4,-25.9,0.539323099,-0.547044282,-0.0520340587,-0.638050478
827,2075213,1017880,0.827,-0.898,0.409,-33.1,-50.6,85.7,7.6,14.4,-25.9,0.539323099,-0.547044282,-0.0520340587,-0.638050478
828,2077465,1017890,0.827,-0.898,0.409,-33.1,-50.6,85.7,7.6,14.4,-25.9,0.539323099,-0.547044282,-0.0520340587,-0.638050478
829,2078976,1017890,0.827,-0.898,0.409,-33.1,-50.6,85.7,7.6,14.4,-25.9,0.539323099,-0.547044282,-0.0520340587,-0.638050478
830,2082082,1017890,0.827,-0.898,0.409,-33.1,-50.6,85.7,7.6,14.4,-25.9,0.539323099,-0.547044282,-0.0520340587,-0.638050478
831,2083966,1017890,0.827,-0.898,0.409,-33.1,-50.6,85.7,7.6,14.4,-25.9,0.539323099,-0.547044282,-0.0520340587,-0.638050478
832,2086761,1017900,0.827,-0.898,0.409,-33.1,-50.6,85.7,7.6,14.4,-25.9,0.539323099,-0.547044282,-0.0520340587,-0.638050478
833,2090798,1017900,0.827,-0.898,0.409,-33.1,-50.6,85.7,7.6,14.4,-25.9,0.539323099,-0.547044282,-0.0520340587,-0.638050478
834,2092095,1017900,0.827,-0.898,0.409,-33.1,-50.6,85.7,7.6,14.4,-25.9,0.539323099,-0.547044282,-0.0520340587,-0.638050478
835,2094490,1017900,0.638,0.08,0.207,-36.7,3.1,6.1,9.6,14.7,-25.7,0.539658803,-0.552995392,-0.0381786554,-0.633625294
836,2096958,1017910,0.638,0.08,0.207,-36.7,3.1,6.1,9.6,14.7,-25.7,0.539658803,-0.552995392,-0.0381786554,-0.633625294
837,2099044,1017910,0.638,0.08,0.207,-36.7,3.1,6.1,9.6,14.7,-25.7,0.539658803,-0.552995392,-0.0381786554,-0.633625294
838,2101713,1017910,0.638,0.08,0.207,-36.7,3.1,6.1,9.6,14.7,-25.7,0.539658803,-0.552995392,-0.0381786554,-0.633625294
839,2105057,1017910,0.638,0.08,0.207,-36.7,3.1,6.1,9.6,14.7,-25.7,0.539658803,-0.552995392,-0.0381786554,-0.633625294
840,2107105,1017920,0.638,0.08,0.207,-36.7,3.1,6.1,9.6,14.7,-25.7,0.539658803,-0.552995392,-0.0381786554,-0.633625294
841,2110709,1017920,0.638,0.08,0.207,-36.7,3.1,6.1,9.6,14.7,-25.7,0.539658803,-0.552995392,-0.0381786554,-0.633625294
842,2113443,1017920,0.638,0.08,0.207,-36.7,3.1,6.1,9.6,14.7,-25.7,0.539658803,-0.552995392,-0.0381786554,-0.633625294
843,2115085,1017920,0.506,0.298,0.221,47,-27,-80.9,9.3,14.8,-25.8,0.536790063,-0.552171392,-0.0406506546,-0.636616108
844,2116770,1017930,0.506,0.298,0.221,47,-27,-80.9,9.3,14.8,-25.8,0.536790063,-0.552171392,-0.0406506546,-0.636616108
845,2120243,1017930,0.506,0.298,0.221,47,-27,-80.9,9.3,14.8,-25.8,0.536790063,-0.552171392,-0.0406506546,-0.636616108
846,2122188,1017930,0.506,0.298,0.221,47,-27,-80.9,9.3,14.8,-25.8,0.536790063,-0.552171392,-0.0406506546,-0.636616108
847,2124389,1017930,0.506,0.298,0.221,47,-27,-80.9,9.3,14.8,-25.8,0.536790063,-0.552171392,-0.0406506546,-0.636616108
848,2127549,1017940,0.506,0.298,0.221,47,-27,-80.9,9.3,14.8,-25.8,0.536790063,-0.552171392,-0.0406506546,-0.636616108
849,2129718,1017940,0.506,0.298,0.221,47,-27,-80.9,9.3,14.8,-25.8,0.536790063,-0.552171392,-0.0406506546,-0.636616108
850,2131441,1017940,0.506,0.298,0.221,47,-27,-80.9,9.3,14.8,-25.8,0.536790063,-0.552171392,-0.0406506546,-0.636616108
851,2135369,1017940,0.506,0.298,0.221,47,-27,-80.9,9.3,14.8,-25.8,0.536790063,-0.552171392,-0.0406506546,-0.636616108
852,2137649,1017950,0.506,0.298,0.221,47,-27,-80.9,9.3,14.8,-25.8,0.536790063,-0.552171392,-0.0406506546,-0.636616108
853,2140170,1017950,0.506,0.298,0.221,47,-27,-80.9,9.3,14.8,-25.8,0.536790063,-0.552171392,-0.0406506546,-0.636616108
854,2142032,1017950,0.506,0.298,0.221,47,-27,-80.9,9.3,14.8,-25.8,0.536790063,-0.552171392,-0.0406506546,-0.636616108
855,2144425,1017950,0.506,0.298,0.221,47,-27,-80.9,9.3,14.8,-25.8,0.536790063,-0.552171392,-0.0406506546,-0.636616108
856,2146690,1017960,0.506,0.298,0.221,47,-27,-80.9,9.3,14.8,-25.8,0.536790063,-0.552171392,-0.0406506546,-0.636616108
857,2148991,1017960,0.506,0.298,0.221,47,-27,-80.9,9.3,14.8,-25.8,0.536790063,-0.552171392,-0.0406506546,-0.636616108
858,2153447,1017960,0.506,0.298,0.221,47,-27,-80.9,9.3,14.8,-25.8,0.536790063,-0.552171392,-0.0406506546,-0.636616108
859,2155701,1017960,0.506,0.298,0.221,47,-27,-80.9,9.3,14.8,-25.8,0.536790063,-0.552171392,-0.0406506546,-0.636616108
860,2157452,1017970,0.506,0.298,0.221,47,-27,-80.9,9.3,14.8,-25.8,0.536790063,-0.552171392,-0.0406506546,-0.636616108
861,2159554,1017970,0.506,0.298,0.221,47,-27,-80.9,9.3,14.8,-25.8,0.536790063,-0.552171392,-0.0406506546,-0.636616108
862,2163490,1017970,0.506,0.298,0.221,47,-27,-80.9,9.3,14.8,-25.8,0.536790063,-0.552171392,-0.0406506546,-0.636616108
863,2165191,1017970,1.25,-0.253,0.177,-184.1,-62.7,-237.6,5.5,17.3,-25.1,0.45945616,-0.576342051,-0.0793481246,-0.671071505
864,2167212,1017980,1.25,-0.253,0.177,-184.1,-62.7,-237.6,5.5,17.3,-25.1,0.45945616,-0.576342051,-0.0793481246,-0.671071505
865,2170439,1017980,1.25,-0.253,0.177,-184.1,-62.7,-237.6,5.5,17.3,-25.1,0.45945616,-0.576342051,-0.0793481246,-0.671071505
866,2172800,1017980,1.25,-0.253,0.177,-184.1,-62.7,-237.6,5.5,17.3,-25.1,0.45945616,-0.576342051,-0.0793481246,-0.671071505
867,2175263,1017980,1.25,-0.253,0.177,-184.1,-62.7,-237.6,5.5,17.3,-25.1,0.45945616,-0.576342051,-0.0793481246,-0.671071505
868,2176627,1017990,1.25,-0.253,0.177,-184.1,-62.7,-237.6,5.5,17.3,-25.1,0.45945616,-0.576342051,-0.0793481246,-0.671071505
869,2180539,1017990,1.25,-0.253,0.177,-184.1,-62.7,-237.6,5.5,17.3,-25.1,0.45945616,-0.576342051,-0.0793481246,-0.671071505
870,2182659,1017990,1.25,-0.253,0.177,-184.1,-62.7,-237.6,5.5,17.3,-25.1,0.45945616,-0.576342051,-0.0793481246,-0.671071505
871,2184305,1017990,1.25,-0.253,0.177,-184.1,-62.7,-237.6,5.5,17.3,-25.1,0.45945616,-0.576342051,-0.0793481246,-0.671071505
872,2187199,1018000,1.25,-0.253,0.177,-184.1,-62.7,-237.6,5.5,17.3,-25.1,0.45945616,-0.576342051,-0.0793481246,-0.671071505
873,2189283,1018000,1.25,-0.253,0.177,-184.1,-62.7,-237.6,5.5,17.3,-25.1,0.45945616,-0.576342051,-0.0793481246,-0.671071505
874,2192388,1018000,1.25,-0.253,0.177,-184.1,-62.7,-237.6,5.5,17.3,-25.1,0.45945616,-0.576342051,-0.0793481246,-0.671071505
875,2193907,1018000,1.25,-0.253,0.177,-184.1,-62.7,-237.6,5.5,17.3,-25.1,0.45945616,-0.576342051,-0.0793481246,-0.671071505
876,2196684,1018010,1.25,-0.253,0.177,-184.1,-62.7,-237.6,5.5,17.3,-25.1,0.45945616,-0.576342051,-0.0793481246,-0.671071505
877,2199880,1018010,1.25,-0.253,0.177,-184.1,-62.7,-237.6,5.5,17.3,-25.1,0.45945616,-0.576342051,-0.0793481246,-0.671071505
878,2202811,1018010,1.25,-0.253,0.177,-184.1,-62.7,-237.6,5.5,17.3,-25.1,0.45945616,-0.576342051,-0.0793481246,-0.671071505
879,2204223,1018010,1.25,-0.253,0.177,-184.1,-62.7,-237.6,5.5,17.3,-25.1,0.45945616,-0.576342051,-0.0793481246,-0.671071505
880,2207188,1018020,1.25,-0.253,0.177,-184.1,-62.7,-237.6,5.5,17.3,-25.1,0.45945616,-0.576342051,-0.0793481246,-0.671071505
881,2209354,1018020,1.25,-0.253,0.177,-184.1,-62.7,-237.6,5.5,17.3,-25.1,0.45945616,-0.576342051,-0.0793481246,-0.671071505
882,2212501,1018020,1.25,-0.253,0.177,-184.1,-62.7,-237.6,5.5,17.3,-25.1,0.45945616,-0.576342051,-0.0793481246,-0.671071505
883,2213996,1018020,1.25,-0.253,0.177,-184.1,-62.7,-237.6,5.5,17.3,-25.1,0.45945616,-0.576342051,-0.0793481246,-0.671071505
884,2216850,1018030,1.25,-0.253,0.177,-184.1,-62.7,-237.6,5.5,17.3,-25.1,0.45945616,-0.576342051,-0.0793481246,-0.671071505
885,2220170,1018030,1.25,-0.253,0.177,-184.1,-62.7,-237.6,5.5,17.3,-25.1,0.45945616,-0.576342051,-0.0793481246,-0.671071505
886,2221611,1018030,1.25,-0.253,0.177,-184.1,-62.7,-237.6,5.5,17.3,-25.1,0.45945616,-0.576342051,-0.0793481246,-0.671071505
887,2224455,1018030,1.25,-0.253,0.177,-184.1,-62.7,-237.6,5.5,17.3,-25.1,0.45945616,-0.576342051,-0.0793481246,-0.671071505
888,2227487,1018040,1.25,-0.253,0.177,-184.1,-62.7,-237.6,5.5,17.3,-25.1,0.45945616,-0.576342051,-0.0793481246,-0.671071505
889,2230373,1018040,1.25,-0.253,0.177,-184.1,-62.7,-237.6,5.5,17.3,-25.1,0.45945616,-0.576342051,-0.0793481246,-0.671071505
890,2231857,1018040,1.25,-0.253,0.177,-184.1,-62.7,-237.6,5.5,17.3,-25.1,0.45945616,-0.576342051,-0.0793481246,-0.671071505
891,2234847,1018040,1.25,-0.253,0.177,-184.1,-62.7,-237.6,5.5,17.3,-25.1,0.45945616,-0.576342051,-0.0793481246,-0.671071505
892,2237916,1018050,1.25,-0.253,0.177,-184.1,-62.7,-237.6,5.5,17.3,-25.1,0.45945616,-0.576342051,-0.0793481246,-0.671071505
893,2239728,1018050,1.25,-0.253,0.177,-184.1,-62.7,-237.6,5.5,17.3,-25.1,0.45945616,-0.576342051,-0.0793481246,-0.671071505
894,2241485,1018050,1.25,-0.253,0.177,-184.1,-62.7,-237.6,5.5,17.3,-25.1,0.45945616,-0.576342051,-0.0793481246,-0.671071505
895,2244932,1018050,1.25,-0.253,0.177,-184.1,-62.7,-237.6,5.5,17.3,-25.1,0.45945616,-0.576342051,-0.0793481246,-0.671071505
896,2246672,1018060,1.26,-0.36,0.043,-47.8,19.4,-222.5,0.4,22.2,-20.3,0.301217689,-0.604144414,-0.0872829371,-0.732535783
897,2249794,1018060,1.26,-0.36,0.043,-47.8,19.4,-222.5,0.4,22.2,-20.3,0.301217689,-0.604144414,-0.0872829371,-0.732535783
898,2253195,1018060,1.26,-0.36,0.043,-47.8,19.4,-222.5,0.4,22.2,-20.3,0.301217689,-0.604144414,-0.0872829371,-0.732535783
899,2254522,1018060,1.353,-0.553,0.03,-58.4,1.1,-211.3,-0.2,22.7,-23.5,0.288674581,-0.603625599,-0.0931730094,-0.737266152
900,2257694,1018070,1.353,-0.553,0.03,-58.4,1.1,-211.3,-0.2,22.7,-23.5,0.288674581,-0.603625599,-0.0931730094,-0.737266152
901,2259149,1018070,1.353,-0.553,0.03,-58.4,1.1,-211.3,-0.2,22.7,-23.5,0.288674581,-0.603625599,-0.0931730094,-0.737266152
902,2262141,1018070,1.353,-0.553,0.03,-58.4,1.1,-211.3,-0.2,22.7,-23.5,0.288674581,-0.603625599,-0.0931730094,-0.737266152
903,2264305,1018070,1.353,-0.553,0.03,-58.4,1.1,-211.3,-0.2,22.7,-23.5,0.288674581,-0.603625599,-0.0931730094,-0.737266152
904,2267468,1018080,1.353,-0.553,0.03,-58.4,1.1,-211.3,-0.2,22.7,-23.5,0.288674581,-0.603625599,-0.0931730094,-0.737266152
905,2270513,1018080,1.353,-0.553,0.03,-58.4,1.1,-211.3,-0.2,22.7,-23.5,0.288674581,-0.603625599,-0.0931730094,-0.737266152
906,2274622,1018080,1.353,-0.553,0.03,-58.4,1.1,-211.3,-0.2,22.7,-23.5,0.288674581,-0.603625599,-0.0931730094,-0.737266152
907,2274622,1018080,1.457,-0.338,0.341,-130.1,-53.5,-153.4,-1.8,22.9,-20.6,0.255806146,-0.607135228,-0.103701895,-0.74507889
908,2276619,1018090,1.457,-0.338,0.341,-130.1,-53.5,-153.4,-1.8,22.9,-20.6,0.255806146,-0.607135228,-0.103701895,-0.74507889
909,2279114,1018090,1.457,-0.338,0.341,-130.1,-53.5,-153.4,-1.8,22.9,-20.6,0.255806146,-0.607135228,-0.103701895,-0.74507889
910,2281731,1018090,1.457,-0.338,0.341,-130.1,-53.5,-153.4,-1.8,22.9,-20.6,0.255806146,-0.607135228,-0.103701895,-0.74507889
911,2283993,1018090,1.457,-0.338,0.341,-130.1,-53.5,-153.4,-1.8,22.9,-20.6,0.255806146,-0.607135228,-0.103701895,-0.74507889
912,2288488,1018100,1.457,-0.338,0.341,-130.1,-53.5,-153.4,-1.8,22.9,-20.6,0.255806146,-0.607135228,-0.103701895,-0.74507889
913,2290670,1018100,1.457,-0.338,0.341,-130.1,-53.5,-153.4,-1.8,22.9,-20.6,0.255806146,-0.607135228,-0.103701895,-0.74507889
914,2292816,1018100,1.457,-0.338,0.341,-130.1,-53.5,-153.4,-1.8,22.9,-20.6,0.255806146,-0.607135228,-0.103701895,-0.74507889
915,2295151,1018100,1.457,-0.338,0.341,-130.1,-53.5,-153.4,-1.8,22.9,-20.6,0.255806146,-0.607135228,-0.103701895,-0.74507889
916,2297524,1018110,1.457,-0.338,0.341,-130.1,-53.5,-153.4,-1.8,22.9,-20.6,0.255806146,-0.607135228,-0.103701895,-0.74507889
917,2299314,1018110,1.457,-0.338,0.341,-130.1,-53.5,-153.4,-1.8,22.9,-20.6,0.255806146,-0.607135228,-0.103701895,-0.74507889
918,2302498,1018110,1.457,-0.338,0.341,-130.1,-53.5,-153.4,-1.8,22.9,-20.6,0.255806146,-0.607135228,-0.103701895,-0.74507889
919,2304047,1018110,1.457,-0.338,0.341,-130.1,-53.5,-153.4,-1.8,22.9,-20.6,0.255806146,-0.607135228,-0.103701895,-0.74507889
920,2308001,1018120,1.457,-0.338,0.341,-130.1,-53.5,-153.4,-1.8,22.9,-20.6,0.255806146,-0.607135228,-0.103701895,-0.74507889
921,2310323,1018120,1.457,-0.338,0.341,-130.1,-53.5,-153.4,-1.8,22.9,-20.6,0.255806146,-0.607135228,-0.103701895,-0.74507889
922,2312686,1018120,1.457,-0.338,0.341,-130.1,-53.5,-153.4,-1.8,22.9,-20.6,0.255806146,-0.607135228,-0.103701895,-0.74507889
923,2314534,1018120,1.457,-0.338,0.341,-130.1,-53.5,-153.4,-1.8,22.9,-20.6,0.255806146,-0.607135228,-0.103701895,-0.74507889
924,2316843,1018130,1.457,-0.338,0.341,-130.1,-53.5,-153.4,-1.8,22.9,-20.6,0.255806146,-0.607135228,-0.103701895,-0.74507889
925,2319563,1018130,1.457,-0.338,0.341,-130.1,-53.5,-153.4,-1.8,22.9,-20.6,0.255806146,-0.607135228,-0.103701895,-0.74507889
926,2322329,1018130,1.457,-0.338,0.341,-130.1,-53.5,-153.4,-1.8,22.9,-20.6,0.255806146,-0.607135228,-0.103701895,-0.74507889
927,2325322,1018130,1.457,-0.338,0.341,-130.1,-53.5,-153.4,-1.8,22.9,-20.6,0.255806146,-0.607135228,-0.103701895,-0.74507889
928,2327915,1018140,1.457,-0.338,0.341,-130.1,-53.5,-153.4,-1.8,22.9,-20.6,0.255806146,-0.607135228,-0.103701895,-0.74507889
929,2329937,1018140,1.457,-0.338,0.341,-130.1,-53.5,-153.4,-1.8,22.9,-20.6,0.255806146,-0.607135228,-0.103701895,-0.74507889
930,2332435,1018140,1.457,-0.338,0.341,-130.1,-53.5,-153.4,-1.8,22.9,-20.6,0.255806146,-0.607135228,-0.103701895,-0.74507889
931,2334396,1018140,1.457,-0.338,0.341,-130.1,-53.5,-153.4,-1.8,22.9,-20.6,0.255806146,-0.607135228,-0.103701895,-0.74507889
932,2336629,1018150,1.457,-0.338,0.341,-130.1,-53.5,-153.4,-1.8,22.9,-20.6,0.255806146,-0.607135228,-0.103701895,-0.74507889
933,2340340,1018150,1.457,-0.338,0.341,-130.1,-53.5,-153.4,-1.8,22.9,-20.6,0.255806146,-0.607135228,-0.103701895,-0.74507889
934,2343851,1018150,1.457,-0.338,0.341,-130.1,-53.5,-153.4,-1.8,22.9,-20.6,0.255806146,-0.607135228,-0.103701895,-0.74507889
935,2344126,1018150,1.152,0.192,-0.013,-77.6,-23.3,-131.3,-5.6,23.7,-20.9,0.162724693,-0.60402234,-0.109653005,-0.772392956
936,2347491,1018160,1.152,0.192,-0.013,-77.6,-23.3,-131.3,-5.6,23.7,-20.9,0.162724693,-0.60402234,-0.109653005,-0.772392956
937,2349056,1018160,1.152,0.192,-0.013,-77.6,-23.3,-131.3,-5.6,23.7,-20.9,0.162724693,-0.60402234,-0.109653005,-0.772392956
938,2351428,1018160,1.152,0.192,-0.013,-77.6,-23.3,-131.3,-5.6,23.7,-20.9,0.162724693,-0.60402234,-0.109653005,-0.772392956
939,2355922,1018160,1.152,0.192,-0.013,-77.6,-23.3,-131.3,-5.6,23.7,-20.9,0.162724693,-0.60402234,-0.109653005,-0.772392956
940,2358212,1018170,1.152,0.192,-0.013,-77.6,-23.3,-131.3,-5.6,23.7,-20.9,0.162724693,-0.60402234,-0.109653005,-0.772392956
941,2360367,1018170,1.152,0.192,-0.013,-77.6,-23.3,-131.3,-5.6,23.7,-20.9,0.162724693,-0.60402234,-0.109653005,-0.772392956
942,2362778,1018170,1.152,0.192,-0.013,-77.6,-23.3,-131.3,-5.6,23.7,-20.9,0.162724693,-0.60402234,-0.109653005,-0.772392956
943,2364682,1018170,1.152,0.192,-0.013,-77.6,-23.3,-131.3,-5.6,23.7,-20.9,0.162724693,-0.60402234,-0.109653005,-0.772392956
944,2366942,1018180,1.152,0.192,-0.013,-77.6,-23.3,-131.3,-5.6,23.7,-20.9,0.162724693,-0.60402234,-0.109653005,-0.772392956
945,2369234,1018180,1.152,0.192,-0.013,-77.6,-23.3,-131.3,-5.6,23.7,-20.9,0.162724693,-0.60402234,-0.109653005,-0.772392956
946,2371773,1018180,1.152,0.192,-0.013,-77.6,-23.3,-131.3,-5.6,23.7,-20.9,0.162724693,-0.60402234,-0.109653005,-0.772392956
947,2375585,1018180,1.152,0.192,-0.013,-77.6,-23.3,-131.3,-5.6,23.7,-20.9,0.162724693,-0.60402234,-0.109653005,-0.772392956
948,2377638,1018190,1.152,0.192,-0.013,-77.6,-23.3,-131.3,-5.6,23.7,-20.9,0.162724693,-0.60402234,-0.109653005,-0.772392956
949,2379315,1018190,1.152,0.192,-0.013,-77.6,-23.3,-131.3,-5.6,23.7,-20.9,0.162724693,-0.60402234,-0.109653005,-0.772392956
950,2382638,1018190,1.152,0.192,-0.013,-77.6,-23.3,-131.3,-5.6,23.7,-20.9,0.162724693,-0.60402234,-0.109653005,-0.772392956
951,2384273,1018190,1.152,0.192,-0.013,-77.6,-23.3,-131.3,-5.6,23.7,-20.9,0.162724693,-0.60402234,-0.109653005,-0.772392956
952,2386619,1018200,1.152,0.192,-0.013,-77.6,-23.3,-131.3,-5.6,23.7,-20.9,0.162724693,-0.60402234,-0.109653005,-0.772392956
953,2390337,1018200,1.152,0.192,-0.013,-77.6,-23.3,-131.3,-5.6,23.7,-20.9,0.162724693,-0.60402234,-0.109653005,-0.772392956
954,2392572,1018200,1.152,0.192,-0.013,-77.6,-23.3,-131.3,-5.6,23.7,-20.9,0.162724693,-0.60402234,-0.109653005,-0.772392956
955,2394552,1018200,1.152,0.192,-0.013,-77.6,-23.3,-131.3,-5.6,23.7,-20.9,0.162724693,-0.60402234,-0.109653005,-0.772392956
956,2396915,1018210,1.152,0.192,-0.013,-77.6,-23.3,-131.3,-5.6,23.7,-20.9,0.162724693,-0.60402234,-0.109653005,-0.772392956
957,2399263,1018210,1.152,0.192,-0.013,-77.6,-23.3,-131.3,-5.6,23.7,-20.9,0.162724693,-0.60402234,-0.109653005,-0.772392956
958,2401630,1018210,1.152,0.192,-0.013,-77.6,-23.3,-131.3,-5.6,23.7,-20.9,0.162724693,-0.60402234,-0.109653005,-0.772392956
959,2405399,1018210,1.152,0.192,-0.013,-77.6,-23.3,-131.3,-5.6,23.7,-20.9,0.162724693,-0.60402234,-0.109653005,-0.772392956
960,2407571,1018220,1.152,0.192,-0.013,-77.6,-23.3,-131.3,-5.6,23.7,-20.9,0.162724693,-0.60402234,-0.109653005,-0.772392956
961,2410088,1018220,1.152,0.192,-0.013,-77.6,-23.3,-131.3,-5.6,23.7,-20.9,0.162724693,-0.60402234,-0.109653005,-0.772392956
962,2411569,1018220,1.152,0.192,-0.013,-77.6,-23.3,-131.3,-5.6,23.7,-20.9,0.162724693,-0.60402234,-0.109653005,-0.772392956
963,2414587,1018220,1.152,0.192,-0.013,-77.6,-23.3,-131.3,-5.6,23.7,-20.9,0.162724693,-0.60402234,-0.109653005,-0.772392956
964,2416820,1018230,1.152,0.192,-0.013,-77.6,-23.3,-131.3,-5.6,23.7,-20.9,0.162724693,-0.60402234,-0.109653005,-0.772392956
965,2420056,1018230,1.152,0.192,-0.013,-77.6,-23.3,-131.3,-5.6,23.7,-20.9,0.162724693,-0.60402234,-0.109653005,-0.772392956
966,2422158,1018230,1.152,0.192,-0.013,-77.6,-23.3,-131.3,-5.6,23.7,-20.9,0.162724693,-0.60402234,-0.109653005,-0.772392956
967,2424429,1018230,1.152,0.192,-0.013,-77.6,-23.3,-131.3,-5.6,23.7,-20.9,0.162724693,-0.60402234,-0.109653005,-0.772392956
968,2426635,1018240,1.152,0.192,-0.013,-77.6,-23.3,-131.3,-5.6,23.7,-20.9,0.162724693,-0.60402234,-0.109653005,-0.772392956
969,2430054,1018240,1.152,0.192,-0.013,-77.6,-23.3,-131.3,-5.6,23.7,-20.9,0.162724693,-0.60402234,-0.109653005,-0.772392956
970,2431871,1018240,1.152,0.192,-0.013,-77.6,-23.3,-131.3,-5.6,23.7,-20.9,0.162724693,-0.60402234,-0.109653005,-0.772392956
971,2435848,1018240,1.152,0.192,-0.013,-77.6,-23.3,-131.3,-5.6,23.7,-20.9,0.162724693,-0.60402234,-0.109653005,-0.772392956
972,2438238,1018250,1.152,0.192,-0.013,-77.6,-23.3,-131.3,-5.6,23.7,-20.9,0.162724693,-0.60402234,-0.109653005,-0.772392956
973,2440368,1018250,1.152,0.192,-0.013,-77.6,-23.3,-131.3,-5.6,23.7,-20.9,0.162724693,-0.60402234,-0.109653005,-0.772392956
974,2442753,1018250,1.152,0.192,-0.013,-77.6,-23.3,-131.3,-5.6,23.7,-20.9,0.162724693,-0.60402234,-0.109653005,-0.772392956
975,2444868,1018250,1.152,0.192,-0.013,-77.6,-23.3,-131.3,-5.6,23.7,-20.9,0.162724693,-0.60402234,-0.109653005,-0.772392956
976,2447031,1018260,1.152,0.192,-0.013,-77.6,-23.3,-131.3,-5.6,23.7,-20.9,0.162724693,-0.60402234,-0.109653005,-0.772392956
977,2449427,1018260,1.152,0.192,-0.013,-77.6,-23.3,-131.3,-5.6,23.7,-20.9,0.162724693,-0.60402234,-0.109653005,-0.772392956
978,2451771,1018260,1.152,0.192,-0.013,-77.6,-23.3,-131.3,-5.6,23.7,-20.9,0.162724693,-0.60402234,-0.109653005,-0.772392956
979,2454099,1018260,1.152,0.192,-0.013,-77.6,-23.3,-131.3,-5.6,23.7,-20.9,0.162724693,-0.60402234,-0.109653005,-0.772392956
980,2457219,1018270,1.152,0.192,-0.013,-77.6,-23.3,-131.3,-5.6,23.7,-20.9,0.162724693,-0.60402234,-0.109653005,-0.772392956
981,2459566,1018270,1.152,0.192,-0.013,-77.6,-23.3,-131.3,-5.6,23.7,-20.9,0.162724693,-0.60402234,-0.109653005,-0.772392956
982,2462002,1018270,1.152,0.192,-0.013,-77.6,-23.3,-131.3,-5.6,23.7,-20.9,0.162724693,-0.60402234,-0.109653005,-0.772392956
983,2465291,1018270,1.152,0.192,-0.013,-77.6,-23.3,-131.3,-5.6,23.7,-20.9,0.162724693,-0.60402234,-0.109653005,-0.772392956
984,2467918,1018280,1.152,0.192,-0.013,-77.6,-23.3,-131.3,-5.6,23.7,-20.9,0.162724693,-0.60402234,-0.109653005,-0.772392956
985,2470265,1018280,1.152,0.192,-0.013,-77.6,-23.3,-131.3,-5.6,23.7,-20.9,0.162724693,-0.60402234,-0.109653005,-0.772392956
986,2472242,1018280,1.152,0.192,-0.013,-77.6,-23.3,-131.3,-5.6,23.7,-20.9,0.162724693,-0.60402234,-0.109653005,-0.772392956
987,2474827,1018280,1.152,0.192,-0.013,-77.6,-23.3,-131.3,-5.6,23.7,-20.9,0.162724693,-0.60402234,-0.109653005,-0.772392956
988,2476822,1018290,1.152,0.192,-0.013,-77.6,-23.3,-131.3,-5.6,23.7,-20.9,0.162724693,-0.60402234,-0.109653005,-0.772392956
989,2479282,1018290,1.152,0.192,-0.013,-77.6,-23.3,-131.3,-5.6,23.7,-20.9,0.162724693,-0.60402234,-0.109653005,-0.772392956
990,2482913,1018290,1.152,0.192,-0.013,-77.6,-23.3,-131.3,-5.6,23.7,-20.9,0.162724693,-0.60402234,-0.109653005,-0.772392956
991,2485166,1018290,1.152,0.192,-0.013,-77.6,-23.3,-131.3,-5.6,23.7,-20.9,0.162724693,-0.60402234,-0.109653005,-0.772392956
992,2487184,1018300,1.152,0.192,-0.013,-77.6,-23.3,-131.3,-5.6,23.7,-20.9,0.162724693,-0.60402234,-0.109653005,-0.772392956
993,2489523,1018300,1.152,0.192,-0.013,-77.6,-23.3,-131.3,-5.6,23.7,-20.9,0.162724693,-0.60402234,-0.109653005,-0.772392956
994,2491786,1018300,1.152,0.192,-0.013,-77.6,-23.3,-131.3,-5.6,23.7,-20.9,0.162724693,-0.60402234,-0.109653005,-0.772392956
995,2494616,1018300,1.152,0.192,-0.013,-77.6,-23.3,-131.3,-5.6,23.7,-20.9,0.162724693,-0.60402234,-0.109653005,-0.772392956
996,2497005,1018310,1.152,0.192,-0.013,-77.6,-23.3,-131.3,-5.6,23.7,-20.9,0.162724693,-0.60402234,-0.109653005,-0.772392956
997,2499247,1018310,1.152,0.192,-0.013,-77.6,-23.3,-131.3,-5.6,23.7,-20.9,0.162724693,-0.60402234,-0.109653005,-0.772392956
998,2503103,1018310,1.152,0.192,-0.013,-77.6,-23.3,-131.3,-5.6,23.7,-20.9,0.162724693,-0.60402234,-0.109653005,-0.772392956
999,2505402,1018310,1.152,0.192,-0.013,-77.6,-23.3,-131.3,-5.6,23.7,-20.9,0.162724693,-0.60402234,-0.109653005,-0.772392956
1000,2506705,1018320,1.152,0.192,-0.013,-77.6,-23.3,-131.3,-5.6,23.7,-20.9,0.162724693,-0.60402234,-0.109653005,-0.772392956
1001,2509771,1018320,1.152,0.192,-0.013,-77.6,-23.3,-131.3,-5.6,23.7,-20.9,0.162724693,-0.60402234,-0.109653005,-0.772392956
1002,2512734,1018320,1.152,0.192,-0.013,-77.6,-23.3,-131.3,-5.6,23.7,-20.9,0.162724693,-0.60402234,-0.109653005,-0.772392956
1003,2514206,1018320,1.152,0.192,-0.013,-77.6,-23.3,-131.3,-5.6,23.7,-20.9,0.162724693,-0.60402234,-0.109653005,-0.772392956
