sample_index,elapsed_us,device_time_ms,acc_x_g,acc_y_g,acc_z_g,gyro_x_dps,gyro_y_dps,gyro_z_dps,mag_x_ut,mag_y_ut,mag_z_ut,quat_w,quat_x,quat_y,quat_z
0,6357,34860,0.944,0.332,0.11,0.1,0.7,-0.1,-9.2,-34.6,10.9,0.664784692,-0.078890347,-0.660756249,-0.339396344
1,8563,34870,0.944,0.332,0.114,0.1,0.9,-0.3,-9.2,-34.6,10.9,0.664784692,-0.078890347,-0.660756249,-0.339396344
2,10729,34870,0.948,0.332,0.106,0.1,1,-0.3,-9.2,-34.6,10.9,0.66481521,-0.078890347,-0.66072573,-0.339396344
3,13171,34870,0.944,0.328,0.11,0.1,1.1,-0.5,-8.9,-34.8,9.6,0.66481521,-0.0788598285,-0.66072573,-0.339396344
4,15554,34870,0.956,0.328,0.114,0,1.1,-0.5,-8.9,-34.8,9.6,0.66481521,-0.07882931,-0.660695212,-0.339426862
5,17498,34880,0.948,0.332,0.11,0,1.1,-0.6,-8.9,-34.8,9.6,0.664845729,-0.07882931,-0.660695212,-0.339426862
6,19951,34880,0.948,0.328,0.114,-0.1,1.1,-0.7,-8.9,-34.8,9.6,0.664845729,-0.0787987915,-0.660664693,-0.339426862
7,23670,34880,0.952,0.332,0.114,-0.1,1.2,-0.7,-8.9,-34.5,9.9,0.664876247,-0.0787987915,-0.660664693,-0.339457381
8,25908,34880,0.952,0.324,0.11,-0.2,1.2,-0.8,-8.9,-34.5,9.9,0.664876247,-0.078768273,-0.660634175,-0.339487899
9,28156,34890,0.952,0.324,0.114,-0.3,1.1,-0.8,-8.9,-34.5,9.9,0.664876247,-0.078768273,-0.660634175,-0.339487899
10,30208,34890,0.948,0.324,0.118,-0.4,0.9,-0.9,-8.9,-34.5,9.9,0.664876247,-0.0787072359,-0.660603656,-0.339518418
11,32463,34890,0.952,0.324,0.121,-0.4,0.7,-1,-9.1,-34.5,10,0.664876247,-0.0787072359,-0.660603656,-0.339548936
12,36459,34890,0.948,0.32,0.11,-0.4,0.6,-1.1,-9.1,-34.5,10,0.664876247,-0.0787072359,-0.660573138,-0.339548936
13,38701,34900,0.952,0.32,0.114,-0.3,0.4,-1.2,-9.1,-34.5,10,0.664876247,-0.0787072359,-0.660573138,-0.339579455
14,40886,34900,0.952,0.316,0.114,-0.3,0.4,-1.2,-9.1,-34.5,10,0.664876247,-0.0786767174,-0.660573138,-0.339609973
15,43146,34900,0.948,0.324,0.11,-0.4,0.2,-1.2,-9.1,-34.5,10,0.664967803,-0.0789208655,-0.660573138,-0.339426862
16,45099,34900,0.952,0.32,0.114,-0.4,0.2,-1.2,-9.1,-34.5,10,0.664937284,-0.0789208655,-0.660573138,-0.339457381
17,47406,34910,0.944,0.32,0.118,-0.4,0.1,-1,-9.1,-34.5,10,0.664937284,-0.078890347,-0.660542619,-0.339457381
18,49602,34910,0.948,0.316,0.114,-0.5,0,-0.9,-9.1,-34.5,10,0.664937284,-0.078890347,-0.660542619,-0.339487899
19,54395,34910,0.948,0.324,0.118,-0.7,-0.1,-0.7,-9.3,-34.6,10.7,0.664937284,-0.078890347,-0.660542619,-0.339518418
20,54707,34910,0.948,0.316,0.118,-0.7,-0.1,-0.5,-9.3,-34.6,10.7,0.664906766,-0.078890347,-0.660542619,-0.339518418
21,58856,34920,0.944,0.32,0.114,-0.6,-0.2,-0.3,-9.3,-34.6,10.7,0.664906766,-0.0789208655,-0.660542619,-0.339548936
22,61303,34920,0.948,0.32,0.114,-0.4,-0.2,0,-9.3,-34.6,10.7,0.664906766,-0.0789208655,-0.660542619,-0.339548936
23,63442,34920,0.944,0.324,0.118,-0.4,-0.2,0.1,-9.3,-34.8,10.5,0.664906766,-0.0789208655,-0.660542619,-0.339548936
24,65659,34920,0.944,0.324,0.118,-0.2,-0.2,0.3,-9.3,-34.8,10.5,0.664906766,-0.0789208655,-0.660542619,-0.339548936
25,67621,34930,0.94,0.328,0.118,-0.2,-0.2,0.6,-9.3,-34.8,10.5,0.664906766,-0.078951384,-0.660542619,-0.339548936
26,69782,34930,0.94,0.332,0.122,0,-0.2,0.8,-9.3,-34.8,10.5,0.664906766,-0.078951384,-0.660542619,-0.339518418
27,73830,34930,0.94,0.328,0.118,0.1,-0.2,0.9,-9.3,-34.5,10.2,0.664906766,-0.0789819025,-0.660542619,-0.339518418
28,75791,34930,0.944,0.336,0.118,0.5,-0.2,0.9,-9.3,-34.5,10.2,0.664906766,-0.0789819025,-0.660573138,-0.339487899
29,78335,34940,0.936,0.332,0.122,0.9,-0.1,0.8,-9.3,-34.5,10.2,0.664937284,-0.0789819025,-0.660573138,-0.339457381
30,80181,34940,0.94,0.336,0.126,1.2,0,0.7,-9.3,-34.5,10.2,0.664937284,-0.0789819025,-0.660573138,-0.339426862
31,83620,34940,0.94,0.336,0.122,1.4,0,0.5,-9.4,-34.8,10.6,0.664937284,-0.078951384,-0.660573138,-0.339396344
32,85684,34940,0.94,0.336,0.122,1.7,0.2,0.5,-9.4,-34.8,10.6,0.664937284,-0.078951384,-0.660603656,-0.339365825
33,87732,34950,0.94,0.332,0.122,1.9,0.4,0.2,-9.4,-34.8,10.6,0.664967803,-0.0789208655,-0.660603656,-0.339335307
34,90996,34950,0.94,0.34,0.118,2.2,0.4,0.2,-9.4,-34.8,10.6,0.664967803,-0.078890347,-0.660603656,-0.339304788
35,93448,34950,0.944,0.336,0.118,2.4,0.7,-0.1,-9.4,-34.8,10.6,0.665089877,-0.078951384,-0.660542619,-0.339213233
36,95172,34950,0.944,0.336,0.118,2.4,0.7,-0.1,-9.4,-34.8,10.6,0.665089877,-0.0789208655,-0.660542619,-0.339182714
37,97475,34960,0.948,0.336,0.122,2.5,0.9,-0.3,-9.4,-34.8,10.6,0.665120396,-0.0788598285,-0.660573138,-0.339152196
38,100718,34960,0.948,0.336,0.118,2.6,1.1,-0.5,-9.4,-34.8,10.6,0.665120396,-0.0787987915,-0.660573138,-0.339121677
39,102441,34960,0.948,0.34,0.122,2.7,1.3,-0.6,-9.2,-34.6,10,0.665150914,-0.078768273,-0.660573138,-0.339091159
40,104814,34960,0.948,0.332,0.118,2.8,1.6,-0.6,-9.2,-34.6,10,0.665181433,-0.0787072359,-0.660573138,-0.33906064
41,107503,34970,0.952,0.34,0.118,2.8,1.8,-0.7,-9.2,-34.6,10,0.665181433,-0.0786156804,-0.660573138,-0.339030122
42,110009,34970,0.952,0.328,0.118,2.8,1.9,-0.9,-9.2,-34.6,10,0.665211951,-0.0785546434,-0.660542619,-0.338999603
43,112364,34970,0.952,0.336,0.118,2.8,1.9,-1,-9.5,-34.9,9.5,0.66524247,-0.0784936064,-0.660542619,-0.338969085
44,116355,34970,0.956,0.332,0.118,2.7,2,-1.1,-9.5,-34.9,9.5,0.665272988,-0.0784020508,-0.660542619,-0.338969085
45,118723,34980,0.956,0.328,0.118,2.6,2.1,-1.1,-9.5,-34.9,9.5,0.665303507,-0.0783410138,-0.660542619,-0.338938566
46,120835,34980,0.96,0.336,0.118,2.6,2.3,-1.2,-9.5,-34.9,9.5,0.665334025,-0.0782799768,-0.660512101,-0.338938566
47,122773,34980,0.956,0.328,0.114,2.5,2.4,-1,-9.1,-34.7,9.9,0.665364544,-0.0781884213,-0.660512101,-0.338908048
48,126145,34980,0.956,0.336,0.118,2.5,2.3,-1,-9.1,-34.7,9.9,0.665395062,-0.0781273843,-0.660481582,-0.338877529
49,128389,34990,0.964,0.332,0.117,2.5,2.3,-0.9,-9.1,-34.7,9.9,0.665425581,-0.0780663472,-0.660481582,-0.338877529
50,130840,34990,0.96,0.336,0.118,2.3,2.3,-1,-9.1,-34.7,9.9,0.665456099,-0.0780053102,-0.660451064,-0.338847011
51,133772,34990,0.96,0.336,0.114,2.2,2.3,-1,-9.5,-34.5,9.7,0.665486618,-0.0779137547,-0.660451064,-0.338847011
52,135807,34990,0.96,0.332,0.117,2,2.3,-1,-9.5,-34.5,9.7,0.665517136,-0.0778527177,-0.660420545,-0.338847011
53,137502,35000,0.96,0.336,0.118,1.8,2.3,-0.9,-9.5,-34.5,9.7,0.665547655,-0.0777916807,-0.660420545,-0.338816492
54,139923,35000,0.96,0.336,0.118,1.8,2.3,-0.9,-9.5,-34.5,9.7,0.665547655,-0.0777916807,-0.660420545,-0.338816492
55,144093,35000,0.96,0.34,0.114,1.2,2,-0.7,-9.5,-34.5,9.7,0.66563921,-0.0778527177,-0.660390027,-0.338694418
56,144621,35000,0.96,0.34,0.114,1.2,2,-0.7,-9.5,-34.5,9.7,0.665669729,-0.0777916807,-0.660359508,-0.338694418
57,147140,35010,0.96,0.343,0.122,1,1.8,-0.5,-9.5,-34.5,9.7,0.665669729,-0.0777306436,-0.660359508,-0.338694418
58,151391,35010,0.956,0.339,0.118,0.8,1.6,-0.3,-9.5,-34.5,9.7,0.665700247,-0.0777306436,-0.66032899,-0.338694418
59,153251,35010,0.956,0.343,0.126,0.7,1.5,-0.3,-9.2,-34.4,10,0.665730766,-0.0777001251,-0.660298471,-0.338694418
60,155737,35010,0.956,0.339,0.122,0.7,1.5,-0.3,-9.2,-34.4,10,0.665761284,-0.0776696066,-0.660298471,-0.338694418
61,157591,35020,0.956,0.339,0.118,0.8,1.6,-0.5,-9.2,-34.4,10,0.665761284,-0.0776390881,-0.660267953,-0.338694418
62,161624,35020,0.956,0.339,0.122,0.9,1.6,-0.4,-9.2,-34.4,10,0.665791803,-0.0776085696,-0.660267953,-0.3386639
63,164004,35020,0.956,0.343,0.122,0.9,1.5,-0.4,-8.9,-34.3,10.7,0.665822321,-0.0775780511,-0.660237434,-0.3386639
64,166189,35020,0.956,0.343,0.122,0.8,1.5,-0.2,-8.9,-34.3,10.7,0.665822321,-0.0775475326,-0.660237434,-0.3386639
65,168009,35030,0.952,0.339,0.126,0.8,1.6,-0.2,-8.9,-34.3,10.7,0.66585284,-0.0775170141,-0.660206915,-0.3386639
66,170668,35030,0.956,0.34,0.114,0.8,1.7,0,-8.9,-34.3,10.7,0.665883358,-0.0774864956,-0.660206915,-0.3386639
67,172292,35030,0.948,0.336,0.122,0.8,1.8,-0.1,-8.9,-34,10.4,0.665913877,-0.0774864956,-0.660176397,-0.338633381
68,176485,35030,0.948,0.336,0.122,0.9,1.8,-0.2,-8.9,-34,10.4,0.665944395,-0.0774559771,-0.660145878,-0.338633381
69,178433,35040,0.948,0.336,0.122,1,1.8,-0.3,-8.9,-34,10.4,0.665974914,-0.07739494,-0.660145878,-0.338633381
70,181099,35040,0.948,0.336,0.122,1,1.8,-0.3,-8.9,-34,10.4,0.665974914,-0.07739494,-0.660145878,-0.338633381
71,183596,35040,0.944,0.332,0.122,1.3,2,-0.7,-9,-34.5,10.4,0.666005432,-0.077333903,-0.660084841,-0.338633381
72,185728,35040,0.944,0.336,0.122,1.5,2.2,-0.8,-9,-34.5,10.4,0.666035951,-0.0772423475,-0.660084841,-0.338602863
73,187304,35050,0.936,0.328,0.126,1.7,2.3,-0.9,-9,-34.5,10.4,0.666066469,-0.077211829,-0.660054323,-0.338602863
74,192495,35050,0.94,0.328,0.122,1.9,2.3,-0.8,-9,-34.5,10.4,0.666096988,-0.077150792,-0.660054323,-0.338602863
75,192495,35050,0.936,0.328,0.118,2,2.6,-0.9,-9,-34.5,10.4,0.666188543,-0.077211829,-0.659993286,-0.338511307
76,196885,35050,0.94,0.332,0.122,2,2.6,-0.9,-9,-34.5,10.4,0.666219062,-0.077150792,-0.659962767,-0.338480789
77,197233,35060,0.936,0.332,0.122,2,2.7,-0.8,-9,-34.5,10.4,0.666280099,-0.0770897549,-0.659932249,-0.338480789
78,201347,35060,0.94,0.332,0.118,2,2.6,-0.7,-9,-34.5,10.4,0.666310617,-0.0770287179,-0.659932249,-0.338480789
79,203565,35060,0.94,0.328,0.122,2.1,2.5,-0.6,-9.4,-34.5,9.5,0.666341136,-0.0769676809,-0.65990173,-0.33845027
80,205822,35060,0.94,0.328,0.114,2.1,2.5,-0.4,-9.4,-34.5,9.5,0.666371654,-0.0769066439,-0.659871212,-0.338419752
81,208231,35070,0.936,0.336,0.122,2.1,2.6,-0.5,-9.4,-34.5,9.5,0.666402173,-0.0768456069,-0.659871212,-0.338419752
82,210984,35070,0.936,0.336,0.122,2.1,2.6,-0.6,-9.4,-34.5,9.5,0.66646321,-0.0767540513,-0.659840693,-0.338358715
83,213353,35070,0.933,0.336,0.126,2.1,2.6,-0.6,-8.8,-34.3,9.6,0.666493728,-0.0767235328,-0.659810175,-0.338358715
84,215728,35070,0.936,0.336,0.126,2.1,2.6,-0.5,-8.8,-34.3,9.6,0.666524247,-0.0766624958,-0.659779656,-0.338358715
85,218604,35080,0.936,0.336,0.122,2.1,2.7,-0.2,-8.8,-34.3,9.6,0.666585284,-0.0766014588,-0.659779656,-0.338328196
86,220858,35080,0.936,0.336,0.126,2.1,2.6,0.1,-8.8,-34.3,9.6,0.666615802,-0.0765709403,-0.659749138,-0.338297678
87,223147,35080,0.936,0.336,0.13,2,2.5,0.4,-9.4,-34.6,10,0.666646321,-0.0765099033,-0.659718619,-0.338267159
88,225089,35080,0.929,0.34,0.126,2,2.5,0.6,-9.4,-34.6,10,0.666707358,-0.0764793847,-0.659688101,-0.338236641
89,229059,35090,0.929,0.34,0.126,2,2.5,0.6,-9.4,-34.6,10,0.666707358,-0.0764793847,-0.659688101,-0.338236641
90,231282,35090,0.933,0.34,0.122,1.9,2.6,0.5,-9.4,-34.6,10,0.666798914,-0.0763878292,-0.659657582,-0.338175604
91,233590,35090,0.936,0.344,0.122,1.9,2.6,0.4,-9.1,-34.3,9.6,0.666829432,-0.0763573107,-0.659627064,-0.338145085
92,235546,35090,0.936,0.34,0.122,1.9,2.6,0.4,-9.1,-34.3,9.6,0.666890469,-0.0763267922,-0.659596545,-0.338114566
93,237536,35100,0.933,0.34,0.126,1.9,2.7,0.4,-9.1,-34.3,9.6,0.666920988,-0.0762657552,-0.659566027,-0.338084048
94,239875,35100,0.933,0.344,0.118,1.9,2.8,0.5,-9.1,-34.3,9.6,0.666982025,-0.0762352367,-0.659535508,-0.338053529
95,242774,35100,0.933,0.348,0.122,1.9,2.7,0.6,-9.1,-34.3,9.6,0.66707358,-0.0762352367,-0.659474471,-0.337992492
96,244980,35100,0.933,0.348,0.122,1.9,2.7,0.6,-9.1,-34.3,9.6,0.667104099,-0.0762047182,-0.659443953,-0.337961974
97,247298,35110,0.933,0.348,0.122,1.9,2.7,0.6,-9.1,-34.3,9.6,0.667165136,-0.0761436811,-0.659443953,-0.337931455
98,249632,35110,0.936,0.344,0.122,2,2.6,0.6,-9.1,-34.3,9.6,0.667195654,-0.0761131626,-0.659413434,-0.337900937
99,252200,35110,0.936,0.347,0.126,2.1,2.6,0.5,-9.7,-34.7,9,0.667256691,-0.0760826441,-0.659382916,-0.337870418
100,255710,35110,0.94,0.347,0.122,2.3,2.5,0.4,-9.7,-34.7,9,0.66728721,-0.0760216071,-0.659352397,-0.337809381
101,258346,35120,0.936,0.348,0.122,2.4,2.5,0.3,-9.7,-34.7,9,0.667348247,-0.0759910886,-0.659352397,-0.337778863
102,260602,35120,0.936,0.34,0.126,2.5,2.4,0.2,-9.7,-34.7,9,0.667378765,-0.0759300516,-0.659321879,-0.337748344
103,264221,35120,0.936,0.344,0.122,2.4,2.4,0.1,-9.6,-34.6,10.4,0.667409284,-0.0758690146,-0.659321879,-0.337717826
104,264780,35120,0.933,0.336,0.122,2.5,2.5,0.1,-9.6,-34.6,10.4,0.667470321,-0.075838496,-0.65929136,-0.337687307
105,267351,35130,0.933,0.34,0.122,2.5,2.6,0,-9.6,-34.6,10.4,0.667500839,-0.075777459,-0.659260842,-0.337656789
106,269633,35130,0.936,0.34,0.126,2.5,2.5,0,-9.6,-34.6,10.4,0.667531358,-0.075716422,-0.659260842,-0.33762627
107,274174,35130,0.936,0.34,0.126,2.5,2.4,-0.2,-9.7,-34.8,9.8,0.667592395,-0.075655385,-0.659230323,-0.337595752
108,274598,35130,0.936,0.336,0.122,2.6,2.3,-0.4,-9.7,-34.8,9.8,0.667622913,-0.075594348,-0.659230323,-0.337565233
109,277326,35140,0.936,0.336,0.122,2.8,2.2,-0.5,-9.7,-34.8,9.8,0.667653432,-0.075533311,-0.659199805,-0.337534715
110,281673,35140,0.936,0.34,0.122,2.8,2.1,-0.5,-9.7,-34.8,9.8,0.66768395,-0.0754722739,-0.659199805,-0.337504196
111,283898,35140,0.936,0.34,0.126,2.9,2,-0.4,-9.6,-34.8,9.7,0.667714469,-0.0754112369,-0.659199805,-0.337473678
112,286185,35140,0.936,0.34,0.126,2.9,2,-0.4,-9.6,-34.8,9.7,0.667714469,-0.0754112369,-0.659199805,-0.337473678
113,288448,35150,0.936,0.336,0.122,2.9,2.1,-0.5,-9.6,-34.8,9.7,0.667775506,-0.0752586444,-0.659169286,-0.337412641
114,290212,35150,0.94,0.336,0.126,3,2.3,-0.5,-9.6,-34.8,9.7,0.667806024,-0.0751976073,-0.659169286,-0.337382122
115,292509,35150,0.933,0.332,0.122,3.1,2.3,-0.2,-9.6,-34.8,9.7,0.667928098,-0.0752281259,-0.659077731,-0.337260048
116,297243,35150,0.936,0.34,0.122,3.1,2.3,-0.2,-9.6,-34.8,9.7,0.667958617,-0.0751670888,-0.659077731,-0.33722953
117,297243,35160,0.933,0.34,0.122,3.1,2.3,-0.2,-9.6,-34.8,9.7,0.668019654,-0.0751060518,-0.659077731,-0.337199011
118,299845,35160,0.933,0.34,0.122,3.2,2.1,-0.3,-9.6,-34.8,9.7,0.668050172,-0.0750450148,-0.659077731,-0.337137974
119,303809,35160,0.929,0.34,0.122,3.4,2.1,-0.3,-9.7,-34.9,9,0.668080691,-0.0749534593,-0.659047212,-0.337107456
120,306059,35160,0.933,0.336,0.122,3.4,2,-0.3,-9.7,-34.9,9,0.668111209,-0.0748924223,-0.659047212,-0.337076937
121,308159,35170,0.933,0.336,0.122,3.2,1.8,-0.3,-9.7,-34.9,9,0.668141728,-0.0748008667,-0.659047212,-0.337046419
122,310342,35170,0.933,0.336,0.122,2.9,1.7,-0.3,-9.7,-34.9,9,0.668172246,-0.0747703482,-0.659047212,-0.336985382
123,312391,35170,0.933,0.336,0.122,2.7,1.6,-0.4,-9.5,-34,10.3,0.668202765,-0.0747093112,-0.659047212,-0.336954863
124,316399,35170,0.936,0.336,0.122,2.5,1.5,-0.5,-9.5,-34,10.3,0.668202765,-0.0746482742,-0.659047212,-0.336954863
125,318694,35180,0.933,0.34,0.122,2.2,1.5,-0.5,-9.5,-34,10.3,0.668233283,-0.0745872372,-0.659047212,-0.336924345
126,320637,35180,0.936,0.344,0.122,1.9,1.5,-0.5,-9.5,-34,10.3,0.668263802,-0.0745567186,-0.659016694,-0.336893826
127,322641,35180,0.936,0.336,0.122,1.6,1.5,-0.4,-9.5,-34.7,10.1,0.668263802,-0.0745262001,-0.659016694,-0.336893826
128,324948,35180,0.936,0.34,0.126,1.5,1.3,-0.4,-9.5,-34.7,10.1,0.668294321,-0.0744651631,-0.659016694,-0.336863308
129,327238,35190,0.933,0.344,0.126,1.3,1.2,-0.3,-9.5,-34.7,10.1,0.668324839,-0.0744346446,-0.659016694,-0.336863308
130,332264,35190,0.936,0.336,0.122,1.2,1,-0.2,-9.5,-34.7,10.1,0.668324839,-0.0744041261,-0.658986175,-0.336863308
131,332264,35190,0.933,0.336,0.126,1.1,0.8,0,-9.6,-34.5,10.3,0.668355358,-0.0743736076,-0.658986175,-0.336832789
132,336654,35190,0.94,0.34,0.122,0.9,0.6,0,-9.6,-34.5,10.3,0.668355358,-0.0743736076,-0.658986175,-0.336832789
133,338821,35200,0.94,0.343,0.126,0.9,0.4,0.1,-9.6,-34.5,10.3,0.668355358,-0.0743125706,-0.658986175,-0.336802271
134,340957,35200,0.933,0.344,0.126,0.9,0.2,0.1,-9.6,-34.5,10.3,0.668355358,-0.0743125706,-0.658986175,-0.336802271
135,343252,35200,0.936,0.347,0.126,1,0,0.3,-9.6,-34.5,10.3,0.668416395,-0.0744041261,-0.658955657,-0.336741234
136,345379,35200,0.936,0.347,0.13,1,0,0.3,-9.6,-34.5,10.3,0.668416395,-0.0743736076,-0.658955657,-0.336710715
137,347403,35210,0.936,0.351,0.13,1.1,0,0.4,-9.6,-34.5,10.3,0.668446913,-0.0743736076,-0.658986175,-0.336680197
138,350172,35210,0.936,0.351,0.126,1.2,0,0.8,-9.6,-34.5,10.3,0.668446913,-0.0743736076,-0.658986175,-0.336649678
139,352336,35210,0.94,0.355,0.126,1.4,0,1,-9.3,-34.6,9.5,0.668446913,-0.0743125706,-0.658986175,-0.33661916
140,354771,35210,0.94,0.351,0.13,1.4,0.2,1.1,-9.3,-34.6,9.5,0.668477432,-0.0743125706,-0.658986175,-0.336588641
141,358341,35220,0.94,0.355,0.13,1.5,0.4,1.3,-9.3,-34.6,9.5,0.668477432,-0.0743125706,-0.658986175,-0.336558123
142,360048,35220,0.944,0.359,0.13,1.7,0.5,1.5,-9.3,-34.6,9.5,0.66850795,-0.0743125706,-0.658986175,-0.336497085
143,363445,35220,0.948,0.355,0.13,1.8,0.4,1.5,-9.2,-34.8,9.9,0.668538469,-0.0743125706,-0.659016694,-0.336466567
144,365795,35220,0.948,0.359,0.13,2,0.4,1.3,-9.2,-34.8,9.9,0.668538469,-0.0743125706,-0.659016694,-0.33640553
145,368779,35230,0.952,0.355,0.13,2.1,0.5,1,-9.2,-34.8,9.9,0.668568987,-0.0742820521,-0.659016694,-0.336375011
146,370838,35230,0.952,0.355,0.13,2.3,0.5,0.5,-9.2,-34.8,9.9,0.668599506,-0.0742515336,-0.659016694,-0.336313974
147,372708,35230,0.948,0.347,0.13,2.4,0.5,0.2,-9.3,-34.5,9.6,0.668599506,-0.074221015,-0.659047212,-0.336283456
148,376807,35230,0.952,0.347,0.13,2.5,0.4,-0.2,-9.3,-34.5,9.6,0.668599506,-0.0741904965,-0.659047212,-0.336252937
149,377170,35240,0.952,0.351,0.13,2.5,0.4,-0.8,-9.3,-34.5,9.6,0.668599506,-0.0741294595,-0.659047212,-0.336222419
150,381515,35240,0.948,0.347,0.13,2.5,0.3,-1.2,-9.3,-34.5,9.6,0.668599506,-0.0740684225,-0.659077731,-0.336222419
151,383515,35240,0.948,0.343,0.126,2.5,0.3,-1.6,-9.3,-34.5,9.8,0.668599506,-0.0740073855,-0.659077731,-0.3361919
152,385794,35240,0.948,0.339,0.13,2.3,0.3,-1.9,-9.3,-34.5,9.8,0.668599506,-0.0739463485,-0.659108249,-0.3361919
153,389300,35250,0.944,0.332,0.13,2.2,0.4,-1.9,-9.3,-34.5,9.8,0.668599506,-0.0738853114,-0.659108249,-0.3361919
154,389670,35250,0.944,0.332,0.13,2,0.4,-2,-9.3,-34.5,9.8,0.668599506,-0.0738242744,-0.659138768,-0.3361919
155,392320,35250,0.944,0.328,0.129,1.8,0.4,-1.9,-9.3,-34.5,9.8,0.668660543,-0.0738242744,-0.659108249,-0.336130863
156,396742,35250,0.944,0.328,0.129,1.6,0.4,-1.9,-9.3,-34.5,9.8,0.668660543,-0.0737937559,-0.659108249,-0.336130863
157,399048,35260,0.936,0.328,0.13,1.4,0.3,-2,-9.3,-34.5,9.8,0.668630024,-0.0737327189,-0.659108249,-0.336161382
158,401237,35260,0.94,0.328,0.126,1.1,0.1,-2.1,-9.3,-34.5,9.8,0.668630024,-0.0737022004,-0.659138768,-0.336161382
159,403380,35260,0.936,0.328,0.13,0.8,0.2,-2,-9.1,-34.7,9.5,0.668630024,-0.0736411634,-0.659138768,-0.3361919
160,405633,35260,0.94,0.324,0.126,0.3,0.4,-1.9,-9.1,-34.7,9.5,0.668599506,-0.0736106449,-0.659138768,-0.336222419
161,407357,35270,0.936,0.328,0.13,0,0.4,-1.7,-9.1,-34.7,9.5,0.668599506,-0.0735801263,-0.659138768,-0.336222419
162,409676,35270,0.936,0.332,0.13,-0.2,0.4,-1.4,-9.1,-34.7,9.5,0.668599506,-0.0735496078,-0.659108249,-0.336252937
163,412320,35270,0.936,0.324,0.126,-0.5,0.2,-0.9,-8.9,-34.6,10.2,0.668599506,-0.0735496078,-0.659108249,-0.336283456
164,417071,35270,0.936,0.328,0.13,-0.8,0.1,-0.7,-8.9,-34.6,10.2,0.668599506,-0.0735496078,-0.659108249,-0.336313974
165,417503,35280,0.936,0.328,0.13,-1,0,-0.5,-8.9,-34.6,10.2,0.668599506,-0.0735496078,-0.659108249,-0.336313974
166,419964,35280,0.936,0.328,0.13,-1,0,-0.5,-8.9,-34.6,10.2,0.668599506,-0.0735496078,-0.659108249,-0.336313974
167,423744,35280,0.94,0.336,0.13,-1.2,-0.1,-0.1,-9,-34.3,9.5,0.668568987,-0.0735801263,-0.659077731,-0.336375011
168,426007,35280,0.94,0.332,0.13,-1.3,-0.2,0.1,-9,-34.3,9.5,0.668568987,-0.0736106449,-0.659077731,-0.336375011
169,428275,35290,0.936,0.336,0.13,-1.4,-0.3,0.2,-9,-34.3,9.5,0.668568987,-0.0736411634,-0.659077731,-0.33640553
170,430129,35290,0.94,0.336,0.13,-1.5,-0.4,0.3,-9,-34.3,9.5,0.668568987,-0.0736716819,-0.659077731,-0.33640553
171,434338,35290,0.936,0.34,0.13,-1.6,-0.5,0.4,-9.1,-34.7,10,0.668568987,-0.0737022004,-0.659047212,-0.33640553
172,434833,35290,0.936,0.34,0.13,-1.6,-0.5,0.4,-9.1,-34.7,10,0.668538469,-0.0737327189,-0.659047212,-0.33640553
173,437061,35300,0.94,0.34,0.13,-1.6,-0.5,0.5,-9.1,-34.7,10,0.668538469,-0.0737632374,-0.659047212,-0.336466567
174,441926,35300,0.936,0.343,0.134,-1.5,-0.5,0.5,-9.1,-34.7,10,0.668538469,-0.0737937559,-0.659047212,-0.336466567
175,442255,35300,0.936,0.347,0.134,-1.2,-0.4,0.5,-9.1,-34.7,10,0.668630024,-0.0738853114,-0.658955657,-0.336466567
176,446396,35300,0.936,0.347,0.134,-1.2,-0.4,0.5,-9.1,-34.7,10,0.668630024,-0.0738853114,-0.658955657,-0.336466567
177,448666,35310,0.936,0.343,0.13,-0.6,-0.4,0.9,-9.1,-34.7,10,0.668599506,-0.0739463485,-0.658955657,-0.336466567
178,450966,35310,0.936,0.351,0.13,-0.4,-0.3,1,-9.1,-34.7,10,0.668630024,-0.073976867,-0.658955657,-0.336466567
179,453075,35310,0.94,0.343,0.126,-0.2,-0.3,1,-9,-34.4,9.7,0.668630024,-0.073976867,-0.658955657,-0.33640553
180,455045,35310,0.936,0.347,0.126,0,-0.1,1,-9,-34.4,9.7,0.668630024,-0.0740073855,-0.658955657,-0.33640553
181,457398,35320,0.94,0.351,0.122,0.2,0,0.9,-9,-34.4,9.7,0.668630024,-0.0740073855,-0.658955657,-0.33640553
182,461307,35320,0.944,0.351,0.126,0.3,0.2,0.9,-9,-34.4,9.7,0.668630024,-0.074037904,-0.658955657,-0.33640553
183,463609,35320,0.94,0.347,0.13,0.3,0.4,0.7,-9.2,-34.4,9.7,0.668660543,-0.074037904,-0.658955657,-0.336375011
184,465935,35320,0.94,0.347,0.122,0.4,0.6,0.5,-9.2,-34.4,9.7,0.668660543,-0.074037904,-0.658955657,-0.336375011
185,467812,35330,0.94,0.347,0.122,0.4,0.7,0.3,-9.2,-34.4,9.7,0.668691061,-0.0740073855,-0.658925138,-0.336344493
186,470011,35330,0.948,0.347,0.126,0.4,0.8,0,-9.2,-34.4,9.7,0.668691061,-0.0740073855,-0.658925138,-0.336344493
187,472338,35330,0.944,0.343,0.126,0.3,0.8,-0.2,-9.3,-34.5,9.7,0.66872158,-0.073976867,-0.658925138,-0.336344493
188,476376,35330,0.94,0.343,0.126,0.3,0.9,-0.4,-9.3,-34.5,9.7,0.66872158,-0.073976867,-0.65889462,-0.336344493
189,478426,35340,0.94,0.343,0.13,0.3,0.9,-0.7,-9.3,-34.5,9.7,0.66872158,-0.0739463485,-0.65889462,-0.336344493
190,480741,35340,0.944,0.343,0.13,0.3,0.9,-0.9,-9.3,-34.5,9.7,0.66872158,-0.07391583,-0.65889462,-0.336375011
191,482561,35340,0.944,0.339,0.13,0.3,1,-0.9,-9.2,-34.9,9.5,0.668752098,-0.0738853114,-0.658864101,-0.336375011
192,484796,35340,0.944,0.343,0.126,0.4,0.9,-0.8,-9.2,-34.9,9.5,0.668752098,-0.0738853114,-0.658864101,-0.336375011
193,489912,35350,0.944,0.336,0.13,0.4,0.9,-0.7,-9.2,-34.9,9.5,0.668752098,-0.0738242744,-0.658864101,-0.33640553
194,489912,35350,0.944,0.34,0.126,0.4,0.8,-0.7,-9.2,-34.9,9.5,0.668752098,-0.0738242744,-0.658864101,-0.33640553
195,492527,35350,0.944,0.34,0.126,0.4,0.8,-0.9,-9.2,-34.9,9.5,0.668843654,-0.0738853114,-0.658772546,-0.336344493
196,496547,35350,0.944,0.34,0.126,0.4,0.9,-1.1,-9.2,-34.9,9.5,0.668843654,-0.0738242744,-0.658772546,-0.336344493
197,498765,35360,0.944,0.336,0.13,0.3,1,-1.2,-9.2,-34.9,9.5,0.668874172,-0.0738242744,-0.658772546,-0.336375011
198,501027,35360,0.94,0.332,0.126,0.1,0.9,-1.2,-9.2,-34.9,9.5,0.668874172,-0.0737937559,-0.658742027,-0.336375011
199,503236,35360,0.94,0.336,0.126,0,0.8,-1.4,-8.7,-34.5,10,0.668874172,-0.0737937559,-0.658742027,-0.33640553
200,507096,35360,0.944,0.336,0.13,0,0.7,-1.3,-8.7,-34.5,10,0.668874172,-0.0737632374,-0.658742027,-0.33640553
201,507514,35370,0.94,0.332,0.126,0,0.6,-1.2,-8.7,-34.5,10,0.668874172,-0.0737327189,-0.658742027,-0.33640553
202,509797,35370,0.944,0.332,0.122,0,0.6,-1.1,-8.7,-34.5,10,0.668874172,-0.0737022004,-0.658711509,-0.336466567
203,514029,35370,0.94,0.332,0.126,0,0.6,-1.2,-9,-34.3,10,0.668874172,-0.0736716819,-0.658711509,-0.336497085
204,514633,35370,0.944,0.328,0.122,-0.1,0.4,-1.3,-9,-34.3,10,0.668874172,-0.0736716819,-0.658711509,-0.336497085
205,517209,35380,0.944,0.332,0.126,-0.3,0.4,-1.3,-9,-34.3,10,0.668874172,-0.0736411634,-0.658711509,-0.336527604
206,521525,35380,0.94,0.332,0.122,-0.5,0.3,-1.2,-9,-34.3,10,0.668874172,-0.0736411634,-0.65868099,-0.336558123
207,523788,35380,0.94,0.332,0.122,-0.8,0.2,-1,-8.8,-34.4,10,0.668843654,-0.0736411634,-0.65868099,-0.336588641
208,526081,35380,0.944,0.332,0.126,-1,0.1,-0.8,-8.8,-34.4,10,0.668843654,-0.0736411634,-0.65868099,-0.33661916
209,528103,35390,0.944,0.336,0.126,-1.1,0.2,-0.8,-8.8,-34.4,10,0.668843654,-0.0736411634,-0.65868099,-0.336649678
210,530070,35390,0.944,0.332,0.126,-1.2,0.3,-0.7,-8.8,-34.4,10,0.668843654,-0.0736411634,-0.658650472,-0.336680197
211,534114,35390,0.94,0.332,0.126,-1,0.2,-0.7,-9,-34.2,9.9,0.668843654,-0.0736411634,-0.658650472,-0.336710715
212,536372,35390,0.944,0.328,0.126,-0.9,0.1,-0.7,-9,-34.2,9.9,0.668843654,-0.0736411634,-0.658650472,-0.336710715
213,538544,35400,0.944,0.336,0.126,-0.9,0,-0.6,-9,-34.2,9.9,0.668813135,-0.0736411634,-0.658619953,-0.336741234
214,541569,35400,0.94,0.332,0.126,-0.8,0,-0.5,-9,-34.2,9.9,0.668813135,-0.0736411634,-0.658619953,-0.336771752
215,543626,35400,0.94,0.34,0.13,-0.7,-0.2,-0.5,-9,-34.2,9.9,0.668904691,-0.0738242744,-0.658589434,-0.336649678
216,545904,35400,0.94,0.34,0.13,-0.6,-0.3,-0.4,-9,-34.2,9.9,0.668904691,-0.0738242744,-0.658589434,-0.336649678
217,548164,35410,0.94,0.336,0.126,-0.5,-0.3,-0.2,-9,-34.2,9.9,0.668904691,-0.0738242744,-0.658589434,-0.336680197
218,551196,35410,0.94,0.34,0.126,-0.4,-0.2,-0.2,-9,-34.2,9.9,0.668904691,-0.0738242744,-0.658589434,-0.336680197
219,553426,35410,0.94,0.34,0.13,-0.2,0,-0.1,-9.4,-34.4,10.3,0.668874172,-0.0738853114,-0.658589434,-0.336680197
220,555207,35410,0.94,0.34,0.13,-0.1,0,-0.1,-9.4,-34.4,10.3,0.668874172,-0.0738853114,-0.658589434,-0.336680197
221,557379,35420,0.94,0.34,0.126,0,0,0,-9.4,-34.4,10.3,0.668874172,-0.0738853114,-0.658589434,-0.336680197
222,559796,35420,0.94,0.34,0.13,0,0.1,0.1,-9.4,-34.4,10.3,0.668874172,-0.0738853114,-0.658558916,-0.336680197
223,564608,35420,0.944,0.34,0.126,0,0.2,0.3,-9,-34.4,9.8,0.668904691,-0.0738853114,-0.658558916,-0.336680197
224,565795,35420,0.944,0.343,0.126,0,0.2,0.4,-9,-34.4,9.8,0.668904691,-0.0738853114,-0.658558916,-0.336680197
225,568329,35430,0.94,0.343,0.126,0.1,0.4,0.3,-9,-34.4,9.8,0.668904691,-0.0738853114,-0.658558916,-0.336680197
226,570999,35430,0.948,0.343,0.126,0.1,0.5,0.1,-9,-34.4,9.8,0.668935209,-0.0738853114,-0.658558916,-0.336680197
227,573404,35430,0.948,0.339,0.126,0.1,0.7,0,-9.6,-34.7,9.8,0.668935209,-0.0738242744,-0.658528397,-0.336649678
228,576036,35430,0.944,0.339,0.13,0.2,0.7,-0.1,-9.6,-34.7,9.8,0.668935209,-0.0738242744,-0.658528397,-0.336649678
229,578303,35440,0.948,0.343,0.13,0.3,0.9,-0.3,-9.6,-34.7,9.8,0.668935209,-0.0738242744,-0.658528397,-0.336680197
230,580620,35440,0.952,0.339,0.126,0.6,1,-0.5,-9.6,-34.7,9.8,0.668935209,-0.0738242744,-0.658528397,-0.336680197
231,582277,35440,0.948,0.339,0.13,0.6,1,-0.8,-9.1,-34.8,9.8,0.668935209,-0.0737937559,-0.658497879,-0.336680197
232,584896,35440,0.948,0.339,0.13,0.6,1,-0.8,-9.1,-34.8,9.8,0.668935209,-0.0737937559,-0.658497879,-0.336680197
233,588563,35450,0.948,0.339,0.13,0.6,1,-0.8,-9.1,-34.8,9.8,0.668935209,-0.0737937559,-0.658497879,-0.336680197
234,590753,35450,0.952,0.335,0.126,0.4,1,-1.2,-9.1,-34.8,9.8,0.668996246,-0.0736716819,-0.65846736,-0.336710715
235,593203,35450,0.952,0.343,0.13,0.3,1,-1.3,-9.1,-34.8,9.8,0.669057283,-0.0737632374,-0.658436842,-0.33661916
236,595077,35450,0.948,0.339,0.13,0.2,1,-1.3,-9.1,-34.8,9.8,0.669087802,-0.0737327189,-0.658406323,-0.336649678
237,599120,35460,0.952,0.335,0.129,0.1,0.9,-1.2,-9.1,-34.8,9.8,0.669087802,-0.0737022004,-0.658406323,-0.336649678
238,601326,35460,0.948,0.336,0.126,0.1,0.7,-1.3,-9.1,-34.8,9.8,0.669087802,-0.0736716819,-0.658406323,-0.336680197
239,603564,35460,0.944,0.328,0.122,0,0.6,-1.4,-9.3,-34.5,10,0.669087802,-0.0736716819,-0.658406323,-0.336710715
240,605819,35460,0.948,0.336,0.126,0,0.7,-1.5,-9.3,-34.5,10,0.669087802,-0.0736411634,-0.658375805,-0.336710715
241,607658,35470,0.944,0.332,0.126,-0.1,0.6,-1.6,-9.3,-34.5,10,0.669087802,-0.0736106449,-0.658375805,-0.336741234
242,611759,35470,0.944,0.328,0.118,-0.4,0.6,-1.7,-9.3,-34.5,10,0.669087802,-0.0735801263,-0.658375805,-0.336771752
243,612287,35470,0.948,0.332,0.126,-0.5,0.5,-1.7,-9,-34.3,9.9,0.669057283,-0.0735496078,-0.658345286,-0.336832789
244,614702,35470,0.948,0.328,0.125,-0.7,0.4,-1.6,-9,-34.3,9.9,0.669057283,-0.0735496078,-0.658345286,-0.336863308
245,617365,35480,0.944,0.328,0.126,-0.8,0.3,-1.6,-9,-34.3,9.9,0.669057283,-0.0735190893,-0.658345286,-0.336893826
246,621292,35480,0.944,0.336,0.126,-1,0.2,-1.5,-9,-34.3,9.9,0.669057283,-0.0735190893,-0.658345286,-0.336924345
247,623614,35480,0.94,0.336,0.126,-1.3,0.1,-1.4,-9.2,-34.5,9.8,0.669026765,-0.0735190893,-0.658314768,-0.336954863
248,625709,35480,0.944,0.336,0.126,-1.5,0,-1.2,-9.2,-34.5,9.8,0.669026765,-0.0735190893,-0.658314768,-0.3370159
249,627721,35490,0.944,0.336,0.13,-1.7,-0.2,-1.1,-9.2,-34.5,9.8,0.668996246,-0.0735496078,-0.658314768,-0.337046419
250,629981,35490,0.944,0.332,0.126,-1.7,-0.4,-1,-9.2,-34.5,9.8,0.668996246,-0.0735496078,-0.658314768,-0.337076937
251,634177,35490,0.94,0.332,0.126,-1.7,-0.4,-0.9,-9.1,-33.9,10.2,0.668935209,-0.0735801263,-0.658284249,-0.337137974
252,634624,35490,0.944,0.339,0.13,-1.6,-0.5,-0.7,-9.1,-33.9,10.2,0.668935209,-0.0735801263,-0.658284249,-0.337168493
253,638962,35500,0.94,0.34,0.13,-1.5,-0.5,-0.5,-9.1,-33.9,10.2,0.668935209,-0.0736106449,-0.658284249,-0.337199011
254,641139,35500,0.94,0.34,0.13,-1.4,-0.6,-0.4,-9.1,-33.9,10.2,0.668935209,-0.0736106449,-0.658284249,-0.33722953
255,643277,35500,0.936,0.343,0.13,-1.3,-0.5,-0.3,-9.1,-33.9,10.2,0.668996246,-0.0737327189,-0.658253731,-0.337168493
256,645665,35500,0.936,0.343,0.13,-1.2,-0.5,-0.2,-9.1,-33.9,10.2,0.668935209,-0.0737632374,-0.658253731,-0.337199011
257,647536,35510,0.94,0.343,0.13,-1.1,-0.5,-0.2,-9.1,-33.9,10.2,0.668935209,-0.0737937559,-0.658253731,-0.337199011
258,649881,35510,0.936,0.343,0.13,-0.9,-0.5,-0.2,-9.1,-33.9,10.2,0.668935209,-0.0737937559,-0.658253731,-0.33722953
259,653858,35510,0.94,0.343,0.13,-0.6,-0.6,-0.2,-8.7,-34.5,9.5,0.668935209,-0.0737937559,-0.658253731,-0.33722953
260,656030,35510,0.933,0.347,0.13,-0.4,-0.6,-0.2,-8.7,-34.5,9.5,0.668935209,-0.0738242744,-0.658253731,-0.337260048
261,658326,35520,0.933,0.347,0.13,-0.2,-0.5,-0.2,-8.7,-34.5,9.5,0.668904691,-0.0738242744,-0.658253731,-0.337260048
262,660623,35520,0.936,0.351,0.126,-0.1,-0.3,-0.2,-8.7,-34.5,9.5,0.668904691,-0.0738242744,-0.658253731,-0.337260048
263,662525,35520,0.936,0.351,0.126,0,-0.1,-0.1,-8.8,-35,10,0.668904691,-0.0738242744,-0.658253731,-0.337260048
264,664609,35520,0.936,0.347,0.13,0,0,0,-8.8,-35,10,0.668904691,-0.0738242744,-0.658253731,-0.337260048
265,667348,35530,0.933,0.351,0.126,0,0,0,-8.8,-35,10,0.668904691,-0.0738242744,-0.658253731,-0.337260048
266,669626,35530,0.929,0.348,0.126,0,0,0,-8.8,-35,10,0.668904691,-0.0738242744,-0.658253731,-0.337260048
267,674013,35530,0.933,0.348,0.126,0,0,0,-8.9,-34.7,10.1,0.668904691,-0.0738242744,-0.658253731,-0.337260048
268,676284,35530,0.929,0.355,0.126,0,0,0,-8.9,-34.7,10.1,0.668904691,-0.0738242744,-0.658253731,-0.337260048
269,678392,35540,0.933,0.351,0.122,-0.1,0.1,0,-8.9,-34.7,10.1,0.668904691,-0.0738242744,-0.658253731,-0.337260048
270,680708,35540,0.929,0.355,0.13,-0.1,0.4,0.1,-8.9,-34.7,10.1,0.668904691,-0.0738242744,-0.658253731,-0.337260048
271,684360,35540,0.933,0.351,0.126,-0.1,0.5,0,-9.1,-34.3,10.4,0.668935209,-0.0738242744,-0.658253731,-0.337260048
272,684790,35540,0.936,0.351,0.13,-0.1,0.7,0,-9.1,-34.3,10.4,0.668935209,-0.0738242744,-0.658223212,-0.337260048
273,687380,35550,0.936,0.355,0.126,0,0.7,-0.1,-9.1,-34.3,10.4,0.668935209,-0.0737937559,-0.658223212,-0.337260048
274,691137,35550,0.94,0.359,0.126,0,0.8,-0.1,-9.1,-34.3,10.4,0.668935209,-0.0737937559,-0.658223212,-0.337290567
275,693247,35550,0.94,0.359,0.13,0,1,-0.1,-9.1,-34.3,10.4,0.668935209,-0.0737327189,-0.658162175,-0.337351604
276,695326,35550,0.944,0.355,0.134,0,1.1,-0.1,-9.1,-34.3,10.4,0.668935209,-0.0737022004,-0.658162175,-0.337351604
277,699210,35560,0.944,0.351,0.13,-0.2,1.2,-0.2,-9.1,-34.3,10.4,0.668996246,-0.0737022004,-0.658131657,-0.337351604
278,701597,35560,0.944,0.351,0.13,-0.3,1.3,-0.4,-9.1,-34.3,10.4,0.669026765,-0.0737022004,-0.658131657,-0.337382122
279,703653,35560,0.944,0.355,0.13,-0.4,1.3,-0.6,-8.8,-34.6,10.1,0.669026765,-0.0736716819,-0.658101138,-0.337382122
280,705890,35560,0.944,0.343,0.13,-0.5,1.3,-0.9,-8.8,-34.6,10.1,0.669026765,-0.0736716819,-0.65807062,-0.337412641
281,708220,35570,0.948,0.343,0.13,-0.7,1.4,-1.1,-8.8,-34.6,10.1,0.669057283,-0.0736411634,-0.658040101,-0.337443159
282,710607,35570,0.948,0.343,0.134,-0.9,1.4,-1.4,-8.8,-34.6,10.1,0.669057283,-0.0736411634,-0.658009583,-0.337473678
283,712436,35570,0.952,0.343,0.13,-1,1.4,-1.5,-9,-34.6,10.3,0.669057283,-0.0736106449,-0.658009583,-0.337504196
284,714883,35570,0.952,0.339,0.129,-1.3,1.2,-1.6,-9,-34.6,10.3,0.669057283,-0.0736106449,-0.657979064,-0.337565233
285,717921,35580,0.952,0.335,0.129,-1.5,1.1,-1.7,-9,-34.6,10.3,0.669057283,-0.0735801263,-0.657948546,-0.33762627
286,719926,35580,0.948,0.335,0.129,-1.6,0.9,-1.6,-9,-34.6,10.3,0.669057283,-0.0735801263,-0.657918027,-0.337656789
287,722301,35580,0.952,0.339,0.129,-1.6,0.7,-1.5,-8.8,-34.1,10,0.669057283,-0.0735801263,-0.657918027,-0.337717826
288,726436,35580,0.948,0.332,0.126,-1.8,0.6,-1.4,-8.8,-34.1,10,0.669057283,-0.0735801263,-0.657887509,-0.337748344
289,728611,35590,0.952,0.335,0.129,-1.9,0.5,-1.2,-8.8,-34.1,10,0.669057283,-0.0735801263,-0.65785699,-0.337809381
290,730792,35590,0.952,0.335,0.129,-2.1,0.4,-1.1,-8.8,-34.1,10,0.669057283,-0.0736106449,-0.65785699,-0.3378399
291,732628,35590,0.944,0.328,0.129,-2.2,0.2,-0.9,-9,-34.7,9.7,0.669057283,-0.0736106449,-0.657826472,-0.337900937
292,734936,35590,0.948,0.332,0.129,-2.4,0.2,-0.9,-9,-34.7,9.7,0.669026765,-0.0736411634,-0.657795953,-0.337961974
293,737257,35600,0.948,0.335,0.129,-2.6,0.2,-0.8,-9,-34.7,9.7,0.669026765,-0.0736716819,-0.657795953,-0.337992492
294,739865,35600,0.948,0.336,0.126,-2.6,0.2,-0.7,-9,-34.7,9.7,0.669026765,-0.0736716819,-0.657765435,-0.338053529
295,743540,35600,0.948,0.336,0.126,-2.6,0.2,-0.5,-9,-34.7,9.7,0.66911832,-0.0738853114,-0.657704398,-0.337961974
296,745826,35600,0.944,0.336,0.122,-2.5,0.1,-0.4,-9,-34.7,9.7,0.669087802,-0.07391583,-0.657673879,-0.337992492
297,748163,35610,0.936,0.344,0.126,-2.5,0,-0.2,-9,-34.7,9.7,0.669087802,-0.0739463485,-0.657673879,-0.338053529
298,749997,35610,0.94,0.34,0.126,-2.6,0,0,-9,-34.7,9.7,0.669087802,-0.0740073855,-0.657643361,-0.338084048
299,752322,35610,0.94,0.34,0.126,-2.6,-0.1,0,-8.6,-34.6,9.5,0.669087802,-0.074037904,-0.657612842,-0.338114566
300,756385,35610,0.94,0.347,0.13,-2.4,-0.2,0.2,-8.6,-34.6,9.5,0.669087802,-0.0740684225,-0.657612842,-0.338145085
301,758606,35620,0.936,0.347,0.13,-2.3,-0.3,0.3,-8.6,-34.6,9.5,0.669057283,-0.0741294595,-0.657582324,-0.338175604
302,760826,35620,0.936,0.347,0.126,-2.1,-0.4,0.3,-8.6,-34.6,9.5,0.669057283,-0.074159978,-0.657582324,-0.338206122
303,763224,35620,0.936,0.347,0.126,-1.9,-0.5,0.2,-8.9,-35,9.8,0.669057283,-0.0741904965,-0.657582324,-0.338236641
304,764991,35620,0.936,0.351,0.13,-1.8,-0.5,0.1,-8.9,-35,9.8,0.669057283,-0.074221015,-0.657582324,-0.338236641
305,767287,35630,0.936,0.355,0.126,-1.6,-0.6,0.1,-8.9,-35,9.8,0.669026765,-0.0742515336,-0.657582324,-0.338267159
306,772087,35630,0.933,0.351,0.13,-1.5,-0.6,0.1,-8.9,-35,9.8,0.669026765,-0.0742820521,-0.657582324,-0.338297678
307,772087,35630,0.936,0.351,0.13,-1.4,-0.5,0.2,-8.6,-34.9,9.7,0.669026765,-0.0743125706,-0.657582324,-0.338297678
308,776548,35630,0.936,0.355,0.13,-1.3,-0.4,0.3,-8.6,-34.9,9.7,0.668996246,-0.0743125706,-0.657551805,-0.338328196
309,778955,35640,0.936,0.351,0.126,-1.3,-0.2,0.4,-8.6,-34.9,9.7,0.668996246,-0.0743736076,-0.657551805,-0.338328196
310,781060,35640,0.94,0.355,0.13,-1.3,0,0.6,-8.6,-34.9,9.7,0.668996246,-0.0744041261,-0.657551805,-0.338328196
311,783234,35640,0.94,0.351,0.13,-1.3,0.2,0.7,-8.7,-34.9,9.9,0.669026765,-0.0744346446,-0.657521287,-0.338358715
312,785283,35640,0.94,0.351,0.13,-1.2,0.3,0.7,-8.7,-34.9,9.9,0.669026765,-0.0744651631,-0.657521287,-0.338358715
313,787567,35650,0.94,0.355,0.126,-1.2,0.6,0.6,-8.7,-34.9,9.9,0.669026765,-0.0744956816,-0.657490768,-0.338358715
314,791453,35650,0.94,0.355,0.126,-1.2,0.6,0.6,-8.7,-34.9,9.9,0.669026765,-0.0744956816,-0.657490768,-0.338358715
315,793741,35650,0.948,0.351,0.13,-1.2,1,0.7,-8.7,-34.9,9.9,0.669057283,-0.0744956816,-0.657429731,-0.338419752
316,795982,35650,0.948,0.351,0.13,-1.2,1,0.7,-8.7,-34.9,9.9,0.669087802,-0.0745262001,-0.657429731,-0.338419752
317,798229,35660,0.948,0.351,0.13,-1.2,1,0.7,-8.7,-34.9,9.9,0.669087802,-0.0745262001,-0.657399213,-0.338419752
318,800522,35660,0.948,0.351,0.13,-1.2,1.1,0.7,-8.7,-34.9,9.9,0.66911832,-0.0745567186,-0.657368694,-0.33845027
319,802490,35660,0.952,0.355,0.13,-1.2,1.2,0.5,-8.4,-34.4,9.8,0.669148839,-0.0745567186,-0.657338176,-0.33845027
320,804725,35660,0.948,0.355,0.126,-1.2,1.3,0.5,-8.4,-34.4,9.8,0.669148839,-0.0745872372,-0.657307657,-0.33845027
321,807268,35670,0.952,0.355,0.13,-1.3,1.3,0.5,-8.4,-34.4,9.8,0.669179357,-0.0746177557,-0.657277139,-0.338480789
322,811762,35670,0.948,0.355,0.13,-1.6,1.2,0.5,-8.4,-34.4,9.8,0.669209876,-0.0746177557,-0.657216102,-0.338480789
323,813916,35670,0.952,0.355,0.126,-1.9,1,0.5,-8.4,-34.2,9.5,0.669209876,-0.0746482742,-0.657216102,-0.338511307
324,816220,35670,0.948,0.351,0.13,-2.2,0.8,0.6,-8.4,-34.2,9.5,0.669240394,-0.0746787927,-0.657185583,-0.338541826
325,818169,35680,0.948,0.351,0.13,-2.4,0.6,0.6,-8.4,-34.2,9.5,0.669240394,-0.0747398297,-0.657155065,-0.338572344
326,820840,35680,0.944,0.351,0.126,-2.7,0.5,0.5,-8.4,-34.2,9.5,0.669240394,-0.0747703482,-0.657124546,-0.338602863
327,822665,35680,0.944,0.351,0.126,-2.7,0.5,0.5,-8.4,-34.2,9.5,0.669240394,-0.0747703482,-0.657124546,-0.338602863
328,826683,35680,0.948,0.351,0.13,-3.2,0.3,0.4,-8.3,-34.3,9.7,0.669270913,-0.0748619037,-0.657063509,-0.3386639
329,828938,35690,0.944,0.343,0.13,-3.5,0.3,0.4,-8.3,-34.3,9.7,0.669270913,-0.0749229408,-0.657032991,-0.338724937
330,831272,35690,0.94,0.347,0.126,-3.7,0.3,0.5,-8.3,-34.3,9.7,0.669270913,-0.0749839778,-0.657002472,-0.338755455
331,833993,35690,0.94,0.347,0.13,-3.8,0.2,0.6,-8.2,-34.4,9.5,0.669270913,-0.0750450148,-0.656971953,-0.338816492
332,836128,35690,0.944,0.343,0.126,-4,0,0.6,-8.2,-34.4,9.5,0.669270913,-0.0751060518,-0.656941435,-0.338847011
333,838417,35700,0.94,0.343,0.126,-4,0,0.6,-8.2,-34.4,9.5,0.669270913,-0.0751976073,-0.656910916,-0.338908048
334,840682,35700,0.944,0.347,0.13,-4,-0.2,0.6,-8.2,-34.4,9.5,0.669270913,-0.0752586444,-0.656880398,-0.338969085
335,842640,35700,0.94,0.343,0.13,-4.3,-0.4,0.8,-8.2,-34.4,9.5,0.669270913,-0.0753807184,-0.656849879,-0.338969085
336,844896,35700,0.94,0.343,0.13,-4.3,-0.4,0.8,-8.2,-34.4,9.5,0.669240394,-0.0754417554,-0.656819361,-0.339030122
337,847184,35710,0.94,0.336,0.13,-4.3,-0.2,0.8,-8.2,-34.4,9.5,0.669240394,-0.075533311,-0.656788842,-0.339091159
338,851719,35710,0.94,0.34,0.13,-4.4,-0.1,0.7,-8.2,-34.4,9.5,0.669240394,-0.075594348,-0.656758324,-0.339121677
339,853980,35710,0.936,0.336,0.13,-4.4,0,0.5,-8.5,-34.4,9.8,0.669240394,-0.0756859035,-0.656727805,-0.339182714
340,856744,35710,0.936,0.34,0.13,-4.5,0,0.5,-8.5,-34.4,9.8,0.669240394,-0.0757469405,-0.656697287,-0.339243751
341,858970,35720,0.94,0.332,0.13,-4.6,0,0.6,-8.5,-34.4,9.8,0.669240394,-0.075838496,-0.656666768,-0.339304788
342,861268,35720,0.936,0.34,0.13,-4.6,0,0.7,-8.5,-34.4,9.8,0.669240394,-0.0758995331,-0.65663625,-0.339365825
343,863418,35720,0.936,0.336,0.126,-4.5,0.2,0.6,-8.1,-34.5,9.7,0.669240394,-0.0759910886,-0.656575213,-0.339396344
344,865861,35720,0.936,0.336,0.13,-4.4,0.2,0.6,-8.1,-34.5,9.7,0.669240394,-0.0760521256,-0.656544694,-0.339457381
345,867560,35730,0.936,0.336,0.13,-4.2,0.1,0.6,-8.1,-34.5,9.7,0.669240394,-0.0761131626,-0.656514176,-0.339518418
346,871702,35730,0.94,0.328,0.126,-4,0,0.7,-8.1,-34.5,9.7,0.669240394,-0.0762047182,-0.656483657,-0.339548936
347,873720,35730,0.936,0.336,0.13,-3.8,-0.1,0.9,-8,-34.5,9.5,0.669240394,-0.0762657552,-0.656453139,-0.339609973
348,876001,35730,0.936,0.336,0.13,-3.7,-0.1,1,-8,-34.5,9.5,0.669240394,-0.0763267922,-0.65642262,-0.339640492
349,878284,35740,0.933,0.332,0.13,-3.6,-0.2,1.1,-8,-34.5,9.5,0.669240394,-0.0763878292,-0.656392102,-0.33967101
350,879928,35740,0.936,0.336,0.126,-3.5,-0.2,1.1,-8,-34.5,9.5,0.669240394,-0.0764793847,-0.656392102,-0.339701529
351,882325,35740,0.936,0.336,0.13,-3.5,-0.1,1.2,-8.3,-34.6,9.6,0.669240394,-0.0765404218,-0.656361583,-0.339732047
352,884632,35740,0.936,0.336,0.13,-3.3,0,1.3,-8.3,-34.6,9.6,0.669240394,-0.0766014588,-0.656331065,-0.339762566
353,887246,35750,0.936,0.336,0.13,-3.2,-0.1,1.6,-8.3,-34.6,9.6,0.669240394,-0.0766930143,-0.656300546,-0.339793085
354,891645,35750,0.933,0.34,0.13,-3.2,-0.1,1.8,-8.3,-34.6,9.6,0.669240394,-0.0767540513,-0.656270028,-0.339823603
355,893943,35750,0.933,0.34,0.126,-3.1,-0.3,2.1,-8.3,-34.6,9.6,0.669301431,-0.0769066439,-0.656239509,-0.339762566
356,894614,35750,0.94,0.336,0.13,-3.1,-0.3,2.1,-8.3,-34.6,9.6,0.669301431,-0.0769981994,-0.656208991,-0.339793085
357,899289,35760,0.936,0.336,0.13,-3,-0.2,2.4,-8.3,-34.6,9.6,0.669301431,-0.0770592364,-0.656178472,-0.339793085
358,899647,35760,0.933,0.34,0.13,-2.9,0,2.7,-8.3,-34.6,9.6,0.66933195,-0.077150792,-0.656147954,-0.339793085
359,902259,35760,0.94,0.343,0.13,-2.7,0.1,3,-7.9,-34.8,9.5,0.66933195,-0.0772423475,-0.656147954,-0.339793085
360,905820,35760,0.936,0.34,0.13,-2.6,0.4,3.1,-7.9,-34.8,9.5,0.669362468,-0.077333903,-0.656086917,-0.339793085
361,908127,35770,0.94,0.343,0.13,-2.5,0.5,3.1,-7.9,-34.8,9.5,0.669392987,-0.07739494,-0.656056398,-0.339762566
362,910044,35770,0.936,0.347,0.126,-2.3,0.6,3.1,-7.9,-34.8,9.5,0.669423505,-0.0774864956,-0.65602588,-0.339762566
363,912358,35770,0.94,0.343,0.13,-2.1,0.7,3.1,-8.2,-34.7,9.5,0.669454024,-0.0775475326,-0.655995361,-0.339762566
364,916375,35770,0.94,0.347,0.13,-1.7,0.7,3,-8.2,-34.7,9.5,0.669484542,-0.0776085696,-0.655964843,-0.339732047
365,918239,35780,0.94,0.347,0.13,-1.5,0.7,2.8,-8.2,-34.7,9.5,0.669515061,-0.0776696066,-0.655934324,-0.339701529
366,920850,35780,0.94,0.343,0.126,-1.3,0.7,2.6,-8.2,-34.7,9.5,0.669545579,-0.0777001251,-0.655934324,-0.339701529
367,922474,35780,0.94,0.347,0.13,-1.2,0.6,2.4,-8.4,-34.6,9.7,0.669576098,-0.0777306436,-0.655903806,-0.33967101
368,924853,35780,0.944,0.343,0.126,-1.2,0.6,2.3,-8.4,-34.6,9.7,0.669576098,-0.0778221992,-0.655873287,-0.33967101
369,927295,35790,0.944,0.347,0.13,-1.1,0.7,2.2,-8.4,-34.6,9.7,0.669606616,-0.0778527177,-0.655842769,-0.339640492
370,930121,35790,0.944,0.339,0.13,-1,0.7,2.2,-8.4,-34.6,9.7,0.669637135,-0.0778832362,-0.655842769,-0.339640492
371,932365,35790,0.94,0.34,0.126,-0.9,0.7,2.1,-8.3,-35,9.5,0.669667653,-0.0779442732,-0.65581225,-0.339609973
372,936566,35790,0.94,0.34,0.13,-0.9,0.6,1.9,-8.3,-35,9.5,0.669698172,-0.0779747917,-0.655781732,-0.339609973
373,938650,35800,0.944,0.339,0.13,-1.1,0.4,1.6,-8.3,-35,9.5,0.669698172,-0.0780053102,-0.655781732,-0.339579455
374,940924,35800,0.94,0.336,0.126,-1.2,0.2,1.6,-8.3,-35,9.5,0.66972869,-0.0780358287,-0.655751213,-0.339579455
375,943185,35800,0.944,0.332,0.13,-1.5,0.3,1.4,-8.3,-35,9.5,0.66972869,-0.0781579028,-0.655751213,-0.339548936
376,945608,35800,0.944,0.332,0.13,-1.5,0.3,1.4,-8.3,-35,9.5,0.669759209,-0.0781884213,-0.655720695,-0.339548936
377,947213,35810,0.94,0.336,0.126,-1.6,0.5,1.3,-8.3,-35,9.5,0.669759209,-0.0782189398,-0.655720695,-0.339548936
378,951544,35810,0.94,0.336,0.126,-1.6,0.5,1.3,-8.3,-35,9.5,0.669759209,-0.0782189398,-0.655720695,-0.339548936
379,953713,35810,0.94,0.328,0.126,-1.8,0.5,1.2,-8.4,-35,9.5,0.669789727,-0.0783104953,-0.655659658,-0.339548936
380,956031,35810,0.944,0.336,0.13,-1.9,0.4,1.2,-8.4,-35,9.5,0.669789727,-0.0783410138,-0.655629139,-0.339579455
381,958187,35820,0.94,0.328,0.126,-2,0.3,1.3,-8.4,-35,9.5,0.669820246,-0.0784020508,-0.655629139,-0.339579455
382,960114,35820,0.944,0.328,0.129,-2.2,0.3,1.4,-8.4,-35,9.5,0.669820246,-0.0784630879,-0.655598621,-0.339579455
383,962489,35820,0.94,0.332,0.126,-2.3,0.3,1.4,-8.7,-34.8,9.5,0.669820246,-0.0784936064,-0.655568102,-0.339609973
384,966508,35820,0.94,0.328,0.133,-2.4,0.3,1.2,-8.7,-34.8,9.5,0.669850764,-0.0785546434,-0.655537584,-0.339609973
385,968610,35830,0.936,0.332,0.126,-2.6,0.3,1.2,-8.7,-34.8,9.5,0.669850764,-0.0786156804,-0.655507065,-0.339640492
386,970886,35830,0.94,0.328,0.13,-2.7,0.3,1.2,-8.7,-34.8,9.5,0.669850764,-0.0786767174,-0.655476547,-0.33967101
387,972395,35830,0.944,0.328,0.126,-2.9,0.2,1.3,-8.3,-34.9,9.6,0.669881283,-0.0787072359,-0.655476547,-0.339701529
388,974839,35830,0.94,0.332,0.13,-3,0.1,1.4,-8.3,-34.9,9.6,0.669881283,-0.0787987915,-0.655446028,-0.339701529
389,977370,35840,0.94,0.336,0.13,-3.2,0.1,1.4,-8.3,-34.9,9.6,0.669881283,-0.0788598285,-0.65541551,-0.339732047
390,981120,35840,0.94,0.328,0.13,-3.4,0.4,1.4,-8.3,-34.9,9.6,0.669911802,-0.0789208655,-0.655384991,-0.339762566
391,983678,35840,0.936,0.328,0.126,-4,0.6,1.3,-8.4,-35,9.1,0.669911802,-0.0789819025,-0.655323954,-0.339793085
392,985958,35840,0.94,0.332,0.13,-4.6,0.9,1,-8.4,-35,9.1,0.669911802,-0.0790734581,-0.655293435,-0.339854122
393,988315,35850,0.936,0.332,0.13,-5.1,1,0.7,-8.4,-35,9.1,0.66994232,-0.0791344951,-0.655232398,-0.339915159
394,990189,35850,0.933,0.336,0.13,-5.4,1,0.5,-8.4,-35,9.1,0.66994232,-0.0791955321,-0.655171361,-0.339976196
395,993615,35850,0.933,0.332,0.13,-4.9,0.8,0.9,-8.4,-35,9.1,0.669972839,-0.0794091617,-0.655110324,-0.339976196
396,996597,35850,0.936,0.328,0.13,-4.9,0.8,0.9,-8.4,-35,9.1,0.670003357,-0.0794701987,-0.655079806,-0.340037233
397,998758,35860,0.936,0.332,0.134,-4.2,0.4,1.4,-8.4,-35,9.1,0.670003357,-0.0795617542,-0.655018769,-0.340067751
398,1001043,35860,0.933,0.34,0.13,-3.5,0,1.7,-8.4,-35,9.1,0.670003357,-0.0796533097,-0.65498825,-0.34009827
399,1003965,35860,0.936,0.336,0.13,-2.8,-0.4,2,-8.1,-34.7,9,0.670003357,-0.0796838282,-0.65498825,-0.34009827
400,1006024,35860,0.936,0.34,0.13,-2.2,-0.7,2.3,-8.1,-34.7,9,0.670003357,-0.0797753838,-0.65498825,-0.34009827
401,1008392,35870,0.936,0.34,0.13,-1.7,-0.9,2.8,-8.1,-34.7,9,0.670033876,-0.0798669393,-0.654957732,-0.340067751
402,1012037,35870,0.94,0.347,0.13,-1.4,-1.1,3.1,-8.1,-34.7,9,0.670033876,-0.0799279763,-0.654957732,-0.340037233
403,1012453,35870,0.936,0.347,0.13,-1.3,-0.9,3.2,-8.1,-34.7,9.3,0.670033876,-0.0800195318,-0.654957732,-0.340006714
404,1014886,35870,0.944,0.343,0.13,-1.5,-0.6,3.1,-8.1,-34.7,9.3,0.670033876,-0.0800805689,-0.654957732,-0.340006714
405,1019063,35880,0.944,0.34,0.126,-1.7,-0.3,2.9,-8.1,-34.7,9.3,0.670064394,-0.0801416059,-0.654957732,-0.339976196
406,1021218,35880,0.944,0.339,0.13,-2,-0.1,2.6,-8.1,-34.7,9.3,0.670064394,-0.0802331614,-0.654927213,-0.339976196
407,1023903,35880,0.936,0.34,0.126,-2,0,2.2,-8.5,-34.5,9.2,0.670094913,-0.0802941984,-0.654927213,-0.339976196
408,1026086,35880,0.944,0.343,0.13,-2.1,0.2,1.9,-8.5,-34.5,9.2,0.670094913,-0.0803247169,-0.654896695,-0.339976196
409,1027710,35890,0.944,0.343,0.13,-2.1,0.3,1.5,-8.5,-34.5,9.2,0.670125431,-0.080385754,-0.654866176,-0.339976196
410,1030091,35890,0.94,0.332,0.134,-2,0.3,1.4,-8.5,-34.5,9.2,0.670125431,-0.080446791,-0.654835658,-0.339976196
411,1032257,35890,0.948,0.332,0.129,-1.8,0.3,1.2,-8,-35.2,9.1,0.670125431,-0.0804773095,-0.654835658,-0.339976196
412,1036352,35890,0.944,0.339,0.13,-1.6,0.2,1.1,-8,-35.2,9.1,0.67015595,-0.080507828,-0.654805139,-0.340006714
413,1038729,35900,0.94,0.336,0.134,-1.4,0.1,0.9,-8,-35.2,9.1,0.67015595,-0.0805383465,-0.654805139,-0.340006714
414,1040992,35900,0.936,0.336,0.134,-1.3,0.1,0.7,-8,-35.2,9.1,0.67015595,-0.080568865,-0.654774621,-0.340006714
415,1043156,35900,0.94,0.332,0.13,-1.5,0.2,0.8,-8,-35.2,9.1,0.670186468,-0.0806604205,-0.654774621,-0.339976196
416,1045057,35900,0.94,0.332,0.13,-1.5,0.2,0.8,-8,-35.2,9.1,0.670186468,-0.0806604205,-0.654744102,-0.340006714
417,1049248,35910,0.94,0.336,0.13,-1.6,0.1,0.9,-8,-35.2,9.1,0.670186468,-0.0807214576,-0.654744102,-0.340006714
418,1049640,35910,0.944,0.332,0.133,-1.8,0.1,1,-8,-35.2,9.1,0.670186468,-0.0807824946,-0.654713584,-0.340006714
419,1054373,35910,0.944,0.332,0.13,-1.9,0,1,-8.8,-34.6,9.7,0.670186468,-0.0808130131,-0.654683065,-0.340037233
420,1054739,35910,0.944,0.336,0.13,-2.1,0,1.2,-8.8,-34.6,9.7,0.670216987,-0.0808740501,-0.654683065,-0.340037233
421,1059052,35920,0.94,0.328,0.13,-2.2,-0.1,1.2,-8.8,-34.6,9.7,0.670216987,-0.0809045686,-0.654652547,-0.340067751
422,1061101,35920,0.944,0.335,0.133,-2.3,-0.1,1.2,-8.8,-34.6,9.7,0.670216987,-0.0809656056,-0.654652547,-0.340067751
423,1063466,35920,0.94,0.328,0.13,-2.3,-0.1,1.1,-9.1,-35.2,9.3,0.670216987,-0.0810266427,-0.654622028,-0.34009827
424,1065645,35920,0.94,0.328,0.13,-2.3,-0.1,1.1,-9.1,-35.2,9.3,0.670216987,-0.0810266427,-0.654622028,-0.34009827
425,1067731,35930,0.94,0.332,0.13,-2.4,-0.2,1.3,-9.1,-35.2,9.3,0.670216987,-0.0811487167,-0.65459151,-0.340128788
426,1069851,35930,0.94,0.336,0.13,-2.6,-0.3,1.3,-9.1,-35.2,9.3,0.670216987,-0.0812097537,-0.654560991,-0.340128788
427,1073985,35930,0.94,0.332,0.13,-2.7,-0.4,1.3,-9.2,-35.1,9.3,0.670216987,-0.0812707907,-0.654560991,-0.340159307
428,1076127,35930,0.94,0.336,0.13,-2.8,-0.4,1.3,-9.2,-35.1,9.3,0.670216987,-0.0813318278,-0.654530473,-0.340159307
429,1078569,35940,0.936,0.336,0.13,-2.9,-0.5,1.4,-9.2,-35.1,9.3,0.670216987,-0.0813928648,-0.654530473,-0.340189825
430,1080676,35940,0.94,0.336,0.126,-3,-0.5,1.4,-9.2,-35.1,9.3,0.670216987,-0.0814539018,-0.654499954,-0.340220344
431,1082580,35940,0.944,0.332,0.13,-3,-0.7,1.4,-8.9,-34.9,9.3,0.670216987,-0.0815454573,-0.654499954,-0.340250862
432,1084965,35940,0.94,0.332,0.126,-3.1,-0.9,1.4,-8.9,-34.9,9.3,0.670186468,-0.0816064943,-0.654469436,-0.340250862
433,1089044,35950,0.944,0.336,0.13,-3.2,-1,1.4,-8.9,-34.9,9.3,0.670186468,-0.0816370128,-0.654469436,-0.340281381
434,1091304,35950,0.944,0.336,0.13,-3.3,-1.1,1.4,-8.9,-34.9,9.3,0.670186468,-0.0817590869,-0.654469436,-0.340311899
435,1093426,35950,0.94,0.332,0.134,-3.4,-1.3,1.6,-8.9,-34.9,9.3,0.67015595,-0.0819116794,-0.654469436,-0.340250862
436,1095664,35950,0.94,0.332,0.134,-3.4,-1.3,1.6,-8.9,-34.9,9.3,0.67015595,-0.082003235,-0.654469436,-0.340281381
437,1098088,35960,0.94,0.336,0.13,-3.5,-1.4,1.7,-8.9,-34.9,9.3,0.670125431,-0.0820947905,-0.654469436,-0.340311899
438,1100664,35960,0.94,0.332,0.13,-3.5,-1.5,1.7,-8.9,-34.9,9.3,0.670125431,-0.082186346,-0.654469436,-0.340311899
439,1102511,35960,0.936,0.336,0.13,-3.5,-1.5,1.6,-8.5,-34.7,9.5,0.670094913,-0.0822779015,-0.654438917,-0.340311899
440,1104707,35960,0.94,0.332,0.134,-3.6,-1.5,1.4,-8.5,-34.7,9.5,0.670094913,-0.0823389386,-0.654438917,-0.340372936
441,1108813,35970,0.94,0.332,0.13,-3.6,-1.5,1.3,-8.5,-34.7,9.5,0.670064394,-0.0824304941,-0.654438917,-0.340403455
442,1111094,35970,0.944,0.328,0.129,-3.5,-1.5,1.4,-8.5,-34.7,9.5,0.670033876,-0.0825220496,-0.654438917,-0.340433973
443,1113300,35970,0.94,0.336,0.13,-3.3,-1.5,1.5,-8.5,-34.9,9.2,0.670033876,-0.0826136052,-0.654438917,-0.340464492
444,1115284,35970,0.94,0.336,0.126,-3.1,-1.5,1.4,-8.5,-34.9,9.2,0.670003357,-0.0826746422,-0.654438917,-0.340464492
445,1118217,35980,0.94,0.332,0.134,-3,-1.5,1.3,-8.5,-34.9,9.2,0.670003357,-0.0827661977,-0.654408399,-0.34049501
446,1120691,35980,0.944,0.332,0.13,-2.9,-1.5,1.3,-8.5,-34.9,9.2,0.669972839,-0.0828272347,-0.654408399,-0.340525529
447,1123717,35980,0.944,0.332,0.13,-2.7,-1.5,1.2,-8.4,-34.9,9.1,0.669972839,-0.0828882717,-0.654408399,-0.340525529
448,1125897,35980,0.944,0.332,0.13,-2.7,-1.4,1.3,-8.4,-34.9,9.1,0.66994232,-0.0829798273,-0.654408399,-0.340556047
449,1128650,35990,0.94,0.336,0.13,-2.7,-1.2,1.1,-8.4,-34.9,9.1,0.66994232,-0.0830408643,-0.654408399,-0.340556047
450,1130771,35990,0.94,0.336,0.13,-2.6,-1.2,1,-8.4,-34.9,9.1,0.669911802,-0.0831019013,-0.654408399,-0.340586566
451,1132703,35990,0.948,0.332,0.133,-2.6,-1,0.9,-8.4,-34.5,9.2,0.669911802,-0.0831629383,-0.654408399,-0.340617084
452,1134960,35990,0.948,0.328,0.133,-2.5,-0.8,0.9,-8.4,-34.5,9.2,0.669881283,-0.0832239753,-0.654408399,-0.340617084
453,1137368,36000,0.948,0.332,0.133,-2.5,-0.5,0.9,-8.4,-34.5,9.2,0.669881283,-0.0832544939,-0.65437788,-0.340647603
454,1141338,36000,0.948,0.332,0.129,-2.4,-0.3,0.8,-8.4,-34.5,9.2,0.669881283,-0.0833155309,-0.65437788,-0.340678121
455,1143511,36000,0.948,0.332,0.129,-2.3,-0.2,0.7,-8.4,-34.5,9.2,0.669911802,-0.0834681234,-0.654347362,-0.340617084
456,1145885,36000,0.948,0.328,0.129,-2.3,-0.2,0.7,-8.4,-34.5,9.2,0.669911802,-0.0834986419,-0.654316843,-0.340647603
457,1147746,36010,0.956,0.328,0.129,-2.3,-0.2,0.5,-8.4,-34.5,9.2,0.669911802,-0.0835596789,-0.654316843,-0.340678121
458,1150782,36010,0.952,0.324,0.129,-2.2,-0.3,0.3,-8.4,-34.5,9.2,0.669911802,-0.0835901975,-0.654286325,-0.34070864
459,1153201,36010,0.952,0.32,0.129,-2.2,-0.3,0,-9.3,-34.3,9,0.669911802,-0.0835901975,-0.654286325,-0.340739158
460,1155002,36010,0.956,0.324,0.133,-2.2,-0.4,0,-9.3,-34.3,9,0.669881283,-0.0836512345,-0.654286325,-0.340769677
461,1157063,36020,0.948,0.324,0.133,-2.4,-0.5,0,-9.3,-34.3,9,0.669881283,-0.0837122715,-0.654255806,-0.340800195
462,1159614,36020,0.952,0.32,0.129,-2.6,-0.6,0.1,-9.3,-34.3,9,0.669850764,-0.08374279,-0.654255806,-0.340830714
463,1163525,36020,0.952,0.316,0.129,-2.7,-0.7,0.3,-9.2,-34.5,9,0.669850764,-0.083803827,-0.654255806,-0.340861232
464,1165887,36020,0.948,0.32,0.129,-2.9,-0.7,0.4,-9.2,-34.5,9,0.669820246,-0.083864864,-0.654225288,-0.340891751
465,1168740,36030,0.952,0.32,0.129,-3,-0.7,0.4,-9.2,-34.5,9,0.669820246,-0.0838953825,-0.654225288,-0.340922269
466,1170883,36030,0.952,0.316,0.129,-3.1,-0.7,0.4,-9.2,-34.5,9,0.669820246,-0.0839564196,-0.654194769,-0.340983306
467,1173179,36030,0.948,0.32,0.129,-3,-0.7,0.4,-9.3,-34.6,9.4,0.669789727,-0.0840174566,-0.654194769,-0.341013825
468,1176046,36030,0.948,0.316,0.133,-3,-0.8,0.4,-9.3,-34.6,9.4,0.669789727,-0.0840784936,-0.654194769,-0.341044343
469,1178522,36040,0.952,0.32,0.129,-3.1,-0.8,0.5,-9.3,-34.6,9.4,0.669759209,-0.0841395306,-0.654164251,-0.341074862
470,1180647,36040,0.952,0.324,0.133,-3.1,-1,0.3,-9.3,-34.6,9.4,0.669759209,-0.0842005676,-0.654164251,-0.34110538
471,1182601,36040,0.948,0.32,0.133,-3.1,-1,0.2,-9.3,-34.8,9,0.66972869,-0.0842616047,-0.654164251,-0.341166417
472,1184797,36040,0.948,0.324,0.129,-3.2,-1.1,0.1,-9.3,-34.8,9,0.669698172,-0.0843226417,-0.654133732,-0.341196936
473,1188803,36050,0.948,0.324,0.133,-3.2,-1.2,0.2,-9.3,-34.8,9,0.669698172,-0.0843836787,-0.654133732,-0.341227454
474,1191659,36050,0.948,0.32,0.129,-3.2,-1.3,0.3,-9.3,-34.8,9,0.669667653,-0.0844447157,-0.654133732,-0.341288491
475,1194271,36050,0.944,0.32,0.129,-3.2,-1.6,0.5,-9.3,-34.8,9,0.669698172,-0.0846888638,-0.654133732,-0.341166417
476,1196652,36050,0.944,0.32,0.129,-3.2,-1.6,0.5,-9.3,-34.8,9,0.669667653,-0.0847499008,-0.654103214,-0.341196936
477,1198951,36060,0.948,0.324,0.129,-3.2,-1.7,0.5,-9.3,-34.8,9,0.669667653,-0.0848414563,-0.654103214,-0.341227454
478,1201864,36060,0.944,0.328,0.129,-3.1,-1.6,0.5,-9.3,-34.8,9,0.669637135,-0.0849024934,-0.654103214,-0.341257973
479,1204088,36060,0.948,0.328,0.129,-3,-1.6,0.5,-9.3,-34.5,9.7,0.669606616,-0.0849635304,-0.654133732,-0.341288491
480,1206359,36060,0.944,0.332,0.133,-3,-1.5,0.7,-9.3,-34.5,9.7,0.669576098,-0.0850245674,-0.654103214,-0.34131901
481,1208497,36070,0.944,0.328,0.129,-2.9,-1.5,0.7,-9.3,-34.5,9.7,0.669545579,-0.0850550859,-0.654103214,-0.341349528
482,1210753,36070,0.944,0.332,0.13,-2.7,-1.5,0.8,-9.3,-34.5,9.7,0.669545579,-0.0851466414,-0.654103214,-0.341380047
483,1214417,36070,0.944,0.332,0.13,-2.6,-1.6,0.9,-9.3,-34.8,9.4,0.669515061,-0.0852076785,-0.654133732,-0.341410566
484,1214775,36070,0.944,0.336,0.13,-2.4,-1.5,1,-9.3,-34.8,9.4,0.669484542,-0.0852687155,-0.654133732,-0.341410566
485,1217300,36080,0.944,0.339,0.13,-2.2,-1.4,0.9,-9.3,-34.8,9.4,0.669484542,-0.0853297525,-0.654133732,-0.341441084
486,1219598,36080,0.94,0.332,0.13,-1.9,-1.3,0.7,-9.3,-34.8,9.4,0.669454024,-0.0853907895,-0.654133732,-0.341441084
487,1223281,36080,0.94,0.332,0.134,-1.8,-1.3,0.6,-9.2,-34.5,9.3,0.669454024,-0.085421308,-0.654133732,-0.341471603
488,1226964,36080,0.94,0.336,0.134,-1.6,-1.3,0.4,-9.2,-34.5,9.3,0.669423505,-0.085482345,-0.654133732,-0.341471603
489,1227357,36090,0.94,0.336,0.13,-1.6,-1.3,0.3,-9.2,-34.5,9.3,0.669392987,-0.0855128636,-0.654133732,-0.341502121
490,1229676,36090,0.94,0.336,0.134,-1.6,-1.2,0.3,-9.2,-34.5,9.3,0.669392987,-0.0855433821,-0.654164251,-0.341502121
491,1233968,36090,0.94,0.328,0.13,-1.7,-1.1,0.3,-9.7,-34.3,9.4,0.669362468,-0.0856044191,-0.654164251,-0.34153264
492,1235926,36090,0.936,0.332,0.13,-1.8,-1,0.2,-9.7,-34.3,9.4,0.669362468,-0.0856349376,-0.654164251,-0.341563158
493,1238499,36100,0.936,0.339,0.134,-1.8,-1.1,0,-9.7,-34.3,9.4,0.66933195,-0.0856654561,-0.654164251,-0.341593677
494,1240763,36100,0.94,0.332,0.13,-1.8,-1.2,-0.1,-9.7,-34.3,9.4,0.669301431,-0.0856959746,-0.654164251,-0.341593677
495,1243025,36100,0.936,0.336,0.13,-1.8,-1.3,0.1,-9.7,-34.3,9.4,0.669301431,-0.0857570116,-0.654164251,-0.341624195
496,1244924,36100,0.936,0.336,0.13,-1.8,-1.3,0.1,-9.7,-34.3,9.4,0.669270913,-0.0857875301,-0.654164251,-0.341624195
497,1249053,36110,0.94,0.34,0.13,-1.8,-1.1,0.3,-9.7,-34.3,9.4,0.669240394,-0.0858180486,-0.654194769,-0.341654714
498,1251400,36110,0.936,0.34,0.13,-1.8,-1.1,0.5,-9.7,-34.3,9.4,0.669240394,-0.0858790857,-0.654194769,-0.341654714
499,1253678,36110,0.936,0.34,0.13,-1.8,-1.2,0.7,-9.3,-34.9,9.2,0.669209876,-0.0859096042,-0.654194769,-0.341685232
500,1255870,36110,0.94,0.336,0.13,-1.8,-1.2,0.9,-9.3,-34.9,9.2,0.669209876,-0.0859706412,-0.654194769,-0.341685232
501,1259253,36120,0.94,0.343,0.126,-1.8,-1.1,0.9,-9.3,-34.9,9.2,0.669179357,-0.0860316782,-0.654194769,-0.341715751
502,1259707,36120,0.944,0.343,0.13,-1.9,-1.1,0.9,-9.3,-34.9,9.2,0.669179357,-0.0860316782,-0.654194769,-0.341715751
503,1262232,36120,0.944,0.34,0.126,-2.1,-1.1,0.8,-9.3,-35.1,9.2,0.669179357,-0.0861232337,-0.654194769,-0.341715751
504,1264582,36120,0.944,0.343,0.13,-2.4,-1.1,0.8,-9.3,-35.1,9.2,0.669148839,-0.0861842708,-0.654194769,-0.341746269
505,1268040,36130,0.94,0.34,0.126,-2.6,-1.1,0.5,-9.3,-35.1,9.2,0.66911832,-0.0862453078,-0.654194769,-0.341776788
506,1270700,36130,0.944,0.34,0.126,-2.9,-1.1,0.2,-9.3,-35.1,9.2,0.66911832,-0.0862758263,-0.654194769,-0.341807306
507,1272687,36130,0.944,0.336,0.13,-3.3,-1.1,0,-9.6,-34.7,9.3,0.669087802,-0.0863368633,-0.654164251,-0.341868343
508,1274935,36130,0.94,0.336,0.13,-3.7,-1,0,-9.6,-34.7,9.3,0.669057283,-0.0863979003,-0.654164251,-0.341898862
509,1277234,36140,0.944,0.332,0.13,-4.1,-0.9,0,-9.6,-34.7,9.3,0.669057283,-0.0864894559,-0.654133732,-0.341959899
510,1279767,36140,0.944,0.328,0.126,-4.6,-1,0,-9.6,-34.7,9.3,0.669026765,-0.0865199744,-0.654133732,-0.342020936
511,1284306,36140,0.948,0.328,0.125,-4.9,-1.1,-0.1,-9.5,-35,9.8,0.668996246,-0.0866420484,-0.654103214,-0.342112491
512,1284725,36140,0.944,0.324,0.126,-5,-1.3,-0.3,-9.5,-35,9.8,0.668935209,-0.0867030854,-0.654072695,-0.342173528
513,1289516,36150,0.948,0.328,0.125,-5.2,-1.3,-0.4,-9.5,-35,9.8,0.668935209,-0.0867946409,-0.654072695,-0.342265084
514,1289934,36150,0.944,0.324,0.129,-5.2,-1.4,-0.4,-9.5,-35,9.8,0.668904691,-0.0868861965,-0.654042177,-0.342326121
515,1292254,36150,0.94,0.324,0.126,-5.5,-1.7,-0.1,-9.5,-35,9.8,0.668874172,-0.0870693075,-0.654072695,-0.342326121
516,1294759,36150,0.944,0.328,0.129,-5.5,-1.7,-0.1,-9.5,-35,9.8,0.668813135,-0.0871608631,-0.654042177,-0.342387158
517,1298916,36160,0.944,0.328,0.129,-5.7,-1.7,-0.1,-9.5,-35,9.8,0.668782617,-0.0872524186,-0.654042177,-0.342478713
518,1300837,36160,0.944,0.324,0.129,-5.8,-1.8,0,-9.5,-35,9.8,0.668752098,-0.0873439741,-0.654011658,-0.342570269
519,1303204,36160,0.944,0.32,0.125,-6,-1.8,0,-9.9,-35.3,9,0.66872158,-0.0874660482,-0.654011658,-0.342631306
520,1305651,36160,0.944,0.324,0.129,-6.3,-1.8,0,-9.9,-35.3,9,0.668660543,-0.0875576037,-0.65398114,-0.342722861
521,1307482,36170,0.944,0.328,0.126,-6.4,-1.8,0.1,-9.9,-35.3,9,0.668630024,-0.0876796777,-0.653950621,-0.342814417
522,1310628,36170,0.948,0.324,0.129,-6.6,-1.8,0.4,-9.9,-35.3,9,0.668599506,-0.0878017518,-0.653950621,-0.342905972
523,1312498,36170,0.948,0.324,0.129,-6.6,-1.8,0.6,-10.1,-35.1,9,0.668568987,-0.0878933073,-0.653920103,-0.342967009
524,1316716,36170,0.948,0.324,0.129,-6.6,-1.6,0.5,-10.1,-35.1,9,0.668538469,-0.0879848628,-0.653889584,-0.343058565
525,1317152,36180,0.944,0.324,0.129,-6.6,-1.5,0.5,-10.1,-35.1,9,0.66850795,-0.0881374554,-0.653859066,-0.343150121
526,1319580,36180,0.948,0.324,0.129,-6.4,-1.3,0.3,-10.1,-35.1,9,0.668477432,-0.0882595294,-0.653828547,-0.343241676
527,1324219,36180,0.952,0.324,0.129,-6.2,-1.3,0.3,-10.2,-35.3,9,0.668446913,-0.0883510849,-0.653798029,-0.343302713
528,1324618,36180,0.952,0.324,0.133,-6,-1.3,0.2,-10.2,-35.3,9,0.668416395,-0.0884426405,-0.65376751,-0.343394269
529,1329271,36190,0.952,0.316,0.129,-6,-1.3,0.2,-10.2,-35.3,9,0.668385876,-0.0885647145,-0.653736991,-0.343485824
530,1329634,36190,0.948,0.316,0.129,-5.9,-1.4,0,-10.2,-35.3,9,0.668355358,-0.08865627,-0.653736991,-0.343546861
531,1333945,36190,0.944,0.312,0.129,-5.9,-1.5,-0.1,-10.6,-35,9.1,0.668324839,-0.0887478256,-0.653706473,-0.343638417
532,1336125,36190,0.944,0.32,0.125,-5.8,-1.6,-0.5,-10.6,-35,9.1,0.668294321,-0.0888393811,-0.653675954,-0.343729972
533,1338451,36200,0.948,0.32,0.129,-5.7,-1.6,-0.5,-10.6,-35,9.1,0.668233283,-0.0889309366,-0.653675954,-0.343821528
534,1340786,36200,0.948,0.32,0.129,-5.5,-1.6,-0.6,-10.6,-35,9.1,0.668202765,-0.0890224921,-0.653645436,-0.343882565
535,1342590,36200,0.944,0.312,0.129,-5.5,-1.4,-0.5,-10.6,-35,9.1,0.668202765,-0.0892666402,-0.653645436,-0.343821528
536,1344713,36200,0.944,0.312,0.129,-5.5,-1.4,-0.5,-10.6,-35,9.1,0.668172246,-0.0893581957,-0.653614917,-0.343913083
537,1348981,36210,0.944,0.316,0.122,-5.4,-1.3,-0.4,-10.6,-35,9.1,0.668141728,-0.0894497513,-0.653614917,-0.344004639
538,1351138,36210,0.94,0.316,0.122,-5.3,-1.1,-0.4,-10.6,-35,9.1,0.668111209,-0.0895107883,-0.653584399,-0.344065676
539,1353327,36210,0.94,0.308,0.125,-5.3,-0.9,-0.4,-9.9,-35.2,9.1,0.668080691,-0.0896023438,-0.65355388,-0.344157231
540,1355807,36210,0.94,0.312,0.125,-5.4,-0.8,-0.5,-9.9,-35.2,9.1,0.668050172,-0.0896938993,-0.653523362,-0.344218268
541,1358609,36220,0.94,0.308,0.125,-5.4,-0.6,-0.4,-9.9,-35.2,9.1,0.668050172,-0.0897549364,-0.653492843,-0.344309824
542,1360767,36220,0.944,0.312,0.125,-5.5,-0.5,-0.2,-9.9,-35.2,9.1,0.668019654,-0.0898464919,-0.653462325,-0.344401379
543,1362701,36220,0.944,0.312,0.125,-5.5,-0.3,0,-10,-34.9,9.3,0.667989135,-0.0899075289,-0.653431806,-0.344492935
544,1365015,36220,0.94,0.312,0.125,-5.5,-0.2,0,-10,-34.9,9.3,0.667989135,-0.0899990844,-0.653401288,-0.344553972
545,1367297,36230,0.94,0.312,0.129,-5.5,0,0,-10,-34.9,9.3,0.667958617,-0.09009064,-0.653309732,-0.344645528
546,1370369,36230,0.94,0.316,0.129,-5.4,0,0,-10,-34.9,9.3,0.667958617,-0.090151677,-0.653309732,-0.344706565
547,1372542,36230,0.944,0.316,0.129,-5.4,0,0,-10.1,-34.8,9.2,0.667958617,-0.0902432325,-0.653279214,-0.34479812
548,1375788,36230,0.944,0.316,0.129,-5.2,-0.1,0,-10.1,-34.8,9.2,0.667928098,-0.090334788,-0.653218177,-0.344859157
549,1378943,36240,0.944,0.316,0.129,-5.2,-0.2,0.1,-10.1,-34.8,9.2,0.667928098,-0.0903958251,-0.653187658,-0.344950713
550,1381630,36240,0.948,0.32,0.129,-5.2,-0.4,0.3,-10.1,-34.8,9.2,0.66789758,-0.0904873806,-0.65315714,-0.34501175
551,1383830,36240,0.944,0.32,0.129,-5.2,-0.5,0.6,-10.1,-34.9,8.7,0.66789758,-0.0905789361,-0.653126621,-0.345072787
552,1386170,36240,0.952,0.328,0.129,-5.1,-0.4,0.8,-10.1,-34.9,8.7,0.66789758,-0.0906704917,-0.653096103,-0.345133824
553,1388424,36250,0.948,0.328,0.129,-4.9,-0.3,1.1,-10.1,-34.9,8.7,0.66789758,-0.0907620472,-0.653065584,-0.345194861
554,1390757,36250,0.948,0.328,0.129,-4.8,-0.1,1.3,-10.1,-34.9,8.7,0.667867061,-0.0908536027,-0.653035066,-0.345225379
555,1393678,36250,0.952,0.328,0.129,-4.8,0,1.3,-10.1,-34.9,8.7,0.667867061,-0.0910061953,-0.653004547,-0.345225379
556,1396570,36250,0.952,0.324,0.129,-4.8,0,1.3,-10.1,-34.9,8.7,0.667867061,-0.0910977508,-0.652974029,-0.345255898
557,1398821,36260,0.948,0.324,0.129,-4.7,0,1.2,-10.1,-34.9,8.7,0.667867061,-0.0911893063,-0.65294351,-0.345316935
558,1400967,36260,0.948,0.328,0.125,-4.7,0,1.2,-10.1,-34.9,8.7,0.667867061,-0.0912808618,-0.652882473,-0.345377972
559,1403230,36260,0.948,0.332,0.129,-4.7,-0.1,1.2,-10.1,-34.6,8.5,0.667867061,-0.0913724174,-0.652851955,-0.34540849
560,1406328,36260,0.948,0.328,0.125,-4.7,-0.1,1.2,-10.1,-34.6,8.5,0.667867061,-0.0914639729,-0.652821436,-0.345469527
561,1408602,36270,0.948,0.328,0.129,-4.7,-0.1,1.2,-10.1,-34.6,8.5,0.667867061,-0.0915555284,-0.652790918,-0.345530564
562,1410787,36270,0.944,0.324,0.126,-4.8,-0.1,1,-10.1,-34.6,8.5,0.667867061,-0.091647084,-0.652760399,-0.345561083
563,1412601,36270,0.948,0.324,0.129,-4.8,-0.1,0.8,-10.2,-34.7,8.5,0.667867061,-0.091708121,-0.652699362,-0.34562212
564,1414691,36270,0.952,0.328,0.125,-4.7,0,0.5,-10.2,-34.7,8.5,0.667867061,-0.0917996765,-0.652668844,-0.345683157
565,1417301,36280,0.952,0.324,0.129,-4.8,0,0.4,-10.2,-34.7,8.5,0.667836543,-0.091891232,-0.652638325,-0.345744194
566,1421712,36280,0.948,0.324,0.129,-5,0,0.3,-10.2,-34.7,8.5,0.667836543,-0.0919522691,-0.652607807,-0.345805231
567,1423673,36280,0.948,0.316,0.129,-5.2,0,0.2,-10.4,-35.1,8.4,0.667836543,-0.0920438246,-0.652577288,-0.345896786
568,1425974,36280,0.948,0.32,0.129,-5.4,-0.2,0.3,-10.4,-35.1,8.4,0.667806024,-0.0921353801,-0.652516251,-0.345957823
569,1428221,36290,0.948,0.316,0.129,-5.5,-0.3,0.2,-10.4,-35.1,8.4,0.667806024,-0.0921964171,-0.652485733,-0.346049379
570,1430345,36290,0.944,0.312,0.129,-5.7,-0.4,0,-10.4,-35.1,8.4,0.667775506,-0.0922879727,-0.652455214,-0.346110416
571,1433569,36290,0.944,0.32,0.129,-5.9,-0.6,-0.1,-10.2,-34.3,8.8,0.667775506,-0.0923795282,-0.652424696,-0.346171453
572,1435749,36290,0.944,0.316,0.129,-6,-0.8,-0.2,-10.2,-34.3,8.8,0.667744987,-0.0924710837,-0.652394177,-0.346293527
573,1438205,36300,0.944,0.316,0.133,-6.2,-0.8,-0.2,-10.2,-34.3,8.8,0.667714469,-0.0925626392,-0.65233314,-0.346385083
574,1441771,36300,0.944,0.312,0.129,-6.3,-0.8,0,-10.2,-34.3,8.8,0.66768395,-0.0926541948,-0.652302622,-0.346476638
575,1442204,36300,0.94,0.312,0.129,-6.3,-1.1,0.3,-10.2,-34.3,8.8,0.66768395,-0.0929288614,-0.652302622,-0.34644612
576,1444737,36300,0.94,0.312,0.129,-6.3,-1.1,0.3,-10.2,-34.3,8.8,0.667653432,-0.0930204169,-0.652272103,-0.346507157
577,1449129,36310,0.944,0.316,0.133,-6.3,-1.3,0.4,-10.2,-34.3,8.8,0.667653432,-0.0931424909,-0.652241585,-0.346598712
578,1449704,36310,0.94,0.316,0.129,-6.3,-1.4,0.5,-10.2,-34.3,8.8,0.667622913,-0.0932340464,-0.652211066,-0.346690268
579,1452254,36310,0.944,0.316,0.133,-6.3,-1.4,0.5,-10,-35.1,8.5,0.667592395,-0.0933561205,-0.652180548,-0.346751305
580,1455740,36310,0.94,0.32,0.129,-6.2,-1.4,0.6,-10,-35.1,8.5,0.667561876,-0.0934781945,-0.652150029,-0.34684286
581,1459491,36320,0.944,0.32,0.129,-6.1,-1.3,0.8,-10,-35.1,8.5,0.667531358,-0.0935697501,-0.65211951,-0.346903897
582,1459819,36320,0.94,0.32,0.129,-6,-1.3,1,-10,-35.1,8.5,0.667500839,-0.0936918241,-0.652088992,-0.346964934
583,1463531,36320,0.94,0.32,0.129,-5.8,-1.3,1.2,-10.2,-34.7,8.8,0.667470321,-0.0938138981,-0.652058473,-0.347025971
584,1465728,36320,0.94,0.324,0.129,-5.7,-1.4,1.4,-10.2,-34.7,8.8,0.667470321,-0.0939054537,-0.652027955,-0.347087008
585,1467731,36330,0.936,0.324,0.13,-5.5,-1.5,1.4,-10.2,-34.7,8.8,0.667439802,-0.0940275277,-0.652027955,-0.347148045
586,1469928,36330,0.94,0.328,0.13,-5.4,-1.5,1.3,-10.2,-34.7,8.8,0.667409284,-0.0941496017,-0.651997436,-0.347209082
587,1474057,36330,0.94,0.332,0.13,-5.2,-1.3,1.2,-10,-34.9,8.8,0.667378765,-0.0942411573,-0.651966918,-0.347270119
588,1476311,36330,0.944,0.324,0.129,-5.1,-1.2,1.2,-10,-34.9,8.8,0.667378765,-0.0943327128,-0.651936399,-0.347300638
589,1478594,36340,0.94,0.328,0.13,-5,-1.1,1.3,-10,-34.9,8.8,0.667348247,-0.0944547868,-0.651936399,-0.347361675
590,1480633,36340,0.94,0.332,0.13,-4.9,-1,1.4,-10,-34.9,8.8,0.667348247,-0.0945463424,-0.651905881,-0.347392193
591,1483243,36340,0.94,0.332,0.126,-4.8,-1,1.6,-10.3,-35.3,8.5,0.667317728,-0.0946378979,-0.651875362,-0.34745323
592,1485542,36340,0.944,0.336,0.13,-4.6,-0.9,1.5,-10.3,-35.3,8.5,0.667317728,-0.0947599719,-0.651844844,-0.347483749
593,1489264,36350,0.944,0.336,0.13,-4.4,-0.7,1.4,-10.3,-35.3,8.5,0.667317728,-0.0948210089,-0.651814325,-0.347544786
594,1489653,36350,0.948,0.332,0.129,-4.4,-0.6,1.2,-10.3,-35.3,8.5,0.66728721,-0.0949125645,-0.651783807,-0.347575304
595,1493840,36350,0.944,0.332,0.13,-4.4,-0.5,1.1,-10.3,-35.3,8.5,0.667226173,-0.09500412,-0.651844844,-0.347605823
596,1495957,36350,0.944,0.332,0.13,-4.4,-0.4,1,-10.3,-35.3,8.5,0.667226173,-0.095065157,-0.651814325,-0.34766686
597,1498332,36360,0.944,0.336,0.13,-4.4,-0.3,0.8,-10.3,-35.3,8.5,0.667226173,-0.0951567125,-0.651783807,-0.347727897
598,1500634,36360,0.952,0.332,0.129,-4.3,-0.3,0.8,-10.3,-35.3,8.5,0.667195654,-0.0952177496,-0.651753288,-0.347758415
599,1502539,36360,0.952,0.328,0.133,-4.1,-0.3,0.6,-9.9,-34.4,8.8,0.667195654,-0.0953093051,-0.65172277,-0.347819452
600,1506374,36360,0.944,0.328,0.129,-4,-0.3,0.5,-9.9,-34.4,8.8,0.667195654,-0.0953703421,-0.651692251,-0.347849971
601,1508714,36370,0.952,0.324,0.133,-4,-0.3,0.3,-9.9,-34.4,8.8,0.667195654,-0.0954313791,-0.651661733,-0.347911008
602,1510692,36370,0.952,0.328,0.129,-4.2,-0.3,0.1,-9.9,-34.4,8.8,0.667165136,-0.0954924162,-0.651631214,-0.347972045
603,1512870,36370,0.948,0.324,0.129,-4.4,-0.3,0,-10.1,-34.8,8.9,0.667165136,-0.0955839717,-0.651600696,-0.348033082
604,1514923,36370,0.948,0.32,0.129,-4.7,-0.3,-0.1,-10.1,-34.8,8.9,0.667134617,-0.0956450087,-0.651570177,-0.348094119
605,1517364,36380,0.952,0.32,0.133,-4.9,-0.3,-0.4,-10.1,-34.8,8.9,0.667134617,-0.0957060457,-0.651539659,-0.348185675
606,1519942,36380,0.952,0.32,0.129,-5.2,-0.3,-0.5,-10.1,-34.8,8.9,0.667104099,-0.0957670827,-0.65150914,-0.34827723
607,1524390,36380,0.952,0.316,0.133,-5.4,-0.3,-0.7,-10,-34.6,8.7,0.66707358,-0.0958586383,-0.651478622,-0.348338267
608,1524759,36380,0.952,0.316,0.133,-5.7,-0.3,-0.8,-10,-34.6,8.7,0.667043062,-0.0959196753,-0.651448103,-0.348460341
609,1527276,36390,0.952,0.316,0.133,-6,-0.4,-0.8,-10,-34.6,8.7,0.667043062,-0.0960112308,-0.651387066,-0.348551897
610,1529561,36390,0.952,0.312,0.133,-6.3,-0.4,-0.8,-10,-34.6,8.7,0.667012543,-0.0960722678,-0.651356548,-0.348643452
611,1533304,36390,0.952,0.312,0.133,-6.4,-0.4,-0.9,-9.9,-34.5,8.7,0.666982025,-0.0961638234,-0.651326029,-0.348735008
612,1535619,36390,0.956,0.312,0.129,-6.7,-0.3,-1.1,-9.9,-34.5,8.7,0.666951506,-0.0962553789,-0.651264992,-0.348857082
613,1537291,36400,0.948,0.312,0.133,-7,-0.2,-1.2,-9.9,-34.5,8.7,0.666920988,-0.0963469344,-0.651234474,-0.348979156
614,1541539,36400,0.956,0.312,0.129,-7.5,0,-1.4,-9.9,-34.5,8.7,0.666890469,-0.0964384899,-0.651173437,-0.34910123
615,1543785,36400,0.956,0.312,0.133,-8,0.1,-1.6,-9.9,-34.5,8.7,0.666920988,-0.0967741935,-0.651142918,-0.349040193
616,1545820,36400,0.956,0.304,0.133,-8.7,0.3,-2,-9.9,-34.5,8.7,0.666890469,-0.0968657491,-0.651081881,-0.349192785
617,1548219,36410,0.948,0.308,0.133,-9.2,0.4,-2.5,-9.9,-34.5,8.7,0.666859951,-0.0969573046,-0.650990326,-0.349375896
618,1550052,36410,0.944,0.308,0.129,-9.5,0.2,-2.6,-9.9,-34.5,8.7,0.666829432,-0.0970488601,-0.650929289,-0.349528489
619,1552474,36410,0.94,0.296,0.133,-9.5,0,-2.4,-9.7,-34.4,8.5,0.666768395,-0.0971709342,-0.650868252,-0.3497116
620,1556615,36410,0.944,0.304,0.129,-9.2,-0.4,-2.1,-9.7,-34.4,8.5,0.666737877,-0.0972624897,-0.650807215,-0.349864193
621,1558798,36420,0.944,0.304,0.133,-8.9,-0.8,-1.6,-9.7,-34.4,8.5,0.66667684,-0.0973845637,-0.650746178,-0.350016785
622,1561605,36420,0.94,0.304,0.133,-8.3,-1.2,-1.1,-9.7,-34.4,8.5,0.666646321,-0.0975066378,-0.650715659,-0.350169378
623,1563789,36420,0.944,0.312,0.133,-7.7,-1.6,-0.6,-9.9,-34.3,8.4,0.666615802,-0.0975981933,-0.650685141,-0.350260933
624,1566019,36420,0.936,0.316,0.133,-7,-1.9,-0.2,-9.9,-34.3,8.4,0.666554765,-0.0977202673,-0.650654622,-0.350383007
625,1568403,36430,0.94,0.32,0.133,-6.6,-2.2,0,-9.9,-34.3,8.4,0.666524247,-0.0978423414,-0.650624104,-0.350474563
626,1570534,36430,0.936,0.324,0.133,-6.2,-2.4,0.2,-9.9,-34.3,8.4,0.66646321,-0.0979644154,-0.650624104,-0.3505356
627,1574236,36430,0.936,0.32,0.133,-6.1,-2.5,0.2,-10,-34.4,8.2,0.666402173,-0.0980559709,-0.650593585,-0.350627155
628,1574559,36430,0.933,0.324,0.137,-6,-2.5,0.2,-10,-34.4,8.2,0.666371654,-0.098178045,-0.650593585,-0.350688192
629,1578909,36440,0.929,0.328,0.134,-6,-2.5,0.1,-10,-34.4,8.2,0.666310617,-0.098239082,-0.650593585,-0.350779748
630,1581069,36440,0.929,0.328,0.141,-6.1,-2.5,0,-10,-34.4,8.2,0.666280099,-0.0983916746,-0.650563066,-0.350840785
631,1583226,36440,0.925,0.328,0.138,-6.1,-2.5,-0.2,-10.3,-34.6,8.5,0.666219062,-0.0985137486,-0.650563066,-0.35093234
632,1585296,36440,0.925,0.332,0.142,-6.2,-2.4,-0.7,-10.3,-34.6,8.5,0.666158025,-0.0986053041,-0.650563066,-0.351023896
633,1587543,36450,0.921,0.328,0.142,-6.3,-2.3,-1.2,-10.3,-34.6,8.5,0.666096988,-0.0986968596,-0.650532548,-0.35114597
634,1589770,36450,0.921,0.328,0.142,-6.3,-2.3,-1.2,-10.3,-34.6,8.5,0.666096988,-0.0986968596,-0.650532548,-0.35114597
635,1592807,36450,0.921,0.328,0.149,-6.1,-2.3,-2,-10.3,-34.6,8.5,0.666005432,-0.0988189337,-0.650502029,-0.351390118
636,1595180,36450,0.921,0.328,0.149,-5.8,-2.3,-2.2,-10.3,-34.6,8.5,0.665944395,-0.0988799707,-0.650502029,-0.351512192
637,1597679,36460,0.921,0.324,0.145,-5.4,-2.5,-2.2,-10.3,-34.6,8.5,0.665883358,-0.0989715262,-0.650502029,-0.351603748
638,1600799,36460,0.917,0.324,0.142,-5,-2.5,-2.3,-10.3,-34.6,8.5,0.665822321,-0.0990325632,-0.650502029,-0.351695303
639,1602698,36460,0.921,0.328,0.142,-4.8,-2.4,-2.2,-10,-34.6,8.5,0.665761284,-0.0990630818,-0.650502029,-0.351817377
640,1606198,36460,0.921,0.324,0.145,-4.6,-2.3,-2,-10,-34.6,8.5,0.665700247,-0.0991241188,-0.650502029,-0.351908933
641,1608623,36470,0.921,0.328,0.142,-4.5,-2.3,-1.8,-10,-34.6,8.5,0.66563921,-0.0991851558,-0.650502029,-0.35196997
642,1611436,36470,0.921,0.328,0.146,-4.4,-2.2,-1.7,-10,-34.6,8.5,0.665578173,-0.0992156743,-0.650502029,-0.352031007
643,1613778,36470,0.925,0.328,0.145,-4.5,-2.2,-1.6,-10.2,-34.7,8.7,0.665517136,-0.0993072298,-0.650502029,-0.352153081
644,1616091,36470,0.925,0.328,0.145,-4.6,-2.2,-1.7,-10.2,-34.7,8.7,0.665456099,-0.0993682669,-0.650502029,-0.352244636
645,1617959,36480,0.929,0.324,0.149,-4.7,-2.3,-1.8,-10.2,-34.7,8.7,0.665425581,-0.0994293039,-0.650502029,-0.352336192
646,1621509,36480,0.925,0.324,0.149,-4.7,-2.5,-2,-10.2,-34.7,8.7,0.665364544,-0.0994903409,-0.650502029,-0.352427747
647,1624375,36480,0.929,0.324,0.153,-4.7,-2.7,-2.1,-10,-35.1,8.6,0.665272988,-0.0995513779,-0.650532548,-0.352519303
648,1624749,36480,0.925,0.324,0.153,-4.8,-2.9,-2.2,-10,-35.1,8.6,0.665211951,-0.0996124149,-0.650532548,-0.352610858
649,1629779,36490,0.925,0.32,0.149,-4.9,-3.3,-2.4,-10,-35.1,8.6,0.665150914,-0.0996734519,-0.650532548,-0.352702414
650,1629779,36490,0.929,0.324,0.153,-5.1,-3.7,-2.8,-10,-35.1,8.6,0.66502884,-0.0997039705,-0.650563066,-0.35279397
651,1632612,36490,0.921,0.316,0.153,-5.2,-4,-3.1,-9.6,-34.7,8.5,0.664967803,-0.099795526,-0.650593585,-0.352916044
652,1635722,36490,0.917,0.312,0.169,-5.3,-4.4,-3.5,-9.6,-34.7,8.5,0.664845729,-0.099856563,-0.650624104,-0.353038118
653,1638631,36500,0.913,0.316,0.169,-5.3,-4.8,-3.8,-9.6,-34.7,8.5,0.664754173,-0.0999176,-0.650654622,-0.353160192
654,1641534,36500,0.905,0.308,0.173,-5.5,-5.2,-4.1,-9.6,-34.7,8.5,0.664632099,-0.099978637,-0.650715659,-0.353282266
655,1643725,36500,0.901,0.308,0.181,-5.6,-5.7,-4.3,-9.6,-34.7,8.5,0.664723655,-0.100070193,-0.650471511,-0.353495895
656,1645985,36500,0.901,0.308,0.181,-5.7,-6,-4.6,-9.6,-34.7,8.5,0.664601581,-0.10013123,-0.650532548,-0.353617969
657,1648229,36510,0.893,0.308,0.181,-5.7,-6.4,-4.9,-9.6,-34.7,8.5,0.664448988,-0.100192267,-0.650593585,-0.353770562
658,1650141,36510,0.886,0.308,0.173,-5.6,-6.7,-5,-9.6,-34.7,8.5,0.664296396,-0.100253304,-0.650654622,-0.353892636
659,1652437,36510,0.889,0.308,0.181,-5.5,-7,-4.9,-9.5,-34.6,8.5,0.664174322,-0.100314341,-0.650715659,-0.354045228
660,1656345,36510,0.885,0.312,0.181,-5.2,-7.2,-4.7,-9.5,-34.6,8.5,0.664021729,-0.100375378,-0.650776696,-0.354167302
661,1658757,36520,0.882,0.308,0.181,-4.7,-7.3,-4.4,-9.5,-34.6,8.5,0.663869137,-0.100436415,-0.650868252,-0.354289377
662,1660889,36520,0.882,0.316,0.177,-4.2,-7.3,-4,-9.5,-34.6,8.5,0.663716544,-0.100497452,-0.650959807,-0.354380932
663,1663265,36520,0.882,0.316,0.177,-3.3,-7.2,-3.7,-9.3,-34.7,8.1,0.663563952,-0.100558489,-0.651051363,-0.354472488
664,1667017,36520,0.882,0.32,0.177,-2.5,-7.1,-3.3,-9.3,-34.7,8.1,0.663441877,-0.100619526,-0.651142918,-0.354533525
665,1667430,36530,0.882,0.328,0.17,-1.4,-7.1,-2.9,-9.3,-34.7,8.1,0.663319803,-0.100650044,-0.651234474,-0.354594562
666,1672186,36530,0.885,0.336,0.174,-0.4,-7,-2.6,-9.3,-34.7,8.1,0.663197729,-0.100650044,-0.651326029,-0.35462508
667,1672186,36530,0.882,0.34,0.174,0.5,-7,-2.6,-9.4,-34.7,8.3,0.663075655,-0.100680563,-0.651448103,-0.35462508
668,1674850,36530,0.885,0.34,0.17,1.6,-6.8,-3,-9.4,-34.7,8.3,0.662953581,-0.100650044,-0.651570177,-0.35462508
669,1678989,36540,0.889,0.351,0.174,2.5,-6.5,-3.5,-9.4,-34.7,8.3,0.662831507,-0.100619526,-0.651692251,-0.35462508
670,1681068,36540,0.889,0.351,0.17,3.3,-6.3,-4,-9.4,-34.7,8.3,0.662739952,-0.100558489,-0.651814325,-0.35462508
671,1683382,36540,0.893,0.359,0.166,3.9,-6.3,-4.5,-9.2,-34.6,8.4,0.662617878,-0.100497452,-0.651936399,-0.35462508
672,1685690,36540,0.889,0.371,0.166,4.4,-6.3,-5.2,-9.2,-34.6,8.4,0.662495804,-0.100405896,-0.652088992,-0.35462508
673,1687676,36550,0.897,0.367,0.162,4.8,-6.4,-6.1,-9.2,-34.6,8.4,0.66237373,-0.100283822,-0.652241585,-0.35462508
674,1690928,36550,0.893,0.375,0.162,5.2,-6.5,-6.8,-9.2,-34.6,8.4,0.662221137,-0.100161748,-0.652394177,-0.35462508
675,1693233,36550,0.901,0.379,0.162,5.4,-6.7,-7.4,-9.2,-34.6,8.4,0.662129582,-0.0997650075,-0.652394177,-0.354899747
676,1695029,36550,0.901,0.387,0.166,5.5,-6.9,-7.8,-9.2,-34.6,8.4,0.661976989,-0.0996429334,-0.65254677,-0.354930265
677,1697319,36560,0.897,0.391,0.166,5.5,-7.4,-8.3,-9.2,-34.6,8.4,0.661824396,-0.0994903409,-0.652729881,-0.354960784
678,1701427,36560,0.909,0.391,0.154,5.3,-7.9,-8.8,-9.2,-34.6,8.4,0.661641285,-0.0993682669,-0.652912992,-0.354991302
679,1703662,36560,0.913,0.394,0.158,5,-8.4,-9.2,-9,-34.9,8.3,0.661458174,-0.0992156743,-0.653096103,-0.355021821
680,1705719,36560,0.905,0.39,0.162,4.8,-8.7,-9.3,-9,-34.9,8.3,0.661275063,-0.0990936003,-0.653279214,-0.355082858
681,1709301,36570,0.897,0.386,0.174,4.8,-8.6,-9.4,-9,-34.9,8.3,0.661091952,-0.0989410077,-0.653462325,-0.355113376
682,1709750,36570,0.905,0.39,0.174,4.9,-8.3,-9.6,-9,-34.9,8.3,0.660908841,-0.0988189337,-0.653645436,-0.355174413
683,1712780,36570,0.889,0.399,0.163,4.7,-8.3,-10.3,-8.8,-35.1,8.2,0.66072573,-0.0986663411,-0.653798029,-0.35523545
684,1715182,36570,0.878,0.411,0.151,4.3,-8.7,-11.5,-8.8,-35.1,8.2,0.660512101,-0.0984832301,-0.65398114,-0.355327006
685,1718193,36580,0.878,0.411,0.151,4.3,-8.7,-11.5,-8.8,-35.1,8.2,0.660512101,-0.0984832301,-0.65398114,-0.355327006
686,1720809,36580,0.893,0.418,0.163,4.1,-9.8,-14.1,-8.8,-35.1,8.2,0.660054323,-0.0981475265,-0.654408399,-0.355571154
687,1722565,36580,0.897,0.426,0.171,4.6,-10.2,-14.8,-8.7,-34.7,8.1,0.659779656,-0.0979338969,-0.654622028,-0.355693228
688,1725697,36580,0.901,0.434,0.175,5.2,-10.4,-14.9,-8.7,-34.7,8.1,0.659535508,-0.0977202673,-0.654835658,-0.355784783
689,1729463,36590,0.901,0.434,0.175,5.2,-10.4,-14.9,-8.7,-34.7,8.1,0.659535508,-0.0977202673,-0.654835658,-0.355784783
690,1729921,36590,0.913,0.433,0.182,5.3,-11.4,-13.9,-8.7,-34.7,8.1,0.659016694,-0.0973540452,-0.655293435,-0.355998413
691,1733188,36590,0.917,0.437,0.17,4.4,-12,-13.3,-8.5,-34.8,8.6,0.658772546,-0.0971709342,-0.655537584,-0.356120487
692,1734938,36590,0.913,0.441,0.174,3.1,-12.7,-12.9,-8.5,-34.8,8.6,0.65846736,-0.0970488601,-0.655781732,-0.356212043
693,1739389,36600,0.917,0.453,0.171,1.8,-13.2,-13,-8.5,-34.8,8.6,0.658192694,-0.0969267861,-0.655995361,-0.356364635
694,1739867,36600,0.928,0.457,0.17,0.5,-13.7,-13.3,-8.5,-34.8,8.6,0.657887509,-0.0968352306,-0.656239509,-0.356517228
695,1742583,36600,0.932,0.461,0.167,-0.4,-14,-13.9,-8.5,-34.8,8.6,0.657551805,-0.0964384899,-0.656392102,-0.356975005
696,1746585,36600,0.932,0.461,0.167,-1.2,-14.4,-14.3,-8.5,-34.8,8.6,0.657216102,-0.0963774529,-0.656605731,-0.357158116
697,1748920,36610,0.932,0.465,0.163,-2,-14.9,-14.7,-8.5,-34.8,8.6,0.656910916,-0.0962858974,-0.656849879,-0.357371746
698,1751038,36610,0.932,0.461,0.159,-2.6,-15.4,-14.7,-8.5,-34.8,8.6,0.656575213,-0.0962553789,-0.657063509,-0.357585376
699,1753437,36610,0.928,0.473,0.163,-2.9,-15.8,-14.7,-8.3,-34.7,8.2,0.656208991,-0.0961943419,-0.657307657,-0.357799005
700,1755759,36610,0.936,0.473,0.163,-3.2,-16.3,-14.6,-8.3,-34.7,8.2,0.655842769,-0.0961638234,-0.657551805,-0.358043153
701,1758720,36620,0.928,0.477,0.163,-3.4,-16.6,-14.6,-8.3,-34.7,8.2,0.655507065,-0.0961333048,-0.657795953,-0.358256783
702,1760844,36620,0.928,0.473,0.163,-3.5,-16.9,-14.8,-8.3,-34.7,8.2,0.655140843,-0.0961027863,-0.658040101,-0.358500931
703,1763158,36620,0.928,0.48,0.171,-3.7,-17.1,-15,-8.1,-35,8.5,0.654744102,-0.0960722678,-0.658284249,-0.35871456
704,1765076,36620,0.92,0.48,0.183,-4,-17.2,-15.3,-8.1,-35,8.5,0.65437788,-0.0960417493,-0.658528397,-0.358958708
705,1767368,36630,0.917,0.484,0.179,-4.5,-17.4,-15.7,-8.1,-35,8.5,0.654011658,-0.0960112308,-0.658772546,-0.359202857
706,1771820,36630,0.917,0.488,0.183,-5.1,-17.6,-16.1,-8.1,-35,8.5,0.653614917,-0.0960112308,-0.659016694,-0.359477523
707,1772156,36630,0.909,0.484,0.179,-5.9,-18,-16.4,-7.9,-34.8,8.1,0.653218177,-0.0959807123,-0.659260842,-0.35975219
708,1776371,36630,0.901,0.492,0.179,-6.7,-18.4,-16.4,-7.9,-34.8,8.1,0.652790918,-0.0960112308,-0.65950499,-0.360057375
709,1778622,36640,0.897,0.492,0.183,-7.5,-18.8,-16.2,-7.9,-34.8,8.1,0.652394177,-0.0960112308,-0.659749138,-0.36036256
710,1780928,36640,0.893,0.5,0.179,-8.2,-19.2,-15.8,-7.9,-34.8,8.1,0.651966918,-0.0960722678,-0.659993286,-0.360667745
711,1783084,36640,0.889,0.508,0.18,-8.7,-19.6,-15.2,-8,-34.6,8.2,0.651539659,-0.0961333048,-0.660237434,-0.36097293
712,1785015,36640,0.889,0.508,0.18,-8.7,-19.6,-15.2,-8,-34.6,8.2,0.651539659,-0.0961333048,-0.660237434,-0.36097293
713,1787172,36650,0.885,0.512,0.18,-9.6,-20.1,-13.5,-8,-34.6,8.2,0.650715659,-0.0962858974,-0.660695212,-0.361552782
714,1791143,36650,0.885,0.52,0.172,-9.9,-20.2,-12.7,-8,-34.6,8.2,0.6502884,-0.0964079714,-0.66093936,-0.36179693
715,1794082,36650,0.893,0.528,0.164,-10.1,-20.3,-11.9,-8,-34.6,8.2,0.649769585,-0.0956144902,-0.660969878,-0.362956633
716,1796271,36650,0.897,0.532,0.168,-10.4,-20.4,-11.2,-8,-34.6,8.2,0.649372845,-0.0957670827,-0.661183508,-0.363200781
717,1798552,36660,0.893,0.54,0.164,-10.8,-20.4,-10.9,-8,-34.6,8.2,0.648945585,-0.0959196753,-0.661427656,-0.363475448
718,1800796,36660,0.893,0.548,0.164,-11.6,-20.3,-10.5,-8,-34.6,8.2,0.648548845,-0.0961027863,-0.661641285,-0.363750114
719,1802611,36660,0.905,0.563,0.164,-12.6,-20.2,-10.2,-7.7,-35.6,8.4,0.648152104,-0.0962858974,-0.661854915,-0.3640553
720,1804918,36660,0.901,0.567,0.157,-13.8,-20.1,-9.7,-7.7,-35.6,8.4,0.647755364,-0.096499527,-0.662038026,-0.364329966
721,1807086,36670,0.905,0.571,0.164,-15.3,-20,-9.3,-7.7,-35.6,8.4,0.647358623,-0.096743675,-0.662221137,-0.364635151
722,1809779,36670,0.909,0.571,0.16,-17,-20,-8.9,-7.7,-35.6,8.4,0.646961882,-0.0970183416,-0.66237373,-0.364970855
723,1814183,36670,0.909,0.575,0.16,-18.8,-20.1,-8.5,-7.8,-35.5,8.1,0.646565142,-0.0973235267,-0.662526322,-0.365337077
724,1816427,36670,0.905,0.571,0.149,-20.8,-20.2,-8.2,-7.8,-35.5,8.1,0.646168401,-0.0976592303,-0.662678915,-0.365703299
725,1818717,36680,0.913,0.579,0.16,-22.7,-20.4,-7.9,-7.8,-35.5,8.1,0.645741142,-0.0980254524,-0.662800989,-0.36610004
726,1820902,36680,0.917,0.575,0.156,-24.7,-20.7,-7.8,-7.8,-35.5,8.1,0.645344401,-0.0984221931,-0.662923063,-0.366527299
727,1823101,36680,0.92,0.579,0.156,-26.7,-21.2,-7.6,-7.7,-35.1,8,0.644917142,-0.0988799707,-0.663014618,-0.366985076
728,1826663,36680,0.924,0.579,0.156,-28.7,-21.8,-7.5,-7.7,-35.1,8,0.644459365,-0.0993377483,-0.663106174,-0.367442854
729,1828541,36690,0.92,0.579,0.153,-30.6,-22.6,-7.4,-7.7,-35.1,8,0.644032105,-0.099856563,-0.663197729,-0.367961669
730,1830839,36690,0.92,0.575,0.152,-32.4,-23.4,-7.5,-7.7,-35.1,8,0.643543809,-0.100375378,-0.663289285,-0.368480483
731,1833140,36690,0.917,0.575,0.149,-34.2,-24,-7.7,-7.3,-35.4,8,0.643055513,-0.100955229,-0.663350322,-0.369029817
732,1835537,36690,0.917,0.571,0.145,-35.8,-24.4,-7.7,-7.3,-35.4,8,0.642567217,-0.101535081,-0.663441877,-0.369609668
733,1837460,36700,0.921,0.571,0.141,-37.2,-24.7,-7.6,-7.3,-35.4,8,0.642078921,-0.102145451,-0.663502915,-0.37018952
734,1839747,36700,0.917,0.571,0.141,-38.5,-24.7,-7.6,-7.3,-35.4,8,0.641560106,-0.102755821,-0.663533433,-0.37079989
735,1844506,36700,0.913,0.563,0.137,-40,-24.7,-7.6,-7.3,-35.4,8,0.640888699,-0.102908414,-0.66359447,-0.371868038
736,1844887,36700,0.913,0.563,0.137,-41.5,-24.7,-7.6,-7.3,-35.4,8,0.640369884,-0.103579821,-0.66359447,-0.372539445
737,1847199,36710,0.913,0.563,0.137,-43,-24.7,-7.4,-7.3,-35.4,8,0.63985107,-0.104251228,-0.663624989,-0.373210852
738,1849752,36710,0.913,0.56,0.133,-44.4,-24.7,-7.1,-7.3,-35.4,8,0.639332255,-0.104983673,-0.663624989,-0.37388226
739,1854118,36710,0.913,0.56,0.129,-45.8,-24.7,-6.6,-7,-35.9,7.4,0.63881344,-0.105716117,-0.66359447,-0.374584185
740,1856391,36710,0.913,0.56,0.129,-47,-24.9,-6.3,-7,-35.9,7.4,0.638294626,-0.106509598,-0.66359447,-0.375286111
741,1858816,36720,0.913,0.556,0.129,-48.1,-25.2,-6,-7,-35.9,7.4,0.637775811,-0.107272561,-0.663563952,-0.376018555
742,1860836,36720,0.913,0.556,0.125,-49.2,-25.6,-5.9,-7,-35.9,7.4,0.637226478,-0.108096561,-0.663533433,-0.376750999
743,1863215,36720,0.921,0.552,0.121,-50.3,-25.9,-5.8,-7,-35.8,7.3,0.636677145,-0.10892056,-0.663472396,-0.377513962
744,1867119,36720,0.921,0.56,0.117,-51.3,-26,-5.6,-7,-35.8,7.3,0.636127812,-0.109775079,-0.663441877,-0.378276925
745,1867487,36730,0.921,0.564,0.113,-52.3,-26.1,-5.2,-7,-35.8,7.3,0.635578478,-0.110629597,-0.66338084,-0.379039888
746,1871463,36730,0.921,0.556,0.109,-53.2,-26.1,-4.8,-7,-35.8,7.3,0.635029145,-0.111514634,-0.663319803,-0.37980285
747,1873669,36730,0.921,0.552,0.109,-54.2,-26.1,-4.2,-6.7,-36.2,7,0.634510331,-0.11239967,-0.663228248,-0.380596332
748,1876088,36730,0.925,0.544,0.101,-55.3,-26,-3.8,-6.7,-36.2,7,0.633960997,-0.113345744,-0.663136692,-0.381389813
749,1878269,36740,0.929,0.54,0.093,-56.5,-25.9,-3.4,-6.7,-36.2,7,0.633411664,-0.114291818,-0.663045137,-0.382183294
750,1880115,36740,0.925,0.536,0.093,-57.8,-25.9,-3.2,-6.7,-36.2,7,0.632862331,-0.11526841,-0.662923063,-0.383007294
751,1882356,36740,0.929,0.529,0.081,-59.1,-25.9,-3.1,-6.9,-35.8,6.5,0.632312998,-0.116275521,-0.662800989,-0.383831294
752,1884675,36740,0.933,0.521,0.081,-60.6,-25.9,-3.1,-6.9,-35.8,6.5,0.631763665,-0.117282632,-0.662648396,-0.384685812
753,1889424,36750,0.925,0.509,0.081,-62.1,-25.9,-3.3,-6.9,-35.8,6.5,0.631183813,-0.118259224,-0.662495804,-0.385570849
754,1889721,36750,0.929,0.49,0.069,-63.6,-26.1,-3.6,-6.9,-35.8,6.5,0.630603961,-0.119327372,-0.662343211,-0.386455885
755,1893891,36750,0.933,0.474,0.069,-65,-26.3,-4,-6.9,-35.8,6.5,0.629566332,-0.119693594,-0.662404248,-0.387890255
756,1896174,36750,0.933,0.474,0.069,-66.3,-26.6,-4.5,-6.9,-35.8,6.5,0.62898648,-0.120761742,-0.662221137,-0.388866848
757,1898370,36760,0.94,0.466,0.069,-67.3,-26.9,-5.2,-6.9,-35.8,6.5,0.62837611,-0.12182989,-0.662038026,-0.389812922
758,1900710,36760,0.94,0.446,0.068,-68.3,-27.1,-5.8,-6.9,-35.8,6.5,0.627735221,-0.122928556,-0.661854915,-0.390820032
759,1902686,36760,0.948,0.45,0.072,-69.1,-27.4,-6.2,-6.2,-36.7,5.8,0.627094333,-0.123996704,-0.661641285,-0.391827143
760,1906657,36760,0.948,0.434,0.076,-69.9,-27.7,-6.3,-6.2,-36.7,5.8,0.626453444,-0.125125889,-0.661458174,-0.392864772
761,1908893,36770,0.952,0.411,0.079,-70.7,-28.1,-6.3,-6.2,-36.7,5.8,0.625812555,-0.126194037,-0.661244545,-0.393871883
762,1911168,36770,0.952,0.403,0.079,-71.6,-28.4,-6.3,-6.2,-36.7,5.8,0.625141148,-0.12735374,-0.661030915,-0.394909513
763,1913347,36770,0.956,0.395,0.075,-72.5,-28.6,-6.3,-6.7,-36.5,5.8,0.624469741,-0.128513443,-0.660817286,-0.39597766
764,1915134,36770,0.956,0.383,0.083,-73.5,-28.9,-6.2,-6.7,-36.5,5.8,0.623798334,-0.129673147,-0.660573138,-0.397045808
765,1917459,36780,0.964,0.367,0.09,-74.3,-29.3,-6.1,-6.7,-36.5,5.8,0.623096408,-0.13083285,-0.660359508,-0.398113956
766,1921388,36780,0.964,0.359,0.094,-74.9,-29.6,-6,-6.7,-36.5,5.8,0.622425001,-0.132023072,-0.66011536,-0.399182104
767,1923760,36780,0.964,0.355,0.094,-75.3,-29.7,-6,-6.4,-36.6,5.4,0.621723075,-0.133213294,-0.65990173,-0.40028077
768,1926014,36780,0.964,0.34,0.102,-75.4,-29.8,-5.8,-6.4,-36.6,5.4,0.621021149,-0.134434034,-0.659657582,-0.401348918
769,1928290,36790,0.968,0.332,0.102,-75.1,-29.6,-5.3,-6.4,-36.6,5.4,0.620319224,-0.135624256,-0.659413434,-0.402417066
770,1930641,36790,0.968,0.328,0.102,-74.4,-29.2,-4.7,-6.4,-36.6,5.4,0.619617298,-0.136814478,-0.659169286,-0.403454695
771,1932560,36790,0.968,0.316,0.105,-73.2,-28.7,-3.8,-6.5,-36.9,4.8,0.618976409,-0.1380047,-0.658925138,-0.404492325
772,1934846,36790,0.964,0.312,0.117,-71.3,-28.1,-3,-6.5,-36.9,4.8,0.618305002,-0.139164403,-0.65868099,-0.405468917
773,1937043,36800,0.968,0.312,0.129,-69,-27.6,-2.2,-6.5,-36.9,4.8,0.617694632,-0.140324107,-0.658436842,-0.406384472
774,1941227,36800,0.972,0.308,0.133,-66.1,-27.1,-1.5,-6.5,-36.9,4.8,0.617084262,-0.141422773,-0.658223212,-0.407300027
775,1943754,36800,0.972,0.311,0.144,-59.1,-25.3,0,-6.5,-36.9,4.8,0.616718039,-0.142674032,-0.657918027,-0.407910398
776,1946101,36800,0.979,0.315,0.164,-59.1,-25.3,0,-6.5,-36.9,4.8,0.616168706,-0.143711661,-0.657734916,-0.40867336
777,1948268,36810,0.983,0.311,0.172,-54.9,-23.8,0.7,-6.5,-36.9,4.8,0.61568041,-0.144657735,-0.657551805,-0.409375286
778,1950291,36810,0.987,0.315,0.179,-50,-21.8,1.6,-6.5,-36.9,4.8,0.615222633,-0.145542772,-0.657399213,-0.410016175
779,1952458,36810,0.995,0.326,0.183,-44.5,-19.5,2.4,-5.9,-37.1,4.5,0.614825892,-0.146366771,-0.657216102,-0.410565508
780,1954733,36810,0.995,0.33,0.179,-38.4,-17,3.2,-5.9,-37.1,4.5,0.614490188,-0.147068697,-0.657124546,-0.410992767
781,1959079,36820,0.999,0.338,0.168,-31.5,-14.5,3.6,-5.9,-37.1,4.5,0.614215522,-0.147679067,-0.657002472,-0.411358989
782,1960979,36820,1.007,0.366,0.141,-23.7,-12.3,3.9,-5.9,-37.1,4.5,0.613971374,-0.148167364,-0.656941435,-0.411603137
783,1963267,36820,1.003,0.386,0.133,-15.2,-10.4,4.2,-6,-37.4,4.5,0.613818781,-0.148533586,-0.656941435,-0.411725211
784,1965673,36820,0.999,0.398,0.125,-6.1,-9,4.2,-6,-37.4,4.5,0.613696707,-0.148747215,-0.657002472,-0.41175573
785,1968737,36830,0.995,0.414,0.106,3.2,-7.8,3.9,-6,-37.4,4.5,0.61363567,-0.148838771,-0.657124546,-0.411603137
786,1971801,36830,0.968,0.446,0.064,12.6,-6.5,2.8,-6,-37.4,4.5,0.613605152,-0.148777734,-0.657307657,-0.411389508
787,1972315,36830,0.952,0.462,0.037,21.4,-5.2,1,-6.4,-37,4.5,0.613605152,-0.148533586,-0.657582324,-0.411023286
788,1976791,36830,0.952,0.482,0.01,29.9,-3.7,-1.7,-6.4,-37,4.5,0.61363567,-0.148136845,-0.657887509,-0.410626545
789,1977198,36840,0.921,0.487,0,38,-1.8,-5.1,-6.4,-37,4.5,0.613696707,-0.147587512,-0.658284249,-0.410138249
790,1979719,36840,0.875,0.496,-0.046,45.6,0.4,-9.2,-6.4,-37,4.5,0.613757744,-0.146824549,-0.658711509,-0.409588916
791,1984141,36840,0.875,0.5,-0.066,52.7,2.9,-13.6,-5.8,-36.8,4.4,0.6138493,-0.145908994,-0.659199805,-0.409039583
792,1986254,36840,0.875,0.505,-0.093,58.6,5.3,-18.6,-5.8,-36.8,4.4,0.613940855,-0.144810327,-0.659688101,-0.408459731
793,1988568,36850,0.898,0.489,-0.121,62.5,7.8,-23.9,-5.8,-36.8,4.4,0.614062929,-0.143559069,-0.660237434,-0.407910398
794,1990706,36850,0.922,0.493,-0.149,63.4,10.1,-28.7,-5.8,-36.8,4.4,0.614154485,-0.142185736,-0.66072573,-0.407391583
795,1993023,36850,0.984,0.484,-0.146,52.5,15,-33.6,-5.8,-36.8,4.4,0.613574633,-0.140598773,-0.661763359,-0.407147435
796,1994699,36850,0.984,0.484,-0.146,52.5,15,-33.6,-5.8,-36.8,4.4,0.61363567,-0.139286477,-0.662129582,-0.406903287
797,1999187,36860,0.926,0.387,-0.162,38.8,17.1,-31.5,-5.8,-36.8,4.4,0.613727226,-0.138157292,-0.662343211,-0.406811731
798,1999641,36860,0.945,0.363,-0.151,19.4,18.6,-26.1,-5.8,-36.8,4.4,0.613818781,-0.137363811,-0.662343211,-0.406933805
799,2002295,36860,0.988,0.327,-0.148,-5,18.7,-18.9,-5.7,-36.7,5.1,0.613910337,-0.136997589,-0.662099063,-0.407300027
800,2005847,36860,1.023,0.291,-0.079,-32.9,17,-11,-5.7,-36.7,5.1,0.613971374,-0.137119663,-0.661610767,-0.407971435
801,2007642,36870,0.941,0.213,-0.059,-63.1,13.7,-2.9,-5.7,-36.7,5.1,0.613940855,-0.13779107,-0.660878323,-0.408978545
802,2009919,36870,0.891,0.131,-0.043,-94.8,8.4,5.8,-5.7,-36.7,5.1,0.613818781,-0.139072848,-0.65990173,-0.410290841
803,2012245,36870,0.902,0.076,-0.032,-126.8,0.7,14.8,-5.9,-37.2,4.1,0.613605152,-0.140964995,-0.658711509,-0.411908322
804,2017096,36870,0.933,-0.03,0.004,-157.1,-9.7,22.4,-5.9,-37.2,4.1,0.613177892,-0.143498032,-0.657368694,-0.413830988
805,2017096,36880,0.984,-0.082,0.01,-182.8,-22.5,26.8,-5.9,-37.2,4.1,0.612506485,-0.146519364,-0.655903806,-0.416028321
806,2021583,36880,1.027,-0.111,0.04,-202.3,-35.8,28.3,-5.9,-37.2,4.1,0.61159093,-0.149967956,-0.654469436,-0.418439283
807,2023854,36880,1.051,-0.205,0.051,-214.6,-47.7,28.5,-6.4,-37.2,3.3,0.610461745,-0.153660695,-0.653035066,-0.420941801
808,2026037,36880,1.07,-0.268,0.03,-219.7,-56.8,29.6,-6.4,-37.2,3.3,0.609179968,-0.157536546,-0.651661733,-0.423474837
809,2028159,36890,1.086,-0.315,0.029,-217.2,-62,32.6,-6.4,-37.2,3.3,0.607837153,-0.161442915,-0.650379955,-0.425916318
810,2030184,36890,1.066,-0.354,0.037,-206.2,-63.3,36.9,-6.4,-37.2,3.3,0.606555376,-0.165257729,-0.649159215,-0.428144169
811,2033517,36890,1.043,-0.401,0.025,-186.5,-60.8,41.3,-6.2,-37.8,2.1,0.605395672,-0.16891995,-0.648060549,-0.430005799
812,2035736,36890,1.008,-0.428,-0.001,-159.1,-55.8,44.7,-6.2,-37.8,2.1,0.604449599,-0.17218543,-0.647144993,-0.431470687
813,2037390,36900,0.993,-0.427,-0.02,-125.8,-49.8,45.9,-6.2,-37.8,2.1,0.603717154,-0.174962615,-0.646443068,-0.432447279
814,2041646,36900,1.004,-0.286,-0.023,-88.7,-43.8,43.6,-6.2,-37.8,2.1,0.603167821,-0.177159948,-0.646015809,-0.432935575
815,2043755,36900,1.039,-0.16,-0.077,-13.2,-34.9,28.2,-6,-37.2,2,0.603259377,-0.178991058,-0.646107364,-0.431867428
816,2046019,36900,1.039,-0.16,-0.077,-13.2,-34.9,28.2,-6,-37.2,2,0.60298471,-0.179876095,-0.646320994,-0.431562243
817,2048085,36910,1.008,-0.135,-0.131,17.1,-33.4,19.9,-6,-37.2,2,0.602771081,-0.180242317,-0.646870327,-0.430921354
818,2050259,36910,0.997,-0.083,-0.216,38.7,-33.9,14.5,-6,-37.2,2,0.60258797,-0.180272835,-0.647602771,-0.430036317
819,2053534,36910,1.013,-0.067,-0.259,51.9,-35.4,12,-6.3,-37.2,2.3,0.602404859,-0.180089724,-0.648518326,-0.429029206
820,2055733,36910,1.009,-0.066,-0.279,58.8,-37.2,10.3,-6.3,-37.2,2.3,0.602191229,-0.179815058,-0.649525437,-0.427900021
821,2059479,36920,1.001,-0.078,-0.298,61.5,-38.9,7.7,-6.3,-37.2,2.3,0.601947081,-0.179479354,-0.650563066,-0.426770837
822,2059858,36920,1.048,-0.101,-0.335,60.9,-40.2,3.6,-6.3,-37.2,2.3,0.601672414,-0.179113132,-0.651661733,-0.425702689
823,2062153,36920,1.064,-0.129,-0.335,57.3,-41.3,-2.3,-6,-37.6,2.7,0.601275674,-0.178716391,-0.652729881,-0.424756615
824,2064645,36920,1.08,-0.157,-0.336,50.5,-42,-9.8,-6,-37.6,2.7,0.600787378,-0.178289132,-0.653798029,-0.423993652
825,2068388,36930,1.123,-0.228,-0.333,41,-42,-18.1,-6,-37.6,2.7,0.600177007,-0.177892392,-0.654805139,-0.423474837
826,2070614,36930,1.134,-0.275,-0.326,29.6,-41.3,-26.2,-6,-37.6,2.7,0.599444563,-0.177495651,-0.655720695,-0.423261208
827,2072609,36930,1.138,-0.315,-0.315,17.3,-40.2,-33.3,-6.1,-37.5,2.6,0.598620563,-0.177159948,-0.656514176,-0.423291726
828,2076478,36930,1.158,-0.358,-0.293,5.5,-39.1,-38.2,-6.1,-37.5,2.6,0.597735527,-0.176915799,-0.657216102,-0.423535875
829,2078747,36940,1.193,-0.434,-0.259,-5,-38.5,-40.6,-6.1,-37.5,2.6,0.596789453,-0.176732688,-0.65785699,-0.423993652
830,2080989,36940,1.193,-0.434,-0.259,-5,-38.5,-40.6,-6.1,-37.5,2.6,0.596789453,-0.176732688,-0.65785699,-0.423993652
831,2083250,36940,1.216,-0.494,-0.213,-20.6,-38.5,-37.7,-5.6,-37.3,2.7,0.594836268,-0.176793725,-0.658833583,-0.425214393
832,2085529,36940,1.224,-0.545,-0.179,-25.3,-38.6,-32.8,-5.6,-37.3,2.7,0.593859676,-0.176976836,-0.659230323,-0.425855281
833,2087481,36950,1.224,-0.545,-0.179,-25.3,-38.6,-32.8,-5.6,-37.3,2.7,0.593859676,-0.176976836,-0.659230323,-0.425855281
834,2089752,36950,1.22,-0.596,-0.167,-26.6,-37.6,-18.1,-5.6,-37.3,2.7,0.592150639,-0.177770318,-0.659871212,-0.426923429
835,2092275,36950,1.212,-0.612,-0.164,-22.3,-36.2,-9.3,-5.6,-37,2.6,0.591448714,-0.178258614,-0.660176397,-0.427228614
836,2094509,36950,1.208,-0.612,-0.175,-13.6,-34,0,-5.6,-37,2.6,0.590929899,-0.17874691,-0.660481582,-0.427289651
837,2099008,36960,1.208,-0.596,-0.195,0.2,-30.9,9.6,-5.6,-37,2.6,0.590563677,-0.179174169,-0.660847804,-0.427045503
838,2101323,36960,1.201,-0.58,-0.21,19.5,-26.8,19.2,-5.6,-37,2.6,0.590441603,-0.179448836,-0.661305582,-0.426404614
839,2103466,36960,1.189,-0.513,-0.244,43.7,-21.8,28.7,-5.4,-37.5,3.1,0.590563677,-0.179509873,-0.661885434,-0.425305948
840,2105688,36960,1.177,-0.477,-0.275,71.3,-15.7,37.6,-5.4,-37.5,3.1,0.590960417,-0.179296243,-0.662587359,-0.423718986
841,2107710,36970,1.17,-0.441,-0.294,100.6,-8.4,45.6,-5.4,-37.5,3.1,0.591631825,-0.178716391,-0.663441877,-0.421643727
842,2109979,36970,1.154,-0.382,-0.316,129.7,0,51.9,-5.4,-37.5,3.1,0.592608417,-0.177800836,-0.664448988,-0.419110691
843,2112254,36970,1.142,-0.275,-0.342,157.2,8.9,56.4,-6,-37.6,4,0.593890194,-0.17648854,-0.665547655,-0.416119877
844,2114794,36970,1.134,-0.232,-0.361,181.9,18,58.8,-6,-37.6,4,0.595355083,-0.174840541,-0.666737877,-0.412793359
845,2117069,36980,1.131,-0.188,-0.372,202.5,26.7,59.4,-6,-37.6,4,0.597064119,-0.172826319,-0.667958617,-0.409161657
846,2121391,36980,1.127,-0.121,-0.411,218.7,34.5,58.5,-6,-37.6,4,0.59889523,-0.170506912,-0.669240394,-0.405346843
847,2123274,36980,1.123,-0.085,-0.426,230.3,41.2,56.5,-6.3,-36.7,5.4,0.600848415,-0.167973876,-0.670522172,-0.401379437
848,2125686,36980,1.127,-0.054,-0.425,238.1,46.9,53.6,-6.3,-36.7,5.4,0.602862636,-0.16522721,-0.671773431,-0.397381512
849,2127669,36990,1.131,-0.038,-0.433,242.6,51.3,50.1,-6.3,-36.7,5.4,0.604937895,-0.162297433,-0.673024689,-0.39332255
850,2129964,36990,1.135,-0.022,-0.445,244.4,54.6,46.2,-6.3,-36.7,5.4,0.606982635,-0.159306619,-0.674214911,-0.389324625
851,2132108,36990,1.139,-0.014,-0.453,244,56.7,42.1,-7.1,-36.8,6.1,0.608996857,-0.156193731,-0.675374615,-0.385357219
852,2136582,36990,1.139,-0.003,-0.46,241.8,58,38.4,-7.1,-36.8,6.1,0.611011078,-0.153050325,-0.6765038,-0.381481368
853,2137080,37000,1.139,-0.018,-0.46,238.5,58.6,35.4,-7.1,-36.8,6.1,0.612964263,-0.149906919,-0.677571947,-0.377666555
854,2141707,37000,1.139,-0.014,-0.456,234.3,58.8,33.5,-7.1,-36.8,6.1,0.61485641,-0.146794031,-0.678609577,-0.373943297
855,2142069,37000,1.139,-0.038,-0.465,229.6,58.8,32.9,-7.1,-34.8,7.9,0.616718039,-0.143711661,-0.679586169,-0.370281075
856,2144714,37000,1.143,-0.057,-0.469,224.7,58.8,33.5,-7.1,-34.8,7.9,0.61854915,-0.140720847,-0.680501724,-0.366679891
857,2149195,37010,1.15,-0.085,-0.469,220.1,58.9,35.2,-7.1,-34.8,7.9,0.620380261,-0.13779107,-0.681325724,-0.363109226
858,2149720,37010,1.15,-0.093,-0.465,216.2,59.4,37.8,-7.1,-34.8,7.9,0.622211371,-0.134952849,-0.682119205,-0.359569079
859,2154394,37010,1.158,-0.101,-0.47,213.7,60.6,41,-7.3,-35.1,8.8,0.624073,-0.132175665,-0.68285165,-0.355998413
860,2154742,37010,1.158,-0.105,-0.458,212.5,62.7,44.4,-7.3,-35.1,8.8,0.625934629,-0.129459517,-0.683492538,-0.352397229
861,2159080,37020,1.166,-0.117,-0.466,212.6,65.5,48,-7.3,-35.1,8.8,0.627887814,-0.126773888,-0.684102908,-0.348765526
862,2161285,37020,1.178,-0.12,-0.478,214,68.7,51.8,-7.3,-35.1,8.8,0.629871517,-0.12408826,-0.684652242,-0.345042268
863,2163343,37020,1.186,-0.12,-0.482,216.8,71.9,55.8,-7.8,-34.8,9.5,0.631977294,-0.121402631,-0.685110019,-0.341227454
864,2165669,37020,1.197,-0.105,-0.494,221,75.1,60,-7.8,-34.8,9.5,0.63411359,-0.118686483,-0.685567797,-0.337290567
865,2168233,37030,1.205,-0.081,-0.501,226.7,78.2,64.1,-7.8,-34.8,9.5,0.636341441,-0.115939817,-0.685964537,-0.333201086
866,2170547,37030,1.213,-0.066,-0.505,233.8,81.4,68.1,-7.8,-34.8,9.5,0.638630329,-0.113101596,-0.686361278,-0.328959014
867,2172489,37030,1.221,-0.058,-0.517,241.4,84.2,72.2,-8.7,-34.2,11,0.640980255,-0.110232856,-0.6867275,-0.32453383
868,2174780,37030,1.233,-0.018,-0.536,248.9,86.9,76.3,-8.7,-34.2,11,0.643421735,-0.107272561,-0.687063204,-0.319956053
869,2177498,37040,1.237,-0.002,-0.544,255.8,89.3,80.4,-8.7,-34.2,11,0.645924253,-0.104251228,-0.687398907,-0.315195166
870,2180079,37040,1.244,0.02,-0.548,262,91.5,84.5,-8.7,-34.2,11,0.648457289,-0.101168859,-0.687704093,-0.310281686
871,2182258,37040,1.256,0.06,-0.575,267.3,93.5,88.5,-9.5,-33.3,12.1,0.651020844,-0.098117008,-0.687978759,-0.305215613
872,2184864,37040,1.256,0.087,-0.586,271.3,95.1,92.1,-9.5,-33.3,12.1,0.653645436,-0.09500412,-0.688222907,-0.300027467
873,2188729,37050,1.256,0.099,-0.59,274.2,96.5,95.3,-9.5,-33.3,12.1,0.656270028,-0.091891232,-0.688436537,-0.294747765
874,2190952,37050,1.252,0.127,-0.598,275.9,97.8,98.1,-9.5,-33.3,12.1,0.65889462,-0.0887783441,-0.688589129,-0.289376507
875,2193068,37050,1.252,0.147,-0.629,276.5,98.9,100.5,-10.2,-31.2,13.8,0.66154973,-0.0856959746,-0.688711203,-0.283974731
876,2195021,37050,1.241,0.155,-0.644,276.2,99.7,102.7,-10.2,-31.2,13.8,0.664174322,-0.0826136052,-0.68877224,-0.278511917
877,2197243,37060,1.213,0.136,-0.659,275.4,100.2,104.3,-10.2,-31.2,13.8,0.666798914,-0.0795922727,-0.688802759,-0.273018586
878,2199742,37060,1.225,0.19,-0.647,274.8,100.6,104.9,-10.2,-31.2,13.8,0.669392987,-0.0765709403,-0.68877224,-0.267525254
879,2204235,37060,1.213,0.191,-0.655,275,100.9,104.4,-10.8,-31.7,13.9,0.67198706,-0.0735190893,-0.688711203,-0.262031922
880,2206223,37060,1.21,0.191,-0.667,276.2,100.8,102.7,-10.8,-31.7,13.9,0.674520096,-0.0704062014,-0.688619648,-0.256538591
881,2208502,37070,1.209,0.207,-0.662,277.8,100.4,100.6,-10.8,-31.7,13.9,0.676992096,-0.0672933134,-0.688528092,-0.251045259
882,2210896,37070,1.202,0.23,-0.662,278.9,99.4,98.6,-10.8,-31.7,13.9,0.679433576,-0.0641193884,-0.688436537,-0.245521409
883,2213815,37070,1.221,0.261,-0.654,279.6,98.3,97.4,-11.6,-31,15.3,0.681783502,-0.0609149449,-0.688314463,-0.240028077
884,2215944,37070,1.221,0.269,-0.662,279.8,97.1,97,-11.6,-31,15.3,0.684102908,-0.0576494644,-0.688192389,-0.234504227
885,2218215,37080,1.209,0.277,-0.654,279.5,96.1,97.7,-11.6,-31,15.3,0.686391797,-0.0544755394,-0.688070315,-0.228949858
886,2220039,37080,1.209,0.277,-0.654,279.5,96.1,97.7,-11.6,-31,15.3,0.686391797,-0.0544755394,-0.688070315,-0.228949858
887,2222431,37080,1.213,0.304,-0.638,277.2,94.7,101.4,-12.2,-29.1,16.5,0.690847499,-0.048219245,-0.687673574,-0.217810602
888,2226557,37080,1.205,0.308,-0.634,275.1,94.1,103.8,-12.2,-29.1,16.5,0.693044832,-0.0451979125,-0.687459944,-0.212195196
889,2228677,37090,1.194,0.32,-0.645,272.6,93,106,-12.2,-29.1,16.5,0.695181127,-0.0422376171,-0.687185278,-0.206610309
890,2230896,37090,1.194,0.324,-0.645,269.6,91.3,107.9,-12.2,-29.1,16.5,0.697256386,-0.0393383587,-0.686910611,-0.200994903
891,2233670,37090,1.19,0.32,-0.645,266.5,89.4,109.3,-12.8,-28.3,17.3,0.699301126,-0.0365306558,-0.686605426,-0.195410016
892,2235876,37090,1.178,0.317,-0.641,263.7,87.5,110.1,-12.8,-28.3,17.3,0.701284829,-0.03378399,-0.686269723,-0.189855647
893,2238173,37100,1.178,0.328,-0.641,261.6,85.7,109.9,-12.8,-28.3,17.3,0.703176977,-0.0310678426,-0.685964537,-0.184301279
894,2240612,37100,1.178,0.328,-0.637,260,83.9,109.1,-12.8,-28.3,17.3,0.705038606,-0.0283822138,-0.685628834,-0.178807947
895,2242381,37100,1.162,0.328,-0.633,258.9,82,107.4,-13.9,-25.7,19.2,0.706839198,-0.025696585,-0.68529313,-0.173314615
896,2246562,37100,1.151,0.325,-0.629,258.2,79.7,105.3,-13.9,-25.7,19.2,0.708548235,-0.0229499191,-0.684957427,-0.167882321
897,2248854,37110,1.151,0.332,-0.625,258,77.1,102.9,-13.9,-25.7,19.2,0.710196234,-0.0202337718,-0.684652242,-0.162450026
898,2251093,37110,1.147,0.34,-0.624,258.4,74.4,100,-13.9,-25.7,19.2,0.711783197,-0.0174565874,-0.684377575,-0.157078768
899,2253253,37110,1.147,0.356,-0.632,259.5,71.7,96.8,-14.4,-25.4,18.8,0.713248085,-0.014618366,-0.684102908,-0.151707511
900,2255633,37110,1.139,0.38,-0.632,261.4,69,93.5,-14.4,-25.4,18.8,0.714682455,-0.0117191076,-0.683828242,-0.14639729
901,2257572,37120,1.139,0.399,-0.628,263.8,66.8,90.5,-14.4,-25.4,18.8,0.716025269,-0.00875881222,-0.683584094,-0.141056551
902,2261762,37120,1.131,0.415,-0.631,266.7,64.9,88,-14.4,-25.4,18.8,0.717276528,-0.00570696127,-0.683370464,-0.135715812
903,2262181,37120,1.123,0.443,-0.623,270,63.7,86.5,-14.9,-24.6,19.7,0.718527787,-0.0025635548,-0.683156835,-0.130344554
904,2264763,37120,1.092,0.443,-0.638,273.8,62.9,85.8,-14.9,-24.6,19.7,0.71968749,0.00057985168,-0.682912687,-0.124912259
905,2267469,37130,1.072,0.451,-0.641,278,62.8,85.8,-14.9,-24.6,19.7,0.720847194,0.00384533219,-0.682699057,-0.119418928
906,2269556,37130,1.072,0.471,-0.657,282.9,63.3,85.3,-14.9,-24.6,19.7,0.721976379,0.00717184973,-0.68242439,-0.11383404
907,2272162,37130,1.068,0.537,-0.625,288.9,64.6,83.7,-15.6,-23,20.6,0.723075045,0.0106509598,-0.682119205,-0.108218635
908,2276621,37130,1.053,0.557,-0.612,295.9,67.3,80.3,-15.6,-23,20.6,0.72420423,0.0142826624,-0.681752983,-0.102511673
909,2278898,37140,1.021,0.573,-0.604,303.3,71.2,75.7,-15.6,-23,20.6,0.725302896,0.0180669576,-0.681325724,-0.0967741935
910,2281017,37140,0.974,0.616,-0.579,310.1,75.7,70.9,-15.6,-23,20.6,0.726432081,0.0220954009,-0.680776391,-0.0910367138
911,2283396,37140,0.967,0.636,-0.575,315.4,80.3,65.9,-16.2,-21.6,21.8,0.727591784,0.0263069552,-0.680135502,-0.085238197
912,2285696,37140,0.955,0.656,-0.574,319.2,84.5,60.4,-16.2,-21.6,21.8,0.728751488,0.0306405835,-0.679403058,-0.0795007172
913,2289548,37150,0.939,0.675,-0.562,321.8,88.2,54.4,-16.2,-21.6,21.8,0.729911191,0.0350962859,-0.678579058,-0.0737937559
914,2290101,37150,0.9,0.691,-0.526,323.3,91.7,47.9,-16.2,-21.6,21.8,0.731101413,0.0396740623,-0.677663503,-0.0681783502
915,2293249,37150,0.88,0.699,-0.51,323.6,95.2,41.3,-16.7,-18.9,23.3,0.732261116,0.0443739128,-0.676656392,-0.0626545
916,2295003,37150,0.861,0.683,-0.486,322.7,98.5,34.7,-16.7,-18.9,23.3,0.73342082,0.0491042817,-0.675527207,-0.0572527238
917,2297214,37160,0.845,0.683,-0.458,320.5,100.9,28.3,-16.7,-18.9,23.3,0.734580523,0.0539872433,-0.674336985,-0.0519425031
918,2301520,37160,0.845,0.667,-0.443,316.7,102.1,22,-16.7,-18.9,23.3,0.735740226,0.0588396863,-0.673055208,-0.0468153935
919,2303707,37160,0.833,0.659,-0.431,311.4,102,16.3,-16.8,-19.5,21.9,0.736808374,0.0637226478,-0.671742912,-0.0418408765
920,2305961,37160,0.817,0.647,-0.415,304.5,101.1,11.2,-16.8,-19.5,21.9,0.737876522,0.0685445723,-0.670400098,-0.0370494705
921,2308400,37170,0.79,0.62,-0.38,296.3,99.6,7.1,-16.8,-19.5,21.9,0.738883633,0.0732749413,-0.669026765,-0.0324716941
922,2310673,37170,0.782,0.6,-0.38,286.7,97.7,4,-16.8,-19.5,21.9,0.739829707,0.0779137547,-0.667653432,-0.0280465102
923,2312659,37170,0.786,0.58,-0.372,275.8,94.9,1.7,-17,-18,22.7,0.740745262,0.0823999756,-0.666280099,-0.0238044374
924,2314935,37170,0.892,0.599,-0.39,263.9,90.8,-0.2,-17,-18,22.7,0.741569262,0.0867030854,-0.664937284,-0.0198370312
925,2319235,37180,0.876,0.572,-0.405,252,85.5,-1.6,-17,-18,22.7,0.742301706,0.0908536027,-0.663624989,-0.016052736
926,2319681,37180,0.876,0.544,-0.41,240.7,79.4,-1.5,-17,-18,22.7,0.742973113,0.0947904904,-0.662434767,-0.0124515519
927,2324413,37180,0.927,0.536,-0.399,230.9,73.5,0.7,-17.3,-16.7,22.5,0.743552965,0.0985442671,-0.661275063,-0.00894192328
928,2324905,37180,1.056,0.542,-0.366,223.3,68.7,4.7,-17.3,-16.7,22.5,0.744041261,0.102114933,-0.660206915,-0.00549333171
929,2327495,37190,1.157,0.591,-0.305,218.6,64.8,9.1,-17.3,-16.7,22.5,0.744499039,0.105533006,-0.659199805,-0.00204474013
930,2329859,37190,1.239,0.604,-0.251,216.6,62.7,13.5,-17.3,-16.7,22.5,0.744895779,0.108859523,-0.658223212,0.00140385144
931,2333965,37190,1.242,0.572,-0.212,215.9,63.1,19.9,-17.5,-16,23.5,0.745262001,0.112094485,-0.657216102,0.00497451704
932,2336137,37190,1.168,0.446,-0.115,214,66.9,30.7,-17.5,-16,23.5,0.745689261,0.115115818,-0.656178472,0.0086977752
933,2338335,37200,1.152,0.468,-0.005,209.3,74.1,46.8,-17.5,-16,23.5,0.746208075,0.117831965,-0.655049287,0.0126651814
934,2340718,37200,1.12,0.409,0.029,201.3,83.8,65.6,-17.5,-16,23.5,0.746879482,0.120151372,-0.65376751,0.0168156987
935,2342508,37200,1.202,0.399,0.118,180.5,100.6,96.3,-18.1,-12.9,24.8,0.747795038,0.121677297,-0.652302622,0.0212103641
936,2344841,37200,1.202,0.399,0.118,180.5,100.6,96.3,-18.1,-12.9,24.8,0.747795038,0.121677297,-0.652302622,0.0212103641
937,2347164,37210,1.241,0.393,0.211,171.8,104.7,104.9,-18.1,-12.9,24.8,0.749626148,0.124454482,-0.649311808,0.0300302133
938,2349767,37210,1.33,0.466,0.293,168.7,106.7,109.2,-18.1,-12.9,24.8,0.750602741,0.125614185,-0.647724845,0.0345469527
939,2352117,37210,1.099,0.45,0.465,174.5,107.9,110.6,-18.6,-13.7,22.9,0.751579333,0.126804407,-0.646137883,0.0390942106
940,2355773,37210,1.317,0.51,0.489,191.8,108.3,110.4,-18.6,-13.7,22.9,0.75246437,0.128299814,-0.644489883,0.0439161351
941,2357574,37220,1.364,0.579,0.599,222.6,107.5,109,-18.6,-13.7,22.9,0.753227332,0.130314035,-0.642811365,0.0491042817
942,2359793,37220,1.359,0.667,0.745,268.6,106.4,106.9,-18.6,-13.7,22.9,0.753837703,0.133121738,-0.64107181,0.0549638356
943,2362272,37220,1.284,0.792,0.853,329.3,106.9,104.6,-18.8,-11.4,23,0.754203925,0.136936552,-0.639179662,0.0616168706
944,2364656,37220,0.975,0.911,0.989,403,112.6,103.7,-18.8,-11.4,23,0.754417554,0.141972106,-0.637073885,0.0692770165
945,2369197,37230,1.162,1.168,0.977,485.6,125.3,104.7,-18.8,-11.4,23,0.754448073,0.148319956,-0.634571368,0.0781273843
946,2369611,37230,0.966,1.716,0.995,571.8,145.1,107.1,-18.8,-11.4,23,0.754356517,0.155980102,-0.631488998,0.0882595294
947,2372383,37230,0.708,2.092,1.004,655.4,170.7,110,-19.5,-8.5,23,0.754173406,0.164891507,-0.627735221,0.0996734519
948,2375045,37230,0.434,2.483,1.034,728.6,201.4,112.6,-19.5,-8.5,23,0.753959777,0.174871059,-0.623126926,0.112216559
949,2378154,37240,0.648,3.309,0.989,782.6,236.3,113.6,-19.5,-8.5,23,0.753807184,0.185613575,-0.617664113,0.125614185
950,2379796,37240,0.405,3.617,1.091,807.8,272.8,111.9,-19.5,-8.5,23,0.753746147,0.196600238,-0.611316263,0.13943907
951,2382485,37240,0.057,3.803,1.24,798.1,307.6,108.2,-20.4,-4.8,22.5,0.753990295,0.207312235,-0.604174932,0.153141881
952,2385153,37240,-0.048,3.854,1.345,752.6,337,104.6,-20.4,-4.8,22.5,0.754539628,0.217139195,-0.596484268,0.166295358
953,2388191,37250,-0.45,3.22,1.532,674.5,358.5,100.8,-20.4,-4.8,22.5,0.755546739,0.225623341,-0.588549455,0.178411206
954,2390095,37250,-0.473,2.817,1.52,568.1,371.4,94.7,-20.4,-4.8,22.5,0.757042146,0.232276376,-0.580614643,0.189062166
955,2392286,37250,-0.59,1.959,1.492,295.8,378.3,66.5,-22.2,-1.5,23.2,0.76003296,0.234748375,-0.573442793,0.195806757
956,2394884,37250,-0.499,1.603,1.364,295.8,378.3,66.5,-22.2,-1.5,23.2,0.762932218,0.237189856,-0.566209906,0.202551347
957,2398661,37260,-0.478,1.24,1.191,147.1,370.8,43.9,-22.2,-1.5,23.2,0.766533403,0.237464522,-0.559556871,0.20700705
958,2400907,37260,-0.391,0.885,0.943,4.7,349.6,18.9,-22.2,-1.5,23.2,0.770653401,0.235724967,-0.553819391,0.209204382
959,2403180,37260,-0.202,0.608,0.736,-120.5,309.8,-2.8,-22.3,-3,20.5,0.775017548,0.232306894,-0.549119541,0.209295938
960,2405052,37260,-0.134,0.148,0.46,-220.6,250.7,-14.9,-22.3,-3,20.5,0.779198584,0.227607044,-0.545793023,0.207647938
961,2407391,37270,-0.091,0.062,0.399,-291,176.7,-13.6,-22.3,-3,20.5,0.78276925,0.222022156,-0.54402295,0.204809717
962,2412192,37270,0.01,0.033,0.381,-329.9,95.5,-0.9,-22.3,-3,20.5,0.785485397,0.215948973,-0.543839839,0.201361126
963,2412192,37270,0.271,0.198,0.422,-338.4,15,15.9,-22.9,-3.9,20.8,0.787163915,0.209906308,-0.545152135,0.197668386
964,2416597,37270,0.517,0.325,0.399,-322.3,-57.3,30.3,-22.9,-3.9,20.8,0.787804804,0.204229865,-0.547654653,0.19409772
965,2418838,37280,0.533,0.314,0.356,-293.4,-114.8,40.2,-22.9,-3.9,20.8,0.787560656,0.199194311,-0.551011689,0.190771203
966,2421151,37280,0.522,0.31,0.321,-264.5,-150.4,46.1,-22.9,-3.9,20.8,0.786675619,0.19470809,-0.554887539,0.187719352
967,2423454,37280,0.459,0.304,0.267,-243,-160.6,47.1,-21.9,-4.4,21,0.785576952,0.19061861,-0.558854946,0.18488113
968,2425655,37280,0.405,0.297,0.256,-228.4,-147.9,41.3,-21.9,-4.4,21,0.784539323,0.186803797,-0.56245613,0.182195502
969,2427967,37290,0.339,0.283,0.218,-215.9,-120.6,28.9,-21.9,-4.4,21,0.783806879,0.183233131,-0.565507981,0.179540391
970,2429726,37290,0.284,0.284,0.184,-202.5,-88.9,13.3,-21.9,-4.4,21,0.783471175,0.179906613,-0.567857906,0.176915799
971,2432059,37290,0.347,0.295,0.155,-187.4,-62.5,-1.6,-22.2,-5,21.5,0.783410138,0.176976836,-0.569627979,0.174321726
972,2434874,37290,0.425,0.298,0.177,-171.9,-47,-14.8,-22.2,-5,21.5,0.783532212,0.174413282,-0.571031831,0.171758171
973,2437083,37300,0.467,0.309,0.224,-157.3,-42.6,-26.3,-22.2,-5,21.5,0.783715323,0.172215949,-0.572252571,0.169164098
974,2439820,37300,0.545,0.291,0.269,-144.7,-45.3,-37.2,-22.2,-5,21.5,0.783806879,0.170384838,-0.573412275,0.166570025
975,2442073,37300,0.573,0.271,0.292,-127.6,-53.2,-59.9,-22.2,-5.7,23.1,0.783837397,0.16913358,-0.574571978,0.163731803
976,2446490,37300,0.604,0.251,0.319,-127.6,-53.2,-59.9,-22.2,-5.7,23.1,0.783867916,0.167882321,-0.575701163,0.1609241
977,2448816,37310,0.651,0.222,0.333,-123.3,-54.4,-71.3,-22.2,-5.7,23.1,0.783867916,0.16687521,-0.576799829,0.157963805
978,2451127,37310,0.717,0.194,0.339,-120.9,-54.5,-81.9,-22.2,-5.7,23.1,0.783898434,0.166020692,-0.577867977,0.154820399
979,2453991,37310,0.748,0.178,0.327,-119.6,-54.8,-91.3,-21.9,-7,21.4,0.783959471,0.165318766,-0.578875088,0.151554918
980,2456101,37310,0.807,0.158,0.314,-118.7,-56,-100,-21.9,-7,21.4,0.78398999,0.164738914,-0.57985168,0.148136845
981,2458077,37320,0.928,0.16,0.327,-117.8,-58,-108.8,-21.9,-7,21.4,0.784020508,0.164281137,-0.580828272,0.144596698
982,2460429,37320,0.967,0.171,0.354,-116.7,-60.6,-117.7,-21.9,-7,21.4,0.784051027,0.163975951,-0.581804865,0.140842921
983,2462452,37320,0.994,0.155,0.365,-116,-63.7,-126.2,-21.7,-7.4,21.5,0.784020508,0.163762322,-0.582811975,0.136997589
984,2465053,37320,1.021,0.15,0.384,-116.6,-67.5,-133.3,-21.7,-7.4,21.5,0.78398999,0.163670766,-0.583819086,0.132999664
985,2468029,37330,1.166,0.109,0.377,-119.6,-72.8,-139,-21.7,-7.4,21.5,0.783867916,0.163609729,-0.584917753,0.128849147
986,2469768,37330,1.201,0.101,0.408,-125.8,-80.3,-143.7,-21.7,-7.4,21.5,0.783684805,0.163518174,-0.586107974,0.124485
987,2472212,37330,1.166,0.097,0.452,-134.1,-90.1,-147.6,-21.3,-9.1,21.8,0.783410138,0.163365581,-0.587481307,0.119937742
988,2474910,37330,1.244,0.076,0.442,-143.7,-101.5,-150.4,-21.3,-9.1,21.8,0.783013398,0.163090915,-0.58906827,0.115146336
989,2477210,37340,1.244,0.076,0.458,-154.1,-113.8,-152,-21.3,-9.1,21.8,0.782464064,0.162694174,-0.590807825,0.110171819
990,2480932,37340,1.263,0.06,0.445,-164.8,-127.2,-152.5,-21.3,-9.1,21.8,0.781762139,0.162144841,-0.592852565,0.104983673
991,2483310,37340,1.33,0.063,0.433,-175.7,-141.1,-151.8,-20.8,-10.4,21.8,0.78090762,0.161442915,-0.595110935,0.0996124149
992,2485150,37340,1.385,0.059,0.404,-186,-154.2,-149.9,-20.8,-10.4,21.8,0.779869991,0.160557878,-0.597613453,0.0940885647
993,2487369,37350,1.357,0.052,0.405,-194.8,-164.8,-146.1,-20.8,-10.4,21.8,0.778679769,0.159459212,-0.600299081,0.088473159
994,2491480,37350,1.342,0.025,0.381,-201.8,-170.9,-140.2,-20.8,-10.4,21.8,0.777397992,0.158207953,-0.603076266,0.0828577532
995,2493606,37350,1.323,0.057,0.315,-207.5,-166.6,-123.7,-20.4,-11.5,24.3,0.776116214,0.156620991,-0.60585345,0.0774559771
996,2495860,37350,1.315,0.058,0.272,-207.5,-166.6,-123.7,-20.4,-11.5,24.3,0.774834437,0.15500351,-0.608600116,0.0720542009
997,2497510,37360,1.296,0.047,0.249,-206.2,-157.4,-115.7,-20.4,-11.5,24.3,0.773583178,0.153294473,-0.611163671,0.0668355358
998,2499830,37360,1.264,0.043,0.261,-201.6,-144.8,-108.6,-20.4,-11.5,24.3,0.772484512,0.151554918,-0.613544115,0.0617999817
999,2502153,37360,1.269,0.052,0.175,-193.1,-128.5,-102.9,-19.6,-13,22.3,0.771538438,0.149845882,-0.615619373,0.0570696127
1000,2504765,37360,1.245,0.076,0.164,-180.1,-108.2,-99,-19.6,-13,22.3,0.770775475,0.148289438,-0.61732841,0.0526139103
1001,2507054,37370,1.143,0.093,0.182,-162.4,-83.7,-97.1,-19.6,-13,22.3,0.770287179,0.146946623,-0.618610187,0.0485244301
1002,2510862,37370,1.054,0.121,0.188,-140.7,-55.8,-96.3,-19.6,-13,22.3,0.77007355,0.145939512,-0.61937315,0.0448316904
1003,2513275,37370,0.964,0.22,0.21,-117,-27.1,-96.1,-19.8,-13.9,22.3,0.770165105,0.145298624,-0.619647816,0.0415356914
1004,2514934,37370,0.921,0.256,0.192,-94.5,-1.2,-96.1,-19.8,-13.9,22.3,0.770500809,0.145023957,-0.619434187,0.0386059145
1005,2517340,37380,0.878,0.285,0.161,-76.4,18.1,-96.2,-19.8,-13.9,22.3,0.771111179,0.145023957,-0.618884854,0.0360423597
1006,2521302,37380,0.819,0.33,0.096,-64.4,29.2,-95.8,-19.8,-13.9,22.3,0.771782586,0.145207068,-0.618152409,0.033661916
1007,2523698,37380,0.808,0.335,0.046,-59.7,31.9,-94.4,-19.9,-14.5,22.1,0.772453993,0.145451216,-0.617358928,0.0313730277
1008,2526619,37380,0.804,0.355,0.007,-62.2,28,-92,-19.9,-14.5,22.1,0.773094882,0.145603809,-0.616626484,0.029053621
1009,2528884,37390,0.816,0.363,-0.008,-70.2,19.6,-89.6,-19.9,-14.5,22.1,0.773644215,0.145634327,-0.616046632,0.0266731773
1010,2531234,37390,0.804,0.343,0.003,-81.6,9,-87.5,-19.9,-14.5,22.1,0.774071474,0.145420698,-0.615649892,0.024140141
1011,2533316,37390,0.8,0.339,0.015,-93.5,-1.5,-86.2,-19.8,-15.4,22.4,0.774376659,0.144993439,-0.615466781,0.0214239937
1012,2535614,37390,0.792,0.342,0.05,-103.6,-10.6,-85.2,-19.8,-15.4,22.4,0.774620808,0.144383068,-0.615405744,0.0185552538
1013,2537657,37400,0.769,0.362,0.106,-111,-17.5,-84,-19.8,-15.4,22.4,0.774742882,0.143650624,-0.615497299,0.0155644398
1014,2539780,37400,0.768,0.373,0.121,-115.8,-22.3,-81.7,-19.8,-15.4,22.4,0.774834437,0.142796106,-0.615649892,0.0125736259
1015,2544784,37400,0.765,0.373,0.133,-122.5,-29.9,-74.4,-19.2,-15.9,23.1,0.774834437,0.141727958,-0.615955077,0.00958281198
1016,2544784,37400,0.765,0.373,0.133,-122.5,-29.9,-74.4,-19.2,-15.9,23.1,0.774834437,0.141727958,-0.615955077,0.00958281198
1017,2547425,37410,0.784,0.373,0.149,-126.3,-34.5,-70.4,-19.2,-15.9,23.1,0.774742882,0.139500107,-0.616626484,0.00357066561
1018,2549522,37410,0.788,0.38,0.149,-129.9,-39.7,-67.1,-19.2,-15.9,23.1,0.774620808,0.138187811,-0.61711478,0.00057985168
1019,2552062,37410,0.792,0.376,0.148,-132.9,-44.9,-64.7,-18.8,-16.5,21.9,0.774407178,0.136814478,-0.617664113,-0.00241096225
1020,2555610,37410,0.819,0.384,0.144,-135.1,-49.3,-62.7,-18.8,-16.5,21.9,0.774132511,0.135380108,-0.618305002,-0.00543229469
1021,2557554,37420,0.835,0.38,0.144,-137,-52.6,-61,-18.8,-16.5,21.9,0.773827326,0.133884701,-0.619006928,-0.00848414563
1022,2559799,37420,0.847,0.38,0.14,-139.1,-54.8,-59.9,-18.8,-16.5,21.9,0.773461104,0.132328257,-0.619708853,-0.0115359966
1023,2562075,37420,0.85,0.376,0.14,-141.6,-55.9,-59.3,-18.9,-17.6,21.8,0.773094882,0.130741295,-0.620441298,-0.014618366
1024,2566877,37420,0.89,0.36,0.135,-144.7,-56.2,-59.3,-18.9,-17.6,21.8,0.77272866,0.129062777,-0.621173742,-0.0177007355
1025,2567274,37430,0.905,0.348,0.138,-148.2,-56.1,-59.9,-18.9,-17.6,21.8,0.772362438,0.12735374,-0.621906186,-0.0208746605
1026,2569781,37430,0.913,0.336,0.138,-151.8,-55.7,-61.2,-18.9,-17.6,21.8,0.771996216,0.125614185,-0.622608112,-0.024140141
1027,2572490,37430,0.921,0.324,0.142,-155.1,-54.9,-63.3,-18.6,-18.2,21.5,0.771629994,0.123844111,-0.623249001,-0.0274666585
1028,2574720,37430,0.929,0.324,0.138,-157.6,-53.7,-65.7,-18.6,-18.2,21.5,0.77129429,0.122043519,-0.623889889,-0.0308847316
1029,2579529,37440,0.932,0.324,0.141,-159.4,-52.3,-68.4,-18.6,-18.2,21.5,0.770928068,0.120212409,-0.624469741,-0.0343333232
1030,2579857,37440,0.932,0.332,0.141,-160.4,-51.3,-71.1,-18.6,-18.2,21.5,0.770592364,0.118472854,-0.625019074,-0.0378429518
1031,2584020,37440,0.948,0.363,0.149,-161.1,-51.1,-73.3,-18,-18.8,21.7,0.770256661,0.116733299,-0.625568407,-0.0414136174
1032,2586281,37440,0.96,0.367,0.141,-161.8,-52.1,-74.6,-18,-18.8,21.7,0.769890439,0.114963225,-0.626087222,-0.0450148015
1033,2588809,37450,0.96,0.363,0.149,-163.2,-54.2,-74.2,-18,-18.8,21.7,0.769463179,0.113193152,-0.626636555,-0.0486159856
1034,2590932,37450,0.952,0.359,0.145,-165,-57,-71.5,-18,-18.8,21.7,0.769005402,0.111331523,-0.627246925,-0.0522171697
1035,2593288,37450,0.956,0.355,0.141,-168.5,-62.8,-62.1,-18.1,-19.9,21.9,0.768303476,0.109408856,-0.628162481,-0.0557878353
1036,2595179,37450,0.956,0.355,0.141,-168.9,-65,-57.6,-18.1,-19.9,21.9,0.767723624,0.107303079,-0.628925443,-0.0592059084
1037,2599909,37460,0.964,0.351,0.137,-168,-66.6,-54.5,-18.1,-19.9,21.9,0.767113254,0.105136265,-0.629688406,-0.0625934629
1038,2599909,37460,0.987,0.354,0.141,-165.7,-67.4,-52.6,-18.1,-19.9,21.9,0.766502884,0.102999969,-0.630451369,-0.0659199805
