sample_index,elapsed_us,device_time_ms,acc_x_g,acc_y_g,acc_z_g,gyro_x_dps,gyro_y_dps,gyro_z_dps,mag_x_ut,mag_y_ut,mag_z_ut,quat_w,quat_x,quat_y,quat_z
0,5816,1804790,0.949,0.318,-0.003,-6.4,-1.9,1.4,-8.4,-35.1,11.4,0.639667959,-0.0881984924,-0.693197424,-0.320108646
1,8069,1804790,0.949,0.318,-0.003,-6.4,-1.9,1.4,-8.4,-35.1,11.4,0.639667959,-0.0881984924,-0.693197424,-0.320108646
2,10290,1804800,0.949,0.318,-0.003,-6.4,-1.9,1.4,-8.4,-35.1,11.4,0.639667959,-0.0881984924,-0.693197424,-0.320108646
3,12675,1804800,0.929,0.33,-0.002,-4.6,-1.8,1.9,-9.1,-35.1,11.3,0.639393292,-0.0886867885,-0.693319498,-0.32023072
4,14542,1804800,0.933,0.326,-0.006,-4.6,-1.8,1.9,-9.1,-35.1,11.3,0.639362774,-0.0888088626,-0.693319498,-0.320291757
5,16843,1804800,0.933,0.326,-0.006,-4.6,-1.8,1.9,-9.1,-35.1,11.3,0.639362774,-0.0888088626,-0.693319498,-0.320291757
6,19069,1804810,0.933,0.326,-0.006,-4.6,-1.8,1.9,-9.1,-35.1,11.3,0.639362774,-0.0888088626,-0.693319498,-0.320291757
7,23025,1804810,0.933,0.326,-0.006,-4.6,-1.8,1.9,-9.1,-35.1,11.3,0.639362774,-0.0888088626,-0.693319498,-0.320291757
8,25297,1804810,0.933,0.33,-0.006,-2.8,-1.3,1.4,-8.9,-34.7,11.2,0.639301737,-0.0891445662,-0.69328898,-0.320383312
9,27519,1804810,0.933,0.33,-0.006,-2.8,-1.3,1.4,-8.9,-34.7,11.2,0.639301737,-0.0891445662,-0.69328898,-0.320383312
10,29508,1804820,0.933,0.33,-0.006,-2.8,-1.3,1.4,-8.9,-34.7,11.2,0.639301737,-0.0891445662,-0.69328898,-0.320383312
11,31721,1804820,0.933,0.33,-0.006,-2.8,-1.3,1.4,-8.9,-34.7,11.2,0.639301737,-0.0891445662,-0.69328898,-0.320383312
12,35070,1804820,0.937,0.33,-0.006,-1,-0.6,0.5,-8.8,-34.8,11.2,0.639240699,-0.0892971587,-0.69328898,-0.320444349
13,37028,1804820,0.937,0.33,-0.006,-1,-0.6,0.5,-8.8,-34.8,11.2,0.639240699,-0.0892971587,-0.69328898,-0.320444349
14,39324,1804830,0.937,0.33,-0.006,-1,-0.6,0.5,-8.8,-34.8,11.2,0.639240699,-0.0892971587,-0.69328898,-0.320444349
15,41569,1804830,0.937,0.33,-0.006,-1,-0.6,0.5,-8.8,-34.8,11.2,0.639240699,-0.0892971587,-0.69328898,-0.320444349
16,44131,1804830,0.937,0.33,-0.006,-1,-0.6,0.5,-8.8,-34.8,11.2,0.639240699,-0.0892971587,-0.69328898,-0.320444349
17,46347,1804830,0.937,0.33,-0.006,-1,-0.6,0.5,-8.8,-34.8,11.2,0.639240699,-0.0892971587,-0.69328898,-0.320444349
18,50808,1804840,0.937,0.33,-0.006,-1,-0.6,0.5,-8.8,-34.8,11.2,0.639240699,-0.0892971587,-0.69328898,-0.320444349
19,51426,1804840,0.937,0.33,-0.006,-1,-0.6,0.5,-8.8,-34.8,11.2,0.639240699,-0.0892971587,-0.69328898,-0.320444349
20,53831,1804840,0.937,0.33,-0.006,-1,-0.6,0.5,-8.8,-34.8,11.2,0.639240699,-0.0892971587,-0.69328898,-0.320444349
21,57473,1804840,0.937,0.33,-0.006,-1,-0.6,0.5,-8.8,-34.8,11.2,0.639240699,-0.0892971587,-0.69328898,-0.320444349
22,59494,1804850,0.937,0.33,-0.006,-1,-0.6,0.5,-8.8,-34.8,11.2,0.639240699,-0.0892971587,-0.69328898,-0.320444349
23,61817,1804850,0.937,0.33,-0.006,-1,-0.6,0.5,-8.8,-34.8,11.2,0.639240699,-0.0892971587,-0.69328898,-0.320444349
24,64307,1804850,0.937,0.33,-0.006,-1,-0.6,0.5,-8.8,-34.8,11.2,0.639240699,-0.0892971587,-0.69328898,-0.320444349
25,66511,1804850,0.937,0.33,-0.006,-1,-0.6,0.5,-8.8,-34.8,11.2,0.639240699,-0.0892971587,-0.69328898,-0.320444349
26,68875,1804860,0.937,0.33,-0.006,-1,-0.6,0.5,-8.8,-34.8,11.2,0.639240699,-0.0892971587,-0.69328898,-0.320444349
27,72517,1804860,0.937,0.33,-0.006,-1,-0.6,0.5,-8.8,-34.8,11.2,0.639240699,-0.0892971587,-0.69328898,-0.320444349
28,74550,1804860,0.937,0.33,-0.006,-1,-0.6,0.5,-8.8,-34.8,11.2,0.639240699,-0.0892971587,-0.69328898,-0.320444349
29,76760,1804860,0.937,0.33,-0.006,-1,-0.6,0.5,-8.8,-34.8,11.2,0.639240699,-0.0892971587,-0.69328898,-0.320444349
30,79243,1804870,0.949,0.302,-0.015,-4.8,-1.3,0.7,-8.7,-34.8,11.4,0.638782922,-0.09009064,-0.693502609,-0.320688498
31,81500,1804870,0.949,0.302,-0.015,-4.8,-1.3,0.7,-8.7,-34.8,11.4,0.638782922,-0.09009064,-0.693502609,-0.320688498
32,83793,1804870,0.949,0.302,-0.015,-4.8,-1.3,0.7,-8.7,-34.8,11.4,0.638782922,-0.09009064,-0.693502609,-0.320688498
33,87538,1804870,0.949,0.302,-0.015,-4.8,-1.3,0.7,-8.7,-34.8,11.4,0.638782922,-0.09009064,-0.693502609,-0.320688498
34,89545,1804880,0.949,0.302,-0.015,-4.8,-1.3,0.7,-8.7,-34.8,11.4,0.638782922,-0.09009064,-0.693502609,-0.320688498
35,91776,1804880,0.949,0.302,-0.015,-4.8,-1.3,0.7,-8.7,-34.8,11.4,0.638782922,-0.09009064,-0.693502609,-0.320688498
36,94235,1804880,0.949,0.302,-0.015,-4.8,-1.3,0.7,-8.7,-34.8,11.4,0.638782922,-0.09009064,-0.693502609,-0.320688498
37,96563,1804880,0.949,0.302,-0.015,-4.8,-1.3,0.7,-8.7,-34.8,11.4,0.638782922,-0.09009064,-0.693502609,-0.320688498
38,100829,1804890,0.949,0.302,-0.015,-4.8,-1.3,0.7,-8.7,-34.8,11.4,0.638782922,-0.09009064,-0.693502609,-0.320688498
39,103035,1804890,0.949,0.302,-0.015,-4.8,-1.3,0.7,-8.7,-34.8,11.4,0.638782922,-0.09009064,-0.693502609,-0.320688498
40,105233,1804890,0.949,0.302,-0.015,-4.8,-1.3,0.7,-8.7,-34.8,11.4,0.638782922,-0.09009064,-0.693502609,-0.320688498
41,107510,1804890,0.949,0.302,-0.015,-4.8,-1.3,0.7,-8.7,-34.8,11.4,0.638782922,-0.09009064,-0.693502609,-0.320688498
42,109681,1804900,0.949,0.302,-0.015,-4.8,-1.3,0.7,-8.7,-34.8,11.4,0.638782922,-0.09009064,-0.693502609,-0.320688498
43,111818,1804900,0.949,0.302,-0.015,-4.8,-1.3,0.7,-8.7,-34.8,11.4,0.638782922,-0.09009064,-0.693502609,-0.320688498
44,114076,1804900,0.949,0.302,-0.015,-4.8,-1.3,0.7,-8.7,-34.8,11.4,0.638782922,-0.09009064,-0.693502609,-0.320688498
45,118107,1804900,0.949,0.302,-0.015,-4.8,-1.3,0.7,-8.7,-34.8,11.4,0.638782922,-0.09009064,-0.693502609,-0.320688498
46,120291,1804910,0.949,0.302,-0.015,-4.8,-1.3,0.7,-8.7,-34.8,11.4,0.638782922,-0.09009064,-0.693502609,-0.320688498
47,122575,1804910,0.949,0.302,-0.015,-4.8,-1.3,0.7,-8.7,-34.8,11.4,0.638782922,-0.09009064,-0.693502609,-0.320688498
48,124712,1804910,0.953,0.318,-0.011,2.7,0.5,0.7,-8.7,-35.2,11.1,0.638325144,-0.0913724174,-0.693807794,-0.320627461
49,126881,1804910,0.953,0.318,-0.011,2.7,0.5,0.7,-8.7,-35.2,11.1,0.638325144,-0.0913724174,-0.693807794,-0.320627461
50,129056,1804920,0.953,0.318,-0.011,2.7,0.5,0.7,-8.7,-35.2,11.1,0.638325144,-0.0913724174,-0.693807794,-0.320627461
51,131633,1804920,0.953,0.318,-0.011,3.5,1.3,0,-8.8,-35.1,11.1,0.638386181,-0.0912198248,-0.693838313,-0.320474868
52,133986,1804920,0.953,0.318,-0.011,3.5,1.3,0,-8.8,-35.1,11.1,0.638386181,-0.0912198248,-0.693838313,-0.320474868
53,136277,1804920,0.957,0.318,-0.003,3.8,2.1,-0.5,-8.8,-35.1,11.1,0.638447218,-0.0910977508,-0.693838313,-0.320383312
54,140051,1804930,0.957,0.318,-0.003,3.8,2.1,-0.5,-8.8,-35.1,11.1,0.638447218,-0.0910977508,-0.693838313,-0.320383312
55,141783,1804930,0.957,0.318,-0.003,3.8,2.1,-0.5,-8.8,-35.1,11.1,0.638447218,-0.0910977508,-0.693838313,-0.320383312
56,145093,1804930,0.957,0.318,-0.003,3.8,2.1,-0.5,-8.8,-35.1,11.1,0.638447218,-0.0910977508,-0.693838313,-0.320383312
57,147105,1804930,0.957,0.318,-0.003,3.8,2.1,-0.5,-8.8,-35.1,11.1,0.638447218,-0.0910977508,-0.693838313,-0.320383312
58,149271,1804940,0.957,0.318,-0.003,3.8,2.1,-0.5,-8.8,-35.1,11.1,0.638447218,-0.0910977508,-0.693838313,-0.320383312
59,152939,1804940,0.957,0.318,-0.003,3.8,2.1,-0.5,-8.8,-35.1,11.1,0.638447218,-0.0910977508,-0.693838313,-0.320383312
60,155128,1804940,0.957,0.318,-0.003,3.8,2.1,-0.5,-8.8,-35.1,11.1,0.638447218,-0.0910977508,-0.693838313,-0.320383312
61,157643,1804940,0.957,0.318,-0.003,3.8,2.1,-0.5,-8.8,-35.1,11.1,0.638447218,-0.0910977508,-0.693838313,-0.320383312
62,159539,1804950,0.957,0.318,-0.003,3.8,2.1,-0.5,-8.8,-35.1,11.1,0.638447218,-0.0910977508,-0.693838313,-0.320383312
63,161686,1804950,0.957,0.318,-0.003,3.8,2.1,-0.5,-8.8,-35.1,11.1,0.638447218,-0.0910977508,-0.693838313,-0.320383312
64,165320,1804950,0.957,0.341,0.004,2,1.4,2.7,-8.7,-35.1,11.2,0.638782922,-0.0905484176,-0.693929868,-0.319650868
65,167593,1804950,0.957,0.341,0.004,2,1.4,2.7,-8.7,-35.1,11.2,0.638782922,-0.0905484176,-0.693929868,-0.319650868
66,169698,1804960,0.957,0.341,0.004,2,1.4,2.7,-8.7,-35.1,11.2,0.638782922,-0.0905484176,-0.693929868,-0.319650868
67,171957,1804960,0.957,0.341,0.004,2,1.4,2.7,-8.7,-35.1,11.2,0.638782922,-0.0905484176,-0.693929868,-0.319650868
68,174450,1804960,0.957,0.341,0.004,2,1.4,2.7,-8.7,-35.1,11.2,0.638782922,-0.0905484176,-0.693929868,-0.319650868
69,176711,1804960,0.957,0.341,0.004,2,1.4,2.7,-8.7,-35.1,11.2,0.638782922,-0.0905484176,-0.693929868,-0.319650868
70,179005,1804970,0.957,0.341,0.004,2,1.4,2.7,-8.7,-35.1,11.2,0.638782922,-0.0905484176,-0.693929868,-0.319650868
71,181529,1804970,0.957,0.341,0.004,2,1.4,2.7,-8.7,-35.1,11.2,0.638782922,-0.0905484176,-0.693929868,-0.319650868
72,183856,1804970,0.957,0.341,0.004,2,1.4,2.7,-8.7,-35.1,11.2,0.638782922,-0.0905484176,-0.693929868,-0.319650868
73,187816,1804970,0.957,0.341,0.004,2,1.4,2.7,-8.7,-35.1,11.2,0.638782922,-0.0905484176,-0.693929868,-0.319650868
74,189485,1804980,0.957,0.341,0.004,2,1.4,2.7,-8.7,-35.1,11.2,0.638782922,-0.0905484176,-0.693929868,-0.319650868
75,191737,1804980,0.957,0.341,0.004,2,1.4,2.7,-8.7,-35.1,11.2,0.638782922,-0.0905484176,-0.693929868,-0.319650868
76,194212,1804980,0.957,0.341,0.004,2,1.4,2.7,-8.7,-35.1,11.2,0.638782922,-0.0905484176,-0.693929868,-0.319650868
77,196513,1804980,0.957,0.341,0.004,2,1.4,2.7,-8.7,-35.1,11.2,0.638782922,-0.0905484176,-0.693929868,-0.319650868
78,198802,1804990,0.957,0.341,0.004,2,1.4,2.7,-8.7,-35.1,11.2,0.638782922,-0.0905484176,-0.693929868,-0.319650868
79,202516,1804990,0.957,0.341,0.004,2,1.4,2.7,-8.7,-35.1,11.2,0.638782922,-0.0905484176,-0.693929868,-0.319650868
80,204554,1804990,0.957,0.341,0.004,2,1.4,2.7,-8.7,-35.1,11.2,0.638782922,-0.0905484176,-0.693929868,-0.319650868
81,206721,1804990,0.957,0.341,0.004,2,1.4,2.7,-8.7,-35.1,11.2,0.638782922,-0.0905484176,-0.693929868,-0.319650868
82,210804,1805000,0.957,0.341,0.004,2,1.4,2.7,-8.7,-35.1,11.2,0.638782922,-0.0905484176,-0.693929868,-0.319650868
83,212995,1805000,0.957,0.341,0.004,2,1.4,2.7,-8.7,-35.1,11.2,0.638782922,-0.0905484176,-0.693929868,-0.319650868
84,215195,1805000,0.957,0.341,0.004,2,1.4,2.7,-8.7,-35.1,11.2,0.638782922,-0.0905484176,-0.693929868,-0.319650868
85,217243,1805000,0.957,0.341,0.004,2,1.4,2.7,-8.7,-35.1,11.2,0.638782922,-0.0905484176,-0.693929868,-0.319650868
86,219495,1805010,0.957,0.341,0.004,2,1.4,2.7,-8.7,-35.1,11.2,0.638782922,-0.0905484176,-0.693929868,-0.319650868
87,221689,1805010,0.957,0.341,0.004,2,1.4,2.7,-8.7,-35.1,11.2,0.638782922,-0.0905484176,-0.693929868,-0.319650868
88,225764,1805010,0.957,0.341,0.004,2,1.4,2.7,-8.7,-35.1,11.2,0.638782922,-0.0905484176,-0.693929868,-0.319650868
89,228027,1805010,0.957,0.341,0.004,2,1.4,2.7,-8.7,-35.1,11.2,0.638782922,-0.0905484176,-0.693929868,-0.319650868
90,230217,1805020,0.957,0.341,0.004,2,1.4,2.7,-8.7,-35.1,11.2,0.638782922,-0.0905484176,-0.693929868,-0.319650868
91,232490,1805020,0.957,0.341,0.004,2,1.4,2.7,-8.7,-35.1,11.2,0.638782922,-0.0905484176,-0.693929868,-0.319650868
92,234521,1805020,0.957,0.341,0.004,2,1.4,2.7,-8.7,-35.1,11.2,0.638782922,-0.0905484176,-0.693929868,-0.319650868
93,237016,1805020,0.957,0.341,0.004,2,1.4,2.7,-8.7,-35.1,11.2,0.638782922,-0.0905484176,-0.693929868,-0.319650868
94,239510,1805030,0.957,0.341,0.004,2,1.4,2.7,-8.7,-35.1,11.2,0.638782922,-0.0905484176,-0.693929868,-0.319650868
95,241770,1805030,0.949,0.353,0.036,1.3,-0.5,4.3,-9.7,-34.8,11.3,0.639606922,-0.0911893063,-0.694174017,-0.317300943
96,245024,1805030,0.949,0.353,0.036,1.3,-0.5,4.3,-9.7,-34.8,11.3,0.639606922,-0.0911893063,-0.694174017,-0.317300943
97,247058,1805030,0.949,0.353,0.036,1.3,-0.5,4.3,-9.7,-34.8,11.3,0.639606922,-0.0911893063,-0.694174017,-0.317300943
98,249297,1805040,0.949,0.353,0.036,1.3,-0.5,4.3,-9.7,-34.8,11.3,0.639606922,-0.0911893063,-0.694174017,-0.317300943
99,251720,1805040,0.952,0.356,0.044,0.1,-1,4.8,-10,-34.7,11.5,0.639667959,-0.0914029359,-0.694204535,-0.316995758
100,254042,1805040,0.952,0.356,0.044,0.1,-1,4.8,-10,-34.7,11.5,0.639667959,-0.0914029359,-0.694204535,-0.316995758
101,256379,1805040,0.952,0.356,0.044,0.1,-1,4.8,-10,-34.7,11.5,0.639667959,-0.0914029359,-0.694204535,-0.316995758
102,259007,1805050,0.952,0.356,0.044,0.1,-1,4.8,-10,-34.7,11.5,0.639667959,-0.0914029359,-0.694204535,-0.316995758
103,263405,1805050,0.952,0.356,0.044,0.1,-1,4.8,-10,-34.7,11.5,0.639667959,-0.0914029359,-0.694204535,-0.316995758
104,265641,1805050,0.952,0.356,0.044,0.1,-1,4.8,-10,-34.7,11.5,0.639667959,-0.0914029359,-0.694204535,-0.316995758
105,267830,1805050,0.945,0.352,0.044,-2.1,-2.8,5.7,-8.4,-34.9,11.2,0.639790033,-0.091830195,-0.694082461,-0.316965239
106,269509,1805060,0.945,0.352,0.044,-2.1,-2.8,5.7,-8.4,-34.9,11.2,0.639790033,-0.091830195,-0.694082461,-0.316965239
107,271878,1805060,0.945,0.352,0.044,-2.1,-2.8,5.7,-8.4,-34.9,11.2,0.639790033,-0.091830195,-0.694082461,-0.316965239
108,274145,1805060,0.945,0.352,0.044,-2.1,-2.8,5.7,-8.4,-34.9,11.2,0.639790033,-0.091830195,-0.694082461,-0.316965239
109,276646,1805060,0.945,0.352,0.044,-2.1,-2.8,5.7,-8.4,-34.9,11.2,0.639790033,-0.091830195,-0.694082461,-0.316965239
110,279050,1805070,0.945,0.352,0.044,-2.1,-2.8,5.7,-8.4,-34.9,11.2,0.639790033,-0.091830195,-0.694082461,-0.316965239
111,281472,1805070,0.945,0.356,0.044,-3.7,-3.5,6,-9.9,-34.9,11.4,0.639667959,-0.0928067873,-0.694143498,-0.316721091
112,283804,1805070,0.945,0.356,0.044,-3.7,-3.5,6,-9.9,-34.9,11.4,0.639667959,-0.0928067873,-0.694143498,-0.316721091
113,287584,1805070,0.945,0.356,0.044,-3.7,-3.5,6,-9.9,-34.9,11.4,0.639667959,-0.0928067873,-0.694143498,-0.316721091
114,289333,1805080,0.945,0.356,0.044,-3.7,-3.5,6,-9.9,-34.9,11.4,0.639667959,-0.0928067873,-0.694143498,-0.316721091
115,293466,1805080,0.945,0.356,0.044,-3.7,-3.5,6,-9.9,-34.9,11.4,0.639667959,-0.0928067873,-0.694143498,-0.316721091
116,295659,1805080,0.945,0.356,0.044,-3.7,-3.5,6,-9.9,-34.9,11.4,0.639667959,-0.0928067873,-0.694143498,-0.316721091
117,297814,1805080,0.945,0.356,0.044,-3.7,-3.5,6,-9.9,-34.9,11.4,0.639667959,-0.0928067873,-0.694143498,-0.316721091
118,300160,1805090,0.945,0.356,0.044,-3.7,-3.5,6,-9.9,-34.9,11.4,0.639667959,-0.0928067873,-0.694143498,-0.316721091
119,302503,1805090,0.945,0.356,0.044,-3.7,-3.5,6,-9.9,-34.9,11.4,0.639667959,-0.0928067873,-0.694143498,-0.316721091
120,304698,1805090,0.945,0.356,0.044,-3.7,-3.5,6,-9.9,-34.9,11.4,0.639667959,-0.0928067873,-0.694143498,-0.316721091
121,306855,1805090,0.945,0.356,0.044,-3.7,-3.5,6,-9.9,-34.9,11.4,0.639667959,-0.0928067873,-0.694143498,-0.316721091
122,309111,1805100,0.945,0.356,0.044,-3.7,-3.5,6,-9.9,-34.9,11.4,0.639667959,-0.0928067873,-0.694143498,-0.316721091
123,312840,1805100,0.945,0.356,0.044,-3.7,-3.5,6,-9.9,-34.9,11.4,0.639667959,-0.0928067873,-0.694143498,-0.316721091
124,315174,1805100,0.945,0.356,0.044,-3.7,-3.5,6,-9.9,-34.9,11.4,0.639667959,-0.0928067873,-0.694143498,-0.316721091
125,316970,1805100,0.945,0.356,0.044,-3.7,-3.5,6,-9.9,-34.9,11.4,0.639667959,-0.0928067873,-0.694143498,-0.316721091
126,319271,1805110,0.945,0.356,0.044,-3.7,-3.5,6,-9.9,-34.9,11.4,0.639667959,-0.0928067873,-0.694143498,-0.316721091
127,322802,1805110,0.945,0.356,0.044,-3.7,-3.5,6,-9.9,-34.9,11.4,0.639667959,-0.0928067873,-0.694143498,-0.316721091
128,325031,1805110,0.945,0.356,0.044,-3.7,-3.5,6,-9.9,-34.9,11.4,0.639667959,-0.0928067873,-0.694143498,-0.316721091
129,327164,1805110,0.945,0.356,0.044,-3.7,-3.5,6,-9.9,-34.9,11.4,0.639667959,-0.0928067873,-0.694143498,-0.316721091
130,329393,1805120,0.945,0.356,0.044,-3.7,-3.5,6,-9.9,-34.9,11.4,0.639667959,-0.0928067873,-0.694143498,-0.316721091
131,331928,1805120,0.945,0.356,0.044,-3.7,-3.5,6,-9.9,-34.9,11.4,0.639667959,-0.0928067873,-0.694143498,-0.316721091
132,334503,1805120,0.945,0.356,0.044,-3.7,-3.5,6,-9.9,-34.9,11.4,0.639667959,-0.0928067873,-0.694143498,-0.316721091
133,336623,1805120,0.945,0.356,0.044,-3.7,-3.5,6,-9.9,-34.9,11.4,0.639667959,-0.0928067873,-0.694143498,-0.316721091
134,340703,1805130,0.945,0.356,0.044,-3.7,-3.5,6,-9.9,-34.9,11.4,0.639667959,-0.0928067873,-0.694143498,-0.316721091
135,343071,1805130,0.945,0.356,0.044,-3.7,-3.5,6,-9.9,-34.9,11.4,0.639667959,-0.0928067873,-0.694143498,-0.316721091
136,344679,1805130,0.945,0.356,0.044,-3.7,-3.5,6,-9.9,-34.9,11.4,0.639667959,-0.0928067873,-0.694143498,-0.316721091
137,346968,1805130,0.945,0.356,0.044,-3.7,-3.5,6,-9.9,-34.9,11.4,0.639667959,-0.0928067873,-0.694143498,-0.316721091
138,349149,1805140,0.945,0.356,0.044,-3.7,-3.5,6,-9.9,-34.9,11.4,0.639667959,-0.0928067873,-0.694143498,-0.316721091
139,352766,1805140,0.945,0.356,0.044,-3.7,-3.5,6,-9.9,-34.9,11.4,0.639667959,-0.0928067873,-0.694143498,-0.316721091
140,355084,1805140,0.945,0.356,0.044,-3.7,-3.5,6,-9.9,-34.9,11.4,0.639667959,-0.0928067873,-0.694143498,-0.316721091
141,357187,1805140,0.945,0.356,0.044,-3.7,-3.5,6,-9.9,-34.9,11.4,0.639667959,-0.0928067873,-0.694143498,-0.316721091
142,359487,1805150,0.945,0.356,0.044,-3.7,-3.5,6,-9.9,-34.9,11.4,0.639667959,-0.0928067873,-0.694143498,-0.316721091
143,361650,1805150,0.945,0.356,0.044,-3.7,-3.5,6,-9.9,-34.9,11.4,0.639667959,-0.0928067873,-0.694143498,-0.316721091
144,363811,1805150,0.945,0.356,0.044,-3.7,-3.5,6,-9.9,-34.9,11.4,0.639667959,-0.0928067873,-0.694143498,-0.316721091
145,366613,1805150,0.945,0.356,0.044,-3.7,-3.5,6,-9.9,-34.9,11.4,0.639667959,-0.0928067873,-0.694143498,-0.316721091
146,368914,1805160,0.945,0.356,0.044,-3.7,-3.5,6,-9.9,-34.9,11.4,0.639667959,-0.0928067873,-0.694143498,-0.316721091
147,372621,1805160,0.945,0.388,0.048,-12.5,-1.4,0.6,-10,-34.7,10.9,0.638752403,-0.096560564,-0.692861721,-0.320261238
148,375079,1805160,0.945,0.388,0.048,-12.5,-1.4,0.6,-10,-34.7,10.9,0.638752403,-0.096560564,-0.692861721,-0.320261238
149,376974,1805160,0.945,0.388,0.048,-12.5,-1.4,0.6,-10,-34.7,10.9,0.638752403,-0.096560564,-0.692861721,-0.320261238
150,379165,1805170,0.945,0.388,0.048,-12.5,-1.4,0.6,-10,-34.7,10.9,0.638752403,-0.096560564,-0.692861721,-0.320261238
151,382440,1805170,0.945,0.388,0.048,-12.5,-1.4,0.6,-10,-34.7,10.9,0.638752403,-0.096560564,-0.692861721,-0.320261238
152,384514,1805170,0.945,0.388,0.048,-12.5,-1.4,0.6,-10,-34.7,10.9,0.638752403,-0.096560564,-0.692861721,-0.320261238
153,387066,1805170,0.945,0.388,0.048,-12.5,-1.4,0.6,-10,-34.7,10.9,0.638752403,-0.096560564,-0.692861721,-0.320261238
154,389415,1805180,0.945,0.388,0.048,-12.5,-1.4,0.6,-10,-34.7,10.9,0.638752403,-0.096560564,-0.692861721,-0.320261238
155,391586,1805180,0.945,0.388,0.048,-12.5,-1.4,0.6,-10,-34.7,10.9,0.638752403,-0.096560564,-0.692861721,-0.320261238
156,395568,1805180,0.945,0.388,0.048,-12.5,-1.4,0.6,-10,-34.7,10.9,0.638752403,-0.096560564,-0.692861721,-0.320261238
157,397584,1805180,0.945,0.388,0.048,-12.5,-1.4,0.6,-10,-34.7,10.9,0.638752403,-0.096560564,-0.692861721,-0.320261238
158,399591,1805190,0.945,0.388,0.048,-12.5,-1.4,0.6,-10,-34.7,10.9,0.638752403,-0.096560564,-0.692861721,-0.320261238
159,401790,1805190,0.945,0.388,0.048,-12.5,-1.4,0.6,-10,-34.7,10.9,0.638752403,-0.096560564,-0.692861721,-0.320261238
160,405266,1805190,0.945,0.388,0.048,-12.5,-1.4,0.6,-10,-34.7,10.9,0.638752403,-0.096560564,-0.692861721,-0.320261238
161,407549,1805190,0.945,0.388,0.048,-12.5,-1.4,0.6,-10,-34.7,10.9,0.638752403,-0.096560564,-0.692861721,-0.320261238
162,409656,1805200,0.945,0.388,0.048,-12.5,-1.4,0.6,-10,-34.7,10.9,0.638752403,-0.096560564,-0.692861721,-0.320261238
163,411862,1805200,0.945,0.388,0.048,-12.5,-1.4,0.6,-10,-34.7,10.9,0.638752403,-0.096560564,-0.692861721,-0.320261238
164,414116,1805200,0.945,0.388,0.048,-12.5,-1.4,0.6,-10,-34.7,10.9,0.638752403,-0.096560564,-0.692861721,-0.320261238
165,416445,1805200,0.945,0.388,0.048,-12.5,-1.4,0.6,-10,-34.7,10.9,0.638752403,-0.096560564,-0.692861721,-0.320261238
166,420651,1805210,0.945,0.388,0.048,-12.5,-1.4,0.6,-10,-34.7,10.9,0.638752403,-0.096560564,-0.692861721,-0.320261238
167,422962,1805210,0.945,0.388,0.048,-12.5,-1.4,0.6,-10,-34.7,10.9,0.638752403,-0.096560564,-0.692861721,-0.320261238
168,424589,1805210,0.948,0.356,0.063,-17.5,-3.6,-1.3,-10.6,-34.8,10.3,0.637073885,-0.101168859,-0.691152684,-0.325785089
169,426686,1805210,0.948,0.356,0.063,-17.5,-3.6,-1.3,-10.6,-34.8,10.3,0.637073885,-0.101168859,-0.691152684,-0.325785089
170,428955,1805220,0.948,0.356,0.063,-17.5,-3.6,-1.3,-10.6,-34.8,10.3,0.637073885,-0.101168859,-0.691152684,-0.325785089
171,431248,1805220,0.941,0.348,0.063,-18.4,-3.9,-2.3,-9.9,-35.5,10.3,0.636738182,-0.101901303,-0.690939055,-0.326639607
172,435721,1805220,0.941,0.348,0.063,-18.4,-3.9,-2.3,-9.9,-35.5,10.3,0.636738182,-0.101901303,-0.690939055,-0.326639607
173,437867,1805220,0.941,0.348,0.063,-18.4,-3.9,-2.3,-9.9,-35.5,10.3,0.636738182,-0.101901303,-0.690939055,-0.326639607
174,439595,1805230,0.941,0.348,0.063,-18.4,-3.9,-2.3,-9.9,-35.5,10.3,0.636738182,-0.101901303,-0.690939055,-0.326639607
175,442098,1805230,0.941,0.348,0.063,-18.4,-3.9,-2.3,-9.9,-35.5,10.3,0.636738182,-0.101901303,-0.690939055,-0.326639607
176,444145,1805230,0.941,0.348,0.063,-18.4,-3.9,-2.3,-9.9,-35.5,10.3,0.636738182,-0.101901303,-0.690939055,-0.326639607
177,447417,1805230,0.941,0.348,0.063,-18.4,-3.9,-2.3,-9.9,-35.5,10.3,0.636738182,-0.101901303,-0.690939055,-0.326639607
178,449445,1805240,0.941,0.348,0.063,-18.4,-3.9,-2.3,-9.9,-35.5,10.3,0.636738182,-0.101901303,-0.690939055,-0.326639607
179,452517,1805240,0.941,0.348,0.063,-18.4,-3.9,-2.3,-9.9,-35.5,10.3,0.636738182,-0.101901303,-0.690939055,-0.326639607
180,453950,1805240,0.941,0.348,0.063,-18.4,-3.9,-2.3,-9.9,-35.5,10.3,0.636738182,-0.101901303,-0.690939055,-0.326639607
181,457339,1805240,0.941,0.348,0.063,-18.4,-3.9,-2.3,-9.9,-35.5,10.3,0.636738182,-0.101901303,-0.690939055,-0.326639607
182,459584,1805250,0.941,0.348,0.063,-18.4,-3.9,-2.3,-9.9,-35.5,10.3,0.636738182,-0.101901303,-0.690939055,-0.326639607
183,461952,1805250,0.941,0.348,0.063,-18.4,-3.9,-2.3,-9.9,-35.5,10.3,0.636738182,-0.101901303,-0.690939055,-0.326639607
184,464158,1805250,0.941,0.348,0.063,-18.4,-3.9,-2.3,-9.9,-35.5,10.3,0.636738182,-0.101901303,-0.690939055,-0.326639607
185,468196,1805250,0.941,0.348,0.063,-18.4,-3.9,-2.3,-9.9,-35.5,10.3,0.636738182,-0.101901303,-0.690939055,-0.326639607
186,470219,1805260,0.941,0.348,0.063,-18.4,-3.9,-2.3,-9.9,-35.5,10.3,0.636738182,-0.101901303,-0.690939055,-0.326639607
187,471729,1805260,0.941,0.348,0.063,-18.4,-3.9,-2.3,-9.9,-35.5,10.3,0.636738182,-0.101901303,-0.690939055,-0.326639607
188,474636,1805260,0.941,0.348,0.063,-18.4,-3.9,-2.3,-9.9,-35.5,10.3,0.636738182,-0.101901303,-0.690939055,-0.326639607
189,477922,1805260,0.941,0.348,0.063,-18.4,-3.9,-2.3,-9.9,-35.5,10.3,0.636738182,-0.101901303,-0.690939055,-0.326639607
190,479958,1805270,0.941,0.348,0.063,-18.4,-3.9,-2.3,-9.9,-35.5,10.3,0.636738182,-0.101901303,-0.690939055,-0.326639607
191,481483,1805270,0.941,0.348,0.063,-18.4,-3.9,-2.3,-9.9,-35.5,10.3,0.636738182,-0.101901303,-0.690939055,-0.326639607
192,484496,1805270,0.941,0.348,0.063,-18.4,-3.9,-2.3,-9.9,-35.5,10.3,0.636738182,-0.101901303,-0.690939055,-0.326639607
193,486603,1805270,0.941,0.348,0.063,-18.4,-3.9,-2.3,-9.9,-35.5,10.3,0.636738182,-0.101901303,-0.690939055,-0.326639607
194,490342,1805280,0.905,0.364,0.072,-21.4,-6.8,-3.7,-9.9,-35.1,10.3,0.633960997,-0.107516709,-0.689199499,-0.333903012
195,492510,1805280,0.905,0.364,0.072,-21.4,-6.8,-3.7,-9.9,-35.1,10.3,0.633960997,-0.107516709,-0.689199499,-0.333903012
196,493879,1805280,0.905,0.36,0.08,-23.3,-7.6,-4.7,-9.7,-35.4,10.3,0.633564257,-0.108157598,-0.689107944,-0.334665975
197,496910,1805280,0.905,0.36,0.08,-23.3,-7.6,-4.7,-9.7,-35.4,10.3,0.633564257,-0.108157598,-0.689107944,-0.334665975
198,500013,1805290,0.905,0.36,0.08,-23.3,-7.6,-4.7,-9.7,-35.4,10.3,0.633564257,-0.108157598,-0.689107944,-0.334665975
199,501463,1805290,0.905,0.36,0.08,-23.3,-7.6,-4.7,-9.7,-35.4,10.3,0.633564257,-0.108157598,-0.689107944,-0.334665975
200,504519,1805290,0.905,0.36,0.08,-23.3,-7.6,-4.7,-9.7,-35.4,10.3,0.633564257,-0.108157598,-0.689107944,-0.334665975
201,506699,1805290,0.905,0.36,0.08,-23.3,-7.6,-4.7,-9.7,-35.4,10.3,0.633564257,-0.108157598,-0.689107944,-0.334665975
202,509601,1805300,0.905,0.36,0.08,-23.3,-7.6,-4.7,-9.7,-35.4,10.3,0.633564257,-0.108157598,-0.689107944,-0.334665975
203,511519,1805300,0.905,0.36,0.08,-23.3,-7.6,-4.7,-9.7,-35.4,10.3,0.633564257,-0.108157598,-0.689107944,-0.334665975
204,514546,1805300,0.929,0.34,0.079,-27.2,-8.3,-4.1,-8,-36.5,9.6,0.631916257,-0.110721152,-0.688314463,-0.338480789
205,516843,1805300,0.929,0.34,0.079,-27.2,-8.3,-4.1,-8,-36.5,9.6,0.631916257,-0.110721152,-0.688314463,-0.338480789
206,520351,1805310,0.929,0.34,0.079,-27.2,-8.3,-4.1,-8,-36.5,9.6,0.631916257,-0.110721152,-0.688314463,-0.338480789
207,523238,1805310,0.929,0.34,0.079,-27.2,-8.3,-4.1,-8,-36.5,9.6,0.631916257,-0.110721152,-0.688314463,-0.338480789
208,525491,1805310,0.929,0.34,0.079,-27.2,-8.3,-4.1,-8,-36.5,9.6,0.631916257,-0.110721152,-0.688314463,-0.338480789
209,527683,1805310,0.929,0.34,0.079,-27.2,-8.3,-4.1,-8,-36.5,9.6,0.631916257,-0.110721152,-0.688314463,-0.338480789
210,529670,1805320,0.929,0.34,0.079,-27.2,-8.3,-4.1,-8,-36.5,9.6,0.631916257,-0.110721152,-0.688314463,-0.338480789
211,532021,1805320,0.929,0.34,0.079,-27.2,-8.3,-4.1,-8,-36.5,9.6,0.631916257,-0.110721152,-0.688314463,-0.338480789
212,534341,1805320,0.929,0.34,0.079,-27.2,-8.3,-4.1,-8,-36.5,9.6,0.631916257,-0.110721152,-0.688314463,-0.338480789
213,536519,1805320,0.929,0.34,0.079,-27.2,-8.3,-4.1,-8,-36.5,9.6,0.631916257,-0.110721152,-0.688314463,-0.338480789
214,540480,1805330,0.929,0.34,0.079,-27.2,-8.3,-4.1,-8,-36.5,9.6,0.631916257,-0.110721152,-0.688314463,-0.338480789
215,542668,1805330,0.929,0.34,0.079,-27.2,-8.3,-4.1,-8,-36.5,9.6,0.631916257,-0.110721152,-0.688314463,-0.338480789
216,544941,1805330,0.929,0.34,0.079,-27.2,-8.3,-4.1,-8,-36.5,9.6,0.631916257,-0.110721152,-0.688314463,-0.338480789
217,546894,1805330,0.921,0.352,0.099,-25.4,-7.1,-4.4,-9.5,-35.6,9.3,0.629383221,-0.115237892,-0.687307352,-0.343760491
218,549146,1805340,0.921,0.352,0.103,-25.7,-7.4,-4.8,-9.5,-35.6,9.3,0.629169591,-0.115573595,-0.687215796,-0.34418775
219,552117,1805340,0.917,0.348,0.099,-25.7,-7.7,-5.3,-9,-35.3,9.7,0.628955962,-0.11587878,-0.687154759,-0.344615009
220,554394,1805340,0.917,0.348,0.099,-25.7,-7.7,-5.3,-9,-35.3,9.7,0.628955962,-0.11587878,-0.687154759,-0.344615009
221,557382,1805340,0.917,0.348,0.099,-25.7,-7.7,-5.3,-9,-35.3,9.7,0.628955962,-0.11587878,-0.687154759,-0.344615009
222,558724,1805350,0.917,0.348,0.099,-25.7,-7.7,-5.3,-9,-35.3,9.7,0.628955962,-0.11587878,-0.687154759,-0.344615009
223,562662,1805350,0.917,0.348,0.099,-25.7,-7.7,-5.3,-9,-35.3,9.7,0.628955962,-0.11587878,-0.687154759,-0.344615009
224,564490,1805350,0.909,0.36,0.111,-23.8,-8.9,-7.4,-8,-36.6,8.8,0.627979369,-0.117191076,-0.686544389,-0.347178564
225,567430,1805350,0.909,0.36,0.111,-23.8,-8.9,-7.4,-8,-36.6,8.8,0.627979369,-0.117191076,-0.686544389,-0.347178564
226,568796,1805360,0.909,0.36,0.111,-22.5,-9.1,-7.8,-8,-36.6,8.8,0.627460555,-0.117709891,-0.686483352,-0.348033082
227,572476,1805360,0.909,0.36,0.111,-22.5,-9.1,-7.8,-8,-36.6,8.8,0.627460555,-0.117709891,-0.686483352,-0.348033082
228,574469,1805360,0.909,0.36,0.111,-22.5,-9.1,-7.8,-8,-36.6,8.8,0.627460555,-0.117709891,-0.686483352,-0.348033082
229,576777,1805360,0.909,0.36,0.111,-22.5,-9.1,-7.8,-8,-36.6,8.8,0.627460555,-0.117709891,-0.686483352,-0.348033082
230,579791,1805370,0.909,0.36,0.111,-22.5,-9.1,-7.8,-8,-36.6,8.8,0.627460555,-0.117709891,-0.686483352,-0.348033082
231,581283,1805370,0.909,0.36,0.111,-22.5,-9.1,-7.8,-8,-36.6,8.8,0.627460555,-0.117709891,-0.686483352,-0.348033082
232,583729,1805370,0.909,0.36,0.111,-22.5,-9.1,-7.8,-8,-36.6,8.8,0.627460555,-0.117709891,-0.686483352,-0.348033082
233,587416,1805370,0.909,0.36,0.111,-22.5,-9.1,-7.8,-8,-36.6,8.8,0.627460555,-0.117709891,-0.686483352,-0.348033082
234,589406,1805380,0.909,0.36,0.111,-22.5,-9.1,-7.8,-8,-36.6,8.8,0.627460555,-0.117709891,-0.686483352,-0.348033082
235,591912,1805380,0.909,0.36,0.111,-22.5,-9.1,-7.8,-8,-36.6,8.8,0.627460555,-0.117709891,-0.686483352,-0.348033082
236,593991,1805380,0.909,0.36,0.111,-22.5,-9.1,-7.8,-8,-36.6,8.8,0.627460555,-0.117709891,-0.686483352,-0.348033082
237,597053,1805380,0.909,0.36,0.111,-22.5,-9.1,-7.8,-8,-36.6,8.8,0.627460555,-0.117709891,-0.686483352,-0.348033082
238,599300,1805390,0.909,0.36,0.111,-22.5,-9.1,-7.8,-8,-36.6,8.8,0.627460555,-0.117709891,-0.686483352,-0.348033082
239,602354,1805390,0.909,0.36,0.111,-22.5,-9.1,-7.8,-8,-36.6,8.8,0.627460555,-0.117709891,-0.686483352,-0.348033082
240,603790,1805390,0.909,0.431,0.088,-25.2,-14.1,-7.9,-8.7,-35.7,9,0.623340556,-0.121189001,-0.686544389,-0.354045228
241,606859,1805390,0.909,0.431,0.088,-25.2,-14.1,-7.9,-8.7,-35.7,9,0.623340556,-0.121189001,-0.686544389,-0.354045228
242,610138,1805400,0.905,0.443,0.089,-26.1,-14.7,-6.7,-8.7,-35.7,9,0.622669149,-0.121951964,-0.686574908,-0.354930265
243,612389,1805400,0.905,0.454,0.081,-26.4,-15.1,-5.9,-7.5,-37.1,8.3,0.622302927,-0.121677297,-0.686391797,-0.356028932
244,613845,1805400,0.905,0.454,0.081,-26.7,-15.6,-5.3,-7.5,-37.1,8.3,0.621967223,-0.122074038,-0.686391797,-0.356486709
245,616847,1805400,0.913,0.458,0.077,-27,-16.2,-4.6,-7.5,-37.1,8.3,0.621601001,-0.122501297,-0.686422315,-0.35688345
246,620086,1805410,0.913,0.458,0.077,-27,-16.2,-4.6,-7.5,-37.1,8.3,0.621601001,-0.122501297,-0.686422315,-0.35688345
247,622138,1805410,0.913,0.458,0.077,-27,-16.2,-4.6,-7.5,-37.1,8.3,0.621601001,-0.122501297,-0.686422315,-0.35688345
248,624206,1805410,0.913,0.458,0.077,-27,-16.2,-4.6,-7.5,-37.1,8.3,0.621601001,-0.122501297,-0.686422315,-0.35688345
249,627485,1805410,0.913,0.474,0.097,-29.6,-17.1,-3.1,-8.4,-35.5,8.4,0.620166631,-0.124362926,-0.686483352,-0.358623005
250,629578,1805420,0.913,0.474,0.097,-29.6,-17.1,-3.1,-8.4,-35.5,8.4,0.620166631,-0.124362926,-0.686483352,-0.358623005
251,631833,1805420,0.913,0.474,0.097,-29.6,-17.1,-3.1,-8.4,-35.5,8.4,0.620166631,-0.124362926,-0.686483352,-0.358623005
252,635063,1805420,0.913,0.474,0.097,-29.6,-17.1,-3.1,-8.4,-35.5,8.4,0.620166631,-0.124362926,-0.686483352,-0.358623005
253,637364,1805420,0.913,0.474,0.097,-29.6,-17.1,-3.1,-8.4,-35.5,8.4,0.620166631,-0.124362926,-0.686483352,-0.358623005
254,639419,1805430,0.933,0.462,0.077,-37.5,-16.6,-3.1,-8.1,-35.9,8.7,0.618305002,-0.127109592,-0.686361278,-0.361125523
255,642679,1805430,0.933,0.462,0.077,-37.5,-16.6,-3.1,-8.1,-35.9,8.7,0.618305002,-0.127109592,-0.686361278,-0.361125523
256,644988,1805430,0.933,0.462,0.077,-37.5,-16.6,-3.1,-8.1,-35.9,8.7,0.618305002,-0.127109592,-0.686361278,-0.361125523
257,647015,1805430,0.933,0.462,0.077,-37.5,-16.6,-3.1,-8.1,-35.9,8.7,0.618305002,-0.127109592,-0.686361278,-0.361125523
258,649260,1805440,0.944,0.454,0.084,-43.5,-16.1,-5.3,-8.1,-35.9,8.3,0.616718039,-0.12961211,-0.685964537,-0.363658559
259,651866,1805440,0.94,0.438,0.072,-44.7,-16.4,-5.8,-7.7,-35.9,8.1,0.616321299,-0.130252998,-0.685842463,-0.364360485
260,654576,1805440,0.94,0.438,0.072,-44.7,-16.4,-5.8,-7.7,-35.9,8.1,0.616321299,-0.130252998,-0.685842463,-0.364360485
261,656762,1805440,0.94,0.438,0.072,-44.7,-16.4,-5.8,-7.7,-35.9,8.1,0.616321299,-0.130252998,-0.685842463,-0.364360485
262,658925,1805450,0.94,0.438,0.072,-44.7,-16.4,-5.8,-7.7,-35.9,8.1,0.616321299,-0.130252998,-0.685842463,-0.364360485
263,661350,1805450,0.948,0.419,0.072,-49.8,-17.9,-6,-7.7,-37.3,7.7,0.61445967,-0.132572405,-0.685232093,-0.367809076
264,663751,1805450,0.948,0.419,0.064,-50.9,-18,-5.9,-7.7,-37.3,7.7,0.614001892,-0.133304849,-0.685079501,-0.368602557
265,668258,1805450,0.948,0.419,0.064,-50.9,-18,-5.9,-7.7,-37.3,7.7,0.614001892,-0.133304849,-0.685079501,-0.368602557
266,670352,1805460,0.956,0.403,0.048,-52.4,-18.1,-5.4,-7.7,-37.3,7.7,0.613055818,-0.134830775,-0.684743797,-0.37018952
267,672559,1805460,0.956,0.411,0.044,-52.8,-18,-5,-7.3,-36,7.6,0.612598041,-0.135593738,-0.684560686,-0.370983001
268,674682,1805460,0.96,0.411,0.052,-52.8,-17.9,-4.6,-7.3,-36,7.6,0.612140263,-0.136387219,-0.684408094,-0.371807001
269,676910,1805460,0.96,0.419,0.052,-52.4,-17.6,-4.2,-7.3,-36,7.6,0.611682485,-0.1371807,-0.684224982,-0.372569964
270,679077,1805470,0.96,0.419,0.052,-52.4,-17.6,-4.2,-7.3,-36,7.6,0.611682485,-0.1371807,-0.684224982,-0.372569964
271,682405,1805470,0.96,0.419,0.052,-52.4,-17.6,-4.2,-7.3,-36,7.6,0.611682485,-0.1371807,-0.684224982,-0.372569964
272,684445,1805470,0.96,0.419,0.052,-52.4,-17.6,-4.2,-7.3,-36,7.6,0.611682485,-0.1371807,-0.684224982,-0.372569964
273,686724,1805470,0.976,0.442,0.04,-49.8,-16.6,-1.7,-7.5,-36.1,7.2,0.60994293,-0.14026307,-0.683523057,-0.375560778
274,689623,1805480,0.98,0.446,0.036,-49.3,-16.6,-0.9,-7.5,-36.1,7.2,0.60954619,-0.141026032,-0.683339946,-0.376262703
275,691891,1805480,0.98,0.446,0.036,-49.3,-16.6,-0.9,-7.5,-36.1,7.2,0.60954619,-0.141026032,-0.683339946,-0.376262703
276,694160,1805480,0.972,0.462,0.041,-48.2,-16.7,1,-7.2,-36.1,7,0.608752709,-0.142612995,-0.682973724,-0.377574999
277,697116,1805480,0.972,0.462,0.041,-48.2,-16.7,1,-7.2,-36.1,7,0.608752709,-0.142612995,-0.682973724,-0.377574999
278,699412,1805490,0.972,0.462,0.041,-48.2,-16.7,1,-7.2,-36.1,7,0.608752709,-0.142612995,-0.682973724,-0.377574999
279,701252,1805490,0.972,0.462,0.041,-48.2,-16.7,1,-7.2,-36.1,7,0.608752709,-0.142612995,-0.682973724,-0.377574999
280,704638,1805490,0.988,0.47,0.021,-48.9,-17.9,3.7,-7.5,-36.6,6.8,0.607196265,-0.145939512,-0.682271798,-0.380077517
281,706922,1805490,0.984,0.474,0.021,-49.6,-17.8,3.8,-7.5,-36.6,6.8,0.606799524,-0.146794031,-0.682088687,-0.380718406
282,709111,1805500,0.984,0.474,0.021,-49.6,-17.8,3.8,-7.5,-36.6,6.8,0.606799524,-0.146794031,-0.682088687,-0.380718406
283,712124,1805500,0.984,0.474,0.021,-49.6,-17.8,3.8,-7.5,-36.6,6.8,0.606799524,-0.146794031,-0.682088687,-0.380718406
284,714385,1805500,0.984,0.466,0.017,-51.6,-16.4,3.3,-7.2,-37.9,6.3,0.605456709,-0.149082919,-0.681539354,-0.382976775
285,716504,1805500,0.988,0.47,0.021,-52.5,-15.9,3.1,-7.2,-37.9,6.3,0.605059969,-0.149967956,-0.681295206,-0.383648183
286,719458,1805510,0.988,0.47,0.021,-52.5,-15.9,3.1,-7.2,-37.9,6.3,0.605059969,-0.149967956,-0.681295206,-0.383648183
287,722543,1805510,0.988,0.47,0.021,-52.5,-15.9,3.1,-7.2,-37.9,6.3,0.605059969,-0.149967956,-0.681295206,-0.383648183
288,723978,1805510,0.98,0.458,0.021,-56,-14.6,1.8,-7.2,-37.1,6.6,0.603900266,-0.152623066,-0.680471206,-0.385876034
289,726952,1805510,0.984,0.454,0.021,-56.9,-14.3,1.3,-7.2,-37.1,6.6,0.603534043,-0.153508103,-0.680196539,-0.386638997
290,729213,1805520,0.976,0.451,0.017,-57.8,-14.2,1.2,-7.2,-37.1,6.6,0.603137303,-0.154393139,-0.679891354,-0.387432478
291,732359,1805520,0.976,0.443,0.013,-58.9,-14.4,1.3,-7.5,-37.2,5.9,0.602710044,-0.155308695,-0.679555651,-0.388256478
292,733678,1805520,0.976,0.443,0.013,-58.9,-14.4,1.3,-7.5,-37.2,5.9,0.602710044,-0.155308695,-0.679555651,-0.388256478
293,736930,1805520,0.968,0.439,0.009,-60.9,-15.1,1.9,-7.5,-37.2,5.9,0.601886044,-0.157200842,-0.678914762,-0.389873959
294,739179,1805530,0.972,0.423,0.005,-62,-15.5,2.3,-7.5,-37.2,5.9,0.601458785,-0.158207953,-0.678579058,-0.390728477
295,741342,1805530,0.972,0.423,0.005,-63,-15.8,2.9,-7.1,-36.8,5.9,0.601031526,-0.159215064,-0.678243355,-0.391552477
296,745403,1805530,0.968,0.416,0.001,-63.8,-16.2,3.7,-7.1,-36.8,5.9,0.600604266,-0.160222175,-0.677907651,-0.392406995
297,747638,1805530,0.976,0.412,0.005,-64.5,-16.7,4.3,-7.1,-36.8,5.9,0.600177007,-0.161290323,-0.677541429,-0.393230995
298,749634,1805540,0.964,0.408,0.005,-65.1,-17.1,4.9,-7.1,-36.8,5.9,0.599749748,-0.162327952,-0.677205725,-0.394085513
299,752065,1805540,0.968,0.408,0.001,-65.4,-17.4,5.4,-7.4,-37.2,6,0.599291971,-0.163457137,-0.676839503,-0.394909513
300,754262,1805540,0.968,0.408,0.001,-65.4,-17.4,5.4,-7.4,-37.2,6,0.599291971,-0.163457137,-0.676839503,-0.394909513
301,756784,1805540,0.964,0.412,0.005,-65.6,-17.9,6.5,-7.4,-37.2,6,0.598406934,-0.165654469,-0.676137577,-0.396557512
302,759437,1805550,0.964,0.412,0.001,-65.8,-18.1,7,-7.4,-37.2,6,0.597949156,-0.166783654,-0.675771355,-0.397381512
303,761676,1805550,0.956,0.412,0.005,-66.2,-18.2,8.2,-7,-37.7,5,0.597277749,-0.16769921,-0.675588244,-0.398297067
304,764091,1805550,0.956,0.412,0.005,-66.2,-18.2,8.2,-7,-37.7,5,0.59685049,-0.168858913,-0.675222022,-0.399121067
305,766195,1805550,0.96,0.416,0.005,-66.1,-17.9,8.6,-7,-37.7,5,0.596392712,-0.169988098,-0.6748558,-0.399914548
306,770086,1805560,0.96,0.416,0.005,-65.8,-17.5,9,-7,-37.7,5,0.595965453,-0.171117283,-0.674459059,-0.400677511
307,772136,1805560,0.96,0.408,0.005,-65.3,-17.2,9.3,-7.1,-37.1,4.4,0.595568712,-0.172276986,-0.674092837,-0.401470992
308,774444,1805560,0.96,0.408,-0.002,-64.8,-16.6,9.4,-7.1,-37.1,4.4,0.595141453,-0.173406171,-0.673696097,-0.402233955
309,776692,1805560,0.964,0.412,0.001,-64.1,-15.9,9.1,-7.1,-37.1,4.4,0.594714194,-0.174504837,-0.673299356,-0.402996918
310,780592,1805570,0.956,0.412,0.001,-62.9,-14.9,8.5,-7.1,-37.1,4.4,0.594378491,-0.175572985,-0.672933134,-0.40375988
311,782846,1805570,0.949,0.412,0.005,-61.5,-13.9,7.9,-6.9,-37.7,4.1,0.594012268,-0.176610614,-0.672536393,-0.404492325
312,785196,1805570,0.953,0.42,0.001,-59.7,-13.1,7.2,-6.9,-37.7,4.1,0.593646046,-0.177617725,-0.672139653,-0.405224769
313,787020,1805570,0.945,0.428,-0.001,-58.1,-12.6,6.7,-6.9,-37.7,4.1,0.593279824,-0.178594317,-0.671773431,-0.405957213
314,789376,1805580,0.941,0.424,-0.001,-56.5,-12.2,6.5,-6.9,-37.7,4.1,0.592944121,-0.179509873,-0.671407208,-0.40662862
315,791590,1805580,0.941,0.424,-0.001,-55.1,-11.9,6.2,-6.9,-37.5,3.9,0.592608417,-0.180425428,-0.671040986,-0.407330546
316,794245,1805580,0.945,0.428,-0.005,-53.8,-11.6,6,-6.9,-37.5,3.9,0.592272713,-0.181310465,-0.670674764,-0.408001953
317,796909,1805580,0.937,0.428,0.002,-52.9,-11.2,5.7,-6.9,-37.5,3.9,0.591967528,-0.182195502,-0.670339061,-0.408642842
318,798938,1805590,0.945,0.424,0.001,-52.2,-11,5.5,-6.9,-37.5,3.9,0.591631825,-0.18305002,-0.669972839,-0.409283731
319,801560,1805590,0.941,0.424,-0.001,-52,-10.7,5.2,-6.6,-37.3,3.7,0.59132664,-0.18387402,-0.669637135,-0.409955138
320,803849,1805590,0.941,0.424,-0.001,-52,-10.7,5.2,-6.6,-37.3,3.7,0.59132664,-0.18387402,-0.669637135,-0.409955138
321,806304,1805590,0.945,0.42,-0.005,-53.2,-10.6,5.2,-6.6,-37.3,3.7,0.590685751,-0.185583056,-0.668935209,-0.411267434
322,808732,1805600,0.949,0.42,-0.005,-54.6,-10.6,5,-6.6,-37.3,3.7,0.590350047,-0.186468093,-0.668538469,-0.411938841
323,812745,1805600,0.949,0.42,-0.005,-54.6,-10.6,5,-6.6,-37.3,3.7,0.590350047,-0.186468093,-0.668538469,-0.411938841
324,815070,1805600,0.949,0.396,-0.014,-57.9,-10.6,4.4,-6.9,-38.1,3.5,0.589007233,-0.187719352,-0.668233283,-0.413769951
325,817174,1805600,0.945,0.385,-0.018,-59.4,-10.4,4.1,-6.9,-38.1,3.5,0.588641011,-0.188634907,-0.667836543,-0.414532914
326,819097,1805610,0.945,0.369,-0.01,-60.5,-10.3,3.6,-6.9,-38.1,3.5,0.588274789,-0.189580981,-0.667409284,-0.415326395
327,821551,1805610,0.941,0.361,-0.014,-61.3,-10.3,2.9,-7,-37.7,3,0.587908567,-0.190496536,-0.666951506,-0.416150395
328,823773,1805610,0.933,0.361,-0.002,-61.9,-10.5,2.4,-7,-37.7,3,0.587511826,-0.191412091,-0.666524247,-0.416974395
329,827709,1805610,0.933,0.353,-0.002,-62.4,-11.1,1.9,-7,-37.7,3,0.587115085,-0.192358165,-0.666096988,-0.417798395
330,829548,1805620,0.925,0.338,-0.002,-63,-12.1,1.7,-7,-37.7,3,0.586687826,-0.193304239,-0.665669729,-0.418652913
331,832085,1805620,0.929,0.33,-0.01,-63.6,-13.4,1.7,-6.8,-37.9,2.5,0.586230049,-0.194250313,-0.66524247,-0.419507431
332,834225,1805620,0.933,0.314,-0.006,-63.9,-14.9,2,-6.8,-37.9,2.5,0.585772271,-0.195226905,-0.664845729,-0.420331431
333,836693,1805620,0.933,0.314,-0.006,-63.9,-14.9,2,-6.8,-37.9,2.5,0.585772271,-0.195226905,-0.664845729,-0.420331431
334,839413,1805630,0.937,0.29,-0.003,-62.5,-16.9,3.6,-6.8,-37.9,2.5,0.584795679,-0.197241127,-0.664082766,-0.421948912
335,842665,1805630,0.937,0.283,-0.007,-60.6,-17.4,4.8,-6.8,-37.7,2.5,0.584337901,-0.198248238,-0.663716544,-0.422681356
336,844725,1805630,0.933,0.279,0.008,-58.1,-17.8,5.9,-6.8,-37.7,2.5,0.583880123,-0.199255348,-0.66338084,-0.423383282
337,846712,1805630,0.933,0.279,0.008,-58.1,-17.8,5.9,-6.8,-37.7,2.5,0.583880123,-0.199255348,-0.66338084,-0.423383282
338,849158,1805640,0.945,0.278,0.011,-52.6,-18.6,7.9,-6.8,-37.7,2.5,0.582995087,-0.201178014,-0.662800989,-0.424573504
339,851659,1805640,0.949,0.278,0.019,-50.2,-19,8.7,-6.9,-37.8,2.4,0.582598346,-0.202124088,-0.662526322,-0.425122837
340,853982,1805640,0.957,0.274,0.019,-48.3,-19.4,9.3,-6.9,-37.8,2.4,0.582201605,-0.203039644,-0.662282174,-0.425611133
341,856500,1805640,0.956,0.278,0.031,-46.7,-19.3,9.6,-6.9,-37.8,2.4,0.581804865,-0.203955199,-0.662068545,-0.426068911
342,858799,1805650,0.952,0.278,0.047,-45.5,-18.9,9.7,-6.9,-37.8,2.4,0.581408124,-0.204840236,-0.661824396,-0.426526688
343,863026,1805650,0.952,0.278,0.047,-43.4,-17.4,9.3,-6.8,-38.2,1.9,0.58107242,-0.205847346,-0.661610767,-0.426831874
344,865265,1805650,0.952,0.282,0.047,-43.4,-17.4,9.3,-6.8,-38.2,1.9,0.580736717,-0.206701865,-0.661397137,-0.427259133
345,866985,1805650,0.952,0.282,0.047,-43.4,-17.4,9.3,-6.8,-38.2,1.9,0.580736717,-0.206701865,-0.661397137,-0.427259133
346,869324,1805660,0.952,0.282,0.047,-43.4,-17.4,9.3,-6.8,-38.2,1.9,0.580736717,-0.206701865,-0.661397137,-0.427259133
347,871727,1805660,0.929,0.29,0.039,-41.3,-13.7,7.2,-7,-38.2,1.5,0.579729606,-0.209082308,-0.660664693,-0.428571429
348,874515,1805660,0.91,0.283,0.028,-40.5,-12,6.1,-7,-38.2,1.5,0.579424421,-0.209784234,-0.660420545,-0.428998688
349,876659,1805660,0.906,0.283,0.016,-39.4,-10.4,5,-7,-38.2,1.5,0.579088717,-0.210455641,-0.660176397,-0.429456465
350,880941,1805670,0.902,0.287,0.016,-38,-8.8,4,-7,-38.2,1.5,0.578875088,-0.211066012,-0.65990173,-0.429914243
351,881553,1805670,0.89,0.287,0.009,-36.2,-7.2,3.3,-6.9,-38.6,1.6,0.57863094,-0.211645863,-0.659627064,-0.430372021
352,885802,1805670,0.878,0.291,0.013,-33.9,-5.9,2.6,-6.9,-38.6,1.6,0.57841731,-0.212134159,-0.659382916,-0.43079928
353,886260,1805670,0.878,0.291,0.013,-33.9,-5.9,2.6,-6.9,-38.6,1.6,0.57841731,-0.212134159,-0.659382916,-0.43079928
354,890614,1805680,0.871,0.287,0.009,-28.9,-3.9,1.9,-6.9,-38.6,1.6,0.578051088,-0.213080233,-0.65889462,-0.431562243
355,892815,1805680,0.875,0.283,0.005,-26.6,-3.5,1.9,-6.8,-38,1.6,0.577898495,-0.213476974,-0.65868099,-0.431928465
356,895194,1805680,0.875,0.279,0.001,-24.2,-3.2,2,-6.8,-38,1.6,0.577745903,-0.213843196,-0.658497879,-0.43223365
357,897172,1805680,0.878,0.271,0.005,-21.7,-2.8,1.9,-6.8,-38,1.6,0.577623829,-0.2141789,-0.658314768,-0.432508316
358,899320,1805690,0.898,0.267,0.016,-18.7,-2.3,1.6,-6.8,-38,1.6,0.577532273,-0.214453566,-0.658162175,-0.432721946
359,901660,1805690,0.898,0.271,0.02,-15.1,-1.4,1.1,-6.7,-38.4,1.2,0.577440718,-0.214667196,-0.658009583,-0.432935575
360,904364,1805690,0.898,0.271,0.02,-15.1,-1.4,1.1,-6.7,-38.4,1.2,0.577440718,-0.214667196,-0.658009583,-0.432935575
361,906658,1805690,0.91,0.267,0.031,-7.7,1,-0.1,-6.7,-38.4,1.2,0.577349162,-0.214911344,-0.657826472,-0.433210242
362,909383,1805700,0.925,0.263,0.039,-4.6,2.1,-0.6,-6.7,-38.4,1.2,0.577379681,-0.214941862,-0.657765435,-0.433301798
363,912140,1805700,0.941,0.266,0.039,0,4,-1.2,-6.9,-38.5,1.2,0.577410199,-0.214972381,-0.657734916,-0.433240761
364,914357,1805700,0.941,0.266,0.039,0,4,-1.2,-6.9,-38.5,1.2,0.577471236,-0.214911344,-0.657704398,-0.433271279
365,916654,1805700,0.937,0.266,0.039,2.1,4.7,-1.5,-6.9,-38.5,1.2,0.577532273,-0.214819788,-0.657673879,-0.433271279
366,919248,1805710,0.937,0.263,0.031,4.5,5.5,-1.9,-6.9,-38.5,1.2,0.577623829,-0.214667196,-0.657643361,-0.433271279
367,921446,1805710,0.937,0.263,0.031,4.5,5.5,-1.9,-6.9,-38.5,1.2,0.577623829,-0.214667196,-0.657643361,-0.433271279
368,923761,1805710,0.937,0.259,0.007,10.7,6.8,-3,-7.2,-38.2,1,0.577837458,-0.214239937,-0.657673879,-0.433149205
369,928171,1805710,0.937,0.259,0.007,10.7,6.8,-3,-7.2,-38.2,1,0.577837458,-0.214239937,-0.657673879,-0.433149205
370,930409,1805720,0.926,0.268,-0.034,18.4,6.9,-5,-7.2,-38.2,1,0.578112125,-0.213568529,-0.65785699,-0.43284402
371,932333,1805720,0.926,0.268,-0.034,18.4,6.9,-5,-7.2,-38.2,1,0.578112125,-0.213568529,-0.65785699,-0.43284402
372,934618,1805720,0.906,0.272,-0.061,25.7,5.7,-6.9,-7.3,-38.4,0.7,0.578386792,-0.212652974,-0.658223212,-0.432386242
373,936954,1805720,0.883,0.277,-0.08,28.6,4.8,-7.6,-7.3,-38.4,0.7,0.578508866,-0.212134159,-0.65846736,-0.432081057
374,939163,1805730,0.879,0.273,-0.1,30.8,3.6,-8.4,-7.3,-38.4,0.7,0.57863094,-0.211615345,-0.658742027,-0.431775872
375,941810,1805730,0.883,0.273,-0.112,32.2,2.1,-9.2,-6.5,-38.4,1.4,0.578722495,-0.211035493,-0.659047212,-0.431440168
376,944446,1805730,0.86,0.27,-0.135,32.8,0.1,-10.1,-6.5,-38.4,1.4,0.578783532,-0.21048616,-0.659413434,-0.431104465
377,946600,1805730,0.86,0.254,-0.139,32.5,-1.9,-11.2,-6.5,-38.4,1.4,0.578783532,-0.209936827,-0.659779656,-0.430768761
378,949387,1805740,0.86,0.246,-0.143,30.9,-3.9,-12.2,-6.5,-38.4,1.4,0.578753014,-0.209387494,-0.660176397,-0.430433058
379,951926,1805740,0.86,0.235,-0.147,27.8,-5.7,-13.3,-6.8,-38.2,1.8,0.578691977,-0.208899197,-0.660573138,-0.430158391
380,954125,1805740,0.864,0.195,-0.148,23,-7.3,-14.5,-6.8,-38.2,1.8,0.578539384,-0.208471938,-0.660969878,-0.430005799
381,956687,1805740,0.864,0.168,-0.144,16.6,-8.6,-16,-6.8,-38.2,1.8,0.578356273,-0.208105716,-0.661305582,-0.429914243
382,958984,1805750,0.875,0.148,-0.144,9.1,-10,-17.6,-6.8,-38.2,1.8,0.578081606,-0.20783105,-0.661580248,-0.42997528
383,963484,1805750,0.907,0.097,-0.142,1.3,-11.4,-19.2,-6.7,-38.3,1.8,0.577745903,-0.207647938,-0.661824396,-0.430127873
384,963870,1805750,0.914,0.069,-0.138,-5.9,-13.1,-20.6,-6.7,-38.3,1.8,0.577318644,-0.207556383,-0.662038026,-0.430433058
385,966294,1805750,0.93,0.041,-0.139,-12.3,-14.9,-21.8,-6.7,-38.3,1.8,0.576830348,-0.207525864,-0.662221137,-0.430829798
386,970904,1805760,0.938,0.022,-0.131,-17.3,-16.7,-22.4,-6.7,-38.3,1.8,0.576311533,-0.207586901,-0.66237373,-0.431257057
387,973175,1805760,0.938,0.022,-0.131,-17.3,-16.7,-22.4,-6.7,-38.3,1.8,0.576311533,-0.207586901,-0.66237373,-0.431257057
388,975281,1805760,0.981,-0.049,-0.125,-23.3,-20.2,-21.2,-6.3,-38.7,1.5,0.57515183,-0.207861568,-0.662617878,-0.432294687
389,977612,1805760,0.997,-0.068,-0.126,-25,-21.6,-19.6,-6.3,-38.7,1.5,0.574541459,-0.208105716,-0.662739952,-0.432782983
390,979581,1805770,0.997,-0.068,-0.126,-25,-21.6,-19.6,-6.3,-38.7,1.5,0.574541459,-0.208105716,-0.662739952,-0.432782983
391,981843,1805770,1.04,-0.12,-0.123,-26.8,-23.5,-14.9,-6.1,-38.7,1.4,0.573320719,-0.208746605,-0.6629841,-0.433759575
392,984074,1805770,1.043,-0.132,-0.12,-26.9,-23.9,-11.9,-6.1,-38.7,1.4,0.572740867,-0.209143345,-0.663075655,-0.434186834
393,986505,1805770,1.043,-0.132,-0.12,-26.9,-23.9,-11.9,-6.1,-38.7,1.4,0.572740867,-0.209143345,-0.663075655,-0.434186834
394,988739,1805780,1.059,-0.148,-0.12,-24.4,-24,-5.1,-6.1,-38.7,1.4,0.57167272,-0.210028382,-0.663258766,-0.434858242
395,992925,1805780,1.059,-0.148,-0.124,-21.2,-24.1,-1.5,-6.4,-38.7,1.1,0.571214942,-0.21048616,-0.663350322,-0.43510239
396,995258,1805780,1.059,-0.148,-0.124,-21.2,-24.1,-1.5,-6.4,-38.7,1.1,0.571214942,-0.21048616,-0.663350322,-0.43510239
397,997183,1805780,1.059,-0.148,-0.124,-21.2,-24.1,-1.5,-6.4,-38.7,1.1,0.571214942,-0.21048616,-0.663350322,-0.43510239
398,999420,1805790,1.047,-0.108,-0.135,-3,-23.6,10.1,-6.4,-38.7,1.1,0.570207831,-0.211828974,-0.663899655,-0.434949797
399,1001703,1805790,1.044,-0.104,-0.143,5.3,-22.7,13.6,-5.8,-38.7,1.7,0.57002472,-0.212134159,-0.664143803,-0.434614093
400,1004307,1805790,1.032,-0.088,-0.15,14.5,-21.1,16.5,-5.8,-38.7,1.7,0.569963683,-0.212439344,-0.664479507,-0.43406476
401,1006635,1805790,1.032,-0.088,-0.15,14.5,-21.1,16.5,-5.8,-38.7,1.7,0.569963683,-0.212439344,-0.664479507,-0.43406476
402,1008779,1805800,1.004,-0.048,-0.157,34,-16.2,19.7,-5.8,-38.7,1.7,0.570085757,-0.212591937,-0.665303507,-0.432599872
403,1013325,1805800,0.993,-0.021,-0.168,52.7,-10.2,18.9,-6.4,-38,1.7,0.570421461,-0.212775048,-0.665944395,-0.431073946
404,1015601,1805800,0.989,-0.013,-0.172,52.7,-10.2,18.9,-6.4,-38,1.7,0.570696127,-0.212500381,-0.66646321,-0.430036317
405,1017715,1805800,0.989,-0.013,-0.172,52.7,-10.2,18.9,-6.4,-38,1.7,0.570696127,-0.212500381,-0.66646321,-0.430036317
406,1020057,1805810,0.981,0.006,-0.183,67.3,-4.1,15.8,-6.4,-38,1.7,0.571428571,-0.211493271,-0.667653432,-0.42771691
407,1022098,1805810,0.981,0.006,-0.183,67.3,-4.1,15.8,-6.4,-38,1.7,0.571428571,-0.211493271,-0.667653432,-0.42771691
408,1024205,1805810,0.969,0.018,-0.191,77.1,0.5,12.1,-6.4,-38.3,1.9,0.572344127,-0.209997864,-0.668935209,-0.425183874
409,1026661,1805810,0.969,0.018,-0.191,77.1,0.5,12.1,-6.4,-38.3,1.9,0.572344127,-0.209997864,-0.668935209,-0.425183874
410,1029017,1805820,0.969,0.022,-0.195,83.2,3.4,9.3,-6.4,-38.3,1.9,0.573351238,-0.208197272,-0.670278024,-0.422559282
411,1031244,1805820,0.969,0.022,-0.195,83.2,3.4,9.3,-6.4,-38.3,1.9,0.573351238,-0.208197272,-0.670278024,-0.422559282
412,1035835,1805820,0.969,0.018,-0.199,87.7,5.1,7.9,-5.9,-38.1,2.2,0.574419385,-0.20618305,-0.671681875,-0.419873653
413,1038046,1805820,0.973,0.026,-0.202,90.2,5.7,7.7,-5.9,-38.1,2.2,0.574999237,-0.205114902,-0.672414319,-0.418439283
414,1040158,1805830,0.973,0.026,-0.202,90.2,5.7,7.7,-5.9,-38.1,2.2,0.574999237,-0.205114902,-0.672414319,-0.418439283
415,1042267,1805830,0.977,0.038,-0.214,96,6.7,8.1,-6.5,-38.2,2.4,0.57615894,-0.202856532,-0.673909726,-0.415540025
416,1044425,1805830,0.977,0.038,-0.214,96,6.7,8.1,-6.5,-38.2,2.4,0.57615894,-0.202856532,-0.673909726,-0.415540025
417,1046509,1805830,0.993,0.046,-0.207,102.2,8.2,9.4,-6.5,-38.2,2.4,0.577440718,-0.200415052,-0.675435652,-0.412427137
418,1050769,1805840,0.993,0.046,-0.207,102.2,8.2,9.4,-6.5,-38.2,2.4,0.577440718,-0.200415052,-0.675435652,-0.412427137
419,1053107,1805840,1.009,0.061,-0.214,109,9.7,11.7,-6.5,-38.4,2.6,0.578844569,-0.197912534,-0.677022614,-0.409070101
420,1055308,1805840,1.012,0.069,-0.214,112.1,10.3,12.9,-6.5,-38.4,2.6,0.579607532,-0.19656972,-0.677846614,-0.407300027
421,1056991,1805840,1.02,0.077,-0.218,115,11,13.9,-6.5,-38.4,2.6,0.580370495,-0.195226905,-0.678670614,-0.405468917
422,1059000,1805850,1.032,0.088,-0.215,117.6,11.5,14.9,-6.5,-38.4,2.6,0.581194494,-0.193853572,-0.679494613,-0.403576769
423,1063011,1805850,1.032,0.088,-0.215,117.6,11.5,14.9,-6.5,-38.4,2.6,0.581194494,-0.193853572,-0.679494613,-0.403576769
424,1065247,1805850,1.032,0.088,-0.215,117.6,11.5,14.9,-6.5,-38.4,2.6,0.581194494,-0.193853572,-0.679494613,-0.403576769
425,1066997,1805850,1.032,0.104,-0.218,123.8,13.1,17.5,-6.6,-37,4.3,0.583605457,-0.190588092,-0.682485427,-0.396557512
426,1069234,1805860,1.02,0.12,-0.226,125.2,13.6,18.4,-6.6,-37,4.3,0.584490493,-0.189153722,-0.683309427,-0.394512772
427,1071565,1805860,1.024,0.124,-0.222,126.5,14,19.4,-6.7,-37.9,4.6,0.58537553,-0.187688833,-0.684133427,-0.392406995
428,1073886,1805860,1.024,0.124,-0.222,126.5,14,19.4,-6.7,-37.9,4.6,0.58537553,-0.187688833,-0.684133427,-0.392406995
429,1077956,1805860,1.009,0.136,-0.237,128.6,14.5,20.7,-6.7,-37.9,4.6,0.587206641,-0.184789575,-0.685781426,-0.388195441
430,1079580,1805870,1.005,0.132,-0.241,130,14.8,21,-6.7,-37.9,4.6,0.588122196,-0.183294168,-0.686605426,-0.386028626
431,1082039,1805870,0.997,0.14,-0.245,131.7,15.1,21.4,-6.9,-37.7,5.6,0.58906827,-0.181798761,-0.687429426,-0.383831294
432,1084341,1805870,0.993,0.14,-0.252,133.8,15.5,21.8,-6.9,-37.7,5.6,0.590014344,-0.180272835,-0.688253426,-0.381603442
433,1086455,1805870,0.989,0.148,-0.26,136.2,16.2,22.2,-6.9,-37.7,5.6,0.590960417,-0.178716391,-0.689107944,-0.379345073
434,1089024,1805880,0.981,0.145,-0.256,139.2,17,22.7,-6.9,-37.7,5.6,0.591967528,-0.177129429,-0.689931944,-0.377025666
435,1093573,1805880,0.985,0.141,-0.264,142.3,17.9,23,-7.2,-37.4,5.9,0.592974639,-0.175481429,-0.690786462,-0.374645222
436,1093858,1805880,0.989,0.145,-0.276,145.5,18.6,23.1,-7.2,-37.4,5.9,0.59398175,-0.173802911,-0.69164098,-0.37223426
437,1097158,1805880,0.989,0.145,-0.272,148.7,19.4,23.1,-7.2,-37.4,5.9,0.595019379,-0.172063356,-0.692495499,-0.369762261
438,1099437,1805890,0.989,0.145,-0.272,151.9,20.2,23.1,-7.2,-37.4,5.9,0.596087527,-0.170293283,-0.693380535,-0.367229225
439,1101415,1805890,0.989,0.145,-0.284,155,20.8,23.1,-7.3,-37.4,6.9,0.597155675,-0.168431654,-0.694265572,-0.36466567
440,1105498,1805890,0.997,0.145,-0.291,158.1,21.4,23.3,-7.3,-37.4,6.9,0.598254341,-0.166570025,-0.695150609,-0.362041078
441,1107683,1805890,0.997,0.133,-0.296,160.9,21.8,23.6,-7.3,-37.4,6.9,0.599353008,-0.164647359,-0.696035646,-0.359355449
442,1109614,1805900,1.005,0.133,-0.292,163.4,22.1,23.9,-7.3,-37.4,6.9,0.600451674,-0.162694174,-0.696951201,-0.356639302
443,1111698,1805900,1.009,0.137,-0.304,167.1,22.5,25,-7.8,-35.5,8.5,0.600634785,-0.162083804,-0.699240089,-0.352092044
444,1114398,1805900,1.009,0.137,-0.311,167.1,22.5,25,-7.8,-35.5,8.5,0.60176397,-0.160100101,-0.700125126,-0.349284341
445,1117057,1805900,1.009,0.137,-0.311,167.1,22.5,25,-7.8,-35.5,8.5,0.60176397,-0.160100101,-0.700125126,-0.349284341
446,1119246,1805910,1.021,0.133,-0.308,169.8,22.7,25.9,-7.8,-35.5,8.5,0.60402234,-0.156102176,-0.701925718,-0.34357738
447,1121687,1805910,1.021,0.133,-0.316,171,22.7,26.4,-7.9,-36.5,8,0.605151524,-0.154057436,-0.702810755,-0.340678121
448,1123740,1805910,1.025,0.137,-0.319,171.9,22.6,27.1,-7.9,-36.5,8,0.606280709,-0.152043214,-0.703695791,-0.337778863
449,1128296,1805910,1.025,0.133,-0.331,172.7,22.5,28.2,-7.9,-36.5,8,0.607379376,-0.150028993,-0.70455031,-0.334818567
450,1130248,1805920,1.025,0.133,-0.327,173.4,22.4,29.4,-7.9,-36.5,8,0.60850856,-0.148014771,-0.705435347,-0.331827754
451,1132610,1805920,1.028,0.145,-0.339,174.1,22.3,30.8,-7.4,-35.4,9.1,0.609637745,-0.146031068,-0.706289865,-0.328806421
452,1134561,1805920,1.032,0.149,-0.347,174.9,22.2,32.1,-7.4,-35.4,9.1,0.61076693,-0.144016846,-0.707144383,-0.32575457
453,1136811,1805920,1.032,0.149,-0.347,174.9,22.2,32.1,-7.4,-35.4,9.1,0.61076693,-0.144016846,-0.707144383,-0.32575457
454,1138983,1805930,1.04,0.165,-0.366,177.2,22.4,34.4,-7.4,-35.4,9.1,0.6130253,-0.14004944,-0.708822901,-0.319528794
455,1141367,1805930,1.044,0.181,-0.37,178.6,22.7,35.7,-8.2,-35.1,9.6,0.614185003,-0.138035218,-0.709646901,-0.316354869
456,1145799,1805930,1.04,0.193,-0.374,180,23.2,36.8,-8.2,-35.1,9.6,0.615314188,-0.136051515,-0.710470901,-0.313150426
457,1147745,1805930,1.044,0.197,-0.378,181.5,23.9,38,-8.2,-35.1,9.6,0.616473891,-0.134006775,-0.711264382,-0.309884945
458,1149611,1805940,1.04,0.224,-0.389,182.9,24.5,39,-8.2,-35.1,9.6,0.617664113,-0.131992553,-0.712057863,-0.306588946
459,1151527,1805940,1.044,0.224,-0.401,184.3,25.2,39.8,-8.4,-35,10.6,0.618854335,-0.129978332,-0.712820826,-0.303262429
460,1154179,1805940,1.048,0.24,-0.409,185.7,25.8,40.5,-8.4,-35,10.6,0.620044557,-0.127933592,-0.713583789,-0.299905393
461,1156238,1805940,1.04,0.248,-0.412,187,26.4,40.9,-8.4,-35,10.6,0.621234779,-0.125858333,-0.714316233,-0.296517838
462,1160863,1805950,1.037,0.264,-0.416,188.5,27.1,41.1,-8.4,-35,10.6,0.622425001,-0.123752556,-0.715048677,-0.293069246
463,1161236,1805950,1.037,0.272,-0.42,191.6,28.7,40.3,-8.9,-33.2,13.4,0.623645741,-0.12161626,-0.715781121,-0.289620655
464,1165911,1805950,1.033,0.276,-0.428,191.6,28.7,40.3,-8.9,-33.2,13.4,0.624866482,-0.119449446,-0.716483047,-0.286141545
465,1166316,1805950,1.029,0.296,-0.431,193.1,29.7,39.5,-8.9,-33.2,13.4,0.626056703,-0.117252113,-0.717184973,-0.282662435
466,1168823,1805960,1.025,0.296,-0.447,194.8,30.6,38.7,-8.9,-33.2,13.4,0.627277444,-0.114993744,-0.71785638,-0.279152806
467,1173162,1805960,1.025,0.296,-0.447,194.8,30.6,38.7,-8.9,-33.2,13.4,0.627277444,-0.114993744,-0.71785638,-0.279152806
468,1175246,1805960,1.013,0.32,-0.45,198.4,32.8,37.2,-9.1,-33.3,12.6,0.629718925,-0.110385449,-0.719168676,-0.27210303
469,1177359,1805960,1.013,0.324,-0.45,200.3,34,36.5,-9.1,-33.3,12.6,0.630939665,-0.108005005,-0.719779046,-0.268532365
470,1179325,1805970,1.005,0.332,-0.446,202,35.2,35.9,-9.1,-33.3,12.6,0.632190924,-0.105563524,-0.720389416,-0.264931181
471,1181398,1805970,1.009,0.339,-0.446,203.7,36.4,35.3,-10,-32.8,13.4,0.633411664,-0.103091525,-0.720969268,-0.261329997
472,1183887,1805970,0.994,0.347,-0.446,205.1,37.5,34.8,-10,-32.8,13.4,0.634662923,-0.100589007,-0.72154912,-0.257698294
473,1188485,1805970,0.994,0.347,-0.446,205.1,37.5,34.8,-10,-32.8,13.4,0.634662923,-0.100589007,-0.72154912,-0.257698294
474,1188816,1805980,0.986,0.359,-0.445,206.9,39.4,33.8,-10,-32.8,13.4,0.637165441,-0.0954924162,-0.722586749,-0.25040437
475,1192738,1805980,0.99,0.367,-0.441,207.4,40,33.3,-10.1,-32.3,14.3,0.638386181,-0.0929288614,-0.723105564,-0.246772668
476,1194724,1805980,0.974,0.371,-0.429,207.7,40.5,32.7,-10.1,-32.3,14.3,0.63963744,-0.090334788,-0.72359386,-0.243110446
477,1196940,1805980,0.97,0.371,-0.425,207.7,40.8,32.3,-10.1,-32.3,14.3,0.64085818,-0.0877407147,-0.724051637,-0.239448225
478,1199092,1805990,0.97,0.371,-0.425,207.7,40.8,32.3,-10.1,-32.3,14.3,0.64085818,-0.0877407147,-0.724051637,-0.239448225
479,1201699,1805990,0.95,0.387,-0.417,206.7,40.8,31.9,-10.2,-31.3,15.4,0.643238624,-0.0825220496,-0.724906156,-0.232154302
480,1204032,1805990,0.947,0.387,-0.409,206,40.7,31.9,-10.2,-31.3,15.4,0.644398328,-0.0799279763,-0.725302896,-0.228522599
481,1208496,1805990,0.943,0.383,-0.409,205.3,40.2,32,-10.2,-31.3,15.4,0.645558031,-0.077333903,-0.725699637,-0.224890896
482,1210440,1806000,0.939,0.391,-0.405,204.7,39.5,32.1,-10.2,-31.3,15.4,0.646687216,-0.0747703482,-0.726096377,-0.221259194
483,1212182,1806000,0.939,0.398,-0.393,203.8,37.5,31.3,-10.6,-29.8,18.2,0.647755364,-0.0722067934,-0.726493118,-0.21765801
484,1214520,1806000,0.927,0.394,-0.393,203.8,37.5,31.3,-10.6,-29.8,18.2,0.648792993,-0.0696432386,-0.72685934,-0.214026307
485,1216649,1806000,0.931,0.394,-0.389,203.4,36.7,31,-10.6,-29.8,18.2,0.649830622,-0.0670796838,-0.727256081,-0.210425123
486,1219286,1806010,0.927,0.394,-0.393,203.1,36.1,30.7,-10.6,-29.8,18.2,0.650837733,-0.064516129,-0.727622303,-0.206823939
487,1223163,1806010,0.927,0.398,-0.377,202.5,35.9,30.4,-10.8,-29.7,16.6,0.651814325,-0.0619830927,-0.727958007,-0.203222755
488,1225491,1806010,0.927,0.402,-0.381,201.8,35.7,30.2,-10.8,-29.7,16.6,0.652790918,-0.0594195379,-0.72829371,-0.19962157
489,1227641,1806010,0.919,0.402,-0.377,200.9,35.5,30,-10.8,-29.7,16.6,0.653736991,-0.0568865017,-0.728629414,-0.196050905
490,1229544,1806020,0.915,0.402,-0.373,199.9,35.4,29.8,-10.8,-29.7,16.6,0.654683065,-0.0543534654,-0.728934599,-0.192480239
491,1231473,1806020,0.919,0.402,-0.377,198.6,35.2,29.5,-11.1,-28.8,17.6,0.655598621,-0.0518509476,-0.729209265,-0.188940092
492,1233757,1806020,0.927,0.402,-0.377,197,35.3,29,-11.1,-28.8,17.6,0.656483657,-0.0493484298,-0.729483932,-0.185430464
493,1238205,1806020,0.923,0.394,-0.385,195.4,35.5,28.3,-11.1,-28.8,17.6,0.657368694,-0.046845912,-0.72972808,-0.181951353
494,1240173,1806030,0.931,0.394,-0.381,193.9,35.9,27.3,-11.1,-28.8,17.6,0.658253731,-0.0443433943,-0.72994171,-0.178502762
495,1242030,1806030,0.939,0.394,-0.389,192.3,36.6,26.1,-11.6,-28.2,18.1,0.659108249,-0.041871395,-0.730124821,-0.175115207
496,1243993,1806030,0.943,0.39,-0.385,190.8,37.5,24.8,-11.6,-28.2,18.1,0.659962767,-0.0393383587,-0.730307932,-0.171727653
497,1246553,1806030,0.943,0.39,-0.385,190.8,37.5,24.8,-11.6,-28.2,18.1,0.659962767,-0.0393383587,-0.730307932,-0.171727653
498,1248787,1806040,0.966,0.386,-0.394,188,39.7,22.1,-11.6,-28.2,18.1,0.661702322,-0.0343638417,-0.730521561,-0.165135655
499,1252894,1806040,0.966,0.386,-0.394,188,39.7,22.1,-11.6,-28.2,18.1,0.661702322,-0.0343638417,-0.730521561,-0.165135655
500,1254530,1806040,0.986,0.374,-0.398,184.5,42.3,19.4,-11.6,-27.4,19.2,0.663441877,-0.0293588061,-0.730582598,-0.158696249
501,1256882,1806040,0.986,0.374,-0.398,184.5,42.3,19.4,-11.6,-27.4,19.2,0.663441877,-0.0293588061,-0.730582598,-0.158696249
502,1259061,1806050,0.986,0.374,-0.398,184.5,42.3,19.4,-11.6,-27.4,19.2,0.663441877,-0.0293588061,-0.730582598,-0.158696249
503,1262782,1806050,1.021,0.37,-0.403,176.7,46.9,18,-12.1,-25.6,22.1,0.666066469,-0.0219428083,-0.730399487,-0.149388104
504,1264520,1806050,1.032,0.37,-0.399,176.7,46.9,18,-12.1,-25.6,22.1,0.666982025,-0.0195013276,-0.730277413,-0.146336253
505,1266851,1806050,1.036,0.374,-0.403,173.7,47.5,18.8,-12.1,-25.6,22.1,0.667867061,-0.0170903653,-0.730124821,-0.14331492
506,1269093,1806060,1.044,0.377,-0.399,172.6,47,19,-12.1,-25.6,22.1,0.66872158,-0.0147709586,-0.729972228,-0.140293588
507,1272846,1806060,1.06,0.373,-0.396,171.6,46,18.9,-12.1,-25.6,20.6,0.669576098,-0.0124210334,-0.729819636,-0.137302774
508,1274560,1806060,1.068,0.373,-0.396,170.8,44.2,18.4,-12.1,-25.6,20.6,0.670369579,-0.0100711081,-0.729667043,-0.13431196
509,1276992,1806060,1.068,0.373,-0.396,170.8,44.2,18.4,-12.1,-25.6,20.6,0.670369579,-0.0100711081,-0.729667043,-0.13431196
510,1279119,1806070,1.068,0.373,-0.396,170.8,44.2,18.4,-12.1,-25.6,20.6,0.670369579,-0.0100711081,-0.729667043,-0.13431196
511,1282916,1806070,1.114,0.392,-0.4,169.3,35.2,13.3,-12.6,-25.2,20.8,0.672414319,-0.00302133244,-0.729422895,-0.125553148
512,1284650,1806070,1.118,0.396,-0.412,169.3,32,10.6,-12.6,-25.2,20.8,0.672963652,-0.000640888699,-0.729392376,-0.122714927
513,1286953,1806070,1.118,0.396,-0.412,169.3,32,10.6,-12.6,-25.2,20.8,0.672963652,-0.000640888699,-0.729392376,-0.122714927
514,1289117,1806080,1.134,0.408,-0.42,169.4,26.7,4.5,-12.6,-25.2,20.8,0.673879208,0.00427259133,-0.729453413,-0.117130039
515,1292940,1806080,1.158,0.416,-0.448,168.9,24.8,1.2,-12.3,-24.3,21.5,0.67424543,0.00680562761,-0.729514451,-0.114413892
516,1294659,1806080,1.173,0.432,-0.467,167.8,23.6,-1.7,-12.3,-24.3,21.5,0.674581133,0.0093386639,-0.729606006,-0.111758782
517,1297111,1806080,1.173,0.432,-0.467,167.8,23.6,-1.7,-12.3,-24.3,21.5,0.674581133,0.0093386639,-0.729606006,-0.111758782
518,1299219,1806090,1.173,0.432,-0.467,167.8,23.6,-1.7,-12.3,-24.3,21.5,0.674581133,0.0093386639,-0.729606006,-0.111758782
519,1301690,1806090,1.173,0.432,-0.467,167.8,23.6,-1.7,-12.3,-24.3,21.5,0.674581133,0.0093386639,-0.729606006,-0.111758782
520,1303937,1806090,1.173,0.432,-0.467,167.8,23.6,-1.7,-12.3,-24.3,21.5,0.674581133,0.0093386639,-0.729606006,-0.111758782
521,1307721,1806090,1.173,0.432,-0.467,167.8,23.6,-1.7,-12.3,-24.3,21.5,0.674581133,0.0093386639,-0.729606006,-0.111758782
522,1309978,1806100,1.173,0.432,-0.467,167.8,23.6,-1.7,-12.3,-24.3,21.5,0.674581133,0.0093386639,-0.729606006,-0.111758782
523,1311750,1806100,1.173,0.432,-0.467,167.8,23.6,-1.7,-12.3,-24.3,21.5,0.674581133,0.0093386639,-0.729606006,-0.111758782
524,1314169,1806100,1.173,0.432,-0.467,167.8,23.6,-1.7,-12.3,-24.3,21.5,0.674581133,0.0093386639,-0.729606006,-0.111758782
525,1316463,1806100,1.173,0.432,-0.467,167.8,23.6,-1.7,-12.3,-24.3,21.5,0.674581133,0.0093386639,-0.729606006,-0.111758782
526,1320635,1806110,1.173,0.432,-0.467,167.8,23.6,-1.7,-12.3,-24.3,21.5,0.674581133,0.0093386639,-0.729606006,-0.111758782
527,1322868,1806110,1.173,0.432,-0.467,167.8,23.6,-1.7,-12.3,-24.3,21.5,0.674581133,0.0093386639,-0.729606006,-0.111758782
528,1324569,1806110,1.173,0.432,-0.467,167.8,23.6,-1.7,-12.3,-24.3,21.5,0.674581133,0.0093386639,-0.729606006,-0.111758782
529,1326868,1806110,1.173,0.432,-0.467,167.8,23.6,-1.7,-12.3,-24.3,21.5,0.674581133,0.0093386639,-0.729606006,-0.111758782
530,1329099,1806120,1.087,0.053,0.542,115.1,74.3,-16.8,-12.6,-22.7,22.6,0.682729575,0.0426953948,-0.724784082,-0.0819116794
531,1332604,1806120,1.122,0.044,0.593,121.5,85.9,-13.5,-12.8,-21.9,23.2,0.683950316,0.0448927274,-0.723685415,-0.0801110874
532,1334710,1806120,1.122,0.044,0.593,121.5,85.9,-13.5,-12.8,-21.9,23.2,0.683950316,0.0448927274,-0.723685415,-0.0801110874
533,1336894,1806120,1.138,-0.086,0.685,162,121,-5.1,-12.8,-21.9,23.2,0.687124241,0.0499588,-0.720847194,-0.0753807184
534,1339126,1806130,1.157,-0.083,0.716,199,144.5,-2,-12.8,-21.9,23.2,0.689168981,0.0532242805,-0.719016083,-0.0721457564
535,1341439,1806130,1.185,-0.106,0.656,247.4,171,-0.6,-13.7,-20.7,23.7,0.691549425,0.0572222053,-0.716818751,-0.0680562761
536,1343747,1806130,1.185,-0.106,0.656,247.4,171,-0.6,-13.7,-20.7,23.7,0.691549425,0.0572222053,-0.716818751,-0.0680562761
537,1347962,1806130,0.92,0.001,0.502,373.4,227.7,1.2,-13.7,-20.7,23.7,0.697256386,0.0680562761,-0.711264382,-0.0568865017
538,1350159,1806140,0.853,0.089,0.402,449,253.9,3.1,-13.7,-20.7,23.7,0.700491348,0.0751670888,-0.707907346,-0.0494705039
539,1352755,1806140,0.584,0.455,0.341,532.1,276.3,5.4,-14.2,-19.3,24.3,0.703848384,0.0834986419,-0.704214606,-0.0407116916
540,1354479,1806140,0.412,0.654,0.28,619.9,293.8,8.7,-14.2,-19.3,24.3,0.707144383,0.0931424909,-0.700186163,-0.0305185095
541,1356662,1806140,0.291,0.926,0.254,709,305.9,13.5,-14.2,-19.3,24.3,0.71028779,0.104068117,-0.695883053,-0.0188604389
542,1359228,1806150,0.259,1.241,0.219,793.5,312.9,19.1,-14.2,-19.3,24.3,0.713126011,0.116183966,-0.691274758,-0.0057985168
543,1361253,1806150,0.239,1.871,0.372,867.2,316.8,23.9,-15.9,-15.8,27,0.715567492,0.129337443,-0.686391797,0.00842310862
544,1365189,1806150,0.253,2.179,0.481,922.9,321.8,24.7,-15.9,-15.8,27,0.717612232,0.143284402,-0.681081576,0.0235297708
545,1367327,1806150,0.354,2.569,0.617,952.3,331.9,18.7,-15.9,-15.8,27,0.719382305,0.157689138,-0.675313578,0.0390026551
546,1369492,1806160,0.243,3.01,0.84,948.4,348.9,3.6,-15.9,-15.8,27,0.721091342,0.17218543,-0.668874172,0.0542313913
547,1371781,1806160,0.308,3.641,1.136,906,369.1,-20.3,-16.4,-12.4,26.4,0.722922452,0.186254463,-0.661763359,0.0685140538
548,1373997,1806160,0.308,3.641,1.136,906,369.1,-20.3,-16.4,-12.4,26.4,0.722922452,0.186254463,-0.661763359,0.0685140538
549,1376241,1806160,-0.177,3.745,1.377,712.9,395.3,-79.6,-16.4,-12.4,26.4,0.727652821,0.211066012,-0.646137883,0.091830195
550,1380907,1806170,-0.168,3.236,1.273,575.3,392.5,-102.7,-16.4,-12.4,26.4,0.730643635,0.220862453,-0.63820307,0.100100711
551,1382791,1806170,-0.022,2.782,1.073,415.5,376,-114.1,-18.2,-8.9,25.9,0.734092227,0.228217414,-0.630695517,0.105868709
552,1384572,1806170,0.044,2.348,0.906,235,344.7,-111.5,-18.2,-8.9,25.9,0.737876522,0.232703635,-0.624042482,0.109042634
553,1386792,1806170,0.044,2.348,0.906,235,344.7,-111.5,-18.2,-8.9,25.9,0.737876522,0.232703635,-0.624042482,0.109042634
554,1389251,1806180,0.321,1.387,0.431,-150.1,247.8,-71.5,-18.2,-8.9,25.9,0.746238594,0.231910154,-0.614581744,0.107638783
555,1391588,1806180,0.357,1.121,0.29,-324.6,188.2,-44.8,-19.4,-8.4,24.8,0.750480667,0.226783044,-0.612018189,0.103518784
556,1395308,1806180,0.357,1.121,0.29,-324.6,188.2,-44.8,-19.4,-8.4,24.8,0.750480667,0.226783044,-0.612018189,0.103518784
557,1397547,1806180,0.507,0.461,-0.013,-588,56.3,-5.2,-19.4,-8.4,24.8,0.75798822,0.209295938,-0.611163671,0.0898159734
558,1399639,1806190,0.66,0.268,-0.088,-673.4,-11.4,1.1,-19.4,-8.4,24.8,0.760826441,0.198126164,-0.612628559,0.0807824946
559,1401938,1806190,0.782,0.141,-0.143,-729.7,-77.3,-1.3,-20.2,-10.3,24.5,0.762871181,0.186162908,-0.615100558,0.0706808679
560,1403860,1806190,0.782,0.141,-0.143,-729.7,-77.3,-1.3,-20.2,-10.3,24.5,0.762871181,0.186162908,-0.615100558,0.0706808679
561,1407693,1806190,0.782,0.141,-0.143,-729.7,-77.3,-1.3,-20.2,-10.3,24.5,0.762871181,0.186162908,-0.615100558,0.0706808679
562,1409637,1806200,0.782,0.141,-0.143,-729.7,-77.3,-1.3,-20.2,-10.3,24.5,0.762871181,0.186162908,-0.615100558,0.0706808679
563,1411869,1806200,0.782,0.141,-0.143,-729.7,-77.3,-1.3,-20.2,-10.3,24.5,0.762871181,0.186162908,-0.615100558,0.0706808679
564,1413856,1806200,0.782,0.141,-0.143,-729.7,-77.3,-1.3,-20.2,-10.3,24.5,0.762871181,0.186162908,-0.615100558,0.0706808679
565,1417853,1806200,1.364,-0.326,-0.026,-588.1,-316.4,3.3,-19.7,-13.5,25,0.756797998,0.117954039,-0.642841884,0.00744651631
566,1420142,1806210,1.367,-0.3,0.107,-521.2,-321.2,14.1,-19.7,-13.5,25,0.753563036,0.109195227,-0.648213141,-0.000427259133
567,1422140,1806210,1.367,-0.3,0.107,-521.2,-321.2,14.1,-19.7,-13.5,25,0.753563036,0.109195227,-0.648213141,-0.000427259133
568,1424138,1806210,1.367,-0.3,0.107,-521.2,-321.2,14.1,-19.7,-13.5,25,0.753563036,0.109195227,-0.648213141,-0.000427259133
569,1426468,1806210,1.37,-0.169,0.261,-364.3,-296.3,23.2,-19.1,-16.3,23.8,0.743003632,0.0878933073,-0.663167211,-0.0187688833
570,1428724,1806220,1.37,-0.169,0.261,-364.3,-296.3,23.2,-19.1,-16.3,23.8,0.743003632,0.0878933073,-0.663167211,-0.0187688833
571,1433249,1806220,1.37,-0.169,0.261,-364.3,-296.3,23.2,-19.1,-16.3,23.8,0.743003632,0.0878933073,-0.663167211,-0.0187688833
572,1435439,1806220,1.327,-0.093,0.192,-310.6,-240,-36,-18.1,-17.9,23.5,0.73320719,0.072359386,-0.675222022,-0.0348216193
573,1437647,1806220,1.327,-0.093,0.192,-310.6,-240,-36,-18.1,-17.9,23.5,0.73320719,0.072359386,-0.675222022,-0.0348216193
574,1439676,1806230,1.296,-0.087,0.095,-296.4,-177.7,-95.1,-18.1,-17.9,23.5,0.728202155,0.0648518326,-0.680623798,-0.046845912
575,1441967,1806230,1.296,-0.087,0.095,-296.4,-177.7,-95.1,-18.1,-17.9,23.5,0.728202155,0.0648518326,-0.680623798,-0.046845912
576,1444360,1806230,1.296,-0.087,0.095,-296.4,-177.7,-95.1,-18.1,-17.9,23.5,0.728202155,0.0648518326,-0.680623798,-0.046845912
577,1446402,1806230,1.296,-0.087,0.095,-296.4,-177.7,-95.1,-18.1,-17.9,23.5,0.728202155,0.0648518326,-0.680623798,-0.046845912
578,1450432,1806240,1.296,-0.087,0.095,-296.4,-177.7,-95.1,-18.1,-17.9,23.5,0.728202155,0.0648518326,-0.680623798,-0.046845912
579,1452736,1806240,1.296,-0.087,0.095,-296.4,-177.7,-95.1,-18.1,-17.9,23.5,0.728202155,0.0648518326,-0.680623798,-0.046845912
580,1454550,1806240,1.296,-0.087,0.095,-296.4,-177.7,-95.1,-18.1,-17.9,23.5,0.728202155,0.0648518326,-0.680623798,-0.046845912
581,1456783,1806240,1.349,-0.282,-0.311,-246.6,4.5,-206.6,-15.8,-21.3,22.5,0.722861415,0.053010651,-0.682515946,-0.0938138981
582,1460756,1806250,1.349,-0.282,-0.311,-246.6,4.5,-206.6,-15.8,-21.3,22.5,0.722861415,0.053010651,-0.682515946,-0.0938138981
583,1463032,1806250,1.349,-0.282,-0.311,-246.6,4.5,-206.6,-15.8,-21.3,22.5,0.722861415,0.053010651,-0.682515946,-0.0938138981
584,1464964,1806250,1.349,-0.282,-0.311,-246.6,4.5,-206.6,-15.8,-21.3,22.5,0.722861415,0.053010651,-0.682515946,-0.0938138981
585,1466450,1806250,1.349,-0.282,-0.311,-246.6,4.5,-206.6,-15.8,-21.3,22.5,0.722861415,0.053010651,-0.682515946,-0.0938138981
586,1469407,1806260,1.306,-0.301,-0.342,-264.9,-58.7,-185,-15.3,-22.8,22.7,0.720572527,0.0478530229,-0.679616688,-0.128696554
587,1471668,1806260,1.306,-0.301,-0.342,-264.9,-58.7,-185,-15.3,-22.8,22.7,0.720572527,0.0478530229,-0.679616688,-0.128696554
588,1475301,1806260,1.318,-0.289,-0.349,-270.4,-121.6,-147.4,-15,-24.2,21.3,0.71703238,0.043427839,-0.681051057,-0.141880551
589,1476790,1806260,1.318,-0.289,-0.349,-270.4,-121.6,-147.4,-15,-24.2,21.3,0.71703238,0.043427839,-0.681051057,-0.141880551
590,1479935,1806270,1.318,-0.289,-0.349,-270.4,-121.6,-147.4,-15,-24.2,21.3,0.71703238,0.043427839,-0.681051057,-0.141880551
591,1482021,1806270,1.318,-0.289,-0.349,-270.4,-121.6,-147.4,-15,-24.2,21.3,0.71703238,0.043427839,-0.681051057,-0.141880551
592,1484358,1806270,1.318,-0.289,-0.349,-270.4,-121.6,-147.4,-15,-24.2,21.3,0.71703238,0.043427839,-0.681051057,-0.141880551
593,1486481,1806270,1.142,-0.151,-0.212,-160,-168.8,-24,-13.6,-25.5,20.8,0.704367199,0.0292977691,-0.689901425,-0.164220099
594,1489351,1806280,1.106,-0.109,-0.156,-130.1,-159.1,-6.8,-13.6,-25.5,20.8,0.702047792,0.0268257698,-0.691885128,-0.166386914
595,1492588,1806280,1.106,-0.109,-0.156,-130.1,-159.1,-6.8,-13.6,-25.5,20.8,0.702047792,0.0268257698,-0.691885128,-0.166386914
596,1494828,1806280,0.972,-0.015,0.015,-77.9,-127.1,12.7,-13.1,-26.6,20.2,0.698080386,0.0227973266,-0.695394757,-0.168980987
597,1496759,1806280,0.972,-0.015,0.015,-77.9,-127.1,12.7,-13.1,-26.6,20.2,0.698080386,0.0227973266,-0.695394757,-0.168980987
598,1500015,1806290,0.972,-0.015,0.015,-77.9,-127.1,12.7,-13.1,-26.6,20.2,0.698080386,0.0227973266,-0.695394757,-0.168980987
599,1502123,1806290,0.878,0.093,0.128,-36.3,-69.1,11.9,-12.8,-26.6,19.9,0.694296091,0.0190435499,-0.698904386,-0.170567949
600,1504384,1806290,0.855,0.121,0.121,-33.9,-52.9,6.7,-12.8,-26.6,19.9,0.693502609,0.0182500687,-0.699575793,-0.171025727
601,1506520,1806290,0.859,0.117,0.089,-36.9,-39.3,1,-12.8,-26.6,19.9,0.692922758,0.0175176244,-0.70003357,-0.17157506
602,1509378,1806300,0.859,0.117,0.089,-36.9,-39.3,1,-12.8,-26.6,19.9,0.692922758,0.0175176244,-0.70003357,-0.17157506
603,1511686,1806300,0.859,0.117,0.089,-36.9,-39.3,1,-12.8,-26.6,19.9,0.692922758,0.0175176244,-0.70003357,-0.17157506
604,1513946,1806300,0.879,0.087,-0.016,-62,-10.8,-10.6,-12.5,-27,20.4,0.692037721,0.0152592547,-0.700308237,-0.174382763
605,1516307,1806300,0.879,0.087,-0.016,-62,-10.8,-10.6,-12.5,-27,20.4,0.692037721,0.0152592547,-0.700308237,-0.174382763
606,1519919,1806310,0.902,0.06,-0.076,-73.4,-0.6,-10.1,-12.5,-27,20.4,0.691915647,0.0133976257,-0.699819941,-0.176885281
607,1522003,1806310,0.918,0.034,-0.127,-74.7,1.3,-7.5,-12.4,-27.5,19.9,0.691915647,0.0123905148,-0.699514756,-0.17813654
608,1524243,1806310,0.918,0.034,-0.127,-74.7,1.3,-7.5,-12.4,-27.5,19.9,0.691915647,0.0123905148,-0.699514756,-0.17813654
609,1527520,1806310,0.918,0.014,-0.151,-68.1,0.3,1,-12.4,-27.5,19.9,0.691976684,0.0103152562,-0.698934904,-0.180333872
610,1529152,1806320,0.918,0.014,-0.151,-68.1,0.3,1,-12.4,-27.5,19.9,0.691976684,0.0103152562,-0.698934904,-0.180333872
611,1532439,1806320,0.918,0.054,-0.158,-53.2,-5.9,10.7,-12.2,-28,19.3,0.691946165,0.00830103458,-0.6985992,-0.181829279
612,1534528,1806320,0.918,0.054,-0.158,-53.2,-5.9,10.7,-12.2,-28,19.3,0.691946165,0.00830103458,-0.6985992,-0.181829279
613,1536928,1806320,0.93,0.085,-0.154,-40.2,-17.3,17.2,-12.2,-28,19.3,0.69164098,0.00640888699,-0.698690756,-0.182653279
614,1539040,1806330,0.93,0.085,-0.154,-40.2,-17.3,17.2,-12.2,-28,19.3,0.69164098,0.00640888699,-0.698690756,-0.182653279
615,1542037,1806330,0.93,0.085,-0.154,-40.2,-17.3,17.2,-12.2,-28,19.3,0.69164098,0.00640888699,-0.698690756,-0.182653279
616,1544249,1806330,0.957,0.155,-0.142,-30.2,-33.5,22.5,-12.1,-27.9,19.6,0.690572832,0.00360118412,-0.699606311,-0.183233131
617,1547824,1806330,0.949,0.178,-0.118,-26.5,-35.6,24.1,-12.1,-27.9,19.6,0.690145573,0.00268562883,-0.700064089,-0.183294168
618,1549302,1806340,0.938,0.198,-0.098,-21.7,-36,25.4,-12.1,-27.9,19.6,0.689687796,0.00183111057,-0.700491348,-0.183233131
619,1553315,1806340,0.938,0.198,-0.098,-21.7,-36,25.4,-12.1,-27.9,19.6,0.689687796,0.00183111057,-0.700491348,-0.183233131
620,1553673,1806340,0.937,0.221,-0.066,-11.1,-34.3,25.3,-12.2,-28.1,19.3,0.688833277,0.000335703604,-0.701437422,-0.182897427
621,1557816,1806340,0.933,0.248,-0.046,-6.2,-33,23.1,-12.2,-28.1,19.3,0.688406018,-0.000213629566,-0.701925718,-0.182622761
622,1560071,1806350,0.933,0.248,-0.046,-6.2,-33,23.1,-12.2,-28.1,19.3,0.688406018,-0.000213629566,-0.701925718,-0.182622761
623,1561936,1806350,0.918,0.279,-0.022,0.9,-28.1,14.8,-12,-27.9,19.7,0.687276833,-0.000793481246,-0.70311594,-0.182256539
624,1564233,1806350,0.918,0.279,-0.022,0.9,-28.1,14.8,-12,-27.9,19.7,0.687276833,-0.000793481246,-0.70311594,-0.182256539
625,1566915,1806350,0.894,0.295,-0.014,3.5,-20.6,4.7,-12,-27.9,19.7,0.686635945,-0.00109866634,-0.703817866,-0.181951353
626,1569449,1806360,0.894,0.295,-0.014,3.5,-20.6,4.7,-12,-27.9,19.7,0.686635945,-0.00109866634,-0.703817866,-0.181951353
627,1571556,1806360,0.875,0.315,0.001,4.6,-14,-4.1,-12,-27.9,19.7,0.686147649,-0.00100711081,-0.70433668,-0.181859798
628,1575536,1806360,0.875,0.315,0.001,4.6,-14,-4.1,-12,-27.9,19.7,0.686147649,-0.00100711081,-0.70433668,-0.181859798
629,1577868,1806360,0.851,0.374,0.026,9.3,-11.1,-9.2,-12,-27.9,19.7,0.685720389,-0.00061037019,-0.704733421,-0.181859798
630,1580203,1806370,0.851,0.374,0.026,9.3,-11.1,-9.2,-12,-27.9,19.7,0.685720389,-0.00061037019,-0.704733421,-0.181859798
631,1582664,1806370,0.851,0.374,0.026,9.3,-11.1,-9.2,-12,-27.9,19.7,0.685720389,-0.00061037019,-0.704733421,-0.181859798
632,1584520,1806370,0.851,0.374,0.026,9.3,-11.1,-9.2,-12,-27.9,19.7,0.685720389,-0.00061037019,-0.704733421,-0.181859798
633,1586754,1806370,0.858,0.514,0.055,25.8,-17.1,-3.4,-12.1,-28.1,19.7,0.684743797,0.000732444227,-0.705893124,-0.181096835
634,1590210,1806380,0.851,0.538,0.063,30.3,-19.8,0,-12.1,-28.1,19.7,0.684438612,0.00109866634,-0.706289865,-0.180608539
635,1593080,1806380,0.851,0.538,0.063,30.3,-19.8,0,-12.1,-28.1,19.7,0.684438612,0.00109866634,-0.706289865,-0.180608539
636,1595310,1806380,0.851,0.538,0.063,30.3,-19.8,0,-12.1,-28.1,19.7,0.684438612,0.00109866634,-0.706289865,-0.180608539
637,1597537,1806380,0.851,0.538,0.063,30.3,-19.8,0,-12.1,-28.1,19.7,0.684438612,0.00109866634,-0.706289865,-0.180608539
638,1599598,1806390,0.851,0.538,0.063,30.3,-19.8,0,-12.1,-28.1,19.7,0.684438612,0.00109866634,-0.706289865,-0.180608539
639,1601580,1806390,0.851,0.538,0.063,30.3,-19.8,0,-12.1,-28.1,19.7,0.684438612,0.00109866634,-0.706289865,-0.180608539
640,1605674,1806390,0.858,0.726,0.101,36.4,-38.7,21,-11.8,-27.6,20.3,0.681875057,0.00262459181,-0.710013123,-0.175725578
641,1607900,1806390,0.858,0.726,0.101,36.4,-38.7,21,-11.8,-27.6,20.3,0.681875057,0.00262459181,-0.710013123,-0.175725578
642,1610228,1806400,0.858,0.726,0.101,36.4,-38.7,21,-11.8,-27.6,20.3,0.681875057,0.00262459181,-0.710013123,-0.175725578
643,1611918,1806400,0.858,0.726,0.101,36.4,-38.7,21,-11.8,-27.6,20.3,0.681875057,0.00262459181,-0.710013123,-0.175725578
644,1614378,1806400,0.858,0.726,0.101,36.4,-38.7,21,-11.8,-27.6,20.3,0.681875057,0.00262459181,-0.710013123,-0.175725578
645,1616704,1806400,0.823,0.703,0.077,-8.5,-32.7,11.2,-11.8,-27.4,20,0.679311502,0.00137333293,-0.712973418,-0.1736198
646,1619044,1806410,0.823,0.703,0.077,-8.5,-32.7,11.2,-11.8,-27.4,20,0.679311502,0.00137333293,-0.712973418,-0.1736198
647,1621477,1806410,0.823,0.703,0.077,-8.5,-32.7,11.2,-11.8,-27.4,20,0.679311502,0.00137333293,-0.712973418,-0.1736198
648,1623806,1806410,0.804,0.641,0.054,-27.2,-23.8,0,-12,-27,20.7,0.678121281,-3.05185095e-05,-0.713888974,-0.174535356
649,1628387,1806410,0.804,0.641,0.054,-27.2,-23.8,0,-12,-27,20.7,0.678121281,-3.05185095e-05,-0.713888974,-0.174535356
650,1628696,1806420,0.8,0.586,0.033,-31,-22.3,-3.9,-12,-27,20.7,0.677388836,-0.00100711081,-0.714316233,-0.175572985
651,1632865,1806420,0.8,0.586,0.033,-31,-22.3,-3.9,-12,-27,20.7,0.677388836,-0.00100711081,-0.714316233,-0.175572985
652,1635299,1806420,0.8,0.586,0.033,-31,-22.3,-3.9,-12,-27,20.7,0.677388836,-0.00100711081,-0.714316233,-0.175572985
653,1637553,1806420,0.8,0.586,0.033,-31,-22.3,-3.9,-12,-27,20.7,0.677388836,-0.00100711081,-0.714316233,-0.175572985
654,1639618,1806430,0.8,0.586,0.033,-31,-22.3,-3.9,-12,-27,20.7,0.677388836,-0.00100711081,-0.714316233,-0.175572985
655,1641712,1806430,0.8,0.586,0.033,-31,-22.3,-3.9,-12,-27,20.7,0.677388836,-0.00100711081,-0.714316233,-0.175572985
656,1643737,1806430,0.824,0.441,-0.019,-35.8,-21.7,-11.7,-11.9,-27.5,20.9,0.675008393,-0.00378429518,-0.715628529,-0.179418317
657,1648151,1806430,0.824,0.441,-0.019,-35.8,-21.7,-11.7,-11.9,-27.5,20.9,0.675008393,-0.00378429518,-0.715628529,-0.179418317
658,1650440,1806440,0.824,0.441,-0.019,-35.8,-21.7,-11.7,-11.9,-27.5,20.9,0.675008393,-0.00378429518,-0.715628529,-0.179418317
659,1652413,1806440,0.855,0.374,-0.028,-36.8,-15.4,-16.4,-11.7,-27.5,20.8,0.674001282,-0.00491348003,-0.715964232,-0.181798761
660,1653966,1806440,0.855,0.374,-0.028,-36.8,-15.4,-16.4,-11.7,-27.5,20.8,0.674001282,-0.00491348003,-0.715964232,-0.181798761
661,1656182,1806440,0.894,0.335,-0.033,-37.9,-10.6,-18.6,-11.7,-27.5,20.8,0.673482467,-0.00555436872,-0.716025269,-0.183477279
662,1658986,1806450,0.894,0.335,-0.033,-37.9,-10.6,-18.6,-11.7,-27.5,20.8,0.673482467,-0.00555436872,-0.716025269,-0.183477279
663,1662103,1806450,0.894,0.335,-0.033,-37.9,-10.6,-18.6,-11.7,-27.5,20.8,0.673482467,-0.00555436872,-0.716025269,-0.183477279
664,1664335,1806450,0.945,0.279,-0.031,-44.3,-3.6,-21.1,-11.2,-28.1,19.3,0.672841578,-0.00628681295,-0.71581164,-0.18652913
665,1668181,1806450,0.945,0.279,-0.031,-44.3,-3.6,-21.1,-11.2,-28.1,19.3,0.672841578,-0.00628681295,-0.71581164,-0.18652913
666,1669497,1806460,0.945,0.279,-0.031,-44.3,-3.6,-21.1,-11.2,-28.1,19.3,0.672841578,-0.00628681295,-0.71581164,-0.18652913
667,1672474,1806460,0.992,0.232,-0.048,-58.9,0.7,-22.2,-11.4,-28.2,19.7,0.672505875,-0.00762962737,-0.71520127,-0.19000824
668,1674156,1806460,0.992,0.232,-0.048,-58.9,0.7,-22.2,-11.4,-28.2,19.7,0.672505875,-0.00762962737,-0.71520127,-0.19000824
669,1677997,1806460,0.992,0.232,-0.048,-58.9,0.7,-22.2,-11.4,-28.2,19.7,0.672505875,-0.00762962737,-0.71520127,-0.19000824
670,1680179,1806470,1.019,0.204,-0.076,-78.9,-1.6,-20,-11.4,-28.2,19.7,0.67220069,-0.00982696005,-0.714316233,-0.19431135
671,1681649,1806470,1.019,0.204,-0.076,-78.9,-1.6,-20,-11.4,-28.2,19.7,0.67220069,-0.00982696005,-0.714316233,-0.19431135
672,1684468,1806470,1.019,0.204,-0.076,-78.9,-1.6,-20,-11.4,-28.2,19.7,0.67220069,-0.00982696005,-0.714316233,-0.19431135
673,1687449,1806470,1.047,0.162,-0.132,-95.1,-11,-14.2,-11.3,-27.9,19.6,0.671559801,-0.0131229591,-0.713492233,-0.199255348
674,1689023,1806480,1.067,0.154,-0.152,-98,-14.6,-11.7,-11.3,-27.9,19.6,0.671254616,-0.014435255,-0.713309122,-0.200933866
675,1691989,1806480,1.078,0.154,-0.152,-99.7,-18.2,-9.5,-11,-28.6,19.3,0.670888394,-0.0158391064,-0.713126011,-0.202612384
676,1694144,1806480,1.078,0.154,-0.152,-99.7,-18.2,-9.5,-11,-28.6,19.3,0.670888394,-0.0158391064,-0.713126011,-0.202612384
677,1697366,1806480,1.078,0.154,-0.152,-99.7,-18.2,-9.5,-11,-28.6,19.3,0.670888394,-0.0158391064,-0.713126011,-0.202612384
678,1698825,1806490,1.078,0.154,-0.152,-99.7,-18.2,-9.5,-11,-28.6,19.3,0.670888394,-0.0158391064,-0.713126011,-0.202612384
679,1701559,1806490,1.078,0.154,-0.152,-99.7,-18.2,-9.5,-11,-28.6,19.3,0.670888394,-0.0158391064,-0.713126011,-0.202612384
680,1704586,1806490,1.078,0.154,-0.152,-99.7,-18.2,-9.5,-11,-28.6,19.3,0.670888394,-0.0158391064,-0.713126011,-0.202612384
681,1707738,1806490,1.078,0.154,-0.152,-99.7,-18.2,-9.5,-11,-28.6,19.3,0.670888394,-0.0158391064,-0.713126011,-0.202612384
682,1709260,1806500,1.149,0.176,-0.137,-83.4,-40.7,2.4,-10.9,-29.2,18.8,0.666890469,-0.0262459181,-0.713461715,-0.213293863
683,1712445,1806500,1.149,0.176,-0.137,-83.4,-40.7,2.4,-10.9,-29.2,18.8,0.666890469,-0.0262459181,-0.713461715,-0.213293863
684,1714918,1806500,1.149,0.176,-0.137,-83.4,-40.7,2.4,-10.9,-29.2,18.8,0.666890469,-0.0262459181,-0.713461715,-0.213293863
685,1717038,1806500,1.149,0.176,-0.137,-83.4,-40.7,2.4,-10.9,-29.2,18.8,0.666890469,-0.0262459181,-0.713461715,-0.213293863
686,1719294,1806510,1.102,0.29,-0.096,-64.9,-35.1,11.3,-10.9,-29.6,17.4,0.664540544,-0.0315256203,-0.714316233,-0.217017121
687,1721565,1806510,1.102,0.29,-0.096,-64.9,-35.1,11.3,-10.9,-29.6,17.4,0.664540544,-0.0315256203,-0.714316233,-0.217017121
688,1723799,1806510,1.086,0.321,-0.087,-65.8,-32.9,12.2,-10.7,-29.9,18.2,0.663533433,-0.0341196936,-0.714651936,-0.218634602
689,1726303,1806510,1.086,0.321,-0.087,-65.8,-32.9,12.2,-10.7,-29.9,18.2,0.663533433,-0.0341196936,-0.714651936,-0.218634602
690,1730725,1806520,1.086,0.321,-0.087,-65.8,-32.9,12.2,-10.7,-29.9,18.2,0.663533433,-0.0341196936,-0.714651936,-0.218634602
691,1733259,1806520,1.035,0.384,-0.066,-63,-29.7,9.9,-10.9,-30.1,18.4,0.662099063,-0.0378734703,-0.715018159,-0.22113712
692,1734987,1806520,1.035,0.384,-0.066,-63,-29.7,9.9,-10.9,-30.1,18.4,0.662099063,-0.0378734703,-0.715018159,-0.22113712
693,1737421,1806520,1.007,0.424,-0.057,-57.1,-27.1,7.6,-10.9,-30.1,18.4,0.661214026,-0.0400708029,-0.715231788,-0.222663045
694,1739592,1806530,1.007,0.424,-0.057,-57.1,-27.1,7.6,-10.9,-30.1,18.4,0.661214026,-0.0400708029,-0.715231788,-0.222663045
695,1741570,1806530,1.007,0.424,-0.057,-57.1,-27.1,7.6,-10.9,-30.1,18.4,0.661214026,-0.0400708029,-0.715231788,-0.222663045
696,1745519,1806530,1.007,0.424,-0.057,-57.1,-27.1,7.6,-10.9,-30.1,18.4,0.661214026,-0.0400708029,-0.715231788,-0.222663045
697,1747686,1806530,0.968,0.463,-0.037,-48.2,-23.3,3.6,-10.7,-30.8,18.3,0.659566027,-0.0438245796,-0.715628529,-0.225470748
698,1750066,1806540,0.968,0.463,-0.037,-48.2,-23.3,3.6,-10.7,-30.8,18.3,0.659566027,-0.0438245796,-0.715628529,-0.225470748
699,1752191,1806540,0.968,0.463,-0.037,-48.2,-23.3,3.6,-10.7,-30.8,18.3,0.659566027,-0.0438245796,-0.715628529,-0.225470748
700,1754317,1806540,0.968,0.463,-0.037,-48.2,-23.3,3.6,-10.7,-30.8,18.3,0.659566027,-0.0438245796,-0.715628529,-0.225470748
701,1758226,1806540,0.968,0.463,-0.037,-48.2,-23.3,3.6,-10.7,-30.8,18.3,0.659566027,-0.0438245796,-0.715628529,-0.225470748
702,1760474,1806550,0.968,0.463,-0.037,-48.2,-23.3,3.6,-10.7,-30.8,18.3,0.659566027,-0.0438245796,-0.715628529,-0.225470748
703,1762848,1806550,0.968,0.463,-0.037,-48.2,-23.3,3.6,-10.7,-30.8,18.3,0.659566027,-0.0438245796,-0.715628529,-0.225470748
704,1765110,1806550,0.968,0.463,-0.037,-48.2,-23.3,3.6,-10.7,-30.8,18.3,0.659566027,-0.0438245796,-0.715628529,-0.225470748
705,1767015,1806550,0.968,0.463,-0.037,-48.2,-23.3,3.6,-10.7,-30.8,18.3,0.659566027,-0.0438245796,-0.715628529,-0.225470748
706,1769585,1806560,0.992,0.377,-0.062,-51.2,-9.2,-10.1,-10.3,-30.6,15.7,0.656453139,-0.049897763,-0.715720084,-0.232947783
707,1771514,1806560,0.996,0.377,-0.058,-51.5,-8.1,-11.4,-11,-31.3,17.6,0.656239509,-0.0505081332,-0.715567492,-0.233924375
708,1775558,1806560,0.996,0.377,-0.058,-51.5,-8.1,-11.4,-11,-31.3,17.6,0.656239509,-0.0505081332,-0.715567492,-0.233924375
709,1777857,1806560,0.996,0.377,-0.058,-51.5,-8.1,-11.4,-11,-31.3,17.6,0.656239509,-0.0505081332,-0.715567492,-0.233924375
710,1780017,1806570,1.015,0.357,-0.047,-51.3,-7.5,-12.7,-11,-31.3,17.6,0.655507065,-0.0522171697,-0.715140233,-0.236823634
711,1781948,1806570,1.015,0.357,-0.047,-51.3,-7.5,-12.7,-11,-31.3,17.6,0.655507065,-0.0522171697,-0.715140233,-0.236823634
712,1785127,1806570,1.023,0.341,-0.043,-52.8,-7.9,-12,-10.5,-31.3,16.9,0.655018769,-0.0534379101,-0.714865566,-0.238807337
713,1786498,1806570,1.023,0.341,-0.043,-52.8,-7.9,-12,-10.5,-31.3,16.9,0.655018769,-0.0534379101,-0.714865566,-0.238807337
714,1789405,1806580,1.019,0.345,-0.039,-55.6,-8.4,-11.2,-10.5,-31.3,16.9,0.654499954,-0.0547196875,-0.714560381,-0.240821558
715,1792474,1806580,1.019,0.345,-0.039,-55.6,-8.4,-11.2,-10.5,-31.3,16.9,0.654499954,-0.0547196875,-0.714560381,-0.240821558
716,1793841,1806580,1.019,0.345,-0.039,-55.6,-8.4,-11.2,-10.5,-31.3,16.9,0.654499954,-0.0547196875,-0.714560381,-0.240821558
717,1796826,1806580,1.015,0.353,-0.039,-59.4,-9.1,-9.5,-10.8,-31.9,17,0.653706473,-0.0568865017,-0.714041566,-0.243934446
718,1799130,1806590,1.015,0.353,-0.039,-59.4,-9.1,-9.5,-10.8,-31.9,17,0.653706473,-0.0568865017,-0.714041566,-0.243934446
719,1802360,1806590,1.015,0.353,-0.039,-59.4,-9.1,-9.5,-10.8,-31.9,17,0.653706473,-0.0568865017,-0.714041566,-0.243934446
720,1804265,1806590,1.015,0.353,-0.039,-59.4,-9.1,-9.5,-10.8,-31.9,17,0.653706473,-0.0568865017,-0.714041566,-0.243934446
721,1807604,1806590,1.015,0.353,-0.039,-59.4,-9.1,-9.5,-10.8,-31.9,17,0.653706473,-0.0568865017,-0.714041566,-0.243934446
722,1809555,1806600,0.984,0.381,-0.046,-67.6,-9.2,-6.6,-10.1,-31.6,16.9,0.652363659,-0.0610675375,-0.713034455,-0.249397259
723,1812618,1806600,0.984,0.381,-0.046,-67.6,-9.2,-6.6,-10.1,-31.6,16.9,0.652363659,-0.0610675375,-0.713034455,-0.249397259
724,1814189,1806600,0.984,0.381,-0.046,-67.6,-9.2,-6.6,-10.1,-31.6,16.9,0.652363659,-0.0610675375,-0.713034455,-0.249397259
725,1816549,1806600,0.961,0.389,-0.061,-72.4,-8.7,-5.8,-9.7,-32,14.1,0.651142918,-0.0632648701,-0.712485122,-0.253608814
726,1818983,1806610,0.961,0.389,-0.061,-72.4,-8.7,-5.8,-9.7,-32,14.1,0.651142918,-0.0632648701,-0.712485122,-0.253608814
727,1822486,1806610,0.961,0.397,-0.061,-74.6,-8.5,-6,-10.3,-32.1,16.1,0.650593585,-0.0652790918,-0.711905271,-0.256050295
728,1823831,1806610,0.961,0.397,-0.061,-74.6,-8.5,-6,-10.3,-32.1,16.1,0.650593585,-0.0652790918,-0.711905271,-0.256050295
729,1827845,1806610,0.961,0.397,-0.061,-74.6,-8.5,-6,-10.3,-32.1,16.1,0.650593585,-0.0652790918,-0.711905271,-0.256050295
730,1830257,1806620,0.953,0.405,-0.068,-76.9,-8,-5.7,-10.3,-32.1,16.1,0.649769585,-0.0683919797,-0.711020234,-0.25983459
731,1831968,1806620,0.945,0.405,-0.068,-77.4,-7.8,-5.4,-10.1,-32.5,15.5,0.649525437,-0.0694296091,-0.71068453,-0.261085849
732,1833707,1806620,0.945,0.405,-0.068,-77.4,-7.8,-5.4,-10.1,-32.5,15.5,0.649525437,-0.0694296091,-0.71068453,-0.261085849
733,1837425,1806620,0.937,0.401,-0.06,-78,-7.3,-4.7,-10.1,-32.5,15.5,0.648976104,-0.0715659047,-0.710043641,-0.263618885
734,1838843,1806630,0.929,0.409,-0.06,-78,-7.1,-4.5,-10.1,-32.5,15.5,0.648731956,-0.0726645711,-0.709677419,-0.264900662
735,1841790,1806630,0.929,0.409,-0.06,-78,-7.1,-4.5,-10.1,-32.5,15.5,0.648731956,-0.0726645711,-0.709677419,-0.264900662
736,1845941,1806630,0.922,0.409,-0.048,-77.7,-6.7,-4.6,-9.7,-32.8,15.5,0.648213141,-0.0748008667,-0.709006012,-0.26740318
737,1846320,1806630,0.914,0.405,-0.044,-77.3,-6.7,-4.6,-9.7,-32.8,15.5,0.647938475,-0.0758690146,-0.70863979,-0.268654439
738,1848893,1806640,0.902,0.401,-0.036,-76.7,-6.7,-4.7,-9.7,-32.8,15.5,0.647694327,-0.0769066439,-0.708304086,-0.269905698
739,1852251,1806640,0.898,0.401,-0.032,-76.1,-6.8,-4.7,-10,-32.8,14.7,0.64741966,-0.0779442732,-0.707968383,-0.271126438
740,1853909,1806640,0.902,0.401,-0.021,-75.5,-7,-4.8,-10,-32.8,14.7,0.647144993,-0.0789819025,-0.707602161,-0.272347179
741,1857102,1806640,0.902,0.401,-0.021,-75.5,-7,-4.8,-10,-32.8,14.7,0.647144993,-0.0789819025,-0.707602161,-0.272347179
742,1859344,1806650,0.898,0.397,-0.017,-74.4,-7.6,-5,-10,-32.8,14.7,0.64659566,-0.0810266427,-0.706961272,-0.274788659
743,1861585,1806650,0.898,0.397,-0.017,-74.4,-7.6,-5,-10,-32.8,14.7,0.64659566,-0.0810266427,-0.706961272,-0.274788659
744,1863862,1806650,0.898,0.397,-0.017,-74.4,-7.6,-5,-10,-32.8,14.7,0.64659566,-0.0810266427,-0.706961272,-0.274788659
745,1866314,1806650,0.898,0.397,-0.017,-74.4,-7.6,-5,-10,-32.8,14.7,0.64659566,-0.0810266427,-0.706961272,-0.274788659
746,1870109,1806660,0.898,0.397,-0.017,-74.4,-7.6,-5,-10,-32.8,14.7,0.64659566,-0.0810266427,-0.706961272,-0.274788659
747,1872129,1806660,0.898,0.397,-0.017,-74.4,-7.6,-5,-10,-32.8,14.7,0.64659566,-0.0810266427,-0.706961272,-0.274788659
748,1874056,1806660,0.886,0.366,-0.021,-74.8,-8.8,-3.6,-9.5,-33.1,13.9,0.644581439,-0.0867336039,-0.705130161,-0.28235725
749,1877310,1806660,0.886,0.366,-0.021,-74.8,-8.8,-3.6,-9.5,-33.1,13.9,0.644581439,-0.0867336039,-0.705130161,-0.28235725
750,1880333,1806670,0.886,0.366,-0.021,-74.8,-8.8,-3.6,-9.5,-33.1,13.9,0.644581439,-0.0867336039,-0.705130161,-0.28235725
751,1882654,1806670,0.886,0.366,-0.021,-74.8,-8.8,-3.6,-9.5,-33.1,13.9,0.644581439,-0.0867336039,-0.705130161,-0.28235725
752,1888216,1806670,0.886,0.366,-0.021,-74.8,-8.8,-3.6,-9.5,-33.1,13.9,0.644581439,-0.0867336039,-0.705130161,-0.28235725
753,1888216,1806670,0.886,0.366,-0.021,-74.8,-8.8,-3.6,-9.5,-33.1,13.9,0.644581439,-0.0867336039,-0.705130161,-0.28235725
754,1889213,1806680,0.886,0.366,-0.021,-74.8,-8.8,-3.6,-9.5,-33.1,13.9,0.644581439,-0.0867336039,-0.705130161,-0.28235725
755,1892670,1806680,0.886,0.366,-0.021,-74.8,-8.8,-3.6,-9.5,-33.1,13.9,0.644581439,-0.0867336039,-0.705130161,-0.28235725
756,1894981,1806680,0.894,0.331,-0.021,-78.2,-10.2,-1.7,-9.3,-33.9,13.3,0.642078921,-0.0955229347,-0.702352977,-0.291909543
757,1896876,1806680,0.894,0.331,-0.021,-78.2,-10.2,-1.7,-9.3,-33.9,13.3,0.642078921,-0.0955229347,-0.702352977,-0.291909543
758,1899182,1806690,0.894,0.331,-0.021,-78.2,-10.2,-1.7,-9.3,-33.9,13.3,0.642078921,-0.0955229347,-0.702352977,-0.291909543
759,1902124,1806690,0.894,0.331,-0.021,-78.2,-10.2,-1.7,-9.3,-33.9,13.3,0.642078921,-0.0955229347,-0.702352977,-0.291909543
760,1904550,1806690,0.894,0.331,-0.021,-78.2,-10.2,-1.7,-9.3,-33.9,13.3,0.642078921,-0.0955229347,-0.702352977,-0.291909543
761,1906697,1806690,0.914,0.33,-0.018,-79,-11.4,-1.6,-9.9,-34.1,12.9,0.640339366,-0.101260414,-0.700613422,-0.297982727
762,1910958,1806700,0.914,0.33,-0.022,-78.8,-11.5,-1.4,-9.9,-34.1,12.9,0.639973144,-0.102420118,-0.7002472,-0.299172948
763,1911284,1806700,0.914,0.33,-0.022,-78.8,-11.5,-1.4,-9.9,-34.1,12.9,0.639973144,-0.102420118,-0.7002472,-0.299172948
764,1914771,1806700,0.914,0.33,-0.022,-78.8,-11.5,-1.4,-9.9,-34.1,12.9,0.639973144,-0.102420118,-0.7002472,-0.299172948
765,1918155,1806700,0.914,0.33,-0.022,-78.8,-11.5,-1.4,-9.9,-34.1,12.9,0.639973144,-0.102420118,-0.7002472,-0.299172948
766,1920197,1806710,0.914,0.33,-0.022,-78.8,-11.5,-1.4,-9.9,-34.1,12.9,0.639973144,-0.102420118,-0.7002472,-0.299172948
767,1922639,1806710,0.914,0.33,-0.022,-78.8,-11.5,-1.4,-9.9,-34.1,12.9,0.639973144,-0.102420118,-0.7002472,-0.299172948
768,1924576,1806710,0.914,0.33,-0.022,-78.8,-11.5,-1.4,-9.9,-34.1,12.9,0.639973144,-0.102420118,-0.7002472,-0.299172948
769,1926838,1806710,0.914,0.33,-0.022,-78.8,-11.5,-1.4,-9.9,-34.1,12.9,0.639973144,-0.102420118,-0.7002472,-0.299172948
770,1928955,1806720,0.914,0.33,-0.022,-78.8,-11.5,-1.4,-9.9,-34.1,12.9,0.639973144,-0.102420118,-0.7002472,-0.299172948
771,1931628,1806720,0.906,0.358,-0.021,-78.2,-14.6,0.6,-9.3,-34.5,12,0.636249886,-0.1126133,-0.697439497,-0.309915464
772,1933764,1806720,0.902,0.35,-0.017,-78.6,-15.3,0.6,-9.3,-34.5,12,0.635822626,-0.113803522,-0.697103793,-0.311075167
773,1936213,1806720,0.902,0.354,-0.021,-79,-16,0.5,-9.3,-34.5,12,0.635395367,-0.115024262,-0.696798608,-0.312204352
774,1940586,1806730,0.906,0.35,-0.021,-79.3,-16.7,0.4,-9.3,-34.5,12,0.63493759,-0.116245003,-0.696462905,-0.313364055
775,1942767,1806730,0.906,0.35,-0.021,-79.4,-17.3,0.1,-9.6,-34.9,11.7,0.634479812,-0.117465743,-0.696188238,-0.314523759
776,1945059,1806730,0.906,0.346,-0.025,-79.4,-17.8,-0.1,-9.6,-34.9,11.7,0.633991516,-0.118686483,-0.695883053,-0.315713981
777,1947101,1806730,0.914,0.334,-0.025,-79.3,-18.2,-0.5,-9.6,-34.9,11.7,0.63350322,-0.119907224,-0.695577868,-0.316873684
778,1949380,1806740,0.914,0.33,-0.026,-78.9,-18.3,-1,-9.6,-34.9,11.7,0.633014924,-0.121097446,-0.695303201,-0.318033387
779,1951570,1806740,0.914,0.33,-0.026,-78.5,-18.3,-1.6,-9.3,-35.2,11,0.632526627,-0.122287667,-0.694998016,-0.319193091
780,1954031,1806740,0.914,0.33,-0.026,-78.5,-18.3,-1.6,-9.3,-35.2,11,0.632526627,-0.122287667,-0.694998016,-0.319193091
781,1956201,1806740,0.921,0.322,-0.022,-76.9,-18.6,-3,-9.3,-35.2,11,0.631488998,-0.124607074,-0.694448683,-0.321512497
782,1958699,1806750,0.921,0.322,-0.022,-76.9,-18.6,-3,-9.3,-35.2,11,0.631488998,-0.124607074,-0.694448683,-0.321512497
783,1962925,1806750,0.921,0.322,-0.022,-76.9,-18.6,-3,-9.3,-35.2,11,0.631488998,-0.124607074,-0.694448683,-0.321512497
784,1965215,1806750,0.921,0.322,-0.022,-76.9,-18.6,-3,-9.3,-35.2,11,0.631488998,-0.124607074,-0.694448683,-0.321512497
785,1967514,1806750,0.933,0.314,-0.014,-74.2,-19.7,-6.6,-8.8,-35.2,9,0.628711814,-0.128360851,-0.693960387,-0.326548051
786,1969618,1806760,0.933,0.314,-0.014,-74.2,-19.7,-6.6,-8.8,-35.2,9,0.628711814,-0.128360851,-0.693960387,-0.326548051
787,1971690,1806760,0.933,0.314,-0.014,-74.2,-19.7,-6.6,-8.8,-35.2,9,0.628711814,-0.128360851,-0.693960387,-0.326548051
788,1975657,1806760,0.933,0.314,-0.014,-74.2,-19.7,-6.6,-8.8,-35.2,9,0.628711814,-0.128360851,-0.693960387,-0.326548051
789,1977972,1806760,0.949,0.31,-0.011,-72.7,-18.9,-6.2,-8.9,-35.2,10.7,0.626514481,-0.132511368,-0.692983795,-0.331125828
790,1980196,1806770,0.953,0.306,-0.015,-72.7,-19,-6.2,-8.9,-35.2,10.7,0.625965148,-0.133548997,-0.692739647,-0.332255013
791,1982508,1806770,0.953,0.306,-0.015,-72.7,-19,-6.2,-8.9,-35.2,10.7,0.625965148,-0.133548997,-0.692739647,-0.332255013
792,1984497,1806770,0.953,0.306,-0.015,-72.7,-19,-6.2,-8.9,-35.2,10.7,0.625965148,-0.133548997,-0.692739647,-0.332255013
793,1986834,1806770,0.953,0.306,-0.015,-72.7,-19,-6.2,-8.9,-35.2,10.7,0.625965148,-0.133548997,-0.692739647,-0.332255013
794,1989014,1806780,0.953,0.306,-0.015,-72.7,-19,-6.2,-8.9,-35.2,10.7,0.625965148,-0.133548997,-0.692739647,-0.332255013
795,1993115,1806780,0.968,0.302,-0.019,-73.6,-19.3,-6.3,-9,-36.4,9.4,0.623187963,-0.138767663,-0.691457869,-0.337931455
796,1995388,1806780,0.972,0.29,-0.019,-73.8,-19.2,-6.3,-9,-36.4,9.4,0.62263863,-0.13983581,-0.691183203,-0.339091159
797,1997615,1806780,0.976,0.298,-0.027,-74,-19,-6.2,-9,-36.4,9.4,0.622058779,-0.140842921,-0.690908536,-0.340220344
798,1999779,1806790,0.976,0.298,-0.027,-74,-19,-6.2,-9,-36.4,9.4,0.622058779,-0.140842921,-0.690908536,-0.340220344
799,2001848,1806790,0.98,0.29,-0.035,-74.3,-18.4,-6.2,-9,-35.8,8.6,0.620960112,-0.142979217,-0.690359203,-0.342509232
800,2004138,1806790,0.988,0.294,-0.035,-74.4,-18.2,-6.2,-9,-35.8,8.6,0.620410779,-0.144016846,-0.690054018,-0.343668935
801,2008135,1806790,0.992,0.29,-0.031,-74.4,-17.8,-6.3,-9,-35.8,8.6,0.619861446,-0.145084994,-0.689779351,-0.34479812
802,2010393,1806800,0.992,0.29,-0.031,-74.4,-17.8,-6.3,-9,-35.8,8.6,0.619861446,-0.145084994,-0.689779351,-0.34479812
803,2012548,1806800,0.996,0.286,-0.047,-74.5,-16.3,-7.2,-8.6,-36.4,7.9,0.618610187,-0.14722129,-0.689352092,-0.346995453
804,2014605,1806800,0.996,0.286,-0.047,-74.5,-16.3,-7.2,-8.6,-36.4,7.9,0.618610187,-0.14722129,-0.689352092,-0.346995453
805,2016805,1806800,1,0.286,-0.043,-74.6,-15.8,-7.6,-8.6,-36.4,7.9,0.617511521,-0.149235511,-0.688711203,-0.349345378
806,2019128,1806810,1.004,0.279,-0.047,-74.7,-15.4,-7.8,-8.6,-36.4,7.9,0.616992706,-0.150242622,-0.6883755,-0.350505081
807,2021602,1806810,1,0.278,-0.039,-74.9,-14.9,-7.9,-8.5,-36,8.2,0.616443373,-0.151249733,-0.688009278,-0.351695303
808,2023788,1806810,1,0.278,-0.039,-74.9,-14.9,-7.9,-8.5,-36,8.2,0.616443373,-0.151249733,-0.688009278,-0.351695303
809,2027539,1806810,1.008,0.271,-0.04,-75,-14,-8.4,-8.5,-36,8.2,0.615405744,-0.153233436,-0.687307352,-0.354075747
810,2029605,1806820,1.008,0.271,-0.044,-75,-13.6,-8.5,-8.5,-36,8.2,0.614886929,-0.154210028,-0.68694113,-0.355265969
811,2031835,1806820,1.011,0.267,-0.04,-75.1,-13.2,-8.3,-8.4,-36.2,8.1,0.614368114,-0.155217139,-0.686544389,-0.356456191
812,2034106,1806820,1.015,0.27,-0.04,-75.2,-12.9,-8,-8.4,-36.2,8.1,0.6138493,-0.156193731,-0.686178167,-0.357646413
813,2038062,1806820,1.011,0.271,-0.04,-75.4,-12.6,-7.8,-8.4,-36.2,8.1,0.613330485,-0.157200842,-0.685781426,-0.358836634
814,2040351,1806830,1.011,0.271,-0.04,-75.4,-12.6,-7.8,-8.4,-36.2,8.1,0.613330485,-0.157200842,-0.685781426,-0.358836634
815,2042590,1806830,1.011,0.274,-0.04,-75.5,-11.9,-7.4,-8.9,-36.5,7.7,0.612323374,-0.159184545,-0.684957427,-0.361217078
816,2044635,1806830,1.015,0.274,-0.048,-75.4,-11.5,-7.2,-8.9,-36.5,7.7,0.611835078,-0.160161138,-0.684530168,-0.3624073
817,2046916,1806830,1.015,0.274,-0.048,-75.2,-11.2,-6.8,-8.9,-36.5,7.7,0.611346782,-0.161168249,-0.684133427,-0.363597522
818,2049139,1806840,1.015,0.278,-0.048,-74.9,-11,-6.4,-8.9,-36.5,7.7,0.610889004,-0.162144841,-0.683706168,-0.364757225
819,2051534,1806840,1.011,0.275,-0.047,-74.6,-10.7,-6,-8.3,-36.5,7.1,0.610400708,-0.163151952,-0.683278909,-0.365916929
820,2053856,1806840,1.011,0.275,-0.047,-74.6,-10.7,-6,-8.3,-36.5,7.1,0.610400708,-0.163151952,-0.683278909,-0.365916929
821,2057630,1806840,1.004,0.279,-0.043,-73.9,-10,-5.7,-8.3,-36.5,7.1,0.609485153,-0.165105136,-0.682393872,-0.368205817
822,2059626,1806850,1.004,0.275,-0.047,-73.5,-9.6,-5.5,-8.3,-36.5,7.1,0.609027375,-0.166081729,-0.681936094,-0.369335002
823,2061953,1806850,1.004,0.275,-0.047,-73.5,-9.6,-5.5,-8.3,-36.5,7.1,0.609027375,-0.166081729,-0.681936094,-0.369335002
824,2064179,1806850,1.011,0.29,-0.043,-72.1,-9,-5.3,-8.5,-37.2,6.1,0.607806635,-0.168431654,-0.681539354,-0.370983001
825,2066621,1806850,1.008,0.294,-0.043,-71.2,-8.7,-5.2,-8.5,-37.2,6.1,0.607379376,-0.169347209,-0.681112094,-0.372081668
826,2068831,1806860,1.011,0.294,-0.043,-70.5,-8.3,-5.2,-8.5,-37.2,6.1,0.606952116,-0.170293283,-0.680654317,-0.373180334
827,2071180,1806860,1.004,0.29,-0.047,-69.9,-7.9,-5.1,-8.2,-37.1,6.7,0.606524857,-0.171208838,-0.680227058,-0.374248482
828,2075601,1806860,1,0.286,-0.047,-69.3,-7.6,-5.3,-8.2,-37.1,6.7,0.606097598,-0.172093875,-0.67976928,-0.37531663
829,2077850,1806860,1,0.29,-0.047,-68.9,-7.2,-5.6,-8.2,-37.1,6.7,0.605700858,-0.172978912,-0.679311502,-0.376384777
830,2080197,1806870,0.996,0.286,-0.047,-68.4,-7.1,-5.8,-8.2,-37.1,6.7,0.605273598,-0.173863948,-0.678884243,-0.377422407
831,2082192,1806870,0.996,0.29,-0.043,-67.8,-6.9,-5.9,-8,-37.3,5.8,0.604876858,-0.174718467,-0.678426466,-0.378521073
832,2084472,1806870,0.992,0.287,-0.047,-67,-6.6,-6.1,-8,-37.3,5.8,0.604480117,-0.175572985,-0.677999207,-0.379558702
833,2086667,1806870,0.992,0.287,-0.047,-67,-6.6,-6.1,-8,-37.3,5.8,0.604480117,-0.175572985,-0.677999207,-0.379558702
834,2089222,1806880,0.988,0.283,-0.051,-65.1,-5.8,-6.3,-8,-37.3,5.8,0.603686636,-0.177220985,-0.67711417,-0.381633961
835,2091404,1806880,0.988,0.287,-0.051,-64.2,-5.4,-6.4,-8,-37.7,5.4,0.603289895,-0.178014466,-0.676656392,-0.382641072
836,2093713,1806880,0.984,0.283,-0.055,-63.4,-5.3,-6.3,-8,-37.7,5.4,0.602923673,-0.178807947,-0.676229133,-0.383648183
837,2098256,1806880,0.988,0.287,-0.055,-62.7,-5.2,-6.2,-8,-37.7,5.4,0.602526933,-0.17957091,-0.675801874,-0.384624775
838,2100369,1806890,0.984,0.279,-0.059,-62,-5.1,-6.2,-8,-37.7,5.4,0.60216071,-0.180333872,-0.675374615,-0.385601367
839,2102510,1806890,0.988,0.283,-0.059,-61.1,-4.8,-6.4,-7.9,-37.5,5.3,0.601794488,-0.181096835,-0.674947356,-0.38657796
840,2104576,1806890,0.984,0.283,-0.047,-60.2,-4.4,-6.5,-7.9,-37.5,5.3,0.601458785,-0.181829279,-0.674520096,-0.387524033
841,2106475,1806890,0.984,0.271,-0.059,-59.1,-4,-6.5,-7.9,-37.5,5.3,0.601092563,-0.182531205,-0.674092837,-0.388470107
842,2109506,1806900,0.984,0.275,-0.051,-58,-3.7,-6.4,-7.9,-37.5,5.3,0.600756859,-0.183233131,-0.673665578,-0.389385662
843,2111879,1806900,0.98,0.271,-0.059,-55.8,-3.1,-6.4,-7.8,-37.7,4.8,0.600054933,-0.18427076,-0.673787652,-0.389782403
844,2114075,1806900,0.98,0.271,-0.059,-55.8,-3.1,-6.4,-7.8,-37.7,4.8,0.600054933,-0.18427076,-0.673787652,-0.389782403
845,2116637,1806900,0.98,0.271,-0.059,-55.8,-3.1,-6.4,-7.8,-37.7,4.8,0.600054933,-0.18427076,-0.673787652,-0.389782403
846,2120114,1806910,0.98,0.267,-0.047,-53.8,-2.6,-6.6,-7.8,-37.7,4.8,0.599078341,-0.186223945,-0.67259743,-0.392406995
847,2122505,1806910,0.984,0.267,-0.047,-52.8,-2.3,-6.5,-7.8,-37.7,4.6,0.598773156,-0.186834315,-0.67220069,-0.393261513
848,2124202,1806910,0.976,0.271,-0.043,-51.8,-2,-6.5,-7.8,-37.7,4.6,0.598498489,-0.187444685,-0.671803949,-0.394085513
849,2126669,1806910,0.976,0.271,-0.043,-51.8,-2,-6.5,-7.8,-37.7,4.6,0.598498489,-0.187444685,-0.671803949,-0.394085513
850,2128700,1806920,0.98,0.259,-0.035,-49.8,-1.2,-6.6,-7.8,-37.7,4.6,0.597918638,-0.18857387,-0.671010468,-0.395733512
851,2131211,1806920,0.972,0.255,-0.039,-48.9,-1,-6.7,-7.9,-37.9,4.4,0.597643971,-0.189123203,-0.670644246,-0.396526994
852,2134546,1806920,0.972,0.255,-0.039,-48.9,-1,-6.7,-7.9,-37.9,4.4,0.597643971,-0.189123203,-0.670644246,-0.396526994
853,2136705,1806920,0.968,0.255,-0.035,-47.1,-0.4,-6.9,-7.9,-37.9,4.4,0.597125156,-0.190160833,-0.669881283,-0.398113956
854,2140057,1806930,0.969,0.251,-0.039,-46.3,0,-6.9,-7.9,-37.9,4.4,0.59685049,-0.190649129,-0.669515061,-0.398876919
855,2142065,1806930,0.972,0.247,-0.035,-45.4,0.3,-7,-7.7,-37.7,4.5,0.596606342,-0.191167943,-0.669148839,-0.399639882
856,2144336,1806930,0.969,0.251,-0.039,-44.5,0.7,-7.1,-7.7,-37.7,4.5,0.596362194,-0.191625721,-0.668782617,-0.400372326
857,2146533,1806930,0.968,0.243,-0.031,-43.7,1,-7.2,-7.7,-37.7,4.5,0.596148564,-0.192083499,-0.668416395,-0.40110477
858,2150336,1806940,0.968,0.236,-0.032,-42.9,1.5,-7.3,-7.7,-37.7,4.5,0.595934935,-0.192541276,-0.668050172,-0.401837214
859,2152610,1806940,0.968,0.236,-0.032,-42.9,1.5,-7.3,-7.7,-37.7,4.5,0.595934935,-0.192541276,-0.668050172,-0.401837214
860,2154630,1806940,0.965,0.24,-0.031,-41,2.3,-7.4,-8.2,-37.7,3.8,0.595507675,-0.193365276,-0.667317728,-0.403271584
861,2156839,1806940,0.969,0.24,-0.035,-39.8,2.7,-7.3,-8.2,-37.7,3.8,0.595324564,-0.193731498,-0.666951506,-0.403942991
862,2158938,1806950,0.965,0.243,-0.031,-38.6,3,-7,-8.2,-37.7,3.8,0.595141453,-0.19409772,-0.666615802,-0.404614399
863,2162095,1806950,0.965,0.244,-0.035,-37,3.2,-6.5,-7.7,-38.1,3.5,0.59480575,-0.195043794,-0.666615802,-0.404614399
864,2164392,1806950,0.965,0.244,-0.035,-37,3.2,-6.5,-7.7,-38.1,3.5,0.59480575,-0.195043794,-0.666615802,-0.404614399
865,2166780,1806950,0.957,0.244,-0.027,-36.5,3,-6.5,-7.7,-38.1,3.5,0.594470046,-0.19574572,-0.665944395,-0.405896176
866,2169635,1806960,0.961,0.251,-0.031,-36,2.9,-6.6,-7.7,-38.1,3.5,0.594286935,-0.196081423,-0.665608692,-0.406506546
867,2171854,1806960,0.961,0.251,-0.023,-35.3,2.8,-6.7,-7.3,-37.8,3.3,0.594134342,-0.196417127,-0.665303507,-0.407116916
868,2174140,1806960,0.961,0.247,-0.027,-34.5,2.9,-6.7,-7.3,-37.8,3.3,0.593951231,-0.196752831,-0.664967803,-0.407727287
869,2176724,1806960,0.953,0.255,-0.019,-33.4,3,-6.5,-7.3,-37.8,3.3,0.593798639,-0.197058016,-0.664662618,-0.408307138
870,2178912,1806970,0.957,0.259,-0.019,-32.3,3.1,-6.4,-7.3,-37.8,3.3,0.593646046,-0.197363201,-0.664357433,-0.408856471
871,2182499,1806970,0.953,0.263,-0.027,-31.2,3.2,-6.2,-7.6,-38,3.1,0.593523972,-0.197637867,-0.664082766,-0.409405805
872,2184527,1806970,0.949,0.263,-0.019,-30.2,3.3,-6.2,-7.6,-38,3.1,0.59337138,-0.197912534,-0.663777581,-0.409955138
873,2186726,1806970,0.945,0.267,-0.019,-29.3,3.4,-6.4,-7.6,-38,3.1,0.593249306,-0.198187201,-0.663502915,-0.410473952
874,2190038,1806980,0.945,0.267,-0.019,-29.3,3.4,-6.4,-7.6,-38,3.1,0.593249306,-0.198187201,-0.663502915,-0.410473952
875,2191731,1806980,0.937,0.267,-0.019,-27.7,3.7,-6.4,-7.5,-37.8,3.1,0.592974639,-0.198644978,-0.662953581,-0.411481063
876,2193701,1806980,0.937,0.267,-0.019,-26.8,3.8,-6.2,-7.5,-37.8,3.1,0.592883084,-0.198889126,-0.662709433,-0.411969359
877,2198120,1806980,0.937,0.267,-0.019,-26.8,3.8,-6.2,-7.5,-37.8,3.1,0.592883084,-0.198889126,-0.662709433,-0.411969359
878,2200203,1806990,0.949,0.275,-0.023,-24.5,3.9,-5.7,-7.5,-37.8,3.1,0.592669454,-0.199285867,-0.662190619,-0.412884915
879,2201848,1806990,0.941,0.283,-0.015,-23.5,3.8,-5.3,-7.5,-38.4,3,0.592577898,-0.199438459,-0.661946471,-0.413312174
880,2204243,1806990,0.941,0.287,-0.023,-22.6,3.8,-5.1,-7.5,-38.4,3,0.592486343,-0.199652089,-0.661732841,-0.413739433
881,2206615,1806990,0.941,0.287,-0.019,-22,3.6,-5,-7.5,-38.4,3,0.592394787,-0.1998352,-0.661519211,-0.414136174
882,2208871,1807000,0.941,0.287,-0.019,-21.5,3.4,-5.1,-7.5,-38.4,3,0.592303232,-0.200018311,-0.661275063,-0.414502396
883,2211291,1807000,0.945,0.291,-0.019,-20.9,2.9,-5.5,-7.7,-38.1,2.4,0.591784417,-0.200537126,-0.661671804,-0.414380322
884,2215082,1807000,0.945,0.291,-0.011,-20.9,2.9,-5.5,-7.7,-38.1,2.4,0.591662343,-0.200720237,-0.661488693,-0.414777062
885,2217032,1807000,0.941,0.294,-0.007,-20.3,2.7,-5.3,-7.7,-38.1,2.4,0.591570788,-0.200872829,-0.661275063,-0.415143284
886,2219394,1807010,0.941,0.302,-0.007,-19.6,2.5,-5,-7.7,-38.1,2.4,0.591479232,-0.201025422,-0.661091952,-0.415509507
887,2221669,1807010,0.941,0.302,-0.007,-19.6,2.5,-5,-7.7,-38.1,2.4,0.591479232,-0.201025422,-0.661091952,-0.415509507
888,2224134,1807010,0.941,0.298,-0.007,-17.9,2.5,-4.7,-7.2,-38.3,2.9,0.591296121,-0.201330607,-0.66072573,-0.416180914
889,2226312,1807010,0.941,0.302,-0.007,-17.2,2.4,-4.7,-7.2,-38.3,2.9,0.591204566,-0.201452681,-0.660573138,-0.416486099
890,2230780,1807020,0.937,0.302,-0.007,-16.5,2.3,-4.7,-7.2,-38.3,2.9,0.591143529,-0.201574755,-0.660420545,-0.416821802
891,2231126,1807020,0.937,0.302,-0.007,-16.5,2.3,-4.7,-7.2,-38.3,2.9,0.591143529,-0.201574755,-0.660420545,-0.416821802
892,2235324,1807020,0.937,0.302,0,-15.3,2.1,-4.8,-7.8,-38.3,2.6,0.590960417,-0.201788385,-0.66011536,-0.417401654
893,2237537,1807020,0.937,0.298,0.004,-14.7,2.1,-4.7,-7.8,-38.3,2.6,0.59089938,-0.201910459,-0.659962767,-0.417706839
894,2239551,1807030,0.933,0.298,0.008,-14,2,-4.5,-7.8,-38.3,2.6,0.590807825,-0.202002014,-0.659840693,-0.417950987
895,2241546,1807030,0.933,0.298,0.008,-14,2,-4.5,-7.8,-38.3,2.6,0.590807825,-0.202002014,-0.659840693,-0.417950987
896,2245636,1807030,0.933,0.302,0.008,-12.7,1.7,-4.1,-7.2,-38.2,2.6,0.590685751,-0.202185125,-0.659596545,-0.418439283
897,2247797,1807030,0.933,0.298,0.008,-12.2,1.6,-3.9,-7.2,-38.2,2.6,0.590624714,-0.202276681,-0.659474471,-0.41871395
898,2250079,1807040,0.933,0.298,0.008,-12.2,1.6,-3.9,-7.2,-38.2,2.6,0.590624714,-0.202276681,-0.659474471,-0.41871395
899,2251725,1807040,0.933,0.298,0.008,-12.2,1.6,-3.9,-7.2,-38.2,2.6,0.590624714,-0.202276681,-0.659474471,-0.41871395
900,2253652,1807040,0.933,0.294,0.012,-10.6,1.4,-3.5,-7.4,-38,2.6,0.590441603,-0.20249031,-0.659138768,-0.419354839
901,2256699,1807040,0.933,0.298,0.004,-10,1.4,-3.4,-7.4,-38,2.6,0.590380566,-0.202551347,-0.659047212,-0.41953795
902,2259831,1807050,0.937,0.298,0.004,-9.3,1.6,-3.3,-7.4,-38,2.6,0.590319529,-0.202612384,-0.658955657,-0.419721061
903,2261652,1807050,0.937,0.298,0.008,-8,1.8,-3.2,-7.3,-38.1,2.4,0.58989227,-0.202948088,-0.659413434,-0.419476913
904,2264899,1807050,0.937,0.298,0.008,-8,1.8,-3.2,-7.3,-38.1,2.4,0.589861751,-0.202978607,-0.659321879,-0.419660024
905,2267000,1807050,0.941,0.294,0.008,-7.4,1.7,-3,-7.3,-38.1,2.4,0.589831233,-0.203009125,-0.659230323,-0.419812616
906,2269240,1807060,0.941,0.294,0.004,-6.8,1.7,-2.9,-7.3,-38.1,2.4,0.589800714,-0.203039644,-0.659169286,-0.41993469
907,2273284,1807060,0.945,0.294,0.004,-6.2,1.8,-2.7,-7.5,-38.4,2,0.589770196,-0.203070162,-0.659108249,-0.420087283
908,2275667,1807060,0.953,0.294,0.004,-5.6,2,-2.7,-7.5,-38.4,2,0.589739677,-0.203070162,-0.659047212,-0.420209357
909,2277825,1807060,0.953,0.29,0.004,-4.9,2.3,-2.7,-7.5,-38.4,2,0.589739677,-0.203070162,-0.658986175,-0.420331431
910,2280176,1807070,0.953,0.294,0,-4.3,2.4,-2.7,-7.5,-38.4,2,0.589709159,-0.203070162,-0.658925138,-0.420392468
911,2282175,1807070,0.957,0.29,0,-3.8,2.6,-2.6,-7.2,-38.1,2.3,0.589709159,-0.203070162,-0.658864101,-0.420545061
912,2284392,1807070,0.957,0.29,0.004,-3.2,2.8,-2.5,-7.2,-38.1,2.3,0.589709159,-0.203039644,-0.658803064,-0.420636616
913,2286676,1807070,0.96,0.294,0,-2.7,3.1,-2.3,-7.2,-38.1,2.3,0.589739677,-0.203009125,-0.658742027,-0.420728172
914,2289539,1807080,0.96,0.294,0.007,-2.2,3.3,-2,-7.2,-38.1,2.3,0.589739677,-0.202978607,-0.65868099,-0.420789209
915,2291872,1807080,0.964,0.294,0.003,-1.8,3.4,-1.8,-7.1,-38.1,1.8,0.589770196,-0.202948088,-0.658650472,-0.420850246
916,2294267,1807080,0.96,0.298,0.004,-1.6,3.5,-1.6,-7.1,-38.1,1.8,0.589800714,-0.20291757,-0.658589434,-0.420911283
917,2297529,1807080,0.96,0.294,0,-1.6,3.6,-1.4,-7.1,-38.1,1.8,0.589831233,-0.202887051,-0.658528397,-0.42097232
918,2299619,1807090,0.96,0.294,-0.003,-1.7,3.7,-1.4,-7.1,-38.1,1.8,0.589861751,-0.202856532,-0.65846736,-0.421033357
919,2301889,1807090,0.96,0.298,0,-1.8,3.7,-1.3,-7.3,-38.6,2.2,0.58989227,-0.202826014,-0.658406323,-0.421094394
920,2303841,1807090,0.96,0.298,0,-1.8,3.7,-1.3,-7.3,-38.6,2.2,0.58989227,-0.202826014,-0.658406323,-0.421094394
921,2307901,1807090,0.964,0.294,0.011,-2.1,3.6,-1.1,-7.3,-38.6,2.2,0.589953307,-0.202764977,-0.658284249,-0.421216468
922,2310117,1807100,0.957,0.294,0.011,-2.1,3.7,-1.1,-7.3,-38.6,2.2,0.589983825,-0.202734458,-0.658223212,-0.421277505
923,2312352,1807100,0.957,0.298,0.011,-1.8,3.7,-0.8,-7.4,-38.2,2.3,0.589861751,-0.202948088,-0.658436842,-0.421063875
924,2314099,1807100,0.957,0.298,0.011,-1.8,3.7,-0.8,-7.4,-38.2,2.3,0.58989227,-0.20291757,-0.658375805,-0.421094394
925,2317542,1807100,0.957,0.298,0.011,-1.8,3.7,-0.8,-7.4,-38.2,2.3,0.58989227,-0.20291757,-0.658375805,-0.421094394
926,2319555,1807110,0.956,0.302,0.015,-1.5,3.7,-0.4,-7.4,-38.2,2.3,0.589983825,-0.202887051,-0.658253731,-0.421185949
927,2321862,1807110,0.956,0.302,0.015,-1.5,3.7,-0.4,-7.4,-38.2,2.3,0.589983825,-0.202887051,-0.658253731,-0.421185949
928,2324133,1807110,0.956,0.302,0.015,-1.5,3.7,-0.4,-7.4,-38.2,2.3,0.589983825,-0.202887051,-0.658253731,-0.421185949
929,2326488,1807110,0.953,0.298,0.019,-0.9,3.7,-0.2,-7,-38.3,2.2,0.590105899,-0.202826014,-0.65807062,-0.421308023
930,2328722,1807120,0.953,0.298,0.019,-0.9,3.7,-0.2,-7,-38.3,2.2,0.590105899,-0.202826014,-0.65807062,-0.421308023
931,2331198,1807120,0.945,0.306,0.024,-0.3,3.8,-0.2,-7.3,-38.4,2,0.590197455,-0.202734458,-0.657979064,-0.42136906
932,2334583,1807120,0.945,0.306,0.027,0,3.8,-0.2,-7.3,-38.4,2,0.590258492,-0.20270394,-0.657918027,-0.421399579
933,2336731,1807120,0.937,0.306,0.024,0.2,4,-0.2,-7.3,-38.4,2,0.590319529,-0.202673421,-0.657887509,-0.421399579
934,2339989,1807130,0.937,0.306,0.024,0.2,4,-0.2,-7.3,-38.4,2,0.590319529,-0.202673421,-0.657887509,-0.421399579
935,2341909,1807130,0.933,0.31,0.024,0.7,4,-0.4,-7.2,-38.1,2.2,0.590441603,-0.202551347,-0.657795953,-0.421430097
936,2344364,1807130,0.933,0.31,0.024,0.7,4,-0.4,-7.2,-38.1,2.2,0.590441603,-0.202551347,-0.657795953,-0.421430097
937,2347625,1807130,0.933,0.31,0.024,0.7,4,-0.4,-7.2,-38.1,2.2,0.590441603,-0.202551347,-0.657795953,-0.421430097
938,2349349,1807140,0.933,0.31,0.024,0.7,4,-0.4,-7.2,-38.1,2.2,0.590441603,-0.202551347,-0.657795953,-0.421430097
939,2351438,1807140,0.929,0.314,0.032,2.2,3.7,0,-7.1,-38.2,2.2,0.590685751,-0.202337718,-0.657643361,-0.421430097
940,2354451,1807140,0.937,0.314,0.028,2.6,3.6,0.2,-7.1,-38.2,2.2,0.590746788,-0.202246162,-0.657643361,-0.421399579
941,2357806,1807140,0.933,0.317,0.036,3.1,3.6,0.3,-7.1,-38.2,2.2,0.590807825,-0.202185125,-0.657612842,-0.42136906
942,2359806,1807150,0.933,0.321,0.032,3.6,3.7,0.4,-7.1,-38.2,2.2,0.59089938,-0.202124088,-0.657582324,-0.421308023
943,2361210,1807150,0.933,0.321,0.032,3.6,3.7,0.4,-7.1,-38.2,2.2,0.59089938,-0.202124088,-0.657582324,-0.421308023
944,2364146,1807150,0.937,0.325,0.028,4.5,3.8,0.5,-7.5,-38.6,2.2,0.590868862,-0.201940977,-0.657795953,-0.421155431
945,2367438,1807150,0.941,0.329,0.032,4.9,3.8,0.6,-7.5,-38.6,2.2,0.590929899,-0.201849422,-0.657765435,-0.421094394
946,2369584,1807160,0.941,0.329,0.032,5.4,3.8,0.8,-7.5,-38.6,2.2,0.591021455,-0.201757866,-0.657765435,-0.421033357
947,2371772,1807160,0.941,0.333,0.028,5.9,3.8,0.8,-6.9,-37.9,2,0.59111301,-0.201635792,-0.657765435,-0.420941801
948,2374873,1807160,0.945,0.337,0.032,6.4,3.7,0.8,-6.9,-37.9,2,0.591204566,-0.201544237,-0.657795953,-0.420850246
949,2376650,1807160,0.945,0.337,0.032,7,3.6,0.7,-6.9,-37.9,2,0.591296121,-0.201391644,-0.657795953,-0.42075869
950,2380775,1807170,0.945,0.337,0.028,7.5,3.5,0.8,-6.9,-37.9,2,0.591387677,-0.201300089,-0.657826472,-0.420667135
951,2383225,1807170,0.945,0.337,0.028,8,3.5,0.9,-7.2,-38.3,2.2,0.591479232,-0.201178014,-0.657826472,-0.420545061
952,2385210,1807170,0.945,0.337,0.028,8,3.5,0.9,-7.2,-38.3,2.2,0.591479232,-0.201178014,-0.657826472,-0.420545061
953,2387468,1807170,0.952,0.341,0.028,8.7,3.7,0.8,-7.2,-38.3,2.2,0.591692862,-0.200933866,-0.657887509,-0.420300913
954,2389515,1807180,0.953,0.337,0.024,8.9,3.8,0.5,-7.2,-38.3,2.2,0.591784417,-0.200781274,-0.657918027,-0.420178838
955,2391687,1807180,0.956,0.321,0.035,9.3,4,0.3,-6.8,-37.7,2.4,0.591875973,-0.200628681,-0.657948546,-0.420056764
956,2394337,1807180,0.956,0.329,0.035,9.8,4.2,0.1,-6.8,-37.7,2.4,0.591998047,-0.200476089,-0.657979064,-0.41993469
957,2396560,1807180,0.956,0.329,0.035,9.8,4.2,0.1,-6.8,-37.7,2.4,0.591998047,-0.200476089,-0.657979064,-0.41993469
958,2400227,1807190,0.956,0.329,0.035,9.8,4.2,0.1,-6.8,-37.7,2.4,0.591998047,-0.200476089,-0.657979064,-0.41993469
959,2402244,1807190,0.956,0.329,0.035,9.8,4.2,0.1,-6.8,-37.7,2.4,0.591998047,-0.200476089,-0.657979064,-0.41993469
960,2405215,1807190,0.953,0.333,0.012,12.1,5.8,0,-7.3,-38.3,2.6,0.592486343,-0.199682608,-0.658131657,-0.419354839
961,2407198,1807190,0.953,0.333,0.012,12.1,5.8,0,-7.3,-38.3,2.6,0.592486343,-0.199682608,-0.658131657,-0.419354839
962,2409334,1807200,0.957,0.321,0.008,10.6,5.6,-0.5,-7.3,-38.3,2.6,0.59276101,-0.199255348,-0.658192694,-0.419110691
963,2411592,1807200,0.96,0.314,0.008,9.6,5.3,-1,-7.8,-38.3,2.3,0.592577898,-0.199072237,-0.658558916,-0.41892758
964,2414146,1807200,0.96,0.314,0.008,8.5,5.1,-1.5,-7.8,-38.3,2.3,0.592669454,-0.198889126,-0.658558916,-0.418836024
965,2416206,1807200,0.957,0.31,0.008,7.7,4.8,-1.9,-7.8,-38.3,2.3,0.59276101,-0.198736534,-0.658589434,-0.418774987
966,2420775,1807210,0.953,0.306,0.008,7.1,4.4,-1.9,-7.8,-38.3,2.3,0.592822047,-0.198553423,-0.658589434,-0.41871395
967,2422975,1807210,0.949,0.31,0.008,6.7,3.9,-1.8,-7,-38.8,2.2,0.592913602,-0.19840083,-0.658619953,-0.418652913
968,2425287,1807210,0.956,0.31,0.016,6.5,3.5,-1.5,-7,-38.8,2.2,0.592974639,-0.198278756,-0.658619953,-0.418591876
969,2427464,1807210,0.949,0.31,0.012,6.3,3.1,-1.1,-7,-38.8,2.2,0.593035676,-0.198156682,-0.658650472,-0.418530839
970,2429437,1807220,0.949,0.31,0.012,6.3,3.1,-1.1,-7,-38.8,2.2,0.593035676,-0.198156682,-0.658650472,-0.418530839
971,2431727,1807220,0.941,0.314,0.012,5.7,2.8,-0.3,-7.2,-38.1,2.1,0.59315775,-0.197912534,-0.65868099,-0.418408765
972,2434897,1807220,0.941,0.318,0.016,5.4,2.7,0,-7.2,-38.1,2.1,0.593218787,-0.197820978,-0.658711509,-0.418347728
973,2436971,1807220,0.937,0.322,0.012,5.1,2.5,0.2,-7.2,-38.1,2.1,0.593279824,-0.197729423,-0.658711509,-0.418286691
974,2439217,1807230,0.937,0.322,0.012,5.1,2.5,0.2,-7.2,-38.1,2.1,0.593279824,-0.197729423,-0.658711509,-0.418286691
975,2442424,1807230,0.933,0.326,0.012,5.1,2.1,1,-7,-38.4,2.4,0.593401898,-0.19757683,-0.658742027,-0.418134098
976,2444580,1807230,0.937,0.329,0.016,5.4,1.8,1.2,-7,-38.4,2.4,0.593462935,-0.197485275,-0.658772546,-0.418042543
977,2446825,1807230,0.937,0.329,0.016,5.4,1.8,1.2,-7,-38.4,2.4,0.593462935,-0.197485275,-0.658772546,-0.418042543
978,2448988,1807240,0.937,0.337,0.02,6.2,1.4,1.9,-7,-38.4,2.4,0.593585009,-0.197393719,-0.658833583,-0.417828913
979,2452910,1807240,0.933,0.337,0.016,6.7,1.3,2.1,-6.7,-38,2.5,0.593646046,-0.197332682,-0.658864101,-0.417706839
980,2455126,1807240,0.933,0.349,0.02,7.3,1.4,2.1,-6.7,-38,2.5,0.593737602,-0.197241127,-0.65889462,-0.417584765
981,2457073,1807240,0.937,0.345,0.016,7.9,1.5,2.1,-6.7,-38,2.5,0.593798639,-0.197149571,-0.658925138,-0.417462691
982,2459330,1807250,0.933,0.353,0.02,8.6,1.4,2.1,-6.7,-38,2.5,0.593890194,-0.197058016,-0.658986175,-0.417310099
983,2462432,1807250,0.937,0.349,0.024,9.2,1.3,2.2,-8,-38.2,2.6,0.593554491,-0.196752831,-0.659443953,-0.417218543
984,2464584,1807250,0.937,0.353,0.028,9.7,1.2,2,-8,-38.2,2.6,0.593646046,-0.196661275,-0.65950499,-0.417035432
985,2466803,1807250,0.941,0.349,0.032,10.2,1.2,1.9,-8,-38.2,2.6,0.593707083,-0.196508683,-0.659566027,-0.416882839
986,2469965,1807260,0.941,0.349,0.032,10.8,1.3,1.8,-8,-38.2,2.6,0.593798639,-0.196417127,-0.659657582,-0.416699728
987,2472111,1807260,0.941,0.349,0.032,10.8,1.3,1.8,-8,-38.2,2.6,0.593798639,-0.196417127,-0.659657582,-0.416699728
988,2474396,1807260,0.941,0.349,0.032,10.8,1.3,1.8,-8,-38.2,2.6,0.593798639,-0.196417127,-0.659657582,-0.416699728
989,2476580,1807260,0.949,0.353,0.036,12.9,1.6,1.3,-7,-38.1,2.5,0.594073305,-0.195959349,-0.65990173,-0.416119877
990,2479158,1807270,0.949,0.345,0.032,13.6,1.7,1.1,-7,-38.1,2.5,0.594164861,-0.195776238,-0.659993286,-0.415936766
991,2481365,1807270,0.949,0.345,0.032,13.6,1.7,1.1,-7,-38.1,2.5,0.594164861,-0.195776238,-0.659993286,-0.415936766
992,2483702,1807270,0.956,0.345,0.032,15.3,2.2,0.6,-6.9,-38.4,2.5,0.594347972,-0.195379498,-0.660206915,-0.415509507
993,2488231,1807270,0.949,0.337,0.036,16.1,2.4,0.4,-6.9,-38.4,2.5,0.594470046,-0.195165868,-0.66032899,-0.415265358
994,2490503,1807280,0.949,0.337,0.036,16.1,2.4,0.4,-6.9,-38.4,2.5,0.594470046,-0.195165868,-0.66032899,-0.415265358
995,2492642,1807280,0.949,0.337,0.036,16.1,2.4,0.4,-6.9,-38.4,2.5,0.594470046,-0.195165868,-0.66032899,-0.415265358
996,2494631,1807280,0.949,0.337,0.036,16.1,2.4,0.4,-6.9,-38.4,2.5,0.594470046,-0.195165868,-0.66032899,-0.415265358
997,2496853,1807280,0.949,0.325,0.032,18.1,3.1,0,-7,-38.2,3.2,0.594927824,-0.194158757,-0.660786767,-0.414288766
998,2499072,1807290,0.956,0.329,0.039,18.3,3.2,-0.2,-7,-38.2,3.2,0.595049898,-0.193884091,-0.660908841,-0.414044618
999,2501686,1807290,0.956,0.329,0.039,18.3,3.2,-0.2,-7,-38.2,3.2,0.595049898,-0.193884091,-0.660908841,-0.414044618
1000,2504019,1807290,0.953,0.317,0.031,18.7,3.4,-0.2,-6.5,-38.1,2.9,0.595324564,-0.193334758,-0.661183508,-0.413556322
1001,2506372,1807290,0.952,0.321,0.035,18.8,3.4,0,-6.5,-38.1,2.9,0.595446638,-0.193060091,-0.661305582,-0.413281655
1002,2508923,1807300,0.945,0.317,0.039,18.9,3.4,0.3,-6.5,-38.1,2.9,0.595568712,-0.192785424,-0.661427656,-0.413006989
1003,2511394,1807300,0.945,0.317,0.039,19,3.3,0.6,-8.3,-38.4,2.9,0.595538194,-0.192510758,-0.661732841,-0.412701804
1004,2515886,1807300,0.945,0.325,0.035,19,3.1,0.9,-8.3,-38.4,2.9,0.595660268,-0.19226661,-0.661854915,-0.412427137
1005,2518191,1807300,0.945,0.325,0.039,19.1,2.8,1.2,-8.3,-38.4,2.9,0.59581286,-0.191991943,-0.662007508,-0.41215247
1006,2520362,1807310,0.945,0.329,0.039,19.2,2.4,1.5,-8.3,-38.4,2.9,0.595934935,-0.191747795,-0.662129582,-0.411847285
1007,2522561,1807310,0.941,0.333,0.047,19.2,2.1,1.9,-6.8,-38.3,2.9,0.596057009,-0.191503647,-0.662282174,-0.411572619
