sample_index,elapsed_us,device_time_ms,acc_x_g,acc_y_g,acc_z_g,gyro_x_dps,gyro_y_dps,gyro_z_dps,mag_x_ut,mag_y_ut,mag_z_ut,quat_w,quat_x,quat_y,quat_z
0,5816,1804790,0.974,-0.049,0.267,-4.9,-1.4,-3.9,-6.9,23,-23,0.184392834,-0.598437452,-0.126834925,-0.76924955
1,8069,1804790,0.97,-0.053,0.268,-4.9,-1.1,-3.9,-6.9,23,-23,0.18427076,-0.598467971,-0.126834925,-0.76924955
2,10290,1804800,0.966,-0.053,0.275,-4.9,-0.9,-3.8,-6.9,23,-23,0.184118168,-0.598498489,-0.126804407,-0.769280068
3,12675,1804800,0.962,-0.053,0.264,-5,-0.8,-3.8,-7,23.4,-23.1,0.183996094,-0.598529008,-0.126773888,-0.769280068
4,14542,1804800,0.962,-0.057,0.26,-4.9,-0.7,-3.8,-7,23.4,-23.1,0.18387402,-0.598529008,-0.12674337,-0.769310587
5,16843,1804800,0.958,-0.049,0.268,-4.8,-0.5,-3.6,-7,23.4,-23.1,0.183751946,-0.598559526,-0.126712851,-0.769310587
6,19069,1804810,0.958,-0.053,0.264,-4.7,-0.3,-3.5,-7,23.4,-23.1,0.183629872,-0.598590045,-0.126682333,-0.769341105
7,23025,1804810,0.954,-0.049,0.26,-4.4,-0.2,-3.4,-7,23.4,-23.1,0.183507797,-0.598590045,-0.126651814,-0.769371624
8,25297,1804810,0.954,-0.049,0.264,-4.2,-0.2,-3.4,-7,23.4,-23.1,0.183385723,-0.598590045,-0.126621296,-0.769402142
9,27519,1804810,0.954,-0.053,0.26,-3.9,-0.4,-3.5,-7,23.4,-23.1,0.183263649,-0.598620563,-0.126590777,-0.769402142
10,29508,1804820,0.954,-0.049,0.26,-3.6,-0.7,-3.4,-7,23.4,-23.1,0.183172094,-0.598620563,-0.126590777,-0.769432661
11,31721,1804820,0.95,-0.049,0.264,-3.4,-0.9,-3.3,-6.6,22.7,-22.9,0.18305002,-0.598620563,-0.126560259,-0.769432661
12,35070,1804820,0.95,-0.049,0.26,-3.2,-0.9,-3.2,-6.6,22.7,-22.9,0.182958464,-0.5986816,-0.126560259,-0.769432661
13,37028,1804820,0.95,-0.045,0.26,-2.8,-0.8,-3,-6.6,22.7,-22.9,0.18283639,-0.5986816,-0.126560259,-0.769463179
14,39324,1804830,0.946,-0.045,0.268,-2.5,-0.7,-2.8,-6.6,22.7,-22.9,0.182775353,-0.598712119,-0.126560259,-0.769463179
15,41569,1804830,0.95,-0.041,0.26,-2.3,-0.7,-2.8,-7,22.8,-22.4,0.182714316,-0.598712119,-0.126560259,-0.769463179
16,44131,1804830,0.946,-0.041,0.264,-1.9,-0.7,-2.7,-7,22.8,-22.4,0.182622761,-0.598742637,-0.126560259,-0.769463179
17,46347,1804830,0.95,-0.037,0.264,-1.6,-0.7,-2.5,-7,22.8,-22.4,0.182561724,-0.598742637,-0.126560259,-0.769493698
18,50808,1804840,0.942,-0.033,0.264,-1.1,-0.9,-2.4,-7,22.8,-22.4,0.182500687,-0.598773156,-0.126590777,-0.769493698
19,51426,1804840,0.942,-0.033,0.264,-1.1,-0.9,-2.4,-7,22.8,-22.4,0.182500687,-0.598773156,-0.126590777,-0.769493698
20,53831,1804840,0.95,-0.029,0.268,-0.5,-1.3,-2.1,-7.1,23,-22.9,0.182470168,-0.598712119,-0.126560259,-0.769524216
21,57473,1804840,0.946,-0.029,0.268,-0.2,-1.5,-2,-7.1,23,-22.9,0.18243965,-0.598742637,-0.126560259,-0.769524216
22,59494,1804850,0.946,-0.025,0.268,0,-1.7,-1.8,-7.1,23,-22.9,0.182409131,-0.598742637,-0.126590777,-0.769524216
23,61817,1804850,0.946,-0.021,0.268,0.2,-1.7,-1.6,-6.8,22.1,-22.7,0.182378613,-0.598773156,-0.126651814,-0.769493698
24,64307,1804850,0.946,-0.021,0.264,0.4,-1.8,-1.5,-6.8,22.1,-22.7,0.182348094,-0.598803674,-0.126682333,-0.769463179
25,66511,1804850,0.946,-0.013,0.268,0.4,-1.8,-1.4,-6.8,22.1,-22.7,0.182317576,-0.598834193,-0.126712851,-0.769463179
26,68875,1804860,0.946,-0.013,0.264,0.6,-1.8,-1.1,-6.8,22.1,-22.7,0.182317576,-0.598864711,-0.12674337,-0.769432661
27,72517,1804860,0.943,-0.009,0.268,0.7,-1.8,-0.9,-6.8,22.1,-22.7,0.182287057,-0.598864711,-0.126773888,-0.769402142
28,74550,1804860,0.946,-0.009,0.268,0.7,-1.5,-0.7,-6.8,22.1,-22.7,0.182287057,-0.59889523,-0.126804407,-0.769402142
29,76760,1804860,0.946,-0.009,0.264,0.7,-1.2,-0.7,-6.8,22.1,-22.7,0.182287057,-0.598925748,-0.126834925,-0.769371624
30,79243,1804870,0.946,-0.009,0.264,0.7,-1.1,-0.7,-6.8,22.1,-22.7,0.182287057,-0.598925748,-0.126865444,-0.769371624
31,81500,1804870,0.939,-0.005,0.272,0.7,-1.1,-0.5,-7.7,23.2,-22.9,0.182256539,-0.598956267,-0.126865444,-0.769341105
32,83793,1804870,0.943,-0.009,0.264,0.7,-1.1,-0.3,-7.7,23.2,-22.9,0.182287057,-0.598956267,-0.126895962,-0.769341105
33,87538,1804870,0.939,-0.005,0.268,0.7,-1,-0.2,-7.7,23.2,-22.9,0.182287057,-0.598986785,-0.126926481,-0.769310587
34,89545,1804880,0.935,-0.009,0.264,0.6,-0.9,-0.2,-7.7,23.2,-22.9,0.182287057,-0.598986785,-0.126926481,-0.769310587
35,91776,1804880,0.943,-0.009,0.264,0.4,-0.7,-0.2,-7.7,23.2,-22.9,0.182287057,-0.598986785,-0.126956999,-0.769280068
36,94235,1804880,0.939,-0.013,0.264,0.3,-0.7,-0.2,-7.7,23.2,-22.9,0.182287057,-0.599017304,-0.126956999,-0.769280068
37,96563,1804880,0.939,-0.009,0.26,0.1,-0.6,-0.1,-7.7,23.2,-22.9,0.182287057,-0.599017304,-0.126956999,-0.769280068
38,100829,1804890,0.942,-0.013,0.256,0.1,-0.4,0,-7.7,23.2,-22.9,0.182287057,-0.599017304,-0.126987518,-0.769280068
39,103035,1804890,0.942,-0.013,0.256,0.1,-0.4,0,-7.7,23.2,-22.9,0.182287057,-0.599017304,-0.126987518,-0.769280068
40,105233,1804890,0.935,-0.017,0.256,0,-0.2,0.2,-7.7,23.2,-22.9,0.18222602,-0.598803674,-0.127048555,-0.769463179
41,107510,1804890,0.942,-0.017,0.252,-0.1,-0.2,0.3,-7.7,23.2,-22.9,0.18222602,-0.598803674,-0.127048555,-0.769432661
42,109681,1804900,0.942,-0.021,0.248,-0.1,0,0.4,-7.7,23.2,-22.9,0.18222602,-0.598803674,-0.127048555,-0.769432661
43,111818,1804900,0.938,-0.021,0.252,-0.1,0,0.4,-7.7,23.2,-22.9,0.18222602,-0.598803674,-0.127018036,-0.769432661
44,114076,1804900,0.939,-0.017,0.256,-0.1,0,0.4,-7.7,23.2,-22.9,0.182256539,-0.598803674,-0.127018036,-0.769432661
45,118107,1804900,0.942,-0.017,0.252,-0.1,-0.1,0.6,-7.7,23.2,-22.9,0.182256539,-0.598803674,-0.127018036,-0.769432661
46,120291,1804910,0.942,-0.025,0.256,-0.1,-0.2,0.8,-7.7,23.2,-22.9,0.182256539,-0.598803674,-0.126987518,-0.769432661
47,122575,1804910,0.942,-0.021,0.252,0,-0.3,1,-7.7,23.2,-22.9,0.182287057,-0.598834193,-0.126987518,-0.769432661
48,124712,1804910,0.946,-0.025,0.26,0,-0.4,1,-7.7,23.2,-22.9,0.182287057,-0.598834193,-0.126956999,-0.769402142
49,126881,1804910,0.95,-0.029,0.256,0.1,-0.6,1.1,-7.7,23.2,-22.9,0.182317576,-0.598864711,-0.126956999,-0.769402142
50,129056,1804920,0.95,-0.029,0.256,0.1,-0.7,1.3,-7.7,23.2,-22.9,0.182348094,-0.598864711,-0.126956999,-0.769371624
51,131633,1804920,0.95,-0.021,0.26,0.1,-0.8,1.5,-6.4,22,-22.7,0.182378613,-0.59889523,-0.126926481,-0.769371624
52,133986,1804920,0.95,-0.029,0.26,0,-1.1,1.6,-6.4,22,-22.7,0.182378613,-0.59889523,-0.126926481,-0.769341105
53,136277,1804920,0.95,-0.029,0.256,0,-1.3,1.6,-6.4,22,-22.7,0.182409131,-0.598925748,-0.126895962,-0.769310587
54,140051,1804930,0.954,-0.021,0.264,0,-1.6,1.8,-6.4,22,-22.7,0.18243965,-0.598956267,-0.126895962,-0.769280068
55,141783,1804930,0.95,-0.025,0.264,0,-1.8,1.7,-6.4,22,-22.7,0.182470168,-0.599017304,-0.126865444,-0.76924955
56,145093,1804930,0.954,-0.025,0.26,0.2,-2,1.8,-6.4,22,-22.7,0.182500687,-0.599047823,-0.126865444,-0.769219031
57,147105,1804930,0.954,-0.025,0.264,0.3,-2.1,1.9,-6.4,22,-22.7,0.182531205,-0.599078341,-0.126834925,-0.769188513
58,149271,1804940,0.962,-0.021,0.26,0.5,-2.2,2,-6.4,22,-22.7,0.182561724,-0.599139378,-0.126834925,-0.769157994
59,152939,1804940,0.962,-0.021,0.26,0.5,-2.2,2,-6.4,22,-22.7,0.182561724,-0.599139378,-0.126834925,-0.769157994
60,155128,1804940,0.966,-0.014,0.26,0.9,-2.4,2,-6.4,22,-22.7,0.182683798,-0.599078341,-0.126804407,-0.769157994
61,157643,1804940,0.97,-0.022,0.256,1.1,-2.5,2.1,-6.4,22,-22.7,0.182714316,-0.59910886,-0.126804407,-0.769127476
62,159539,1804950,0.97,-0.014,0.26,1.2,-2.7,2.1,-6.4,22,-22.7,0.182744835,-0.599169897,-0.126804407,-0.769066439
63,161686,1804950,0.974,-0.018,0.26,1.4,-2.8,2.1,-6.4,22,-22.7,0.182805872,-0.599200415,-0.126804407,-0.76903592
64,165320,1804950,0.97,-0.014,0.252,1.7,-2.8,2,-6.4,22,-22.7,0.18283639,-0.599261452,-0.126804407,-0.768974883
65,167593,1804950,0.978,-0.01,0.256,2,-2.8,1.9,-6.4,22,-22.7,0.182897427,-0.599291971,-0.126834925,-0.768913846
66,169698,1804960,0.978,-0.022,0.256,2.2,-2.9,1.8,-6.4,22,-22.7,0.182958464,-0.599353008,-0.126865444,-0.768883328
67,171957,1804960,0.978,-0.018,0.256,2.4,-3.1,1.7,-6.4,22,-22.7,0.183019501,-0.599383526,-0.126895962,-0.768822291
68,174450,1804960,0.985,-0.014,0.259,2.6,-3.2,1.7,-6.4,22,-22.7,0.183080538,-0.599444563,-0.126926481,-0.768761254
69,176711,1804960,0.981,-0.014,0.256,2.7,-3.3,1.7,-6.4,22,-22.7,0.183111057,-0.5995056,-0.126956999,-0.768700217
70,179005,1804970,0.985,-0.018,0.255,2.7,-3.3,1.7,-6.4,22,-22.7,0.183172094,-0.599536119,-0.127018036,-0.76863918
71,181529,1804970,0.985,-0.01,0.255,2.8,-3.1,1.7,-6.6,22.5,-23,0.183233131,-0.599597156,-0.127048555,-0.768578143
72,183856,1804970,0.985,-0.018,0.255,2.8,-3,1.5,-6.6,22.5,-23,0.183294168,-0.599627674,-0.127079073,-0.768517106
73,187816,1804970,0.989,-0.01,0.259,2.7,-2.7,1.3,-6.6,22.5,-23,0.183355205,-0.599688711,-0.127109592,-0.768486587
74,189485,1804980,0.985,-0.018,0.259,2.6,-2.4,1.3,-6.6,22.5,-23,0.183385723,-0.59971923,-0.127170629,-0.76842555
75,191737,1804980,0.985,-0.014,0.255,2.3,-2.2,1.4,-6.6,22.5,-23,0.18344676,-0.599749748,-0.127170629,-0.768395032
76,194212,1804980,0.985,-0.014,0.255,2.1,-1.9,1.5,-6.6,22.5,-23,0.183507797,-0.599780267,-0.127170629,-0.768364513
77,196513,1804980,0.985,-0.01,0.259,1.9,-1.7,1.6,-6.6,22.5,-23,0.183538316,-0.599780267,-0.127231666,-0.768333995
78,198802,1804990,0.981,-0.014,0.252,1.7,-1.4,1.5,-6.6,22.5,-23,0.183599353,-0.599810785,-0.127231666,-0.768303476
79,202516,1804990,0.981,-0.014,0.252,1.7,-1.4,1.5,-6.6,22.5,-23,0.183599353,-0.599810785,-0.127231666,-0.768303476
80,204554,1804990,0.978,-0.018,0.256,1.4,-1,1.3,-6.6,22.5,-23,0.183629872,-0.599780267,-0.127323222,-0.768272958
81,206721,1804990,0.978,-0.018,0.252,1.4,-1,1.2,-6.6,22.5,-23,0.18366039,-0.599810785,-0.12735374,-0.768272958
82,210804,1805000,0.978,-0.018,0.248,1.4,-1,1.3,-6.6,22.5,-23,0.183690909,-0.599810785,-0.12735374,-0.768242439
83,212995,1805000,0.982,-0.01,0.256,1.5,-1.1,1.4,-6.7,22.6,-22.8,0.183751946,-0.599841304,-0.12735374,-0.768211921
84,215195,1805000,0.978,-0.014,0.252,1.6,-1.1,1.6,-6.7,22.6,-22.8,0.183782464,-0.599871822,-0.127384259,-0.768181402
85,217243,1805000,0.978,-0.01,0.256,1.6,-1.3,1.7,-6.7,22.6,-22.8,0.183812983,-0.599871822,-0.127384259,-0.768150884
86,219495,1805010,0.974,-0.01,0.256,1.6,-1.3,1.7,-6.7,22.6,-22.8,0.18387402,-0.599902341,-0.127384259,-0.768120365
87,221689,1805010,0.978,-0.01,0.256,1.7,-1.3,1.7,-6.6,22.4,-22.7,0.183935057,-0.599932859,-0.127414777,-0.768089846
88,225764,1805010,0.978,-0.006,0.256,1.8,-1.1,1.9,-6.6,22.4,-22.7,0.183965575,-0.599932859,-0.127414777,-0.768089846
89,228027,1805010,0.974,-0.002,0.252,1.9,-1,2.1,-6.6,22.4,-22.7,0.184026612,-0.599963378,-0.127414777,-0.768059328
90,230217,1805020,0.978,-0.002,0.256,2,-1,2.4,-6.6,22.4,-22.7,0.184118168,-0.599963378,-0.127445296,-0.768028809
91,232490,1805020,0.974,0.001,0.252,2.1,-1,2.6,-7.4,22.6,-22.7,0.184179205,-0.599993896,-0.127445296,-0.767998291
92,234521,1805020,0.97,0.009,0.256,2.2,-1,2.9,-7.4,22.6,-22.7,0.184240242,-0.599993896,-0.127445296,-0.767967772
93,237016,1805020,0.974,0.012,0.256,2.4,-1,3.1,-7.4,22.6,-22.7,0.184331797,-0.600024415,-0.127445296,-0.767937254
94,239510,1805030,0.974,0.012,0.252,2.5,-0.8,3.3,-7.4,22.6,-22.7,0.184423353,-0.600024415,-0.127445296,-0.767876217
95,241770,1805030,0.974,0.012,0.248,2.5,-0.8,3.3,-6.4,22.5,-22.8,0.184514908,-0.600054933,-0.127445296,-0.767845698
96,245024,1805030,0.974,0.012,0.244,2.6,-0.5,3.7,-6.4,22.5,-22.8,0.184606464,-0.600054933,-0.127445296,-0.76781518
97,247058,1805030,0.974,0.012,0.244,2.6,-0.5,3.7,-6.4,22.5,-22.8,0.184698019,-0.600054933,-0.127445296,-0.76781518
98,249297,1805040,0.974,0.012,0.244,2.6,-0.2,4.2,-6.4,22.5,-22.8,0.184789575,-0.600054933,-0.127445296,-0.767784661
99,251720,1805040,0.974,0.012,0.244,2.6,-0.2,4.2,-6.4,22.5,-22.8,0.184789575,-0.600054933,-0.127445296,-0.767784661
100,254042,1805040,0.978,0.02,0.24,2.7,-0.2,4.4,-6.3,22.5,-22.6,0.184728538,-0.599993896,-0.127780999,-0.767784661
101,256379,1805040,0.97,0.016,0.244,2.7,-0.1,4.7,-6.3,22.5,-22.6,0.184850612,-0.600024415,-0.127780999,-0.767754143
102,259007,1805050,0.97,0.02,0.244,2.7,-0.1,4.7,-6.3,22.5,-22.6,0.184972686,-0.600024415,-0.127750481,-0.767723624
103,263405,1805050,0.974,0.02,0.24,2.7,-0.1,4.7,-6.7,22.8,-22.4,0.185064241,-0.600024415,-0.127750481,-0.767693106
104,265641,1805050,0.974,0.02,0.244,2.5,-0.2,4.7,-6.7,22.8,-22.4,0.185186316,-0.600024415,-0.127719962,-0.767662587
105,267830,1805050,0.97,0.02,0.24,2.2,0,4.8,-6.7,22.8,-22.4,0.18530839,-0.600024415,-0.127689444,-0.767632069
106,269509,1805060,0.97,0.024,0.24,1.8,0.1,4.9,-6.7,22.8,-22.4,0.185399945,-0.600024415,-0.127658925,-0.76760155
107,271878,1805060,0.97,0.024,0.24,1.5,0.3,5,-6.4,22.7,-22.8,0.185522019,-0.600024415,-0.127628407,-0.76760155
108,274145,1805060,0.97,0.024,0.236,1.1,0.5,5.1,-6.4,22.7,-22.8,0.185613575,-0.600024415,-0.12756737,-0.767571032
109,276646,1805060,0.966,0.024,0.24,0.5,0.6,5.2,-6.4,22.7,-22.8,0.18570513,-0.600054933,-0.127506333,-0.767571032
110,279050,1805070,0.97,0.024,0.236,0,0.7,5.3,-6.4,22.7,-22.8,0.185766167,-0.600054933,-0.127445296,-0.767540513
111,281472,1805070,0.97,0.016,0.232,-0.6,0.8,5.4,-7.8,22.4,-22.8,0.185888241,-0.600054933,-0.12735374,-0.767540513
112,283804,1805070,0.966,0.02,0.236,-1.2,0.8,5.3,-7.8,22.4,-22.8,0.185979797,-0.600054933,-0.127262185,-0.767540513
113,287584,1805070,0.966,0.02,0.236,-1.8,0.8,5.3,-7.8,22.4,-22.8,0.186040834,-0.600054933,-0.12714011,-0.767540513
114,289333,1805080,0.97,0.024,0.244,-2.4,0.8,5.2,-7.8,22.4,-22.8,0.186101871,-0.600085452,-0.127048555,-0.767540513
115,293466,1805080,0.97,0.016,0.24,-2.8,0.9,5.2,-6.5,22.4,-22.6,0.186132389,-0.600085452,-0.126926481,-0.767509995
116,295659,1805080,0.966,0.02,0.24,-3.3,0.9,5.1,-6.5,22.4,-22.6,0.186193426,-0.600085452,-0.126804407,-0.767540513
117,297814,1805080,0.966,0.016,0.236,-3.8,0.9,5,-6.5,22.4,-22.6,0.186223945,-0.60011597,-0.126651814,-0.767540513
118,300160,1805090,0.962,0.017,0.236,-4.4,0.9,4.9,-6.5,22.4,-22.6,0.186254463,-0.60011597,-0.12652974,-0.767540513
119,302503,1805090,0.962,0.017,0.236,-4.4,0.9,4.9,-6.5,22.4,-22.6,0.186254463,-0.60011597,-0.12652974,-0.767540513
120,304698,1805090,0.962,0.017,0.236,-5.7,0.9,4.8,-6.2,22.8,-22.5,0.185857723,-0.60011597,-0.126712851,-0.76760155
121,306855,1805090,0.958,0.013,0.232,-6.4,0.9,4.6,-6.2,22.8,-22.5,0.185857723,-0.600146489,-0.12652974,-0.76760155
122,309111,1805100,0.962,0.013,0.232,-6.9,0.9,4.6,-6.2,22.8,-22.5,0.185857723,-0.600177007,-0.126377148,-0.767632069
123,312840,1805100,0.958,0.017,0.232,-7.2,0.9,4.4,-6.2,22.4,-22.7,0.185827204,-0.600177007,-0.126163518,-0.767632069
124,315174,1805100,0.962,0.016,0.232,-7.5,1,4.2,-6.2,22.4,-22.7,0.185766167,-0.600207526,-0.125980407,-0.767662587
125,316970,1805100,0.954,0.013,0.232,-7.7,0.9,4,-6.2,22.4,-22.7,0.185766167,-0.600238044,-0.125797296,-0.767662587
126,319271,1805110,0.954,0.013,0.236,-7.9,0.9,3.8,-6.2,22.4,-22.7,0.185735649,-0.600268563,-0.125614185,-0.767693106
127,322802,1805110,0.954,0.013,0.229,-8.1,0.9,3.6,-6.2,22.6,-22.7,0.18570513,-0.600299081,-0.125431074,-0.767723624
128,325031,1805110,0.954,0.013,0.232,-8.3,0.7,3.3,-6.2,22.6,-22.7,0.185644093,-0.6003296,-0.125217444,-0.767723624
129,327164,1805110,0.954,0.013,0.229,-8.5,0.6,3,-6.2,22.6,-22.7,0.185583056,-0.600360118,-0.125064852,-0.767754143
130,329393,1805120,0.954,0.013,0.236,-8.6,0.3,2.7,-6.2,22.6,-22.7,0.185522019,-0.600390637,-0.124881741,-0.767754143
131,331928,1805120,0.954,0.013,0.229,-8.6,0,2.5,-7,22.8,-22.5,0.185460982,-0.600421155,-0.12469863,-0.767784661
132,334503,1805120,0.958,0.013,0.229,-8.6,-0.2,2.2,-7,22.8,-22.5,0.185369427,-0.600482192,-0.124515519,-0.767784661
133,336623,1805120,0.958,0.017,0.232,-8.6,-0.3,1.9,-7,22.8,-22.5,0.185277871,-0.600543229,-0.124362926,-0.76781518
134,340703,1805130,0.954,0.013,0.229,-8.7,-0.5,1.6,-7,22.8,-22.5,0.185216834,-0.600573748,-0.124179815,-0.76781518
135,343071,1805130,0.954,0.017,0.229,-8.8,-0.6,1.4,-6.7,22.6,-22.6,0.185125278,-0.600634785,-0.124027223,-0.76781518
136,344679,1805130,0.954,0.013,0.236,-8.8,-0.8,1.1,-6.7,22.6,-22.6,0.185003204,-0.600665304,-0.12387463,-0.76781518
137,346968,1805130,0.954,0.013,0.229,-9,-0.9,0.9,-6.7,22.6,-22.6,0.184911649,-0.600726341,-0.123691519,-0.767845698
138,349149,1805140,0.958,0.017,0.236,-9.1,-1,0.7,-6.7,22.6,-22.6,0.184789575,-0.600787378,-0.123538926,-0.767845698
139,352766,1805140,0.958,0.017,0.236,-9.1,-1,0.7,-6.7,22.6,-22.6,0.184789575,-0.600787378,-0.123538926,-0.767845698
140,355084,1805140,0.954,0.017,0.232,-9.7,-1.4,0.1,-6.5,22.8,-22.3,0.184179205,-0.600909452,-0.123691519,-0.767876217
141,357187,1805140,0.954,0.017,0.232,-10.1,-1.6,-0.1,-6.5,22.8,-22.3,0.184057131,-0.600970489,-0.123508408,-0.767876217
142,359487,1805150,0.954,0.021,0.232,-10.4,-1.6,-0.4,-6.5,22.8,-22.3,0.183904538,-0.601031526,-0.123355815,-0.767906735
143,361650,1805150,0.954,0.021,0.232,-10.7,-1.7,-0.6,-6.6,22.9,-22.4,0.183751946,-0.601123081,-0.123203223,-0.767906735
144,363811,1805150,0.954,0.021,0.229,-11,-1.8,-0.8,-6.6,22.9,-22.4,0.183568834,-0.601184118,-0.123020112,-0.767906735
145,366613,1805150,0.958,0.024,0.228,-11.5,-1.9,-1,-6.6,22.9,-22.4,0.183385723,-0.601275674,-0.122867519,-0.767906735
146,368914,1805160,0.962,0.016,0.228,-11.9,-2.2,-1.2,-6.6,22.9,-22.4,0.183202612,-0.601336711,-0.12265389,-0.767937254
147,372621,1805160,0.958,0.02,0.228,-12.3,-2.3,-1.4,-6.5,22.9,-21.9,0.183019501,-0.601428266,-0.122501297,-0.767937254
148,375079,1805160,0.958,0.02,0.221,-12.5,-2.3,-1.7,-6.5,22.9,-21.9,0.18283639,-0.601519822,-0.122318186,-0.767937254
149,376974,1805160,0.962,0.02,0.225,-12.8,-2.2,-2,-6.5,22.9,-21.9,0.182622761,-0.601611377,-0.122135075,-0.767967772
150,379165,1805170,0.958,0.016,0.221,-13.1,-2.2,-2.3,-6.5,22.9,-21.9,0.182409131,-0.601672414,-0.121951964,-0.767967772
151,382440,1805170,0.966,0.02,0.224,-13.4,-2.1,-2.6,-6.7,22.9,-23.2,0.182164983,-0.60176397,-0.121768853,-0.767998291
152,384514,1805170,0.962,0.02,0.228,-13.8,-2.1,-2.8,-6.7,22.9,-23.2,0.181920835,-0.601855525,-0.121585742,-0.767998291
153,387066,1805170,0.966,0.016,0.228,-14.2,-2.3,-3.1,-6.7,22.9,-23.2,0.181676687,-0.601947081,-0.121402631,-0.768028809
154,389415,1805180,0.966,0.016,0.228,-14.5,-2.4,-3.5,-6.7,22.9,-23.2,0.181432539,-0.602038636,-0.121189001,-0.768059328
155,391586,1805180,0.97,0.016,0.22,-14.9,-2.6,-3.8,-6.9,22.7,-21.8,0.181157872,-0.602130192,-0.121036409,-0.768059328
156,395568,1805180,0.966,0.016,0.228,-15.2,-2.7,-4,-6.9,22.7,-21.8,0.180883206,-0.602221747,-0.120853298,-0.768089846
157,397584,1805180,0.97,0.016,0.224,-15.6,-2.8,-4.2,-6.9,22.7,-21.8,0.180608539,-0.602313303,-0.120639668,-0.768120365
158,399591,1805190,0.97,0.016,0.228,-16,-2.9,-4.2,-6.9,22.7,-21.8,0.180303354,-0.602404859,-0.120426038,-0.768120365
159,401790,1805190,0.97,0.016,0.228,-16,-2.9,-4.2,-6.9,22.7,-21.8,0.180303354,-0.602404859,-0.120426038,-0.768120365
160,405266,1805190,0.97,0.016,0.228,-16.9,-3.1,-4.4,-7,22.6,-21.3,0.179326762,-0.602679525,-0.120487075,-0.768150884
161,407549,1805190,0.974,0.016,0.236,-17.3,-3.3,-4.5,-7,22.6,-21.3,0.179021577,-0.602801599,-0.120273446,-0.768150884
162,409656,1805200,0.974,0.02,0.228,-17.7,-3.3,-4.6,-7,22.6,-21.3,0.178685873,-0.602923673,-0.120059816,-0.768181402
163,411862,1805200,0.974,0.02,0.228,-18,-3.6,-4.7,-7.4,22.7,-21,0.178380688,-0.603015229,-0.119815668,-0.768211921
164,414116,1805200,0.974,0.016,0.232,-18.3,-3.8,-4.9,-7.4,22.7,-21,0.178044984,-0.603167821,-0.119602039,-0.768211921
165,416445,1805200,0.978,0.02,0.22,-18.8,-3.9,-5.2,-7.4,22.7,-21,0.177678762,-0.603289895,-0.119357891,-0.768242439
166,420651,1805210,0.974,0.016,0.228,-19.2,-3.8,-5.5,-7.4,22.7,-21,0.177343059,-0.603411969,-0.119144261,-0.768242439
167,422962,1805210,0.974,0.016,0.228,-19.6,-3.6,-5.8,-7.1,22.8,-20.7,0.176976836,-0.603534043,-0.118900113,-0.768272958
168,424589,1805210,0.974,0.02,0.224,-19.9,-3.5,-5.9,-7.1,22.8,-20.7,0.176580096,-0.603656117,-0.118655965,-0.768303476
169,426686,1805210,0.981,0.016,0.22,-20.1,-3.5,-6,-7.1,22.8,-20.7,0.176213874,-0.603778191,-0.118411817,-0.768333995
170,428955,1805220,0.977,0.016,0.22,-20.1,-3.3,-6.2,-7.1,22.8,-20.7,0.175847652,-0.603869747,-0.118167669,-0.768364513
171,431248,1805220,0.974,0.016,0.216,-20.3,-3.1,-6.4,-7,23.2,-24,0.175450911,-0.603991821,-0.117923521,-0.768395032
172,435721,1805220,0.974,0.016,0.216,-20.4,-3,-6.6,-7,23.2,-24,0.175023652,-0.604113895,-0.117679373,-0.768456069
173,437867,1805220,0.977,0.016,0.216,-20.5,-2.8,-6.7,-7,23.2,-24,0.174687948,-0.604235969,-0.117435224,-0.768486587
174,439595,1805230,0.981,0.016,0.212,-20.5,-2.7,-6.9,-7,23.2,-24,0.174291208,-0.604327525,-0.117191076,-0.768517106
175,442098,1805230,0.974,0.016,0.213,-20.6,-2.6,-7,-6.8,23.4,-21.7,0.173894467,-0.60441908,-0.116946928,-0.768578143
176,444145,1805230,0.977,0.012,0.209,-20.7,-2.5,-7.1,-6.8,23.4,-21.7,0.173467208,-0.604541154,-0.11670278,-0.768608661
177,447417,1805230,0.977,0.012,0.209,-20.8,-2.5,-7,-6.8,23.4,-21.7,0.173070467,-0.60463271,-0.116458632,-0.768669698
178,449445,1805240,0.974,0.016,0.213,-20.9,-2.5,-7,-6.8,23.4,-21.7,0.172673727,-0.604754784,-0.116214484,-0.768700217
179,452517,1805240,0.974,0.016,0.213,-20.9,-2.5,-7,-6.8,23.4,-21.7,0.172673727,-0.604754784,-0.116214484,-0.768700217
180,453950,1805240,0.973,0.016,0.205,-21.2,-2.7,-7,-6.6,23.6,-21.8,0.171391949,-0.605212561,-0.11630604,-0.768608661
181,457339,1805240,0.974,0.02,0.205,-21.4,-2.6,-7,-6.6,23.6,-21.8,0.170995209,-0.605304117,-0.116061892,-0.768669698
182,459584,1805250,0.97,0.016,0.201,-21.5,-2.6,-6.9,-6.6,23.6,-21.8,0.170567949,-0.605426191,-0.115787225,-0.768700217
183,461952,1805250,0.97,0.016,0.205,-21.7,-2.5,-6.9,-7,23.3,-22.2,0.17014069,-0.605517747,-0.115543077,-0.768761254
184,464158,1805250,0.966,0.016,0.201,-22,-2.6,-6.8,-7,23.3,-22.2,0.16974395,-0.605639821,-0.11526841,-0.768791772
185,468196,1805250,0.966,0.016,0.197,-22.3,-2.7,-7,-7,23.3,-22.2,0.169316691,-0.605731376,-0.114993744,-0.768852809
186,470219,1805260,0.97,0.012,0.197,-22.8,-2.6,-7.1,-7,23.3,-22.2,0.168889431,-0.60585345,-0.114719077,-0.768913846
187,471729,1805260,0.973,0.012,0.185,-23.1,-2.3,-7.2,-7,23.4,-22.8,0.168462172,-0.605945006,-0.114413892,-0.768944365
188,474636,1805260,0.969,0.012,0.185,-23.4,-2,-7.2,-7,23.4,-22.8,0.168034913,-0.60606708,-0.114139225,-0.769005402
189,477922,1805260,0.973,0.012,0.189,-23.9,-1.7,-7.4,-7,23.4,-22.8,0.167577136,-0.606158635,-0.11383404,-0.769066439
190,479958,1805270,0.973,0.008,0.185,-24.3,-1.4,-7.5,-7,23.4,-22.8,0.167119358,-0.606250191,-0.113528855,-0.769157994
191,481483,1805270,0.977,0,0.189,-24.8,-1.1,-7.7,-7,23.6,-22.2,0.16666158,-0.606341746,-0.11322367,-0.769219031
192,484496,1805270,0.977,0,0.185,-25.4,-1,-7.9,-7,23.6,-22.2,0.166203803,-0.606433302,-0.112887967,-0.769310587
193,486603,1805270,0.977,-0.003,0.189,-25.9,-0.9,-8,-7,23.6,-22.2,0.165715506,-0.606524857,-0.112582781,-0.769371624
194,490342,1805280,0.985,-0.007,0.197,-26.5,-1,-8.1,-7,23.6,-22.2,0.16522721,-0.606616413,-0.112247078,-0.769463179
195,492510,1805280,0.985,-0.01,0.193,-27.2,-1.2,-8.1,-6.7,23.9,-21.8,0.164708396,-0.606707968,-0.111911374,-0.769524216
196,493879,1805280,0.993,-0.011,0.193,-27.8,-1.6,-8,-6.7,23.9,-21.8,0.164220099,-0.606830042,-0.111545152,-0.769615772
197,496910,1805280,0.993,-0.011,0.197,-28.3,-2,-7.9,-6.7,23.9,-21.8,0.163701285,-0.606952116,-0.11117893,-0.769676809
198,500013,1805290,1.001,-0.011,0.204,-28.7,-2.5,-7.8,-6.7,23.9,-21.8,0.16318247,-0.60707419,-0.110812708,-0.769737846
199,501463,1805290,1.001,-0.011,0.204,-28.7,-2.5,-7.8,-6.7,23.9,-21.8,0.16318247,-0.60707419,-0.110812708,-0.769737846
200,504519,1805290,1.005,0,0.204,-29.3,-3.6,-7.6,-7,23.8,-22.1,0.161992248,-0.607623524,-0.110232856,-0.76964629
201,506699,1805290,1.009,0.004,0.212,-29.5,-4.3,-7.5,-7,23.8,-22.1,0.161473434,-0.607776116,-0.109836116,-0.769676809
202,509601,1805300,1.009,0.008,0.208,-29.6,-5.2,-7.4,-7,23.8,-22.1,0.1609241,-0.607959227,-0.109469893,-0.769707327
203,511519,1805300,1.009,0.012,0.212,-29.8,-6,-7.1,-7.2,24.2,-21.9,0.160374767,-0.608142338,-0.109073153,-0.769737846
204,514546,1805300,1.013,0.012,0.208,-29.8,-6.7,-6.8,-7.2,24.2,-21.9,0.159886471,-0.608355968,-0.108676412,-0.769737846
205,516843,1805300,1.009,0.016,0.212,-29.7,-7.3,-6.5,-7.2,24.2,-21.9,0.159367656,-0.608569597,-0.10831019,-0.769737846
206,520351,1805310,1.013,0.023,0.208,-29.2,-7.7,-6.1,-7.2,24.2,-21.9,0.158848842,-0.608783227,-0.10791345,-0.769707327
207,523238,1805310,1.009,0.027,0.212,-28.8,-8.1,-5.8,-7.1,24,-22,0.158330027,-0.608996857,-0.107516709,-0.769707327
208,525491,1805310,1.013,0.031,0.208,-28.2,-8.3,-5.5,-7.1,24,-22,0.157841731,-0.609210486,-0.107181005,-0.769676809
209,527683,1805310,1.009,0.031,0.204,-27.6,-8.5,-5.4,-7.1,24,-22,0.157383953,-0.609454634,-0.106814783,-0.76964629
210,529670,1805320,1.005,0.035,0.192,-27,-8.5,-5.3,-7.1,24,-22,0.156895657,-0.609668264,-0.106448561,-0.769615772
211,532021,1805320,1.005,0.039,0.196,-26.4,-8.3,-5.4,-7.4,23.9,-21.1,0.15643788,-0.609881893,-0.106112857,-0.769585253
212,534341,1805320,1.005,0.035,0.177,-26,-7.9,-5.4,-7.4,23.9,-21.1,0.155980102,-0.610095523,-0.105777154,-0.769554735
213,536519,1805320,1.005,0.035,0.181,-25.6,-7.2,-5.4,-7.4,23.9,-21.1,0.155491806,-0.610309153,-0.10544145,-0.769524216
214,540480,1805330,1.001,0.039,0.173,-25.5,-6.5,-5.5,-7.4,23.9,-21.1,0.155095065,-0.610492264,-0.105075228,-0.769524216
215,542668,1805330,1.001,0.031,0.173,-25.4,-5.7,-5.6,-7.6,23.9,-21.5,0.154637288,-0.610644856,-0.104770043,-0.769524216
216,544941,1805330,1.005,0.027,0.161,-25.4,-4.9,-5.7,-7.6,23.9,-21.5,0.15417951,-0.610797449,-0.104434339,-0.769524216
217,546894,1805330,1.004,0.019,0.157,-25.5,-3.8,-5.7,-7.6,23.9,-21.5,0.153752251,-0.610950041,-0.104098636,-0.769554735
218,549146,1805340,1.001,0.019,0.153,-25.7,-2.9,-5.6,-7.6,23.9,-21.5,0.153294473,-0.611072115,-0.103762932,-0.769585253
219,552117,1805340,1.001,0.019,0.153,-25.7,-2.9,-5.6,-7.6,23.9,-21.5,0.153294473,-0.611072115,-0.103762932,-0.769585253
220,554394,1805340,1.012,0.015,0.145,-26.1,-1.2,-5.7,-7.7,23.4,-21.3,0.152043214,-0.611682485,-0.103488266,-0.769402142
221,557382,1805340,1.012,0.011,0.141,-26.4,-0.5,-5.9,-7.7,23.4,-21.3,0.151585437,-0.611774041,-0.103122044,-0.769463179
222,558724,1805350,1.016,0.007,0.141,-26.8,0,-6.1,-7.7,23.4,-21.3,0.151127659,-0.611835078,-0.102755821,-0.769554735
223,562662,1805350,1.02,0.007,0.137,-27.4,0.4,-6.1,-7.9,23,-21,0.150669881,-0.611896115,-0.102359081,-0.76964629
224,564490,1805350,1.02,0.003,0.137,-28.3,0.9,-6,-7.9,23,-21,0.150181585,-0.611987671,-0.10196234,-0.769737846
225,567430,1805350,1.028,0.007,0.145,-29.4,1.4,-5.7,-7.9,23,-21,0.149693289,-0.612018189,-0.101535081,-0.769829402
226,568796,1805360,1.032,0.007,0.141,-30.6,1.8,-5.6,-7.9,23,-21,0.149204993,-0.612079226,-0.101107822,-0.769951476
227,572476,1805360,1.028,0.003,0.145,-32,2.1,-5.4,-7.9,23,-21.4,0.14865566,-0.612140263,-0.100619526,-0.77007355
228,574469,1805360,1.032,0.007,0.145,-33.2,2.2,-5.2,-7.9,23,-21.4,0.148136845,-0.6122013,-0.10013123,-0.770195624
229,576777,1805360,1.032,0,0.149,-34.4,2.2,-5.1,-7.9,23,-21.4,0.14761803,-0.612262337,-0.0996124149,-0.770317698
230,579791,1805370,1.032,0.003,0.153,-35.5,2.1,-5,-7.9,23,-21.4,0.147038179,-0.612323374,-0.0990936003,-0.770439772
231,581283,1805370,1.028,0,0.157,-36.5,1.9,-4.9,-7.4,25.3,-19.8,0.146488845,-0.61241493,-0.0985137486,-0.770561846
232,583729,1805370,1.028,0,0.161,-37.5,1.7,-4.9,-7.4,25.3,-19.8,0.145908994,-0.612475967,-0.0979644154,-0.770653401
233,587416,1805370,1.032,0.003,0.168,-38.5,1.4,-4.9,-7.4,25.3,-19.8,0.145298624,-0.612567522,-0.0973845637,-0.770775475
234,589406,1805380,1.024,0.003,0.172,-39.4,1,-5,-7.4,25.3,-19.8,0.144688253,-0.612659078,-0.0967741935,-0.770897549
235,591912,1805380,1.02,0.007,0.173,-40.2,0.6,-5,-7.6,23.9,-22.1,0.144077883,-0.612781152,-0.0961638234,-0.771019623
236,593991,1805380,1.012,0.011,0.177,-40.9,0.3,-5,-7.6,23.9,-22.1,0.143436995,-0.612872707,-0.0955229347,-0.771111179
237,597053,1805380,1.009,0.012,0.184,-41.5,-0.1,-5,-7.6,23.9,-22.1,0.142796106,-0.612994781,-0.0949125645,-0.771202734
238,599300,1805390,1.005,0.012,0.185,-41.9,-0.5,-5.3,-7.6,23.9,-22.1,0.142155217,-0.613147374,-0.0942716758,-0.771324808
239,602354,1805390,1.005,0.012,0.185,-41.9,-0.5,-5.3,-7.6,23.9,-22.1,0.142155217,-0.613147374,-0.0942716758,-0.771324808
240,603790,1805390,0.993,0.016,0.193,-42.3,-1.3,-5.8,-7.6,23.9,-21.8,0.140568255,-0.613696707,-0.0932950835,-0.771263771
241,606859,1805390,0.973,0.016,0.193,-42.2,-1.6,-6.1,-7.6,23.9,-21.8,0.139866329,-0.6138493,-0.0926847133,-0.771355327
242,610138,1805400,0.973,0.02,0.193,-42.1,-1.9,-6.4,-7.6,23.9,-21.8,0.13922544,-0.614001892,-0.0920438246,-0.771446883
243,612389,1805400,0.97,0.02,0.193,-41.9,-2.4,-6.5,-7.9,24,-21.6,0.138554033,-0.614154485,-0.0914029359,-0.77150792
244,613845,1805400,0.966,0.024,0.197,-41.8,-2.9,-6.7,-7.9,24,-21.6,0.137882626,-0.614307077,-0.0908536027,-0.771568957
245,616847,1805400,0.95,0.036,0.193,-41.6,-3.5,-6.6,-7.9,24,-21.6,0.137211219,-0.614490188,-0.0902432325,-0.771629994
246,620086,1805410,0.95,0.048,0.189,-41.6,-4.1,-6.6,-7.9,24,-21.6,0.136509293,-0.614642781,-0.0896328623,-0.771660512
247,622138,1805410,0.942,0.044,0.19,-41.8,-4.4,-6.4,-7.8,24.5,-21.4,0.135837886,-0.61485641,-0.0890224921,-0.771721549
248,624206,1805410,0.95,0.056,0.186,-41.8,-4.7,-6.3,-7.8,24.5,-21.4,0.135166478,-0.615039521,-0.0884426405,-0.771752068
249,627485,1805410,0.946,0.052,0.174,-41.8,-4.8,-6.3,-7.8,24.5,-21.4,0.134495071,-0.615222633,-0.0878322703,-0.771782586
250,629578,1805420,0.946,0.056,0.174,-41.6,-4.7,-6.4,-7.8,24.5,-21.4,0.133793146,-0.615405744,-0.0872219001,-0.771813105
251,631833,1805420,0.95,0.059,0.17,-41.4,-4.4,-6.3,-7.5,25.6,-19.8,0.133121738,-0.615588855,-0.0866115299,-0.771843623
252,635063,1805420,0.95,0.059,0.166,-41.2,-4,-6.2,-7.5,25.6,-19.8,0.13248085,-0.615771966,-0.0860316782,-0.77190466
253,637364,1805420,0.954,0.051,0.166,-41.2,-3.4,-6.1,-7.5,25.6,-19.8,0.131809442,-0.615955077,-0.085421308,-0.771935179
254,639419,1805430,0.954,0.051,0.162,-41.6,-2.7,-6.2,-7.5,25.6,-19.8,0.131138035,-0.616107669,-0.0848109378,-0.771996216
255,642679,1805430,0.954,0.051,0.162,-42.3,-2,-6.2,-8,25.1,-20,0.130466628,-0.616229743,-0.0842005676,-0.772057253
256,644988,1805430,0.958,0.036,0.162,-43.3,-1.3,-6.3,-8,25.1,-20,0.129764702,-0.616382336,-0.0835596789,-0.772148808
257,647015,1805430,0.954,0.032,0.154,-44.6,-0.6,-6.1,-8,25.1,-20,0.129062777,-0.61650441,-0.0828882717,-0.772240364
258,649260,1805440,0.958,0.02,0.162,-46,0.1,-6,-8,25.1,-20,0.128330332,-0.616626484,-0.082186346,-0.772331919
259,651866,1805440,0.958,0.02,0.162,-46,0.1,-6,-8,25.1,-20,0.128330332,-0.616626484,-0.082186346,-0.772331919
260,654576,1805440,0.962,0.008,0.162,-49.4,1.3,-5.7,-8.1,25.9,-20.2,0.126621296,-0.616962188,-0.0809045686,-0.772484512
261,656762,1805440,0.962,-0.002,0.17,-51.3,1.8,-5.6,-8.1,25.9,-20.2,0.125827815,-0.617084262,-0.0801110874,-0.772606586
262,658925,1805450,0.962,-0.002,0.17,-53,2.1,-5.6,-8.1,25.9,-20.2,0.125034333,-0.617175817,-0.0792870876,-0.77272866
263,661350,1805450,0.958,-0.026,0.17,-54.8,2.4,-5.5,-8,26.3,-20.2,0.124210334,-0.617267373,-0.0784325694,-0.772881252
264,663751,1805450,0.961,-0.038,0.17,-56.5,2.7,-5.4,-8,26.3,-20.2,0.123355815,-0.617358928,-0.0775475326,-0.773033845
265,668258,1805450,0.957,-0.041,0.17,-58,3,-5.2,-8,26.3,-20.2,0.122501297,-0.617450484,-0.0766319773,-0.773186438
266,670352,1805460,0.954,-0.061,0.174,-59.6,3.1,-5.2,-8,26.3,-20.2,0.12161626,-0.617572558,-0.0756859035,-0.77333903
267,672559,1805460,0.957,-0.065,0.182,-61.1,3.3,-5.1,-7.9,26.3,-19.6,0.120700705,-0.617664113,-0.0747093112,-0.773491623
268,674682,1805460,0.954,-0.065,0.186,-62.5,3.4,-5.1,-7.9,26.3,-19.6,0.11978515,-0.617755669,-0.0737022004,-0.773674734
269,676910,1805460,0.954,-0.072,0.19,-63.6,3.2,-4.9,-7.9,26.3,-19.6,0.118839076,-0.617847224,-0.0726950896,-0.773827326
270,679077,1805470,0.946,-0.072,0.194,-64.7,2.8,-4.9,-7.9,26.3,-19.6,0.117893002,-0.617969298,-0.0716574602,-0.773979919
271,682405,1805470,0.95,-0.08,0.19,-65.4,2.1,-4.9,-8.1,25.8,-19.1,0.11691641,-0.618091372,-0.0706198309,-0.774132511
272,684445,1805470,0.95,-0.076,0.201,-66.1,1.3,-5.2,-8.1,25.8,-19.1,0.115939817,-0.618213446,-0.0695822016,-0.774254585
273,686724,1805470,0.946,-0.08,0.201,-66.7,0.6,-5.3,-8.1,25.8,-19.1,0.114963225,-0.618366039,-0.0685140538,-0.774376659
274,689623,1805480,0.946,-0.084,0.209,-67,0,-5.4,-8.1,25.8,-19.1,0.113956114,-0.61854915,-0.0674459059,-0.774498733
275,691891,1805480,0.938,-0.084,0.206,-67.1,-0.6,-5.6,-7.7,26,-18.8,0.112949004,-0.618701743,-0.0664082766,-0.774590289
276,694160,1805480,0.938,-0.088,0.202,-67,-1.2,-5.8,-7.7,26,-18.8,0.111911374,-0.618884854,-0.0653401288,-0.774681845
277,697116,1805480,0.938,-0.088,0.209,-66.8,-1.8,-6.1,-7.7,26,-18.8,0.110934782,-0.619067965,-0.0643024995,-0.7747734
278,699412,1805490,0.934,-0.084,0.21,-66.3,-2.2,-6.4,-7.7,26,-18.8,0.109927671,-0.619251076,-0.0632648701,-0.774834437
279,701252,1805490,0.934,-0.084,0.21,-66.3,-2.2,-6.4,-7.7,26,-18.8,0.109927671,-0.619251076,-0.0632648701,-0.774834437
280,704638,1805490,0.934,-0.088,0.21,-64.7,-2.6,-7.2,-8,25.9,-18.3,0.10831019,-0.61976989,-0.0607623524,-0.774864956
281,706922,1805490,0.93,-0.088,0.206,-63.7,-2.6,-7.6,-8,25.9,-18.3,0.107333598,-0.619953001,-0.0598162786,-0.774925993
282,709111,1805500,0.93,-0.088,0.206,-62.7,-2.8,-8,-8,25.9,-18.3,0.106326487,-0.620136113,-0.0588702048,-0.77498703
283,712124,1805500,0.934,-0.092,0.194,-61.6,-3,-8.6,-8.1,26.4,-18.7,0.105349895,-0.620319224,-0.0579546495,-0.775048067
284,714385,1805500,0.93,-0.092,0.198,-60.5,-3.2,-9.2,-8.1,26.4,-18.7,0.104373302,-0.620502335,-0.0570390942,-0.775109104
285,716504,1805500,0.934,-0.088,0.194,-59.5,-3.4,-9.7,-8.1,26.4,-18.7,0.10339671,-0.620685446,-0.0561845759,-0.775139622
286,719458,1805510,0.938,-0.092,0.198,-58.4,-3.5,-10.1,-8.1,26.4,-18.7,0.102420118,-0.620868557,-0.0553300577,-0.775200659
287,722543,1805510,0.938,-0.096,0.194,-57.6,-3.5,-10.4,-8.6,26.3,-18.1,0.101474044,-0.621051668,-0.0544755394,-0.775231178
288,723978,1805510,0.942,-0.092,0.198,-56.7,-3.6,-10.6,-8.6,26.3,-18.1,0.10052797,-0.62120426,-0.0537125767,-0.775292215
289,726952,1805510,0.942,-0.092,0.198,-56.1,-3.7,-10.8,-8.6,26.3,-18.1,0.0995818964,-0.621387371,-0.0529190954,-0.775322733
290,729213,1805520,0.946,-0.092,0.198,-55.6,-3.7,-11.1,-8.6,26.3,-18.1,0.0986358226,-0.621570482,-0.0521256142,-0.775353252
291,732359,1805520,0.946,-0.088,0.194,-55.2,-3.9,-11.3,-7.9,25.9,-17.8,0.0976897488,-0.621723075,-0.0513626514,-0.77538377
292,733678,1805520,0.946,-0.084,0.194,-54.9,-4.2,-11.4,-7.9,25.9,-17.8,0.096743675,-0.621906186,-0.0505691702,-0.775414289
293,736930,1805520,0.946,-0.088,0.186,-54.7,-4.5,-11.4,-7.9,25.9,-17.8,0.0957976012,-0.622058779,-0.049836726,-0.775444807
294,739179,1805530,0.946,-0.088,0.182,-54.7,-4.8,-11.6,-7.9,25.9,-17.8,0.0948210089,-0.622272408,-0.0490737632,-0.775444807
295,741342,1805530,0.946,-0.084,0.186,-54.9,-4.9,-11.6,-8.8,27.5,-17.7,0.0939054537,-0.622455519,-0.0483108005,-0.775475326
296,745403,1805530,0.95,-0.088,0.186,-55.2,-5,-11.7,-8.8,27.5,-17.7,0.0929288614,-0.62263863,-0.0475478378,-0.775475326
297,747638,1805530,0.946,-0.084,0.186,-55.5,-4.9,-11.8,-8.8,27.5,-17.7,0.0919827876,-0.622821741,-0.046784875,-0.775505844
298,749634,1805540,0.946,-0.084,0.19,-55.8,-5,-11.9,-8.8,27.5,-17.7,0.0910061953,-0.623004852,-0.0459913938,-0.775505844
299,752065,1805540,0.946,-0.084,0.19,-55.8,-5,-11.9,-8.8,27.5,-17.7,0.0910061953,-0.623004852,-0.0459913938,-0.775505844
300,754262,1805540,0.946,-0.088,0.19,-56.4,-4.9,-12.3,-9,27.2,-17.5,0.0893887143,-0.623645741,-0.0440382092,-0.775292215
301,756784,1805540,0.954,-0.096,0.19,-56.8,-4.9,-12.5,-9,27.2,-17.5,0.0883816034,-0.623828852,-0.0432447279,-0.775322733
302,759437,1805550,0.957,-0.1,0.186,-57.2,-4.8,-12.6,-9,27.2,-17.5,0.0874050111,-0.624011963,-0.0424512467,-0.775322733
303,761676,1805550,0.957,-0.104,0.19,-57.7,-4.7,-12.6,-9.6,27.2,-17.8,0.0863979003,-0.624195074,-0.0416577654,-0.775322733
304,764091,1805550,0.954,-0.104,0.194,-58.3,-4.5,-12.7,-9.6,27.2,-17.8,0.0853907895,-0.624378185,-0.0408642842,-0.775353252
305,766195,1805550,0.954,-0.108,0.197,-58.8,-4.6,-12.8,-9.6,27.2,-17.8,0.0843531602,-0.624530778,-0.0400402844,-0.775353252
306,770086,1805560,0.954,-0.115,0.198,-59.3,-4.6,-13,-9.6,27.2,-17.8,0.0833155309,-0.624713889,-0.0392468032,-0.77538377
307,772136,1805560,0.953,-0.119,0.198,-59.8,-4.6,-13.2,-9.7,27.7,-17.1,0.0822779015,-0.624897,-0.0384228034,-0.77538377
308,774444,1805560,0.957,-0.115,0.201,-60.2,-4.5,-13.5,-9.7,27.7,-17.1,0.0812097537,-0.625080111,-0.0375988037,-0.77538377
309,776692,1805560,0.954,-0.119,0.201,-60.7,-4.5,-13.6,-9.7,27.7,-17.1,0.0801721244,-0.625232704,-0.0367442854,-0.775414289
310,780592,1805570,0.953,-0.123,0.201,-61,-4.5,-13.6,-9.7,27.7,-17.1,0.0791039766,-0.625415815,-0.0359202857,-0.775414289
311,782846,1805570,0.953,-0.127,0.198,-61.3,-4.5,-13.7,-7.9,26.6,-16.7,0.0780053102,-0.625568407,-0.0350657674,-0.775414289
312,785196,1805570,0.957,-0.127,0.197,-61.6,-4.5,-13.8,-7.9,26.6,-16.7,0.0769371624,-0.625751518,-0.0342112491,-0.775444807
313,787020,1805570,0.957,-0.131,0.194,-61.7,-4.6,-13.9,-7.9,26.6,-16.7,0.0758690146,-0.625934629,-0.0333872494,-0.775444807
314,789376,1805580,0.957,-0.135,0.197,-61.7,-4.7,-14,-7.9,26.6,-16.7,0.0747703482,-0.626087222,-0.0325022126,-0.775444807
315,791590,1805580,0.953,-0.135,0.198,-61.6,-4.7,-14.1,-9.6,28.2,-16.6,0.0737022004,-0.626270333,-0.0316782128,-0.775444807
316,794245,1805580,0.957,-0.139,0.201,-61.4,-4.7,-14.2,-9.6,28.2,-16.6,0.072603534,-0.626422926,-0.0308542131,-0.775444807
317,796909,1805580,0.957,-0.143,0.194,-61.2,-4.7,-14.4,-9.6,28.2,-16.6,0.0715048677,-0.626606037,-0.0300302133,-0.775444807
318,798938,1805590,0.961,-0.139,0.186,-60.9,-4.7,-14.6,-9.6,28.2,-16.6,0.0704062014,-0.626758629,-0.0291756951,-0.775444807
319,801560,1805590,0.965,-0.151,0.186,-60.5,-4.7,-14.8,-9.4,28.1,-16.1,0.0699179052,-0.627063814,-0.0275887326,-0.775292215
320,803849,1805590,0.965,-0.151,0.186,-60,-4.9,-15,-9.4,28.1,-16.1,0.0688802759,-0.627216407,-0.0268257698,-0.775292215
321,806304,1805590,0.969,-0.147,0.182,-59.5,-5,-15.1,-9.4,28.1,-16.1,0.0678121281,-0.627399518,-0.0260017701,-0.775292215
322,808732,1805600,0.969,-0.155,0.174,-58.9,-5.2,-15.2,-9.4,28.1,-16.1,0.0667439802,-0.62755211,-0.0252693258,-0.775261696
323,812745,1805600,0.969,-0.163,0.174,-58.4,-5.3,-15.3,-9,28.5,-16.1,0.0656758324,-0.627735221,-0.0244758446,-0.775231178
324,815070,1805600,0.977,-0.163,0.17,-57.9,-5.3,-15.3,-9,28.5,-16.1,0.0646076846,-0.627887814,-0.0236823634,-0.775231178
325,817174,1805600,0.977,-0.159,0.17,-57.5,-5.4,-15.5,-9,28.5,-16.1,0.0635700552,-0.628040407,-0.0229499191,-0.775200659
326,819097,1805610,0.981,-0.163,0.17,-57,-5.4,-15.8,-9,28.5,-16.1,0.0625019074,-0.628223518,-0.0222174749,-0.775170141
327,821551,1805610,0.977,-0.167,0.166,-56.5,-5.6,-16,-8.5,28.6,-16.1,0.0614642781,-0.62837611,-0.0214850307,-0.775139622
328,823773,1805610,0.98,-0.171,0.166,-56.1,-5.8,-16.1,-8.5,28.6,-16.1,0.0604266488,-0.628559221,-0.0207525864,-0.775109104
329,827709,1805610,0.98,-0.171,0.166,-55.6,-6.1,-16.1,-8.5,28.6,-16.1,0.0593585009,-0.628711814,-0.0200811792,-0.775078585
330,829548,1805620,0.98,-0.175,0.162,-55.1,-6.3,-16.1,-8.5,28.6,-16.1,0.0583513901,-0.628894925,-0.0193792535,-0.775048067
331,832085,1805620,0.977,-0.171,0.162,-54.6,-6.4,-16.1,-8.9,27.8,-15.7,0.0573137608,-0.629047517,-0.0186773278,-0.77498703
332,834225,1805620,0.98,-0.179,0.154,-54.2,-6.5,-16,-8.9,27.8,-15.7,0.05630665,-0.629230628,-0.0179448836,-0.774925993
333,836693,1805620,0.98,-0.179,0.154,-53.8,-6.6,-16,-8.9,27.8,-15.7,0.0552995392,-0.629413739,-0.0173039949,-0.774895474
334,839413,1805630,0.976,-0.182,0.154,-53.6,-6.6,-16,-8.9,27.8,-15.7,0.0542924284,-0.629566332,-0.0166020692,-0.774834437
335,842665,1805630,0.98,-0.183,0.15,-53.2,-6.5,-15.9,-9.3,28,-15.2,0.053254799,-0.629749443,-0.0159611805,-0.7747734
336,844725,1805630,0.98,-0.183,0.15,-53,-6.4,-15.7,-9.3,28,-15.2,0.0522782067,-0.629871517,-0.0152897732,-0.774742882
337,846712,1805630,0.98,-0.186,0.15,-52.8,-6.2,-15.6,-9.3,28,-15.2,0.0512710959,-0.630054628,-0.014618366,-0.774681845
338,849158,1805640,0.98,-0.194,0.146,-52.5,-6.1,-15.5,-9.3,28,-15.2,0.0502945036,-0.630207221,-0.0139469588,-0.774620808
339,851659,1805640,0.98,-0.19,0.146,-52.3,-6,-15.5,-9.2,27.9,-14.9,0.0500503555,-0.630756554,-0.0123294778,-0.774254585
340,853982,1805640,0.992,-0.191,0.142,-52,-5.8,-15.4,-9.2,27.9,-14.9,0.0490737632,-0.630909146,-0.0116885891,-0.774193548
341,856500,1805640,0.988,-0.194,0.142,-51.8,-5.6,-15.2,-9.2,27.9,-14.9,0.0480971709,-0.63103122,-0.0110171819,-0.774132511
342,858799,1805650,0.984,-0.19,0.138,-51.7,-5.4,-15.1,-9.2,27.9,-14.9,0.0471205786,-0.631183813,-0.0103457747,-0.774101993
343,863026,1805650,0.992,-0.198,0.142,-51.5,-5.3,-15,-9.5,27.6,-14.8,0.0461745048,-0.631336406,-0.00970488601,-0.774040956
344,865265,1805650,0.992,-0.198,0.138,-51.3,-5.1,-14.9,-9.5,27.6,-14.8,0.0451979125,-0.63145848,-0.0090334788,-0.774010437
345,866985,1805650,0.992,-0.202,0.142,-51,-5,-14.9,-9.5,27.6,-14.8,0.0442213202,-0.631611072,-0.00839259011,-0.7739494
346,869324,1805660,1,-0.206,0.138,-50.9,-4.9,-14.9,-9.5,27.6,-14.8,0.0433057649,-0.631733146,-0.00775170141,-0.773918882
347,871727,1805660,1,-0.214,0.138,-50.8,-4.8,-14.6,-9.2,27.9,-14.4,0.0423596912,-0.63185522,-0.0070802942,-0.773857845
348,874515,1805660,1,-0.21,0.142,-50.6,-4.7,-14.3,-9.2,27.9,-14.4,0.0414136174,-0.631977294,-0.0064394055,-0.773827326
349,876659,1805660,1.004,-0.21,0.146,-50.2,-4.7,-14.1,-9.2,27.9,-14.4,0.0404675436,-0.632099368,-0.0057985168,-0.773766289
350,880941,1805670,1.011,-0.226,0.146,-49.9,-4.6,-14,-9.2,27.9,-14.4,0.0395519883,-0.632221442,-0.0051576281,-0.773735771
351,881553,1805670,1.011,-0.222,0.154,-49.5,-4.4,-13.9,-9.6,28.4,-14.2,0.0386059145,-0.632343516,-0.0045167394,-0.773674734
352,885802,1805670,1.015,-0.23,0.153,-49.2,-4.2,-13.7,-9.6,28.4,-14.2,0.0377208777,-0.632435072,-0.0038758507,-0.773644215
353,886260,1805670,1.019,-0.234,0.153,-49.1,-3.9,-13.5,-9.6,28.4,-14.2,0.0368053224,-0.632557146,-0.003234962,-0.773613697
354,890614,1805680,1.019,-0.246,0.161,-48.8,-3.7,-13.4,-9.6,28.4,-14.2,0.0358897671,-0.632648701,-0.00259407331,-0.77355266
355,892815,1805680,1.015,-0.242,0.161,-48.6,-3.5,-13.3,-9.5,28,-14.1,0.0350047304,-0.632740257,-0.00195318461,-0.773522141
356,895194,1805680,1.019,-0.25,0.161,-48.3,-3.4,-13.2,-9.5,28,-14.1,0.0341196936,-0.632862331,-0.00131229591,-0.773491623
357,897172,1805680,1.027,-0.257,0.165,-48,-3.2,-13.2,-9.5,28,-14.1,0.0332346568,-0.632923368,-0.000701925718,-0.773461104
358,899320,1805690,1.023,-0.265,0.165,-47.7,-3.1,-13.1,-9.5,28,-14.1,0.03234962,-0.633014924,-9.15555284e-05,-0.773430586
359,901660,1805690,1.031,-0.273,0.169,-47.4,-3.1,-12.8,-9.3,28.2,-14.2,0.0320139164,-0.633228553,0.00119022187,-0.773277993
360,904364,1805690,1.031,-0.273,0.169,-47.2,-3.3,-12.7,-9.3,28.2,-14.2,0.0311288797,-0.633320109,0.00180059206,-0.773216956
361,906658,1805690,1.027,-0.285,0.161,-46.8,-3.5,-12.5,-9.3,28.2,-14.2,0.0302743614,-0.633411664,0.00241096225,-0.773186438
362,909383,1805700,1.031,-0.293,0.169,-46.1,-3.7,-12.4,-9.3,28.2,-14.2,0.0294198431,-0.63350322,0.00302133244,-0.773155919
363,912140,1805700,1.027,-0.3,0.165,-45.4,-3.8,-12.3,-9.3,28.6,-13.5,0.0285653249,-0.633594775,0.00360118412,-0.773094882
364,914357,1805700,1.035,-0.308,0.165,-44.6,-3.7,-12.1,-9.3,28.6,-13.5,0.0277718436,-0.633686331,0.0041810358,-0.773033845
365,916654,1805700,1.035,-0.312,0.169,-43.6,-3.7,-11.9,-9.3,28.6,-13.5,0.0269783624,-0.633777886,0.00476088748,-0.773003327
366,919248,1805710,1.039,-0.316,0.169,-42.7,-3.6,-11.6,-9.3,28.6,-13.5,0.0261848811,-0.633869442,0.00531022065,-0.772942289
367,921446,1805710,1.035,-0.324,0.165,-41.6,-3.4,-11.3,-9.5,28.8,-13.7,0.0253913999,-0.633960997,0.00585955382,-0.772911771
368,923761,1805710,1.035,-0.336,0.161,-40.5,-3.3,-10.9,-9.5,28.8,-13.7,0.0246589557,-0.634022034,0.00637836848,-0.772850734
369,928171,1805710,1.038,-0.348,0.165,-39.2,-3.1,-10.7,-9.5,28.8,-13.7,0.0239265114,-0.63411359,0.00689718314,-0.772820215
370,930409,1805720,1.038,-0.351,0.161,-37.9,-2.7,-10.2,-9.5,28.8,-13.7,0.0232551042,-0.634174627,0.00738547929,-0.772759178
371,932333,1805720,1.042,-0.355,0.157,-36.4,-2.3,-9.9,-10.6,28.3,-13.4,0.022583697,-0.634235664,0.00787377544,-0.77272866
372,934618,1805720,1.034,-0.371,0.149,-34.8,-1.8,-9.5,-10.6,28.3,-13.4,0.0219428083,-0.634296701,0.00833155309,-0.772698141
373,936954,1805720,1.034,-0.383,0.15,-33.1,-1.3,-9.2,-10.6,28.3,-13.4,0.0213324381,-0.634327219,0.00875881222,-0.772698141
374,939163,1805730,1.038,-0.387,0.142,-31.4,-0.7,-8.9,-10.6,28.3,-13.4,0.0207525864,-0.634357738,0.00915555284,-0.772667623
375,941810,1805730,1.042,-0.402,0.138,-29.5,-0.3,-8.8,-9,28.5,-13.5,0.0201422163,-0.634388256,0.00955229347,-0.772667623
376,944446,1805730,1.042,-0.41,0.138,-27.7,0.1,-8.4,-9,28.5,-13.5,0.0196539201,-0.634388256,0.00988799707,-0.772667623
377,946600,1805730,1.05,-0.414,0.138,-25.8,0.6,-8,-9,28.5,-13.5,0.019165624,-0.634388256,0.0102237007,-0.772667623
378,949387,1805740,1.046,-0.426,0.134,-24.1,1.1,-7.7,-9,28.5,-13.5,0.0186773278,-0.634388256,0.0105288858,-0.772698141
379,951926,1805740,1.054,-0.442,0.134,-22.3,1.7,-7.3,-9.3,28.5,-13,0.0182500687,-0.634357738,0.0108035524,-0.77272866
380,954125,1805740,1.058,-0.446,0.134,-20.7,2.3,-7,-9.3,28.5,-13,0.0178228095,-0.634327219,0.0110477004,-0.772759178
381,956687,1805740,1.054,-0.45,0.138,-19.2,3.1,-6.5,-9.3,28.5,-13,0.0174565874,-0.634296701,0.0112918485,-0.772789697
382,958984,1805750,1.065,-0.465,0.133,-17.7,3.9,-6.1,-9.3,28.5,-13,0.0170903653,-0.634235664,0.0115054781,-0.772850734
383,963484,1805750,1.065,-0.481,0.133,-16.4,4.6,-5.7,-9.4,28.7,-13,0.0168156987,-0.634144108,0.0116885891,-0.772911771
384,963870,1805750,1.073,-0.485,0.137,-15,5.2,-5.2,-9.4,28.7,-13,0.0164799951,-0.634083071,0.0118717002,-0.772972808
385,966294,1805750,1.069,-0.497,0.137,-13.8,5.9,-4.8,-9.4,28.7,-13,0.016235847,-0.633991516,0.0120548112,-0.773064364
386,970904,1805760,1.077,-0.512,0.137,-12.6,6.7,-4.2,-9.4,28.7,-13,0.015991699,-0.633869442,0.0122074038,-0.773155919
387,973175,1805760,1.077,-0.516,0.141,-11.5,7.4,-3.7,-9.3,28.6,-12.6,0.0157475509,-0.633747368,0.0123599963,-0.773247475
388,975281,1805760,1.073,-0.528,0.137,-10.6,8,-3.2,-9.3,28.6,-12.6,0.0155644398,-0.633625294,0.0124820704,-0.773369549
389,977612,1805760,1.073,-0.54,0.149,-9.7,8.6,-2.6,-9.3,28.6,-12.6,0.0153813288,-0.633472701,0.0126346629,-0.773461104
390,979581,1805770,1.065,-0.559,0.149,-8.8,9.1,-2.1,-9.3,28.6,-12.6,0.0151982177,-0.633320109,0.012756737,-0.773613697
391,981843,1805770,1.065,-0.567,0.153,-7.9,9.4,-1.6,-10.3,28.7,-13,0.0150761437,-0.633167516,0.0128482925,-0.773735771
392,984074,1805770,1.061,-0.579,0.149,-7,9.8,-1,-10.3,28.7,-13,0.0149540696,-0.633014924,0.0129703665,-0.773857845
393,986505,1805770,1.053,-0.582,0.15,-6.2,10,-0.4,-10.3,28.7,-13,0.0148625141,-0.632831812,0.0130619221,-0.774010437
394,988739,1805780,1.045,-0.61,0.154,-5.4,10.4,0,-10.3,28.7,-13,0.0147709586,-0.63267922,0.0131534776,-0.774132511
395,992925,1805780,1.034,-0.625,0.162,-4.5,10.8,0.5,-9.3,28.6,-12.4,0.0147099216,-0.632496109,0.0132450331,-0.774285104
396,995258,1805780,1.026,-0.633,0.17,-3.5,11.3,0.9,-9.3,28.6,-12.4,0.0146794031,-0.632282479,0.0133365886,-0.774407178
397,997183,1805780,1.002,-0.656,0.158,-2.4,11.8,1.5,-9.3,28.6,-12.4,0.0146794031,-0.632099368,0.0133976257,-0.774620808
398,999420,1805790,0.991,-0.667,0.167,-1.4,12.5,1.9,-9.3,28.6,-12.4,0.0146794031,-0.631885739,0.0134586627,-0.7747734
399,1001703,1805790,0.983,-0.675,0.174,-0.2,13.1,2.3,-10,28.6,-12.7,0.0147099216,-0.631672109,0.0134891812,-0.774956511
400,1004307,1805790,0.967,-0.682,0.171,0.9,13.4,2.8,-10,28.6,-12.7,0.0147709586,-0.631427961,0.0135196997,-0.775139622
401,1006635,1805790,0.944,-0.709,0.171,2.3,13.6,3.4,-10,28.6,-12.7,0.0148625141,-0.631183813,0.0135196997,-0.775322733
402,1008779,1805800,0.928,-0.721,0.172,3.9,13.7,3.9,-10,28.6,-12.7,0.0149845882,-0.630970183,0.0135196997,-0.775536363
403,1013325,1805800,0.916,-0.728,0.168,5.9,13.7,4.5,-9.8,28.5,-12.9,0.0151371807,-0.630726035,0.0134891812,-0.775719474
404,1015601,1805800,0.893,-0.748,0.172,8.4,13.7,5,-9.8,28.5,-12.9,0.0153202918,-0.630481887,0.0134281442,-0.775902585
405,1017715,1805800,0.885,-0.755,0.165,11.3,13.5,5.7,-9.8,28.5,-12.9,0.0155644398,-0.630268258,0.0133060701,-0.776085696
406,1020057,1805810,0.885,-0.759,0.165,14.4,13.1,6.5,-9.8,28.5,-12.9,0.0158696249,-0.63002411,0.0131534776,-0.776268807
407,1022098,1805810,0.873,-0.763,0.161,17.6,12.4,7.3,-9.2,28.4,-12.8,0.016235847,-0.62981048,0.0129703665,-0.776451918
408,1024205,1805810,0.877,-0.787,0.145,21.1,11.4,8.3,-9.2,28.4,-12.8,0.0166631062,-0.62959685,0.0127262185,-0.776604511
409,1026661,1805810,0.877,-0.794,0.138,25,10.4,9.5,-9.2,28.4,-12.8,0.0171819208,-0.629413739,0.0124515519,-0.776757103
410,1029017,1805820,0.881,-0.798,0.134,29.5,9.7,10.5,-9.2,28.4,-12.8,0.0177617725,-0.629230628,0.0120853298,-0.776879177
411,1031244,1805820,0.877,-0.81,0.118,34.6,9.2,11.7,-9.5,28.5,-13.2,0.0184331797,-0.629047517,0.0116580706,-0.77703177
412,1035835,1805820,0.888,-0.822,0.102,40.6,8.8,12.8,-9.5,28.5,-13.2,0.019165624,-0.628894925,0.011139256,-0.777153844
413,1038046,1805820,0.884,-0.818,0.098,47.4,8.4,14,-9.5,28.5,-13.2,0.0200811792,-0.628711814,0.0105594043,-0.777275918
414,1040158,1805830,0.896,-0.826,0.102,54.8,7.8,15.4,-9.5,28.5,-13.2,0.0211188086,-0.628559221,0.00982696005,-0.777367473
415,1042267,1805830,0.915,-0.819,0.086,62.6,7,17,-9.1,28.7,-13.5,0.0222174749,-0.628406629,0.0090029603,-0.777489547
416,1044425,1805830,0.927,-0.803,0.094,70.7,6.1,18.7,-9.1,28.7,-13.5,0.0235297708,-0.628254036,0.0080568865,-0.777581103
417,1046509,1805830,0.951,-0.784,0.089,78.8,5,20.5,-9.1,28.7,-13.5,0.0249641408,-0.628131962,0.00701925718,-0.77764214
418,1050769,1805840,0.97,-0.769,0.089,86.7,3.8,22.5,-9.1,28.7,-13.5,0.0265511032,-0.628009888,0.00585955382,-0.777703177
419,1053107,1805840,1.006,-0.734,0.1,93.8,2.6,24.8,-9.4,28.5,-13.7,0.0282601398,-0.627918332,0.00460829493,-0.777733695
420,1055308,1805840,1.017,-0.715,0.103,99.8,1.4,27.5,-9.4,28.5,-13.7,0.0300912503,-0.627826777,0.00329599902,-0.777733695
421,1056991,1805840,1.029,-0.703,0.103,104.7,0.4,30.4,-9.4,28.5,-13.7,0.0320139164,-0.627735221,0.0019226661,-0.777733695
422,1059000,1805850,1.037,-0.684,0.103,108.8,-0.2,33.4,-9.4,28.5,-13.7,0.0340891751,-0.627674184,0.000549333171,-0.777703177
423,1063011,1805850,1.049,-0.661,0.099,112.2,-0.6,36.5,-8.7,28.3,-13.4,0.0362559893,-0.627582629,-0.000823999756,-0.777672658
424,1065247,1805850,1.049,-0.653,0.095,115.2,-0.8,39.2,-8.7,28.3,-13.4,0.0384838404,-0.627521592,-0.0022583697,-0.777611621
425,1066997,1805850,1.045,-0.645,0.103,117.8,-0.5,41.9,-8.7,28.3,-13.4,0.0408032472,-0.627430036,-0.00369273965,-0.777581103
426,1069234,1805860,1.061,-0.63,0.102,120.3,0,44.5,-8.7,28.3,-13.4,0.0432142094,-0.627307962,-0.00512710959,-0.777520066
427,1071565,1805860,1.069,-0.618,0.102,122.5,1.2,46.8,-8.7,27.9,-13.4,0.0456862087,-0.627185888,-0.00656147954,-0.777459029
428,1073886,1805860,1.057,-0.622,0.103,124.4,2.6,49,-8.7,27.9,-13.4,0.048219245,-0.627002777,-0.00799584948,-0.77742851
429,1077956,1805860,1.053,-0.61,0.099,126,4.4,51.2,-8.7,27.9,-13.4,0.0508133183,-0.626819666,-0.00943021943,-0.77742851
430,1079580,1805870,1.045,-0.622,0.091,127.2,6.3,53.7,-8.7,27.9,-13.4,0.0534684286,-0.626575518,-0.0108340709,-0.77742851
431,1082039,1805870,1.033,-0.621,0.076,127.9,8.4,56.1,-8.5,28.1,-16.9,0.0561845759,-0.626300851,-0.0122379223,-0.77742851
432,1084341,1805870,1.029,-0.637,0.072,128.2,10.6,58.2,-8.5,28.1,-16.9,0.0589312418,-0.625965148,-0.0136112552,-0.777459029
433,1086455,1805870,1.025,-0.641,0.06,128.2,12.5,60.1,-8.5,28.1,-16.9,0.0617084262,-0.625598926,-0.0149235511,-0.777520066
434,1089024,1805880,1.006,-0.645,0.045,128.1,14.3,61.6,-8.5,28.1,-16.9,0.0644856105,-0.625202185,-0.016235847,-0.777581103
435,1093573,1805880,0.994,-0.664,0.029,127.9,16.2,62.4,-8,28.1,-15,0.0672933134,-0.624774926,-0.0175481429,-0.777672658
436,1093858,1805880,0.994,-0.68,0.022,127.7,18.2,62.5,-8,28.1,-15,0.0701315348,-0.62428663,-0.0187994018,-0.777764214
437,1097158,1805880,0.966,-0.707,0.014,127.9,20,62.4,-8,28.1,-15,0.0729392376,-0.623767815,-0.0201116977,-0.777886288
438,1099437,1805890,0.958,-0.722,0.007,128.8,21.3,62.7,-8,28.1,-15,0.0757469405,-0.623249001,-0.0214239937,-0.778038881
439,1101415,1805890,0.958,-0.734,0.011,130.7,21.7,63.6,-8,27.6,-15.6,0.0786156804,-0.622669149,-0.0227057711,-0.778160955
440,1105498,1805890,0.958,-0.742,0.007,133.2,21.2,65.1,-8,27.6,-15.6,0.0815454573,-0.622119816,-0.0240485855,-0.77825251
441,1107683,1805890,0.946,-0.753,0,136,20.2,66.8,-8,27.6,-15.6,0.0845362712,-0.621570482,-0.0254524369,-0.778313547
442,1109614,1805900,0.946,-0.773,-0.012,139,19.2,68.3,-8,27.6,-15.6,0.0875881222,-0.621021149,-0.0268257698,-0.778405103
443,1111698,1805900,0.942,-0.765,-0.004,142.2,18.3,69.7,-7.4,27.4,-16,0.0907315287,-0.620471816,-0.0282601398,-0.778435621
444,1114398,1805900,0.962,-0.718,0.034,145.8,17.3,70.8,-7.4,27.4,-16,0.0939054537,-0.619922483,-0.0297555467,-0.778435621
445,1117057,1805900,0.986,-0.707,0.037,149.5,16,72,-7.4,27.4,-16,0.0971709342,-0.619403668,-0.0312814722,-0.778374584
446,1119246,1805910,0.986,-0.707,0.037,149.5,16,72,-7.4,27.4,-16,0.0971709342,-0.619403668,-0.0312814722,-0.778374584
447,1121687,1805910,1.021,-0.727,0.017,153.3,11.6,76.2,-6.7,27.2,-16.6,0.103854488,-0.618396558,-0.0343943602,-0.778191473
448,1123740,1805910,1.013,-0.739,0.01,153.3,9.8,79.9,-6.7,27.2,-16.6,0.107272561,-0.61793878,-0.0358897671,-0.778008362
449,1128296,1805910,1.013,-0.723,0.017,153.5,9.6,84.2,-6.7,27.2,-16.6,0.110782189,-0.617481002,-0.0373546556,-0.777825251
450,1130248,1805920,1.021,-0.723,0.029,155,10.7,88.1,-6.7,27.2,-16.6,0.114352855,-0.616992706,-0.038758507,-0.777611621
451,1132610,1805920,1.013,-0.711,0.053,157.9,12.2,91.3,-6.6,26.8,-19.9,0.118076113,-0.616443373,-0.040192877,-0.77742851
452,1134561,1805920,1.025,-0.676,0.064,161.1,13.1,93.8,-6.6,26.8,-19.9,0.12182989,-0.61589404,-0.0416272469,-0.777214881
453,1136811,1805920,1.033,-0.676,0.056,164.1,13,95.9,-6.6,26.8,-19.9,0.125675222,-0.615314188,-0.0430921354,-0.776970733
454,1138983,1805930,1.037,-0.665,0.064,166.5,12.5,97.8,-6.6,26.8,-19.9,0.129581591,-0.614734336,-0.0445570238,-0.776696066
455,1141367,1805930,1.037,-0.629,0.06,168.9,12.5,99.7,-6.3,26.5,-18.6,0.133548997,-0.614123966,-0.0460524308,-0.7764214
456,1145799,1805930,1.033,-0.614,0.052,171.6,13.5,101.7,-6.3,26.5,-18.6,0.137577441,-0.613483077,-0.0475478378,-0.776146733
457,1147745,1805930,1.033,-0.61,0.044,174.6,15.8,104.1,-6.3,26.5,-18.6,0.141697439,-0.61281167,-0.0490737632,-0.775841548
458,1149611,1805940,1.025,-0.582,0.033,177.5,18.9,106.8,-6.3,26.5,-18.6,0.145908994,-0.612048708,-0.0505691702,-0.775566881
459,1151527,1805940,1.021,-0.579,-0.005,179.9,22.2,109.5,-5.6,26.4,-19.8,0.150181585,-0.611224708,-0.0520950957,-0.775322733
460,1154179,1805940,1.029,-0.567,-0.017,181.6,25.4,112,-5.6,26.4,-19.8,0.154515213,-0.610309153,-0.0535905026,-0.775078585
461,1156238,1805940,1.017,-0.544,-0.021,182.8,27.8,114.2,-5.6,26.4,-19.8,0.158940397,-0.60933256,-0.0550553911,-0.774834437
462,1160863,1805950,1.013,-0.516,-0.045,183.6,29.7,116.5,-5.6,26.4,-19.8,0.163365581,-0.608325449,-0.0565202795,-0.774590289
463,1161236,1805950,1.009,-0.497,-0.064,183.7,30.8,119,-4.9,25.8,-21,0.167851802,-0.60728782,-0.0578936125,-0.774346141
464,1165911,1805950,1.021,-0.513,-0.088,182.5,31.3,122.1,-4.9,25.8,-21,0.17239906,-0.606250191,-0.0592974639,-0.774071474
465,1166316,1805950,1.036,-0.521,-0.096,180.1,31.5,125.3,-4.9,25.8,-21,0.176915799,-0.605182043,-0.0605487228,-0.773766289
466,1168823,1805960,1.052,-0.521,-0.1,177.1,31.2,128.3,-4.9,25.8,-21,0.181463057,-0.604144414,-0.0617084262,-0.773430586
467,1173162,1805960,1.064,-0.529,-0.089,174.7,30.4,130.9,-4.1,25.9,-22.2,0.186010315,-0.603106784,-0.062837611,-0.773094882
468,1175246,1805960,1.076,-0.51,-0.077,173.8,28.7,133,-4.1,25.9,-22.2,0.190588092,-0.602099673,-0.0638752403,-0.772667623
469,1177359,1805960,1.072,-0.513,-0.069,174.6,26,134.7,-4.1,25.9,-22.2,0.195196387,-0.601123081,-0.0649433882,-0.772209845
470,1179325,1805970,1.076,-0.494,-0.054,176.6,22.2,136.1,-4.1,25.9,-22.2,0.1998352,-0.600177007,-0.066011536,-0.771660512
471,1181398,1805970,1.068,-0.455,-0.038,179.1,17.8,137.7,-3.3,24.7,-21.7,0.204504532,-0.599291971,-0.0671712394,-0.771019623
472,1183887,1805970,1.072,-0.443,-0.034,180.7,13.3,140,-3.3,24.7,-21.7,0.209265419,-0.598437452,-0.0683309427,-0.770287179
473,1188485,1805970,1.084,-0.431,-0.015,180.4,9.7,143.8,-3.3,24.7,-21.7,0.214026307,-0.59767449,-0.0694296091,-0.769493698
474,1188816,1805980,1.088,-0.42,-0.003,177.9,7.1,148.4,-3.3,24.7,-21.7,0.218848231,-0.596942045,-0.0704672384,-0.768608661
475,1192738,1805980,1.1,-0.42,0.011,173.7,5.7,153.3,-2.9,24.2,-22.4,0.223700674,-0.59624012,-0.0713522752,-0.767662587
476,1194724,1805980,1.131,-0.416,0.03,169.7,5.4,157.7,-2.9,24.2,-22.4,0.228553117,-0.595538194,-0.0721152379,-0.766716514
477,1196940,1805980,1.174,-0.386,0.049,167.5,6.1,161.4,-2.9,24.2,-22.4,0.233436079,-0.594866787,-0.0727866451,-0.765709403
478,1199092,1805990,1.178,-0.366,0.061,167.9,8,164.9,-2.9,24.2,-22.4,0.238380078,-0.594134342,-0.0733970153,-0.764702292
479,1201699,1805990,1.163,-0.354,0.061,170.8,11.5,168.7,-2.6,23.7,-23,0.24344615,-0.593310343,-0.0740073855,-0.763664663
480,1204032,1805990,1.143,-0.362,0.038,174.8,16.4,173.2,-2.6,23.7,-23,0.248603778,-0.592364269,-0.0745872372,-0.76268807
481,1208496,1805990,1.092,-0.369,-0.011,179,22.4,178.5,-2.6,23.7,-23,0.253913999,-0.591296121,-0.0751365703,-0.761711478
482,1210440,1806000,1.065,-0.365,-0.03,183.1,28.6,183.8,-2.6,23.7,-23,0.259376812,-0.590105899,-0.075655385,-0.760734886
483,1212182,1806000,1.049,-0.368,-0.042,187.4,33.9,188.2,-1.5,22.9,-23.4,0.264961699,-0.588793603,-0.0761436811,-0.759788812
484,1214520,1806000,1.037,-0.368,-0.065,192,37.4,191.9,-1.5,22.9,-23.4,0.270668661,-0.587359233,-0.0766319773,-0.758781701
485,1216649,1806000,1.018,-0.376,-0.057,196.4,38.7,195.1,-1.5,22.9,-23.4,0.276497696,-0.585863826,-0.077150792,-0.757835627
486,1219286,1806010,1.029,-0.391,-0.037,199.8,37.5,198.8,-1.5,22.9,-23.4,0.282387768,-0.584368419,-0.0777001251,-0.756767479
487,1223163,1806010,1.026,-0.399,-0.018,200.9,33.3,203.2,-0.5,22.7,-24.4,0.288369396,-0.582903531,-0.0782189398,-0.755577258
488,1225491,1806010,1.022,-0.453,0.064,199,26.2,208,-0.5,22.7,-24.4,0.294351024,-0.581560717,-0.0786767174,-0.754234443
489,1227641,1806010,1.018,-0.472,0.134,194,17.1,212.4,-0.5,22.7,-24.4,0.300332652,-0.580401013,-0.0790734581,-0.752739036
490,1229544,1806020,1.007,-0.484,0.201,186.6,7.3,215.3,-0.5,22.7,-24.4,0.306253243,-0.579424421,-0.0793481246,-0.751091037
491,1231473,1806020,1.007,-0.479,0.264,177.7,-1.4,216.5,0.6,21.7,-23.6,0.312051759,-0.57863094,-0.0795312357,-0.749290445
492,1233757,1806020,1.043,-0.483,0.384,167.9,-7.9,216.5,0.6,21.7,-23.6,0.317667165,-0.577959532,-0.0796227912,-0.747428816
493,1238205,1806020,1.075,-0.484,0.411,157.4,-10.8,216.7,0.6,21.7,-23.6,0.323160497,-0.577410199,-0.0795312357,-0.745506149
494,1240173,1806030,1.118,-0.48,0.414,146.6,-9.2,218.6,0.6,21.7,-23.6,0.328562273,-0.576921903,-0.0791955321,-0.743583483
495,1242030,1806030,1.227,-0.448,0.334,136,-2.3,223,1,21,-26.2,0.333872494,-0.576342051,-0.0786156804,-0.741691336
496,1243993,1806030,1.269,-0.445,0.251,127.1,9.5,230.2,1,21,-26.2,0.339213233,-0.575640126,-0.0777306436,-0.739921262
497,1246553,1806030,1.323,-0.458,0.125,121.2,25.5,240,1,21,-26.2,0.344645528,-0.57472457,-0.0764793847,-0.738242744
498,1248787,1806040,1.361,-0.471,-0.016,120.5,43.5,251.7,1,21,-26.2,0.350291452,-0.573534349,-0.0749229408,-0.7366863
499,1252894,1806040,1.469,-0.463,-0.272,126.9,61.4,263.5,1.9,19.8,-26.4,0.356212043,-0.572008423,-0.0731833857,-0.735190893
500,1254530,1806040,1.547,-0.425,-0.376,140.7,77,274.3,1.9,19.8,-26.4,0.362468337,-0.570085757,-0.0714438307,-0.733787042
501,1256882,1806040,1.585,-0.442,-0.435,159.7,88.4,283.7,1.9,19.8,-26.4,0.369121372,-0.567857906,-0.0697653127,-0.73238319
502,1259061,1806050,1.631,-0.502,-0.561,179.9,94.7,292.5,1.9,19.8,-26.4,0.376171148,-0.56532487,-0.0682393872,-0.730887783
503,1262782,1806050,1.671,-0.479,-0.539,197,95.6,301.3,3.1,18.9,-26.7,0.383526109,-0.562608722,-0.0668660543,-0.729300821
504,1264520,1806050,1.663,-0.549,-0.546,207.8,91.6,310.4,3.1,18.9,-26.7,0.391155736,-0.559831538,-0.0656147954,-0.727500229
505,1266851,1806050,1.631,-0.553,-0.553,210.2,84.1,319.6,3.1,18.9,-26.7,0.398876919,-0.557145909,-0.064333018,-0.725455489
506,1269093,1806060,1.615,-0.701,-0.514,203,74.8,328.7,3.1,18.9,-26.7,0.406659139,-0.554643391,-0.0628681295,-0.723197119
507,1272846,1806060,1.623,-0.771,-0.525,186.9,66.3,336.7,4.5,17.4,-27.5,0.414288766,-0.552354503,-0.061159093,-0.72072512
508,1274560,1806060,1.552,-0.875,-0.504,164.8,60.2,343.3,4.5,17.4,-27.5,0.421765801,-0.5503708,-0.0590838343,-0.718100528
509,1276992,1806060,1.509,-0.953,-0.48,140.4,57.7,347.6,4.5,17.4,-27.5,0.428937651,-0.548600726,-0.0565813166,-0.715384381
510,1279119,1806070,1.509,-0.953,-0.48,140.4,57.7,347.6,4.5,17.4,-27.5,0.428937651,-0.548600726,-0.0565813166,-0.715384381
511,1282916,1806070,1.47,-1.104,-0.401,97,62.4,352,5.9,18.9,-26.2,0.442548906,-0.545487838,-0.0503860591,-0.709921567
512,1284650,1806070,1.384,-1.122,-0.379,79.4,66.8,356.4,5.9,18.9,-26.2,0.449079867,-0.544053468,-0.046723838,-0.707174902
513,1286953,1806070,1.264,-1.19,-0.271,63.2,70.3,364.5,5.9,18.9,-26.2,0.455519272,-0.542710654,-0.0426648762,-0.70433668
514,1289117,1806080,1.15,-1.305,-0.339,46.3,71.9,376.8,5.9,18.9,-26.2,0.461897641,-0.541489914,-0.0382091739,-0.701376385
515,1292940,1806080,0.968,-1.577,-0.512,29.3,71.9,392.1,7.1,17.1,-27.4,0.468306528,-0.540391247,-0.0332956938,-0.698232978
516,1294659,1806080,0.694,-1.873,-0.486,19.8,72.4,407.5,7.1,17.1,-27.4,0.474776452,-0.539353618,-0.0280465102,-0.694875942
517,1297111,1806080,0.505,-1.502,1.845,30.3,74.8,418.1,7.1,17.1,-27.4,0.481490524,-0.538132878,-0.0227973266,-0.691366314
518,1299219,1806090,1.427,-1.018,4.916,63.5,75,422.6,7.1,17.1,-27.4,0.488631855,-0.536515397,-0.0180059206,-0.687734611
519,1301690,1806090,4.26,-0.52,7.775,95.9,67,426,8.5,16.6,-27.3,0.496139409,-0.534653768,-0.0137638478,-0.683919797
520,1303937,1806090,7.929,-0.495,7.891,85,41.4,439.1,8.5,16.6,-27.3,0.50367748,-0.533219398,-0.00946073794,-0.679586169
521,1307721,1806090,7.991,0.91,0.221,30.7,-19.8,471.2,8.5,16.6,-27.3,0.511001923,-0.533249916,-0.00463881344,-0.674153874
522,1309978,1806100,7.83,3.15,-3.972,32.9,-125.7,515.2,8.5,16.6,-27.3,0.518906217,-0.534745323,-0.000549333171,-0.666890469
523,1311750,1806100,6.53,4.896,-6.148,218.5,-258.7,550.6,9.6,15.6,-27.2,0.529435102,-0.535966063,-0.000213629566,-0.657551805
524,1314169,1806100,3.458,5.02,-8.068,605,-369,555.2,9.6,15.6,-27.2,0.544358654,-0.53419599,-0.00668355358,-0.646717734
525,1316463,1806100,1.381,7.822,-8.034,1068.5,-410.1,517.5,9.6,15.6,-27.2,0.563859981,-0.527146214,-0.0205694754,-0.635364849
526,1320635,1806110,-3.214,7.982,-7.949,1482.2,-361.5,399.6,9.6,15.6,-27.2,0.585924863,-0.513809626,-0.0409558397,-0.625263222
527,1322868,1806110,-2.377,7.961,-7.8,1482.2,-361.5,399.6,8.2,9.7,-29.2,0.607318339,-0.499832148,-0.0613116855,-0.614398633
528,1324569,1806110,-0.331,6.154,-2.107,1964.5,-112.7,-178.2,8.2,9.7,-29.2,0.625629444,-0.474623859,-0.0910061953,-0.612353893
529,1326868,1806110,0.836,5.346,-0.201,1964.5,-112.7,-178.2,8.2,9.7,-29.2,0.642780847,-0.448530534,-0.120548112,-0.609149449
530,1329099,1806120,1.902,6.364,1.315,1781.9,-4.8,-634.1,8.2,9.7,-29.2,0.651234474,-0.421552171,-0.150395215,-0.612781152
531,1332604,1806120,2.503,7.891,2.331,1781.9,-4.8,-634.1,7.4,-0.7,-29.2,0.658589434,-0.393871883,-0.17996765,-0.615375225
532,1334710,1806120,1.861,7.947,2.793,708.5,-54.7,-533.4,7.4,-0.7,-29.2,0.657155065,-0.38227485,-0.194830164,-0.619678335
533,1336894,1806120,1.463,7.328,1.877,708.5,-54.7,-533.4,7.4,-0.7,-29.2,0.655507065,-0.370494705,-0.209601123,-0.623737297
534,1339126,1806130,1.091,5.51,1.214,-515.1,21.5,-336,7.4,-0.7,-29.2,0.64680929,-0.376018555,-0.20496231,-0.631000702
535,1341439,1806130,0.402,2.728,0.504,-515.1,21.5,-336,7.6,1,-29.5,0.637989441,-0.38145085,-0.200323496,-0.638172552
536,1343747,1806130,0.135,2.17,0.545,-957.2,110,-257.4,7.6,1,-29.5,0.626789148,-0.392010254,-0.187566759,-0.646717734
537,1347962,1806130,-0.02,1.265,0.397,-1231.2,197.6,-189,7.6,1,-29.5,0.614154485,-0.405163732,-0.169042024,-0.655781732
538,1350159,1806140,-0.249,0.979,0.21,-1349.2,256.5,-134.9,7.6,1,-29.5,0.600970489,-0.418866543,-0.147404401,-0.664540544
539,1352755,1806140,-0.399,0.142,-0.297,-1330.5,235.3,-88.3,9.4,8,-28.9,0.588030641,-0.432447279,-0.125766778,-0.671834468
540,1354479,1806140,-0.338,-0.21,-0.396,-1330.5,235.3,-88.3,9.4,8,-28.9,0.574571978,-0.445631275,-0.104037599,-0.67854854
541,1356662,1806140,-0.262,-0.509,-0.522,-1306.2,163.3,-97.2,9.4,8,-28.9,0.560563982,-0.459181494,-0.0835596789,-0.684041871
542,1359228,1806150,-0.051,-1.182,-0.893,-1312.5,72.4,-125.5,9.4,8,-28.9,0.545426801,-0.473738823,-0.0643024995,-0.688406018
543,1361253,1806150,0.13,-1.366,-1.025,-1349.7,-17.8,-169.9,9.6,14.7,-27.2,0.52867214,-0.489608448,-0.0459913938,-0.691824091
544,1365189,1806150,0.474,-1.815,-1.399,-1404.1,-92.9,-226.5,9.6,14.7,-27.2,0.509903256,-0.506729331,-0.0282601398,-0.694540239
545,1367327,1806150,1.085,-2.536,-2.035,-1459.1,-145.8,-291.8,9.6,14.7,-27.2,0.488998077,-0.524735252,-0.0109866634,-0.696676534
546,1369492,1806160,5.633,-6.903,-4.152,-1498.4,-174.6,-361.2,9.6,14.7,-27.2,0.46601764,-0.542985321,0.00576799829,-0.698507645
547,1371781,1806160,7.127,-8.18,-5.211,-1505.4,-185.2,-424,8.8,21.7,-23.8,0.441480758,-0.560838649,0.0217902158,-0.70003357
548,1373997,1806160,5.411,-8.14,-4.674,-1464.8,-201.6,-449.3,8.8,21.7,-23.8,0.416547136,-0.577929014,0.0367137669,-0.700796533
549,1376241,1806160,3.57,-8.1,-2.878,-1349.7,-261.1,-392.3,8.8,21.7,-23.8,0.39353618,-0.594195379,0.050019837,-0.69963683
550,1380907,1806170,1.826,-6.934,0.883,-1121.1,-370,-236.1,8.8,21.7,-23.8,0.375682852,-0.609515671,0.0608233894,-0.695394757
551,1382791,1806170,1.171,-5.563,1.715,-764.4,-481.6,-21.6,6.9,24.1,-21.5,0.365703299,-0.623004852,0.0682088687,-0.688039796
552,1384572,1806170,0.884,-4.247,1.988,-327.2,-521.4,173.4,6.9,24.1,-21.5,0.364635151,-0.633136998,0.0713217566,-0.679006317
553,1386792,1806170,0.515,-2.879,1.628,86.6,-451.9,297,6.9,24.1,-21.5,0.370921964,-0.638630329,0.0705282754,-0.670491653
554,1389251,1806180,0.409,-2.395,1.21,387.2,-291.7,348.4,6.9,24.1,-21.5,0.381817072,-0.639179662,0.0673543504,-0.664143803
555,1391588,1806180,0.318,-1.978,0.722,547.8,-90.5,355.4,7.5,23.2,-22.9,0.394695883,-0.63533433,0.0635700552,-0.660634175
556,1395308,1806180,0.215,-1.49,0.179,600.4,104.3,345.4,7.5,23.2,-22.9,0.407818842,-0.628101444,0.0606402783,-0.659871212
557,1397547,1806180,0.272,-0.674,-0.575,598.3,260.5,331.6,7.5,23.2,-22.9,0.420392468,-0.618518632,0.0588702048,-0.661214026
558,1399639,1806190,0.407,-0.662,-0.757,578.9,358.8,317.1,7.5,23.2,-22.9,0.432264168,-0.607531968,0.0580767235,-0.6638081
559,1401938,1806190,0.459,-0.296,-0.876,532.8,363.8,281.8,9.2,20.9,-23.3,0.44288461,-0.596819971,0.0575273904,-0.666554765
560,1403860,1806190,0.634,-0.186,-0.939,532.8,363.8,281.8,9.2,20.9,-23.3,0.453413495,-0.585955382,0.0569780572,-0.669148839
561,1407693,1806190,0.824,0.197,-0.837,511.5,293.9,260.5,9.2,20.9,-23.3,0.463362529,-0.576219977,0.0556962798,-0.670918912
562,1409637,1806200,0.942,0.364,-0.734,496.1,201.8,237.5,9.2,20.9,-23.3,0.472792749,-0.567918943,0.0534989471,-0.67159032
563,1411869,1806200,1.044,0.359,-0.556,487.4,102.4,212.3,10,18.6,-24.9,0.481795709,-0.561082797,0.050019837,-0.671193579
564,1413856,1806200,1.279,0.713,-0.099,488.3,5.7,184.9,10,18.6,-24.9,0.490432447,-0.555650502,0.0451979125,-0.669820246
565,1417853,1806200,1.343,0.873,0.157,500.9,-80.1,156.9,10,18.6,-24.9,0.498855556,-0.551255837,0.0389110996,-0.667622913
566,1420142,1806210,1.411,1.061,0.375,524.1,-147,130,10,18.6,-24.9,0.507126072,-0.547532579,0.0312509537,-0.66481521
567,1422140,1806210,1.48,1.284,0.628,551.1,-188.5,105.7,9.5,16,-26.2,0.515335551,-0.544053468,0.0224311045,-0.661732841
568,1424138,1806210,1.459,1.504,0.866,570,-202,84.3,9.5,16,-26.2,0.523361919,-0.540482803,0.012939848,-0.658589434
569,1426468,1806210,1.358,1.612,0.927,568.1,-189,66,9.5,16,-26.2,0.531022065,-0.536637471,0.00338755455,-0.655720695
570,1428724,1806220,1.232,1.574,0.902,536.4,-154.3,50.9,9.5,16,-26.2,0.538010804,-0.532578509,-0.0054628132,-0.653309732
571,1433249,1806220,1.107,1.498,0.802,472.4,-105.2,38.6,10.1,12.5,-27.8,0.543992431,-0.528519547,-0.0129703665,-0.651539659
572,1435439,1806220,0.82,1.392,0.569,382.1,-50.8,27.6,10.1,12.5,-27.8,0.548783837,-0.524704733,-0.0186773278,-0.650502029
573,1437647,1806220,0.678,1.253,0.439,276.9,-0.3,16,10.1,12.5,-27.8,0.552171392,-0.521378216,-0.0224311045,-0.650166326
574,1439676,1806230,0.575,1.09,0.324,170.1,39,2.7,10.1,12.5,-27.8,0.554155095,-0.518784143,-0.0243537706,-0.650502029
575,1441967,1806230,0.441,0.795,0.213,72.8,63,-12.5,8.6,13.7,-27.9,0.554826502,-0.516983551,-0.0247505112,-0.651326029
576,1444360,1806230,0.456,0.595,0.143,-6.8,70.7,-29.5,8.6,13.7,-27.9,0.554368725,-0.516037477,-0.024140141,-0.652485733
577,1446402,1806230,0.478,0.434,0.096,-64.8,64.4,-48,8.6,13.7,-27.9,0.552995392,-0.515884884,-0.0229499191,-0.653828547
578,1450432,1806240,0.529,0.332,0.091,-100.5,48.8,-66.8,8.6,13.7,-27.9,0.550920133,-0.51637318,-0.0216986602,-0.655232398
579,1452736,1806240,0.622,0.159,0.148,-116.4,12,-101.4,8.5,14.2,-27.4,0.548173467,-0.517563402,-0.0209967345,-0.65663625
580,1454550,1806240,0.642,0.072,0.187,-116.4,12,-101.4,8.5,14.2,-27.4,0.545396283,-0.518723106,-0.0203863643,-0.658040101
581,1456783,1806240,0.681,0.01,0.238,-108.4,-1.5,-114.9,8.5,14.2,-27.4,0.542527543,-0.519974364,-0.0201422163,-0.659413434
582,1460756,1806250,0.798,-0.155,0.31,-99.7,-11.2,-124.5,8.5,14.2,-27.4,0.539597766,-0.521256142,-0.0202337718,-0.660817286
583,1463032,1806250,0.821,-0.238,0.333,-96.4,-18.3,-129.4,8.4,15,-27.8,0.536606952,-0.522598956,-0.0205084384,-0.6621601
584,1464964,1806250,0.825,-0.319,0.373,-101.1,-24.5,-129.4,8.4,15,-27.8,0.53358562,-0.524094363,-0.020844142,-0.663441877
585,1466450,1806250,0.828,-0.515,0.33,-113.7,-31.1,-124.3,8.4,15,-27.8,0.530442213,-0.5258034,-0.0209967345,-0.664571062
586,1469407,1806260,0.859,-0.672,0.298,-132.5,-39.4,-113.8,8.4,15,-27.8,0.527268288,-0.52784814,-0.0208136235,-0.665486618
587,1471668,1806260,0.839,-0.754,0.318,-153.2,-49.7,-98.1,7.9,15.6,-27.3,0.524033326,-0.530289621,-0.0202642903,-0.666127506
588,1475301,1806260,0.811,-0.968,0.268,-172,-61.2,-76.6,7.9,15.6,-27.3,0.520920438,-0.533097324,-0.0193792535,-0.666371654
589,1476790,1806260,0.822,-1.109,0.229,-185.9,-72.4,-49.3,7.9,15.6,-27.3,0.517990661,-0.53624073,-0.0180669576,-0.666158025
590,1479935,1806270,0.821,-1.234,0.276,-193,-81.4,-17.9,7.9,15.6,-27.3,0.515427107,-0.539597766,-0.0164189581,-0.665456099
591,1482021,1806270,0.77,-1.409,0.258,-191.2,-87,14.9,9.2,15.3,-26.9,0.513351848,-0.543015839,-0.014435255,-0.664326914
592,1484358,1806270,0.793,-1.496,0.27,-179.1,-88.2,46.6,9.2,15.3,-26.9,0.511886959,-0.546311838,-0.0122684408,-0.662831507
593,1486481,1806270,0.771,-1.35,0.348,-156.8,-84.9,74.4,9.2,15.3,-26.9,0.51106296,-0.549302652,-0.0100711081,-0.661000397
594,1489351,1806280,0.763,-1.284,0.379,-126.1,-77.8,95.8,9.2,15.3,-26.9,0.510910367,-0.551835688,-0.00796533097,-0.659016694
595,1492588,1806280,0.768,-1.151,0.399,-91.1,-67.9,108.2,7.6,15.9,-26.9,0.511368145,-0.55384991,-0.0061037019,-0.657032991
596,1494828,1806280,0.788,-1.006,0.421,-58.4,-56.9,111.1,7.6,15.9,-26.9,0.512222663,-0.555345317,-0.00457777642,-0.655079806
597,1496759,1806280,0.753,-0.861,0.422,-34.6,-46.5,106.5,7.6,15.9,-26.9,0.513321329,-0.556382946,-0.00329599902,-0.653309732
598,1500015,1806290,0.699,-0.798,0.411,-22.7,-37.7,98.8,7.6,15.9,-26.9,0.514450514,-0.557176428,-0.00219733268,-0.651783807
599,1502123,1806290,0.652,-0.746,0.392,-24.5,-26,87.7,8.3,16,-27,0.515396588,-0.557847835,-0.00106814783,-0.650471511
600,1504384,1806290,0.582,-0.612,0.397,-24.5,-26,87.7,8.3,16,-27,0.516342662,-0.558488723,3.05185095e-05,-0.649159215
601,1506520,1806290,0.547,-0.549,0.425,-27.4,-23.6,84.6,8.3,16,-27,0.517227699,-0.559129612,0.00115970336,-0.647938475
602,1509378,1806300,0.54,-0.474,0.464,-27.1,-22.9,81.5,8.3,16,-27,0.518051698,-0.559770501,0.00228888821,-0.646717734
603,1511686,1806300,0.544,-0.431,0.484,-23.5,-23,78.4,8.5,16,-27,0.51884518,-0.560350352,0.00332651753,-0.645558031
604,1513946,1806300,0.513,-0.411,0.523,-18.7,-22.5,75.2,8.5,16,-27,0.519699698,-0.560869167,0.00424207282,-0.644428846
605,1516307,1806300,0.505,-0.423,0.524,-15,-20.2,72.5,8.5,16,-27,0.520493179,-0.561326945,0.00512710959,-0.643360698
606,1519919,1806310,0.493,-0.43,0.524,-13.4,-15.7,70.7,8.5,16,-27,0.521347697,-0.561693167,0.00598162786,-0.642353587
607,1522003,1806310,0.478,-0.45,0.524,-13.6,-9.3,70.5,9.2,15.9,-27.1,0.522171697,-0.561967833,0.00695822016,-0.641438032
608,1524243,1806310,0.525,-0.392,0.515,-13.8,-2.3,72.1,9.2,15.9,-27.1,0.523026215,-0.562150945,0.00799584948,-0.640583514
609,1527520,1806310,0.521,-0.353,0.515,-12.6,4,74,9.2,15.9,-27.1,0.523880734,-0.562211982,0.00912503433,-0.639790033
610,1529152,1806320,0.54,-0.361,0.488,-9.3,8.8,73.8,9.2,15.9,-27.1,0.524796289,-0.562181463,0.0102542192,-0.63902707
611,1532439,1806320,0.537,-0.24,0.476,-5,11.5,69.7,8.8,15.7,-27,0.525711844,-0.562059389,0.011322367,-0.638386181
612,1534528,1806320,0.482,-0.274,0.43,-1.5,12.2,62.3,8.8,15.7,-27,0.526566362,-0.561906796,0.0122379223,-0.63780633
613,1536928,1806320,0.458,-0.243,0.43,-0.6,11.4,53,8.8,15.7,-27,0.527298807,-0.561723685,0.0130314035,-0.637348552
614,1539040,1806330,0.478,-0.2,0.418,-2.5,9.1,44.7,8.8,15.7,-27,0.527878658,-0.561601611,0.0137333293,-0.636951811
615,1542037,1806330,0.553,-0.158,0.456,-6.3,5.5,38.8,9.3,16.4,-27,0.528305918,-0.561601611,0.0143436995,-0.636555071
616,1544249,1806330,0.51,-0.11,0.46,-9.8,1.4,35,9.3,16.4,-27,0.528702658,-0.561693167,0.0149540696,-0.63615833
617,1547824,1806330,0.486,-0.196,0.453,-12.3,-0.7,30.5,9.3,16.4,-27,0.528977325,-0.561815241,0.0154728843,-0.635792108
618,1549302,1806340,0.423,-0.258,0.439,-14.1,0.4,22.9,9.3,16.4,-27,0.529129917,-0.561967833,0.0159611805,-0.63554796
619,1553315,1806340,0.603,-0.167,0.466,-15.7,6.6,4.1,9.3,16,-26.7,0.528977325,-0.562059389,0.0162968841,-0.635578478
620,1553673,1806340,0.591,-0.221,0.447,-15.7,6.6,4.1,9.3,16,-26.7,0.528855251,-0.562150945,0.0166631062,-0.635608997
621,1557816,1806340,0.615,-0.21,0.447,-14.8,8.4,-5.3,9.3,16,-26.7,0.528580584,-0.562211982,0.0168462172,-0.635761589
622,1560071,1806350,0.599,-0.257,0.424,-13.9,9.8,-16.7,9.3,16,-26.7,0.528183844,-0.5622425,0.0169682913,-0.636066774
623,1561936,1806350,0.622,-0.265,0.431,-14.4,11.3,-30.2,9.7,16.5,-26.9,0.527573473,-0.5622425,0.0169377728,-0.636555071
624,1564233,1806350,0.552,-0.295,0.425,-16.7,12.6,-43.4,9.7,16.5,-26.9,0.526749474,-0.562303537,0.0167851802,-0.637195959
625,1566915,1806350,0.56,-0.338,0.409,-20.6,12.4,-53.6,9.7,16.5,-26.9,0.525742363,-0.562364574,0.0165715506,-0.637958922
626,1569449,1806360,0.497,-0.376,0.387,-25.1,9.8,-60.1,9.7,16.5,-26.9,0.524613178,-0.562547685,0.0162968841,-0.638752403
627,1571556,1806360,0.548,-0.338,0.401,-28.7,4.4,-64,9.4,16.8,-26.9,0.523361919,-0.562822352,0.0159611805,-0.639545885
628,1575536,1806360,0.599,-0.323,0.4,-30.8,-3.5,-67.7,9.4,16.8,-26.9,0.522049623,-0.563249611,0.0155034028,-0.64024781
629,1577868,1806360,0.571,-0.35,0.377,-31.7,-12.7,-73.8,9.4,16.8,-26.9,0.520615253,-0.563829463,0.0148930326,-0.640919218
630,1580203,1806370,0.712,-0.278,0.39,-32.9,-21.3,-83.8,9.4,16.8,-26.9,0.519058809,-0.564531388,0.0140995514,-0.641590625
631,1582664,1806370,0.649,-0.34,0.341,-35.8,-27.2,-97.2,7.9,16.6,-26.8,0.517258217,-0.56532487,0.0130924406,-0.642353587
632,1584520,1806370,0.629,-0.379,0.302,-41,-29.7,-112.1,7.9,16.6,-26.8,0.515182958,-0.566240425,0.0119327372,-0.643238624
633,1586754,1806370,0.621,-0.422,0.279,-48.1,-29.8,-126.1,7.9,16.6,-26.8,0.512833033,-0.567247536,0.0107425153,-0.644276254
634,1590210,1806380,0.633,-0.418,0.263,-54.6,-29.7,-137.6,7.9,16.6,-26.8,0.510208441,-0.568285165,0.00946073794,-0.645435957
635,1593080,1806380,0.734,-0.404,0.257,-57.5,-31.8,-145.1,9.2,17.3,-26.6,0.507461776,-0.56941435,0.00811792352,-0.646626179
636,1595310,1806380,0.723,-0.389,0.253,-55.9,-37.6,-148.3,9.2,17.3,-26.6,0.504684591,-0.570574053,0.00665303507,-0.647785882
637,1597537,1806380,0.801,-0.413,0.248,-51.2,-46.7,-147.7,9.2,17.3,-26.6,0.501937925,-0.571825312,0.00500503555,-0.648823511
638,1599598,1806390,0.879,-0.344,0.254,-45.3,-57.4,-145.2,9.2,17.3,-26.6,0.499343852,-0.573137608,0.00320444349,-0.649708548
639,1601580,1806390,0.879,-0.344,0.254,-45.3,-57.4,-145.2,9.2,17.3,-26.6,0.499343852,-0.573137608,0.00320444349,-0.649708548
640,1605674,1806390,0.879,-0.344,0.254,-45.3,-57.4,-145.2,9.2,17.3,-26.6,0.499343852,-0.573137608,0.00320444349,-0.649708548
641,1607900,1806390,1.133,-0.286,0.277,-36.3,-84.2,-138.1,8.6,17.3,-26.6,0.491927854,-0.577410199,-0.00338755455,-0.651570177
642,1610228,1806400,1.184,-0.279,0.264,-38.2,-89,-136.8,8.6,17.3,-26.6,0.489516892,-0.579058199,-0.00552385022,-0.651905881
643,1611918,1806400,1.207,-0.287,0.264,-42.6,-91.1,-135.2,7.5,17.7,-26.7,0.487014374,-0.580797754,-0.00759910886,-0.652211066
644,1614378,1806400,1.266,-0.288,0.282,-49.4,-90,-132.5,7.5,17.7,-26.7,0.484481338,-0.582567827,-0.00952177496,-0.652485733
645,1616704,1806400,1.262,-0.304,0.282,-57.7,-85.2,-128.5,7.5,17.7,-26.7,0.481917783,-0.584368419,-0.01126133,-0.652760399
646,1619044,1806410,1.274,-0.324,0.282,-66.5,-77.3,-123.3,7.5,17.7,-26.7,0.479293191,-0.586138493,-0.0126956999,-0.653096103
647,1621477,1806410,1.301,-0.328,0.293,-74.9,-67.1,-118,7.1,17.8,-26.7,0.476607562,-0.58784753,-0.0138248848,-0.653462325
648,1623806,1806410,1.187,-0.385,0.288,-82,-55.2,-113.4,7.1,17.8,-26.7,0.473921934,-0.589434492,-0.0146794031,-0.65398114
649,1628387,1806410,1.047,-0.441,0.263,-86.9,-41.6,-110.1,7.1,17.8,-26.7,0.471236305,-0.59089938,-0.0152897732,-0.65459151
650,1628696,1806420,0.941,-0.478,0.245,-88.8,-26.3,-108.4,7.1,17.8,-26.7,0.468520157,-0.592150639,-0.0156865139,-0.655384991
651,1632865,1806420,0.835,-0.5,0.232,-86.9,-11.4,-108.1,5,18.5,-26.3,0.465834529,-0.59315775,-0.0159611805,-0.656392102
652,1635299,1806420,0.8,-0.5,0.228,-81.1,0.3,-109.2,5,18.5,-26.3,0.463240455,-0.593951231,-0.0162053285,-0.657521287
653,1637553,1806420,0.757,-0.503,0.221,-72.2,7,-110.9,5,18.5,-26.3,0.460707419,-0.594531083,-0.0165410321,-0.658742027
654,1639618,1806430,0.741,-0.506,0.218,-62.7,9.4,-112.6,5,18.5,-26.3,0.458265938,-0.594988861,-0.0169682913,-0.660023804
655,1641712,1806430,0.734,-0.459,0.23,-54.6,8.8,-113.8,6.1,18.8,-26.5,0.455916013,-0.595355083,-0.0175786615,-0.661305582
656,1643737,1806430,0.734,-0.452,0.226,-49.6,7.3,-114.1,6.1,18.8,-26.5,0.453596606,-0.595690786,-0.0183111057,-0.662556841
657,1648151,1806430,0.722,-0.447,0.218,-48.1,6.3,-113.5,6.1,18.8,-26.5,0.451368755,-0.59602649,-0.0190130314,-0.663777581
658,1650440,1806440,0.706,-0.439,0.211,-49.9,7,-112.3,6.1,18.8,-26.5,0.449079867,-0.596392712,-0.0196539201,-0.664998321
659,1652413,1806440,0.671,-0.455,0.172,-54.4,9.7,-111.3,5.7,19.4,-26.2,0.44676046,-0.596728416,-0.0202337718,-0.666219062
660,1653966,1806440,0.659,-0.466,0.172,-60,14.3,-111.2,5.7,19.4,-26.2,0.444380016,-0.597033601,-0.0206915494,-0.667531358
661,1656182,1806440,0.64,-0.474,0.165,-64.7,19.9,-112.4,5.7,19.4,-26.2,0.441877499,-0.597338786,-0.0209967345,-0.668904691
662,1658986,1806450,0.601,-0.489,0.173,-67.1,25.7,-115,5.7,19.4,-26.2,0.439344462,-0.597552416,-0.0212408826,-0.670369579
663,1662103,1806450,0.581,-0.48,0.178,-66.4,30.8,-118.9,5.9,19.7,-26.2,0.436750389,-0.59767449,-0.0215765862,-0.671956542
664,1664335,1806450,0.554,-0.476,0.19,-62.9,34.7,-123.8,5.9,19.7,-26.2,0.434156316,-0.597705008,-0.0219122898,-0.673604541
665,1668181,1806450,0.534,-0.476,0.19,-57.3,36.7,-129.1,5.9,19.7,-26.2,0.431501205,-0.597643971,-0.0224311045,-0.675313578
666,1669497,1806460,0.507,-0.467,0.199,-51,36.4,-134,5.9,19.7,-26.2,0.428876614,-0.597521897,-0.0230719932,-0.677083651
667,1672474,1806460,0.511,-0.46,0.195,-44.6,33.9,-138.2,5.6,19.8,-25.6,0.426252022,-0.597369304,-0.0238959929,-0.678853725
668,1674156,1806460,0.492,-0.444,0.203,-38.7,29.5,-141.2,5.6,19.8,-25.6,0.423688467,-0.597216712,-0.0249031037,-0.680562761
669,1677997,1806460,0.492,-0.42,0.211,-33.3,24,-143.1,5.6,19.8,-25.6,0.421155431,-0.597064119,-0.0260017701,-0.682210761
670,1680179,1806470,0.523,-0.374,0.218,-28.7,17.9,-144.5,5.6,19.8,-25.6,0.418622394,-0.596972564,-0.027314066,-0.683797723
671,1681649,1806470,0.543,-0.351,0.221,-25,11.8,-146,4.2,20,-25.7,0.416119877,-0.596942045,-0.0287484359,-0.68529313
672,1684468,1806470,0.562,-0.327,0.225,-22.2,5.8,-148.1,4.2,20,-25.7,0.413617359,-0.596972564,-0.0302743614,-0.6867275
673,1687449,1806470,0.586,-0.269,0.252,-20.2,0,-151.1,4.2,20,-25.7,0.411084323,-0.597033601,-0.0319528794,-0.688100833
674,1689023,1806480,0.59,-0.289,0.232,-18.9,-5.6,-154.8,4.2,20,-25.7,0.408520768,-0.597186193,-0.033722953,-0.689413129
675,1691989,1806480,0.61,-0.258,0.236,-18.5,-11.5,-158.9,4,20.4,-26.1,0.405865658,-0.597399823,-0.0356456191,-0.690694906
676,1694144,1806480,0.657,-0.216,0.25,-18.8,-18.1,-163.8,4,20.4,-26.1,0.40314951,-0.597705008,-0.0376293222,-0.691915647
677,1697366,1806480,0.739,-0.158,0.233,-19.5,-25.9,-169.1,4,20.4,-26.1,0.400311289,-0.598132267,-0.0397961364,-0.69307535
678,1698825,1806490,0.766,-0.128,0.236,-20.7,-34.6,-175,4,20.4,-26.1,0.397350993,-0.5986816,-0.0420239875,-0.694174017
679,1701559,1806490,0.876,-0.087,0.211,-23.2,-43.3,-180.8,2.7,20.5,-25.6,0.394268624,-0.599383526,-0.0444349498,-0.695181127
680,1704586,1806490,0.942,-0.049,0.205,-27.5,-51.2,-186.1,2.7,20.5,-25.6,0.391033662,-0.600207526,-0.0469069491,-0.696127201
681,1707738,1806490,0.993,-0.034,0.181,-33.2,-57.5,-190.5,2.7,20.5,-25.6,0.387646107,-0.6011536,-0.0493484298,-0.697042756
682,1709260,1806500,1.024,-0.019,0.176,-40,-61.7,-194.4,2.7,20.5,-25.6,0.384075442,-0.602221747,-0.0518509476,-0.697897275
683,1712445,1806500,1.079,0.006,0.175,-47.6,-63,-197.9,2.2,20.7,-25.5,0.380382702,-0.603350932,-0.0542313913,-0.698782311
684,1714918,1806500,1.18,0.009,0.17,-55.8,-61.8,-200.8,2.2,20.7,-25.5,0.376506851,-0.604510636,-0.0565507981,-0.699697867
685,1717038,1806500,1.204,0,0.165,-65.1,-58.3,-202.4,2.2,20.7,-25.5,0.372478408,-0.605670339,-0.0587176122,-0.700643941
686,1719294,1806510,1.243,-0.015,0.161,-75.5,-52.8,-202.4,2.2,20.7,-25.5,0.368297372,-0.606830042,-0.0606402783,-0.70168157
687,1721565,1806510,1.262,-0.043,0.156,-86.8,-46.2,-201,1.2,21.3,-25.1,0.364024781,-0.607959227,-0.0623493149,-0.702810755
688,1723799,1806510,1.293,-0.09,0.148,-98.1,-39.2,-198.7,1.2,21.3,-25.1,0.359599597,-0.609057894,-0.0638142033,-0.703970458
689,1726303,1806510,1.301,-0.125,0.148,-108.5,-32.9,-196.1,1.2,21.3,-25.1,0.355113376,-0.61015656,-0.0650044252,-0.705221717
690,1730725,1806520,1.289,-0.157,0.148,-117.6,-27.8,-193.3,1.2,21.3,-25.1,0.350505081,-0.611194189,-0.0659810175,-0.706503494
691,1733259,1806520,1.273,-0.234,0.137,-125,-24.3,-189.9,0.5,21.6,-25.1,0.345896786,-0.612262337,-0.0667744987,-0.70781579
692,1734987,1806520,1.261,-0.265,0.141,-131,-22.3,-185.8,0.5,21.6,-25.1,0.341227454,-0.613330485,-0.0673848689,-0.709097568
693,1737421,1806520,1.242,-0.292,0.145,-135.6,-21.9,-180.6,0.5,21.6,-25.1,0.336588641,-0.614398633,-0.0678731651,-0.710348827
694,1739592,1806530,1.21,-0.335,0.142,-138.7,-22.6,-173.9,0.5,21.6,-25.1,0.331980346,-0.615497299,-0.0682088687,-0.71150853
695,1741570,1806530,1.148,-0.388,0.171,-140.7,-23.8,-165.5,0.2,22.2,-24.3,0.327494125,-0.616626484,-0.0684224982,-0.712576678
696,1745519,1806530,1.12,-0.396,0.183,-141.5,-24.9,-155.3,0.2,22.2,-24.3,0.323129978,-0.617786187,-0.0684530168,-0.71355327
697,1747686,1806530,1.085,-0.395,0.203,-141.4,-25.5,-144.3,0.2,22.2,-24.3,0.318948943,-0.618976409,-0.0684224982,-0.714438307
698,1750066,1806540,1.007,-0.398,0.213,-141.1,-25.4,-133.6,0.2,22.2,-24.3,0.314889981,-0.620136113,-0.0682088687,-0.715231788
699,1752191,1806540,0.996,-0.401,0.217,-141.2,-24.4,-124.3,-0.2,22.6,-23,0.31101413,-0.621295816,-0.0678426466,-0.715964232
700,1754317,1806540,0.98,-0.409,0.213,-142.2,-22.9,-117.1,-0.2,22.6,-23,0.307229835,-0.622455519,-0.0673543504,-0.71663564
701,1758226,1806540,0.976,-0.424,0.213,-143.5,-21.1,-112.6,-0.2,22.6,-23,0.303476058,-0.623554186,-0.0668050172,-0.717307047
702,1760474,1806550,0.96,-0.432,0.218,-144.2,-18.9,-110.8,-0.2,22.6,-23,0.2997528,-0.624652852,-0.0661641285,-0.718008972
703,1762848,1806550,0.957,-0.447,0.229,-143.3,-16.6,-111.5,-0.9,23.1,-22.9,0.296029542,-0.625690481,-0.0655232398,-0.718710898
704,1765110,1806550,0.964,-0.459,0.225,-140.2,-14.1,-114.2,-0.9,23.1,-22.9,0.292306284,-0.626636555,-0.0650044252,-0.719443342
705,1767015,1806550,0.968,-0.471,0.225,-134.6,-11.8,-118.5,-0.9,23.1,-22.9,0.288583026,-0.627521592,-0.0645466475,-0.720236824
706,1769585,1806560,0.972,-0.498,0.245,-127.3,-9.6,-124.2,-0.9,23.1,-22.9,0.284859767,-0.628284555,-0.064333018,-0.721060823
707,1771514,1806560,0.98,-0.526,0.249,-118.5,-7.7,-130.8,-1.3,23,-21.6,0.281167028,-0.628955962,-0.064333018,-0.721915342
708,1775558,1806560,0.988,-0.522,0.252,-108.7,-6.3,-138,-1.3,23,-21.6,0.277504807,-0.629535813,-0.0645466475,-0.722830897
709,1777857,1806560,1.027,-0.492,0.248,-98.2,-5.9,-144.8,-1.3,23,-21.6,0.273842586,-0.63002411,-0.0650349437,-0.723746452
710,1780017,1806570,1.062,-0.469,0.239,-87.3,-6.7,-150.2,-1.3,23,-21.6,0.27027192,-0.63042085,-0.0657368694,-0.724662008
711,1781948,1806570,1.109,-0.423,0.23,-77.2,-8.7,-153.4,-2.1,24,-24.8,0.266762291,-0.630787072,-0.0666829432,-0.725577563
712,1785127,1806570,1.156,-0.4,0.226,-69.1,-11.9,-154.3,-2.1,24,-24.8,0.263344218,-0.631153294,-0.0677816095,-0.726401563
713,1786498,1806570,1.253,-0.386,0.216,-63.8,-15.8,-153.2,-2.1,24,-24.8,0.260017701,-0.631550035,-0.0689413129,-0.727134007
714,1789405,1806580,1.261,-0.355,0.227,-60.9,-19.4,-150.9,-2.1,24,-24.8,0.25675222,-0.631946776,-0.0701925718,-0.727835932
715,1792474,1806580,1.27,-0.281,0.278,-58.6,-21.5,-148.7,-2.2,23.8,-22.6,0.253547777,-0.632404553,-0.0714438307,-0.728446303
716,1793841,1806580,1.301,-0.226,0.297,-55.6,-21.5,-146.8,-2.2,23.8,-22.6,0.25040437,-0.632831812,-0.0726950896,-0.729056673
717,1796826,1806580,1.27,-0.206,0.313,-52.7,-19.6,-144.8,-2.2,23.8,-22.6,0.247352519,-0.633198035,-0.073976867,-0.729636525
718,1799130,1806590,1.258,-0.214,0.302,-51.6,-16.4,-141.8,-2.2,23.8,-22.6,0.244331187,-0.63350322,-0.0751976073,-0.730246895
719,1802360,1806590,1.258,-0.206,0.282,-52.7,-12.5,-137.5,-3.2,24,-22.3,0.24140141,-0.633747368,-0.0763267922,-0.730918302
720,1804265,1806590,1.251,-0.194,0.282,-55.1,-8.1,-132.9,-3.2,24,-22.3,0.238502152,-0.633930479,-0.0773033845,-0.731589709
721,1807604,1806590,1.219,-0.186,0.283,-56.8,-3.4,-129.7,-3.2,24,-22.3,0.235633412,-0.634083071,-0.0782189398,-0.732291635
722,1809555,1806600,1.184,-0.177,0.287,-57,1.3,-129.4,-3.2,24,-22.3,0.232764672,-0.63411359,-0.0791039766,-0.733085116
723,1812618,1806600,1.184,-0.166,0.303,-55.9,5.8,-132,-3.6,24.2,-22,0.229895932,-0.634083071,-0.0799890133,-0.733909116
724,1814189,1806600,1.235,-0.163,0.325,-54.1,8.9,-136.8,-3.6,24.2,-22,0.226966155,-0.633960997,-0.0809656056,-0.734824671
725,1816549,1806600,1.251,-0.163,0.337,-52.9,10.2,-141.7,-3.6,24.2,-22,0.223975341,-0.633777886,-0.0820337535,-0.735770745
726,1818983,1806610,1.239,-0.166,0.345,-53.1,9.6,-145.4,-3.6,24.2,-22,0.22092349,-0.633655812,-0.0831629383,-0.7366863
727,1822486,1806610,1.224,-0.186,0.337,-55.1,8.1,-147.3,-4,24,-23.1,0.217810602,-0.63350322,-0.0842616047,-0.737601856
728,1823831,1806610,1.219,-0.241,0.295,-58.6,6.6,-148.1,-4,24,-23.1,0.214636677,-0.633411664,-0.0853297525,-0.738517411
729,1827845,1806610,1.215,-0.229,0.295,-62.4,6.1,-149.1,-4,24,-23.1,0.211371197,-0.633320109,-0.0863673818,-0.739402448
730,1830257,1806620,1.215,-0.201,0.298,-65.1,7.4,-151.2,-4,24,-23.1,0.208044679,-0.633198035,-0.0873439741,-0.740318003
731,1831968,1806620,1.188,-0.123,0.279,-66,10.6,-153.2,-5,24.2,-22.2,0.204687643,-0.633045442,-0.0883510849,-0.741294595
732,1833707,1806620,1.172,-0.158,0.24,-66.3,15.1,-153.2,-5,24.2,-22.2,0.201300089,-0.632801294,-0.0893276772,-0.742301706
733,1837425,1806620,1.184,-0.178,0.217,-68,20.2,-149.8,-5,24.2,-22.2,0.197973571,-0.63246559,-0.090212714,-0.743369854
734,1838843,1806630,1.168,-0.17,0.198,-71.3,24.4,-143.4,-5,24.2,-22.2,0.19470809,-0.632099368,-0.0909146397,-0.74446852
735,1841790,1806630,1.113,-0.15,0.144,-75.2,27,-135.4,-5.3,24.1,-21.9,0.191534165,-0.631702628,-0.0914639729,-0.745567186
736,1845941,1806630,1.136,-0.185,0.124,-78,27,-128,-5.3,24.1,-21.9,0.188421278,-0.631336406,-0.091830195,-0.746604816
737,1846320,1806630,1.144,-0.154,0.12,-78.3,24.4,-123.2,-5.3,24.1,-21.9,0.185399945,-0.631000702,-0.0921658986,-0.747611927
738,1848893,1806640,1.137,-0.041,0.167,-74.9,20.1,-122.5,-5.3,24.1,-21.9,0.182378613,-0.630726035,-0.0925321207,-0.748527482
739,1852251,1806640,1.137,0.009,0.178,-68.5,15.5,-125.8,-5.5,24,-21.9,0.179418317,-0.630481887,-0.0930814539,-0.749382
740,1853909,1806640,1.145,0.056,0.174,-61.7,11.7,-130.7,-5.5,24,-21.9,0.176458022,-0.630268258,-0.0938444166,-0.750175481
741,1857102,1806640,1.138,0.123,0.174,-58.6,8.6,-134.7,-5.5,24,-21.9,0.173467208,-0.630085147,-0.0946989349,-0.750938444
742,1859344,1806650,1.114,0.17,0.167,-62.4,6.1,-136.7,-5.5,24,-21.9,0.170384838,-0.629932554,-0.0955229347,-0.751670888
743,1861585,1806650,1.095,0.19,0.179,-73,4.2,-136.9,-6.3,24.3,-21.5,0.167149876,-0.629840999,-0.0961943419,-0.752372814
744,1863862,1806650,1.126,0.127,0.151,-88.4,2.6,-136.1,-6.3,24.3,-21.5,0.163701285,-0.629840999,-0.0965910825,-0.75307474
745,1866314,1806650,1.192,0.055,0.118,-105.5,1.2,-134.9,-6.3,24.3,-21.5,0.160039064,-0.629871517,-0.0967131565,-0.753807184
746,1870109,1806660,1.239,0.019,0.114,-120.9,0.3,-134.8,-6.3,24.3,-21.5,0.156132694,-0.63002411,-0.0965910825,-0.754539628
747,1872129,1806660,1.254,0.011,0.117,-131.6,0.7,-136,-7.3,24.3,-21,0.152104251,-0.630176702,-0.0962858974,-0.755272073
748,1874056,1806660,1.235,0.023,0.133,-136.8,2.7,-137.6,-7.3,24.3,-21,0.147953734,-0.630268258,-0.0959196753,-0.756035035
749,1877310,1806660,1.188,0.016,0.119,-138.2,6.3,-138,-7.3,24.3,-21,0.143772698,-0.630329295,-0.0954924162,-0.756859035
750,1880333,1806670,1.141,0.009,0.112,-138.2,10.3,-136.3,-7.3,24.3,-21,0.139652699,-0.630298776,-0.095065157,-0.757713553
751,1882654,1806670,1.117,-0.001,0.1,-138.4,14.4,-133,-7.7,25,-19.8,0.135593738,-0.630207221,-0.0945463424,-0.75859859
752,1888216,1806670,1.09,-0.001,0.093,-139,18.1,-129.1,-7.7,25,-19.8,0.131565294,-0.630054628,-0.0939664907,-0.759514145
753,1888216,1806670,1.051,-0.028,0.058,-139.8,21.3,-125.7,-7.7,25,-19.8,0.127597888,-0.62981048,-0.093325602,-0.760460219
754,1889213,1806680,1.058,-0.048,0.051,-140.3,23.9,-123.3,-7.7,25,-19.8,0.123630482,-0.629566332,-0.0926236763,-0.761406293
755,1892670,1806680,1.047,-0.047,0.051,-140.4,25.6,-121.8,-7.6,25,-20.2,0.11978515,-0.629261147,-0.091891232,-0.762352367
756,1894981,1806680,1.058,-0.099,0.019,-140.2,26.5,-120.6,-7.6,25,-20.2,0.11587878,-0.628955962,-0.0911587878,-0.763298441
757,1896876,1806680,0.995,-0.164,-0.021,-139.7,26.7,-118.9,-7.6,25,-20.2,0.112033448,-0.628620258,-0.0903958251,-0.764244514
758,1899182,1806690,0.983,-0.187,-0.021,-138.5,26.8,-116.7,-7.6,25,-20.2,0.108249153,-0.628254036,-0.0896023438,-0.76516007
759,1902124,1806690,0.999,-0.144,0.017,-136,26.8,-114.5,-8.5,24.8,-19.7,0.104709006,-0.628131962,-0.0886257515,-0.765892514
760,1904550,1806690,1.015,-0.152,0.028,-132.7,26.6,-112.4,-8.5,24.8,-19.7,0.101077303,-0.62776574,-0.0878627888,-0.766777551
761,1906697,1806690,1.031,-0.168,0.051,-130.5,26,-109.7,-8.5,24.8,-19.7,0.0975066378,-0.627399518,-0.0871303446,-0.76760155
762,1910958,1806700,1.027,-0.188,0.055,-131.1,25.2,-105.5,-8.5,24.8,-19.7,0.0939664907,-0.627033296,-0.0863368633,-0.76842555
763,1911284,1806700,1.023,-0.219,0.044,-135.1,24.5,-99.8,-8.8,25.1,-19,0.0904873806,-0.626728111,-0.0853907895,-0.769219031
764,1914771,1806700,1.023,-0.219,0.044,-135.1,24.5,-99.8,-8.8,25.1,-19,0.0904873806,-0.626728111,-0.0853907895,-0.769219031
765,1918155,1806700,0.971,-0.289,0.021,-147.2,25.5,-87.1,-8.8,25.1,-19,0.0835901975,-0.626087222,-0.0829187902,-0.770775475
766,1920197,1806710,0.964,-0.304,0.018,-151.9,27.1,-81.3,-8.8,25.1,-19,0.0802331614,-0.625751518,-0.0814233833,-0.771568957
767,1922639,1806710,0.971,-0.32,0.017,-154.4,29,-75.8,-9.5,25.3,-18.9,0.0768761254,-0.625415815,-0.0798059023,-0.772362438
768,1924576,1806710,0.967,-0.339,0.033,-154.8,30.4,-70.6,-9.5,25.3,-18.9,0.0736411634,-0.625019074,-0.0780968657,-0.773155919
769,1926838,1806710,0.948,-0.327,0.053,-153.4,31.1,-65.6,-9.5,25.3,-18.9,0.0704977569,-0.624622333,-0.0763573107,-0.7739494
770,1928955,1806720,0.948,-0.331,0.065,-151.1,31.1,-60.8,-9.5,25.3,-18.9,0.0674459059,-0.624225593,-0.0745872372,-0.774712363
771,1931628,1806720,0.94,-0.35,0.085,-148.4,30.7,-56.2,-9.6,27,-16.7,0.064516129,-0.623828852,-0.0727866451,-0.775444807
772,1933764,1806720,0.925,-0.358,0.097,-145.4,30.2,-52.2,-9.6,27,-16.7,0.0617084262,-0.623432112,-0.0710165716,-0.776146733
773,1936213,1806720,0.917,-0.361,0.113,-142.1,29.9,-48.3,-9.6,27,-16.7,0.0590227973,-0.623035371,-0.0692159795,-0.776848659
774,1940586,1806730,0.913,-0.357,0.12,-138.3,30.1,-44.8,-9.6,27,-16.7,0.0563982055,-0.62263863,-0.0674459059,-0.777520066
775,1942767,1806730,0.906,-0.361,0.14,-133.8,30.4,-41.6,-9.8,25.8,-18.8,0.0539262062,-0.62224189,-0.0657063509,-0.778191473
776,1945059,1806730,0.906,-0.369,0.148,-129.1,30.9,-38.3,-9.8,25.8,-18.8,0.0515457625,-0.621784112,-0.0639973144,-0.778832362
777,1947101,1806730,0.898,-0.369,0.152,-124.3,31.3,-35,-9.8,25.8,-18.8,0.0493484298,-0.621356853,-0.0622882778,-0.779473251
778,1949380,1806740,0.906,-0.353,0.16,-119.7,31.7,-31.7,-9.8,25.8,-18.8,0.0472121342,-0.620899075,-0.0606707968,-0.780083621
779,1951570,1806740,0.906,-0.353,0.16,-119.7,31.7,-31.7,-9.8,25.8,-18.8,0.0472121342,-0.620899075,-0.0606707968,-0.780083621
780,1954031,1806740,0.906,-0.318,0.16,-110.9,32.3,-25.8,-9.5,26.2,-18.5,0.04504532,-0.620441298,-0.0553300577,-0.780968657
781,1956201,1806740,0.913,-0.322,0.148,-107.4,32.5,-22.8,-9.5,26.2,-18.5,0.0432447279,-0.619953001,-0.0537430952,-0.781548509
782,1958699,1806750,0.902,-0.326,0.14,-104.7,32.8,-19.6,-9.5,26.2,-18.5,0.0415356914,-0.619464705,-0.0522476882,-0.782158879
783,1962925,1806750,0.91,-0.322,0.14,-102.1,33.3,-16.5,-10,26.3,-17.7,0.0398876919,-0.618976409,-0.0506912442,-0.782738731
784,1965215,1806750,0.906,-0.326,0.152,-99.1,34,-13.6,-10,26.3,-17.7,0.0383617664,-0.618457595,-0.0491042817,-0.783318583
785,1967514,1806750,0.91,-0.326,0.16,-95.6,34.6,-11.2,-10,26.3,-17.7,0.036896878,-0.61793878,-0.0476393933,-0.783898434
786,1969618,1806760,0.906,-0.334,0.167,-91.9,35.2,-8.9,-10,26.3,-17.7,0.0355540635,-0.617389447,-0.0461439863,-0.784447768
787,1971690,1806760,0.89,-0.333,0.172,-88.4,35.6,-6.6,-10,26.8,-17.4,0.0343028047,-0.616840114,-0.0447096164,-0.785027619
788,1975657,1806760,0.89,-0.325,0.172,-85.2,35.8,-4.2,-10,26.8,-17.4,0.0331125828,-0.61629078,-0.0432447279,-0.785607471
789,1977972,1806760,0.906,-0.357,0.16,-82.4,35.7,-1.8,-10,26.8,-17.4,0.0320139164,-0.615741447,-0.041871395,-0.786126286
790,1980196,1806770,0.906,-0.353,0.164,-80,35.8,0.5,-10,26.8,-17.4,0.0309762871,-0.615192114,-0.0404675436,-0.786706137
791,1982508,1806770,0.89,-0.349,0.16,-77.6,36,2.7,-9.8,27.9,-15.7,0.0299996948,-0.614612262,-0.0390636921,-0.78725547
792,1984497,1806770,0.886,-0.353,0.156,-75,36.3,5.1,-9.8,27.9,-15.7,0.029114658,-0.614032411,-0.0376903592,-0.787804804
793,1986834,1806770,0.886,-0.341,0.152,-72,36.7,7.5,-9.8,27.9,-15.7,0.0283211768,-0.613452559,-0.0363170263,-0.788354137
794,1989014,1806780,0.886,-0.341,0.144,-68.6,36.9,9.6,-9.8,27.9,-15.7,0.0275887326,-0.612872707,-0.0349436934,-0.78890347
795,1993115,1806780,0.882,-0.337,0.144,-65.3,36.5,11.5,-9.6,27.7,-15.8,0.0269478439,-0.612292856,-0.0336924345,-0.789422285
796,1995388,1806780,0.882,-0.341,0.144,-62.2,35.6,13.2,-9.6,27.7,-15.8,0.0263679922,-0.611713004,-0.0324106571,-0.789941099
797,1997615,1806780,0.886,-0.349,0.14,-59.6,34.2,14.7,-9.6,27.7,-15.8,0.0258491775,-0.611194189,-0.0311288797,-0.790429395
798,1999779,1806790,0.886,-0.349,0.144,-57.2,32.5,16,-9.6,27.7,-15.8,0.0253913999,-0.610675375,-0.0299081393,-0.790887173
799,2001848,1806790,0.886,-0.349,0.144,-57.2,32.5,16,-9.6,27.7,-15.8,0.0253913999,-0.610675375,-0.0299081393,-0.790887173
800,2004138,1806790,0.87,-0.345,0.149,-51.5,29,18.6,-9.7,27.7,-16.3,0.0272225105,-0.610644856,-0.0242316965,-0.791039766
801,2008135,1806790,0.874,-0.349,0.156,-48,27.4,19.7,-9.7,27.7,-16.3,0.0269478439,-0.610187078,-0.0231330302,-0.791436506
802,2010393,1806800,0.878,-0.341,0.156,-44.4,25.7,20.6,-9.7,27.7,-16.3,0.0267342143,-0.609790338,-0.0220648824,-0.79177221
803,2012548,1806800,0.878,-0.345,0.152,-41.1,24,21.4,-9.6,27.7,-16.1,0.0265511032,-0.609424116,-0.0210577715,-0.792107913
804,2014605,1806800,0.886,-0.365,0.164,-38,22.1,22.3,-9.6,27.7,-16.1,0.0264595477,-0.609057894,-0.0200811792,-0.792413099
805,2016805,1806800,0.89,-0.372,0.168,-35,20.3,23.1,-9.6,27.7,-16.1,0.0263679922,-0.60872219,-0.019165624,-0.792687765
806,2019128,1806810,0.871,-0.341,0.18,-31.3,18.9,23.9,-9.6,27.7,-16.1,0.0263679922,-0.608447523,-0.0182805872,-0.792931913
807,2021602,1806810,0.875,-0.313,0.192,-26.9,17.7,24.6,-9.4,28.3,-15.1,0.0264900662,-0.608142338,-0.0174565874,-0.793145543
808,2023788,1806810,0.883,-0.302,0.187,-22.1,16.6,25.2,-9.4,28.3,-15.1,0.0266121403,-0.60789819,-0.0167241432,-0.793359172
809,2027539,1806810,0.882,-0.306,0.18,-18.1,15.2,25.8,-9.4,28.3,-15.1,0.0268562883,-0.607654042,-0.0160832545,-0.793572802
810,2029605,1806820,0.89,-0.31,0.168,-15.3,13.7,26.4,-9.4,28.3,-15.1,0.0271004364,-0.607409894,-0.0154728843,-0.793725394
811,2031835,1806820,0.886,-0.294,0.16,-13.4,11.9,26.9,-9.1,27.8,-15.5,0.0274056215,-0.607226783,-0.0148625141,-0.793877987
812,2034106,1806820,0.89,-0.29,0.16,-11.6,9.7,27.4,-9.1,27.8,-15.5,0.0277108066,-0.60707419,-0.0143131809,-0.794000061
813,2038062,1806820,0.894,-0.283,0.156,-9.7,7.2,28,-9.1,27.8,-15.5,0.0280770287,-0.606982635,-0.0137638478,-0.794091617
814,2040351,1806830,0.886,-0.279,0.16,-7.1,4.5,28.5,-9.1,27.8,-15.5,0.0284432508,-0.606891079,-0.0132450331,-0.794122135
815,2042590,1806830,0.883,-0.255,0.16,-4.2,1.4,29.1,-8.9,28.3,-15.4,0.028931547,-0.606891079,-0.0127872555,-0.794122135
816,2044635,1806830,0.898,-0.255,0.16,-1.1,-1.9,29.5,-8.9,28.3,-15.4,0.0294198431,-0.606921598,-0.0123905148,-0.794091617
817,2046916,1806830,0.91,-0.248,0.167,1.6,-5.6,29.9,-8.9,28.3,-15.4,0.0299691763,-0.607043672,-0.0120242927,-0.794000061
818,2049139,1806840,0.902,-0.232,0.171,4.1,-9,30,-8.9,28.3,-15.4,0.0305185095,-0.607196265,-0.0116885891,-0.793847468
819,2051534,1806840,0.902,-0.232,0.171,4.1,-9,30,-8.9,28.3,-15.4,0.0305185095,-0.607196265,-0.0116885891,-0.793847468
820,2053856,1806840,0.922,-0.213,0.171,8.9,-14.9,29.8,-9,27.8,-15.2,0.033722953,-0.608569597,-0.00860621967,-0.792718284
821,2057630,1806840,0.93,-0.217,0.179,11.2,-17.4,29.8,-9,27.8,-15.2,0.0343943602,-0.608874783,-0.00842310862,-0.792443617
822,2059626,1806850,0.941,-0.201,0.19,13.2,-19.4,29.6,-9,27.8,-15.2,0.0350962859,-0.609210486,-0.00827051607,-0.79216895
823,2061953,1806850,0.945,-0.197,0.182,15.3,-21.2,29.5,-8.9,27.9,-15.4,0.0357982116,-0.609576708,-0.00814844203,-0.791863765
824,2064179,1806850,0.945,-0.193,0.194,17.3,-22.8,29.3,-8.9,27.9,-15.4,0.0365306558,-0.60994293,-0.00808740501,-0.791528062
825,2066621,1806850,0.949,-0.19,0.202,19.6,-24.2,29.2,-8.9,27.9,-15.4,0.0372936186,-0.610339671,-0.0080568865,-0.791192358
826,2068831,1806860,0.953,-0.166,0.221,22.2,-25,29.3,-8.9,27.9,-15.4,0.0380870998,-0.61076693,-0.0080568865,-0.790826136
827,2071180,1806860,0.961,-0.166,0.205,25,-24.8,29.5,-9.6,28,-15.2,0.0389416181,-0.611194189,-0.00811792352,-0.790459914
828,2075601,1806860,0.953,-0.162,0.194,27.6,-23.7,29.7,-9.6,28,-15.2,0.0397961364,-0.61159093,-0.00820947905,-0.79012421
829,2077850,1806860,0.946,-0.143,0.194,29.7,-22.6,29.8,-9.6,28,-15.2,0.0407116916,-0.611957152,-0.0083620716,-0.789788507
830,2080197,1806870,0.953,-0.151,0.198,30.8,-22.6,29.9,-9.6,28,-15.2,0.0416272469,-0.612323374,-0.00851466414,-0.789452803
831,2082192,1806870,0.957,-0.151,0.213,31.2,-24.4,29.8,-7.9,27.3,-15.4,0.0425733207,-0.612720115,-0.00866725669,-0.789086581
832,2084472,1806870,0.961,-0.139,0.229,31.3,-27.2,29.8,-7.9,27.3,-15.4,0.043488876,-0.613147374,-0.00885036775,-0.78868984
833,2086667,1806870,0.954,-0.119,0.264,31.6,-30.3,29.6,-7.9,27.3,-15.4,0.0444349498,-0.613666189,-0.0090029603,-0.788232063
834,2089222,1806880,0.954,-0.111,0.268,32.4,-33.1,29.5,-7.9,27.3,-15.4,0.0453505051,-0.614215522,-0.00921658986,-0.787774285
835,2091404,1806880,0.962,-0.111,0.276,33.3,-35.9,29.1,-9.7,28.8,-16.1,0.0462965789,-0.614795373,-0.00943021943,-0.78725547
836,2093713,1806880,0.97,-0.104,0.283,34,-38.6,28.4,-9.7,28.8,-16.1,0.0472426527,-0.615436262,-0.0096743675,-0.786675619
837,2098256,1806880,0.974,-0.1,0.279,34.4,-41,27.7,-9.7,28.8,-16.1,0.0481276894,-0.616107669,-0.00991851558,-0.786095767
838,2100369,1806890,0.974,-0.092,0.283,34.6,-43.3,26.9,-9.7,28.8,-16.1,0.0490737632,-0.616809595,-0.0102237007,-0.785485397
839,2102510,1806890,0.974,-0.092,0.283,34.6,-43.3,26.9,-9.7,28.8,-16.1,0.0490737632,-0.616809595,-0.0102237007,-0.785485397
840,2104576,1806890,0.978,-0.072,0.283,34.5,-47.2,24.9,-9.8,28.7,-15.9,0.0510574664,-0.618121891,-0.0105288858,-0.784325694
841,2106475,1806890,0.978,-0.072,0.275,33.5,-48.8,24,-9.8,28.7,-15.9,0.0519425031,-0.618945891,-0.0108340709,-0.783623768
842,2109506,1806900,0.977,-0.072,0.271,31.3,-50.2,23.1,-9.8,28.7,-15.9,0.0527665029,-0.61976989,-0.011139256,-0.782891324
843,2111879,1806900,0.981,-0.065,0.267,28,-51.3,22.3,-9.8,28.7,-16,0.0534989471,-0.620624409,-0.0113528855,-0.782189398
844,2114075,1806900,0.985,-0.069,0.252,23.4,-51.8,21.4,-9.8,28.7,-16,0.0541703543,-0.621478927,-0.0115359966,-0.781456954
845,2116637,1806900,0.981,-0.069,0.248,18.1,-51.6,20.6,-9.8,28.7,-16,0.0547196875,-0.622333445,-0.0116275521,-0.780724509
846,2120114,1806910,0.977,-0.065,0.24,12.1,-50.8,19.8,-9.8,28.7,-16,0.0552079836,-0.623187963,-0.0116275521,-0.779992065
847,2122505,1806910,0.973,-0.084,0.228,6,-49.4,19.1,-9.7,28.8,-15.7,0.0556352428,-0.624042482,-0.0115359966,-0.779290139
848,2124202,1806910,0.969,-0.084,0.228,0,-47.4,18.6,-9.7,28.8,-15.7,0.0559404279,-0.624835963,-0.011322367,-0.778618732
849,2126669,1806910,0.962,-0.08,0.225,-5.7,-44.8,18.2,-9.7,28.8,-15.7,0.0561540574,-0.625629444,-0.0110477004,-0.778008362
850,2128700,1806920,0.958,-0.092,0.213,-10.8,-41.7,18,-9.7,28.8,-15.7,0.05630665,-0.62633137,-0.0106509598,-0.777397992
851,2131211,1806920,0.946,-0.096,0.202,-15.2,-38.7,17.9,-8.2,27.7,-15.7,0.0563982055,-0.627033296,-0.0101931822,-0.776848659
852,2134546,1806920,0.946,-0.1,0.194,-18.6,-35.9,17.7,-8.2,27.7,-15.7,0.056428724,-0.627674184,-0.0096743675,-0.776360363
853,2136705,1806920,0.946,-0.104,0.19,-21.1,-33.7,17.4,-8.2,27.7,-15.7,0.056428724,-0.628254036,-0.00912503433,-0.775872066
854,2140057,1806930,0.946,-0.108,0.182,-22.6,-32,17.1,-8.2,27.7,-15.7,0.0563982055,-0.628833888,-0.00854518265,-0.775414289
855,2142065,1806930,0.946,-0.111,0.174,-23.1,-31,16.6,-9.4,28.6,-15.5,0.056367687,-0.629383221,-0.00796533097,-0.774956511
856,2144336,1806930,0.946,-0.115,0.174,-22.7,-30.5,15.9,-9.4,28.6,-15.5,0.0563371685,-0.629932554,-0.0074159978,-0.774529252
857,2146533,1806930,0.949,-0.104,0.174,-21.3,-30.3,15.2,-9.4,28.6,-15.5,0.0562761315,-0.630481887,-0.00686666463,-0.774101993
858,2150336,1806940,0.961,-0.112,0.166,-19.2,-30.3,14.2,-9.4,28.6,-15.5,0.056245613,-0.63103122,-0.00637836848,-0.773674734
859,2152610,1806940,0.969,-0.112,0.17,-16.6,-30.6,13.4,-8.6,28.7,-15.4,0.056428724,-0.631672109,-0.00570696127,-0.773125401
860,2154630,1806940,0.973,-0.104,0.174,-13.8,-30.8,12.4,-8.6,28.7,-15.4,0.056428724,-0.632190924,-0.00534073916,-0.772698141
861,2156839,1806940,0.973,-0.096,0.178,-10.9,-31,11.5,-8.6,28.7,-15.4,0.0565202795,-0.632740257,-0.00503555406,-0.772270882
862,2158938,1806950,0.977,-0.092,0.185,-8.2,-31.2,10.5,-8.6,28.7,-15.4,0.0565813166,-0.633259072,-0.00476088748,-0.771813105
863,2162095,1806950,0.981,-0.085,0.185,-5.7,-31.3,9.6,-9.3,28.8,-15.3,0.0566423536,-0.633777886,-0.00457777642,-0.771385846
864,2164392,1806950,0.993,-0.077,0.189,-3.5,-31.5,8.8,-9.3,28.8,-15.3,0.0567339091,-0.634357738,-0.00442518387,-0.770928068
865,2166780,1806950,0.993,-0.081,0.197,-1.8,-31.6,8.1,-9.3,28.8,-15.3,0.0568559832,-0.634876553,-0.00433362835,-0.77047029
866,2169635,1806960,0.997,-0.069,0.204,-0.6,-31.8,7.5,-9.3,28.8,-15.3,0.0569780572,-0.635425886,-0.00427259133,-0.770012513
867,2171854,1806960,1.001,-0.061,0.212,0.2,-31.6,6.8,-8.1,28.6,-15.2,0.0570696127,-0.6359447,-0.00421155431,-0.769585253
868,2174140,1806960,1.008,-0.065,0.216,0.8,-31.3,6.2,-8.1,28.6,-15.2,0.0571611682,-0.636463515,-0.0041810358,-0.769127476
869,2176724,1806960,1.016,-0.058,0.224,1.1,-30.8,5.6,-8.1,28.6,-15.2,0.0573137608,-0.63698233,-0.00415051729,-0.768700217
870,2178912,1806970,1.02,-0.062,0.227,1.1,-30.4,5.1,-8.1,28.6,-15.2,0.0574053163,-0.637501144,-0.00415051729,-0.768272958
871,2182499,1806970,1.02,-0.054,0.227,0.8,-29.8,4.6,-8.5,28.3,-15.3,0.0574968719,-0.637989441,-0.00411999878,-0.767845698
872,2184527,1806970,1.028,-0.054,0.227,0.1,-29.2,4,-8.5,28.3,-15.3,0.0575579089,-0.638477737,-0.00411999878,-0.767448958
873,2186726,1806970,1.028,-0.058,0.235,-1,-28.7,3.4,-8.5,28.3,-15.3,0.0575884274,-0.638966033,-0.00408948027,-0.767021699
874,2190038,1806980,1.036,-0.062,0.227,-2.6,-28.1,2.9,-8.5,28.3,-15.3,0.0576189459,-0.639454329,-0.00402844325,-0.76659444
875,2191731,1806980,1.036,-0.07,0.231,-4.5,-27.2,2.5,-8.4,28.4,-15.3,0.0575884274,-0.639912107,-0.00396740623,-0.766258736
876,2193701,1806980,1.044,-0.082,0.235,-6.4,-26.3,2.2,-8.4,28.4,-15.3,0.0575273904,-0.640339366,-0.00384533219,-0.765892514
877,2198120,1806980,1.044,-0.086,0.231,-8.2,-25.3,1.8,-8.4,28.4,-15.3,0.0574053163,-0.640797143,-0.00372325816,-0.765526292
878,2200203,1806990,1.044,-0.089,0.231,-9.7,-24.3,1.4,-8.4,28.4,-15.3,0.0573442793,-0.641193884,-0.00357066561,-0.765190588
879,2201848,1806990,1.044,-0.089,0.231,-9.7,-24.3,1.4,-8.4,28.4,-15.3,0.0573442793,-0.641193884,-0.00357066561,-0.765190588
880,2204243,1806990,1.044,-0.105,0.227,-12.1,-22.6,0.6,-8.6,28.3,-14.9,0.0570696127,-0.641865291,-0.00317392499,-0.764671773
881,2206615,1806990,1.036,-0.105,0.227,-13,-21.7,0.3,-8.6,28.3,-14.9,0.0568865017,-0.642231513,-0.00296029542,-0.764366588
882,2208871,1807000,1.032,-0.101,0.223,-13.8,-20.8,0,-8.6,28.3,-14.9,0.0566728721,-0.642597736,-0.00277718436,-0.764061403
883,2211291,1807000,1.028,-0.109,0.224,-14.6,-20,-0.1,-8.5,28.6,-14.8,0.056489761,-0.642963958,-0.00253303629,-0.763786737
884,2215082,1807000,1.016,-0.116,0.216,-15.5,-19.5,-0.4,-8.5,28.6,-14.8,0.0562761315,-0.643299661,-0.00231940672,-0.76351207
885,2217032,1807000,1.008,-0.116,0.216,-16.6,-18.9,-0.5,-8.5,28.6,-14.8,0.0560319834,-0.643635365,-0.00207525864,-0.763237403
886,2219394,1807010,1.004,-0.12,0.216,-17.8,-18.4,-0.7,-8.5,28.6,-14.8,0.0557573168,-0.643971068,-0.00180059206,-0.762993255
887,2221669,1807010,0.996,-0.136,0.212,-18.8,-17.8,-0.9,-8.3,28.5,-14.3,0.0554521317,-0.644276254,-0.00152592547,-0.762749107
888,2224134,1807010,0.993,-0.143,0.216,-19.4,-17.3,-1.1,-8.3,28.5,-14.3,0.0551774651,-0.644611957,-0.00125125889,-0.762504959
889,2226312,1807010,0.993,-0.147,0.216,-19.5,-16.6,-1.5,-8.3,28.5,-14.3,0.05487228,-0.644886624,-0.000946073794,-0.762260811
890,2230780,1807020,0.985,-0.151,0.217,-19,-16.2,-1.7,-8.3,28.5,-14.3,0.0545670949,-0.645191809,-0.000671407208,-0.762047182
891,2231126,1807020,0.973,-0.159,0.217,-18.1,-15.8,-2.1,-8.3,28.5,-14.3,0.0542924284,-0.645466475,-0.000427259133,-0.761803034
892,2235324,1807020,0.973,-0.159,0.217,-18.1,-15.8,-2.1,-8.3,28.5,-14.3,0.0542924284,-0.645466475,-0.000427259133,-0.761803034
893,2237537,1807020,0.973,-0.163,0.209,-16.1,-15.4,-2.6,-8.3,28.5,-14.3,0.0537430952,-0.646046327,0,-0.761375774
894,2239551,1807030,0.969,-0.162,0.213,-15.1,-15.1,-3,-8.3,28.5,-14.3,0.0534684286,-0.646290475,0.000183111057,-0.761162145
895,2241546,1807030,0.965,-0.166,0.205,-14.3,-14.7,-3.2,-8.3,28.6,-14.5,0.0532242805,-0.646565142,0.000335703604,-0.760979034
896,2245636,1807030,0.969,-0.166,0.205,-13.4,-14.4,-3.4,-8.3,28.6,-14.5,0.0529801325,-0.64680929,0.000518814661,-0.760765404
897,2247797,1807030,0.969,-0.17,0.209,-12.7,-14,-3.5,-8.3,28.6,-14.5,0.0527359844,-0.647053438,0.000640888699,-0.760582293
898,2250079,1807040,0.973,-0.17,0.209,-11.9,-13.6,-3.6,-8.3,28.6,-14.5,0.0524918363,-0.647297586,0.000793481246,-0.760399182
899,2251725,1807040,0.973,-0.17,0.209,-11.9,-13.6,-3.6,-8.3,28.6,-14.5,0.0524918363,-0.647297586,0.000793481246,-0.760399182
900,2253652,1807040,0.969,-0.166,0.209,-10.1,-12.7,-3.6,-8.2,28.4,-15,0.0524307993,-0.647572253,0.00140385144,-0.760185553
901,2256699,1807040,0.977,-0.167,0.209,-9.1,-12.4,-3.5,-8.2,28.4,-15,0.0522476882,-0.647785882,0.00146488845,-0.760002441
902,2259831,1807050,0.973,-0.166,0.213,-8.2,-12,-3.5,-8.2,28.4,-15,0.0520340587,-0.647999512,0.00155644398,-0.759849849
903,2261652,1807050,0.969,-0.159,0.213,-7.4,-11.7,-3.5,-8.5,28.4,-14.2,0.0519119846,-0.648182623,0.001617481,-0.759666738
904,2264899,1807050,0.969,-0.166,0.217,-6.8,-11.1,-3.3,-8.5,28.4,-14.2,0.0517593921,-0.648396252,0.00167851802,-0.759514145
905,2267000,1807050,0.969,-0.163,0.209,-6.5,-10.4,-3.3,-8.5,28.4,-14.2,0.0516067995,-0.648548845,0.00170903653,-0.759392071
906,2269240,1807060,0.973,-0.155,0.213,-6.4,-9.7,-3.2,-8.5,28.4,-14.2,0.051454207,-0.648731956,0.00177007355,-0.759239479
907,2273284,1807060,0.973,-0.155,0.217,-6.4,-9.1,-3.2,-8.5,28.4,-14.5,0.0513016144,-0.648884548,0.00183111057,-0.759117405
908,2275667,1807060,0.973,-0.155,0.217,-6.3,-8.6,-3.1,-8.5,28.4,-14.5,0.0511795404,-0.649037141,0.00186162908,-0.758995331
909,2277825,1807060,0.977,-0.155,0.209,-6.1,-8,-3.2,-8.5,28.4,-14.5,0.0510269478,-0.649189734,0.0019226661,-0.758873257
910,2280176,1807070,0.977,-0.155,0.213,-5.9,-7.5,-3.1,-8.5,28.4,-14.5,0.0509048738,-0.649311808,0.00195318461,-0.758781701
911,2282175,1807070,0.977,-0.151,0.213,-5.8,-7,-3,-8.5,28.4,-14.5,0.0507522813,-0.649403363,0.00201422163,-0.758690146
912,2284392,1807070,0.977,-0.151,0.217,-5.5,-6.6,-3,-8.5,28.4,-14.5,0.0506302072,-0.649555956,0.00204474013,-0.75859859
913,2286676,1807070,0.985,-0.147,0.217,-5.3,-6.2,-2.8,-8.5,28.4,-14.5,0.0505081332,-0.64967803,0.00207525864,-0.758507035
914,2289539,1807080,0.985,-0.147,0.22,-5.3,-5.9,-2.6,-8.5,28.4,-14.5,0.0503860591,-0.649769585,0.00213629566,-0.758415479
915,2291872,1807080,0.993,-0.147,0.224,-5.3,-5.5,-2.4,-8.5,28.3,-14.3,0.0502639851,-0.649861141,0.00216681417,-0.758354442
916,2294267,1807080,0.993,-0.143,0.224,-5.4,-5,-2.3,-8.5,28.3,-14.3,0.0501419111,-0.649952696,0.00222785119,-0.758293405
917,2297529,1807080,1,-0.143,0.224,-5.3,-4.5,-2.4,-8.5,28.3,-14.3,0.0500503555,-0.650044252,0.00228888821,-0.758232368
918,2299619,1807090,1,-0.143,0.224,-5.2,-3.9,-2.4,-8.5,28.3,-14.3,0.0499282815,-0.650105289,0.00231940672,-0.758171331
919,2301889,1807090,1,-0.143,0.224,-5.2,-3.9,-2.4,-8.5,28.3,-14.3,0.0499282815,-0.650105289,0.00231940672,-0.758171331
920,2303841,1807090,1.004,-0.14,0.232,-4.7,-2.8,-2.3,-8.4,28.4,-14.4,0.0502639851,-0.649647511,0.00305185095,-0.758537553
921,2307901,1807090,1.008,-0.143,0.236,-4.4,-2.2,-2.2,-8.4,28.4,-14.4,0.0501724296,-0.64967803,0.00308236946,-0.758507035
922,2310117,1807100,1.016,-0.136,0.232,-4.1,-1.7,-2.1,-8.4,28.4,-14.4,0.0500808741,-0.649739067,0.00311288797,-0.758476516
923,2312352,1807100,1.012,-0.14,0.232,-3.9,-1.2,-1.9,-8.3,28.4,-14.3,0.0499893185,-0.649739067,0.00314340648,-0.758476516
924,2314099,1807100,1.024,-0.132,0.231,-3.6,-0.7,-1.7,-8.3,28.4,-14.3,0.0499282815,-0.649769585,0.00320444349,-0.758445997
925,2317542,1807100,1.024,-0.128,0.231,-3.4,-0.1,-1.4,-8.3,28.4,-14.3,0.049836726,-0.649769585,0.003234962,-0.758445997
926,2319555,1807110,1.024,-0.128,0.231,-3.1,0.4,-1.1,-8.3,28.4,-14.3,0.049775689,-0.649769585,0.00326548051,-0.758476516
927,2321862,1807110,1.024,-0.128,0.228,-2.8,1.1,-0.9,-8.5,28,-14.6,0.0497146519,-0.649739067,0.00329599902,-0.758476516
928,2324133,1807110,1.024,-0.128,0.231,-2.3,1.8,-0.6,-8.5,28,-14.6,0.0496841334,-0.649739067,0.00332651753,-0.758507035
929,2326488,1807110,1.028,-0.124,0.231,-1.8,2.4,-0.4,-8.5,28,-14.6,0.0496536149,-0.64967803,0.00335703604,-0.758537553
930,2328722,1807120,1.032,-0.128,0.227,-1.4,3.2,-0.2,-8.5,28,-14.6,0.0495925779,-0.649647511,0.00338755455,-0.75859859
931,2331198,1807120,1.032,-0.121,0.223,-0.9,4,0,-8.5,28,-14.6,0.0495925779,-0.649555956,0.00338755455,-0.758659627
932,2334583,1807120,1.032,-0.124,0.223,-0.6,4.7,0.3,-8.5,28,-14.6,0.0495925779,-0.649494919,0.00341807306,-0.758720664
933,2336731,1807120,1.032,-0.121,0.22,-0.2,5.3,0.7,-8.5,28,-14.6,0.0495925779,-0.649403363,0.00344859157,-0.758781701
934,2339989,1807130,1.028,-0.124,0.22,0.1,5.8,1.1,-8.5,28,-14.6,0.0495925779,-0.649311808,0.00344859157,-0.758873257
935,2341909,1807130,1.032,-0.128,0.216,0.4,6.2,1.5,-8.8,28.2,-14.3,0.0496536149,-0.649189734,0.00347911008,-0.758964812
936,2344364,1807130,1.028,-0.128,0.216,0.6,6.7,1.9,-8.8,28.2,-14.3,0.0497146519,-0.649098178,0.00350962859,-0.759056368
937,2347625,1807130,1.024,-0.128,0.216,0.7,7,2.4,-8.8,28.2,-14.3,0.0497451704,-0.648976104,0.0035401471,-0.759147923
938,2349349,1807140,1.024,-0.128,0.216,0.9,7.4,2.9,-8.8,28.2,-14.3,0.0498062075,-0.64885403,0.00357066561,-0.759239479
939,2351438,1807140,1.024,-0.128,0.216,0.9,7.4,2.9,-8.8,28.2,-14.3,0.0498062075,-0.64885403,0.00357066561,-0.759239479
940,2354451,1807140,1.02,-0.124,0.22,1.5,8.1,3.7,-8.7,28.2,-14.3,0.0503250221,-0.648182623,0.00405896176,-0.759788812
941,2357806,1807140,1.024,-0.132,0.212,1.8,8.3,4.2,-8.7,28.2,-14.3,0.0504470962,-0.64803003,0.00408948027,-0.759880367
942,2359806,1807150,1.016,-0.132,0.212,2.2,8.6,4.8,-8.7,28.2,-14.3,0.0505386517,-0.647907956,0.00415051729,-0.760002441
943,2361210,1807150,1.02,-0.132,0.216,2.5,8.8,5.4,-8.7,28.2,-14.1,0.0506607257,-0.647755364,0.0041810358,-0.760124516
944,2364146,1807150,1.016,-0.132,0.216,2.7,9.1,5.8,-8.7,28.2,-14.1,0.0508133183,-0.647602771,0.00424207282,-0.76024659
945,2367438,1807150,1.008,-0.132,0.204,2.8,9.3,6.2,-8.7,28.2,-14.1,0.0509659108,-0.64741966,0.00427259133,-0.760368664
946,2369584,1807160,1.008,-0.124,0.208,2.9,9.6,6.6,-8.7,28.2,-14.1,0.0511185034,-0.647267067,0.00433362835,-0.760490738
947,2371772,1807160,1.012,-0.128,0.208,2.8,9.7,6.9,-8.9,28.6,-14,0.0512710959,-0.647114475,0.00439466536,-0.76064333
948,2374873,1807160,1.008,-0.124,0.208,2.8,10,7.3,-8.9,28.6,-14,0.0514236885,-0.646931364,0.00445570238,-0.760765404
949,2376650,1807160,1.004,-0.128,0.204,2.9,10.1,7.5,-8.9,28.6,-14,0.0515457625,-0.646748253,0.00454725791,-0.760917997
950,2380775,1807170,1.004,-0.128,0.204,3.2,10.4,7.8,-8.9,28.6,-14,0.0517593921,-0.64659566,0.00460829493,-0.761040071
951,2383225,1807170,1,-0.128,0.208,3.4,10.6,8.1,-8.9,28.6,-14,0.0519425031,-0.646412549,0.00466933195,-0.761192663
952,2385210,1807170,1,-0.132,0.208,3.7,11,8.4,-8.9,28.6,-14,0.0521256142,-0.64619892,0.00473036897,-0.761345256
953,2387468,1807170,0.996,-0.128,0.201,3.9,11.3,8.6,-8.9,28.6,-14,0.0523392438,-0.646015809,0.0048219245,-0.76146733
954,2389515,1807180,0.993,-0.132,0.209,4.1,11.5,8.7,-8.9,28.6,-14,0.0525223548,-0.645832698,0.00488296152,-0.761619922
955,2391687,1807180,0.996,-0.128,0.205,4.3,11.6,8.9,-8.9,28.4,-14,0.0527359844,-0.645619068,0.00494399854,-0.761803034
956,2394337,1807180,0.989,-0.132,0.201,4.4,11.6,9,-8.9,28.4,-14,0.0529496139,-0.645435957,0.00500503555,-0.761955626
957,2396560,1807180,0.985,-0.139,0.201,4.5,11.6,9.2,-8.9,28.4,-14,0.0531632435,-0.645222327,0.00509659108,-0.762108219
958,2400227,1807190,0.989,-0.132,0.205,4.5,11.6,9.4,-8.9,28.4,-14,0.0533768731,-0.645008698,0.0051576281,-0.762260811
959,2402244,1807190,0.989,-0.132,0.205,4.5,11.6,9.4,-8.9,28.4,-14,0.0533768731,-0.645008698,0.0051576281,-0.762260811
960,2405215,1807190,0.992,-0.143,0.201,4.4,11.4,9.8,-8.6,28.7,-13.6,0.0541703543,-0.644398328,0.00567644276,-0.76268807
961,2407198,1807190,0.989,-0.147,0.205,4.4,11.3,9.9,-8.6,28.7,-13.6,0.0543839839,-0.644184698,0.00576799829,-0.762871181
962,2409334,1807200,0.985,-0.147,0.201,4.5,11.1,10.1,-8.6,28.7,-13.6,0.054628132,-0.644001587,0.00582903531,-0.763023774
963,2411592,1807200,0.985,-0.143,0.205,4.5,11.1,10.1,-8.6,28.3,-12.9,0.0548417615,-0.643787957,0.00592059084,-0.763176366
964,2414146,1807200,0.985,-0.151,0.197,4.8,10.4,10.5,-8.6,28.3,-12.9,0.0550859096,-0.643635365,0.00598162786,-0.763298441
965,2416206,1807200,0.981,-0.151,0.197,4.8,10.4,10.5,-8.6,28.3,-12.9,0.0553300577,-0.643452254,0.00607318339,-0.763451033
966,2420775,1807210,0.985,-0.147,0.201,5.2,9.5,10.7,-8.6,28.3,-12.9,0.0555742058,-0.643269143,0.0061342204,-0.763573107
967,2422975,1807210,0.981,-0.151,0.201,5.2,9.5,10.7,-8.4,28.1,-13,0.0558488723,-0.64311655,0.00622577593,-0.763695181
968,2425287,1807210,0.981,-0.151,0.201,5.8,9,11,-8.4,28.1,-13,0.0560930204,-0.642933439,0.00628681295,-0.763786737
969,2427464,1807210,0.977,-0.151,0.197,5.8,9,11,-8.4,28.1,-13,0.056367687,-0.642780847,0.00634784997,-0.763908811
970,2429437,1807220,0.977,-0.151,0.197,6.6,8.4,11.5,-8.4,28.1,-13,0.0566423536,-0.642628254,0.0064394055,-0.764030885
971,2431727,1807220,0.973,-0.151,0.209,6.6,8.4,11.5,-8.4,28.1,-13,0.0569170202,-0.642475661,0.00650044252,-0.76412244
972,2434897,1807220,0.969,-0.151,0.205,7.1,8.1,11.6,-8.4,28.1,-13,0.0572222053,-0.642323069,0.00653096103,-0.764213996
973,2436971,1807220,0.969,-0.151,0.205,7.5,8,11.7,-8.4,28.1,-13,0.0575273904,-0.642200995,0.00659199805,-0.76433607
974,2439217,1807230,0.957,-0.151,0.205,8.1,7.8,11.7,-8.4,28.1,-13,0.0578325755,-0.642048402,0.00662251656,-0.764427625
975,2442424,1807230,0.961,-0.155,0.205,8.6,7.6,11.7,-8.7,28.7,-14.5,0.0581377606,-0.64189581,0.00665303507,-0.764519181
976,2444580,1807230,0.957,-0.151,0.201,9.2,7.4,11.7,-8.7,28.7,-14.5,0.0584734642,-0.641773736,0.00668355358,-0.764610736
977,2446825,1807230,0.953,-0.154,0.201,9.7,7.3,11.7,-8.7,28.7,-14.5,0.0588091678,-0.641590625,0.00668355358,-0.764702292
978,2448988,1807240,0.946,-0.147,0.206,10.2,7.2,11.8,-8.7,28.7,-14.5,0.0591143529,-0.641499069,0.00668355358,-0.764793847
979,2452910,1807240,0.946,-0.147,0.206,10.2,7.2,11.8,-8.7,28.7,-14.5,0.0591143529,-0.641499069,0.00668355358,-0.764793847
980,2455126,1807240,0.942,-0.15,0.19,11.1,7.2,11.8,-8.7,28.8,-14.9,0.0603045747,-0.640980255,0.00717184973,-0.765129551
981,2457073,1807240,0.938,-0.15,0.202,11.6,7.3,11.6,-8.7,28.8,-14.9,0.0606402783,-0.640827662,0.00717184973,-0.765221107
982,2459330,1807250,0.934,-0.158,0.194,11.9,7.4,11.5,-8.7,28.8,-14.9,0.0610065004,-0.640675069,0.00714133122,-0.765312662
983,2462432,1807250,0.938,-0.158,0.19,12.4,7.2,11.1,-8.9,28.4,-14.8,0.0613727226,-0.640552995,0.0070802942,-0.765404218
984,2464584,1807250,0.938,-0.162,0.19,12.7,7,10.7,-8.9,28.4,-14.8,0.0617389447,-0.640400403,0.00704977569,-0.765495773
985,2466803,1807250,0.934,-0.166,0.19,13.1,6.8,10.4,-8.9,28.4,-14.8,0.0620441298,-0.640278329,0.00695822016,-0.76555681
986,2469965,1807260,0.93,-0.17,0.186,13.7,6.7,10,-8.9,28.4,-14.8,0.0624408704,-0.640156255,0.00689718314,-0.765648366
987,2472111,1807260,0.934,-0.17,0.194,14.4,6.7,9.8,-8.4,28.2,-15.7,0.0628070925,-0.640003662,0.00680562761,-0.765739921
988,2474396,1807260,0.934,-0.166,0.186,15,6.8,9.5,-8.4,28.2,-15.7,0.0631733146,-0.639881588,0.00668355358,-0.765831477
989,2476580,1807260,0.934,-0.178,0.182,15.6,6.8,9.3,-8.4,28.2,-15.7,0.0635395367,-0.639728996,0.00656147954,-0.765892514
990,2479158,1807270,0.938,-0.178,0.186,16.1,6.6,9,-8.4,28.2,-15.7,0.0639362774,-0.639606922,0.0064394055,-0.765984069
991,2481365,1807270,0.938,-0.182,0.186,16.5,6.3,8.5,-8.4,28.2,-15.7,0.0643024995,-0.639484848,0.00628681295,-0.766075625
992,2483702,1807270,0.938,-0.182,0.186,17,5.9,8.2,-8.4,28.2,-15.7,0.0646687216,-0.639362774,0.0061342204,-0.766136662
993,2488231,1807270,0.942,-0.182,0.186,17.5,5.5,8,-8.4,28.2,-15.7,0.0650349437,-0.639240699,0.00595110935,-0.766197699
994,2490503,1807280,0.945,-0.178,0.186,18.1,5.2,7.8,-8.4,28.2,-15.7,0.0654316843,-0.639118625,0.00576799829,-0.766258736
995,2492642,1807280,0.949,-0.182,0.186,18.7,5.1,7.7,-8.2,28.2,-15.1,0.0658284249,-0.638996551,0.00555436872,-0.766319773
996,2494631,1807280,0.953,-0.174,0.186,19.2,5.1,7.6,-8.2,28.2,-15.1,0.0662251656,-0.638874477,0.00537125767,-0.766411328
