sample_index,elapsed_us,device_time_ms,acc_x_g,acc_y_g,acc_z_g,gyro_x_dps,gyro_y_dps,gyro_z_dps,mag_x_ut,mag_y_ut,mag_z_ut,quat_w,quat_x,quat_y,quat_z
0,4961,1264960,0.988,0.04,-0.026,0,0.1,0,-35.2,7.1,27,0.165196692,0.704245125,-0.141697439,0.675740837
1,7195,1264960,0.981,0.04,-0.034,0,0,0,-34.9,6.5,26.5,0.165196692,0.704245125,-0.141697439,0.675740837
2,9333,1264970,0.985,0.04,-0.03,0,-0.1,0,-34.9,6.5,26.5,0.165196692,0.704245125,-0.141697439,0.675740837
3,12119,1264970,0.985,0.04,-0.034,0,-0.3,0,-34.9,6.5,26.5,0.165196692,0.704245125,-0.141697439,0.675740837
4,15157,1264970,0.985,0.036,-0.026,0,-0.4,0,-34.9,6.5,26.5,0.165196692,0.704245125,-0.141697439,0.675710318
5,18239,1264970,0.985,0.036,-0.03,0,-0.3,0,-35.2,6.9,26.7,0.165196692,0.704275643,-0.141697439,0.675710318
6,19752,1264980,0.988,0.044,-0.03,0,-0.2,0,-35.2,6.9,26.7,0.165196692,0.704275643,-0.141697439,0.675710318
7,22782,1264980,0.985,0.044,-0.038,0,0,0,-35.2,6.9,26.7,0.165196692,0.704275643,-0.141697439,0.675710318
8,25528,1264980,0.988,0.04,-0.034,0,0,0,-35.2,6.9,26.7,0.165196692,0.704275643,-0.141697439,0.675710318
9,27261,1264980,0.988,0.04,-0.03,0,0,0,-35,7.1,26.6,0.165196692,0.704275643,-0.141697439,0.6756798
10,29384,1264990,0.988,0.044,-0.026,0,0,0,-35,7.1,26.6,0.165196692,0.704275643,-0.141697439,0.6756798
11,32434,1264990,0.985,0.04,-0.03,0,0,0,-35,7.1,26.6,0.165196692,0.704275643,-0.141697439,0.6756798
12,35800,1264990,0.981,0.04,-0.03,0,0,0,-35,7.1,26.6,0.165196692,0.704275643,-0.141697439,0.6756798
13,37815,1264990,0.985,0.032,-0.03,0,0,0,-35.4,7.2,27,0.165196692,0.704275643,-0.141697439,0.6756798
14,39529,1265000,0.985,0.036,-0.03,0,0,0,-35.4,7.2,27,0.165196692,0.704275643,-0.141697439,0.6756798
15,42514,1265000,0.992,0.036,-0.026,0,0,0,-35.4,7.2,27,0.165196692,0.704275643,-0.141697439,0.6756798
16,45622,1265000,0.988,0.04,-0.034,0,-0.1,0,-35.4,7.2,27,0.165196692,0.704306162,-0.141697439,0.6756798
17,47067,1265000,0.985,0.04,-0.022,0,-0.1,-0.1,-35,5.5,26.7,0.165196692,0.704306162,-0.141697439,0.6756798
18,50094,1265010,0.985,0.04,-0.034,0,-0.1,-0.1,-35,5.5,26.7,0.16522721,0.704306162,-0.141697439,0.6756798
19,51946,1265010,0.985,0.04,-0.03,0,-0.1,-0.1,-35,5.5,26.7,0.16522721,0.704306162,-0.141697439,0.6756798
20,55380,1265010,0.988,0.04,-0.034,-0.1,0,0,-35,5.5,26.7,0.16522721,0.704306162,-0.141697439,0.6756798
21,56995,1265010,0.988,0.036,-0.038,-0.1,-0.1,0,-35.2,6.1,26.7,0.16522721,0.704306162,-0.141697439,0.6756798
22,59930,1265020,0.985,0.04,-0.034,-0.1,-0.1,0,-35.2,6.1,26.7,0.16522721,0.704306162,-0.141697439,0.6756798
23,63796,1265020,0.988,0.044,-0.034,0,0,0.1,-35.2,6.1,26.7,0.16522721,0.704306162,-0.141697439,0.6756798
24,65992,1265020,0.985,0.04,-0.034,0,0,0,-35.2,6.1,26.7,0.16522721,0.704306162,-0.141697439,0.6756798
25,68232,1265020,0.988,0.04,-0.026,0.1,0,0,-35.3,6.4,27.1,0.165196692,0.704306162,-0.141697439,0.6756798
26,69978,1265030,0.988,0.044,-0.034,0.1,0,0,-35.3,6.4,27.1,0.165196692,0.704306162,-0.141697439,0.6756798
27,72047,1265030,0.985,0.036,-0.03,0,0,0,-35.3,6.4,27.1,0.165196692,0.704306162,-0.141697439,0.6756798
28,74449,1265030,0.981,0.04,-0.03,0,0,0,-35.3,6.4,27.1,0.165196692,0.704306162,-0.141697439,0.6756798
29,77883,1265030,0.985,0.04,-0.03,0,0.1,0,-36,6.2,27,0.165196692,0.704306162,-0.141697439,0.6756798
30,79519,1265040,0.981,0.036,-0.034,0,0.1,0,-36,6.2,27,0.165196692,0.704275643,-0.141697439,0.6756798
31,82048,1265040,0.985,0.036,-0.03,0.1,0,0,-36,6.2,27,0.165196692,0.704275643,-0.141697439,0.6756798
32,84715,1265040,0.985,0.04,-0.038,0.1,0,0,-36,6.2,27,0.165196692,0.704275643,-0.141697439,0.6756798
33,87733,1265040,0.988,0.044,-0.03,0,-0.1,0,-36.4,6.4,27,0.165196692,0.704306162,-0.141697439,0.6756798
34,89494,1265050,0.988,0.04,-0.026,0,-0.1,-0.1,-36.4,6.4,27,0.165196692,0.704306162,-0.141697439,0.6756798
35,92521,1265050,0.988,0.044,-0.026,-0.1,-0.1,-0.1,-36.4,6.4,27,0.165196692,0.704306162,-0.141697439,0.6756798
36,94354,1265050,0.988,0.04,-0.03,0,-0.1,-0.1,-36.4,6.4,27,0.16522721,0.704306162,-0.141697439,0.6756798
37,96914,1265050,0.988,0.04,-0.03,0,0,0,-34.2,4.7,27.1,0.16522721,0.704306162,-0.141697439,0.6756798
38,100669,1265060,0.985,0.036,-0.034,0,0,0,-34.2,4.7,27.1,0.16522721,0.704306162,-0.141697439,0.6756798
39,102911,1265060,0.985,0.04,-0.038,0,0,0,-34.2,4.7,27.1,0.16522721,0.704306162,-0.141697439,0.6756798
40,105223,1265060,0.985,0.04,-0.03,0,0,0,-34.2,4.7,27.1,0.16522721,0.704306162,-0.141697439,0.6756798
41,107596,1265060,0.985,0.036,-0.03,0,0,0,-36.7,7.1,27.2,0.16522721,0.704306162,-0.141697439,0.6756798
42,109809,1265070,0.985,0.04,-0.034,0,0,0,-36.7,7.1,27.2,0.16522721,0.704306162,-0.141697439,0.6756798
43,112226,1265070,0.985,0.044,-0.034,0,0,0,-36.7,7.1,27.2,0.16522721,0.704306162,-0.141697439,0.6756798
44,114414,1265070,0.981,0.04,-0.03,0,0,0.1,-36.7,7.1,27.2,0.16522721,0.704306162,-0.141697439,0.6756798
45,118104,1265070,0.985,0.036,-0.034,0,0,0.1,-36.9,7.1,27.1,0.16522721,0.704306162,-0.141727958,0.6756798
46,120429,1265080,0.992,0.04,-0.034,0,0,0,-36.9,7.1,27.1,0.16522721,0.704306162,-0.141697439,0.6756798
47,122614,1265080,0.985,0.036,-0.03,0.1,0,0,-36.9,7.1,27.1,0.16522721,0.704306162,-0.141697439,0.6756798
48,124969,1265080,0.981,0.044,-0.03,0.1,0,0,-36.9,7.1,27.1,0.16522721,0.704306162,-0.141697439,0.6756798
49,127924,1265080,0.988,0.04,-0.03,0.1,0,0,-36.8,7.3,26.8,0.165196692,0.704306162,-0.141727958,0.675649281
50,130852,1265090,0.988,0.04,-0.03,0,0.1,0,-36.8,7.3,26.8,0.165196692,0.704306162,-0.141727958,0.675649281
51,133194,1265090,0.988,0.04,-0.03,0,0.1,0,-36.8,7.3,26.8,0.165196692,0.704306162,-0.141727958,0.6756798
52,134817,1265090,0.988,0.04,-0.03,0,0.1,0,-36.8,7.3,26.8,0.165196692,0.704306162,-0.141727958,0.6756798
53,136900,1265090,0.985,0.04,-0.03,0,0.1,0,-36.5,7.1,26.7,0.165196692,0.704306162,-0.141727958,0.6756798
54,139524,1265100,0.985,0.04,-0.03,0,0.1,0,-36.5,7.1,26.7,0.165196692,0.704306162,-0.141727958,0.6756798
55,142128,1265100,0.985,0.04,-0.034,0,0,0,-36.5,7.1,26.7,0.165196692,0.704306162,-0.141727958,0.6756798
56,145302,1265100,0.981,0.036,-0.03,0,0,0,-36.5,7.1,26.7,0.165196692,0.704306162,-0.141727958,0.6756798
57,147516,1265100,0.985,0.04,-0.034,0,-0.1,0,-34.5,5.7,26.9,0.165196692,0.704306162,-0.141727958,0.6756798
58,149805,1265110,0.988,0.044,-0.03,0,-0.1,0,-34.5,5.7,26.9,0.165196692,0.704306162,-0.141727958,0.6756798
59,152631,1265110,0.985,0.044,-0.03,0,0,0,-34.5,5.7,26.9,0.165196692,0.704306162,-0.141727958,0.6756798
60,154504,1265110,0.988,0.04,-0.03,0,0,0,-34.5,5.7,26.9,0.165196692,0.704306162,-0.141727958,0.6756798
61,157161,1265110,0.985,0.044,-0.03,0.1,0,0.1,-35.5,6.1,27,0.165196692,0.704306162,-0.141727958,0.6756798
62,160427,1265120,0.985,0.04,-0.03,0.1,0,0.1,-35.5,6.1,27,0.165196692,0.704306162,-0.141727958,0.6756798
63,162056,1265120,0.985,0.04,-0.034,0,0,0,-35.5,6.1,27,0.165196692,0.704306162,-0.141727958,0.6756798
64,164606,1265120,0.985,0.036,-0.034,0,0,-0.1,-35.5,6.1,27,0.165196692,0.704306162,-0.141727958,0.6756798
65,168278,1265120,0.985,0.04,-0.03,0,-0.1,-0.1,-34.9,5.8,26.8,0.165196692,0.704306162,-0.141727958,0.6756798
66,170620,1265130,0.988,0.04,-0.038,0,-0.1,-0.1,-34.9,5.8,26.8,0.165196692,0.704306162,-0.141727958,0.675649281
67,173467,1265130,0.985,0.04,-0.038,0.1,-0.1,0,-34.9,5.8,26.8,0.165196692,0.704306162,-0.141727958,0.675649281
68,175642,1265130,0.988,0.04,-0.034,0.1,0,0,-34.9,5.8,26.8,0.165196692,0.704306162,-0.141727958,0.675649281
69,178135,1265130,0.985,0.04,-0.038,0.1,0,0.1,-34.5,6,27.2,0.165166173,0.70433668,-0.141727958,0.675618763
70,180405,1265140,0.985,0.044,-0.03,0.1,0,0.1,-34.5,6,27.2,0.165166173,0.70433668,-0.141727958,0.675618763
71,181980,1265140,0.985,0.044,-0.034,0,0,0.1,-34.5,6,27.2,0.165166173,0.70433668,-0.141727958,0.675618763
72,185057,1265140,0.985,0.04,-0.038,0,0,0.1,-34.5,6,27.2,0.165166173,0.70433668,-0.141727958,0.675618763
73,187318,1265140,0.985,0.04,-0.03,0,0,0,-34.2,6,27.1,0.165166173,0.70433668,-0.141727958,0.675618763
74,189578,1265150,0.981,0.04,-0.034,0,0,0,-34.2,6,27.1,0.165166173,0.70433668,-0.141727958,0.675618763
75,192473,1265150,0.985,0.04,-0.038,0,0,0,-34.2,6,27.1,0.165166173,0.70433668,-0.141727958,0.675618763
76,194265,1265150,0.988,0.044,-0.03,0,0,0,-34.2,6,27.1,0.165166173,0.70433668,-0.141727958,0.675618763
77,197870,1265150,0.985,0.036,-0.03,0,0,0,-35.3,5.8,27,0.165166173,0.70433668,-0.141727958,0.675618763
78,200015,1265160,0.992,0.04,-0.034,-0.1,0,0,-35.3,5.8,27,0.165166173,0.70433668,-0.141727958,0.675618763
79,202496,1265160,0.988,0.044,-0.03,0,0.1,0,-35.3,5.8,27,0.165166173,0.70433668,-0.141727958,0.675618763
80,204682,1265160,0.988,0.04,-0.034,0,0.1,0,-35.3,5.8,27,0.165166173,0.70433668,-0.141758477,0.675618763
81,207018,1265160,0.985,0.04,-0.03,0,0,0,-34.9,5.9,26.6,0.165166173,0.70433668,-0.141727958,0.675618763
82,210071,1265170,0.981,0.04,-0.03,0,0,0,-34.9,5.9,26.6,0.165166173,0.70433668,-0.141758477,0.675618763
83,212265,1265170,0.985,0.036,-0.03,0,0,0,-34.9,5.9,26.6,0.165166173,0.70433668,-0.141727958,0.675618763
84,215401,1265170,0.981,0.04,-0.034,0,0,-0.1,-34.9,5.9,26.6,0.165166173,0.70433668,-0.141727958,0.675618763
85,218677,1265170,0.985,0.04,-0.03,0,0,-0.1,-34.7,5.5,26.7,0.165166173,0.70433668,-0.141727958,0.675618763
86,219244,1265180,0.988,0.036,-0.034,0,0.1,-0.1,-34.7,5.5,26.7,0.165166173,0.70433668,-0.141727958,0.675618763
87,223404,1265180,0.985,0.044,-0.026,0,0,0,-34.7,5.5,26.7,0.165166173,0.70433668,-0.141727958,0.675618763
88,225748,1265180,0.988,0.04,-0.034,0,0,0,-34.7,5.5,26.7,0.165166173,0.70433668,-0.141727958,0.675618763
89,227756,1265180,0.992,0.04,-0.034,0,-0.1,0,-35.1,5.8,26.6,0.165166173,0.70433668,-0.141727958,0.675618763
90,229777,1265190,0.985,0.036,-0.03,0,-0.1,0,-35.1,5.8,26.6,0.165166173,0.70433668,-0.141727958,0.675618763
91,233350,1265190,0.981,0.044,-0.026,0,-0.1,0,-35.1,5.8,26.6,0.165166173,0.70433668,-0.141727958,0.675618763
92,235308,1265190,0.985,0.04,-0.03,0,-0.1,0.1,-35.1,5.8,26.6,0.165166173,0.704367199,-0.141758477,0.675618763
93,237057,1265190,0.985,0.044,-0.026,0,-0.2,0,-34.8,5.7,26.9,0.165166173,0.704367199,-0.141758477,0.675618763
94,240452,1265200,0.988,0.036,-0.03,0,-0.1,-0.1,-34.8,5.7,26.9,0.165166173,0.704367199,-0.141758477,0.675618763
95,242136,1265200,0.988,0.036,-0.03,0,-0.1,-0.1,-34.8,5.7,26.9,0.165166173,0.704367199,-0.141758477,0.675618763
96,244312,1265200,0.985,0.044,-0.034,0,0,-0.1,-34.8,5.7,26.9,0.165166173,0.704367199,-0.141758477,0.675618763
97,247633,1265200,0.988,0.04,-0.034,0,0,0,-36.4,5.8,27.1,0.165166173,0.704367199,-0.141758477,0.675618763
98,249371,1265210,0.985,0.044,-0.03,0,0,0,-36.4,5.8,27.1,0.165166173,0.704367199,-0.141758477,0.675618763
99,252076,1265210,0.981,0.04,-0.03,0,-0.1,0,-36.4,5.8,27.1,0.165166173,0.704367199,-0.141758477,0.675618763
100,255398,1265210,0.981,0.04,-0.034,0,0,0,-36.4,5.8,27.1,0.165166173,0.704367199,-0.141758477,0.675618763
101,257431,1265210,0.981,0.044,-0.03,0,0,0.1,-33.9,5.8,27.2,0.165166173,0.704367199,-0.141758477,0.675618763
102,259518,1265220,0.985,0.04,-0.03,0.1,0.1,0.1,-33.9,5.8,27.2,0.165166173,0.704367199,-0.141758477,0.675618763
103,261904,1265220,0.985,0.04,-0.026,0,0.1,0,-33.9,5.8,27.2,0.165166173,0.704367199,-0.141758477,0.675618763
104,264667,1265220,0.985,0.044,-0.034,0,0.1,0,-33.9,5.8,27.2,0.165166173,0.704367199,-0.141758477,0.675618763
105,266908,1265220,0.988,0.044,-0.03,0,0,0,-33.9,6.1,27.2,0.165166173,0.704367199,-0.141758477,0.675618763
106,269389,1265230,0.985,0.044,-0.034,0,-0.1,0,-33.9,6.1,27.2,0.165166173,0.704367199,-0.141758477,0.675618763
107,272154,1265230,0.988,0.04,-0.034,0,-0.1,0,-33.9,6.1,27.2,0.165166173,0.704367199,-0.141758477,0.675618763
108,276287,1265230,0.985,0.04,-0.03,0,-0.1,-0.1,-33.9,6.1,27.2,0.165166173,0.704367199,-0.141758477,0.675618763
109,276934,1265230,0.981,0.04,-0.03,0,0,-0.1,-34,5.7,27.1,0.165196692,0.704367199,-0.141727958,0.675588244
110,279886,1265240,0.981,0.04,-0.03,0,0,0,-34,5.7,27.1,0.165196692,0.704367199,-0.141727958,0.675588244
111,283237,1265240,0.985,0.044,-0.034,0,0.1,0,-34,5.7,27.1,0.165196692,0.704367199,-0.141727958,0.675588244
112,285289,1265240,0.985,0.04,-0.034,0,0.1,0,-34,5.7,27.1,0.165196692,0.704367199,-0.141727958,0.675588244
113,286889,1265240,0.988,0.04,-0.03,0,0,0,-34,6,27.2,0.165196692,0.704367199,-0.141727958,0.675588244
114,289830,1265250,0.988,0.04,-0.03,0,0.1,0,-34,6,27.2,0.165196692,0.704367199,-0.141727958,0.675588244
115,292904,1265250,0.985,0.036,-0.03,0,0.1,0.1,-34,6,27.2,0.165196692,0.704367199,-0.141727958,0.675588244
116,295040,1265250,0.985,0.036,-0.03,0,0.2,0,-34,6,27.2,0.165196692,0.704367199,-0.141727958,0.675618763
117,297268,1265250,0.985,0.036,-0.034,0,0.2,0,-35.1,6,27,0.165196692,0.704367199,-0.141727958,0.675618763
118,299507,1265260,0.985,0.036,-0.034,0,0.2,0,-35.1,6,27,0.165196692,0.704367199,-0.141727958,0.675618763
119,303327,1265260,0.985,0.044,-0.034,0,0.1,0,-35.1,6,27,0.165196692,0.704367199,-0.141727958,0.675618763
120,305836,1265260,0.985,0.044,-0.034,-0.1,0,0,-35.1,6,27,0.165196692,0.704367199,-0.141727958,0.675618763
121,307529,1265260,0.988,0.036,-0.034,-0.1,-0.1,0,-34.8,6.3,27.2,0.165196692,0.704367199,-0.141727958,0.675618763
122,309335,1265270,0.988,0.04,-0.034,-0.1,0,0,-34.8,6.3,27.2,0.165196692,0.704367199,-0.141727958,0.675618763
123,313276,1265270,0.985,0.044,-0.03,0,0,0,-34.8,6.3,27.2,0.165196692,0.704367199,-0.141727958,0.675618763
124,314828,1265270,0.988,0.04,-0.026,0,0.1,0,-34.8,6.3,27.2,0.165196692,0.704367199,-0.141727958,0.675618763
125,316986,1265270,0.988,0.04,-0.03,-0.1,0,0,-34.5,6.3,27.7,0.165196692,0.704367199,-0.141727958,0.675618763
126,320762,1265280,0.988,0.036,-0.03,-0.1,0,-0.1,-34.5,6.3,27.7,0.165196692,0.704367199,-0.141727958,0.675618763
127,322245,1265280,0.985,0.032,-0.034,0,0,-0.1,-34.5,6.3,27.7,0.165196692,0.704367199,-0.141727958,0.675618763
128,324384,1265280,0.981,0.04,-0.034,0,0.1,-0.1,-34.5,6.3,27.7,0.165196692,0.704367199,-0.141727958,0.675618763
129,328234,1265280,0.985,0.04,-0.026,0,0.1,0,-35.2,6.2,27.3,0.165166173,0.704367199,-0.141758477,0.675618763
130,330543,1265290,0.985,0.04,-0.034,0,0.1,0,-35.2,6.2,27.3,0.165166173,0.70433668,-0.141758477,0.675618763
131,332045,1265290,0.985,0.036,-0.034,0,0,0,-35.2,6.2,27.3,0.165166173,0.70433668,-0.141758477,0.675618763
132,334728,1265290,0.985,0.036,-0.03,0,-0.1,0,-35.2,6.2,27.3,0.165166173,0.704367199,-0.141758477,0.675618763
133,336929,1265290,0.988,0.044,-0.03,0,-0.3,-0.1,-34.9,6.2,27.4,0.165196692,0.704367199,-0.141758477,0.675618763
134,339370,1265300,0.992,0.04,-0.026,0,-0.3,-0.1,-34.9,6.2,27.4,0.165196692,0.704367199,-0.141758477,0.675618763
135,342579,1265300,0.985,0.044,-0.026,0,-0.3,-0.1,-34.9,6.2,27.4,0.165196692,0.704367199,-0.141758477,0.675588244
136,344664,1265300,0.985,0.04,-0.026,0,-0.1,-0.1,-34.9,6.2,27.4,0.165196692,0.704367199,-0.141758477,0.675588244
137,347035,1265300,0.985,0.04,-0.034,0,-0.1,0,-35.2,5.8,26.5,0.165196692,0.704367199,-0.141758477,0.675588244
138,349460,1265310,0.988,0.04,-0.026,0,-0.2,0,-35.2,5.8,26.5,0.165196692,0.704367199,-0.141758477,0.675588244
139,352896,1265310,0.985,0.04,-0.03,0,-0.2,0,-35.2,5.8,26.5,0.165196692,0.704367199,-0.141758477,0.675588244
140,354556,1265310,0.985,0.044,-0.034,0,-0.2,0,-35.2,5.8,26.5,0.165166173,0.704397717,-0.141758477,0.675588244
141,357037,1265310,0.985,0.04,-0.03,0,-0.1,0.1,-34.9,6,27.6,0.165166173,0.704397717,-0.141758477,0.675588244
142,359574,1265320,0.985,0.044,-0.03,0,-0.1,0.1,-34.9,6,27.6,0.165166173,0.704397717,-0.141758477,0.675588244
143,361913,1265320,0.981,0.036,-0.034,0,0,0.1,-34.9,6,27.6,0.165166173,0.704397717,-0.141758477,0.675588244
144,365239,1265320,0.981,0.036,-0.034,0,0,0,-34.9,6,27.6,0.165166173,0.704397717,-0.141758477,0.675588244
145,367729,1265320,0.985,0.036,-0.034,0,0,0.1,-35.1,6.2,28.1,0.165166173,0.704397717,-0.141758477,0.675588244
146,369709,1265330,0.988,0.044,-0.034,0,-0.1,0,-35.1,6.2,28.1,0.165166173,0.704397717,-0.141788995,0.675557726
147,372447,1265330,0.985,0.04,-0.03,0,-0.1,-0.1,-35.1,6.2,28.1,0.165166173,0.704397717,-0.141788995,0.675557726
148,374571,1265330,0.988,0.044,-0.026,0,-0.1,-0.1,-35.1,6.2,28.1,0.165166173,0.704397717,-0.141758477,0.675557726
149,376948,1265330,0.988,0.04,-0.03,0,0,-0.1,-34.9,6.5,28.8,0.165196692,0.704397717,-0.141758477,0.675557726
150,380741,1265340,0.988,0.036,-0.034,0,0,-0.1,-34.9,6.5,28.8,0.165196692,0.704397717,-0.141758477,0.675557726
151,382284,1265340,0.985,0.044,-0.034,0,0.1,0,-34.9,6.5,28.8,0.165196692,0.704397717,-0.141758477,0.675557726
152,384530,1265340,0.985,0.04,-0.03,0,0.1,0,-34.9,6.5,28.8,0.165196692,0.704397717,-0.141758477,0.675557726
153,388048,1265340,0.985,0.04,-0.026,0,0.1,0,-34.8,6.3,28.9,0.165196692,0.704397717,-0.141758477,0.675588244
154,389608,1265350,0.985,0.04,-0.038,0,0.1,0,-34.8,6.3,28.9,0.165196692,0.704397717,-0.141758477,0.675588244
155,392052,1265350,0.985,0.044,-0.03,0,0.1,0,-34.8,6.3,28.9,0.165196692,0.704397717,-0.141758477,0.675588244
156,395398,1265350,0.988,0.036,-0.026,0,0.1,0,-34.8,6.3,28.9,0.165196692,0.704397717,-0.141758477,0.675588244
157,396967,1265350,0.985,0.036,-0.034,0,0.1,0,-34.8,5.9,25.1,0.165196692,0.704397717,-0.141758477,0.675588244
158,399443,1265360,0.985,0.036,-0.03,0,0,0,-34.8,5.9,25.1,0.165196692,0.704397717,-0.141758477,0.675588244
159,402168,1265360,0.985,0.036,-0.03,0,0,-0.1,-34.8,5.9,25.1,0.165196692,0.704397717,-0.141758477,0.675588244
160,405260,1265360,0.985,0.04,-0.034,0,0,-0.1,-34.8,5.9,25.1,0.165196692,0.704397717,-0.141727958,0.675588244
161,407410,1265360,0.988,0.04,-0.034,0,0,-0.1,-34.6,6,27.1,0.165196692,0.704397717,-0.141727958,0.675588244
162,410244,1265370,0.985,0.04,-0.03,0,0,-0.1,-34.6,6,27.1,0.165196692,0.704397717,-0.141727958,0.675588244
163,412022,1265370,0.988,0.04,-0.03,0,0,0,-34.6,6,27.1,0.165196692,0.704397717,-0.141727958,0.675588244
164,414944,1265370,0.985,0.04,-0.03,0,0,0,-34.6,6,27.1,0.165196692,0.704397717,-0.141727958,0.675588244
165,417410,1265370,0.985,0.044,-0.026,0,0,0,-34.6,6.3,27.2,0.165196692,0.704397717,-0.141727958,0.675588244
166,420411,1265380,0.988,0.036,-0.03,0.1,0,0,-34.6,6.3,27.2,0.165196692,0.704397717,-0.141727958,0.675588244
167,422625,1265380,0.985,0.04,-0.03,0.1,-0.1,0.1,-34.6,6.3,27.2,0.165166173,0.704397717,-0.141727958,0.675588244
168,424769,1265380,0.985,0.044,-0.026,0.1,0,0.1,-34.6,6.3,27.2,0.165166173,0.704397717,-0.141727958,0.675588244
169,426927,1265380,0.985,0.04,-0.038,0,0,0,-34.6,5.7,26.8,0.165196692,0.704367199,-0.141727958,0.675618763
170,430210,1265390,0.985,0.04,-0.038,0,0,0,-34.6,5.7,26.8,0.165196692,0.704367199,-0.141727958,0.675618763
171,432370,1265390,0.981,0.04,-0.034,0,0,-0.1,-34.6,5.7,26.8,0.165196692,0.704367199,-0.141727958,0.675618763
172,435473,1265390,0.985,0.04,-0.03,0,-0.1,-0.1,-34.6,5.7,26.8,0.165196692,0.704367199,-0.141727958,0.675618763
173,437359,1265390,0.985,0.044,-0.03,0,-0.1,-0.1,-34.8,6,25.9,0.165196692,0.704367199,-0.141727958,0.675588244
174,439530,1265400,0.985,0.04,-0.03,0,0,-0.1,-34.8,6,25.9,0.165196692,0.704367199,-0.141727958,0.675588244
175,442082,1265400,0.985,0.04,-0.03,0.1,0.1,0,-34.8,6,25.9,0.165196692,0.704367199,-0.141697439,0.675588244
176,445322,1265400,0.988,0.036,-0.03,0.1,0.2,0,-34.8,6,25.9,0.165196692,0.704367199,-0.141697439,0.675618763
177,447108,1265400,0.988,0.04,-0.03,0.1,0.2,0,-35.1,5.8,26.7,0.165196692,0.704367199,-0.141697439,0.675618763
178,449432,1265410,0.985,0.044,-0.03,0,0.1,0,-35.1,5.8,26.7,0.165196692,0.704367199,-0.141697439,0.675618763
179,453100,1265410,0.988,0.044,-0.034,0,0.1,0,-35.1,5.8,26.7,0.165196692,0.704367199,-0.141697439,0.675618763
180,455787,1265410,0.985,0.04,-0.03,0.1,0,0,-35.1,5.8,26.7,0.165196692,0.704367199,-0.141697439,0.675618763
181,458360,1265410,0.985,0.04,-0.03,0.1,0,0,-34.8,5.7,27.1,0.165196692,0.704367199,-0.141697439,0.675618763
182,460490,1265420,0.985,0.04,-0.03,0.1,0,0.1,-34.8,5.7,27.1,0.165196692,0.704367199,-0.141697439,0.675618763
183,462084,1265420,0.981,0.04,-0.03,0,0,0.1,-34.8,5.7,27.1,0.165196692,0.704367199,-0.141697439,0.675618763
184,464520,1265420,0.981,0.04,-0.026,-0.1,0.1,0,-34.8,5.7,27.1,0.165196692,0.704367199,-0.141697439,0.675618763
185,467989,1265420,0.985,0.044,-0.03,-0.1,0.1,0,-34.8,5.5,26.6,0.165196692,0.704367199,-0.141727958,0.675618763
186,469462,1265430,0.985,0.044,-0.03,-0.1,0.1,-0.1,-34.8,5.5,26.6,0.165196692,0.704367199,-0.141727958,0.675618763
187,471832,1265430,0.985,0.04,-0.03,0,0,-0.1,-34.8,5.5,26.6,0.165196692,0.704367199,-0.141697439,0.675618763
188,475625,1265430,0.988,0.04,-0.034,0,-0.1,-0.1,-34.8,5.5,26.6,0.165196692,0.704367199,-0.141697439,0.675618763
189,477791,1265430,0.985,0.044,-0.034,0,-0.1,0,-34.9,6,26.8,0.16522721,0.704367199,-0.141697439,0.675618763
190,479435,1265440,0.988,0.04,-0.03,0,-0.1,0,-34.9,6,26.8,0.16522721,0.704367199,-0.141697439,0.675618763
191,482560,1265440,0.988,0.04,-0.03,0,0,0,-34.9,6,26.8,0.16522721,0.704367199,-0.141697439,0.675618763
192,484583,1265440,0.988,0.04,-0.034,0,0,0,-34.9,6,26.8,0.16522721,0.704367199,-0.141697439,0.675618763
193,488393,1265440,0.985,0.036,-0.03,0,0,-0.1,-35.2,5.7,27.1,0.16522721,0.704367199,-0.141697439,0.675618763
194,490724,1265450,0.985,0.036,-0.034,0,-0.1,-0.1,-35.2,5.7,27.1,0.16522721,0.704367199,-0.141697439,0.675618763
195,492099,1265450,0.988,0.036,-0.026,0,-0.1,-0.1,-35.2,5.7,27.1,0.16522721,0.704367199,-0.141697439,0.675588244
196,494776,1265450,0.985,0.04,-0.03,0,0,-0.1,-35.2,5.7,27.1,0.16522721,0.704367199,-0.141697439,0.675588244
197,497730,1265450,0.985,0.036,-0.034,0,0,0,-35.2,6.2,27.9,0.16522721,0.704367199,-0.141697439,0.675588244
198,499901,1265460,0.981,0.036,-0.03,0,0.1,0,-35.2,6.2,27.9,0.16522721,0.704367199,-0.141697439,0.675588244
199,502202,1265460,0.981,0.04,-0.034,0,0.1,0.1,-35.2,6.2,27.9,0.16522721,0.704367199,-0.141697439,0.675618763
200,506011,1265460,0.985,0.04,-0.034,0,0.2,0,-35.2,6.2,27.9,0.16522721,0.704367199,-0.141697439,0.675618763
201,506939,1265460,0.981,0.04,-0.034,0,0.2,0,-34.6,5.5,25.9,0.16522721,0.704367199,-0.141697439,0.675618763
202,510497,1265470,0.981,0.04,-0.034,0,0.1,0,-34.6,5.5,25.9,0.16522721,0.704367199,-0.141697439,0.675618763
203,512789,1265470,0.988,0.044,-0.026,0,0,0,-34.6,5.5,25.9,0.16522721,0.704367199,-0.141697439,0.675618763
204,514915,1265470,0.988,0.04,-0.034,0,0,0,-34.6,5.5,25.9,0.16522721,0.704367199,-0.141697439,0.675618763
205,517278,1265470,0.988,0.04,-0.03,0,0,0,-34.7,4.7,26.4,0.16522721,0.704367199,-0.141697439,0.675618763
206,520411,1265480,0.992,0.036,-0.034,0.1,0,0,-34.7,4.7,26.4,0.16522721,0.704367199,-0.141697439,0.675618763
207,521911,1265480,0.985,0.04,-0.03,0.1,0.1,-0.1,-34.7,4.7,26.4,0.16522721,0.704367199,-0.141666921,0.675618763
208,525772,1265480,0.985,0.04,-0.03,0,0.2,-0.1,-34.7,4.7,26.4,0.16522721,0.70433668,-0.141666921,0.675618763
209,527389,1265480,0.981,0.04,-0.03,0,0.2,0,-34.9,3.9,26.2,0.16522721,0.70433668,-0.141697439,0.675618763
210,530997,1265490,0.988,0.04,-0.03,0,0.2,0,-34.9,3.9,26.2,0.16522721,0.70433668,-0.141697439,0.675649281
211,532886,1265490,0.988,0.04,-0.03,0,0.2,0,-34.9,3.9,26.2,0.16522721,0.70433668,-0.141697439,0.675649281
212,534626,1265490,0.988,0.04,-0.026,0,0.1,0,-34.9,3.9,26.2,0.16522721,0.70433668,-0.141697439,0.675649281
213,537273,1265490,0.985,0.04,-0.038,0,0,0,-34.7,4,26.3,0.16522721,0.70433668,-0.141697439,0.675649281
214,539598,1265500,0.985,0.04,-0.034,0,0,-0.1,-34.7,4,26.3,0.16522721,0.70433668,-0.141697439,0.675649281
215,541957,1265500,0.988,0.04,-0.03,0,-0.1,0,-34.7,4,26.3,0.16522721,0.70433668,-0.141697439,0.675649281
216,544440,1265500,0.985,0.044,-0.03,0,-0.1,0,-34.7,4,26.3,0.16522721,0.70433668,-0.141697439,0.675649281
217,548660,1265500,0.985,0.04,-0.038,0,0,-0.1,-34.9,7.8,27.7,0.16522721,0.70433668,-0.141697439,0.675618763
218,550844,1265510,0.985,0.04,-0.034,-0.1,-0.1,-0.1,-34.9,7.8,27.7,0.16522721,0.70433668,-0.141697439,0.675618763
219,553249,1265510,0.988,0.04,-0.026,0,-0.1,-0.1,-34.9,7.8,27.7,0.165257729,0.70433668,-0.141697439,0.675618763
220,555511,1265510,0.985,0.04,-0.03,0,-0.1,0,-34.9,7.8,27.7,0.165257729,0.70433668,-0.141697439,0.675618763
221,557800,1265510,0.981,0.04,-0.034,0,0,0,-34.9,5.1,26,0.16522721,0.70433668,-0.141697439,0.675618763
222,559930,1265520,0.985,0.04,-0.03,0.1,0,0,-34.9,5.1,26,0.16522721,0.70433668,-0.141697439,0.675618763
223,562198,1265520,0.988,0.04,-0.034,0,0,0,-34.9,5.1,26,0.16522721,0.70433668,-0.141697439,0.675618763
224,564453,1265520,0.985,0.036,-0.026,0,0,0,-34.9,5.1,26,0.16522721,0.70433668,-0.141697439,0.675618763
225,567636,1265520,0.985,0.044,-0.03,0,-0.1,0,-35,5.7,26.1,0.16522721,0.70433668,-0.141697439,0.675618763
226,569709,1265530,0.981,0.04,-0.038,0,-0.1,0,-35,5.7,26.1,0.16522721,0.70433668,-0.141697439,0.675618763
227,572044,1265530,0.981,0.04,-0.03,0,0,0,-35,5.7,26.1,0.16522721,0.70433668,-0.141697439,0.675618763
228,574726,1265530,0.988,0.04,-0.038,-0.1,0,0,-35,5.7,26.1,0.16522721,0.70433668,-0.141697439,0.675618763
229,576884,1265530,0.988,0.044,-0.03,0,0,0,-35,6,26,0.165257729,0.704367199,-0.141697439,0.675588244
230,580006,1265540,0.988,0.044,-0.03,0,0,0,-35,6,26,0.165257729,0.704367199,-0.141697439,0.675588244
231,583342,1265540,0.981,0.04,-0.034,0,0,0,-35,6,26,0.165257729,0.704367199,-0.141697439,0.675588244
232,584854,1265540,0.985,0.044,-0.026,0,0,0,-35,6,26,0.165257729,0.704367199,-0.141697439,0.675588244
233,587868,1265540,0.985,0.04,-0.034,0,0,0,-34.9,6.5,26.1,0.16522721,0.704367199,-0.141697439,0.675588244
234,589319,1265550,0.985,0.036,-0.026,0,0,0,-34.9,6.5,26.1,0.165257729,0.704367199,-0.141697439,0.675588244
235,592133,1265550,0.988,0.04,-0.03,0,0,0,-34.9,6.5,26.1,0.165257729,0.704367199,-0.141697439,0.675588244
236,595180,1265550,0.985,0.044,-0.03,0,0,0,-34.9,6.5,26.1,0.165257729,0.704367199,-0.141697439,0.675588244
237,596954,1265550,0.985,0.044,-0.034,0,0.1,0,-35,6.2,26.9,0.165257729,0.704367199,-0.141697439,0.675588244
238,600273,1265560,0.981,0.04,-0.03,0,0.1,0,-35,6.2,26.9,0.165257729,0.704367199,-0.141697439,0.675588244
239,601916,1265560,0.981,0.04,-0.034,0,0.1,0.1,-35,6.2,26.9,0.16522721,0.704367199,-0.141697439,0.675588244
240,604693,1265560,0.981,0.04,-0.03,0,0.1,0.1,-35,6.2,26.9,0.16522721,0.704367199,-0.141697439,0.675588244
241,607744,1265560,0.985,0.04,-0.03,0,0.2,0.1,-35.2,5.5,26.7,0.16522721,0.704367199,-0.141697439,0.675618763
242,609316,1265570,0.988,0.04,-0.03,0,0.2,0,-35.2,5.5,26.7,0.16522721,0.704367199,-0.141697439,0.675618763
243,612149,1265570,0.981,0.04,-0.034,0,0.3,0,-35.2,5.5,26.7,0.16522721,0.70433668,-0.141697439,0.675618763
244,615282,1265570,0.985,0.044,-0.026,0,0.3,0,-35.2,5.5,26.7,0.165257729,0.70433668,-0.141697439,0.675618763
245,616945,1265570,0.988,0.036,-0.03,0,0.2,0,-34.8,5.9,26.8,0.165257729,0.70433668,-0.141697439,0.675618763
246,619435,1265580,0.988,0.036,-0.034,0,0.2,0,-34.8,5.9,26.8,0.165257729,0.70433668,-0.141697439,0.675618763
247,622814,1265580,0.988,0.04,-0.038,0,0,0,-34.8,5.9,26.8,0.165257729,0.70433668,-0.141697439,0.675618763
248,625087,1265580,0.981,0.04,-0.03,0,0,0,-34.8,5.9,26.8,0.165257729,0.70433668,-0.141697439,0.675618763
249,628249,1265580,0.985,0.04,-0.034,0,0.1,-0.1,-35,6,27,0.16522721,0.70433668,-0.141697439,0.675618763
250,630300,1265590,0.985,0.04,-0.026,0,0.1,-0.1,-35,6,27,0.16522721,0.70433668,-0.141697439,0.675618763
251,632462,1265590,0.981,0.04,-0.026,0,0.1,-0.1,-35,6,27,0.16522721,0.70433668,-0.141697439,0.675618763
252,635669,1265590,0.985,0.04,-0.03,-0.1,0,-0.1,-35,6,27,0.16522721,0.70433668,-0.141697439,0.675618763
253,637026,1265590,0.988,0.04,-0.03,-0.1,0,0,-35,6.1,26.8,0.16522721,0.70433668,-0.141697439,0.675618763
254,640206,1265600,0.985,0.04,-0.03,0,0.1,0,-35,6.1,26.8,0.16522721,0.70433668,-0.141697439,0.675618763
255,641813,1265600,0.985,0.04,-0.03,0,0.1,0,-35,6.1,26.8,0.16522721,0.70433668,-0.141697439,0.675618763
256,644317,1265600,0.988,0.036,-0.034,0,0.1,0,-35,6.1,26.8,0.16522721,0.70433668,-0.141697439,0.675618763
257,647343,1265600,0.985,0.044,-0.026,0,0,0,-35,5.1,27,0.16522721,0.70433668,-0.141697439,0.675618763
258,650501,1265610,0.988,0.044,-0.03,0,0,0,-35,5.1,27,0.16522721,0.70433668,-0.141697439,0.675618763
259,652518,1265610,0.985,0.036,-0.03,0,-0.1,0,-35,5.1,27,0.16522721,0.70433668,-0.141697439,0.675618763
260,655432,1265610,0.988,0.044,-0.03,0,-0.2,0,-35,5.1,27,0.16522721,0.70433668,-0.141697439,0.675618763
261,656865,1265610,0.985,0.04,-0.03,0,-0.3,0,-35.5,6.5,27.2,0.16522721,0.70433668,-0.141697439,0.675618763
262,660226,1265620,0.988,0.04,-0.034,0,-0.2,0,-35.5,6.5,27.2,0.16522721,0.704367199,-0.141697439,0.675618763
263,661843,1265620,0.985,0.04,-0.03,0,-0.1,0,-35.5,6.5,27.2,0.16522721,0.704367199,-0.141697439,0.675618763
264,665546,1265620,0.985,0.04,-0.03,0,0,0,-35.5,6.5,27.2,0.16522721,0.704367199,-0.141697439,0.675618763
265,667043,1265620,0.985,0.036,-0.03,0,0,0,-36.3,7,26.7,0.16522721,0.704367199,-0.141697439,0.675618763
266,669432,1265630,0.981,0.044,-0.034,-0.1,-0.1,-0.1,-36.3,7,26.7,0.16522721,0.704367199,-0.141697439,0.675618763
267,673178,1265630,0.985,0.04,-0.034,0,-0.1,-0.1,-36.3,7,26.7,0.165257729,0.704367199,-0.141697439,0.675588244
268,675362,1265630,0.985,0.04,-0.03,0,-0.1,-0.1,-36.3,7,26.7,0.165257729,0.704367199,-0.141697439,0.675588244
269,676908,1265630,0.985,0.036,-0.038,0,0,0,-36.6,7.3,27.1,0.165257729,0.704367199,-0.141697439,0.675588244
270,679561,1265640,0.985,0.04,-0.03,0,0,0,-36.6,7.3,27.1,0.165257729,0.704367199,-0.141697439,0.675588244
271,682614,1265640,0.988,0.04,-0.034,0,0.1,0,-36.6,7.3,27.1,0.165257729,0.704367199,-0.141697439,0.675588244
272,684816,1265640,0.992,0.036,-0.034,0.1,0.1,0,-36.6,7.3,27.1,0.16522721,0.704367199,-0.141697439,0.675588244
273,688057,1265640,0.988,0.044,-0.034,0.1,0.2,0,-37.3,6.9,27,0.16522721,0.704367199,-0.141697439,0.675588244
274,689518,1265650,0.985,0.04,-0.03,0.1,0.2,0,-37.3,6.9,27,0.16522721,0.704367199,-0.141697439,0.675618763
275,692736,1265650,0.985,0.036,-0.03,0,0.1,0,-37.3,6.9,27,0.16522721,0.704367199,-0.141697439,0.675618763
276,694780,1265650,0.981,0.04,-0.038,0,0,0,-37.3,6.9,27,0.16522721,0.704367199,-0.141697439,0.675618763
277,697072,1265650,0.981,0.04,-0.034,0,-0.1,0,-34,5.1,27,0.16522721,0.704367199,-0.141697439,0.675588244
278,699585,1265660,0.981,0.04,-0.03,0,-0.1,0,-34,5.1,27,0.16522721,0.704367199,-0.141697439,0.675588244
279,702139,1265660,0.981,0.04,-0.034,0,-0.1,0,-34,5.1,27,0.16522721,0.704367199,-0.141697439,0.675588244
280,705127,1265660,0.985,0.044,-0.03,0,0,0,-34,5.1,27,0.16522721,0.704367199,-0.141697439,0.675588244
281,707041,1265660,0.985,0.036,-0.034,0,0,0,-36.5,6.5,27,0.16522721,0.704367199,-0.141697439,0.675588244
282,709433,1265670,0.988,0.036,-0.03,0,-0.1,0,-36.5,6.5,27,0.16522721,0.704367199,-0.141697439,0.675588244
283,712427,1265670,0.985,0.036,-0.03,0,-0.1,0,-36.5,6.5,27,0.16522721,0.704367199,-0.141697439,0.675588244
284,714596,1265670,0.985,0.036,-0.034,0,0,-0.1,-36.5,6.5,27,0.165257729,0.704367199,-0.141697439,0.675588244
285,718305,1265670,0.985,0.036,-0.03,0,0,-0.1,-36.7,6.9,26.8,0.165257729,0.704367199,-0.141697439,0.675588244
286,719345,1265680,0.988,0.036,-0.034,0,0.1,0,-36.7,6.9,26.8,0.165257729,0.704367199,-0.141697439,0.675588244
287,722977,1265680,0.985,0.04,-0.034,0,0.2,0,-36.7,6.9,26.8,0.165257729,0.704367199,-0.141697439,0.675588244
288,725083,1265680,0.981,0.04,-0.038,0,0.2,0,-36.7,6.9,26.8,0.165257729,0.704367199,-0.141697439,0.675588244
289,727297,1265680,0.985,0.044,-0.03,0,0,0,-35.9,6.7,26.9,0.16522721,0.704397717,-0.141727958,0.675588244
290,729632,1265690,0.985,0.044,-0.03,0,0,0,-35.9,6.7,26.9,0.16522721,0.704397717,-0.141727958,0.675588244
291,732193,1265690,0.985,0.04,-0.034,0,0,0,-35.9,6.7,26.9,0.16522721,0.704397717,-0.141727958,0.675588244
292,735462,1265690,0.985,0.044,-0.034,0,0,0,-35.9,6.7,26.9,0.16522721,0.704397717,-0.141727958,0.675588244
293,737122,1265690,0.985,0.036,-0.03,0,0.1,0,-34.9,6.8,27.1,0.16522721,0.704367199,-0.141727958,0.675588244
294,740323,1265700,0.985,0.04,-0.034,0,0.1,0,-34.9,6.8,27.1,0.16522721,0.704367199,-0.141727958,0.675588244
295,741908,1265700,0.985,0.04,-0.026,0,0.1,0,-34.9,6.8,27.1,0.16522721,0.704367199,-0.141727958,0.675588244
296,744483,1265700,0.985,0.04,-0.026,0,0,0,-34.9,6.8,27.1,0.16522721,0.704367199,-0.141727958,0.675588244
297,748671,1265700,0.985,0.04,-0.038,0,0,-0.1,-34.9,6.8,27.1,0.16522721,0.704367199,-0.141727958,0.675588244
298,750912,1265710,0.988,0.04,-0.03,0,0,-0.1,-34.9,6.8,27.1,0.16522721,0.704367199,-0.141727958,0.675588244
299,753071,1265710,0.988,0.04,-0.03,0,0,0,-34.9,6.8,27.1,0.16522721,0.704367199,-0.141727958,0.675588244
300,755377,1265710,0.985,0.04,-0.03,0.1,0,0,-34.9,6.8,27.1,0.16522721,0.704367199,-0.141727958,0.675588244
301,757625,1265710,0.985,0.044,-0.034,0.1,0.1,0,-35,5.8,26.7,0.16522721,0.704367199,-0.141727958,0.675588244
302,759796,1265720,0.985,0.04,-0.03,0.1,0,0.1,-35,5.8,26.7,0.16522721,0.704367199,-0.141727958,0.675588244
303,762046,1265720,0.985,0.04,-0.03,0.1,0.1,0.1,-35,5.8,26.7,0.165196692,0.704367199,-0.141727958,0.675588244
304,764408,1265720,0.988,0.044,-0.03,0.1,0,0,-35,5.8,26.7,0.165196692,0.704367199,-0.141727958,0.675588244
305,767776,1265720,0.985,0.04,-0.03,0.1,0,0,-35.1,5.7,27,0.165196692,0.704367199,-0.141697439,0.675588244
306,769493,1265730,0.988,0.04,-0.026,0.1,-0.1,-0.1,-35.1,5.7,27,0.165196692,0.704367199,-0.141697439,0.675588244
307,772668,1265730,0.985,0.04,-0.034,0.1,-0.2,0,-35.1,5.7,27,0.165196692,0.704367199,-0.141697439,0.675588244
308,774842,1265730,0.985,0.04,-0.03,0,-0.3,0,-35.1,5.7,27,0.165196692,0.704397717,-0.141697439,0.675588244
309,777138,1265730,0.992,0.044,-0.03,0,-0.1,0,-35,6,26.9,0.165196692,0.704367199,-0.141697439,0.675588244
310,779423,1265740,0.981,0.04,-0.034,0,-0.1,0,-35,6,26.9,0.165196692,0.704367199,-0.141697439,0.675588244
311,782083,1265740,0.988,0.04,-0.03,-0.1,0,0,-35,6,26.9,0.165196692,0.704367199,-0.141697439,0.675588244
312,785411,1265740,0.985,0.04,-0.038,-0.1,0,0,-35,6,26.9,0.16522721,0.704367199,-0.141697439,0.675588244
313,786890,1265740,0.981,0.044,-0.03,-0.1,0,0,-34.9,6.2,27,0.16522721,0.704367199,-0.141697439,0.675588244
314,789890,1265750,0.985,0.036,-0.034,0,0,0,-34.9,6.2,27,0.16522721,0.704367199,-0.141727958,0.675588244
315,792125,1265750,0.992,0.044,-0.03,0,-0.1,0,-34.9,6.2,27,0.16522721,0.704367199,-0.141727958,0.675588244
316,795253,1265750,0.985,0.04,-0.026,0,-0.1,0,-34.9,6.2,27,0.16522721,0.704367199,-0.141727958,0.675588244
317,796891,1265750,0.985,0.04,-0.03,0,-0.1,0,-34.9,6.2,27,0.165196692,0.704367199,-0.141727958,0.675588244
318,799896,1265760,0.988,0.036,-0.03,0.1,0,0,-34.9,6.2,27,0.165196692,0.704367199,-0.141727958,0.675588244
319,802099,1265760,0.988,0.044,-0.03,0,0.1,0,-34.9,6.2,27,0.165196692,0.704367199,-0.141727958,0.675588244
320,805321,1265760,0.981,0.036,-0.03,0,0.1,0,-34.9,6.2,27,0.165196692,0.704367199,-0.141727958,0.675588244
321,807432,1265760,0.988,0.04,-0.034,0.1,0.1,0,-34.4,6,26.9,0.165196692,0.704367199,-0.141697439,0.675588244
322,809455,1265770,0.988,0.04,-0.026,0.1,0,0,-34.4,6,26.9,0.165196692,0.704367199,-0.141697439,0.675588244
323,813001,1265770,0.988,0.04,-0.026,0.1,0,0,-34.4,6,26.9,0.165196692,0.704367199,-0.141697439,0.675588244
324,814515,1265770,0.988,0.044,-0.026,0.1,0,0,-34.4,6,26.9,0.165196692,0.704367199,-0.141697439,0.675588244
325,817005,1265770,0.985,0.044,-0.03,0,0,0,-34,6,27,0.165196692,0.704367199,-0.141697439,0.675588244
326,820500,1265780,0.985,0.04,-0.034,0,-0.1,0,-34,6,27,0.165196692,0.704367199,-0.141697439,0.675588244
327,822035,1265780,0.985,0.044,-0.034,0,-0.2,-0.1,-34,6,27,0.165196692,0.704367199,-0.141697439,0.675588244
328,825009,1265780,0.985,0.044,-0.034,-0.1,-0.3,0,-34,6,27,0.165196692,0.704397717,-0.141697439,0.675588244
329,827230,1265780,0.988,0.04,-0.034,-0.1,-0.2,0,-34,5.6,26.8,0.16522721,0.704397717,-0.141666921,0.675557726
330,829450,1265790,0.985,0.04,-0.034,-0.1,-0.2,0,-34,5.6,26.8,0.16522721,0.704428236,-0.141697439,0.675557726
331,832307,1265790,0.988,0.044,-0.034,0,-0.1,0,-34,5.6,26.8,0.16522721,0.704428236,-0.141697439,0.675557726
332,835422,1265790,0.981,0.044,-0.03,0,0,0,-34,5.6,26.8,0.16522721,0.704428236,-0.141697439,0.675557726
333,836864,1265790,0.981,0.036,-0.026,0.1,0.1,0,-33.9,6,27.1,0.16522721,0.704428236,-0.141666921,0.675557726
334,839773,1265800,0.985,0.04,-0.034,0,0.2,-0.1,-33.9,6,27.1,0.16522721,0.704397717,-0.141666921,0.675557726
335,842826,1265800,0.985,0.04,-0.034,0,0.1,0,-33.9,6,27.1,0.16522721,0.704397717,-0.141666921,0.675557726
336,844406,1265800,0.985,0.036,-0.03,0,0.1,0,-33.9,6,27.1,0.16522721,0.704397717,-0.141666921,0.675557726
337,847526,1265800,0.988,0.036,-0.034,0.1,0.1,0,-33.9,6,27.1,0.16522721,0.704397717,-0.141666921,0.675557726
338,849624,1265810,0.985,0.036,-0.034,0,0,0,-33.9,6,27.1,0.16522721,0.704397717,-0.141666921,0.675557726
339,851849,1265810,0.985,0.036,-0.034,0,0,-0.1,-33.9,6,27.1,0.16522721,0.704397717,-0.141666921,0.675557726
340,854542,1265810,0.981,0.04,-0.03,0,-0.1,-0.1,-33.9,6,27.1,0.16522721,0.704397717,-0.141666921,0.675557726
341,856830,1265810,0.981,0.044,-0.026,0,-0.1,0,-33.9,5.9,27,0.16522721,0.704397717,-0.141666921,0.675557726
342,859360,1265820,0.988,0.04,-0.03,0,-0.2,0,-33.9,5.9,27,0.16522721,0.704428236,-0.141666921,0.675557726
343,862786,1265820,0.985,0.04,-0.034,0,-0.2,0,-33.9,5.9,27,0.16522721,0.704428236,-0.141666921,0.675557726
344,864322,1265820,0.985,0.036,-0.034,0,-0.2,0,-33.9,5.9,27,0.16522721,0.704428236,-0.141666921,0.675557726
345,867990,1265820,0.988,0.036,-0.03,0,-0.2,0,-34,5.9,26.9,0.16522721,0.704428236,-0.141666921,0.675557726
346,869578,1265830,0.981,0.04,-0.026,0,-0.2,0,-34,5.9,26.9,0.16522721,0.704428236,-0.141666921,0.675527207
347,872081,1265830,0.985,0.04,-0.034,0,-0.1,0,-34,5.9,26.9,0.16522721,0.704428236,-0.141666921,0.675527207
348,875634,1265830,0.985,0.04,-0.038,0,0,0,-34,5.9,26.9,0.16522721,0.704428236,-0.141666921,0.675527207
349,877215,1265830,0.985,0.04,-0.026,0,0.1,0,-34,6,27.1,0.16522721,0.704428236,-0.141697439,0.675527207
350,879449,1265840,0.985,0.04,-0.026,0,0.1,0,-34,6,27.1,0.16522721,0.704428236,-0.141697439,0.675527207
351,882012,1265840,0.985,0.04,-0.034,0,0.1,0,-34,6,27.1,0.16522721,0.704428236,-0.141697439,0.675557726
352,885316,1265840,0.985,0.04,-0.026,0,0,0,-34,6,27.1,0.16522721,0.704428236,-0.141697439,0.675557726
353,886849,1265840,0.988,0.036,-0.034,0,-0.1,0,-34,5.8,27.2,0.165196692,0.704428236,-0.141697439,0.675527207
354,890570,1265850,0.988,0.036,-0.026,0,-0.2,0,-34,5.8,27.2,0.165196692,0.704428236,-0.141697439,0.675527207
355,892034,1265850,0.985,0.04,-0.038,0,-0.1,-0.1,-34,5.8,27.2,0.165196692,0.704428236,-0.141697439,0.675527207
356,894530,1265850,0.985,0.04,-0.034,0,0,-0.1,-34,5.8,27.2,0.16522721,0.704428236,-0.141697439,0.675527207
357,897954,1265850,0.985,0.036,-0.034,0,0.1,-0.2,-34,5.8,27.2,0.16522721,0.704428236,-0.141697439,0.675527207
358,899514,1265860,0.985,0.04,-0.034,0,0.1,-0.1,-34,5.8,27.2,0.16522721,0.704428236,-0.141697439,0.675527207
359,902587,1265860,0.981,0.04,-0.038,0,0.1,-0.1,-34,5.8,27.2,0.16522721,0.704428236,-0.141697439,0.675527207
360,905484,1265860,0.988,0.04,-0.03,0,0.1,0,-34,5.8,27.2,0.16522721,0.704428236,-0.141697439,0.675527207
361,907062,1265860,0.985,0.044,-0.03,0,0,-0.1,-35.2,5.6,26.8,0.16522721,0.704428236,-0.141666921,0.675527207
362,909409,1265870,0.988,0.036,-0.034,0,-0.1,-0.1,-35.2,5.6,26.8,0.16522721,0.704428236,-0.141666921,0.675527207
363,911979,1265870,0.985,0.04,-0.03,0,-0.1,0,-35.2,5.6,26.8,0.16522721,0.704428236,-0.141697439,0.675527207
364,915265,1265870,0.985,0.04,-0.026,0,-0.1,0,-35.2,5.6,26.8,0.16522721,0.704428236,-0.141697439,0.675527207
365,916884,1265870,0.985,0.036,-0.03,0,0,0,-35.4,5.9,27.1,0.16522721,0.704428236,-0.141697439,0.675527207
366,919722,1265880,0.985,0.04,-0.03,0,0,-0.1,-35.4,5.9,27.1,0.16522721,0.704428236,-0.141666921,0.675527207
367,922852,1265880,0.985,0.044,-0.03,0,0,-0.1,-35.4,5.9,27.1,0.16522721,0.704428236,-0.141666921,0.675527207
368,924366,1265880,0.988,0.044,-0.034,0,0,-0.2,-35.4,5.9,27.1,0.16522721,0.704428236,-0.141666921,0.675527207
369,927244,1265880,0.988,0.04,-0.038,0,0,-0.1,-34.9,5.6,27.3,0.165257729,0.704428236,-0.141666921,0.675527207
370,930370,1265890,0.988,0.04,-0.038,0,0,0,-34.9,5.6,27.3,0.165257729,0.704428236,-0.141666921,0.675527207
371,931893,1265890,0.985,0.044,-0.034,0,0,0,-34.9,5.6,27.3,0.165257729,0.704428236,-0.141666921,0.675527207
372,934688,1265890,0.985,0.044,-0.03,0,0,0,-34.9,5.6,27.3,0.165257729,0.704428236,-0.141666921,0.675527207
373,937801,1265890,0.985,0.04,-0.03,0,0,0,-34.9,6.1,27.4,0.165257729,0.704428236,-0.141666921,0.675527207
374,939347,1265900,0.985,0.04,-0.03,0,0,0.1,-34.9,6.1,27.4,0.165257729,0.704428236,-0.141666921,0.675527207
375,942091,1265900,0.985,0.04,-0.026,0,0,0,-34.9,6.1,27.4,0.165257729,0.704428236,-0.141666921,0.675527207
376,945219,1265900,0.988,0.04,-0.03,0,0,-0.1,-34.9,6.1,27.4,0.165257729,0.704428236,-0.141666921,0.675527207
377,946836,1265900,0.985,0.044,-0.03,0,0,-0.1,-34.9,6.1,27.4,0.165257729,0.704428236,-0.141666921,0.675527207
378,949610,1265910,0.988,0.04,-0.026,0,0.1,-0.1,-34.9,6.1,27.4,0.165257729,0.704428236,-0.141666921,0.675527207
379,952646,1265910,0.985,0.04,-0.03,0,0.2,0,-34.9,6.1,27.4,0.165257729,0.704428236,-0.141666921,0.675527207
380,955769,1265910,0.981,0.044,-0.026,-0.1,0.2,0,-34.9,6.1,27.4,0.165257729,0.704428236,-0.141666921,0.675527207
381,957205,1265910,0.981,0.044,-0.03,-0.1,0.3,0.1,-35,5.8,27.6,0.165257729,0.704428236,-0.141666921,0.675557726
382,960266,1265920,0.981,0.04,-0.03,-0.1,0.2,0.1,-35,5.8,27.6,0.165257729,0.704428236,-0.141666921,0.675557726
383,963223,1265920,0.981,0.044,-0.034,-0.1,0,0,-35,5.8,27.6,0.165257729,0.704397717,-0.141666921,0.675557726
384,964718,1265920,0.985,0.04,-0.026,-0.1,0,0,-35,5.8,27.6,0.165257729,0.704428236,-0.141666921,0.675557726
385,967673,1265920,0.985,0.04,-0.03,0,0,0,-34.8,5.4,27.7,0.165257729,0.704428236,-0.141666921,0.675557726
386,970758,1265930,0.985,0.044,-0.026,0,0,0,-34.8,5.4,27.7,0.165257729,0.704428236,-0.141666921,0.675557726
387,972207,1265930,0.985,0.04,-0.026,0.1,0,0,-34.8,5.4,27.7,0.165257729,0.704428236,-0.141666921,0.675557726
388,975225,1265930,0.985,0.036,-0.034,0.1,0,-0.1,-34.8,5.4,27.7,0.165257729,0.704428236,-0.141666921,0.675557726
389,976821,1265930,0.985,0.04,-0.03,0.1,0,0,-34.9,5.6,27.9,0.165257729,0.704397717,-0.141666921,0.675557726
390,979699,1265940,0.985,0.036,-0.026,0,0.1,0,-34.9,5.6,27.9,0.165257729,0.704397717,-0.141666921,0.675557726
391,982767,1265940,0.985,0.04,-0.038,0,0.2,0,-34.9,5.6,27.9,0.165257729,0.704397717,-0.141666921,0.675557726
392,984454,1265940,0.985,0.044,-0.034,0,0.1,0,-34.9,5.6,27.9,0.165257729,0.704397717,-0.141666921,0.675588244
393,987172,1265940,0.985,0.04,-0.026,0,0,0,-35,5.7,27.5,0.165257729,0.704397717,-0.141666921,0.675588244
394,990301,1265950,0.985,0.04,-0.038,0,-0.1,0,-35,5.7,27.5,0.165257729,0.704397717,-0.141666921,0.675588244
395,991968,1265950,0.988,0.04,-0.03,0,-0.2,-0.1,-35,5.7,27.5,0.165257729,0.704397717,-0.141666921,0.675557726
396,994831,1265950,0.985,0.04,-0.026,0,-0.1,-0.1,-35,5.7,27.5,0.165257729,0.704397717,-0.141666921,0.675557726
397,997073,1265950,0.981,0.036,-0.038,0,0,-0.1,-35,5.7,27.5,0.165257729,0.704397717,-0.141666921,0.675557726
398,999549,1265960,0.985,0.036,-0.026,0,0,0,-35,5.7,27.5,0.165257729,0.704397717,-0.141666921,0.675557726
399,1001947,1265960,0.985,0.04,-0.034,0,0,0,-35,5.7,27.5,0.165257729,0.704397717,-0.141666921,0.675557726
400,1005320,1265960,0.985,0.04,-0.038,0,-0.2,0,-35,5.7,27.5,0.165257729,0.704397717,-0.141666921,0.675557726
401,1007037,1265960,0.988,0.04,-0.034,0,-0.3,0,-35.2,6,26.7,0.165257729,0.704397717,-0.141666921,0.675557726
402,1009937,1265970,0.985,0.04,-0.034,0.1,-0.4,0,-35.2,6,26.7,0.165257729,0.704428236,-0.141666921,0.675557726
403,1012141,1265970,0.988,0.044,-0.026,0.1,-0.2,0,-35.2,6,26.7,0.165257729,0.704428236,-0.141666921,0.675557726
404,1014385,1265970,0.985,0.04,-0.03,0.1,-0.1,0,-35.2,6,26.7,0.165257729,0.704428236,-0.141666921,0.675527207
405,1017368,1265970,0.985,0.044,-0.03,0,-0.1,0,-35.1,6.3,26.2,0.165257729,0.704428236,-0.141666921,0.675527207
406,1019729,1265980,0.985,0.04,-0.034,0,-0.1,0,-35.1,6.3,26.2,0.165257729,0.704428236,-0.141666921,0.675527207
407,1022171,1265980,0.981,0.04,-0.03,-0.1,0,0,-35.1,6.3,26.2,0.165257729,0.704428236,-0.141666921,0.675527207
408,1024505,1265980,0.985,0.036,-0.034,-0.1,0,0,-35.1,6.3,26.2,0.165257729,0.704428236,-0.141666921,0.675527207
409,1027112,1265980,0.985,0.044,-0.03,-0.1,0,0,-35.1,6.1,26.2,0.165257729,0.704428236,-0.141666921,0.675527207
410,1030520,1265990,0.985,0.044,-0.03,0,0,0,-35.1,6.1,26.2,0.165257729,0.704428236,-0.141666921,0.675527207
411,1032893,1265990,0.985,0.044,-0.03,0,0,0,-35.1,6.1,26.2,0.165257729,0.704428236,-0.141666921,0.675527207
412,1034838,1265990,0.988,0.04,-0.034,0,0,0,-35.1,6.1,26.2,0.165257729,0.704428236,-0.141666921,0.675527207
413,1037103,1265990,0.985,0.044,-0.026,0,0,0,-34.8,6.2,25.6,0.165257729,0.704428236,-0.141666921,0.675527207
414,1039699,1266000,0.985,0.04,-0.038,0,0.1,0,-34.8,6.2,25.6,0.165257729,0.704428236,-0.141666921,0.675527207
415,1041894,1266000,0.985,0.044,-0.034,0,0.1,0,-34.8,6.2,25.6,0.165257729,0.704428236,-0.141666921,0.675527207
416,1045456,1266000,0.985,0.036,-0.03,0,0,0,-34.8,6.2,25.6,0.165257729,0.704428236,-0.141666921,0.675527207
417,1047552,1266000,0.981,0.044,-0.03,0,-0.1,0,-34.8,6.2,25.6,0.165257729,0.704428236,-0.141666921,0.675527207
418,1049773,1266010,0.988,0.04,-0.03,0,-0.1,0.1,-34.8,6.2,25.6,0.165257729,0.704428236,-0.141666921,0.675527207
419,1052112,1266010,0.985,0.036,-0.03,0,-0.1,0.1,-34.8,6.2,25.6,0.165257729,0.704428236,-0.141666921,0.675527207
420,1054571,1266010,0.988,0.036,-0.034,0,-0.1,0.1,-34.8,6.2,25.6,0.165257729,0.704428236,-0.141666921,0.675527207
421,1057893,1266010,0.988,0.036,-0.034,0,-0.1,0.1,-34.8,6.2,25.6,0.165257729,0.704428236,-0.141666921,0.675527207
422,1060320,1266020,0.985,0.04,-0.03,0,-0.1,0,-35.1,6.2,26.9,0.165257729,0.704428236,-0.141666921,0.675527207
423,1062527,1266020,0.985,0.04,-0.03,0,0,0,-35.1,6.2,26.9,0.165257729,0.704458754,-0.141666921,0.675527207
424,1064803,1266020,0.988,0.036,-0.034,0,0,0,-35.1,6.2,26.9,0.165257729,0.704458754,-0.141666921,0.675527207
425,1067040,1266020,0.981,0.04,-0.03,0,0,0,-34.8,5.7,26.7,0.165257729,0.704458754,-0.141666921,0.675527207
426,1069587,1266030,0.981,0.04,-0.03,0,0,0,-34.8,5.7,26.7,0.165257729,0.704458754,-0.141666921,0.675527207
427,1072056,1266030,-2.95,-0.967,-5.376,-5.7,33.4,0,-34.8,5.7,26.7,0.165471358,0.70393994,-0.141636402,0.676015503
428,1076084,1266030,-3.791,0.332,-6.798,-8.7,149.3,-7.8,-34.8,5.7,26.7,0.166173284,0.701712088,-0.141117588,0.678243355
429,1078205,1266030,-3.791,0.332,-6.798,-8.7,149.3,-7.8,-34.8,5.7,26.7,0.166173284,0.701712088,-0.141117588,0.678243355
430,1080405,1266040,6.662,2.963,-7.791,65.8,261.1,-43.9,-37.3,6.1,25.8,0.167607654,0.694296091,-0.136906034,0.68633076
431,1082748,1266040,6.662,2.963,-7.791,65.8,261.1,-43.9,-37.3,6.1,25.8,0.167607654,0.694296091,-0.136906034,0.68633076
432,1084613,1266040,3.738,-4.822,5.799,49.6,-114.1,-36.7,-37.3,6.1,25.8,0.166570025,0.695608386,-0.13348796,0.685934019
433,1087197,1266040,-1.268,2.538,7.807,-30.2,-142.5,-14.5,-37.3,6.1,25.8,0.166844691,0.697653127,-0.134250923,0.683645131
434,1089483,1266050,-1.901,2.804,8.112,-71.9,-16.4,4.7,-37.3,6.1,25.8,0.167821284,0.697622608,-0.135471664,0.683187353
435,1091925,1266050,0.758,-3.717,7.278,-63.3,115.7,14.5,-37.3,6.1,25.8,0.168889431,0.695638905,-0.136204108,0.684804834
436,1094852,1266050,0.634,-0.049,4.035,-45.4,144.6,13.8,-37.3,6.1,25.8,0.169804987,0.693258461,-0.136539811,0.686910611
437,1097129,1266050,-1.164,0.955,0.767,-31.9,91.9,6.2,-37.3,6.1,25.8,0.170476394,0.691732536,-0.136783959,0.688253426
438,1099717,1266060,-1.164,0.955,0.767,-31.9,91.9,6.2,-37.3,6.1,25.8,0.170476394,0.691732536,-0.136783959,0.688253426
439,1101996,1266060,0.183,-0.094,-2.108,15.8,11.2,-13.1,-37.3,6.1,25.8,0.170751061,0.691061129,-0.136173589,0.68898587
440,1105465,1266060,0.436,0.297,-1.984,21.4,-16.5,-14.1,-37.3,6.1,25.8,0.170598468,0.691427351,-0.135715812,0.688741722
441,1107609,1266060,0.488,-0.365,-0.624,17.6,-41.9,-9.8,-36.2,4.9,26.2,0.17035432,0.692159795,-0.135441145,0.688100833
442,1109820,1266070,0.488,-0.365,-0.624,17.6,-41.9,-9.8,-36.2,4.9,26.2,0.17035432,0.692159795,-0.135441145,0.688100833
443,1113003,1266070,0.665,-0.849,0.448,-7.6,-27.1,3,-36.2,4.9,26.2,0.17014069,0.693258461,-0.13574633,0.687002167
444,1114477,1266070,0.665,-0.849,0.448,-7.6,-27.1,3,-36.2,4.9,26.2,0.17014069,0.693258461,-0.13574633,0.687002167
445,1117655,1266070,1.548,0.361,1.455,-6.9,-2.5,5.8,-36.2,4.6,26.2,0.170262764,0.69328898,-0.136265145,0.686819056
446,1119507,1266080,1.074,0.13,-0.084,4,-4,3.4,-36.2,4.6,26.2,0.170110172,0.693350017,-0.136265145,0.686788537
447,1122493,1266080,0.936,0.794,0.294,11.8,-3.6,0.8,-36.2,4.6,26.2,0.169927061,0.693472091,-0.136112552,0.686788537
448,1124651,1266080,1.289,0.589,-0.104,15.4,-2,-0.6,-36.2,4.6,26.2,0.169682913,0.693563646,-0.135898923,0.686788537
449,1127815,1266080,1.22,-0.112,-0.977,14.1,-3.6,-0.5,-36,4.4,26.6,0.169469283,0.693655202,-0.135685293,0.686758019
450,1129343,1266090,0.991,0.046,-0.904,8,-7.4,0.8,-36,4.4,26.6,0.169316691,0.693807794,-0.135593738,0.686696982
451,1132499,1266090,0.695,-0.009,-0.597,0.8,-7,2.6,-36,4.4,26.6,0.169255654,0.69389935,-0.135654775,0.686605426
452,1135605,1266090,0.66,-0.287,-0.375,-3.8,-2.8,4.3,-36,4.4,26.6,0.169225135,0.693929868,-0.135776849,0.686544389
453,1137045,1266090,0.66,-0.287,-0.375,-3.8,-2.8,4.3,-36,4.4,26.6,0.169225135,0.693929868,-0.135776849,0.686544389
454,1140156,1266100,0.953,-0.12,0.01,-5.7,-5.3,6,-36.3,4.6,26.5,0.169225135,0.693929868,-0.136173589,0.686452834
455,1143036,1266100,0.942,-0.096,-0.016,-2,-9.8,6.1,-36.3,4.6,26.5,0.16913358,0.694051943,-0.136326182,0.68633076
456,1144514,1266100,0.91,-0.096,-0.215,2.8,-10,5.8,-36.3,4.6,26.5,0.168980987,0.694204535,-0.136417737,0.686208686
457,1147625,1266100,0.934,0.183,-0.033,6.4,-5.6,5.4,-36.3,4.6,26.5,0.168767357,0.694296091,-0.136417737,0.686147649
458,1149293,1266110,0.907,0.167,-0.079,7.3,0,5.3,-36.3,4.6,26.5,0.168584246,0.694296091,-0.136387219,0.686208686
459,1152709,1266110,0.992,0.048,-0.136,5.3,3.1,5.1,-36.3,4.6,26.5,0.168431654,0.694265572,-0.136387219,0.686269723
460,1154324,1266110,1.11,0.087,0.157,1,2.8,5.1,-36.3,4.6,26.5,0.168340098,0.694204535,-0.136417737,0.68633076
461,1157870,1266110,1.184,0.149,0.205,-3,-0.1,5,-35.9,6,27.1,0.16830958,0.694204535,-0.136539811,0.686361278
462,1159438,1266120,1.238,0.177,0.309,-5,-3.5,4.8,-35.9,6,27.1,0.16830958,0.694204535,-0.136722922,0.686300241
463,1162353,1266120,1.282,0.208,0.422,-4.7,-6.1,4.5,-35.9,6,27.1,0.16830958,0.694265572,-0.136875515,0.686208686
464,1165308,1266120,1.332,0.329,0.282,-3,-7.2,4,-35.9,6,27.1,0.168248543,0.694357128,-0.136997589,0.686086612
465,1166990,1266120,1.289,0.349,0.131,-0.7,-6.3,3.7,-35.9,6,27.1,0.168187506,0.694448683,-0.137089145,0.686025575
466,1170173,1266130,1.184,0.342,-0.006,1.2,-3.7,3.3,-35.9,6,27.1,0.168126469,0.694479202,-0.137150182,0.685964537
467,1172333,1266130,1.035,0.252,-0.216,2.3,-0.1,2.9,-35.9,6,27.1,0.168034913,0.694479202,-0.137150182,0.685995056
468,1174636,1266130,0.953,0.19,-0.249,1.7,2.7,2.7,-35.9,6,27.1,0.167973876,0.694448683,-0.137150182,0.686056093
469,1176935,1266130,0.903,0.108,-0.137,-0.2,3.6,2.8,-35.9,6,27.1,0.167943358,0.694387646,-0.1371807,0.68611713
470,1179525,1266140,0.903,0.108,-0.137,-2.8,2.3,3.1,-35.9,6,27.1,0.167943358,0.694326609,-0.137272256,0.686147649
471,1182915,1266140,0.926,0.049,-0.048,-4.8,-0.4,3.5,-35.9,6,27.1,0.167973876,0.694296091,-0.13739433,0.686147649
472,1185116,1266140,0.949,0.009,-0.033,-5.7,-3.6,3.9,-35.9,6,27.1,0.168004395,0.694326609,-0.137546922,0.686086612
473,1187320,1266140,0.969,0.001,-0.006,-5.5,-6.4,3.9,-35.9,6,27.1,0.168004395,0.694387646,-0.137730033,0.685995056
474,1189601,1266150,1.008,0.009,0.004,-4.5,-8,3.8,-35.9,6,27.1,0.167973876,0.694479202,-0.137882626,0.685872982
475,1192789,1266150,0.996,0.025,0.043,-3,-8.4,3.4,-35.9,6,27.1,0.167943358,0.694601276,-0.1380047,0.685750908
476,1194470,1266150,1.004,0.064,0.07,-1.6,-7.8,3.1,-35.9,6,27.1,0.167912839,0.694692831,-0.138096255,0.685628834
477,1197940,1266150,1,0.099,0.07,-0.5,-6.5,2.9,-35.9,6,27.1,0.167851802,0.694784387,-0.138187811,0.685537278
478,1199492,1266160,0.981,0.096,0.087,0,-5.3,2.7,-35.9,6,27.1,0.167790765,0.694845424,-0.138248848,0.685476241
479,1202019,1266160,0.981,0.064,0.087,-0.1,-4.4,2.7,-35.9,6,27.1,0.167729728,0.694906461,-0.138309885,0.685415204
480,1204318,1266160,0.985,0.045,0.094,-1,-4.2,2.6,-35.9,6,27.1,0.16769921,0.694967498,-0.138370922,0.685354167
481,1207883,1266160,0.993,0.06,0.075,-2.1,-4.9,2.4,-36,6.1,27.5,0.16769921,0.695028535,-0.138462477,0.68529313
482,1209400,1266170,0.969,0.029,0.056,-2.9,-6.1,2.5,-36,6.1,27.5,0.167668691,0.695089572,-0.138584552,0.685171056
483,1212374,1266170,0.942,-0.005,0.029,-3.5,-7.1,2.6,-36,6.1,27.5,0.167668691,0.695181127,-0.138676107,0.685079501
484,1215477,1266170,0.926,0.002,0.022,-3.9,-7.7,2.8,-36,6.1,27.5,0.167668691,0.695272683,-0.1388287,0.684957427
485,1216980,1266170,0.907,0.037,0.03,-3.8,-8,2.8,-36,6.1,27.5,0.167638173,0.695364238,-0.138950774,0.684835353
486,1219573,1266180,0.911,0.017,0.026,-3.5,-8.8,2.7,-36,6.1,27.5,0.167638173,0.695486312,-0.139072848,0.684713279
487,1222876,1266180,0.918,-0.001,0.018,-3.4,-10.3,2.5,-36,6.1,27.5,0.167607654,0.695608386,-0.139194922,0.684530168
488,1224438,1266180,0.938,0.021,0.025,-3.8,-12,2.3,-36,6.1,27.5,0.167607654,0.695760979,-0.139347514,0.684347056
489,1227805,1266180,0.957,0.033,0.044,-4.1,-13.1,2,-36,6.1,27.5,0.167577136,0.69594409,-0.139500107,0.684163945
490,1229355,1266190,0.957,0.033,0.044,-4.1,-13.4,1.5,-36,6.1,27.5,0.167577136,0.696127201,-0.139622181,0.683950316
491,1232314,1266190,0.934,0.013,0.061,-4.1,-13.1,1.1,-36,6.1,27.5,0.167607654,0.696279794,-0.139774773,0.683736686
492,1235354,1266190,0.969,0.009,0.075,-4.2,-12.6,0.7,-36,6.1,27.5,0.167607654,0.696462905,-0.139866329,0.683553575
493,1236988,1266190,0.965,0.021,0.134,-4.2,-12,0.5,-36,6.1,27.5,0.167638173,0.696615497,-0.139988403,0.683339946
494,1239848,1266200,0.965,0.021,0.177,-4.1,-11.6,0.4,-36,6.1,27.5,0.167638173,0.69676809,-0.140110477,0.683156835
495,1242861,1266200,0.969,-0.001,0.209,-3.8,-11.5,0.5,-36,6.1,27.5,0.167668691,0.696951201,-0.140202033,0.682973724
496,1244556,1266200,0.985,-0.002,0.196,-3.4,-12.2,0.6,-36,6.1,27.5,0.167668691,0.697103793,-0.140324107,0.682790613
497,1247418,1266200,0.927,0.006,0.171,-2.8,-13.6,0.7,-36,6.1,27.5,0.167668691,0.697286905,-0.140415662,0.682576983
498,1249605,1266210,0.969,0.017,0.115,-2.1,-15,0.8,-36,6.1,27.5,0.167638173,0.697500534,-0.140537736,0.682332835
499,1252631,1266210,0.954,0.017,0.154,-1.1,-15.7,0.7,-36,6.1,27.5,0.167577136,0.697744682,-0.140598773,0.682088687
500,1254428,1266210,0.926,0.01,0.136,-0.1,-15.3,0.5,-36,6.1,27.5,0.167546617,0.697958312,-0.140690329,0.681875057
501,1257888,1266210,0.907,0.029,0.113,0.7,-14.2,0.4,-35,4.8,27.6,0.16748558,0.698171941,-0.140720847,0.681661428
502,1259591,1266220,0.903,0.045,0.097,1.7,-12.9,0.2,-35,4.8,27.6,0.167394024,0.698385571,-0.140751366,0.681447798
503,1262141,1266220,0.903,0.045,0.077,2.4,-12,0.1,-35,4.8,27.6,0.167332987,0.698568682,-0.140751366,0.681295206
504,1265077,1266220,0.887,0.041,0.054,2.9,-12,0.1,-35,4.8,27.6,0.167210913,0.698751793,-0.140751366,0.681112094
505,1267270,1266220,0.891,0.033,0.046,2.9,-12.8,0.2,-35,4.8,27.6,0.167149876,0.698965423,-0.140781884,0.680928983
506,1269532,1266230,0.899,0.041,0.046,2.8,-14.1,0.4,-35,4.8,27.6,0.167058321,0.699179052,-0.140781884,0.680715354
507,1273256,1266230,0.903,0.045,0.03,2.6,-15.7,0.5,-35,4.8,27.6,0.166966765,0.6994232,-0.140812403,0.680501724
508,1274696,1266230,0.915,0.037,0.026,2.6,-15.7,0.5,-35,4.8,27.6,0.16687521,0.699667348,-0.140842921,0.680257576
509,1277817,1266230,0.942,0.045,0.014,2.5,-19.8,0.4,-37,7.2,27.4,0.166783654,0.699850459,-0.140842921,0.680074465
510,1279513,1266240,0.965,0.048,-0.006,2.5,-19.8,0.4,-37,7.2,27.4,0.166692099,0.700155644,-0.140903958,0.67976928
511,1282177,1266240,0.988,0.052,-0.026,2.4,-21.6,0.2,-37,7.2,27.4,0.166570025,0.700491348,-0.140934477,0.679464095
512,1285350,1266240,1.012,0.052,-0.046,2.4,-22.8,0.1,-37,7.2,27.4,0.166478469,0.700827052,-0.140995514,0.679097873
513,1287020,1266240,1.062,0.063,-0.119,2.4,-23.5,0,-37.2,7.4,27.7,0.166356395,0.701193274,-0.141026032,0.678762169
514,1289319,1266250,1.086,0.063,-0.151,2.3,-23.7,0,-37.2,7.4,27.7,0.166234321,0.701559496,-0.141087069,0.678395947
515,1292821,1266250,1.105,0.059,-0.187,2.4,-23.4,0,-37.2,7.4,27.7,0.166142766,0.701895199,-0.141148106,0.678060244
516,1294563,1266250,1.105,0.047,-0.237,2.3,-22.5,0,-37.2,7.4,27.7,0.166020692,0.702261422,-0.141178625,0.67772454
517,1297986,1266250,1.093,0.047,-0.261,2.2,-20.8,0.1,-37,7.1,27.2,0.165929136,0.702566607,-0.141239662,0.677388836
518,1299501,1266260,1.093,0.043,-0.288,1.9,-18.5,0.2,-37,7.1,27.2,0.16583758,0.702841273,-0.14127018,0.67711417
519,1302343,1266260,1.074,0.047,-0.303,1.7,-16,0.3,-37,7.1,27.2,0.165776543,0.703085421,-0.141300699,0.676870022
520,1305572,1266260,1.046,0.035,-0.337,1.5,-13.5,0.3,-37,7.1,27.2,0.165684988,0.703299051,-0.141331217,0.676686911
521,1307068,1266260,1.038,0.031,-0.349,1.3,-11.2,0.2,-34.2,5.8,27,0.165623951,0.703451643,-0.141361736,0.6765038
522,1310169,1266270,1.031,0.043,-0.357,1.2,-9.5,0.2,-34.2,5.8,27,0.165593432,0.703604236,-0.141392254,0.676381726
523,1312353,1266270,1.015,0.035,-0.352,1.2,-8.3,0.1,-34.2,5.8,27,0.165532395,0.70372631,-0.141392254,0.676259651
524,1314591,1266270,1.019,0.031,-0.348,1.3,-7.4,0.1,-34.2,5.8,27,0.165501877,0.703848384,-0.141392254,0.676137577
525,1316921,1266270,1.015,0.035,-0.348,1.5,-6.7,0,-36.4,6,27.1,0.16544084,0.70393994,-0.141422773,0.676046022
526,1319493,1266280,1.015,0.043,-0.336,1.5,-5.8,0,-36.4,6,27.1,0.165410321,0.704031495,-0.141422773,0.675954466
527,1322797,1266280,1.035,0.071,-0.278,1.6,-4.8,0,-36.4,6,27.1,0.165349284,0.704092532,-0.141392254,0.675893429
528,1324428,1266280,1.039,0.071,-0.251,1.8,-3.8,0,-36.4,6,27.1,0.165318766,0.704184088,-0.141392254,0.675832392
529,1326923,1266280,1.047,0.075,-0.224,1.8,-1.8,-0.1,-35.6,6,27.1,0.165257729,0.704428236,-0.141392254,0.675588244
530,1329927,1266290,1.054,0.087,-0.189,1.8,-1.8,-0.1,-35.6,6,27.1,0.16522721,0.704458754,-0.141361736,0.675557726
531,1333192,1266290,1.055,0.087,-0.142,1.5,-0.8,-0.1,-35.6,6,27.1,0.165196692,0.704489273,-0.141361736,0.675557726
532,1335297,1266290,1.051,0.079,-0.114,1.2,0.2,-0.1,-35.6,6,27.1,0.165166173,0.704489273,-0.141331217,0.675557726
533,1337541,1266290,1.051,0.079,-0.099,0.8,1.3,-0.1,-35,6.1,27.3,0.165166173,0.704458754,-0.141300699,0.675588244
534,1339800,1266300,1.02,0.079,-0.055,0.3,2.6,0,-35,6.1,27.3,0.165166173,0.704428236,-0.141300699,0.675618763
535,1342015,1266300,1.008,0.064,-0.027,-0.2,3.8,0.1,-35,6.1,27.3,0.165196692,0.704367199,-0.141300699,0.6756798
536,1344391,1266300,0.992,0.06,-0.007,-0.9,4.9,0.1,-35,6.1,27.3,0.16522721,0.704306162,-0.141300699,0.675771355
537,1346898,1266300,0.973,0.048,-0.002,-1.5,5.9,0.1,-34.6,5.9,27.4,0.165257729,0.704214606,-0.141300699,0.675862911
538,1350369,1266310,0.95,0.041,0.021,-2,6.6,0.1,-34.6,5.9,27.4,0.165318766,0.704092532,-0.141300699,0.675954466
539,1351938,1266310,0.938,0.033,0.025,-2.4,6.8,0,-34.6,5.9,27.4,0.165349284,0.703970458,-0.141300699,0.676046022
540,1354780,1266310,0.93,0.029,0.026,-2.6,6.6,0,-34.6,5.9,27.4,0.165410321,0.703878903,-0.141331217,0.676137577
541,1356995,1266310,0.926,0.017,0.045,-2.6,6.1,0,-35.2,5.8,27,0.165471358,0.703787347,-0.141331217,0.676229133
542,1359603,1266320,0.93,0.021,0.053,-2.5,5.3,0,-35.2,5.8,27,0.165532395,0.703695791,-0.141361736,0.67629017
543,1362508,1266320,0.934,0.017,0.057,-2.4,4.3,0.1,-35.2,5.8,27,0.165593432,0.703604236,-0.141392254,0.676351207
544,1364756,1266320,0.946,0.021,0.053,-2.1,3.3,0.2,-35.2,5.8,27,0.165623951,0.703573717,-0.141392254,0.676412244
545,1367018,1266320,0.969,0.021,0.06,-1.8,2.2,0.2,-35,5.5,27.3,0.165654469,0.70351268,-0.141422773,0.676442763
546,1369658,1266330,0.981,0.029,0.059,-1.3,1.3,0.2,-35,5.5,27.3,0.165684988,0.703482162,-0.141453291,0.676442763
547,1372992,1266330,0.985,0.029,0.063,-0.9,0.5,0.2,-35,5.5,27.3,0.165684988,0.703482162,-0.141453291,0.676473281
548,1374518,1266330,0.996,0.029,0.055,-0.5,0.1,0,-35,5.5,27.3,0.165715506,0.703482162,-0.14148381,0.676473281
549,1377006,1266330,0.992,0.033,0.047,0,-0.1,0.1,-35.5,5.6,27.2,0.165715506,0.703360088,-0.14148381,0.676564837
550,1380166,1266340,0.992,0.033,0.047,0,-0.1,0.1,-35.5,5.6,27.2,0.165715506,0.703390606,-0.14148381,0.676564837
551,1381946,1266340,0.977,0.041,0.044,0.3,-0.1,0.1,-35.5,5.6,27.2,0.165684988,0.703390606,-0.141453291,0.676564837
552,1384628,1266340,0.961,0.045,0.032,0.6,-0.1,0,-35.5,5.6,27.2,0.165684988,0.703390606,-0.141453291,0.676564837
553,1388035,1266340,0.954,0.045,0.025,0.8,-0.1,-0.1,-35.2,5.8,27.3,0.165684988,0.703390606,-0.141453291,0.676564837
554,1389527,1266350,0.95,0.045,0.021,0.9,-0.1,-0.1,-35.2,5.8,27.3,0.165654469,0.703390606,-0.141422773,0.676564837
555,1392092,1266350,0.95,0.049,0.013,0.9,-0.1,-0.1,-35.2,5.8,27.3,0.165654469,0.703390606,-0.141422773,0.676564837
556,1395496,1266350,0.957,0.045,0.009,0.8,-0.6,-0.1,-35.2,5.8,27.3,0.165623951,0.703421125,-0.141392254,0.676564837
557,1397031,1266350,0.965,0.045,0.005,0.7,-1.2,0,-35.3,5.4,27,0.165623951,0.703451643,-0.141392254,0.676534318
558,1399361,1266360,0.973,0.044,-0.006,0.7,-2,0,-35.3,5.4,27,0.165593432,0.703482162,-0.141392254,0.6765038
559,1402809,1266360,0.985,0.044,-0.018,0.6,-2.7,0,-35.3,5.4,27,0.165593432,0.70351268,-0.141392254,0.676473281
560,1404585,1266360,0.992,0.04,-0.026,0.5,-3.4,0,-35.3,5.4,27,0.165562914,0.703573717,-0.141392254,0.676412244
561,1406965,1266360,1,0.036,-0.038,0.4,-3.8,0,-36.4,6,27.2,0.165562914,0.703634754,-0.141392254,0.676351207
562,1410445,1266370,1.008,0.04,-0.058,0.4,-4,0,-36.4,6,27.2,0.165532395,0.703695791,-0.141422773,0.67629017
563,1412027,1266370,1.008,0.04,-0.07,0.4,-4,0,-36.4,6,27.2,0.165501877,0.703756829,-0.141422773,0.676229133
564,1414690,1266370,1.004,0.04,-0.07,0.4,-3.8,0.1,-36.4,6,27.2,0.165471358,0.703817866,-0.141422773,0.676168096
565,1417027,1266370,1.008,0.036,-0.07,0.4,-3.5,0.1,-33.6,5.6,27,0.165471358,0.703848384,-0.141453291,0.676137577
566,1420425,1266380,1,0.04,-0.077,0.4,-3.1,0.1,-33.6,5.6,27,0.16544084,0.703909421,-0.141453291,0.67607654
567,1421940,1266380,1,0.044,-0.085,0.4,-2.6,0.1,-33.6,5.6,27,0.16544084,0.70393994,-0.141453291,0.676046022
568,1424415,1266380,1.004,0.044,-0.085,0.3,-2.3,0.1,-33.6,5.6,27,0.165410321,0.703970458,-0.141453291,0.676015503
569,1427869,1266380,0.988,0.04,-0.085,0.2,-1.7,0,-33.4,5.9,27.1,0.165379803,0.704153569,-0.14148381,0.675832392
570,1429479,1266390,0.988,0.04,-0.097,0.2,-1.7,0,-33.4,5.9,27.1,0.165349284,0.704184088,-0.14148381,0.675801874
571,1432815,1266390,0.988,0.04,-0.093,0.2,-1.4,0,-33.4,5.9,27.1,0.165349284,0.704214606,-0.141514328,0.675771355
572,1434426,1266390,0.988,0.036,-0.089,0.2,-1.1,0,-33.4,5.9,27.1,0.165349284,0.704214606,-0.141514328,0.675771355
573,1437026,1266390,0.984,0.04,-0.085,0.2,-0.9,0,-33.5,5.8,26.9,0.165318766,0.704245125,-0.141514328,0.675740837
574,1440117,1266400,0.984,0.036,-0.085,0.2,-0.7,0,-33.5,5.8,26.9,0.165318766,0.704245125,-0.14148381,0.675740837
575,1442266,1266400,0.992,0.04,-0.081,0.3,-0.6,0,-33.5,5.8,26.9,0.165318766,0.704245125,-0.14148381,0.675740837
576,1445361,1266400,1,0.048,-0.07,0.4,-0.5,0,-33.5,5.8,26.9,0.165318766,0.704275643,-0.14148381,0.675740837
577,1446899,1266400,1.004,0.048,-0.066,0.4,-0.4,0,-33.6,5.7,26.9,0.165257729,0.704275643,-0.14148381,0.675710318
578,1450518,1266410,1.008,0.052,-0.054,0.4,-0.4,0,-33.6,5.7,26.9,0.165257729,0.704275643,-0.14148381,0.675710318
579,1452013,1266410,1.008,0.052,-0.054,0.2,-0.1,0.1,-33.6,5.7,26.9,0.165257729,0.704275643,-0.14148381,0.675710318
580,1454962,1266410,1.004,0.056,-0.038,0.2,0,0.1,-33.6,5.7,26.9,0.165257729,0.704275643,-0.14148381,0.675710318
581,1457890,1266410,1,0.044,-0.034,0.1,0.4,0.1,-35.5,5.7,27.1,0.165257729,0.704275643,-0.14148381,0.675710318
582,1459476,1266420,0.992,0.04,-0.038,0,0.7,0,-35.5,5.7,27.1,0.165257729,0.704275643,-0.14148381,0.675740837
583,1462571,1266420,0.973,0.044,-0.026,-0.1,1,0,-35.5,5.7,27.1,0.165257729,0.704245125,-0.14148381,0.675740837
584,1465521,1266420,0.973,0.04,-0.022,-0.3,1.3,0,-35.5,5.7,27.1,0.165257729,0.704245125,-0.14148381,0.675771355
585,1467030,1266420,0.965,0.037,-0.021,-0.4,1.5,0,-34.8,5.8,27.2,0.165318766,0.704214606,-0.14148381,0.675801874
586,1470176,1266430,0.961,0.033,-0.021,-0.4,1.6,0,-34.8,5.8,27.2,0.165318766,0.704184088,-0.14148381,0.675801874
587,1473014,1266430,0.965,0.033,-0.014,-0.5,1.5,0,-34.8,5.8,27.2,0.165318766,0.704153569,-0.14148381,0.675832392
588,1474467,1266430,0.969,0.029,-0.014,-0.5,1.2,0,-34.8,5.8,27.2,0.165349284,0.704092532,-0.14148381,0.675862911
589,1477518,1266430,0.981,0.036,-0.002,-0.4,0.1,0,-35.2,5.8,26.9,0.165349284,0.704092532,-0.141514328,0.675893429
590,1480375,1266440,0.985,0.032,-0.01,-0.4,0.1,0,-35.2,5.8,26.9,0.165349284,0.704092532,-0.141514328,0.675923948
591,1481929,1266440,0.996,0.036,-0.007,-0.4,-0.3,0,-35.2,5.8,26.9,0.165349284,0.704092532,-0.141514328,0.675893429
592,1485060,1266440,0.989,0.036,-0.003,-0.3,-0.5,0,-35.2,5.8,26.9,0.165349284,0.704092532,-0.141544847,0.675893429
593,1487880,1266440,0.992,0.036,-0.003,-0.1,-0.6,0,-34.5,6.3,26.7,0.165349284,0.704092532,-0.141544847,0.675893429
594,1489500,1266450,0.992,0.04,-0.007,0.1,-0.4,0,-34.5,6.3,26.7,0.165349284,0.704092532,-0.141544847,0.675862911
595,1491991,1266450,0.988,0.04,-0.01,0.2,-0.1,0,-34.5,6.3,26.7,0.165349284,0.704092532,-0.141544847,0.675862911
596,1495368,1266450,0.985,0.044,-0.006,0.2,0.1,0,-34.5,6.3,26.7,0.165349284,0.704092532,-0.141544847,0.675893429
597,1496991,1266450,0.981,0.04,-0.014,0.1,0.2,0,-34.9,6,27.1,0.165349284,0.704092532,-0.141514328,0.675893429
598,1499489,1266460,0.981,0.044,-0.01,0.2,0.2,0,-34.9,6,27.1,0.165349284,0.704092532,-0.141514328,0.675893429
599,1502863,1266460,0.973,0.044,-0.018,0.2,0.1,0,-34.9,6,27.1,0.165318766,0.704092532,-0.141514328,0.675893429
600,1504363,1266460,0.977,0.044,-0.022,0.2,0,0,-34.9,6,27.1,0.165318766,0.704092532,-0.141514328,0.675893429
601,1507736,1266460,0.977,0.04,-0.026,0.2,0,0,-35,5.9,26.9,0.165318766,0.704092532,-0.141514328,0.675893429
602,1509355,1266470,0.973,0.04,-0.026,0.1,-0.1,0,-35,5.9,26.9,0.165318766,0.704092532,-0.141514328,0.675893429
603,1512989,1266470,0.981,0.036,-0.026,0.1,-0.2,0,-35,5.9,26.9,0.165318766,0.704092532,-0.141514328,0.675893429
604,1514507,1266470,0.981,0.036,-0.038,0,-0.4,0,-35,5.9,26.9,0.165318766,0.704092532,-0.141514328,0.675893429
605,1517621,1266470,0.985,0.04,-0.038,0,-0.7,0.1,-35.2,6.2,27.5,0.165318766,0.704092532,-0.141514328,0.675862911
606,1519382,1266480,0.988,0.04,-0.038,0,-1,0.1,-35.2,6.2,27.5,0.165257729,0.704153569,-0.141514328,0.675862911
607,1522885,1266480,0.996,0.036,-0.03,0.1,-1.3,0,-35.2,6.2,27.5,0.165257729,0.704153569,-0.141514328,0.675832392
608,1524555,1266480,1.004,0.044,-0.042,0.1,-1.4,0,-35.2,6.2,27.5,0.165257729,0.704184088,-0.141514328,0.675801874
609,1527381,1266480,1.004,0.044,-0.034,0.1,-1.1,0,-34.7,6.2,27.7,0.165257729,0.704245125,-0.141544847,0.675771355
610,1529612,1266490,1.004,0.044,-0.034,0.1,-1.1,0,-34.7,6.2,27.7,0.165257729,0.704245125,-0.141544847,0.675740837
611,1532629,1266490,0.992,0.044,-0.038,0,-0.7,0,-34.7,6.2,27.7,0.165257729,0.704275643,-0.141544847,0.675740837
612,1534283,1266490,0.988,0.04,-0.034,0,-0.3,0,-34.7,6.2,27.7,0.165257729,0.704275643,-0.141544847,0.675740837
613,1537454,1266490,0.981,0.04,-0.034,0,0,-0.1,-35,6.2,28.3,0.165257729,0.704275643,-0.141544847,0.675740837
614,1540531,1266500,0.977,0.044,-0.041,0,0.2,-0.1,-35,6.2,28.3,0.165257729,0.704275643,-0.141544847,0.675740837
615,1542114,1266500,0.973,0.033,-0.037,0.1,0.3,0,-35,6.2,28.3,0.165257729,0.704245125,-0.141544847,0.675740837
616,1545303,1266500,0.973,0.044,-0.037,0.1,0.3,0,-35,6.2,28.3,0.165257729,0.704245125,-0.141514328,0.675740837
617,1547348,1266500,0.969,0.037,-0.037,0.1,0.2,0,-35.1,6.1,29.1,0.165257729,0.704245125,-0.141514328,0.675740837
618,1549584,1266510,0.977,0.036,-0.037,0.1,0.1,0,-35.1,6.1,29.1,0.165257729,0.704245125,-0.141514328,0.675740837
619,1552794,1266510,0.981,0.036,-0.034,0,-0.1,0,-35.1,6.1,29.1,0.165257729,0.704245125,-0.141514328,0.675740837
620,1554382,1266510,0.988,0.036,-0.042,0,-0.3,0,-35.1,6.1,29.1,0.165257729,0.704245125,-0.141514328,0.675740837
621,1558032,1266510,0.992,0.044,-0.038,0,-0.5,0,-35.2,6,25.2,0.165257729,0.704275643,-0.141514328,0.675740837
622,1559576,1266520,1,0.04,-0.038,0,-0.6,0,-35.2,6,25.2,0.165257729,0.704275643,-0.141514328,0.675740837
623,1562671,1266520,1.004,0.048,-0.038,0.1,-0.6,0,-35.2,6,25.2,0.165257729,0.704275643,-0.141514328,0.675710318
624,1564778,1266520,1,0.044,-0.034,0.1,-0.6,0,-35.2,6,25.2,0.16522721,0.704306162,-0.141544847,0.675710318
625,1567922,1266520,0.996,0.044,-0.03,0.1,-0.6,0,-35,5.7,27.6,0.16522721,0.704306162,-0.141544847,0.675710318
626,1569416,1266530,0.992,0.044,-0.026,0.1,-0.3,0,-35,5.7,27.6,0.16522721,0.704306162,-0.141544847,0.6756798
627,1572968,1266530,0.988,0.044,-0.026,0,0,0,-35,5.7,27.6,0.16522721,0.704306162,-0.141514328,0.6756798
628,1574554,1266530,0.981,0.04,-0.026,0,0.2,0,-35,5.7,27.6,0.16522721,0.704306162,-0.141544847,0.675710318
629,1577597,1266530,0.973,0.036,-0.026,-0.1,0.5,0,-35.3,6,27.4,0.165257729,0.704275643,-0.141514328,0.675710318
630,1579434,1266540,0.973,0.037,-0.022,-0.1,0.5,0,-35.3,6,27.4,0.165257729,0.704275643,-0.141514328,0.675740837
631,1583020,1266540,0.969,0.037,-0.025,-0.1,0.5,0,-35.3,6,27.4,0.165257729,0.704275643,-0.141514328,0.675740837
632,1584510,1266540,0.973,0.04,-0.026,-0.1,0.2,0,-35.3,6,27.4,0.165257729,0.704245125,-0.141514328,0.675740837
633,1586893,1266540,0.985,0.04,-0.026,-0.1,0,0,-35.4,5.7,27.1,0.165257729,0.704245125,-0.141514328,0.675740837
634,1590371,1266550,0.988,0.04,-0.03,-0.1,-0.2,0,-35.4,5.7,27.1,0.165257729,0.704275643,-0.141514328,0.675740837
635,1591907,1266550,0.988,0.036,-0.026,0,-0.4,0,-35.4,5.7,27.1,0.165257729,0.704275643,-0.141514328,0.675740837
636,1595065,1266550,0.992,0.04,-0.03,0.1,-0.5,0,-35.4,5.7,27.1,0.165257729,0.704275643,-0.141514328,0.675710318
637,1597149,1266550,0.996,0.04,-0.022,0.1,-0.4,0,-35.3,5.9,26.5,0.165257729,0.704275643,-0.141514328,0.675710318
638,1600306,1266560,0.996,0.044,-0.026,0.1,-0.4,0,-35.3,5.9,26.5,0.165257729,0.704306162,-0.141514328,0.675710318
639,1602017,1266560,0.996,0.04,-0.022,0.1,-0.3,0,-35.3,5.9,26.5,0.165257729,0.704306162,-0.141514328,0.675710318
640,1605586,1266560,0.992,0.04,-0.026,0.1,-0.2,0,-35.3,5.9,26.5,0.165257729,0.704306162,-0.141514328,0.675710318
641,1607918,1266560,0.985,0.044,-0.026,0,0,0,-35,6.1,26.2,0.165257729,0.704306162,-0.141514328,0.675710318
642,1609960,1266570,0.981,0.044,-0.018,0,0.1,0,-35,6.1,26.2,0.165257729,0.704306162,-0.141514328,0.675710318
643,1612214,1266570,0.981,0.044,-0.026,-0.1,0.2,0.1,-35,6.1,26.2,0.165257729,0.704306162,-0.141514328,0.675710318
644,1615416,1266570,0.973,0.044,-0.026,-0.1,0.2,0,-35,6.1,26.2,0.165257729,0.704275643,-0.141544847,0.675710318
645,1616840,1266570,0.977,0.044,-0.026,0,0.1,0,-34.8,5.3,26.7,0.165257729,0.704275643,-0.141544847,0.675710318
646,1619331,1266580,0.977,0.04,-0.03,0,0,-0.1,-34.8,5.3,26.7,0.165257729,0.704275643,-0.141544847,0.675710318
647,1622261,1266580,0.981,0.04,-0.03,0,-0.1,-0.1,-34.8,5.3,26.7,0.165257729,0.704275643,-0.141544847,0.675710318
648,1625229,1266580,0.981,0.036,-0.034,0,-0.2,0,-34.8,5.3,26.7,0.165257729,0.704275643,-0.141544847,0.675710318
649,1626924,1266580,0.988,0.04,-0.034,0,-0.4,0,-35.2,5.7,26.2,0.165257729,0.704306162,-0.141544847,0.675710318
650,1630152,1266590,0.992,0.04,-0.034,0,-0.4,0,-35.2,5.7,26.2,0.165257729,0.704306162,-0.141544847,0.675710318
651,1632415,1266590,0.992,0.044,-0.03,0,-0.6,0,-35.2,5.7,26.2,0.165257729,0.704306162,-0.141544847,0.6756798
652,1634661,1266590,0.996,0.044,-0.03,0,-0.6,0,-35.2,5.7,26.2,0.165257729,0.70433668,-0.141544847,0.6756798
653,1637929,1266590,0.996,0.044,-0.034,0,-0.5,0,-35.4,5.7,26.4,0.165257729,0.70433668,-0.141544847,0.6756798
654,1640056,1266600,0.992,0.04,-0.034,0,-0.3,0,-35.4,5.7,26.4,0.165257729,0.70433668,-0.141544847,0.675649281
655,1642143,1266600,0.992,0.04,-0.034,0.1,-0.2,0,-35.4,5.7,26.4,0.165257729,0.70433668,-0.141544847,0.675649281
656,1645377,1266600,0.988,0.044,-0.03,0.1,-0.1,0,-35.4,5.7,26.4,0.16522721,0.70433668,-0.141544847,0.675649281
657,1646797,1266600,0.985,0.04,-0.022,0.1,0,0,-34.9,5.5,26.4,0.16522721,0.70433668,-0.141544847,0.675649281
658,1650027,1266610,0.977,0.04,-0.03,0.1,0.2,0,-34.9,5.5,26.4,0.16522721,0.70433668,-0.141544847,0.675649281
659,1652224,1266610,0.981,0.04,-0.026,0,0.3,0,-34.9,5.5,26.4,0.16522721,0.70433668,-0.141544847,0.6756798
660,1654354,1266610,0.977,0.036,-0.03,0,0.4,0,-34.9,5.5,26.4,0.16522721,0.70433668,-0.141544847,0.6756798
661,1658022,1266610,0.977,0.036,-0.03,0,0.4,0,-35.5,5.8,27.6,0.16522721,0.704306162,-0.141544847,0.6756798
662,1659564,1266620,0.981,0.036,-0.026,-0.1,0.2,0,-35.5,5.8,27.6,0.16522721,0.704306162,-0.141544847,0.6756798
663,1661920,1266620,0.985,0.036,-0.03,0,0,0,-35.5,5.8,27.6,0.16522721,0.704306162,-0.141544847,0.6756798
664,1664447,1266620,0.985,0.04,-0.03,0,-0.3,0.1,-35.5,5.8,27.6,0.16522721,0.704306162,-0.141544847,0.6756798
665,1667963,1266620,0.988,0.04,-0.03,0.1,-0.4,0,-34.7,5.4,26.5,0.16522721,0.70433668,-0.141544847,0.6756798
666,1670336,1266630,0.985,0.04,-0.034,0.1,-0.4,0,-34.7,5.4,26.5,0.16522721,0.70433668,-0.141544847,0.6756798
667,1672358,1266630,0.992,0.048,-0.034,0.1,-0.4,0,-34.7,5.4,26.5,0.16522721,0.70433668,-0.141544847,0.675649281
668,1674621,1266630,0.988,0.044,-0.03,0.1,-0.4,0,-34.7,5.4,26.5,0.16522721,0.70433668,-0.141544847,0.675649281
669,1678011,1266630,0.988,0.04,-0.038,0,-0.2,0,-34.9,4.9,26.2,0.16522721,0.704367199,-0.141514328,0.675649281
670,1679514,1266640,0.988,0.04,-0.038,0,-0.2,0,-34.9,4.9,26.2,0.16522721,0.704367199,-0.141514328,0.675649281
671,1681952,1266640,0.988,0.04,-0.034,0,-0.1,0,-34.9,4.9,26.2,0.16522721,0.704367199,-0.141514328,0.675618763
672,1685529,1266640,0.985,0.044,-0.034,0,-0.1,0,-34.9,4.9,26.2,0.16522721,0.704367199,-0.141514328,0.675618763
673,1687683,1266640,0.985,0.04,-0.026,0,-0.1,0,-35.1,4.3,26.2,0.16522721,0.704367199,-0.141514328,0.675618763
674,1689936,1266650,0.985,0.04,-0.026,0,0,0,-35.1,4.3,26.2,0.16522721,0.704367199,-0.141514328,0.675618763
675,1692126,1266650,0.985,0.04,-0.026,0,0,0,-35.1,4.3,26.2,0.16522721,0.704367199,-0.141514328,0.675618763
676,1694489,1266650,0.981,0.044,-0.03,-0.1,0.1,0,-35.1,4.3,26.2,0.16522721,0.704367199,-0.141514328,0.675618763
677,1697027,1266650,0.985,0.04,-0.026,0,0,0,-35.1,3.7,26,0.16522721,0.704367199,-0.141514328,0.675618763
678,1700519,1266660,0.985,0.04,-0.026,0,0,0,-35.1,3.7,26,0.16522721,0.704367199,-0.141514328,0.675618763
679,1702798,1266660,0.981,0.036,-0.026,0.1,-0.2,0,-35.1,3.7,26,0.16522721,0.704367199,-0.141514328,0.675618763
680,1704938,1266660,0.981,0.036,-0.03,0.1,-0.3,0,-35.1,3.7,26,0.16522721,0.704397717,-0.141514328,0.675618763
681,1707176,1266660,0.985,0.036,-0.03,0,-0.3,0,-35.2,7.5,28.2,0.16522721,0.704397717,-0.141514328,0.675618763
682,1709543,1266670,0.985,0.044,-0.026,0.1,-0.3,0,-35.2,7.5,28.2,0.16522721,0.704397717,-0.141514328,0.675618763
683,1711873,1266670,0.988,0.04,-0.026,0.1,-0.2,0,-35.2,7.5,28.2,0.16522721,0.704397717,-0.141514328,0.675618763
684,1714585,1266670,0.985,0.044,-0.026,0,-0.1,0,-35.2,7.5,28.2,0.16522721,0.704397717,-0.141514328,0.675618763
685,1718054,1266670,0.988,0.04,-0.034,0,0,0,-35,4.6,26,0.16522721,0.704397717,-0.141514328,0.675618763
686,1720328,1266680,0.988,0.044,-0.03,0,0,0,-35,4.6,26,0.16522721,0.704397717,-0.141514328,0.675618763
687,1722638,1266680,0.988,0.04,-0.03,0,0,0,-35,4.6,26,0.16522721,0.704397717,-0.141544847,0.675618763
688,1724821,1266680,0.988,0.04,-0.034,0,0,0,-35,4.6,26,0.16522721,0.704397717,-0.141514328,0.675618763
689,1727102,1266680,0.985,0.044,-0.034,0,-0.2,-0.1,-35.4,4.8,25.7,0.16522721,0.704397717,-0.141514328,0.675588244
690,1729420,1266690,0.985,0.044,-0.026,0,-0.2,-0.1,-35.4,4.8,25.7,0.16522721,0.704428236,-0.141514328,0.675588244
691,1732068,1266690,0.981,0.044,-0.026,0,-0.3,-0.1,-35.4,4.8,25.7,0.16522721,0.704428236,-0.141514328,0.675588244
692,1734402,1266690,0.985,0.036,-0.034,0,-0.2,-0.1,-35.4,4.8,25.7,0.16522721,0.704428236,-0.141514328,0.675588244
693,1738361,1266690,0.988,0.04,-0.03,0,-0.1,0,-35.1,5.1,26.1,0.16522721,0.704428236,-0.141514328,0.675588244
694,1740566,1266700,0.988,0.04,-0.026,0,0,-0.1,-35.1,5.1,26.1,0.16522721,0.704428236,-0.141514328,0.675588244
695,1742941,1266700,0.985,0.04,-0.03,0,0,-0.1,-35.1,5.1,26.1,0.16522721,0.704428236,-0.141514328,0.675588244
696,1745128,1266700,0.988,0.04,-0.03,0.1,0,-0.1,-35.1,5.1,26.1,0.16522721,0.704428236,-0.141514328,0.675588244
697,1747287,1266700,0.988,0.044,-0.03,0,0,0,-35,5.7,25.7,0.16522721,0.704428236,-0.141514328,0.675588244
698,1749508,1266710,0.988,0.048,-0.03,0,0,0,-35,5.7,25.7,0.16522721,0.704428236,-0.141514328,0.675588244
699,1752789,1266710,0.988,0.04,-0.03,0,-0.1,0,-35,5.7,25.7,0.16522721,0.704428236,-0.141514328,0.675588244
700,1754563,1266710,0.988,0.04,-0.026,0,-0.1,0,-35,5.7,25.7,0.16522721,0.704428236,-0.141514328,0.675557726
701,1756990,1266710,0.988,0.044,-0.03,0,-0.1,0,-35.2,6.5,27.1,0.16522721,0.704428236,-0.141514328,0.675557726
702,1760435,1266720,0.985,0.04,-0.034,0,-0.1,0,-35.2,6.5,27.1,0.16522721,0.704428236,-0.141514328,0.675557726
703,1762812,1266720,0.988,0.04,-0.034,0,-0.1,0,-35.2,6.5,27.1,0.16522721,0.704428236,-0.141514328,0.675557726
704,1764880,1266720,0.985,0.04,-0.026,0,-0.2,0,-35.2,6.5,27.1,0.16522721,0.704458754,-0.141514328,0.675557726
705,1767140,1266720,0.985,0.04,-0.03,0,-0.3,0,-35.3,6,27,0.16522721,0.704458754,-0.141514328,0.675557726
706,1769393,1266730,0.985,0.044,-0.026,0,-0.3,0,-35.3,6,27,0.16522721,0.704458754,-0.141514328,0.675557726
707,1772089,1266730,0.985,0.044,-0.03,0,-0.3,0,-35.3,6,27,0.16522721,0.704458754,-0.141514328,0.675557726
708,1774309,1266730,0.985,0.04,-0.026,0,-0.3,0,-35.3,6,27,0.16522721,0.704458754,-0.141514328,0.675527207
709,1777698,1266730,0.985,0.04,-0.03,0,-0.1,0,-35.5,6.3,26.8,0.165257729,0.704428236,-0.14148381,0.675557726
710,1779481,1266740,0.981,0.04,-0.03,0,-0.1,0,-35.5,6.3,26.8,0.165257729,0.704428236,-0.14148381,0.675557726
711,1782843,1266740,0.985,0.036,-0.03,0,0,0,-35.5,6.3,26.8,0.165257729,0.704428236,-0.14148381,0.675557726
712,1784322,1266740,0.985,0.048,-0.03,0,0,0,-35.5,6.3,26.8,0.165257729,0.704428236,-0.14148381,0.675557726
713,1787146,1266740,0.985,0.036,-0.03,0,-0.1,0,-35.2,6.5,26.7,0.165257729,0.704428236,-0.14148381,0.675557726
714,1790217,1266750,0.988,0.04,-0.034,0,-0.2,0,-35.2,6.5,26.7,0.165257729,0.704458754,-0.14148381,0.675557726
715,1791912,1266750,0.988,0.04,-0.034,0,-0.3,0,-35.2,6.5,26.7,0.165257729,0.704458754,-0.14148381,0.675557726
716,1795402,1266750,0.988,0.044,-0.026,0,-0.3,0,-35.2,6.5,26.7,0.165257729,0.704458754,-0.141514328,0.675557726
717,1796911,1266750,0.988,0.036,-0.026,0,-0.2,0,-35.2,6.6,26.9,0.165257729,0.704458754,-0.141514328,0.675557726
718,1799700,1266760,0.985,0.044,-0.026,0,-0.1,0,-35.2,6.6,26.9,0.165257729,0.704458754,-0.141514328,0.675527207
719,1802739,1266760,0.988,0.036,-0.03,0,0,0,-35.2,6.6,26.9,0.165257729,0.704458754,-0.141514328,0.675527207
720,1804562,1266760,0.985,0.04,-0.022,0,0.1,0,-35.2,6.6,26.9,0.16522721,0.704458754,-0.141514328,0.675557726
721,1807284,1266760,0.988,0.044,-0.026,0,0.1,0.1,-35.1,5.4,27.2,0.16522721,0.704458754,-0.141514328,0.675557726
722,1809415,1266770,0.985,0.04,-0.03,0,0.1,0,-35.1,5.4,27.2,0.16522721,0.704458754,-0.141514328,0.675557726
723,1812689,1266770,0.981,0.04,-0.03,0,0.1,0,-35.1,5.4,27.2,0.16522721,0.704458754,-0.141514328,0.675557726
724,1814712,1266770,0.981,0.04,-0.034,0,0.1,0,-35.1,5.4,27.2,0.16522721,0.704458754,-0.141514328,0.675557726
725,1817076,1266770,0.981,0.044,-0.026,0,0,0,-35.5,6.6,27,0.16522721,0.704458754,-0.141514328,0.675557726
726,1819735,1266780,0.988,0.036,-0.034,0,0,0,-35.5,6.6,27,0.16522721,0.704458754,-0.141514328,0.675557726
727,1821904,1266780,0.985,0.036,-0.03,0,0,0,-35.5,6.6,27,0.16522721,0.704458754,-0.141514328,0.675557726
728,1826007,1266780,0.985,0.04,-0.026,0.1,-0.1,0,-35.5,6.6,27,0.16522721,0.704458754,-0.141514328,0.675557726
729,1828271,1266780,0.988,0.036,-0.034,0,-0.1,0.2,-35.8,6.7,27.2,0.16522721,0.704428236,-0.141514328,0.675588244
730,1830584,1266790,0.988,0.036,-0.034,0,-0.1,0.2,-35.8,6.7,27.2,0.16522721,0.704428236,-0.141514328,0.675588244
731,1832850,1266790,0.992,0.04,-0.03,0,-0.1,0.1,-35.8,6.7,27.2,0.16522721,0.704428236,-0.141514328,0.675588244
732,1835047,1266790,0.988,0.044,-0.03,0.1,-0.1,0.1,-35.8,6.7,27.2,0.16522721,0.704428236,-0.141514328,0.675588244
733,1837191,1266790,0.988,0.04,-0.03,0.1,-0.2,0,-36.6,6.6,27,0.16522721,0.704428236,-0.141514328,0.675588244
734,1839514,1266800,0.988,0.04,-0.03,0.1,-0.2,0,-36.6,6.6,27,0.165196692,0.704428236,-0.141514328,0.675557726
735,1842168,1266800,0.985,0.044,-0.03,0,-0.1,0,-36.6,6.6,27,0.165196692,0.704428236,-0.141514328,0.675557726
736,1844375,1266800,0.985,0.044,-0.03,0,0,0,-36.6,6.6,27,0.165196692,0.704428236,-0.141514328,0.675557726
737,1847869,1266800,0.988,0.04,-0.03,0,0,0,-37.2,6.9,26.7,0.165196692,0.704428236,-0.141514328,0.675557726
738,1850047,1266810,0.985,0.04,-0.03,0,0.1,0,-37.2,6.9,26.7,0.16522721,0.704428236,-0.141514328,0.675557726
739,1852261,1266810,0.985,0.04,-0.03,0,0,0,-37.2,6.9,26.7,0.16522721,0.704428236,-0.141514328,0.675557726
740,1854457,1266810,0.985,0.044,-0.026,0,0,0,-37.2,6.9,26.7,0.16522721,0.704428236,-0.141514328,0.675588244
741,1857014,1266810,0.981,0.036,-0.026,-0.1,0,0,-34.3,4.7,27.2,0.16522721,0.704428236,-0.141514328,0.675557726
742,1860517,1266820,0.981,0.04,-0.03,-0.1,0,0,-34.3,4.7,27.2,0.16522721,0.704428236,-0.141544847,0.675557726
743,1861920,1266820,0.985,0.036,-0.03,-0.1,-0.2,0,-34.3,4.7,27.2,0.16522721,0.704428236,-0.141544847,0.675557726
744,1864647,1266820,0.988,0.036,-0.026,-0.1,-0.3,0,-34.3,4.7,27.2,0.16522721,0.704428236,-0.141544847,0.675557726
745,1868004,1266820,0.988,0.044,-0.022,0,-0.3,0,-36.6,7.4,26.9,0.16522721,0.704428236,-0.141544847,0.675557726
746,1870303,1266830,0.988,0.04,-0.03,0,-0.1,0,-36.6,7.4,26.9,0.16522721,0.704458754,-0.141544847,0.675557726
747,1872632,1266830,0.988,0.044,-0.026,0,-0.1,0.1,-36.6,7.4,26.9,0.16522721,0.704458754,-0.141544847,0.675557726
748,1874680,1266830,0.988,0.04,-0.022,0,0,0.1,-36.6,7.4,26.9,0.16522721,0.704458754,-0.141544847,0.675557726
749,1876983,1266830,0.981,0.044,-0.03,0,0,0,-36.7,7,27.1,0.165257729,0.704397717,-0.141514328,0.675618763
750,1879498,1266840,0.985,0.04,-0.03,-0.1,0,0,-36.7,7,27.1,0.165257729,0.704397717,-0.141514328,0.675618763
751,1882936,1266840,0.981,0.04,-0.03,0,0,0,-36.7,7,27.1,0.165257729,0.704397717,-0.141514328,0.675618763
752,1884419,1266840,0.981,0.044,-0.034,0,0,0,-36.7,7,27.1,0.165257729,0.704397717,-0.141514328,0.675618763
753,1887521,1266840,0.985,0.04,-0.034,0,0,0,-36,7.1,27,0.165257729,0.704397717,-0.141514328,0.675618763
754,1889648,1266850,0.985,0.036,-0.034,0,0,-0.1,-36,7.1,27,0.165257729,0.704397717,-0.141514328,0.675618763
755,1892703,1266850,0.985,0.04,-0.038,0,-0.1,0,-36,7.1,27,0.165257729,0.704397717,-0.141514328,0.675618763
756,1894485,1266850,0.985,0.036,-0.03,0,-0.2,0,-36,7.1,27,0.165257729,0.704397717,-0.141514328,0.675618763
757,1898027,1266850,0.981,0.04,-0.026,0,-0.1,0,-35.7,6.8,27,0.165257729,0.704397717,-0.141514328,0.675588244
758,1899438,1266860,0.988,0.04,-0.026,0,-0.1,0,-35.7,6.8,27,0.165257729,0.704397717,-0.141514328,0.675588244
759,1903247,1266860,0.988,0.036,-0.026,0,-0.1,0,-35.7,6.8,27,0.165257729,0.704397717,-0.141514328,0.675588244
760,1904734,1266860,0.988,0.04,-0.026,0,-0.2,0,-35.7,6.8,27,0.165257729,0.704397717,-0.141514328,0.675588244
761,1906983,1266860,0.988,0.044,-0.026,0.1,-0.3,0,-34.9,6,26.7,0.165257729,0.704397717,-0.141514328,0.675588244
762,1910764,1266870,0.985,0.04,-0.03,0.1,-0.3,0,-34.9,6,26.7,0.165257729,0.704428236,-0.141514328,0.675588244
763,1912229,1266870,0.988,0.044,-0.034,0.1,-0.2,0,-34.9,6,26.7,0.165257729,0.704428236,-0.141514328,0.675588244
764,1915384,1266870,0.985,0.04,-0.034,0.1,-0.1,0,-34.9,6,26.7,0.165257729,0.704428236,-0.141514328,0.675588244
765,1917458,1266870,0.985,0.04,-0.034,0.1,-0.1,0,-35.6,5.6,27,0.165257729,0.704428236,-0.141514328,0.675588244
766,1919678,1266880,0.988,0.04,-0.03,0.1,-0.2,0,-35.6,5.6,27,0.16522721,0.704428236,-0.141514328,0.675557726
767,1921955,1266880,0.988,0.036,-0.03,0,-0.3,-0.1,-35.6,5.6,27,0.16522721,0.704428236,-0.141514328,0.675557726
768,1924545,1266880,0.988,0.04,-0.03,0,-0.2,0,-35.6,5.6,27,0.165257729,0.704428236,-0.141514328,0.675557726
769,1927971,1266880,0.988,0.044,-0.03,0,-0.1,0,-35,6,27.1,0.16522721,0.704428236,-0.141544847,0.675557726
770,1929478,1266890,0.988,0.044,-0.034,0,0,0.1,-35,6,27.1,0.16522721,0.704428236,-0.141544847,0.675557726
771,1932345,1266890,0.985,0.04,-0.034,0,0,0.2,-35,6,27.1,0.16522721,0.704428236,-0.141544847,0.675557726
772,1935450,1266890,0.985,0.036,-0.034,0,0.1,0.1,-35,6,27.1,0.16522721,0.704428236,-0.141544847,0.675557726
773,1936863,1266890,0.985,0.04,-0.03,0,0,0,-34.8,5.7,27,0.16522721,0.704428236,-0.141544847,0.675557726
774,1939930,1266900,0.985,0.044,-0.03,0,-0.1,0,-34.8,5.7,27,0.16522721,0.704428236,-0.141544847,0.675557726
775,1942188,1266900,0.981,0.044,-0.026,0,-0.1,0,-34.8,5.7,27,0.16522721,0.704428236,-0.141544847,0.675557726
776,1944435,1266900,0.985,0.044,-0.026,0,-0.1,-0.1,-34.8,5.7,27,0.16522721,0.704428236,-0.141544847,0.675557726
777,1946958,1266900,0.985,0.04,-0.03,0,0,-0.1,-35.2,5.9,27.3,0.16522721,0.704428236,-0.141544847,0.675557726
778,1950348,1266910,0.985,0.036,-0.026,0,0,-0.1,-35.2,5.9,27.3,0.16522721,0.704428236,-0.141544847,0.675557726
779,1951922,1266910,0.985,0.04,-0.03,0,0,-0.1,-35.2,5.9,27.3,0.16522721,0.704428236,-0.141544847,0.675557726
780,1954922,1266910,0.981,0.044,-0.026,0,0,0,-35.2,5.9,27.3,0.16522721,0.704428236,-0.141544847,0.675557726
781,1957256,1266910,0.985,0.044,-0.026,0,0,0,-35.9,5.7,26.9,0.16522721,0.704428236,-0.141544847,0.675557726
782,1960251,1266920,0.985,0.04,-0.038,0,-0.1,0,-35.9,5.7,26.9,0.16522721,0.704428236,-0.141544847,0.675557726
783,1961799,1266920,0.985,0.04,-0.03,0,-0.2,0,-35.9,5.7,26.9,0.16522721,0.704458754,-0.141544847,0.675557726
784,1964501,1266920,0.988,0.036,-0.038,0,-0.1,0,-35.9,5.7,26.9,0.16522721,0.704458754,-0.141544847,0.675557726
785,1967753,1266920,0.988,0.04,-0.03,0,-0.1,0,-34.4,6,27,0.16522721,0.704458754,-0.141544847,0.675557726
786,1969790,1266930,0.985,0.04,-0.034,0,-0.2,-0.1,-34.4,6,27,0.16522721,0.704458754,-0.141544847,0.675557726
787,1972071,1266930,0.988,0.04,-0.026,0,-0.3,-0.2,-34.4,6,27,0.16522721,0.704458754,-0.141544847,0.675527207
788,1974702,1266930,0.988,0.04,-0.03,0,-0.2,-0.2,-34.4,6,27,0.16522721,0.704458754,-0.141514328,0.675527207
789,1977065,1266930,0.985,0.044,-0.03,0,-0.1,-0.1,-34.5,5.7,26.9,0.16522721,0.704458754,-0.141514328,0.675557726
790,1979313,1266940,0.985,0.044,-0.03,0.1,0,0,-34.5,5.7,26.9,0.16522721,0.704458754,-0.141514328,0.675557726
791,1983226,1266940,0.985,0.044,-0.034,0.1,0,0,-34.5,5.7,26.9,0.16522721,0.704458754,-0.141514328,0.675557726
792,1984817,1266940,0.988,0.04,-0.03,0,0,-0.1,-34.5,5.7,26.9,0.16522721,0.704458754,-0.141514328,0.675557726
793,1987089,1266940,0.988,0.04,-0.03,0,0,-0.1,-34.4,6.1,27.1,0.16522721,0.704458754,-0.141514328,0.675557726
794,1989572,1266950,0.988,0.04,-0.026,0,0.1,0,-34.4,6.1,27.1,0.16522721,0.704458754,-0.141514328,0.675557726
795,1991842,1266950,0.985,0.04,-0.026,0,0.1,0,-34.4,6.1,27.1,0.16522721,0.704458754,-0.141514328,0.675557726
796,1996092,1266950,0.985,0.04,-0.034,0,0,0,-34.4,6.1,27.1,0.16522721,0.704458754,-0.141514328,0.675557726
797,1997887,1266950,0.981,0.044,-0.03,0,0,0,-34.6,5.7,26.7,0.16522721,0.704458754,-0.141514328,0.675557726
798,2000123,1266960,0.985,0.044,-0.03,0,0,0,-34.6,5.7,26.7,0.16522721,0.704458754,-0.141514328,0.675557726
799,2002344,1266960,0.985,0.044,-0.03,0,0,0,-34.6,5.7,26.7,0.16522721,0.704458754,-0.141514328,0.675557726
800,2004624,1266960,0.988,0.036,-0.03,0,0.1,0,-34.6,5.7,26.7,0.16522721,0.704458754,-0.141514328,0.675557726
801,2007190,1266960,0.988,0.04,-0.026,0.1,0,0,-36.5,6,27,0.16522721,0.704458754,-0.141514328,0.675557726
802,2010442,1266970,0.985,0.04,-0.034,0.1,0,0,-36.5,6,27,0.16522721,0.704458754,-0.141514328,0.675557726
803,2012077,1266970,0.985,0.04,-0.026,0.1,-0.1,-0.1,-36.5,6,27,0.16522721,0.704458754,-0.141514328,0.675557726
804,2015095,1266970,0.985,0.044,-0.03,0,-0.1,-0.1,-36.5,6,27,0.16522721,0.704458754,-0.141514328,0.675557726
805,2017751,1266970,0.981,0.036,-0.03,0,-0.1,-0.1,-34,5.9,26.7,0.16522721,0.704458754,-0.141514328,0.675557726
806,2019464,1266980,0.985,0.036,-0.03,0,0,-0.1,-34,5.9,26.7,0.16522721,0.704458754,-0.141514328,0.675557726
807,2022374,1266980,0.981,0.036,-0.034,0,0,0,-34,5.9,26.7,0.16522721,0.704458754,-0.141514328,0.675557726
808,2025327,1266980,0.985,0.04,-0.03,0,0,0,-34,5.9,26.7,0.16522721,0.704458754,-0.141514328,0.675557726
809,2026951,1266980,0.985,0.036,-0.03,0,0,0,-33.6,5.9,26.8,0.165196692,0.704458754,-0.141544847,0.675557726
810,2029908,1266990,0.988,0.044,-0.034,-0.1,0,0,-33.6,5.9,26.8,0.165196692,0.704458754,-0.141544847,0.675557726
811,2032957,1266990,0.985,0.04,-0.03,0,0,0,-33.6,5.9,26.8,0.165196692,0.704458754,-0.141544847,0.675557726
812,2034451,1266990,0.985,0.04,-0.026,0,0,0,-33.6,5.9,26.8,0.165196692,0.704458754,-0.141544847,0.675557726
813,2037536,1266990,0.985,0.04,-0.026,0,0,0.1,-33.7,6,26.8,0.165196692,0.704458754,-0.141544847,0.675557726
814,2040660,1267000,0.985,0.04,-0.03,0,0,0,-33.7,6,26.8,0.165196692,0.704458754,-0.141544847,0.675557726
815,2042127,1267000,0.988,0.044,-0.03,0,0,0,-33.7,6,26.8,0.165196692,0.704458754,-0.141544847,0.675557726
816,2045089,1267000,0.985,0.04,-0.034,0,0,0,-33.7,6,26.8,0.165196692,0.704458754,-0.141544847,0.675557726
817,2048030,1267000,0.988,0.04,-0.03,0,0.1,0,-33.9,6,27,0.165196692,0.704428236,-0.141544847,0.675557726
818,2049380,1267010,0.985,0.04,-0.034,0,0,0,-33.9,6,27,0.165196692,0.704428236,-0.141544847,0.675557726
819,2052550,1267010,0.985,0.036,-0.034,-0.1,0.1,0,-33.9,6,27,0.165196692,0.704428236,-0.141544847,0.675557726
820,2055319,1267010,0.985,0.04,-0.03,-0.1,0,0,-33.9,6,27,0.165196692,0.704428236,-0.141544847,0.675557726
821,2057033,1267010,0.985,0.044,-0.034,0,0.1,0,-35.1,5.7,27,0.165196692,0.704428236,-0.141544847,0.675557726
822,2059718,1267020,0.981,0.036,-0.03,0,0,0,-35.1,5.7,27,0.165196692,0.704428236,-0.141544847,0.675557726
823,2062873,1267020,0.985,0.04,-0.03,0,-0.1,0,-35.1,5.7,27,0.165196692,0.704428236,-0.141544847,0.675557726
824,2064338,1267020,0.988,0.04,-0.03,0,-0.3,0,-35.1,5.7,27,0.165196692,0.704458754,-0.141544847,0.675557726
825,2067312,1267020,0.985,0.044,-0.03,0,-0.4,0,-34.9,5.7,26.9,0.165196692,0.704458754,-0.141575365,0.675557726
826,2070409,1267030,0.988,0.04,-0.03,0,-0.3,0,-34.9,5.7,26.9,0.165196692,0.704458754,-0.141575365,0.675557726
827,2071853,1267030,0.988,0.044,-0.026,0,-0.1,-0.1,-34.9,5.7,26.9,0.165196692,0.704458754,-0.141544847,0.675527207
828,2074847,1267030,0.985,0.04,-0.03,0,0,0,-34.9,5.7,26.9,0.165196692,0.704458754,-0.141544847,0.675527207
829,2077933,1267030,0.988,0.04,-0.03,0,0.2,0,-35.4,5.7,26.7,0.16522721,0.704428236,-0.141514328,0.675557726
830,2079492,1267040,0.981,0.036,-0.03,0,0.2,0,-35.4,5.7,26.7,0.16522721,0.704428236,-0.141514328,0.675557726
831,2083102,1267040,0.985,0.036,-0.034,0,0.1,0,-35.4,5.7,26.7,0.16522721,0.704428236,-0.141514328,0.675588244
832,2084496,1267040,0.988,0.04,-0.026,-0.1,0,0,-35.4,5.7,26.7,0.16522721,0.704428236,-0.141544847,0.675588244
833,2087360,1267040,0.985,0.04,-0.03,0,0,0,-35.4,5.5,27.1,0.16522721,0.704428236,-0.141544847,0.675588244
834,2089452,1267050,0.985,0.036,-0.026,0,0,0,-35.4,5.5,27.1,0.16522721,0.704428236,-0.141544847,0.675588244
835,2092745,1267050,0.988,0.036,-0.026,0.1,0,0,-35.4,5.5,27.1,0.16522721,0.704428236,-0.141544847,0.675588244
836,2094315,1267050,0.985,0.04,-0.026,0,-0.1,0,-35.4,5.5,27.1,0.16522721,0.704428236,-0.141544847,0.675588244
837,2097308,1267050,0.985,0.04,-0.03,0,-0.1,0,-35.2,5.7,27.2,0.16522721,0.704428236,-0.141544847,0.675588244
838,2100305,1267060,0.985,0.04,-0.026,0,-0.2,0,-35.2,5.7,27.2,0.16522721,0.704428236,-0.141544847,0.675557726
839,2101872,1267060,0.988,0.04,-0.03,0,-0.2,0,-35.2,5.7,27.2,0.16522721,0.704428236,-0.141544847,0.675557726
840,2104637,1267060,0.985,0.048,-0.026,0.1,-0.2,0,-35.2,5.7,27.2,0.16522721,0.704428236,-0.141544847,0.675557726
841,2107659,1267060,0.985,0.04,-0.03,0.1,-0.1,0,-35,5.8,26.2,0.16522721,0.704428236,-0.141544847,0.675557726
842,2110080,1267070,0.988,0.04,-0.034,0,0,0,-35,5.8,26.2,0.16522721,0.704428236,-0.141544847,0.675557726
843,2112127,1267070,0.985,0.04,-0.038,0,0,0,-35,5.8,26.2,0.16522721,0.704428236,-0.141544847,0.675557726
844,2115313,1267070,0.985,0.044,-0.03,0,0,0,-35,5.8,26.2,0.16522721,0.704428236,-0.141544847,0.675557726
845,2116806,1267070,0.985,0.04,-0.03,0,0,-0.1,-35.2,5.4,27.9,0.16522721,0.704458754,-0.141544847,0.675557726
846,2119671,1267080,0.985,0.048,-0.03,0,0,0,-35.2,5.4,27.9,0.16522721,0.704458754,-0.141544847,0.675557726
847,2122732,1267080,0.985,0.04,-0.03,0,0,0,-35.2,5.4,27.9,0.16522721,0.704458754,-0.141544847,0.675557726
848,2124362,1267080,0.981,0.036,-0.03,0,0.1,0,-35.2,5.4,27.9,0.16522721,0.704428236,-0.141544847,0.675557726
849,2127342,1267080,0.981,0.04,-0.026,0,0.1,0,-35.5,5.6,27.9,0.16522721,0.704428236,-0.141514328,0.675588244
850,2130339,1267090,0.981,0.04,-0.026,0,0,0,-35.5,5.6,27.9,0.16522721,0.704428236,-0.141514328,0.675588244
851,2131840,1267090,0.985,0.036,-0.026,0,0,0.1,-35.5,5.6,27.9,0.16522721,0.704428236,-0.141514328,0.675588244
852,2135451,1267090,0.985,0.036,-0.026,0.1,-0.1,0.1,-35.5,5.6,27.9,0.16522721,0.704428236,-0.141514328,0.675588244
853,2137081,1267090,0.988,0.04,-0.034,0.1,-0.1,0,-35.2,5.7,28.1,0.16522721,0.704428236,-0.141514328,0.675588244
854,2139360,1267100,0.988,0.044,-0.034,0.1,-0.1,0,-35.2,5.7,28.1,0.16522721,0.704428236,-0.141514328,0.675588244
855,2142847,1267100,0.988,0.04,-0.03,0,-0.1,0,-35.2,5.7,28.1,0.16522721,0.704428236,-0.141514328,0.675557726
856,2144459,1267100,0.988,0.04,-0.03,0,0,0,-35.2,5.7,28.1,0.16522721,0.704428236,-0.141514328,0.675557726
857,2147873,1267100,0.985,0.04,-0.03,0,0.1,0,-35,6,28.7,0.16522721,0.704428236,-0.141514328,0.675588244
858,2149476,1267110,0.988,0.04,-0.026,0,0.3,0,-35,6,28.7,0.16522721,0.704428236,-0.141514328,0.675588244
859,2152477,1267110,0.985,0.04,-0.026,0,0.3,0,-35,6,28.7,0.16522721,0.704428236,-0.141514328,0.675588244
860,2154380,1267110,0.985,0.044,-0.022,0,0.2,0,-35,6,28.7,0.16522721,0.704428236,-0.141514328,0.675588244
861,2157474,1267110,0.985,0.044,-0.022,0,0.1,0,-35.2,5.8,25,0.16522721,0.704428236,-0.141514328,0.675588244
862,2160510,1267120,0.985,0.04,-0.03,0,0.1,0,-35.2,5.8,25,0.16522721,0.704397717,-0.141514328,0.675588244
863,2161982,1267120,0.985,0.04,-0.026,0,0.1,-0.1,-35.2,5.8,25,0.16522721,0.704397717,-0.141514328,0.675588244
864,2164866,1267120,0.985,0.036,-0.026,0,0,-0.1,-35.2,5.8,25,0.16522721,0.704397717,-0.141514328,0.675588244
865,2167991,1267120,0.981,0.044,-0.034,0,0,-0.1,-34.7,6.1,27.2,0.16522721,0.704397717,-0.141514328,0.675588244
866,2170304,1267130,0.988,0.04,-0.03,0,-0.1,0,-34.7,6.1,27.2,0.16522721,0.704397717,-0.141514328,0.675588244
867,2172449,1267130,0.985,0.04,-0.022,0,-0.1,0,-34.7,6.1,27.2,0.16522721,0.704428236,-0.141514328,0.675588244
868,2175560,1267130,0.981,0.04,-0.026,0.1,-0.1,0.1,-34.7,6.1,27.2,0.16522721,0.704428236,-0.141514328,0.675588244
869,2176900,1267130,0.988,0.04,-0.03,0,-0.1,0,-34.9,6.2,26.4,0.16522721,0.704397717,-0.141514328,0.675618763
870,2179954,1267140,0.988,0.04,-0.034,0,-0.1,0,-34.9,6.2,26.4,0.16522721,0.704397717,-0.141514328,0.675618763
871,2182985,1267140,0.988,0.036,-0.034,0,-0.1,-0.1,-34.9,6.2,26.4,0.16522721,0.704397717,-0.141514328,0.675618763
872,2184648,1267140,0.988,0.04,-0.034,0,0,-0.1,-34.9,6.2,26.4,0.16522721,0.704397717,-0.141514328,0.675618763
873,2187649,1267140,0.985,0.04,-0.03,0,0,-0.1,-34.7,6,26.1,0.16522721,0.704397717,-0.141514328,0.675618763
874,2190710,1267150,0.988,0.04,-0.03,0,0,0,-34.7,6,26.1,0.16522721,0.704397717,-0.141514328,0.675618763
875,2192186,1267150,0.988,0.044,-0.034,0,0,0,-34.7,6,26.1,0.16522721,0.704397717,-0.141514328,0.675618763
876,2195212,1267150,0.988,0.04,-0.03,0,0,0,-34.7,6,26.1,0.16522721,0.704397717,-0.141514328,0.675618763
877,2196886,1267150,0.985,0.036,-0.026,0,0,0,-34.6,5.8,25.7,0.16522721,0.704397717,-0.14148381,0.675618763
878,2200349,1267160,0.988,0.04,-0.03,0,0,0,-34.6,5.8,25.7,0.165257729,0.704397717,-0.141514328,0.675618763
879,2201897,1267160,0.985,0.044,-0.034,0,0.1,-0.1,-34.6,5.8,25.7,0.165257729,0.704397717,-0.14148381,0.675618763
880,2204879,1267160,0.985,0.044,-0.03,0,0.1,-0.1,-34.6,5.8,25.7,0.165257729,0.704397717,-0.14148381,0.675618763
881,2207197,1267160,0.985,0.044,-0.03,0,0,0,-35,5.7,26.8,0.165257729,0.704397717,-0.14148381,0.675618763
882,2210312,1267170,0.988,0.036,-0.03,0,0,0,-35,5.7,26.8,0.165257729,0.704397717,-0.14148381,0.675618763
883,2211992,1267170,0.985,0.04,-0.034,0,0,0,-35,5.7,26.8,0.165257729,0.704397717,-0.14148381,0.675618763
884,2215605,1267170,0.985,0.04,-0.026,0.1,0,0.1,-35,5.7,26.8,0.165257729,0.704397717,-0.14148381,0.675618763
885,2217531,1267170,0.985,0.036,-0.03,0.1,0,0.1,-34.8,5.8,26.6,0.16522721,0.704397717,-0.141514328,0.675618763
886,2219898,1267180,0.985,0.048,-0.03,0.1,-0.1,0,-34.8,5.8,26.6,0.16522721,0.704397717,-0.141514328,0.675618763
887,2222213,1267180,0.985,0.044,-0.026,0,0,0,-34.8,5.8,26.6,0.16522721,0.704397717,-0.141514328,0.675618763
888,2224397,1267180,0.985,0.04,-0.03,0,-0.1,0,-34.8,5.8,26.6,0.16522721,0.704397717,-0.141514328,0.675618763
889,2226939,1267180,0.985,0.036,-0.034,0,-0.1,0,-34.8,6,26.7,0.165257729,0.704367199,-0.14148381,0.675618763
890,2230570,1267190,0.985,0.044,-0.034,0,-0.1,0,-34.8,6,26.7,0.165257729,0.704367199,-0.14148381,0.675618763
891,2232220,1267190,0.981,0.04,-0.03,0,-0.1,0,-34.8,6,26.7,0.165257729,0.704367199,-0.14148381,0.675618763
892,2234777,1267190,0.985,0.04,-0.034,0,-0.1,0.1,-34.8,6,26.7,0.165257729,0.704397717,-0.14148381,0.675618763
893,2238046,1267190,0.988,0.044,-0.03,0,-0.1,0,-34.9,6.1,26.7,0.165257729,0.704397717,-0.14148381,0.675618763
894,2240375,1267200,0.988,0.044,-0.026,0,0,0,-34.9,6.1,26.7,0.165257729,0.704397717,-0.14148381,0.675618763
895,2242514,1267200,0.988,0.044,-0.026,0,0,0,-34.9,6.1,26.7,0.165257729,0.704397717,-0.14148381,0.675618763
896,2244743,1267200,0.988,0.04,-0.034,0,-0.1,0,-34.9,6.1,26.7,0.165257729,0.704397717,-0.14148381,0.675618763
897,2247128,1267200,0.985,0.04,-0.03,0,-0.1,0,-35,5.4,26.9,0.165257729,0.704397717,-0.14148381,0.675618763
898,2250082,1267210,0.988,0.044,-0.026,0,0,0,-35,5.4,26.9,0.165257729,0.704397717,-0.14148381,0.675618763
899,2252259,1267210,0.985,0.04,-0.03,0,0,0,-35,5.4,26.9,0.165257729,0.704397717,-0.14148381,0.675618763
900,2254579,1267210,0.985,0.04,-0.034,0,0,0,-35,5.4,26.9,0.165257729,0.704397717,-0.14148381,0.675618763
901,2256953,1267210,0.985,0.04,-0.03,0,0,0,-35.1,6.5,27.9,0.165257729,0.704397717,-0.14148381,0.675618763
902,2259947,1267220,0.985,0.04,-0.026,0,0,0,-35.1,6.5,27.9,0.16522721,0.704397717,-0.14148381,0.675618763
903,2262273,1267220,0.985,0.04,-0.03,0,0,0,-35.1,6.5,27.9,0.16522721,0.704397717,-0.14148381,0.675618763
904,2264690,1267220,0.985,0.044,-0.03,0,-0.1,0,-35.1,6.5,27.9,0.16522721,0.704397717,-0.14148381,0.675618763
905,2266910,1267220,0.981,0.04,-0.03,0,-0.2,0,-34.7,4.9,25.7,0.16522721,0.704397717,-0.14148381,0.675618763
906,2269663,1267230,0.985,0.04,-0.038,0,-0.2,0,-34.7,4.9,25.7,0.16522721,0.704397717,-0.14148381,0.675618763
907,2271885,1267230,0.985,0.04,-0.034,0,-0.2,0,-34.7,4.9,25.7,0.16522721,0.704397717,-0.14148381,0.675588244
908,2274585,1267230,0.988,0.044,-0.026,0,-0.1,0,-34.7,4.9,25.7,0.16522721,0.704397717,-0.14148381,0.675588244
909,2278746,1267230,0.992,0.04,-0.034,0,-0.2,-0.1,-35.2,4.2,26,0.165257729,0.704428236,-0.14148381,0.675588244
910,2279500,1267240,0.992,0.04,-0.034,0,-0.2,-0.1,-35.2,4.2,26,0.165257729,0.704428236,-0.14148381,0.675588244
911,2282101,1267240,0.985,0.044,-0.03,0.1,-0.2,0,-35.2,4.2,26,0.165257729,0.704428236,-0.14148381,0.675588244
912,2284347,1267240,0.985,0.036,-0.03,0.1,-0.1,0,-35.2,4.2,26,0.16522721,0.704428236,-0.14148381,0.675588244
913,2288515,1267240,0.988,0.04,-0.022,0.1,0,0.2,-34.7,3.9,25.7,0.16522721,0.704428236,-0.14148381,0.675588244
914,2291416,1267250,0.988,0.048,-0.034,0,0.1,0.1,-34.7,3.9,25.7,0.16522721,0.704428236,-0.14148381,0.675588244
915,2292388,1267250,0.985,0.04,-0.038,0,0.2,0.1,-34.7,3.9,25.7,0.16522721,0.704428236,-0.14148381,0.675588244
916,2294816,1267250,0.985,0.036,-0.03,0,0.2,0,-34.7,3.9,25.7,0.16522721,0.704428236,-0.14148381,0.675588244
917,2297220,1267250,0.985,0.04,-0.034,0,0.2,0,-34.8,3.9,26.1,0.16522721,0.704428236,-0.14148381,0.675588244
918,2299974,1267260,0.985,0.044,-0.026,0,0.1,0,-34.8,3.9,26.1,0.16522721,0.704397717,-0.14148381,0.675588244
919,2302130,1267260,0.985,0.04,-0.03,-0.1,0.1,0,-34.8,3.9,26.1,0.16522721,0.704397717,-0.14148381,0.675588244
920,2304411,1267260,0.988,0.04,-0.034,-0.1,0.1,0,-34.8,3.9,26.1,0.16522721,0.704397717,-0.14148381,0.675588244
921,2307005,1267260,0.988,0.036,-0.026,0,0.2,0,-35,7.4,27.6,0.16522721,0.704397717,-0.14148381,0.675618763
922,2310475,1267270,0.985,0.04,-0.03,0,0.2,0,-35,7.4,27.6,0.16522721,0.704397717,-0.14148381,0.675618763
923,2312678,1267270,0.985,0.044,-0.03,0,0.1,0.1,-35,7.4,27.6,0.16522721,0.704397717,-0.14148381,0.675618763
924,2314830,1267270,0.988,0.036,-0.038,0,0.1,0.1,-35,7.4,27.6,0.16522721,0.704397717,-0.14148381,0.675618763
925,2317097,1267270,0.988,0.036,-0.034,0,0,0.1,-34.9,5.2,26.7,0.16522721,0.704397717,-0.14148381,0.675618763
926,2319419,1267280,0.988,0.04,-0.026,0,-0.1,0,-34.9,5.2,26.7,0.16522721,0.704397717,-0.14148381,0.675618763
927,2322877,1267280,0.985,0.036,-0.03,0,-0.1,0,-34.9,5.2,26.7,0.16522721,0.704397717,-0.14148381,0.675618763
928,2325171,1267280,0.985,0.04,-0.034,0.1,-0.1,0,-34.9,5.2,26.7,0.16522721,0.704397717,-0.14148381,0.675618763
929,2327316,1267280,0.985,0.04,-0.03,0,0,-0.1,-34.7,5.9,26.9,0.165196692,0.704397717,-0.141514328,0.675618763
930,2329632,1267290,0.985,0.04,-0.03,0,0,-0.1,-34.7,5.9,26.9,0.165196692,0.704397717,-0.141514328,0.675618763
931,2332029,1267290,0.985,0.04,-0.034,0,0,-0.1,-34.7,5.9,26.9,0.16522721,0.704397717,-0.141514328,0.675618763
932,2334350,1267290,0.988,0.04,-0.03,0,0,-0.1,-34.7,5.9,26.9,0.16522721,0.704397717,-0.141514328,0.675618763
933,2336974,1267290,0.981,0.036,-0.038,0,0,-0.1,-35,6.4,26.6,0.16522721,0.704397717,-0.141514328,0.675618763
934,2340368,1267300,0.988,0.04,-0.03,-0.1,0,-0.1,-35,6.4,26.6,0.16522721,0.704397717,-0.141514328,0.675618763
935,2341880,1267300,0.988,0.036,-0.03,-0.1,0,-0.1,-35,6.4,26.6,0.16522721,0.704397717,-0.141514328,0.675618763
936,2344347,1267300,0.985,0.04,-0.034,0,0.1,-0.1,-35,6.4,26.6,0.16522721,0.704397717,-0.141514328,0.675618763
937,2348644,1267300,0.988,0.036,-0.034,0,0.1,0,-34.9,7.1,26.6,0.16522721,0.704397717,-0.141514328,0.675618763
938,2350273,1267310,0.985,0.04,-0.03,0,0.1,0,-34.9,7.1,26.6,0.16522721,0.704397717,-0.141514328,0.675618763
939,2351996,1267310,0.988,0.044,-0.026,0,0,0,-34.9,7.1,26.6,0.16522721,0.704397717,-0.141514328,0.675618763
940,2355423,1267310,0.985,0.036,-0.03,0,-0.1,0,-34.9,7.1,26.6,0.16522721,0.704397717,-0.141514328,0.675618763
941,2356892,1267310,0.981,0.044,-0.026,0,-0.1,0,-34.9,5.9,26.8,0.16522721,0.704397717,-0.141514328,0.675618763
942,2359927,1267320,0.988,0.04,-0.03,0,-0.2,-0.1,-34.9,5.9,26.8,0.16522721,0.704397717,-0.141514328,0.675618763
943,2362321,1267320,0.977,0.044,-0.03,0,-0.1,-0.2,-34.9,5.9,26.8,0.16522721,0.704397717,-0.141514328,0.675618763
944,2364600,1267320,0.981,0.044,-0.026,0,-0.1,-0.2,-34.9,5.9,26.8,0.16522721,0.704397717,-0.141514328,0.675618763
945,2367899,1267320,0.985,0.04,-0.03,0,-0.1,-0.1,-35,6.1,26.8,0.16522721,0.704397717,-0.141514328,0.675618763
946,2369450,1267330,0.985,0.04,-0.026,0.1,0,0,-35,6.1,26.8,0.16522721,0.704397717,-0.141514328,0.675618763
947,2371965,1267330,0.988,0.04,-0.034,0,0,0.1,-35,6.1,26.8,0.16522721,0.704397717,-0.141514328,0.675618763
948,2375561,1267330,0.988,0.04,-0.03,0,0,0.2,-35,6.1,26.8,0.16522721,0.704397717,-0.141514328,0.675618763
949,2377448,1267330,0.988,0.04,-0.034,0,-0.1,0.1,-35.5,6.4,26.7,0.16522721,0.704397717,-0.141514328,0.675618763
950,2379757,1267340,0.988,0.04,-0.03,0,-0.1,0.1,-35.5,6.4,26.7,0.16522721,0.704397717,-0.141514328,0.675618763
951,2381945,1267340,0.985,0.04,-0.034,0,0,0.1,-35.5,6.4,26.7,0.16522721,0.704397717,-0.141514328,0.675618763
952,2385372,1267340,0.988,0.044,-0.03,0,0,0.1,-35.5,6.4,26.7,0.165196692,0.704397717,-0.141514328,0.675618763
953,2387727,1267340,0.985,0.036,-0.026,0,0,0,-35.5,6,26.7,0.165196692,0.704397717,-0.141514328,0.675618763
954,2390370,1267350,0.985,0.04,-0.03,0,0,-0.1,-35.5,6,26.7,0.165196692,0.704397717,-0.141514328,0.675618763
955,2392609,1267350,0.981,0.04,-0.03,0.1,0,-0.1,-35.5,6,26.7,0.165196692,0.704397717,-0.141514328,0.675618763
956,2394773,1267350,0.985,0.036,-0.03,0,0,-0.1,-35.5,6,26.7,0.16522721,0.704397717,-0.141514328,0.675618763
957,2397200,1267350,0.988,0.04,-0.03,0,0,-0.1,-35.4,6,27,0.16522721,0.704397717,-0.141514328,0.675618763
958,2399647,1267360,0.981,0.04,-0.03,0,0.1,0,-35.4,6,27,0.16522721,0.704397717,-0.141514328,0.675618763
959,2401956,1267360,0.981,0.044,-0.03,0,0.2,0,-35.4,6,27,0.16522721,0.704397717,-0.141514328,0.675618763
960,2406082,1267360,0.988,0.04,-0.038,0,0.2,0,-35.4,6,27,0.16522721,0.704397717,-0.141514328,0.675618763
961,2408203,1267360,0.985,0.036,-0.03,0.1,0.2,0,-34.6,4.8,26.8,0.16522721,0.704367199,-0.14148381,0.675618763
962,2409722,1267370,0.985,0.04,-0.026,0.1,0,0,-34.6,4.8,26.8,0.16522721,0.704367199,-0.14148381,0.675618763
963,2412009,1267370,0.992,0.036,-0.034,0,0,0,-34.6,4.8,26.8,0.16522721,0.704397717,-0.14148381,0.675618763
964,2414723,1267370,0.985,0.044,-0.034,0,-0.1,0,-34.6,4.8,26.8,0.16522721,0.704397717,-0.14148381,0.675618763
965,2418255,1267370,0.988,0.04,-0.026,0,-0.2,0,-36.3,7.1,27.1,0.16522721,0.704397717,-0.14148381,0.675618763
966,2420555,1267380,0.985,0.04,-0.034,0,-0.1,0,-36.3,7.1,27.1,0.16522721,0.704397717,-0.14148381,0.675618763
967,2422827,1267380,0.985,0.044,-0.034,0,-0.1,0,-36.3,7.1,27.1,0.16522721,0.704397717,-0.141514328,0.675618763
968,2425164,1267380,0.985,0.044,-0.022,0,-0.1,0,-36.3,7.1,27.1,0.16522721,0.704397717,-0.141514328,0.675618763
969,2427316,1267380,0.988,0.04,-0.026,0,-0.2,0,-36.9,7,27,0.16522721,0.704367199,-0.14148381,0.675618763
970,2429509,1267390,0.988,0.04,-0.026,0,-0.2,0,-36.9,7,27,0.16522721,0.704397717,-0.14148381,0.675618763
971,2433008,1267390,0.985,0.04,-0.03,0,-0.2,0,-36.9,7,27,0.16522721,0.704397717,-0.14148381,0.675618763
972,2434561,1267390,0.981,0.036,-0.034,0,-0.1,0,-36.9,7,27,0.16522721,0.704397717,-0.14148381,0.675618763
973,2437010,1267390,0.985,0.044,-0.03,0,-0.1,0,-37.4,7.2,27.3,0.16522721,0.704397717,-0.14148381,0.675618763
974,2440771,1267400,0.988,0.044,-0.03,0,0,0,-37.4,7.2,27.3,0.16522721,0.704397717,-0.14148381,0.675618763
975,2442179,1267400,0.988,0.04,-0.03,0,0,0,-37.4,7.2,27.3,0.16522721,0.704397717,-0.14148381,0.675618763
976,2445346,1267400,0.988,0.044,-0.03,0,0.1,0,-37.4,7.2,27.3,0.16522721,0.704397717,-0.14148381,0.675618763
977,2447518,1267400,0.985,0.04,-0.03,0.1,0,0,-37.2,6.9,27,0.16522721,0.704397717,-0.14148381,0.675618763
978,2449696,1267410,0.988,0.036,-0.034,0,-0.1,0,-37.2,6.9,27,0.16522721,0.704397717,-0.14148381,0.675618763
979,2452084,1267410,0.988,0.04,-0.038,0,-0.2,0,-37.2,6.9,27,0.16522721,0.704397717,-0.14148381,0.675618763
980,2454304,1267410,0.985,0.04,-0.03,0,-0.2,0,-37.2,6.9,27,0.16522721,0.704397717,-0.14148381,0.675618763
981,2457985,1267410,0.988,0.04,-0.034,0,-0.1,0,-34.2,5.4,26.9,0.16522721,0.704397717,-0.14148381,0.675618763
982,2459460,1267420,0.988,0.044,-0.03,0,0.1,0,-34.2,5.4,26.9,0.16522721,0.704397717,-0.14148381,0.675618763
983,2462731,1267420,0.985,0.044,-0.03,0,0.2,0,-34.2,5.4,26.9,0.16522721,0.704397717,-0.14148381,0.675618763
984,2464468,1267420,0.985,0.04,-0.026,0,0.2,0,-34.2,5.4,26.9,0.16522721,0.704397717,-0.14148381,0.675618763
985,2467105,1267420,0.985,0.036,-0.038,0,0.1,0,-36,6.6,27,0.16522721,0.704397717,-0.14148381,0.675618763
986,2470249,1267430,0.985,0.04,-0.03,0,0,0,-36,6.6,27,0.16522721,0.704397717,-0.14148381,0.675618763
987,2471813,1267430,0.988,0.04,-0.03,0,-0.1,0,-36,6.6,27,0.16522721,0.704397717,-0.14148381,0.675618763
988,2474682,1267430,0.985,0.04,-0.03,0,0,0,-36,6.6,27,0.16522721,0.704397717,-0.14148381,0.675618763
989,2477778,1267430,0.988,0.04,-0.034,0,0.1,0,-35.7,6.4,27,0.16522721,0.704397717,-0.14148381,0.675618763
990,2479452,1267440,0.988,0.04,-0.034,0,0.1,0,-35.7,6.4,27,0.16522721,0.704397717,-0.14148381,0.675618763
991,2482813,1267440,0.985,0.04,-0.034,0,0.1,-0.1,-35.7,6.4,27,0.16522721,0.704397717,-0.14148381,0.675618763
992,2484621,1267440,0.988,0.044,-0.026,0,0,-0.1,-35.7,6.4,27,0.16522721,0.704397717,-0.14148381,0.675618763
993,2487215,1267440,0.981,0.04,-0.03,0,-0.1,-0.2,-35,6.4,27,0.16522721,0.704397717,-0.14148381,0.675618763
994,2490360,1267450,0.988,0.04,-0.026,0,-0.2,-0.2,-35,6.4,27,0.16522721,0.704397717,-0.14148381,0.675618763
995,2492045,1267450,0.985,0.04,-0.026,0,-0.3,-0.1,-35,6.4,27,0.16522721,0.704397717,-0.14148381,0.675618763
996,2495399,1267450,0.985,0.044,-0.03,0,-0.3,0,-35,6.4,27,0.16522721,0.704397717,-0.14148381,0.675618763
997,2496915,1267450,0.988,0.036,-0.026,0,-0.2,0,-34.5,6.2,26.8,0.16522721,0.704397717,-0.14148381,0.675618763
998,2499909,1267460,0.985,0.036,-0.038,0,-0.1,0,-34.5,6.2,26.8,0.16522721,0.704397717,-0.14148381,0.675588244
999,2503005,1267460,0.988,0.04,-0.022,-0.1,0,0,-34.5,6.2,26.8,0.16522721,0.704397717,-0.14148381,0.675588244
1000,2504503,1267460,0.988,0.036,-0.026,-0.1,0,0,-34.5,6.2,26.8,0.16522721,0.704397717,-0.14148381,0.675588244
1001,2507861,1267460,0.985,0.04,-0.03,0,0,-0.1,-35,5.9,27,0.16522721,0.704397717,-0.14148381,0.675588244
1002,2509431,1267470,0.985,0.04,-0.026,0,0.1,-0.1,-35,5.9,27,0.16522721,0.704397717,-0.14148381,0.675588244
1003,2513024,1267470,0.985,0.04,-0.026,0,0.1,-0.1,-35,5.9,27,0.16522721,0.704397717,-0.14148381,0.675588244
1004,2514522,1267470,0.985,0.04,-0.034,0,0,0,-35,5.9,27,0.16522721,0.704397717,-0.14148381,0.675618763
1005,2517528,1267470,0.985,0.04,-0.03,0,0,0,-35.2,5.8,27,0.16522721,0.704397717,-0.14148381,0.675618763
1006,2520506,1267480,0.985,0.04,-0.03,0,0,0,-35.2,5.8,27,0.16522721,0.704397717,-0.14148381,0.675588244
1007,2522004,1267480,0.981,0.04,-0.034,0,0,0,-35.2,5.8,27,0.16522721,0.704397717,-0.14148381,0.675588244
1008,2525124,1267480,0.985,0.04,-0.03,0,-0.1,0,-35.2,5.8,27,0.16522721,0.704397717,-0.14148381,0.675588244
1009,2526809,1267480,0.988,0.04,-0.034,0,0,0,-35.2,5.7,27.5,0.16522721,0.704397717,-0.14148381,0.675588244
1010,2530936,1267490,0.985,0.044,-0.03,0,0,0,-35.2,5.7,27.5,0.16522721,0.704397717,-0.14148381,0.675588244
1011,2533047,1267490,0.985,0.048,-0.034,0,0,0,-35.2,5.7,27.5,0.16522721,0.704397717,-0.14148381,0.675588244
1012,2534597,1267490,0.988,0.04,-0.03,0,0,0,-35.2,5.7,27.5,0.16522721,0.704397717,-0.14148381,0.675588244
1013,2537106,1267490,0.988,0.04,-0.026,0,0,0,-35.2,5.9,27.4,0.16522721,0.704397717,-0.14148381,0.675618763
1014,2539453,1267500,0.988,0.036,-0.038,0.1,0.1,0,-35.2,5.9,27.4,0.16522721,0.704397717,-0.14148381,0.675618763
1015,2542827,1267500,0.985,0.04,-0.034,0,0.1,0,-35.2,5.9,27.4,0.16522721,0.704397717,-0.14148381,0.675618763
1016,2544431,1267500,0.985,0.036,-0.026,0,0.2,0,-35.2,5.9,27.4,0.16522721,0.704397717,-0.14148381,0.675618763
1017,2548032,1267500,0.988,0.04,-0.026,0,0.3,0,-34.8,6,27,0.16522721,0.704397717,-0.14148381,0.675618763
1018,2549490,1267510,0.988,0.044,-0.03,0,0.2,0,-34.8,6,27,0.16522721,0.704397717,-0.14148381,0.675618763
1019,2552327,1267510,0.988,0.044,-0.03,0.1,0,0.1,-34.8,6,27,0.16522721,0.704397717,-0.14148381,0.675618763
1020,2555421,1267510,0.985,0.04,-0.026,0.1,-0.1,0,-34.8,6,27,0.16522721,0.704397717,-0.14148381,0.675618763
1021,2556964,1267510,0.988,0.04,-0.03,0,-0.1,0,-36.3,6,27.1,0.16522721,0.704397717,-0.14148381,0.675618763
1022,2559959,1267520,0.985,0.04,-0.03,0,0,0,-36.3,6,27.1,0.16522721,0.704397717,-0.14148381,0.675618763
1023,2562166,1267520,0.988,0.04,-0.03,0,0,0,-36.3,6,27.1,0.16522721,0.704397717,-0.14148381,0.675618763
1024,2564499,1267520,0.985,0.044,-0.03,0,0,0,-36.3,6,27.1,0.16522721,0.704397717,-0.14148381,0.675618763
1025,2567063,1267520,0.985,0.036,-0.03,0.1,0,0,-33.9,5.9,27.4,0.16522721,0.704397717,-0.14148381,0.675618763
1026,2570410,1267530,0.985,0.044,-0.034,0,0,0.1,-33.9,5.9,27.4,0.16522721,0.704397717,-0.14148381,0.675618763
1027,2571881,1267530,0.981,0.036,-0.034,0,0,0.2,-33.9,5.9,27.4,0.165196692,0.704397717,-0.14148381,0.675618763
1028,2575136,1267530,0.985,0.04,-0.03,0,0,0.2,-33.9,5.9,27.4,0.165196692,0.704397717,-0.14148381,0.675618763
1029,2577367,1267530,0.981,0.04,-0.022,0,0,0,-33.6,5.7,27.7,0.165196692,0.704397717,-0.141514328,0.675618763
1030,2579401,1267540,0.981,0.04,-0.022,0,0,0,-33.6,5.7,27.7,0.165196692,0.704397717,-0.141514328,0.675618763
1031,2583244,1267540,0.988,0.036,-0.034,0,0,0,-33.6,5.7,27.7,0.165196692,0.704397717,-0.141514328,0.675618763
1032,2585465,1267540,0.985,0.036,-0.03,0,0,0,-33.6,5.7,27.7,0.165196692,0.704397717,-0.141514328,0.675618763
1033,2587800,1267540,0.988,0.04,-0.038,0,0,0,-34,6.1,27.4,0.165196692,0.704397717,-0.141514328,0.675618763
1034,2589940,1267550,0.988,0.044,-0.034,0,0,0,-34,6.1,27.4,0.165196692,0.704397717,-0.141514328,0.675618763
1035,2592137,1267550,0.988,0.04,-0.026,0,0,0,-34,6.1,27.4,0.165196692,0.704397717,-0.141514328,0.675618763
1036,2594417,1267550,0.985,0.044,-0.03,0,0,0,-34,6.1,27.4,0.165196692,0.704397717,-0.141514328,0.675618763
1037,2598571,1267550,0.988,0.04,-0.026,0,0,-0.1,-33.8,6.4,27.5,0.165196692,0.704397717,-0.141514328,0.675618763
1038,2600741,1267560,0.985,0.044,-0.034,-0.1,-0.1,0,-33.8,6.4,27.5,0.165196692,0.704397717,-0.141514328,0.675618763
1039,2602296,1267560,0.985,0.04,-0.026,0,-0.1,0,-33.8,6.4,27.5,0.165196692,0.704397717,-0.141514328,0.675618763
1040,2604661,1267560,0.981,0.036,-0.03,0,0,0,-33.8,6.4,27.5,0.165196692,0.704397717,-0.141514328,0.675618763
1041,2607145,1267560,0.988,0.04,-0.03,0,0,0,-35.6,5.9,26.9,0.165196692,0.704397717,-0.141514328,0.675618763
1042,2609343,1267570,0.985,0.036,-0.03,-0.1,0,-0.1,-35.6,5.9,26.9,0.165196692,0.704397717,-0.141514328,0.675618763
1043,2613074,1267570,0.985,0.036,-0.03,0,0,-0.1,-35.6,5.9,26.9,0.165196692,0.704397717,-0.141514328,0.675618763
1044,2614494,1267570,0.988,0.036,-0.03,0,-0.1,-0.1,-35.6,5.9,26.9,0.165196692,0.704397717,-0.141514328,0.675618763
1045,2617101,1267570,0.985,0.044,-0.026,0,-0.1,0,-34.9,5.7,26.9,0.165196692,0.704397717,-0.141514328,0.675618763
1046,2620182,1267580,0.988,0.044,-0.026,0,0,0.1,-34.9,5.7,26.9,0.165196692,0.704397717,-0.141514328,0.675618763
1047,2621969,1267580,0.988,0.036,-0.03,0,0.1,0.1,-34.9,5.7,26.9,0.165196692,0.704397717,-0.141514328,0.675618763
1048,2625471,1267580,0.985,0.04,-0.026,0,0.2,0.1,-34.9,5.7,26.9,0.165196692,0.704397717,-0.141514328,0.675618763
1049,2626950,1267580,0.988,0.036,-0.03,0,0,-0.1,-34.4,6,27.1,0.16522721,0.704367199,-0.14148381,0.675649281
1050,2630076,1267590,0.988,0.036,-0.03,0,0,-0.1,-34.4,6,27.1,0.16522721,0.704367199,-0.14148381,0.675649281
1051,2632995,1267590,0.985,0.04,-0.03,-0.1,-0.1,-0.2,-34.4,6,27.1,0.16522721,0.704367199,-0.14148381,0.675649281
1052,2634518,1267590,0.985,0.04,-0.03,-0.1,-0.2,-0.2,-34.4,6,27.1,0.16522721,0.704367199,-0.14148381,0.675649281
1053,2637607,1267590,0.985,0.04,-0.022,0,-0.1,-0.1,-34.5,5.7,26.9,0.16522721,0.704367199,-0.14148381,0.675649281
1054,2640421,1267600,0.988,0.036,-0.026,0,0,0,-34.5,5.7,26.9,0.16522721,0.704367199,-0.14148381,0.675649281
1055,2641842,1267600,0.985,0.04,-0.026,0.1,0,0,-34.5,5.7,26.9,0.16522721,0.704367199,-0.14148381,0.675649281
1056,2645071,1267600,0.988,0.04,-0.03,0.1,0,0,-34.5,5.7,26.9,0.16522721,0.704367199,-0.14148381,0.675649281
1057,2647211,1267600,0.988,0.04,-0.03,0,0,0,-34.6,6,26.8,0.16522721,0.704367199,-0.14148381,0.675649281
1058,2650257,1267610,0.988,0.044,-0.03,-0.1,0,-0.1,-34.6,6,26.8,0.16522721,0.704367199,-0.14148381,0.675649281
1059,2652891,1267610,0.988,0.04,-0.03,-0.1,0,0,-34.6,6,26.8,0.16522721,0.704367199,-0.14148381,0.675649281
1060,2654494,1267610,0.985,0.04,-0.022,0,0,0,-34.6,6,26.8,0.16522721,0.704367199,-0.14148381,0.675649281
1061,2657084,1267610,0.985,0.04,-0.026,0,-0.1,0,-35.2,6,26.8,0.16522721,0.704367199,-0.14148381,0.675649281
1062,2660424,1267620,0.985,0.044,-0.034,0,0,0,-35.2,6,26.8,0.16522721,0.704367199,-0.14148381,0.675649281
1063,2661954,1267620,0.981,0.04,-0.03,0.1,0,0,-35.2,6,26.8,0.16522721,0.704367199,-0.14148381,0.675649281
1064,2664479,1267620,0.988,0.044,-0.026,0.1,0.1,0.1,-35.2,6,26.8,0.16522721,0.704367199,-0.14148381,0.675649281
1065,2666886,1267620,0.988,0.04,-0.03,0.1,0.1,0,-35,6.1,26.8,0.16522721,0.704367199,-0.14148381,0.675649281
1066,2670311,1267630,0.985,0.036,-0.026,0,0.1,0,-35,6.1,26.8,0.16522721,0.704367199,-0.14148381,0.675649281
1067,2672092,1267630,0.985,0.044,-0.034,0,0,0,-35,6.1,26.8,0.16522721,0.704367199,-0.14148381,0.675649281
1068,2674347,1267630,0.985,0.044,-0.03,0,0.1,0,-35,6.1,26.8,0.16522721,0.704367199,-0.14148381,0.675649281
1069,2677875,1267630,0.985,0.036,-0.03,0,0.3,0,-35.3,6.2,27.6,0.16522721,0.70433668,-0.14148381,0.6756798
1070,2679477,1267640,0.988,0.04,-0.03,0,0.3,0,-35.3,6.2,27.6,0.16522721,0.70433668,-0.14148381,0.6756798
1071,2681900,1267640,0.988,0.044,-0.03,0,0.3,0,-35.3,6.2,27.6,0.16522721,0.70433668,-0.141453291,0.6756798
1072,2685454,1267640,0.988,0.04,-0.026,0,0.1,0,-35.3,6.2,27.6,0.16522721,0.70433668,-0.141453291,0.6756798
1073,2687062,1267640,0.988,0.04,-0.03,0,0,0,-34.8,5.8,28.2,0.16522721,0.70433668,-0.141453291,0.6756798
1074,2689666,1267650,0.988,0.04,-0.026,0,0,0,-34.8,5.8,28.2,0.16522721,0.70433668,-0.141453291,0.6756798
1075,2691948,1267650,0.981,0.04,-0.03,0,-0.1,0,-34.8,5.8,28.2,0.16522721,0.70433668,-0.14148381,0.6756798
1076,2695004,1267650,0.985,0.04,-0.03,0,-0.1,0.1,-34.8,5.8,28.2,0.16522721,0.70433668,-0.14148381,0.6756798
1077,2697293,1267650,0.985,0.036,-0.03,0,-0.1,0.1,-35,5.9,28.2,0.16522721,0.70433668,-0.14148381,0.6756798
1078,2699538,1267660,0.988,0.04,-0.034,0,0,0,-35,5.9,28.2,0.16522721,0.70433668,-0.14148381,0.6756798
1079,2702134,1267660,0.985,0.04,-0.034,0,0,0,-35,5.9,28.2,0.16522721,0.70433668,-0.14148381,0.6756798
1080,2705163,1267660,0.985,0.04,-0.018,0,0,0,-35,5.9,28.2,0.16522721,0.70433668,-0.14148381,0.6756798
1081,2707378,1267660,0.985,0.04,-0.03,0,0,0,-34.9,5.9,25.2,0.16522721,0.70433668,-0.14148381,0.6756798
1082,2710585,1267670,0.985,0.04,-0.026,0,0,0,-34.9,5.9,25.2,0.16522721,0.70433668,-0.14148381,0.6756798
1083,2712011,1267670,0.988,0.036,-0.03,-0.1,-0.1,0,-34.9,5.9,25.2,0.165257729,0.70433668,-0.14148381,0.6756798
1084,2715092,1267670,0.985,0.04,-0.03,-0.1,-0.1,0,-34.9,5.9,25.2,0.165257729,0.70433668,-0.14148381,0.6756798
1085,2717197,1267670,0.988,0.04,-0.03,0,0,0,-35,6.1,27.8,0.165257729,0.70433668,-0.14148381,0.6756798
1086,2720429,1267680,0.985,0.036,-0.03,0,0,-0.1,-35,6.1,27.8,0.165257729,0.70433668,-0.14148381,0.6756798
1087,2722751,1267680,0.981,0.04,-0.03,0,0,-0.1,-35,6.1,27.8,0.165257729,0.70433668,-0.14148381,0.6756798
1088,2724852,1267680,0.985,0.036,-0.03,0,-0.1,-0.1,-35,6.1,27.8,0.165257729,0.70433668,-0.14148381,0.6756798
1089,2727121,1267680,0.988,0.044,-0.03,0,-0.1,-0.1,-34.7,6.2,28,0.16522721,0.70433668,-0.14148381,0.6756798
1090,2729446,1267690,0.988,0.044,-0.03,0,-0.1,-0.1,-34.7,6.2,28,0.16522721,0.70433668,-0.14148381,0.6756798
1091,2731944,1267690,0.985,0.036,-0.03,0.1,0,-0.1,-34.7,6.2,28,0.16522721,0.70433668,-0.14148381,0.6756798
1092,2735427,1267690,0.988,0.036,-0.026,0,0.1,0,-34.7,6.2,28,0.16522721,0.70433668,-0.14148381,0.6756798
1093,2737120,1267690,0.985,0.036,-0.03,0,0.1,0,-35.1,6,27.2,0.16522721,0.70433668,-0.14148381,0.6756798
1094,2739564,1267700,0.981,0.048,-0.03,0,0.1,0,-35.1,6,27.2,0.16522721,0.70433668,-0.14148381,0.6756798
1095,2742663,1267700,0.981,0.036,-0.03,0,0.1,0,-35.1,6,27.2,0.16522721,0.704306162,-0.14148381,0.6756798
1096,2744834,1267700,0.985,0.04,-0.03,0,0.1,0,-35.1,6,27.2,0.16522721,0.704306162,-0.14148381,0.675710318
1097,2747066,1267700,0.985,0.044,-0.03,0,0,-0.1,-35,6,26.7,0.16522721,0.704306162,-0.14148381,0.675710318
1098,2749467,1267710,0.988,0.036,-0.038,0,0,-0.1,-35,6,26.7,0.16522721,0.704306162,-0.14148381,0.675710318
1099,2752670,1267710,0.981,0.04,-0.034,0,0,0,-35,6,26.7,0.16522721,0.704306162,-0.14148381,0.675710318
