sample_index,elapsed_us,device_time_ms,acc_x_g,acc_y_g,acc_z_g,gyro_x_dps,gyro_y_dps,gyro_z_dps,mag_x_ut,mag_y_ut,mag_z_ut,quat_w,quat_x,quat_y,quat_z
0,5322,475450,-0.636,-0.531,0.577,1.2,3.1,-0.7,4.9,-7.5,-24.1,0.485000153,0.14065981,0.445173498,-0.739432966
1,7438,475450,-0.64,-0.535,0.577,1.1,3.1,-0.8,4.9,-7.5,-24.1,0.484969634,0.140720847,0.445204016,-0.739432966
2,10876,475460,-0.64,-0.531,0.573,1,3.2,-0.9,4.8,-7.5,-24.6,0.48484756,0.14065981,0.445204016,-0.739494003
3,12246,475460,-0.64,-0.527,0.577,0.8,3.4,-0.9,4.8,-7.5,-24.6,0.484817042,0.140720847,0.445234535,-0.739494003
4,15053,475460,-0.64,-0.527,0.581,0.5,3.5,-0.9,4.8,-7.5,-24.6,0.484786523,0.140781884,0.445265053,-0.739494003
5,18058,475460,-0.64,-0.527,0.581,0.4,3.5,-0.9,4.8,-7.5,-24.6,0.484725486,0.140812403,0.445295572,-0.739494003
6,19422,475470,-0.64,-0.531,0.585,0.1,3.6,-0.9,5.2,-7.3,-24,0.484664449,0.140842921,0.44532609,-0.739494003
7,22389,475470,-0.644,-0.535,0.577,-0.1,3.6,-0.9,5.2,-7.3,-24,0.48463393,0.140934477,0.445387127,-0.739494003
8,24975,475470,-0.644,-0.527,0.585,-0.4,3.7,-0.8,5.2,-7.3,-24,0.484572893,0.140964995,0.445417646,-0.739494003
9,27967,475470,-0.64,-0.531,0.581,-0.7,3.8,-0.8,5.2,-7.3,-24,0.484542375,0.141026032,0.445478683,-0.739494003
10,29514,475480,-0.648,-0.531,0.573,-0.9,3.9,-0.9,5.2,-7.2,-24.5,0.484481338,0.141056551,0.44553972,-0.739463485
11,32124,475480,-0.644,-0.539,0.577,-1.1,3.9,-0.9,5.2,-7.2,-24.5,0.484420301,0.141117588,0.445600757,-0.739463485
12,35610,475480,-0.652,-0.539,0.577,-1.1,3.9,-0.9,5.2,-7.2,-24.5,0.484389782,0.141148106,0.445661794,-0.739463485
13,37127,475480,-0.644,-0.535,0.585,-0.9,4,-0.9,5.2,-7.2,-24.5,0.484328745,0.141209143,0.445722831,-0.739432966
14,40181,475490,-0.652,-0.535,0.573,-0.8,4,-1,5.3,-7.4,-24.7,0.484267708,0.141239662,0.445783868,-0.739432966
15,42065,475490,-0.648,-0.539,0.577,-0.6,4,-1,5.3,-7.4,-24.7,0.484206671,0.141300699,0.445844905,-0.739432966
16,44371,475490,-0.648,-0.539,0.581,-0.6,4.1,-1.1,5.3,-7.4,-24.7,0.484176153,0.141331217,0.445905942,-0.739402448
17,47371,475490,-0.644,-0.535,0.577,-0.6,4.1,-1.2,5.3,-7.4,-24.7,0.484115116,0.141392254,0.445966979,-0.739402448
18,50181,475500,-0.648,-0.535,0.573,-0.5,4.1,-1.4,4.9,-7.6,-25,0.484054079,0.141422773,0.446028016,-0.739402448
19,52428,475500,-0.652,-0.539,0.577,-0.3,4,-1.5,4.9,-7.6,-25,0.483962523,0.14148381,0.446058535,-0.739402448
20,54406,475500,-0.648,-0.539,0.573,-0.1,3.9,-1.5,4.9,-7.6,-25,0.483901486,0.141514328,0.446119572,-0.739402448
21,57507,475500,-0.644,-0.539,0.573,0.1,3.9,-1.5,4.9,-7.6,-25,0.483840449,0.141575365,0.44615009,-0.739402448
22,59622,475510,-0.648,-0.539,0.573,0.4,3.9,-1.5,5.2,-7.6,-23.8,0.483779412,0.141544847,0.446180609,-0.739463485
23,62872,475510,-0.648,-0.539,0.573,0.7,3.9,-1.5,5.2,-7.6,-23.8,0.483687857,0.141605884,0.446211127,-0.739463485
24,65280,475510,-0.648,-0.531,0.573,0.9,3.9,-1.5,5.2,-7.6,-23.8,0.48362682,0.141666921,0.446241646,-0.739494003
25,67263,475510,-0.648,-0.535,0.569,1.1,3.8,-1.5,5.2,-7.6,-23.8,0.483565783,0.141697439,0.446272164,-0.739494003
26,69532,475520,-0.648,-0.535,0.566,1.3,3.6,-1.6,5.3,-7.1,-23.8,0.483504746,0.141758477,0.446302683,-0.739524522
27,71915,475520,-0.644,-0.535,0.569,1.5,3.4,-1.7,5.3,-7.1,-23.8,0.483443709,0.141819514,0.446302683,-0.73955504
28,74572,475520,-0.652,-0.531,0.57,1.7,3.3,-1.6,5.3,-7.1,-23.8,0.483352153,0.141880551,0.446333201,-0.73955504
29,77643,475520,-0.648,-0.531,0.569,1.8,3.2,-1.6,5.3,-7.1,-23.8,0.483291116,0.141941588,0.446333201,-0.739585559
30,79915,475530,-0.648,-0.535,0.569,1.9,3.1,-1.6,4.8,-7.5,-23.2,0.483230079,0.142002625,0.446333201,-0.739616077
31,81969,475530,-0.644,-0.531,0.569,2,3.1,-1.7,4.8,-7.5,-23.2,0.483169042,0.142033143,0.44636372,-0.739646596
32,85013,475530,-0.648,-0.535,0.566,2.1,3.1,-1.6,4.8,-7.5,-23.2,0.483108005,0.14209418,0.44636372,-0.739677114
33,87752,475530,-0.648,-0.531,0.573,2,3.1,-1.5,4.8,-7.5,-23.2,0.483046968,0.142155217,0.44636372,-0.739707633
34,89656,475540,-0.648,-0.531,0.569,1.9,3,-1.5,5,-7.2,-23.8,0.482985931,0.142216254,0.44636372,-0.739738151
35,92518,475540,-0.648,-0.531,0.569,1.6,2.9,-1.6,5,-7.2,-23.8,0.482894375,0.142277291,0.44636372,-0.73976867
36,94437,475540,-0.648,-0.527,0.569,1.5,2.9,-1.7,5,-7.2,-23.8,0.482863857,0.14230781,0.446394238,-0.73976867
37,97825,475540,-0.644,-0.531,0.565,1.3,2.9,-1.6,5,-7.2,-23.8,0.48280282,0.142368847,0.446394238,-0.739799188
38,99610,475550,-0.644,-0.519,0.569,1.3,2.8,-1.5,5.3,-7.2,-23.7,0.482741783,0.142399365,0.446424757,-0.739829707
39,102027,475550,-0.648,-0.527,0.573,1.2,2.6,-1.4,5.3,-7.2,-23.7,0.482680746,0.142429884,0.446424757,-0.739829707
40,104325,475550,-0.644,-0.523,0.565,1.1,2.4,-1.4,5.3,-7.2,-23.7,0.482650227,0.142490921,0.446424757,-0.739860225
41,107725,475550,-0.64,-0.531,0.573,1,2.3,-1.5,5.3,-7.2,-23.7,0.48258919,0.142521439,0.446455275,-0.739890744
42,109963,475560,-0.644,-0.527,0.573,0.9,2.4,-1.5,3.4,-7.5,-23.8,0.482558672,0.142521439,0.44636372,-0.739951781
43,112713,475560,-0.644,-0.527,0.569,0.9,2.4,-1.5,3.4,-7.5,-23.8,0.482528153,0.142551958,0.446394238,-0.739951781
44,114360,475560,-0.644,-0.531,0.573,0.8,2.5,-1.5,3.4,-7.5,-23.8,0.482467116,0.142582476,0.446394238,-0.739982299
45,117084,475560,-0.644,-0.531,0.569,0.8,2.4,-1.4,3.4,-7.5,-23.8,0.482406079,0.142643513,0.446424757,-0.739982299
46,119950,475570,-0.648,-0.531,0.573,0.7,2.4,-1.4,7.3,-7.3,-23.7,0.482375561,0.142674032,0.446455275,-0.740012818
47,123006,475570,-0.644,-0.539,0.573,0.7,2.3,-1.5,7.3,-7.3,-23.7,0.482314524,0.14270455,0.446455275,-0.740012818
48,124474,475570,-0.64,-0.539,0.577,0.8,2.1,-1.5,7.3,-7.3,-23.7,0.482253487,0.142735069,0.446485794,-0.740043336
49,127224,475570,-0.644,-0.539,0.573,1.1,2.1,-1.5,7.3,-7.3,-23.7,0.482222968,0.142765587,0.446485794,-0.740073855
50,129516,475580,-0.644,-0.539,0.577,1.3,2,-1.6,7.2,-7.2,-24.1,0.482161931,0.142796106,0.446485794,-0.740073855
51,132826,475580,-0.64,-0.535,0.581,1.4,2,-1.7,7.2,-7.2,-24.1,0.482100894,0.142796106,0.446485794,-0.740104373
52,134983,475580,-0.64,-0.539,0.581,1.6,1.9,-1.7,7.2,-7.2,-24.1,0.482070376,0.142857143,0.446485794,-0.740134892
53,137351,475580,-0.64,-0.539,0.581,1.8,2,-1.7,7.2,-7.2,-24.1,0.482009339,0.142887661,0.446485794,-0.74016541
54,139545,475590,-0.644,-0.543,0.577,2,2.1,-1.7,7.2,-7.4,-23.9,0.481948302,0.14291818,0.446485794,-0.740195929
55,142148,475590,-0.644,-0.539,0.581,2.3,2.2,-1.8,7.2,-7.4,-23.9,0.481887265,0.142979217,0.446485794,-0.740226447
56,144465,475590,-0.64,-0.543,0.573,2.5,2.1,-1.9,7.2,-7.4,-23.9,0.481826228,0.143009735,0.446455275,-0.740287484
57,147775,475590,-0.64,-0.539,0.581,2.8,2,-1.9,7.2,-7.4,-23.9,0.481765191,0.143040254,0.446455275,-0.740318003
58,150034,475600,-0.64,-0.539,0.577,3,2.1,-1.9,6.7,-7.1,-23.8,0.481704154,0.143101291,0.446424757,-0.740348521
59,152240,475600,-0.644,-0.531,0.577,3.2,2.3,-1.9,6.7,-7.1,-23.8,0.481643117,0.143162328,0.446394238,-0.740409558
60,154493,475600,-0.644,-0.531,0.577,3.4,2.4,-1.8,6.7,-7.1,-23.8,0.48158208,0.143223365,0.44636372,-0.740440077
61,157578,475600,-0.64,-0.535,0.577,3.5,2.4,-1.7,6.7,-7.1,-23.8,0.481521043,0.143284402,0.44636372,-0.740501114
62,159621,475610,-0.644,-0.539,0.577,3.6,2.3,-1.8,4.7,-7.6,-23.6,0.481460005,0.143192846,0.446241646,-0.740623188
63,162776,475610,-0.644,-0.535,0.577,3.7,2.2,-1.9,4.7,-7.6,-23.6,0.481398968,0.143253883,0.446180609,-0.740684225
64,164988,475610,-0.644,-0.535,0.569,3.9,2.2,-1.9,4.7,-7.6,-23.6,0.481307413,0.14331492,0.44615009,-0.740714743
65,167330,475610,-0.644,-0.531,0.573,3.9,2.2,-2,4.7,-7.6,-23.6,0.481246376,0.143375958,0.446119572,-0.740775781
66,169522,475620,-0.644,-0.535,0.573,4,2.1,-2,5.7,-7.7,-23.5,0.481185339,0.143436995,0.446089053,-0.740836818
67,172266,475620,-0.644,-0.535,0.569,4.1,2.1,-1.9,5.7,-7.7,-23.5,0.481124302,0.143498032,0.446058535,-0.740897855
68,174469,475620,-0.644,-0.535,0.577,4.2,2.2,-1.9,5.7,-7.7,-23.5,0.481063265,0.143559069,0.446028016,-0.740928373
69,177921,475620,-0.644,-0.535,0.569,4.3,2.2,-2,5.7,-7.7,-23.5,0.480941191,0.143620106,0.445966979,-0.74098941
70,179479,475630,-0.648,-0.535,0.566,4.4,2.3,-2,6.1,-7.8,-23.5,0.480910672,0.143681143,0.44593646,-0.741050447
71,182255,475630,-0.644,-0.531,0.565,4.5,2.3,-2,6.1,-7.8,-23.5,0.480849635,0.14374218,0.445905942,-0.741111484
72,185148,475630,-0.644,-0.531,0.569,4.5,2.3,-2.1,6.1,-7.8,-23.5,0.48075808,0.143772698,0.445844905,-0.741172521
73,187666,475630,-0.644,-0.523,0.562,4.5,2.2,-2.1,6.1,-7.8,-23.5,0.480697043,0.143894772,0.445783868,-0.741233558
74,189872,475640,-0.644,-0.523,0.562,4.4,2.2,-2.2,5.7,-7.6,-23.7,0.480636006,0.143955809,0.445753349,-0.741294595
75,192063,475640,-0.644,-0.527,0.565,4.3,2.3,-2.2,5.7,-7.6,-23.7,0.48054445,0.144016846,0.445722831,-0.741355632
76,194477,475640,-0.644,-0.519,0.569,4.3,2.4,-2.2,5.7,-7.6,-23.7,0.480483413,0.144077883,0.445692312,-0.741416669
77,197029,475640,-0.644,-0.527,0.569,4.3,2.4,-2.4,5.7,-7.6,-23.7,0.480391858,0.14413892,0.445661794,-0.741477706
78,199406,475650,-0.64,-0.531,0.569,4.4,2.4,-2.4,4.9,-7.6,-23.3,0.480330821,0.144199957,0.445600757,-0.741538743
79,203055,475650,-0.644,-0.531,0.573,4.5,2.3,-2.4,4.9,-7.6,-23.3,0.480239265,0.144260994,0.445570238,-0.74159978
80,204667,475650,-0.64,-0.531,0.569,4.6,2.2,-2.4,4.9,-7.6,-23.3,0.480178228,0.144322031,0.44553972,-0.741660817
81,207023,475650,-0.636,-0.535,0.569,4.7,2.1,-2.5,4.9,-7.6,-23.3,0.480086673,0.144383068,0.445478683,-0.741721854
82,209535,475660,-0.644,-0.535,0.569,4.9,2,-2.6,5.8,-7.4,-23.7,0.479995117,0.144322031,0.445387127,-0.741843928
83,212290,475660,-0.644,-0.535,0.569,5,1.9,-2.7,5.8,-7.4,-23.7,0.479903562,0.144383068,0.44532609,-0.741935484
84,215085,475660,-0.644,-0.535,0.565,5.2,1.9,-2.8,5.8,-7.4,-23.7,0.479842524,0.144444105,0.445295572,-0.741996521
85,217346,475660,-0.64,-0.531,0.561,5.2,1.9,-2.8,5.8,-7.4,-23.7,0.479750969,0.144505142,0.445234535,-0.742088076
86,219548,475670,-0.64,-0.527,0.561,5.2,2,-2.8,3.6,-7.4,-23.3,0.479659413,0.144566179,0.445173498,-0.742149113
87,222308,475670,-0.636,-0.527,0.561,5.2,2.1,-2.8,3.6,-7.4,-23.3,0.479598376,0.144627216,0.445112461,-0.74221015
88,225181,475670,-0.64,-0.527,0.561,5.1,2.2,-2.8,3.6,-7.4,-23.3,0.479506821,0.144688253,0.445081942,-0.742301706
89,227317,475670,-0.636,-0.523,0.557,5,2.3,-2.7,3.6,-7.4,-23.3,0.479415265,0.14474929,0.445020905,-0.742362743
90,230095,475680,-0.644,-0.523,0.558,4.9,2.4,-2.7,3.2,-7.5,-23.3,0.47932371,0.144810327,0.444990387,-0.74242378
91,232337,475680,-0.64,-0.527,0.558,4.8,2.5,-2.7,3.2,-7.5,-23.3,0.479262673,0.144871364,0.44492935,-0.742515336
92,235147,475680,-0.64,-0.523,0.561,4.7,2.7,-2.7,3.2,-7.5,-23.3,0.479171117,0.144932402,0.444898831,-0.742576373
93,237387,475680,-0.644,-0.523,0.565,4.7,2.7,-2.7,3.2,-7.5,-23.3,0.479079562,0.145023957,0.444868313,-0.74263741
94,239660,475690,-0.644,-0.527,0.565,4.7,2.9,-2.7,2.9,-7.6,-23.6,0.478988006,0.145084994,0.444807276,-0.742698447
95,241900,475690,-0.644,-0.527,0.562,4.7,2.9,-2.5,2.9,-7.6,-23.6,0.478896451,0.145146031,0.444776757,-0.742759484
96,244379,475690,-0.644,-0.527,0.569,4.6,3,-2.4,2.9,-7.6,-23.6,0.478835414,0.145237587,0.444746239,-0.742820521
97,247916,475690,-0.648,-0.527,0.566,4.4,3,-2.4,2.9,-7.6,-23.6,0.478743858,0.145298624,0.44471572,-0.742881558
98,249353,475700,-0.648,-0.527,0.562,4.3,3.1,-2.5,3.4,-7.4,-23.2,0.478652303,0.145359661,0.444685202,-0.742942595
99,252050,475700,-0.648,-0.527,0.566,4.1,3,-2.5,3.4,-7.4,-23.2,0.478560747,0.145451216,0.444654683,-0.743003632
100,254926,475700,-0.656,-0.523,0.566,4.1,3,-2.5,3.4,-7.4,-23.2,0.478469192,0.145512253,0.444624165,-0.743064669
101,257936,475700,-0.648,-0.527,0.566,4.1,2.9,-2.4,3.4,-7.4,-23.2,0.478408155,0.14557329,0.444593646,-0.743125706
102,260907,475710,-0.652,-0.527,0.566,4,2.7,-2.3,6.8,-9.1,-23.6,0.478316599,0.145664846,0.444563128,-0.743156224
103,262248,475710,-0.656,-0.527,0.57,3.9,2.9,-2.3,6.8,-9.1,-23.6,0.478255562,0.145725883,0.444563128,-0.743217261
104,265092,475710,-0.652,-0.531,0.573,3.8,3,-2.4,6.8,-9.1,-23.6,0.478164006,0.14578692,0.444532609,-0.74324778
105,267846,475710,-0.652,-0.535,0.57,3.8,3.2,-2.6,6.8,-9.1,-23.6,0.478072451,0.145878475,0.444502091,-0.743308817
106,269363,475720,-0.652,-0.535,0.566,4.1,3.3,-2.7,4.6,-6.1,-23.3,0.477980895,0.145939512,0.444471572,-0.743369854
107,272153,475720,-0.648,-0.543,0.57,4.4,3.3,-2.7,4.6,-6.1,-23.3,0.47788934,0.146000549,0.444471572,-0.743430891
108,274968,475720,-0.652,-0.539,0.57,4.7,3.2,-2.7,4.6,-6.1,-23.3,0.477797784,0.146092105,0.444410535,-0.743491928
109,276863,475720,-0.652,-0.539,0.573,5.1,3.1,-2.7,4.6,-6.1,-23.3,0.477706229,0.146153142,0.444380016,-0.743552965
110,280030,475730,-0.656,-0.542,0.566,5.4,3.1,-2.7,5.1,-6.5,-23.5,0.477614673,0.146244697,0.444318979,-0.74364452
111,282894,475730,-0.66,-0.535,0.566,5.6,3.1,-2.8,5.1,-6.5,-23.5,0.477523118,0.146336253,0.444288461,-0.743705557
112,285937,475730,-0.652,-0.531,0.566,5.7,3.1,-2.9,5.1,-6.5,-23.5,0.477431562,0.146427808,0.444227424,-0.743797113
113,287466,475730,-0.648,-0.531,0.566,5.8,3.1,-3,5.1,-6.5,-23.5,0.477340007,0.146488845,0.444166387,-0.74385815
114,289777,475740,-0.648,-0.527,0.562,5.9,3,-3.2,6.3,-6,-23.3,0.477217933,0.146580401,0.444135868,-0.743949705
115,291941,475740,-0.648,-0.527,0.566,6,3,-3.2,6.3,-6,-23.3,0.477126377,0.146671957,0.444074831,-0.744041261
116,294493,475740,-0.648,-0.527,0.566,6,3,-3.2,6.3,-6,-23.3,0.477034822,0.146702475,0.444013794,-0.744102298
117,297964,475740,-0.648,-0.531,0.562,6,3.2,-3.1,6.3,-6,-23.3,0.476912748,0.146824549,0.443952757,-0.744193854
118,299447,475750,-0.648,-0.527,0.558,6.1,3.2,-3,6.2,-6.4,-23.4,0.476821192,0.146916105,0.44389172,-0.744285409
119,302809,475750,-0.648,-0.535,0.562,6.1,3.2,-3,6.2,-6.4,-23.4,0.476729637,0.14700766,0.443830683,-0.744346446
120,304691,475750,-0.648,-0.531,0.566,6,3.2,-3,6.2,-6.4,-23.4,0.476638081,0.147068697,0.443800165,-0.744438002
121,306929,475750,-0.648,-0.531,0.566,5.9,3.2,-3,6.2,-6.4,-23.4,0.476516007,0.147160253,0.443739128,-0.744529557
122,310066,475760,-0.648,-0.539,0.569,5.8,3.2,-3,5.6,-8.5,-23.5,0.476393933,0.14722129,0.443739128,-0.744590594
123,312336,475760,-0.648,-0.535,0.569,5.8,3.3,-3,5.6,-8.5,-23.5,0.476302377,0.147312845,0.443708609,-0.744651631
124,314477,475760,-0.648,-0.543,0.573,5.7,3.3,-3,5.6,-8.5,-23.5,0.476180303,0.147404401,0.443647572,-0.744743187
125,316985,475760,-0.644,-0.535,0.569,5.7,3.3,-3,5.6,-8.5,-23.5,0.476088748,0.147495956,0.443617054,-0.744804224
126,320163,475770,-0.644,-0.539,0.573,5.8,3.3,-2.8,5.5,-7.2,-23.3,0.475997192,0.147556993,0.443556017,-0.744895779
127,322531,475770,-0.644,-0.543,0.581,5.8,3.3,-2.6,5.5,-7.2,-23.3,0.475905637,0.147648549,0.44349498,-0.744956816
128,324801,475770,-0.64,-0.547,0.573,5.8,3.5,-2.5,5.5,-7.2,-23.3,0.475814081,0.147740104,0.443464461,-0.745048372
129,327001,475770,-0.64,-0.547,0.581,6,3.5,-2.6,5.5,-7.2,-23.3,0.475692007,0.147862178,0.443403424,-0.745109409
130,329365,475780,-0.644,-0.547,0.581,6.3,3.4,-2.6,5.9,-7.1,-23.6,0.475600452,0.147953734,0.443342387,-0.745200964
131,332130,475780,-0.64,-0.555,0.581,6.5,3.4,-2.5,5.9,-7.1,-23.6,0.475508896,0.148045289,0.44328135,-0.745262001
132,336083,475780,-0.64,-0.551,0.569,6.8,3.3,-2.4,5.9,-7.1,-23.6,0.475417341,0.148136845,0.443220313,-0.745353557
133,338270,475780,-0.64,-0.551,0.569,7.1,3.2,-2.4,5.9,-7.1,-23.6,0.475325785,0.148258919,0.443128758,-0.745414594
134,340441,475790,-0.636,-0.551,0.565,7.4,3.3,-2.3,5.7,-7.1,-23.5,0.47523423,0.148350475,0.443067721,-0.745506149
135,342919,475790,-0.64,-0.551,0.569,7.5,3.5,-2.3,5.7,-7.1,-23.5,0.475142674,0.148472549,0.442976165,-0.745597705
136,345006,475790,-0.64,-0.543,0.573,7.6,3.6,-2.1,5.7,-7.1,-23.5,0.475051119,0.148594623,0.44288461,-0.745689261
137,347099,475790,-0.636,-0.535,0.577,7.6,3.7,-2.1,5.7,-7.1,-23.5,0.474929044,0.148716697,0.442823572,-0.745780816
138,350124,475800,-0.636,-0.535,0.573,7.6,3.7,-2,5.5,-7.8,-23.6,0.474837489,0.148838771,0.442732017,-0.745841853
139,351970,475800,-0.636,-0.527,0.573,7.5,3.8,-2.1,5.5,-7.8,-23.6,0.474745933,0.148960845,0.44267098,-0.745933409
140,355407,475800,-0.628,-0.527,0.569,7.5,3.8,-2.1,5.5,-7.8,-23.6,0.474654378,0.149082919,0.442579424,-0.746024964
141,357465,475800,-0.64,-0.523,0.573,7.4,3.9,-2.1,5.5,-7.8,-23.6,0.474562822,0.149204993,0.442518387,-0.746086001
142,360512,475810,-0.636,-0.519,0.573,7.3,3.9,-2,5.6,-7.2,-23.3,0.474440748,0.149174474,0.442396313,-0.746238594
143,362644,475810,-0.636,-0.519,0.573,7.2,3.9,-2,5.6,-7.2,-23.3,0.474349193,0.149296548,0.442335276,-0.746330149
144,365125,475810,-0.636,-0.523,0.569,7.1,4.1,-2,5.6,-7.2,-23.3,0.474257637,0.149418622,0.442274239,-0.746391186
145,367883,475810,-0.635,-0.515,0.577,7,4.2,-2.1,5.6,-7.2,-23.3,0.474135563,0.149540696,0.442213202,-0.746482742
146,370179,475820,-0.636,-0.519,0.569,6.9,4.3,-2.1,5.6,-7.2,-23.3,0.474044008,0.149632252,0.442152165,-0.746543779
147,372425,475820,-0.64,-0.523,0.569,6.8,4.4,-2.2,5.6,-7.2,-23.3,0.473952452,0.149784845,0.442091128,-0.746635334
148,374673,475820,-0.632,-0.519,0.573,6.9,4.4,-2.2,5.6,-7.2,-23.3,0.473830378,0.149906919,0.442030091,-0.746696371
149,378215,475820,-0.64,-0.519,0.569,6.8,4.4,-2.2,5.6,-7.2,-23.3,0.473738823,0.150028993,0.441969054,-0.746787927
150,379919,475830,-0.64,-0.527,0.569,6.7,4.5,-2.4,5.6,-7.2,-23.3,0.473647267,0.150151067,0.441877499,-0.746848964
151,382223,475830,-0.636,-0.519,0.565,6.5,4.7,-2.4,5.6,-7.2,-23.3,0.473525193,0.150273141,0.44184698,-0.746910001
152,386245,475830,-0.64,-0.515,0.565,6.4,4.9,-2.6,5.6,-7.2,-23.3,0.473403119,0.150395215,0.441816462,-0.747001556
153,386903,475830,-0.64,-0.515,0.561,6.3,5,-2.7,5.6,-7.2,-23.3,0.473311563,0.150517289,0.441755425,-0.747062593
154,389348,475840,-0.64,-0.515,0.561,6.3,5,-3,5.6,-7.2,-23.3,0.473189489,0.150608844,0.441724906,-0.747154149
155,392862,475840,-0.644,-0.515,0.561,6.3,5,-3.2,5.6,-7.2,-23.3,0.473067415,0.150761437,0.441694388,-0.747215186
156,395066,475840,-0.648,-0.519,0.566,6.4,4.9,-3.5,5.6,-7.2,-23.3,0.472945341,0.150883511,0.441633351,-0.747306742
157,397048,475840,-0.643,-0.511,0.569,6.5,4.8,-3.7,5.6,-7.2,-23.3,0.472792749,0.150975066,0.441602832,-0.747398297
158,400307,475850,-0.647,-0.515,0.566,6.6,4.9,-4,5.6,-7.2,-23.3,0.472670675,0.15109714,0.441541795,-0.747489853
159,402235,475850,-0.652,-0.519,0.562,6.7,4.9,-4.2,5.6,-7.2,-23.3,0.472518082,0.151188696,0.441511277,-0.747581408
160,405519,475850,-0.647,-0.515,0.566,7,4.8,-4.6,5.6,-7.2,-23.3,0.472396008,0.15131077,0.44145024,-0.747672964
161,407974,475850,-0.651,-0.515,0.566,7.2,4.6,-4.7,5.6,-7.2,-23.3,0.472243416,0.151402326,0.441389203,-0.747764519
162,410215,475860,-0.652,-0.519,0.562,7.5,4.5,-4.9,6,-6.1,-21.7,0.472121342,0.151585437,0.441328166,-0.747856075
163,412007,475860,-0.652,-0.523,0.558,7.7,4.5,-5.1,6,-6.1,-21.7,0.471968749,0.151707511,0.441267129,-0.747978149
164,414549,475860,-0.652,-0.523,0.562,8,4.5,-5.5,6,-6.1,-21.7,0.471816156,0.151799066,0.441206091,-0.748100223
165,417048,475860,-0.652,-0.523,0.562,8.3,4.5,-5.9,6,-6.1,-21.7,0.471633045,0.151890622,0.441145054,-0.748222297
166,420378,475870,-0.656,-0.523,0.566,8.5,4.4,-6.3,6,-6.1,-21.7,0.471449934,0.152012696,0.441053499,-0.748344371
167,422579,475870,-0.655,-0.519,0.566,8.6,4.2,-6.7,6,-6.1,-21.7,0.471266823,0.152104251,0.440992462,-0.748496963
168,424725,475870,-0.656,-0.527,0.566,8.8,4.2,-7,6,-6.1,-21.7,0.471083712,0.152195807,0.440900906,-0.748619037
169,427108,475870,-0.655,-0.519,0.57,9.1,4.3,-7.2,6,-6.1,-21.7,0.470900601,0.152287362,0.440839869,-0.74877163
170,429590,475880,-0.66,-0.527,0.566,9.4,4.3,-7.3,6,-6.1,-21.7,0.47071749,0.152378918,0.440748314,-0.748924223
171,431989,475880,-0.652,-0.527,0.562,9.6,4.2,-7.5,6,-6.1,-21.7,0.470503861,0.152470473,0.440656758,-0.749076815
172,435038,475880,-0.656,-0.527,0.566,9.8,3.9,-7.7,6,-6.1,-21.7,0.47032075,0.152562029,0.440565203,-0.749259926
173,438149,475880,-0.66,-0.527,0.558,9.9,3.7,-7.9,6,-6.1,-21.7,0.47010712,0.152653584,0.440473647,-0.749412519
174,440077,475890,-0.656,-0.523,0.558,9.9,3.7,-8,6,-6.1,-21.7,0.469924009,0.15274514,0.440382092,-0.74959563
175,442468,475890,-0.656,-0.531,0.566,9.9,3.7,-8.2,6,-6.1,-21.7,0.469710379,0.152836695,0.440260018,-0.749748222
176,445386,475890,-0.66,-0.531,0.562,10.1,3.7,-8.4,6,-6.1,-21.7,0.46949675,0.152897732,0.440168462,-0.749931333
177,447646,475890,-0.656,-0.523,0.562,10.1,3.5,-8.6,6,-6.1,-21.7,0.46928312,0.152989288,0.440076907,-0.750083926
178,449895,475900,-0.656,-0.527,0.562,10.2,3.4,-8.6,6,-6.1,-21.7,0.469069491,0.153050325,0.439924314,-0.750267037
179,452021,475900,-0.656,-0.523,0.562,10.2,3.4,-8.6,6,-6.1,-21.7,0.46888638,0.153141881,0.439863277,-0.750450148
180,454753,475900,-0.659,-0.519,0.558,10.1,3.4,-8.6,6,-6.1,-21.7,0.46867275,0.153202918,0.439771722,-0.750633259
181,456989,475900,-0.652,-0.523,0.558,9.9,3.4,-8.8,6,-6.1,-21.7,0.46845912,0.153294473,0.439649648,-0.750785852
182,460274,475910,-0.656,-0.523,0.558,9.7,3.5,-8.9,6,-8,-24.1,0.468214972,0.153447066,0.439680166,-0.750877407
183,461896,475910,-0.656,-0.523,0.558,9.5,3.5,-8.9,6,-8,-24.1,0.468001343,0.153538621,0.43958861,-0.751060518
184,465204,475910,-0.652,-0.523,0.562,9.4,3.7,-8.9,6,-8,-24.1,0.467787713,0.153599658,0.439527573,-0.751243629
185,466935,475910,-0.663,-0.523,0.558,9.2,3.7,-8.9,6,-8,-24.1,0.467574084,0.153660695,0.439436018,-0.751396222
186,469676,475920,-0.659,-0.519,0.558,9.1,3.7,-8.9,6.2,-8,-23.7,0.467360454,0.153721732,0.439344462,-0.751579333
187,471840,475920,-0.659,-0.519,0.558,8.9,3.5,-8.8,6.2,-8,-23.7,0.467146825,0.153813288,0.439252907,-0.751731925
188,475213,475920,-0.663,-0.519,0.558,8.8,3.4,-8.8,6.2,-8,-23.7,0.466963713,0.153874325,0.43919187,-0.751884518
189,477481,475920,-0.659,-0.519,0.558,8.7,3.4,-8.9,6.2,-8,-23.7,0.466750084,0.153935362,0.439100314,-0.752067629
190,479682,475930,-0.664,-0.523,0.55,8.5,3.4,-9,6.1,-8.1,-23.9,0.466536454,0.15396588,0.439039277,-0.752220222
191,482300,475930,-0.667,-0.523,0.554,8.3,3.4,-9.1,6.1,-8.1,-23.9,0.466322825,0.154026917,0.43897824,-0.752372814
192,486480,475930,-0.667,-0.523,0.558,8.1,3.3,-9.1,6.1,-8.1,-23.9,0.466109195,0.154087954,0.438886685,-0.752525407
193,487287,475930,-0.668,-0.526,0.554,7.9,3.3,-9.2,6.1,-8.1,-23.9,0.465895566,0.154118473,0.438825648,-0.752708518
194,489422,475940,-0.672,-0.526,0.554,7.7,3.4,-9.3,5.5,-7.7,-23.8,0.465681936,0.15417951,0.438764611,-0.75286111
195,492049,475940,-0.676,-0.53,0.555,7.6,3.3,-9.6,5.5,-7.7,-23.8,0.465468307,0.154210028,0.438703574,-0.753013703
196,494360,475940,-0.676,-0.53,0.551,7.6,3.1,-9.7,5.5,-7.7,-23.8,0.465254677,0.154240547,0.438642537,-0.753166295
197,497664,475940,-0.679,-0.526,0.555,7.6,2.9,-10,5.5,-7.7,-23.8,0.465041047,0.154271065,0.4385815,-0.753349406
198,499876,475950,-0.676,-0.53,0.551,7.7,2.8,-10.2,5.5,-7.7,-23.8,0.464827418,0.154301584,0.438520463,-0.753501999
199,502174,475950,-0.683,-0.526,0.551,8,2.6,-10.5,5.5,-7.7,-23.8,0.46458327,0.154332102,0.438459426,-0.75368511
200,504469,475950,-0.676,-0.53,0.555,8.2,2.5,-10.8,5.5,-7.7,-23.8,0.46436964,0.154362621,0.43836787,-0.753868221
201,507196,475950,-0.676,-0.538,0.547,8.5,2.4,-11,5.5,-7.7,-23.8,0.464125492,0.154393139,0.438306833,-0.754051332
202,509437,475960,-0.676,-0.538,0.559,8.6,2.4,-11.3,6.3,-8.1,-22.1,0.463850826,0.154606769,0.438459426,-0.754081851
203,512680,475960,-0.676,-0.538,0.559,8.9,2.2,-11.7,6.3,-8.1,-22.1,0.463606677,0.154637288,0.438398389,-0.754264962
204,514924,475960,-0.676,-0.542,0.559,9.1,1.8,-12.1,6.3,-8.1,-22.1,0.463362529,0.154637288,0.438306833,-0.754478591
205,516837,475960,-0.672,-0.546,0.558,9.2,1.5,-12.4,6.3,-8.1,-22.1,0.463118381,0.154637288,0.438184759,-0.754692221
206,519924,475970,-0.672,-0.542,0.558,9.5,1.3,-12.7,6.2,-8.1,-21.4,0.462843715,0.154637288,0.438093204,-0.754875332
207,522199,475970,-0.676,-0.546,0.562,10,1.2,-12.9,6.2,-8.1,-21.4,0.462599567,0.154637288,0.437971129,-0.75511948
208,524412,475970,-0.672,-0.554,0.562,10.5,1.3,-13,6.2,-8.1,-21.4,0.4623249,0.154637288,0.437879574,-0.75533311
209,526980,475970,-0.68,-0.558,0.566,11.1,1.3,-13.1,6.2,-8.1,-21.4,0.462050233,0.154637288,0.4377575,-0.755577258
210,530248,475980,-0.672,-0.562,0.57,11.7,1.3,-13.1,6.3,-8.4,-20.9,0.461806085,0.154667806,0.437604907,-0.755821406
211,531864,475980,-0.676,-0.566,0.57,12.2,1.2,-13.2,6.3,-8.4,-20.9,0.461531419,0.154667806,0.437482833,-0.756065554
212,534910,475980,-0.676,-0.566,0.57,12.6,1,-13.4,6.3,-8.4,-20.9,0.461256752,0.154698325,0.437330241,-0.756309702
213,537783,475980,-0.672,-0.566,0.574,12.9,0.8,-13.7,6.3,-8.4,-20.9,0.460982086,0.154698325,0.43714713,-0.756584368
214,539443,475990,-0.672,-0.566,0.574,13.3,0.6,-14.1,5.9,-8.3,-20.5,0.460676901,0.154728843,0.436994537,-0.756859035
215,542606,475990,-0.668,-0.566,0.574,13.7,0.5,-14.3,5.9,-8.3,-20.5,0.460402234,0.154728843,0.436811426,-0.757103183
216,544541,475990,-0.664,-0.562,0.574,14,0.3,-14.5,5.9,-8.3,-20.5,0.460097049,0.154728843,0.436628315,-0.757408368
217,547366,475990,-0.664,-0.562,0.578,14.3,0.2,-14.6,5.9,-8.3,-20.5,0.459822382,0.154759362,0.436445204,-0.757683035
218,549541,476000,-0.656,-0.562,0.578,14.6,0.2,-14.7,5.9,-8.3,-20.5,0.459517197,0.154759362,0.436262093,-0.757957701
219,552853,476000,-0.656,-0.57,0.578,14.9,0.3,-14.8,5.9,-8.3,-20.5,0.459212012,0.15478988,0.436078982,-0.758262886
220,554322,476000,-0.652,-0.566,0.581,15.4,0.4,-14.8,5.9,-8.3,-20.5,0.458906827,0.15478988,0.435865352,-0.758537553
221,558310,476000,-0.648,-0.57,0.581,15.9,0.5,-14.8,5.9,-8.3,-20.5,0.458601642,0.154820399,0.435651723,-0.758842738
222,560515,476010,-0.648,-0.57,0.577,16.2,0.6,-14.8,6.5,-8.1,-22.6,0.458204901,0.154759362,0.435621204,-0.759147923
223,562065,476010,-0.64,-0.574,0.581,16.4,0.7,-14.7,6.5,-8.1,-22.6,0.457899716,0.15478988,0.435407575,-0.759453108
224,564668,476010,-0.64,-0.57,0.581,16.5,0.9,-14.6,6.5,-8.1,-22.6,0.457594531,0.154820399,0.435193945,-0.759727775
225,568840,476010,-0.64,-0.574,0.585,16.6,1.1,-14.5,6.5,-8.1,-22.6,0.457289346,0.154881436,0.434980316,-0.76003296
226,570918,476020,-0.64,-0.566,0.589,16.7,1.4,-14.4,6.3,-8.2,-22.9,0.456953642,0.154911954,0.434736167,-0.760338145
227,572387,476020,-0.636,-0.566,0.589,16.9,1.7,-14.2,6.3,-8.2,-22.9,0.456648457,0.15500351,0.434522538,-0.76064333
228,574399,476020,-0.632,-0.567,0.593,17.1,2,-14.1,6.3,-8.2,-22.9,0.456343272,0.155064547,0.434308908,-0.760917997
229,577293,476020,-0.628,-0.567,0.592,17.2,2.3,-14,6.3,-8.2,-22.9,0.456038087,0.155125584,0.43406476,-0.761223182
230,579559,476030,-0.624,-0.563,0.6,17.3,2.7,-13.9,6.2,-8.3,-23.4,0.455702383,0.155217139,0.433881649,-0.761528367
231,581897,476030,-0.62,-0.567,0.592,17.5,3.1,-13.8,6.2,-8.3,-23.4,0.455397198,0.155308695,0.43366802,-0.761803034
232,585265,476030,-0.616,-0.567,0.596,17.8,3.4,-13.6,6.2,-8.3,-23.4,0.455092013,0.155430769,0.43345439,-0.762108219
233,587051,476030,-0.616,-0.567,0.596,18.1,3.7,-13.4,6.2,-8.3,-23.4,0.45475631,0.155552843,0.433240761,-0.762382885
234,589537,476040,-0.612,-0.567,0.604,18.4,4,-13.3,6.3,-8.4,-24.4,0.454420606,0.155674917,0.433027131,-0.76268807
235,591889,476040,-0.612,-0.559,0.608,18.6,4.5,-13,6.3,-8.4,-24.4,0.454115421,0.155796991,0.432813501,-0.762993255
236,595408,476040,-0.612,-0.563,0.612,18.8,5,-12.8,6.3,-8.4,-24.4,0.453779717,0.155949583,0.432569353,-0.763267922
237,597598,476040,-0.604,-0.555,0.607,19,5.5,-12.8,6.3,-8.4,-24.4,0.453444014,0.156102176,0.432355724,-0.763542589
238,599776,476050,-0.604,-0.551,0.611,19.2,5.9,-12.7,6.3,-8.4,-24.4,0.45310831,0.156285287,0.432111576,-0.763847774
239,602207,476050,-0.6,-0.544,0.611,19.6,6.3,-12.6,6.3,-8.4,-24.4,0.452772607,0.156468398,0.431928465,-0.76412244
240,604497,476050,-0.596,-0.54,0.615,19.9,6.7,-12.5,6.3,-8.4,-24.4,0.452436903,0.156651509,0.431684317,-0.764427625
241,606935,476050,-0.592,-0.532,0.611,20.1,7.2,-12.5,6.3,-8.4,-24.4,0.452101199,0.156865139,0.431470687,-0.764702292
242,610113,476060,-0.592,-0.528,0.619,20.4,7.8,-12.4,6.9,-8.9,-23.1,0.451704459,0.156743065,0.431104465,-0.76516007
243,612346,476060,-0.592,-0.528,0.619,20.8,8.3,-12.2,6.9,-8.9,-23.1,0.451338237,0.156987213,0.430890835,-0.765465255
244,614570,476060,-0.588,-0.524,0.611,21.3,8.7,-12,6.9,-8.9,-23.1,0.450972015,0.157231361,0.430646687,-0.765739921
245,616974,476060,-0.584,-0.532,0.615,21.8,9.3,-11.8,6.9,-8.9,-23.1,0.450636311,0.15744499,0.430433058,-0.766045106
246,619609,476070,-0.588,-0.528,0.615,22.3,9.8,-11.5,6.7,-8.9,-22.7,0.450270089,0.157750175,0.430158391,-0.766319773
247,623554,476070,-0.588,-0.528,0.615,22.9,10.4,-11.4,6.7,-8.9,-22.7,0.449903867,0.158055361,0.429944761,-0.76659444
248,625184,476070,-0.588,-0.532,0.615,23.4,10.9,-11.4,6.7,-8.9,-22.7,0.449507126,0.158360546,0.429700613,-0.766899625
249,627901,476070,-0.588,-0.532,0.619,23.8,11.5,-11.4,6.7,-8.9,-22.7,0.449140904,0.158665731,0.429456465,-0.76720481
250,630207,476080,-0.584,-0.532,0.615,24.2,12,-11.5,7.2,-8.9,-22.7,0.448744163,0.159001434,0.429212317,-0.767509995
251,632446,476080,-0.584,-0.532,0.622,24.8,12.6,-11.6,7.2,-8.9,-22.7,0.448347423,0.159367656,0.428968169,-0.76781518
252,635142,476080,-0.588,-0.536,0.623,25.4,13.2,-11.8,7.2,-8.9,-22.7,0.447920164,0.15970336,0.428693503,-0.768120365
253,636878,476080,-0.592,-0.528,0.623,26.1,13.9,-11.8,7.2,-8.9,-22.7,0.447523423,0.160100101,0.428449355,-0.76842555
254,639589,476090,-0.588,-0.536,0.626,26.7,14.5,-12,6.9,-9.4,-22.6,0.447065645,0.160496841,0.428174688,-0.768761254
255,643000,476090,-0.588,-0.536,0.63,27.4,15.1,-12.2,6.9,-9.4,-22.6,0.446638386,0.160893582,0.427900021,-0.769066439
256,644604,476090,-0.592,-0.536,0.634,28,15.7,-12.5,6.9,-9.4,-22.6,0.446180609,0.161320841,0.427625355,-0.769402142
257,647106,476090,-0.588,-0.536,0.63,28.7,16.3,-12.7,6.9,-9.4,-22.6,0.445722831,0.1617481,0.427350688,-0.769737846
258,649393,476100,-0.584,-0.54,0.634,29.5,16.7,-13,6.9,-9.4,-22.6,0.445234535,0.162205878,0.427076022,-0.77007355
259,653755,476100,-0.584,-0.54,0.638,30.4,17,-13.4,6.9,-9.4,-22.6,0.444746239,0.162663656,0.426770837,-0.770439772
260,654413,476100,-0.58,-0.536,0.634,31.2,17.4,-13.7,6.9,-9.4,-22.6,0.444227424,0.163121433,0.426465651,-0.770805994
261,657508,476100,-0.58,-0.544,0.638,32.1,17.8,-14,6.9,-9.4,-22.6,0.443708609,0.163609729,0.426129948,-0.771172216
262,659631,476110,-0.576,-0.544,0.634,33,18.3,-14.2,7.7,-9.1,-21.8,0.443128758,0.163487655,0.425519578,-0.771874142
263,661943,476110,-0.576,-0.544,0.634,34,18.9,-14.5,7.7,-9.1,-21.8,0.442579424,0.16400647,0.425183874,-0.772270882
264,664528,476110,-0.576,-0.54,0.634,34.9,19.4,-14.5,7.7,-9.1,-21.8,0.442030091,0.164525285,0.424817652,-0.772667623
265,666976,476110,-0.572,-0.532,0.634,35.7,19.9,-14.7,7.7,-9.1,-21.8,0.44145024,0.165074618,0.42445143,-0.773064364
266,670223,476120,-0.572,-0.529,0.638,36.5,20.3,-14.7,8,-9.1,-21.7,0.440900906,0.165623951,0.424085208,-0.773491623
267,672424,476120,-0.572,-0.517,0.642,37.1,20.8,-14.9,8,-9.1,-21.7,0.440321055,0.166203803,0.423718986,-0.773888363
268,674620,476120,-0.572,-0.517,0.638,37.8,21.3,-15.1,8,-9.1,-21.7,0.439710685,0.166783654,0.423352763,-0.774315622
269,677197,476120,-0.568,-0.509,0.641,38.3,21.9,-15.4,8,-9.1,-21.7,0.439130833,0.167394024,0.422956023,-0.774742882
270,679621,476130,-0.567,-0.497,0.634,38.4,22.4,-15.5,7.8,-9.2,-21.9,0.438489944,0.168004395,0.422589801,-0.775139622
271,682865,476130,-0.563,-0.486,0.633,38.3,22.8,-15.7,7.8,-9.2,-21.9,0.437879574,0.168614765,0.422223579,-0.775566881
272,685155,476130,-0.563,-0.482,0.63,38.1,23.1,-15.9,7.8,-9.2,-21.9,0.437269204,0.169164098,0.421857356,-0.77599414
273,687199,476130,-0.563,-0.474,0.626,37.9,23.4,-15.9,7.8,-9.2,-21.9,0.436628315,0.169835505,0.421491134,-0.776390881
274,690241,476140,-0.563,-0.466,0.626,37.5,23.7,-15.9,8.3,-9.6,-21.7,0.436017945,0.170445875,0.421124912,-0.77681814
275,692582,476140,-0.563,-0.466,0.626,37,24.2,-16,8.3,-9.6,-21.7,0.435377056,0.171056246,0.420789209,-0.777214881
276,694764,476140,-0.563,-0.458,0.614,36.5,24.6,-16.1,8.3,-9.6,-21.7,0.434736167,0.171666616,0.420453505,-0.777611621
277,696960,476140,-0.567,-0.462,0.626,36,25.1,-16.3,8.3,-9.6,-21.7,0.43406476,0.172276986,0.42014832,-0.778008362
278,699329,476150,-0.559,-0.454,0.625,35.5,25.6,-16.5,8.3,-9.6,-21.7,0.43345439,0.172917875,0.419873653,-0.778405103
279,702699,476150,-0.567,-0.458,0.618,34.7,25.9,-16.6,8.3,-9.6,-21.7,0.432782983,0.173528245,0.419568468,-0.778771325
280,704885,476150,-0.567,-0.454,0.606,33.8,26.4,-16.9,8.3,-9.6,-21.7,0.432111576,0.174138615,0.41932432,-0.779137547
281,706928,476150,-0.571,-0.446,0.606,33,26.7,-17.2,8.3,-9.6,-21.7,0.431470687,0.174748985,0.419080172,-0.779503769
282,710810,476160,-0.579,-0.442,0.606,32.2,27,-17.5,9.8,-9.8,-21.7,0.430860317,0.175237281,0.418622394,-0.779961547
283,712968,476160,-0.583,-0.442,0.607,31.5,27.4,-17.8,9.8,-9.8,-21.7,0.430158391,0.175847652,0.418408765,-0.780327769
284,714621,476160,-0.587,-0.446,0.607,30.9,27.7,-18,9.8,-9.8,-21.7,0.429517502,0.176458022,0.418195135,-0.780663472
285,716978,476160,-0.595,-0.442,0.599,30.4,28.1,-18.2,9.8,-9.8,-21.7,0.428815577,0.177037873,0.418012024,-0.780999176
286,719741,476170,-0.599,-0.445,0.595,30,28.5,-18.5,9.3,-10,-21.4,0.428144169,0.177648244,0.417859432,-0.78133488
287,722855,476170,-0.607,-0.445,0.595,29.8,28.8,-18.9,9.3,-10,-21.4,0.427442244,0.178228095,0.417676321,-0.781670583
288,725420,476170,-0.611,-0.445,0.588,29.8,28.9,-19.4,9.3,-10,-21.4,0.426709799,0.178838466,0.417523728,-0.782006287
289,727408,476170,-0.618,-0.445,0.584,29.8,28.9,-19.7,9.3,-10,-21.4,0.426007874,0.179418317,0.417340617,-0.782372509
290,729586,476180,-0.627,-0.457,0.573,29.8,28.9,-20.2,9.8,-10.1,-21.4,0.42527543,0.180028687,0.417188025,-0.782708213
291,732107,476180,-0.634,-0.449,0.577,29.8,28.8,-20.8,9.8,-10.1,-21.4,0.424542985,0.180608539,0.417035432,-0.783074435
292,735377,476180,-0.639,-0.452,0.573,29.7,28.8,-21.3,9.8,-10.1,-21.4,0.423780023,0.181157872,0.416882839,-0.783410138
293,737566,476180,-0.654,-0.448,0.569,29.8,28.8,-21.8,9.8,-10.1,-21.4,0.423047578,0.181737724,0.416730247,-0.78377636
294,739758,476190,-0.662,-0.452,0.574,29.9,28.9,-22.4,10.1,-10.1,-21.4,0.422284616,0.182317576,0.416547136,-0.784142582
295,741904,476190,-0.666,-0.452,0.57,30,29,-22.9,10.1,-10.1,-21.4,0.421491134,0.18283639,0.416394543,-0.784508805
296,745058,476190,-0.67,-0.444,0.57,30.1,28.9,-23.5,10.1,-10.1,-21.4,0.420697653,0.183416242,0.416241951,-0.784875027
297,747003,476190,-0.686,-0.451,0.57,30.1,28.8,-24,10.1,-10.1,-21.4,0.419904172,0.183965575,0.416089358,-0.785271767
298,750117,476200,-0.686,-0.451,0.57,30.2,28.6,-24.4,10.1,-10.1,-21.4,0.419110691,0.184514908,0.415936766,-0.785637989
299,752260,476200,-0.69,-0.455,0.57,30.2,28.4,-24.9,10.1,-10.1,-21.4,0.418317209,0.185064241,0.415784173,-0.78603473
300,754384,476200,-0.694,-0.451,0.567,30.5,28.1,-25.4,10.1,-10.1,-21.4,0.41749321,0.185583056,0.415601062,-0.786431471
301,757208,476200,-0.706,-0.455,0.563,30.7,27.8,-25.9,10.1,-10.1,-21.4,0.41666921,0.186101871,0.415448469,-0.786828211
302,759370,476210,-0.706,-0.467,0.567,30.9,27.6,-26.3,9.2,-10.6,-20.9,0.415936766,0.186925871,0.41523484,-0.787133396
303,762744,476210,-0.706,-0.467,0.567,31.1,27.2,-26.8,9.2,-10.6,-20.9,0.415112766,0.187414167,0.415051729,-0.787560656
304,764629,476210,-0.714,-0.466,0.567,31.3,26.9,-27.3,9.2,-10.6,-20.9,0.414258248,0.187932981,0.414868618,-0.787957396
305,767705,476210,-0.714,-0.474,0.567,31.6,26.6,-27.8,9.2,-10.6,-20.9,0.413434248,0.188421278,0.414685507,-0.788384655
306,769960,476220,-0.71,-0.47,0.563,31.8,26.3,-28.1,8.9,-10.5,-20.7,0.41257973,0.188909574,0.414471877,-0.788842433
307,771866,476220,-0.718,-0.47,0.563,31.9,26.1,-28.6,8.9,-10.5,-20.7,0.411694693,0.189367351,0.414288766,-0.789269692
308,775386,476220,-0.714,-0.47,0.567,31.9,25.8,-28.9,8.9,-10.5,-20.7,0.410840175,0.189855647,0.414105655,-0.789696951
309,777850,476220,-0.714,-0.466,0.575,31.8,25.5,-29.3,8.9,-10.5,-20.7,0.409985656,0.190313425,0.413892026,-0.790154729
310,780019,476230,-0.718,-0.47,0.571,31.8,25.5,-29.6,9.2,-10.8,-20.8,0.40910062,0.190771203,0.413708914,-0.790612506
311,783034,476230,-0.718,-0.462,0.571,31.7,25.5,-29.9,9.2,-10.8,-20.8,0.408215583,0.19122898,0.413495285,-0.791039766
312,785066,476230,-0.722,-0.462,0.575,31.7,25.4,-30.2,9.2,-10.8,-20.8,0.407330546,0.191625721,0.413312174,-0.791497543
313,787108,476230,-0.714,-0.451,0.571,31.5,25.1,-30.5,9.2,-10.8,-20.8,0.406445509,0.192114017,0.413098544,-0.791955321
314,789625,476240,-0.718,-0.451,0.571,31.3,24.8,-30.6,8.2,-10.8,-20.7,0.405560472,0.192541276,0.412915433,-0.79238258
315,792020,476240,-0.718,-0.443,0.571,31,24.6,-30.7,8.2,-10.8,-20.7,0.404675436,0.192968535,0.412732322,-0.792840358
316,794752,476240,-0.714,-0.435,0.575,30.7,24.4,-30.7,8.2,-10.8,-20.7,0.403790399,0.193395795,0.412549211,-0.793298135
317,797153,476240,-0.721,-0.427,0.579,30.4,24.3,-30.7,8.2,-10.8,-20.7,0.402905362,0.193792535,0.4123661,-0.793725394
318,799964,476250,-0.721,-0.427,0.575,30,24.1,-30.7,8.2,-10.8,-20.7,0.402050844,0.194189276,0.412182989,-0.794183172
319,802242,476250,-0.717,-0.415,0.575,29.5,24.1,-30.7,8.2,-10.8,-20.7,0.401165807,0.194555498,0.411999878,-0.794610431
320,804611,476250,-0.721,-0.399,0.571,28.8,24,-30.8,8.2,-10.8,-20.7,0.40028077,0.194982757,0.411847285,-0.79503769
321,807017,476250,-0.721,-0.396,0.563,28,23.9,-30.8,8.2,-10.8,-20.7,0.399426252,0.195379498,0.411694693,-0.795464949
322,810518,476260,-0.721,-0.38,0.555,27,23.6,-30.8,8.2,-10.7,-20.3,0.398907437,0.19656972,0.411297952,-0.795617542
323,812754,476260,-0.725,-0.376,0.552,26,23.4,-30.7,8.2,-10.7,-20.3,0.398083438,0.196935942,0.411175878,-0.796014283
324,815080,476260,-0.725,-0.36,0.551,24.9,23.2,-30.4,8.2,-10.7,-20.3,0.397228919,0.197271645,0.411053804,-0.796411023
325,817085,476260,-0.728,-0.36,0.559,23.9,23.1,-30.2,8.2,-10.7,-20.3,0.39640492,0.197607349,0.410992767,-0.796777245
326,821030,476270,-0.736,-0.352,0.56,22.7,23,-30,7.4,-11,-20.2,0.395550401,0.197943052,0.41093173,-0.797143468
327,822020,476270,-0.74,-0.34,0.552,21.5,22.8,-30,7.4,-11,-20.2,0.39475692,0.198248238,0.410870693,-0.79750969
328,824657,476270,-0.744,-0.34,0.552,20.4,22.7,-29.9,7.4,-11,-20.2,0.39393292,0.198553423,0.410840175,-0.797845393
329,827005,476270,-0.748,-0.34,0.556,19.4,22.6,-29.8,7.4,-11,-20.2,0.393108921,0.198858608,0.410809656,-0.798181097
330,829693,476280,-0.756,-0.34,0.552,18.6,22.4,-29.7,8,-10.6,-20.3,0.392315439,0.199133274,0.410809656,-0.798486282
331,831979,476280,-0.768,-0.336,0.556,17.6,22.3,-29.4,8,-10.6,-20.3,0.391521958,0.199407941,0.410840175,-0.798821986
332,835333,476280,-0.78,-0.339,0.549,16.8,22.1,-29.1,8,-10.6,-20.3,0.390758995,0.199682608,0.410840175,-0.799127171
333,837619,476280,-0.788,-0.335,0.561,15.9,22,-28.8,8,-10.6,-20.3,0.389965514,0.199926756,0.410901212,-0.799401837
334,839848,476290,-0.8,-0.331,0.557,15,21.9,-28.5,8.2,-10.9,-20.4,0.38923307,0.200201422,0.41093173,-0.799676504
335,841973,476290,-0.811,-0.335,0.562,14.2,21.9,-28.4,8.2,-10.9,-20.4,0.388470107,0.200415052,0.410992767,-0.79995117
336,844358,476290,-0.823,-0.33,0.562,13.3,21.8,-28.4,8.2,-10.9,-20.4,0.387707144,0.200689718,0.411084323,-0.800225837
337,846858,476290,-0.835,-0.326,0.57,12.5,21.6,-28.5,8.2,-10.9,-20.4,0.3869747,0.200903348,0.411175878,-0.800500504
338,850348,476300,-0.839,-0.326,0.574,11.7,21.4,-28.5,8.2,-10.9,-20.4,0.386211737,0.201116977,0.411267434,-0.800744652
339,852587,476300,-0.843,-0.326,0.586,11.2,21.1,-28.4,8.2,-10.9,-20.4,0.385479293,0.201330607,0.411358989,-0.8009888
340,854824,476300,-0.843,-0.326,0.59,10.9,20.6,-28.4,8.2,-10.9,-20.4,0.384746849,0.201544237,0.411481063,-0.801232948
341,857049,476300,-0.851,-0.33,0.602,10.9,20,-28.6,8.2,-10.9,-20.4,0.384014405,0.201727348,0.411572619,-0.801477096
342,859603,476310,-0.855,-0.337,0.606,11.2,19.4,-28.7,10.1,-9.1,-20.2,0.383587146,0.20249031,0.411420026,-0.801568651
343,861893,476310,-0.855,-0.337,0.61,11.5,18.9,-28.8,10.1,-9.1,-20.2,0.382854701,0.202642903,0.411511582,-0.801843318
344,865266,476310,-0.855,-0.345,0.614,12,18.4,-28.8,10.1,-9.1,-20.2,0.382152776,0.202826014,0.411572619,-0.802117985
345,867605,476310,-0.847,-0.349,0.617,12.7,18,-28.8,10.1,-9.1,-20.2,0.381420331,0.202978607,0.411633656,-0.802392651
346,869819,476320,-0.851,-0.361,0.621,13.6,17.6,-28.8,11,-9,-20,0.380687887,0.203131199,0.411664174,-0.802667318
347,871960,476320,-0.851,-0.353,0.629,14.8,17.2,-28.9,11,-9,-20,0.379955443,0.20331431,0.411664174,-0.802972503
348,875124,476320,-0.859,-0.353,0.625,16.3,16.9,-29.1,11,-9,-20,0.379222999,0.203466903,0.411664174,-0.803277688
349,877298,476320,-0.859,-0.333,0.617,17.7,16.5,-29.4,11,-9,-20,0.378490555,0.203650014,0.411633656,-0.803613392
350,879470,476330,-0.863,-0.325,0.614,19,16.1,-29.5,11.9,-8.8,-20,0.377727592,0.203833125,0.4115421,-0.803949095
351,882139,476330,-0.87,-0.31,0.598,20,15.7,-29.4,11.9,-8.8,-20,0.376995148,0.204016236,0.411450545,-0.804315317
352,886246,476330,-0.874,-0.298,0.594,20.8,15.2,-29.3,11.9,-8.8,-20,0.376232185,0.204168828,0.411358989,-0.804651021
353,886696,476330,-0.89,-0.258,0.575,21.5,14.7,-29.1,11.9,-8.8,-20,0.375469222,0.204321421,0.411206397,-0.805047761
354,890006,476340,-0.901,-0.242,0.564,21.9,13.9,-28.9,12.5,-8.9,-20.1,0.374767296,0.204504532,0.411084323,-0.805413984
355,892310,476340,-0.909,-0.222,0.552,22,12.9,-28.7,12.5,-8.9,-20.1,0.374065371,0.204657125,0.41093173,-0.805780206
356,894507,476340,-0.917,-0.199,0.544,21.7,11.7,-28.5,12.5,-8.9,-20.1,0.373363445,0.204809717,0.410779138,-0.806146428
357,896859,476340,-0.924,-0.147,0.541,21.4,10.6,-28.5,12.5,-8.9,-20.1,0.372661519,0.204901273,0.410596026,-0.806543168
358,900577,476350,-0.935,-0.127,0.541,20.9,9.5,-28.4,12.5,-8.9,-20.1,0.371990112,0.204992828,0.410443434,-0.806909391
359,902840,476350,-0.943,-0.111,0.545,20.5,8.4,-28.4,12.5,-8.9,-20.1,0.371318705,0.205053865,0.410260323,-0.807275613
360,905075,476350,-0.951,-0.096,0.553,20.2,7.3,-28.2,12.5,-8.9,-20.1,0.370647298,0.205084384,0.41010773,-0.807672353
361,907294,476350,-0.974,-0.075,0.569,19.8,6.1,-28.1,12.5,-8.9,-20.1,0.370006409,0.205114902,0.409924619,-0.808038575
362,909620,476360,-0.99,-0.055,0.569,19.5,4.6,-27.9,11.3,-10.7,-19.4,0.369396039,0.205084384,0.409741508,-0.808404798
363,912049,476360,-0.997,-0.032,0.573,19.1,3,-27.4,11.3,-10.7,-19.4,0.368785669,0.205053865,0.409558397,-0.808801538
364,915045,476360,-1.021,-0.007,0.601,18.6,1.5,-26.9,11.3,-10.7,-19.4,0.368236335,0.204992828,0.409344768,-0.80916776
365,917324,476360,-1.036,0.004,0.621,18.4,0,-26.2,11.3,-10.7,-19.4,0.367656484,0.204901273,0.409131138,-0.809564501
366,919648,476370,-1.056,0.012,0.653,18.9,-1.7,-25.6,11.7,-10.8,-19.8,0.367168188,0.204809717,0.408917508,-0.809930723
367,922169,476370,-1.063,0.02,0.692,20.3,-3.5,-25,11.7,-10.8,-19.8,0.366649373,0.204687643,0.408642842,-0.810327464
368,924380,476370,-1.087,0.033,0.759,22.6,-5.2,-24.4,11.7,-10.8,-19.8,0.366161077,0.204535051,0.408307138,-0.810754723
369,926882,476370,-1.094,0.033,0.791,25.6,-7.1,-24,11.7,-10.8,-19.8,0.365703299,0.204412976,0.407910398,-0.8112125
370,930062,476380,-1.102,0.033,0.818,29,-9.1,-23.5,11.6,-11.2,-19.7,0.365215003,0.204260384,0.407422102,-0.811700797
371,932286,476380,-1.102,0.029,0.846,32.6,-11.4,-23,11.6,-11.2,-19.7,0.364757225,0.204107791,0.40684225,-0.812219611
372,934969,476380,-1.098,0.025,0.892,36.3,-13.8,-22.4,11.6,-11.2,-19.7,0.364329966,0.203955199,0.406201361,-0.812768944
373,936785,476380,-1.102,0.014,0.916,40.4,-16.1,-21.8,11.6,-11.2,-19.7,0.363902707,0.203802606,0.405438398,-0.813379315
374,939499,476390,-1.102,0.01,0.935,44.9,-18.2,-21.3,11.7,-11.5,-19.4,0.363505966,0.203650014,0.404614399,-0.814020203
375,943679,476390,-1.106,0.002,0.943,49.8,-19.9,-20.9,11.7,-11.5,-19.4,0.363078707,0.203497421,0.403637806,-0.814722129
376,945843,476390,-1.118,-0.016,0.959,54.8,-21.3,-20.3,11.7,-11.5,-19.4,0.362651448,0.203344829,0.402600177,-0.815454573
377,948111,476390,-1.122,-0.028,0.956,60,-22.5,-19.7,11.7,-11.5,-19.4,0.362224189,0.203283792,0.401440474,-0.816248054
378,950393,476400,-1.126,-0.032,0.956,65.2,-23.7,-19,11.3,-10.5,-19.2,0.36179693,0.203222755,0.400158696,-0.817072054
379,952612,476400,-1.13,-0.036,0.944,70.7,-25,-18,11.3,-10.5,-19.2,0.361400189,0.203161718,0.398785363,-0.817926572
380,954802,476400,-1.134,-0.028,0.94,76.3,-26.4,-17.2,11.3,-10.5,-19.2,0.36097293,0.203131199,0.397289956,-0.818842128
381,956957,476400,-1.126,-0.024,0.932,82,-28,-16.4,11.3,-10.5,-19.2,0.360576189,0.203131199,0.395672475,-0.81981872
382,959620,476410,-1.126,-0.008,0.909,87.6,-29.5,-15.8,11.2,-12.9,-19.5,0.36014893,0.203161718,0.393963439,-0.820825831
383,963007,476410,-1.13,0.002,0.905,93.1,-30.9,-15.2,11.2,-12.9,-19.5,0.359721671,0.203222755,0.39210181,-0.821893979
384,964512,476410,-1.122,0.01,0.893,98.4,-32.2,-14.8,11.2,-12.9,-19.5,0.359294412,0.203283792,0.390148625,-0.822992645
385,966987,476410,-1.122,0.026,0.881,103.2,-33.3,-14.6,11.2,-12.9,-19.5,0.358867153,0.203344829,0.388103885,-0.82412183
386,970525,476420,-1.13,0.034,0.874,107.5,-34.1,-14.3,10.9,-14.1,-19,0.358409375,0.203466903,0.385967589,-0.825312052
387,972073,476420,-1.137,0.069,0.842,110.8,-34.7,-13.9,10.9,-14.1,-19,0.357951598,0.203588977,0.383770257,-0.826502274
388,974575,476420,-1.149,0.097,0.831,113.2,-35,-13.3,10.9,-14.1,-19,0.357524339,0.203741569,0.381511887,-0.827692495
389,978092,476420,-1.156,0.121,0.812,114.4,-35.4,-12.5,10.9,-14.1,-19,0.357066561,0.203894162,0.379222999,-0.828913236
390,980360,476430,-1.164,0.145,0.804,114.4,-35.9,-11.8,11,-14.7,-18.7,0.356639302,0.204016236,0.376903592,-0.830103458
391,982594,476430,-1.187,0.184,0.785,113.2,-36.5,-10.9,11,-14.7,-18.7,0.356242561,0.204168828,0.374614704,-0.831263161
392,985042,476430,-1.195,0.212,0.773,111.2,-37.2,-9.8,11,-14.7,-18.7,0.355876339,0.204260384,0.372356334,-0.832422864
393,987124,476430,-1.211,0.228,0.781,108.5,-37.9,-8.6,11,-14.7,-18.7,0.355540635,0.204321421,0.370128483,-0.833552049
394,989583,476440,-1.226,0.256,0.79,105.3,-38.7,-7.4,10.8,-15,-18.6,0.35523545,0.204382458,0.36793115,-0.834620197
395,993078,476440,-1.23,0.268,0.79,101.6,-39.4,-6.1,10.8,-15,-18.6,0.354991302,0.204412976,0.365825373,-0.835657826
396,994573,476440,-1.234,0.268,0.79,97.3,-40.2,-4.8,10.8,-15,-18.6,0.354777673,0.204382458,0.363750114,-0.836634419
397,997080,476440,-1.238,0.272,0.798,92.6,-41.2,-3.6,10.8,-15,-18.6,0.35462508,0.204321421,0.361766411,-0.837580493
398,999341,476450,-1.234,0.268,0.805,87.9,-42.4,-2.5,10.7,-11.2,-16.6,0.354533525,0.204229865,0.359843745,-0.838496048
399,1003603,476450,-1.23,0.252,0.805,83.2,-43.8,-1.4,10.7,-11.2,-16.6,0.354472488,0.204046754,0.357982116,-0.839350566
400,1005859,476450,-1.23,0.244,0.809,78.8,-45.1,-0.5,10.7,-11.2,-16.6,0.354472488,0.203833125,0.356181524,-0.840174566
401,1008040,476450,-1.23,0.233,0.798,74.7,-46.3,0.3,10.7,-11.2,-16.6,0.354503006,0.203558458,0.354441969,-0.840968047
402,1010308,476460,-1.231,0.193,0.813,71.2,-47.2,1.4,10.3,-14.3,-19.2,0.354564043,0.203253273,0.352763451,-0.841700491
403,1012558,476460,-1.223,0.177,0.817,68.2,-48,2.4,10.3,-14.3,-19.2,0.354686117,0.20291757,0.35114597,-0.842432936
404,1014574,476460,-1.223,0.162,0.821,65.9,-48.6,3.4,10.3,-14.3,-19.2,0.35483871,0.202551347,0.349528489,-0.843104343
405,1016843,476460,-1.212,0.126,0.825,64.2,-49.2,4.3,10.3,-14.3,-19.2,0.354991302,0.202185125,0.347941527,-0.84377575
406,1020335,476470,-1.208,0.11,0.829,62.9,-49.6,5.1,10.1,-13.9,-19.2,0.355204932,0.201788385,0.346385083,-0.844447157
407,1022641,476470,-1.204,0.102,0.836,62.3,-49.9,5.7,10.1,-13.9,-19.2,0.355418561,0.201391644,0.344828639,-0.845088046
408,1024574,476470,-1.196,0.098,0.84,62.1,-50.1,6.2,10.1,-13.9,-19.2,0.355632191,0.200994903,0.343241676,-0.845728935
409,1026889,476470,-1.177,0.082,0.824,62.2,-49.8,6.7,10.1,-13.9,-19.2,0.35584582,0.200628681,0.341685232,-0.846369823
410,1030357,476480,-1.185,0.078,0.812,62.3,-49.2,7.1,9.9,-12.8,-19.1,0.35605945,0.200262459,0.340128788,-0.846980193
411,1032705,476480,-1.189,0.078,0.816,62.4,-48.2,7.1,9.9,-12.8,-19.1,0.356303598,0.199896237,0.338572344,-0.847590564
412,1036212,476480,-1.185,0.094,0.82,63,-47.1,7,9.9,-12.8,-19.1,0.356486709,0.199560533,0.3370159,-0.848200934
413,1036798,476480,-1.192,0.118,0.82,64.2,-46.3,6.8,9.9,-12.8,-19.1,0.35666982,0.199255348,0.335428938,-0.848841823
414,1039913,476490,-1.196,0.118,0.805,65.8,-45.7,6.9,9.6,-13,-19.1,0.356852931,0.198980682,0.333811457,-0.849452193
415,1041939,476490,-1.2,0.122,0.785,67.2,-45.3,7.2,9.6,-13,-19.1,0.357036042,0.198706015,0.332193976,-0.850093081
416,1044903,476490,-1.208,0.126,0.766,67.8,-45.1,7.7,9.6,-13,-19.1,0.357219153,0.198461867,0.330545976,-0.850703452
417,1047195,476490,-1.212,0.118,0.743,67.6,-44.6,8,9.6,-13,-19.1,0.357371746,0.198217719,0.328897977,-0.85134434
418,1049349,476500,-1.224,0.13,0.735,66.7,-43.9,8,8.9,-14.5,-16.9,0.357554857,0.197973571,0.327280496,-0.851924192
419,1052314,476500,-1.232,0.138,0.728,64.9,-42.9,8,8.9,-14.5,-16.9,0.357737968,0.197729423,0.325693533,-0.852504044
420,1054966,476500,-1.236,0.162,0.7,62.2,-41.7,7.9,8.9,-14.5,-16.9,0.357890561,0.197485275,0.324198126,-0.853083895
421,1057087,476500,-1.243,0.185,0.693,58.4,-40.7,7.6,8.9,-14.5,-16.9,0.358073672,0.197241127,0.322733238,-0.85360271
422,1060263,476510,-1.247,0.205,0.661,53.4,-39.9,7.4,9,-14.7,-17.5,0.358287301,0.19696646,0.321420942,-0.854091006
423,1062319,476510,-1.251,0.229,0.642,47.5,-39.1,6.9,9,-14.7,-17.5,0.358470412,0.196661275,0.320200201,-0.854548784
424,1064519,476510,-1.263,0.26,0.615,40.8,-38.5,6.4,9,-14.7,-17.5,0.358684042,0.196325571,0.319101535,-0.854945524
425,1067771,476510,-1.258,0.28,0.611,33.8,-38.1,5.7,9,-14.7,-17.5,0.35892819,0.195898312,0.318124943,-0.855311747
426,1069748,476520,-1.254,0.288,0.599,26.9,-37.9,5.2,8.4,-14.6,-17.4,0.359172338,0.195440535,0.317300943,-0.855616932
427,1072715,476520,-1.254,0.292,0.591,20.4,-37.8,4.6,8.4,-14.6,-17.4,0.359416486,0.19492172,0.316629536,-0.85586108
428,1075064,476520,-1.254,0.288,0.568,14.3,-37.8,4,8.4,-14.6,-17.4,0.359691153,0.194372387,0.316049684,-0.856105228
429,1077224,476520,-1.255,0.288,0.552,8.6,-37.9,3.4,8.4,-14.6,-17.4,0.359996338,0.193762017,0.315561388,-0.856288339
430,1080239,476530,-1.251,0.276,0.529,3.3,-38.2,2.6,8.5,-14.7,-17,0.360301523,0.193090609,0.315195166,-0.856440931
431,1082204,476530,-1.247,0.264,0.517,-1.5,-38.7,1.9,8.5,-14.7,-17,0.360606708,0.192358165,0.314889981,-0.856593524
432,1086257,476530,-1.248,0.225,0.501,-5.8,-39.3,1.2,8.5,-14.7,-17,0.360911893,0.191595202,0.31470687,-0.856715598
433,1088107,476530,-1.252,0.205,0.501,-8.9,-39.8,0.5,8.5,-14.7,-17,0.361247597,0.190771203,0.314554277,-0.856807154
434,1089645,476540,-1.252,0.182,0.505,-10.4,-40.2,0.1,8.4,-14.8,-16.6,0.361552782,0.189947203,0.314432203,-0.856898709
435,1091927,476540,-1.253,0.13,0.498,-10.4,-40.7,0,8.4,-14.8,-16.6,0.361888485,0.189092685,0.314310129,-0.856990265
436,1094426,476540,-1.254,0.111,0.502,-9.3,-41.5,-0.2,8.4,-14.8,-16.6,0.36219367,0.188238166,0.314157537,-0.857112339
437,1098602,476540,-1.262,0.091,0.494,-7,-42.5,-0.7,8.4,-14.8,-16.6,0.362498856,0.187383648,0.313943907,-0.857234413
438,1100319,476550,-1.258,0.068,0.479,-3.8,-43.4,-1.9,8.2,-14.8,-17.7,0.362773522,0.18652913,0.313699759,-0.857417524
439,1102619,476550,-1.263,0.048,0.463,0.5,-44.3,-3.5,8.2,-14.8,-17.7,0.36301767,0.185674612,0.313333537,-0.857631153
440,1104556,476550,-1.263,0.036,0.451,6.3,-45.3,-5.4,8.2,-14.8,-17.7,0.363200781,0.184850612,0.312875759,-0.857875301
441,1108446,476550,-1.259,0.02,0.447,13.1,-46.3,-7.1,8.2,-14.8,-17.7,0.363322855,0.184026612,0.312295907,-0.858211005
442,1110223,476560,-1.272,-0.01,0.448,20.8,-47.3,-8.1,7.9,-15.3,-16.1,0.363414411,0.183263649,0.311563463,-0.858607746
443,1112062,476560,-1.272,-0.033,0.448,28.8,-48.3,-8.3,7.9,-15.3,-16.1,0.363475448,0.182531205,0.310678426,-0.859065523
444,1114417,476560,-1.276,-0.049,0.448,36.9,-49.3,-8,7.9,-15.3,-16.1,0.363505966,0.181829279,0.309610279,-0.859584338
445,1117013,476560,-1.292,-0.049,0.452,44.2,-50.1,-7.8,7.9,-15.3,-16.1,0.363536485,0.181188391,0.308420057,-0.860133671
446,1119736,476570,-1.292,-0.056,0.445,50.4,-50.8,-7.9,7.1,-15.3,-15.4,0.363505966,0.180578021,0.307107761,-0.860744041
447,1122119,476570,-1.3,-0.06,0.445,55,-51.3,-8.9,7.1,-15.3,-15.4,0.363475448,0.179998169,0.305703909,-0.86138493
448,1125297,476570,-1.3,-0.064,0.449,57.9,-51.8,-10.4,7.1,-15.3,-15.4,0.363383892,0.179418317,0.304239021,-0.862056337
449,1127547,476570,-1.3,-0.06,0.449,59.2,-52.1,-12.4,7.1,-15.3,-15.4,0.363261818,0.178807947,0.302743614,-0.862758263
450,1129569,476580,-1.292,-0.049,0.48,59.4,-52.3,-14.5,7.1,-15.6,-14.6,0.363109226,0.178197577,0.301248207,-0.863460189
451,1132058,476580,-1.288,-0.037,0.499,58.9,-52.4,-16.6,7.1,-15.6,-14.6,0.362926115,0.177587207,0.299813837,-0.864192633
452,1135157,476580,-1.279,-0.025,0.53,57.7,-52.6,-18.7,7.1,-15.6,-14.6,0.362681967,0.176915799,0.298379467,-0.864925077
453,1136901,476580,-1.279,-0.005,0.557,56,-52.8,-20.8,7.1,-15.6,-14.6,0.3624073,0.176244392,0.296975616,-0.865657521
454,1139713,476590,-1.27,0.021,0.608,53.3,-52.8,-22.9,7,-15.8,-14.3,0.362132633,0.175511948,0.29566332,-0.866389966
455,1142013,476590,-1.274,0.037,0.627,49.7,-52.7,-25.4,7,-15.8,-14.3,0.36179693,0.174748985,0.294381542,-0.867091891
456,1145235,476590,-1.266,0.048,0.651,45.5,-52.5,-28.4,7,-15.8,-14.3,0.361400189,0.173924986,0.293221839,-0.867824335
457,1147486,476590,-1.261,0.06,0.651,41.2,-52.6,-32.1,7,-15.8,-14.3,0.36097293,0.173039949,0.292153691,-0.868526261
458,1149621,476600,-1.249,0.064,0.646,37,-53,-36.6,7,-16,-18.4,0.360484634,0.172093875,0.291177099,-0.869258705
459,1152216,476600,-1.246,0.06,0.634,33.4,-53.7,-41.5,7,-16,-18.4,0.359904782,0.171086764,0.290261544,-0.86999115
460,1154993,476600,-1.234,0.052,0.619,30.5,-54.6,-46.4,7,-16,-18.4,0.359263894,0.169988098,0.289437544,-0.870754112
461,1157181,476600,-1.223,0.008,0.595,28.2,-55.4,-51.1,7,-16,-18.4,0.358531449,0.168828394,0.288644063,-0.871547594
462,1159488,476610,-1.223,-0.022,0.579,26.3,-56.2,-55.4,7.5,-15.4,-15.2,0.357737968,0.167607654,0.287911618,-0.872341075
463,1162185,476610,-1.212,-0.062,0.56,24.7,-57,-59.5,7.5,-15.4,-15.2,0.35688345,0.166356395,0.287209693,-0.873165075
464,1164409,476610,-1.189,-0.086,0.547,23.5,-57.7,-63.5,7.5,-15.4,-15.2,0.355937376,0.165044099,0.286538285,-0.874019593
465,1167674,476610,-1.146,-0.138,0.535,22.9,-58.2,-68.1,7.5,-15.4,-15.2,0.354930265,0.163670766,0.285897397,-0.87490463
466,1170003,476620,-1.139,-0.17,0.507,22.8,-59,-73.8,7.2,-15.9,-16.2,0.35380108,0.162266915,0.285256508,-0.875820185
467,1172249,476620,-1.135,-0.201,0.476,23.3,-60,-80.5,7.2,-15.9,-16.2,0.352549821,0.160802026,0.284646138,-0.876796777
468,1175238,476620,-1.132,-0.221,0.441,24.4,-61.4,-87.6,7.2,-15.9,-16.2,0.351176489,0.159276101,0.284005249,-0.877834407
469,1177513,476620,-1.121,-0.249,0.363,26.3,-63.1,-94.7,7.2,-15.9,-16.2,0.349650563,0.15765862,0.283333842,-0.878963591
470,1179670,476630,-1.113,-0.249,0.323,29.3,-65,-102,6.8,-15.9,-16.3,0.348002564,0.15601062,0.282631916,-0.880123295
471,1182984,476630,-1.089,-0.238,0.28,33.9,-67.3,-109.5,6.8,-15.9,-16.3,0.346171453,0.154301584,0.281838435,-0.881405072
472,1186099,476630,-1.061,-0.219,0.255,40.9,-69.9,-117.1,6.8,-15.9,-16.3,0.344218268,0.15253151,0.28092288,-0.882778405
473,1187605,476630,-0.989,-0.158,0.249,50.6,-72.8,-124.2,6.8,-15.9,-16.3,0.342112491,0.150761437,0.279824213,-0.884243294
474,1190094,476640,-0.957,-0.135,0.248,62.9,-75.9,-130.6,7.7,-15.7,-16.9,0.339854122,0.148960845,0.27845088,-0.885860775
475,1192263,476640,-0.913,-0.113,0.251,77.1,-79.1,-136,7.7,-15.7,-16.9,0.337443159,0.147190771,0.276833399,-0.887569811
476,1194575,476640,-0.825,-0.091,0.26,92.7,-82.6,-140.6,7.7,-15.7,-16.9,0.334910123,0.145420698,0.274880215,-0.88943144
477,1197047,476640,-0.777,-0.076,0.267,108.8,-86.3,-144.9,7.7,-15.7,-16.9,0.332285531,0.143650624,0.272591327,-0.891415143
478,1200503,476650,-0.745,-0.061,0.278,124.8,-89.9,-149.6,7.7,-16.2,-15.3,0.329508347,0.141941588,0.269966735,-0.89352092
479,1201974,476650,-0.701,-0.031,0.3,139.7,-93.6,-155.3,7.7,-16.2,-15.3,0.32657857,0.140202033,0.267036958,-0.895718253
480,1204670,476650,-0.597,0.005,0.391,153,-96.9,-161.8,7.7,-16.2,-15.3,0.323526719,0.138431959,0.263863033,-0.898068178
481,1207621,476650,-0.537,0.016,0.471,164.6,-99.6,-169.2,7.7,-16.2,-15.3,0.320261238,0.136661885,0.26044496,-0.900479141
482,1209517,476660,-0.477,0.014,0.575,174.2,-101.8,-176.9,8.2,-16.2,-14.8,0.316843165,0.134891812,0.256813257,-0.903012177
483,1212584,476660,-0.42,0.021,0.691,182.4,-103.5,-184.6,8.2,-16.2,-14.8,0.313241981,0.133030183,0.253059481,-0.905575732
484,1214945,476660,-0.295,0.027,1.019,189.1,-104.4,-191.5,8.2,-16.2,-14.8,0.309488205,0.131229591,0.249153111,-0.908230842
485,1217167,476660,-0.231,0.045,1.185,193.6,-104.6,-197.5,8.2,-16.2,-14.8,0.305581835,0.12939848,0.245185705,-0.910885952
486,1219398,476670,-0.162,0.071,1.332,194.2,-104.2,-202.7,8.4,-16.6,-14.2,0.301553392,0.127536851,0.24118778,-0.913541063
487,1221853,476670,-0.102,0.09,1.44,188.9,-103.6,-207.5,8.4,-16.6,-14.2,0.297433393,0.125614185,0.23731193,-0.916196173
488,1225294,476670,0.054,0.181,1.588,177.3,-103.3,-212.3,8.4,-16.6,-14.2,0.293221839,0.123599963,0.233680227,-0.918759728
489,1227555,476670,0.135,0.226,1.632,159.9,-103.9,-217.7,8.4,-16.6,-14.2,0.288949248,0.121433149,0.230384228,-0.921201209
490,1229787,476680,0.207,0.291,1.646,138.1,-105.1,-223.7,8.9,-16.8,-13.7,0.284615619,0.119052705,0.227515488,-0.923581652
491,1232801,476680,0.26,0.404,1.581,113.3,-106.8,-230.2,8.9,-16.8,-13.7,0.280220954,0.116458632,0.225165563,-0.925840022
492,1235901,476680,0.312,0.446,1.498,86.9,-108.9,-236.6,8.9,-16.8,-13.7,0.275734733,0.113620411,0.223364971,-0.927976318
493,1237277,476680,0.375,0.452,1.391,60.1,-111.7,-242.8,8.9,-16.8,-13.7,0.271217994,0.110538041,0.222052675,-0.929990539
494,1240281,476690,0.438,0.443,1.28,60.1,-111.7,-242.8,9.9,-16.5,-13.8,0.266670736,0.107455672,0.220770898,-0.931974242
495,1241972,476690,0.589,0.313,1.018,33.7,-115.3,-248.8,9.9,-16.5,-13.8,0.262092959,0.104098636,0.219946898,-0.933835871
496,1244679,476690,0.674,0.197,0.903,7.9,-119.5,-255.4,9.9,-16.5,-13.8,0.257423627,0.100466933,0.21970275,-0.935575426
497,1247013,476690,0.779,0.061,0.795,-16.5,-123.5,-263.2,9.9,-16.5,-13.8,0.252693258,0.0965910825,0.219916379,-0.937223426
498,1249492,476700,0.895,-0.09,0.714,-39.1,-126.9,-272.9,10.2,-16.5,-14.3,0.247779778,0.0924710837,0.220618305,-0.938810389
499,1252974,476700,1.172,-0.407,0.657,-59.1,-129,-285,10.2,-16.5,-14.3,0.242683187,0.0881374554,0.221686453,-0.940275277
500,1254513,476700,1.313,-0.532,0.669,-74.9,-129.2,-299.4,10.2,-16.5,-14.3,0.23731193,0.0836512345,0.223120823,-0.941740165
501,1256979,476700,1.435,-0.626,0.713,-85.3,-127.2,-316.4,10.2,-16.5,-14.3,0.23157445,0.0790429395,0.224768822,-0.943174535
502,1260492,476710,1.621,-0.673,0.837,-85.5,-116.7,-357.7,12.8,-15.5,-14.8,0.224921415,0.0744651631,0.226569414,-0.944730979
503,1261950,476710,1.76,-0.7,0.877,-85.5,-116.7,-357.7,12.8,-15.5,-14.8,0.21826838,0.0698568682,0.228308969,-0.946195868
504,1264630,476710,1.473,-1.107,-0.348,-76.1,-109.1,-379.9,12.8,-15.5,-14.8,0.211066012,0.0653401288,0.229956969,-0.947752312
505,1267656,476710,1.221,-2.271,-1.818,-60.2,-103,-402.3,12.8,-15.5,-14.8,0.203344829,0.0609149449,0.231269265,-0.94943083
506,1269385,476720,4.172,-7.82,4.493,-23.8,-109.8,-422.1,14.2,-14.6,-14.9,0.195165868,0.0563982055,0.231849116,-0.951292459
507,1272177,476720,5.889,-8.216,5.3,63,-131.2,-426.5,14.2,-14.6,-14.9,0.186895352,0.0517899106,0.230475784,-0.95352031
508,1274497,476720,7.99,-8.252,2.596,216.9,-169.6,-388.5,14.2,-14.6,-14.9,0.179418317,0.0471510971,0.225714896,-0.956358531
509,1276888,476720,7.979,-8.27,0.76,383.9,-223.1,-285.9,14.2,-14.6,-14.9,0.174138615,0.0426343577,0.217108676,-0.959532456
510,1279424,476730,8.009,-6.349,0.797,439.8,-285.8,-132.5,14.2,-15.4,-14.6,0.172307505,0.0376903592,0.206915494,-0.962309641
511,1282498,476730,8.091,-0.872,0.571,321.6,-333,15.7,14.2,-15.4,-14.6,0.173863948,0.0319528794,0.198889126,-0.963927122
512,1285782,476730,8.126,1.777,-0.503,84.4,-327.4,87.8,14.2,-15.4,-14.6,0.177068392,0.025757622,0.195806757,-0.96417127
513,1287789,476730,8.131,2.307,-0.915,-144.8,-243.3,52.3,14.2,-15.4,-14.6,0.179265725,0.0203253273,0.197882015,-0.963469344
514,1289457,476740,4.725,6.198,-0.269,-292.3,-86.6,-72.8,14.4,-14.3,-15.5,0.178258614,0.0170293283,0.203711051,-0.962492752
515,1292334,476740,2.304,5.278,-1.166,-365.4,107.5,-227.8,14.4,-14.3,-15.5,0.173070467,0.0168462172,0.211859493,-0.961668752
516,1295275,476740,0.42,5.226,-1.581,-394.5,280.7,-327.1,14.4,-14.3,-15.5,0.165074618,0.0197454756,0.221320231,-0.960905789
517,1296943,476740,-2.673,5.758,-3.351,-405.8,386.7,-309.4,14.4,-14.3,-15.5,0.156895657,0.0249031037,0.231330302,-0.959807123
518,1299698,476750,-4.06,5.448,-3.45,-402.3,412.3,-186,13.7,-12.7,-15.7,0.151127659,0.0312204352,0.241248817,-0.958098086
519,1302705,476750,-4.744,4.561,-2.741,-374.8,382,-32.9,13.7,-12.7,-15.7,0.14865566,0.0377819147,0.250343333,-0.955900754
520,1304357,476750,-4.616,3.474,-1.687,-312.8,332.3,75.7,13.7,-12.7,-15.7,0.14865566,0.0441297647,0.257881405,-0.953642384
521,1307153,476750,-3.443,1.028,-0.316,-216,286.2,124.8,13.7,-12.7,-15.7,0.1498764,0.0500808741,0.263161107,-0.951689199
522,1310110,476760,-2.479,0.004,-0.495,4.4,199.8,139.3,17.4,-12.5,-15.2,0.151585437,0.0550248726,0.263557848,-0.951048311
523,1311978,476760,-1.226,-0.912,-0.354,4.4,199.8,139.3,17.4,-12.5,-15.2,0.15335551,0.0599993896,0.263954588,-0.950346385
524,1316319,476760,-0.011,-1.615,0.247,87.6,144.2,146.6,17.4,-12.5,-15.2,0.155430769,0.0641193884,0.262428663,-0.950163274
525,1318534,476760,-0.358,-5.19,1.185,142.7,86.9,159.6,17.4,-12.5,-15.2,0.158055361,0.0673238319,0.259529405,-0.950315867
526,1320032,476770,0.493,-3.669,1.037,164.7,43.7,180,17.1,-13.7,-14.8,0.161290323,0.0698263497,0.256019776,-0.950529496
527,1322215,476770,0.388,-3.395,1.343,149.3,19.5,189.1,17.1,-13.7,-14.8,0.164860988,0.0718100528,0.252693258,-0.95065157
528,1324479,476770,-0.006,-2.997,1.388,103.3,10.9,167.7,17.1,-13.7,-14.8,0.168126469,0.0733359783,0.250312815,-0.950621052
529,1327009,476770,-0.505,-1.723,1.718,47.4,9.6,110.5,17.1,-13.7,-14.8,0.170293283,0.0743125706,0.24918363,-0.950437941
530,1330504,476780,-0.745,-1.069,1.765,1.4,11.5,45.1,17.2,-13.4,-15,0.171117283,0.0748008667,0.249122593,-0.95025483
531,1331979,476780,-1.053,-0.394,1.603,-23.3,11.6,-3.2,17.2,-13.4,-15,0.171056246,0.0749229408,0.249671926,-0.950132756
532,1335121,476780,-1.119,0.424,1.685,-23.5,7.2,-28.5,17.2,-13.4,-15,0.170476394,0.0748008667,0.250221259,-0.950102237
533,1337187,476780,-1.06,0.639,1.682,-2.2,-2,-36.2,17.2,-13.4,-15,0.16974395,0.0745872372,0.250312815,-0.950193793
534,1340470,476790,-0.948,0.683,1.75,34.3,-14.9,-33.5,17,-13.8,-14.7,0.169072542,0.074221015,0.249610889,-0.950560015
535,1342717,476790,-0.825,0.653,1.871,75.6,-29.8,-28.2,17,-13.8,-14.7,0.168523209,0.0737327189,0.247993408,-0.951109348
536,1345088,476790,-0.533,0.207,2.107,112,-44.1,-24.1,17,-13.8,-14.7,0.168065432,0.0730918302,0.245521409,-0.951872311
537,1347361,476790,-0.533,0.207,2.107,112,-44.1,-24.1,17,-13.8,-14.7,0.168065432,0.0730918302,0.245521409,-0.951872311
538,1349600,476800,-0.316,-0.411,2.087,142.3,-60,-16.5,15.3,-14,-14.4,0.16748558,0.0715353862,0.239387188,-0.953672903
539,1351925,476800,-0.274,-0.726,2.005,134.7,-60.9,-11.7,15.3,-14,-14.4,0.167332987,0.0707113865,0.236396374,-0.954496902
540,1354514,476800,-0.279,-1.245,1.78,117.5,-58.6,-7.4,15.3,-14,-14.4,0.167302469,0.0698568682,0.233741264,-0.955229347
541,1358684,476800,-0.286,-1.445,1.687,97.4,-54.3,-4.9,15.3,-14,-14.4,0.167332987,0.0690633869,0.231513413,-0.955809198
542,1360229,476810,-0.289,-1.583,1.622,67.6,-46.2,-6.9,15.3,-14.1,-13.7,0.167302469,0.0683004242,0.229956969,-0.956266976
543,1362702,476810,-0.315,-1.689,1.552,67.6,-46.2,-6.9,15.3,-14.1,-13.7,0.167302469,0.06756798,0.228370006,-0.956694235
544,1365021,476810,-0.276,-1.756,1.547,61.1,-44.7,-9,15.3,-14.1,-13.7,0.167210913,0.0668050172,0.226935636,-0.957090976
545,1366949,476810,-0.212,-1.715,1.569,59.1,-45.2,-9.2,15.3,-14.1,-13.7,0.167180395,0.066011536,0.225562304,-0.957487716
546,1370289,476820,-0.193,-1.566,1.611,59,-47.1,-6.2,14.6,-14.4,-14,0.167210913,0.0652180548,0.224158452,-0.957853938
547,1372521,476820,-0.238,-1.345,1.557,58.3,-48.8,-1.1,14.6,-14.4,-14,0.167332987,0.0644245735,0.222754601,-0.958220161
548,1374835,476820,-0.204,-1.2,1.571,55,-49,3.3,14.6,-14.4,-14,0.167577136,0.0635700552,0.221442305,-0.958525346
549,1377031,476820,-0.253,-1.049,1.564,48.9,-47.3,4.1,14.6,-14.4,-14,0.167821284,0.0628070925,0.220221564,-0.958830531
550,1379646,476830,-0.315,-0.922,1.511,41.7,-44.3,0.9,13.5,-14.9,-14.5,0.168004395,0.0620441298,0.219183935,-0.959074679
551,1381980,476830,-0.312,-0.742,1.502,35.3,-40.8,-4.6,13.5,-14.9,-14.5,0.168034913,0.0613116855,0.218298898,-0.959318827
552,1385331,476830,-0.288,-0.707,1.486,30.8,-37.8,-10.1,13.5,-14.9,-14.5,0.167973876,0.0605792413,0.217535936,-0.959562975
553,1387591,476830,-0.26,-0.68,1.47,28.4,-35.3,-13.9,13.5,-14.9,-14.5,0.167790765,0.0598467971,0.21683401,-0.959776605
554,1389819,476840,-0.236,-0.657,1.438,27.6,-33.7,-15.9,12.9,-14.5,-14,0.167607654,0.0592059084,0.216162603,-0.960020753
555,1392033,476840,-0.169,-0.627,1.342,26.7,-32.2,-16.9,12.9,-14.5,-14,0.167363506,0.0585345012,0.215491195,-0.960264901
556,1394634,476840,-0.133,-0.612,1.286,24.5,-30.7,-17.5,12.9,-14.5,-14,0.167088839,0.0578936125,0.214880825,-0.96047853
557,1398031,476840,-0.101,-0.597,1.215,20.8,-28.9,-18.4,12.9,-14.5,-14,0.166814173,0.0572832423,0.214362011,-0.960661641
558,1399500,476850,-0.033,-0.532,1.112,16,-26.9,-19.3,16.3,-15.1,-14.4,0.166539506,0.0566728721,0.21396527,-0.960844752
559,1402746,476850,0.014,-0.471,1.055,10.8,-24.8,-19.9,16.3,-15.1,-14.4,0.166203803,0.0560930204,0.213660085,-0.960997345
560,1404777,476850,0.046,-0.428,1.019,6.2,-23.1,-20,16.3,-15.1,-14.4,0.165898618,0.0555436872,0.213476974,-0.961119419
561,1407079,476850,0.066,-0.385,0.987,2.3,-21.7,-19.6,16.3,-15.1,-14.4,0.165562914,0.0550248726,0.213385418,-0.961241493
562,1409761,476860,0.072,-0.264,0.909,-3.1,-19.6,-18.5,12.6,-13.6,-14,0.165257729,0.0544755394,0.213385418,-0.961333048
563,1413133,476860,0.053,-0.212,0.882,-3.1,-19.6,-18.5,12.6,-13.6,-14,0.164983062,0.0539872433,0.213415937,-0.961394086
564,1415160,476860,0.033,-0.157,0.855,-5.2,-18.4,-18.2,12.6,-13.6,-14,0.164708396,0.0534989471,0.213476974,-0.961455123
565,1417373,476860,0.014,-0.121,0.828,-7,-17.1,-17.6,12.6,-13.6,-14,0.164403211,0.053010651,0.213568529,-0.96151616
566,1420442,476870,0.002,-0.086,0.781,-8.2,-15.9,-16.9,12.4,-14,-14.1,0.164128544,0.0525833918,0.213721122,-0.961546678
567,1422749,476870,0.006,-0.078,0.769,-8.9,-15,-16,12.4,-14,-14.1,0.163884396,0.0521561327,0.213873714,-0.961577197
568,1424844,476870,0.022,-0.082,0.765,-8.9,-14.7,-15.1,12.4,-14,-14.1,0.163640248,0.0517593921,0.214026307,-0.961607715
569,1428010,476870,0.038,-0.11,0.78,-8.2,-14.9,-14.1,12.4,-14,-14.1,0.163426618,0.0513626514,0.214148381,-0.961638234
570,1430043,476880,0.072,-0.189,0.733,-6.9,-15.2,-13,13.1,-13.5,-14.3,0.163243507,0.0509353923,0.214270455,-0.961668752
571,1432118,476880,0.095,-0.233,0.713,-4.8,-15.6,-12.1,13.1,-13.5,-14.3,0.163060396,0.0505386517,0.214331492,-0.961699271
572,1435217,476880,0.11,-0.273,0.697,-2,-16.2,-11.4,13.1,-13.5,-14.3,0.162907804,0.0501419111,0.214331492,-0.961760308
573,1436734,476880,0.168,-0.349,0.664,1.4,-17.2,-10.8,13.1,-13.5,-14.3,0.162755211,0.0497146519,0.214239937,-0.961821345
574,1439838,476890,0.219,-0.382,0.651,5.3,-18.4,-10.4,13.1,-13.7,-14,0.162602618,0.0493179113,0.214087344,-0.9619129
575,1441944,476890,0.39,-0.421,0.67,9.3,-19.8,-9.7,13.1,-13.7,-14,0.162480544,0.0488601337,0.213812677,-0.962004456
576,1445040,476890,0.596,-0.457,0.72,13.2,-21.1,-9,13.1,-13.7,-14,0.162388989,0.0484328745,0.213476974,-0.96212653
577,1447249,476890,0.642,-0.568,0.746,16.3,-21.9,-9,13.1,-13.7,-14,0.162266915,0.0480056154,0.213049715,-0.962248604
578,1451168,476900,0.594,-0.575,0.771,17.9,-21.3,-10.3,15.2,-16.1,-14.4,0.162144841,0.0475783563,0.212622456,-0.962401196
579,1451905,476900,0.595,-0.563,0.798,18.7,-18.7,-11.8,15.2,-16.1,-14.4,0.16196173,0.0471510971,0.212134159,-0.962553789
580,1454352,476900,0.595,-0.563,0.798,18.7,-18.7,-11.8,15.2,-16.1,-14.4,0.16196173,0.0471510971,0.212134159,-0.962553789
581,1457779,476900,0.765,-0.618,0.899,21.7,-10.6,-8.1,15.2,-16.1,-14.4,0.161626026,0.046662801,0.211218604,-0.962828455
582,1459459,476910,0.744,-0.664,0.911,20.5,-3.8,3.4,14,-12.8,-14,0.161687063,0.046723838,0.210791345,-0.962920011
583,1462080,476910,0.689,-0.675,0.893,20.5,-3.8,3.4,14,-12.8,-14,0.161778619,0.046723838,0.210333567,-0.963011567
584,1464601,476910,0.645,-0.635,0.863,18.6,-0.7,10.7,14,-12.8,-14,0.16196173,0.0468153935,0.209936827,-0.963042085
585,1467764,476910,0.706,-0.558,0.791,16.5,2,19.8,14,-12.8,-14,0.162327952,0.0469985046,0.209570605,-0.963042085
586,1470469,476920,0.761,-0.531,0.75,12.1,4.1,29.7,14.7,-12.5,-14.1,0.162968841,0.0472731712,0.209295938,-0.963011567
587,1472794,476920,0.789,-0.512,0.722,3.8,5.7,38.8,14.7,-12.5,-14.1,0.163731803,0.0475783563,0.209204382,-0.962858974
588,1475100,476920,0.786,-0.505,0.719,-7.7,7.1,46.4,14.7,-12.5,-14.1,0.164708396,0.0478835414,0.209326456,-0.962675863
589,1477199,476920,0.778,-0.512,0.727,-19.7,9.1,53,14.7,-12.5,-14.1,0.165776543,0.048280282,0.209723197,-0.962370678
590,1479670,476930,0.754,-0.527,0.735,-30.1,11.7,59.1,15,-12.9,-14.2,0.166997284,0.0487075411,0.210333567,-0.962004456
591,1482441,476930,0.737,-0.547,0.743,-38.2,15.1,64.7,15,-12.9,-14.2,0.168340098,0.0491653188,0.211127049,-0.961577197
592,1486262,476930,0.673,-0.6,0.773,-44.7,18.7,69.4,15,-12.9,-14.2,0.16974395,0.0497146519,0.212073122,-0.9610889
593,1486726,476930,0.649,-0.635,0.785,-50.3,22.4,73.2,15,-12.9,-14.2,0.171239357,0.0503250221,0.213110752,-0.960570086
594,1489857,476940,0.617,-0.67,0.813,-55,25.9,76.4,14.8,-12.8,-14.1,0.172795801,0.0510269478,0.214270455,-0.959990234
595,1492229,476940,0.585,-0.7,0.826,-58.2,29,79.4,14.8,-12.8,-14.1,0.174382763,0.0517899106,0.215521714,-0.959379864
596,1494497,476940,0.536,-0.762,0.859,-59.4,31.7,82.4,14.8,-12.8,-14.1,0.176000244,0.0526139103,0.216803491,-0.958738975
597,1497199,476940,0.524,-0.789,0.871,-58.5,33.9,85.4,14.8,-12.8,-14.1,0.177709281,0.0534989471,0.21805475,-0.958098086
598,1499686,476950,0.512,-0.809,0.879,-55.4,35.7,88.1,13.3,-14.5,-14.4,0.179448836,0.0544755394,0.219244972,-0.957457198
599,1501844,476950,0.492,-0.832,0.876,-50.7,37.2,90.4,13.3,-14.5,-14.4,0.181218909,0.0554521317,0.220343638,-0.956816309
600,1504884,476950,0.487,-0.855,0.888,-44.6,38.6,92.2,13.3,-14.5,-14.4,0.183019501,0.0565507981,0.221320231,-0.95617542
601,1507231,476950,0.487,-0.859,0.888,-37.3,39.9,93.5,13.3,-14.5,-14.4,0.184789575,0.0576494644,0.22214423,-0.95556505
602,1509412,476960,0.475,-0.863,0.888,-19.7,41.4,94.9,13.5,-14.4,-14.3,0.186620685,0.0589312418,0.222602008,-0.955046236
603,1513150,476960,0.487,-0.851,0.868,-19.7,41.4,94.9,13.5,-14.4,-14.3,0.188421278,0.0601825007,0.223059786,-0.954496902
604,1515388,476960,0.496,-0.836,0.868,-10.2,41.9,95.3,13.5,-14.4,-14.3,0.19022187,0.0614642781,0.223303934,-0.954008606
605,1517576,476960,0.496,-0.832,0.86,-0.6,42.1,95.6,13.5,-14.4,-14.3,0.191991943,0.0628070925,0.223364971,-0.953550829
606,1519995,476970,0.496,-0.796,0.848,8.5,42.5,95.9,13.1,-15,-14,0.193792535,0.0642109439,0.223242897,-0.953123569
607,1522134,476970,0.505,-0.749,0.832,17.2,43.1,96.4,13.1,-15,-14,0.19553209,0.0656453139,0.222937712,-0.952726829
608,1524384,476970,0.505,-0.726,0.832,24.8,44,97.4,13.1,-15,-14,0.197332682,0.0671407208,0.222479934,-0.952360607
609,1527550,476970,0.505,-0.698,0.828,31.2,45.2,98.7,13.1,-15,-14,0.199102756,0.0686971648,0.221869564,-0.952024903
610,1529705,476980,0.506,-0.667,0.824,36.3,46.5,100.2,12.9,-15.6,-14,0.200903348,0.0703146458,0.221167638,-0.951689199
611,1532013,476980,0.506,-0.624,0.804,40.2,47.9,101.9,12.9,-15.6,-14,0.202734458,0.0719626453,0.220374157,-0.951384014
612,1535551,476980,0.511,-0.604,0.8,42.8,49.3,103.3,12.9,-15.6,-14,0.204565569,0.0736716819,0.219550157,-0.951048311
613,1536917,476980,0.515,-0.585,0.785,44.2,50.6,104.5,12.9,-15.6,-14,0.206427198,0.0754417554,0.218695639,-0.950712607
614,1540071,476990,0.507,-0.569,0.753,44.2,51.7,105.8,12.4,-16.6,-13.9,0.208319346,0.077211829,0.217810602,-0.950346385
615,1542347,476990,0.499,-0.553,0.738,42.8,52.9,107,12.4,-16.6,-13.9,0.210180975,0.079012421,0.216986602,-0.949980163
616,1544591,476990,0.491,-0.549,0.73,40,54,108.2,12.4,-16.6,-13.9,0.212134159,0.0808130131,0.21622364,-0.949552904
617,1547092,476990,0.479,-0.549,0.727,36.2,55.1,109.6,12.4,-16.6,-13.9,0.214056825,0.0826136052,0.215521714,-0.949125645
618,1549424,477000,0.44,-0.548,0.751,31.6,56.2,111.1,11.9,-13.9,-13.1,0.216040529,0.0844752342,0.214941862,-0.948637349
619,1552811,477000,0.416,-0.559,0.768,26.9,57.3,112.9,11.9,-13.9,-13.1,0.21805475,0.0863368633,0.214453566,-0.948149052
620,1555094,477000,0.4,-0.566,0.788,22.5,58.5,114.7,11.9,-13.9,-13.1,0.220130009,0.0881984924,0.214026307,-0.947569201
621,1557327,477000,0.376,-0.574,0.796,18.7,59.3,116.8,11.9,-13.9,-13.1,0.222235786,0.0900601215,0.213721122,-0.946989349
622,1559582,477010,0.336,-0.585,0.813,12.2,60.5,121.3,11.8,-17.4,-14,0.224433119,0.091891232,0.213507492,-0.94634846
623,1561969,477010,0.32,-0.592,0.813,12.2,60.5,121.3,11.8,-17.4,-14,0.226630451,0.0938138981,0.213324381,-0.945677053
624,1564343,477010,0.3,-0.592,0.81,9,60.6,123.7,11.8,-17.4,-14,0.228888821,0.0956755272,0.213171789,-0.944975127
625,1567798,477010,0.288,-0.599,0.81,5.8,60.5,126,11.8,-17.4,-14,0.231177709,0.0975371563,0.213080233,-0.944242683
626,1569484,477020,0.268,-0.614,0.838,2.7,60.4,128.4,11.6,-17.5,-14,0.233527635,0.0993987854,0.213049715,-0.94347972
627,1572315,477020,0.256,-0.622,0.842,0,60.4,130.9,11.6,-17.5,-14,0.235938597,0.101229896,0.213080233,-0.942655721
628,1575391,477020,0.248,-0.634,0.862,-2,60.4,133.7,11.6,-17.5,-14,0.238410596,0.103091525,0.213110752,-0.941831721
629,1576837,477020,0.248,-0.673,0.886,-3.3,60.4,136.8,11.6,-17.5,-14,0.240974151,0.104953154,0.213202307,-0.940977203
630,1579708,477030,0.244,-0.681,0.901,-4.2,60.4,140.1,11.1,-18,-14,0.243568224,0.106814783,0.213293863,-0.940061647
631,1582816,477030,0.252,-0.689,0.921,-4.9,60.4,143.6,11.1,-18,-14,0.246253853,0.108706931,0.213385418,-0.939146092
632,1585841,477030,0.244,-0.704,0.929,-5.9,60.5,147,11.1,-18,-14,0.24897,0.110599078,0.213476974,-0.9381695
633,1587307,477030,0.244,-0.704,0.945,-7.2,60.7,150.2,11.1,-18,-14,0.251777703,0.112491226,0.213599048,-0.937162389
634,1589673,477040,0.236,-0.696,0.956,-8.5,61.1,153.2,10.1,-17.8,-13.8,0.254646443,0.114413892,0.213721122,-0.93612476
635,1592967,477040,0.232,-0.696,0.953,-10,61.6,155.7,10.1,-17.8,-13.8,0.25757622,0.11630604,0.213873714,-0.935056612
636,1594572,477040,0.228,-0.688,0.964,-11.2,62.4,157.7,10.1,-17.8,-13.8,0.260536515,0.118259224,0.214056825,-0.933957945
637,1596812,477040,0.213,-0.668,0.984,-12,63.3,158.9,10.1,-17.8,-13.8,0.263496811,0.120273446,0.214270455,-0.932828761
638,1599956,477050,0.201,-0.656,0.992,-12.1,64.4,159.7,9.8,-16.5,-11.7,0.266487625,0.122257149,0.214453566,-0.931669057
639,1602467,477050,0.189,-0.648,0.993,-11.6,65.8,160,9.8,-16.5,-11.7,0.26944792,0.124271371,0.214636677,-0.930509354
640,1604482,477050,0.178,-0.636,0.993,-10.8,67.5,160.2,9.8,-16.5,-11.7,0.272408216,0.126316111,0.214819788,-0.929319132
641,1606931,477050,0.166,-0.608,0.993,-10,69.2,160,9.8,-16.5,-11.7,0.275368511,0.128421888,0.215002899,-0.92812891
642,1609947,477060,0.151,-0.592,0.982,-9.2,72.5,158.9,9.6,-18,-14.9,0.278267769,0.130588702,0.21518601,-0.92690817
643,1612218,477060,0.147,-0.568,0.978,-9.2,72.5,158.9,9.6,-18,-14.9,0.281167028,0.132724998,0.215338603,-0.925687429
644,1614356,477060,0.116,-0.528,0.94,-9.6,74.2,158,9.6,-18,-14.9,0.284035768,0.13492233,0.215552232,-0.924466689
645,1618354,477060,0.096,-0.508,0.928,-10.4,75.9,156.7,9.6,-18,-14.9,0.286873989,0.137119663,0.215765862,-0.92321543
646,1619792,477070,0.088,-0.488,0.917,-11.3,77.6,155.1,8.8,-17,-14.7,0.289651173,0.139347514,0.21601001,-0.921933653
647,1621899,477070,0.077,-0.468,0.913,-12,79.3,153.1,8.8,-17,-14.7,0.292397839,0.141575365,0.216284677,-0.920682394
648,1625250,477070,0.025,-0.444,0.899,-12.5,80.8,150.8,8.8,-17,-14.7,0.295083468,0.143833735,0.216589862,-0.919400616
649,1627103,477070,-0.005,-0.431,0.884,-12.4,82.3,148.5,8.8,-17,-14.7,0.29770806,0.146092105,0.216895047,-0.918118839
650,1630356,477080,-0.025,-0.419,0.865,-11.9,84,146.3,8.4,-17.4,-14.7,0.300271615,0.148411512,0.21723075,-0.916837062
651,1631940,477080,-0.049,-0.411,0.854,-11.2,85.5,144.2,8.4,-17.4,-14.7,0.302804651,0.150730918,0.217535936,-0.915555284
652,1635756,477080,-0.096,-0.39,0.812,-11.1,86.9,142.2,8.4,-17.4,-14.7,0.305246132,0.153050325,0.217871639,-0.914273507
653,1637257,477080,-0.124,-0.374,0.809,-11.8,88,140.4,8.4,-17.4,-14.7,0.307687613,0.15540025,0.218207343,-0.912961211
654,1639461,477090,-0.148,-0.369,0.802,-13.4,88.6,138.8,8.2,-17.3,-15,0.310068056,0.157750175,0.218604083,-0.911679434
655,1642513,477090,-0.179,-0.357,0.799,-15.4,89.3,137,8.2,-17.3,-15,0.312417982,0.160069582,0.219031343,-0.910367138
656,1644894,477090,-0.219,-0.344,0.784,-17.2,90,135.4,8.2,-17.3,-15,0.314737388,0.162388989,0.219519639,-0.909024323
657,1647229,477090,-0.235,-0.336,0.777,-18.6,90.8,133.8,8.2,-17.3,-15,0.317026276,0.164708396,0.220038453,-0.907681509
658,1649412,477100,-0.251,-0.327,0.761,-19.6,91.6,132.2,8,-17.9,-13.4,0.319254128,0.166997284,0.220587786,-0.906338694
659,1652812,477100,-0.274,-0.311,0.731,-20.8,92.2,130.9,8,-17.9,-13.4,0.321481979,0.169316691,0.221167638,-0.90499588
660,1655109,477100,-0.29,-0.307,0.715,-22.5,92.5,130,8,-17.9,-13.4,0.323679312,0.171605579,0.221778008,-0.903622547
661,1657428,477100,-0.298,-0.299,0.708,-24.6,92.4,129.3,8,-17.9,-13.4,0.325876644,0.173894467,0.222418897,-0.902249214
662,1659563,477110,-0.33,-0.29,0.689,-29,92,128.1,7.9,-17.7,-13.4,0.328073977,0.176122318,0.22318186,-0.900845363
663,1661885,477110,-0.342,-0.29,0.682,-29,92,128.1,7.9,-17.7,-13.4,0.330240791,0.178350169,0.223914304,-0.899410993
664,1664484,477110,-0.358,-0.294,0.682,-31.1,92,127.5,7.9,-17.7,-13.4,0.332407605,0.180547502,0.224677267,-0.897976623
665,1668623,477110,-0.374,-0.289,0.671,-33.1,92.2,127,7.9,-17.7,-13.4,0.334574419,0.182744835,0.225501267,-0.896542253
666,1670726,477120,-0.397,-0.293,0.656,-35.5,92.4,126.6,7.3,-17.6,-13,0.336741234,0.184911649,0.226355785,-0.895046846
667,1672844,477120,-0.429,-0.288,0.637,-38.5,92.6,126.3,7.3,-17.6,-13,0.338908048,0.187047945,0.22727134,-0.893551439
668,1674502,477120,-0.449,-0.28,0.622,-42.3,92.6,126.1,7.3,-17.6,-13,0.341074862,0.18918424,0.228278451,-0.892025513
669,1677998,477120,-0.473,-0.271,0.607,-47.2,92.5,125.7,7.3,-17.6,-13,0.343272195,0.19122898,0.229377117,-0.890469069
670,1680238,477130,-0.5,-0.251,0.58,-53.1,92.1,125.2,7.1,-17.6,-12.8,0.345439009,0.193273721,0.230567339,-0.888882107
671,1682787,477130,-0.536,-0.235,0.573,-59.8,91.7,124.3,7.1,-17.6,-12.8,0.347636341,0.195226905,0.231879635,-0.887234107
672,1685404,477130,-0.556,-0.215,0.55,-67.3,91.4,123.2,7.1,-17.6,-12.8,0.349864193,0.197088534,0.233375042,-0.885586108
673,1686743,477130,-0.575,-0.202,0.535,-75.1,91.1,121.7,7.1,-17.6,-12.8,0.352031007,0.198889126,0.234992523,-0.883877071
674,1689894,477140,-0.627,-0.166,0.505,-83.1,90.4,119.9,6.7,-18.2,-12.4,0.354258858,0.200628681,0.236762597,-0.882106998
675,1691984,477140,-0.65,-0.142,0.494,-91.1,89.5,118,6.7,-18.2,-12.4,0.356486709,0.202246162,0.238685263,-0.880336924
676,1694512,477140,-0.674,-0.126,0.491,-99.4,88.3,115.9,6.7,-18.2,-12.4,0.358684042,0.203772088,0.240760521,-0.878536332
677,1698223,477140,-0.697,-0.105,0.491,-107.9,87,113.7,6.7,-18.2,-12.4,0.360881375,0.205206458,0.243018891,-0.876674703
678,1700520,477150,-0.745,-0.092,0.512,-116.2,85.6,111.5,6.5,-17.8,-16.3,0.363078707,0.206518754,0.245399335,-0.874782556
679,1702611,477150,-0.764,-0.084,0.532,-123.7,84.2,109.1,6.5,-17.8,-16.3,0.36527604,0.207708975,0.247962889,-0.87285989
680,1704484,477150,-0.784,-0.088,0.548,-129.9,82.8,106.8,6.5,-17.8,-16.3,0.367442854,0.20883816,0.250587481,-0.870937223
681,1706881,477150,-0.804,-0.091,0.553,-134.8,81.3,104.5,6.5,-17.8,-16.3,0.36957915,0.20987579,0.253334147,-0.868984039
682,1710026,477160,-0.828,-0.098,0.573,-141.1,77.2,100.1,6.5,-17.2,-13.7,0.371990112,0.211767937,0.255806146,-0.866756188
683,1712046,477160,-0.839,-0.098,0.581,-141.1,77.2,100.1,6.5,-17.2,-13.7,0.374095889,0.212652974,0.258644368,-0.864803003
684,1714876,477160,-0.847,-0.102,0.589,-143.8,74.7,97.9,6.5,-17.2,-13.7,0.376171148,0.213446455,0.261513108,-0.862849818
685,1717608,477160,-0.868,-0.121,0.598,-146.7,72.3,96,6.5,-17.2,-13.7,0.378276925,0.214148381,0.264412366,-0.860866115
686,1720183,477170,-0.876,-0.129,0.613,-149.9,69.7,94.1,6.6,-17,-14.3,0.380321665,0.214758751,0.267372662,-0.858882412
687,1722096,477170,-0.884,-0.148,0.618,-152.7,67.2,91.9,6.6,-17,-14.3,0.382366405,0.215277566,0.270363475,-0.856929228
688,1724447,477170,-0.888,-0.168,0.622,-154.2,64.8,89.4,6.6,-17,-14.3,0.384380627,0.215735343,0.273354289,-0.854945524
689,1727467,477170,-0.904,-0.214,0.634,-154,62.7,86.6,6.6,-17,-14.3,0.386333811,0.216132084,0.276345103,-0.85299234
690,1729549,477180,-0.913,-0.234,0.642,-152,60.8,83.8,6.3,-16.7,-14.6,0.388256478,0.216467788,0.279305399,-0.851069674
691,1732940,477180,-0.917,-0.242,0.642,-148.9,58.7,81.1,6.3,-16.7,-14.6,0.390087588,0.216803491,0.282174139,-0.849208045
692,1735284,477180,-0.921,-0.253,0.642,-145.6,56.4,78.8,6.3,-16.7,-14.6,0.39188818,0.217108676,0.284981841,-0.847346416
693,1736840,477180,-0.929,-0.265,0.635,-142.7,54.1,76.8,6.3,-16.7,-14.6,0.393658254,0.217352824,0.287697989,-0.845545824
694,1740025,477190,-0.941,-0.273,0.631,-140.4,52,75.1,6.4,-15.9,-15.6,0.39536729,0.217566454,0.290383618,-0.84377575
695,1742488,477190,-0.957,-0.276,0.636,-138.1,50.2,73.5,6.4,-15.9,-15.6,0.397076327,0.217780084,0.293008209,-0.842005676
696,1744492,477190,-0.965,-0.272,0.628,-135,48.5,71.8,6.4,-15.9,-15.6,0.398724326,0.217963195,0.295571764,-0.84029664
697,1747412,477190,-0.993,-0.267,0.617,-130.9,47,70,6.4,-15.9,-15.6,0.400311289,0.218115787,0.298043764,-0.838618122
698,1750641,477200,-0.997,-0.259,0.605,-126.3,45.6,68.1,6.2,-16.1,-17,0.401867733,0.218298898,0.300424207,-0.836970122
699,1752571,477200,-1.012,-0.247,0.594,-121.9,44.4,66.1,6.2,-16.1,-17,0.40336314,0.218482009,0.302743614,-0.83538316
700,1754490,477200,-1.032,-0.215,0.571,-118,43.2,64.3,6.2,-16.1,-17,0.404766991,0.218634602,0.304971465,-0.833826716
701,1758056,477200,-1.044,-0.203,0.563,-114.8,41.9,62.3,6.2,-16.1,-17,0.406201361,0.218817713,0.307107761,-0.83230079
702,1760369,477210,-1.047,-0.18,0.556,-109.3,39.2,57.8,5.8,-15.5,-15.7,0.407513657,0.218939787,0.30918302,-0.83086642
703,1762643,477210,-1.063,-0.16,0.552,-109.3,39.2,57.8,5.8,-15.5,-15.7,0.408825953,0.219061861,0.31122776,-0.829432051
704,1765021,477210,-1.086,-0.108,0.537,-107,38.1,55.3,5.8,-15.5,-15.7,0.410077212,0.219183935,0.313241981,-0.828028199
705,1767166,477210,-1.094,-0.092,0.533,-104.9,37.3,52.8,5.8,-15.5,-15.7,0.411267434,0.219275491,0.315225684,-0.826654866
706,1769452,477220,-1.101,-0.072,0.526,-103.2,36.7,50.3,5.8,-15.3,-17.2,0.412427137,0.219367046,0.317178869,-0.825312052
707,1772253,477220,-1.097,-0.057,0.521,-102.3,36,47.5,5.8,-15.3,-17.2,0.413525803,0.219397565,0.319101535,-0.823999756
708,1774627,477220,-1.108,0.029,0.506,-101.9,35.1,44.6,5.8,-15.3,-17.2,0.414532914,0.219428083,0.32105472,-0.822717978
709,1777943,477220,-1.104,0.044,0.498,-102.3,34.1,41.4,5.8,-15.3,-17.2,0.415570544,0.219397565,0.322977386,-0.82146672
710,1780107,477230,-1.123,0.068,0.498,-103.3,33,38,6,-15.3,-17.8,0.416486099,0.219336528,0.324961089,-0.820215461
711,1782540,477230,-1.135,0.077,0.506,-104.7,32.4,34.5,6,-15.3,-17.8,0.417401654,0.219214454,0.326944792,-0.81899472
712,1786097,477230,-1.13,0.116,0.53,-105.4,32.2,31.5,6,-15.3,-17.8,0.418225654,0.219031343,0.328989532,-0.817804498
713,1787629,477230,-1.126,0.112,0.545,-104.5,32,28.9,6,-15.3,-17.8,0.419019135,0.21887875,0.331003754,-0.816644795
714,1789395,477240,-1.114,0.108,0.561,-102.4,31.2,26.5,5.7,-14.5,-18.1,0.419751579,0.21866512,0.332987457,-0.81551561
715,1792835,477240,-1.094,0.092,0.603,-100.2,30,23.8,5.7,-14.5,-18.1,0.420392468,0.218482009,0.334940641,-0.814416944
716,1794484,477240,-1.091,0.076,0.615,-98.4,28.9,20.9,5.7,-14.5,-18.1,0.421063875,0.218237861,0.336832789,-0.813379315
717,1797565,477240,-1.083,0.052,0.626,-97,28,17.7,5.7,-14.5,-18.1,0.421643727,0.217963195,0.338724937,-0.812341685
718,1799728,477250,-1.075,0.04,0.63,-95.6,27.4,14.2,6.1,-14.6,-18.3,0.422132023,0.217688528,0.340617084,-0.811395611
719,1802984,477250,-1.064,0.012,0.665,-94.2,27,10.9,6.1,-14.6,-18.3,0.422559282,0.217383343,0.342478713,-0.810449538
720,1804531,477250,-1.068,-0.002,0.681,-93,26.9,7.4,6.1,-14.6,-18.3,0.422956023,0.217017121,0.344340342,-0.809564501
721,1807637,477250,-1.068,-0.014,0.692,-91.5,26.8,4.2,6.1,-14.6,-18.3,0.423261208,0.216711936,0.346171453,-0.808709983
722,1809973,477260,-1.064,-0.022,0.716,-87.1,27.1,-1.4,6.5,-14.4,-18.7,0.423444319,0.216376232,0.347972045,-0.807916501
723,1812083,477260,-1.056,-0.018,0.719,-87.1,27.1,-1.4,6.5,-14.4,-18.7,0.423596912,0.216040529,0.349772637,-0.807153539
724,1814610,477260,-1.052,-0.01,0.727,-84.3,27,-3.7,6.5,-14.4,-18.7,0.423749504,0.215704825,0.351512192,-0.806421094
725,1816975,477260,-1.048,-0.007,0.739,-81.3,27,-5.5,6.5,-14.4,-18.7,0.423810541,0.215369121,0.353221229,-0.805719169
726,1821222,477270,-1.051,0.004,0.739,-78,26.6,-7,6.9,-13.9,-18.5,0.42384106,0.215063936,0.354869228,-0.805047761
727,1821880,477270,-1.051,0.02,0.747,-74.3,26.3,-8.2,6.9,-13.9,-18.5,0.42384106,0.21478927,0.356456191,-0.804437391
728,1824952,477270,-1.055,0.024,0.751,-69.9,26.1,-9.4,6.9,-13.9,-18.5,0.423810541,0.214514603,0.357982116,-0.80385754
729,1827110,477270,-1.055,0.028,0.747,-65.3,25.9,-10.6,6.9,-13.9,-18.5,0.423718986,0.214300974,0.359416486,-0.803308206
730,1829484,477280,-1.047,0.028,0.75,-60.9,25.5,-11.9,7.3,-13.7,-18.9,0.423596912,0.214087344,0.360789819,-0.80281991
731,1832377,477280,-1.051,0.028,0.75,-57.1,25.1,-13,7.3,-13.7,-18.9,0.423444319,0.213873714,0.362071596,-0.802362133
732,1836126,477280,-1.055,0.028,0.739,-54,24.7,-14.1,7.3,-13.7,-18.9,0.423261208,0.213721122,0.363322855,-0.801965392
733,1837582,477280,-1.051,0.024,0.739,-51.6,24.5,-15.2,7.3,-13.7,-18.9,0.42301706,0.213538011,0.364513077,-0.801568651
734,1839811,477290,-1.047,0.028,0.739,-49.8,24.2,-16.1,7.3,-12.9,-18.7,0.422772912,0.213385418,0.365672781,-0.801202429
735,1842551,477290,-1.051,0.024,0.743,-48.7,24,-17,7.3,-12.9,-18.7,0.422528764,0.213202307,0.366832484,-0.800866726
736,1844387,477290,-1.051,0.028,0.747,-48.1,23.8,-17.7,7.3,-12.9,-18.7,0.422254097,0.213049715,0.367992187,-0.800531022
737,1847554,477290,-1.051,0.032,0.743,-47.5,23.7,-18.4,7.3,-12.9,-18.7,0.421948912,0.212866604,0.369121372,-0.800225837
738,1849820,477300,-1.051,0.028,0.75,-46.7,23.7,-18.6,5.5,-13.2,-19.4,0.421643727,0.212714011,0.370250557,-0.799890133
739,1851988,477300,-1.051,0.024,0.75,-45.5,23.5,-18.6,5.5,-13.2,-19.4,0.421338542,0.2125309,0.371349223,-0.799584948
740,1855119,477300,-1.047,0.024,0.758,-43.9,23.2,-18.4,5.5,-13.2,-19.4,0.421033357,0.212408826,0.372417371,-0.799310282
741,1857401,477300,-1.039,0.02,0.77,-42.4,22.9,-18.1,5.5,-13.2,-19.4,0.420728172,0.212256233,0.373424482,-0.799005097
742,1859543,477310,-1.031,0.008,0.77,-38.9,22.3,-17.5,9.3,-13.1,-19.2,0.420392468,0.212134159,0.374401074,-0.798760949
743,1861964,477310,-1.035,0.004,0.766,-38.9,22.3,-17.5,9.3,-13.1,-19.2,0.420117801,0.212042604,0.375377667,-0.798486282
744,1864678,477310,-1.032,-0.007,0.777,-37,22.1,-17.2,9.3,-13.1,-19.2,0.419812616,0.211951048,0.376293222,-0.798242134
745,1867791,477310,-1.012,-0.019,0.781,-35,22,-17.1,9.3,-13.1,-19.2,0.419476913,0.211859493,0.377178259,-0.797997986
746,1870058,477320,-1.012,-0.019,0.777,-32.9,22.1,-17.3,9.4,-12.8,-19.4,0.419141209,0.211798456,0.378032777,-0.797784356
747,1872289,477320,-1.012,-0.027,0.777,-30.8,22.3,-17.7,9.4,-12.8,-19.4,0.418805506,0.211767937,0.378856777,-0.797601245
748,1874570,477320,-1.004,-0.019,0.769,-29.1,22.6,-18.3,9.4,-12.8,-19.4,0.418439283,0.211737419,0.379650258,-0.797418134
749,1877004,477320,-1,-0.019,0.765,-27.5,23,-19,9.4,-12.8,-19.4,0.418042543,0.211737419,0.380443739,-0.797265542
750,1879455,477330,-0.992,-0.012,0.769,-26,23.5,-19.8,10,-12.3,-19.4,0.417615284,0.211737419,0.381206702,-0.797112949
751,1882757,477330,-0.984,-0.012,0.764,-24.8,23.9,-20.6,10,-12.3,-19.4,0.417157506,0.211767937,0.381939146,-0.796990875
752,1885110,477330,-0.976,-0.008,0.756,-23.7,24.3,-21.8,10,-12.3,-19.4,0.416699728,0.211798456,0.38267159,-0.796868801
753,1887409,477330,-0.956,0.006,0.748,-22.9,24.8,-23.1,10,-12.3,-19.4,0.416180914,0.211798456,0.383404035,-0.796777245
754,1889465,477340,-0.952,0.006,0.744,-22.6,25.4,-24.9,10,-12.3,-19.4,0.415662099,0.211828974,0.384166997,-0.79668569
755,1892445,477340,-0.944,0.021,0.744,-22.9,26.1,-26.7,10,-12.3,-19.4,0.415082247,0.211859493,0.384899442,-0.796624653
756,1894689,477340,-0.932,0.033,0.736,-23.7,27.1,-28.6,10,-12.3,-19.4,0.414441359,0.211890011,0.385692923,-0.796563616
757,1897640,477340,-0.928,0.029,0.732,-25,28.2,-30.4,10,-12.3,-19.4,0.41380047,0.211890011,0.386547441,-0.796502579
758,1899489,477350,-0.92,0.037,0.727,-26.5,29.3,-32.4,7.8,-12.1,-19.7,0.413129063,0.211890011,0.387401959,-0.796441542
759,1903075,477350,-0.912,0.04,0.727,-28.1,30.4,-34.5,7.8,-12.1,-19.7,0.412396619,0.211859493,0.388348033,-0.796349986
760,1904518,477350,-0.892,0.032,0.723,-29.7,31.6,-36.6,7.8,-12.1,-19.7,0.411633656,0.211828974,0.389294107,-0.796288949
761,1907472,477350,-0.888,0.024,0.727,-31.2,32.9,-38.4,7.8,-12.1,-19.7,0.410809656,0.211798456,0.390331736,-0.796227912
762,1909803,477360,-0.881,0.016,0.726,-34.4,35.1,-41.6,9.3,-12.2,-20,0.409955138,0.211737419,0.391430403,-0.796136357
763,1912025,477360,-0.865,0.004,0.726,-34.4,35.1,-41.6,9.3,-12.2,-20,0.40910062,0.2117069,0.392529069,-0.796044801
764,1914570,477360,-0.857,-0.015,0.73,-36.3,36.3,-42.9,9.3,-12.2,-20,0.408185064,0.211645863,0.393688772,-0.795953246
765,1917984,477360,-0.85,-0.031,0.734,-38.2,37.5,-44,9.3,-12.2,-20,0.407300027,0.211584826,0.394878994,-0.795831172
766,1919493,477370,-0.85,-0.039,0.722,-40,38.8,-44.7,9.5,-11.7,-20.2,0.406353954,0.211493271,0.396130253,-0.795709098
767,1921992,477370,-0.842,-0.047,0.722,-41.6,40.1,-44.9,9.5,-11.7,-20.2,0.40540788,0.211432234,0.39741203,-0.795556505
768,1925517,477370,-0.834,-0.063,0.721,-43.1,41.5,-45.1,9.5,-11.7,-20.2,0.404492325,0.211401715,0.398754845,-0.795403912
769,1927812,477370,-0.83,-0.078,0.725,-44.4,42.9,-45,9.5,-11.7,-20.2,0.403515732,0.211340678,0.400097659,-0.795220801
770,1930035,477380,-0.827,-0.094,0.721,-45.6,44.1,-44.7,10,-11.4,-20,0.402569658,0.21131016,0.401501511,-0.795007172
771,1932283,477380,-0.811,-0.106,0.717,-46.4,45.2,-44.4,10,-11.4,-20,0.401623585,0.21131016,0.402905362,-0.794763024
772,1936083,477380,-0.807,-0.126,0.713,-47,46.1,-43.9,10,-11.4,-20,0.400677511,0.21131016,0.404309214,-0.794518876
773,1938410,477380,-0.804,-0.146,0.705,-47.3,47,-43.4,10,-11.4,-20,0.399731437,0.211340678,0.405743583,-0.794274728
774,1940548,477390,-0.8,-0.17,0.701,-47.4,47.8,-42.8,10.1,-11.1,-20,0.398754845,0.211371197,0.407177953,-0.794000061
775,1942657,477390,-0.805,-0.213,0.686,-47.4,48.6,-42.2,10.1,-11.1,-20,0.39783929,0.211432234,0.408612323,-0.793725394
776,1945061,477390,-0.801,-0.228,0.686,-47.1,49.4,-41.5,10.1,-11.1,-20,0.396893216,0.211493271,0.410077212,-0.793450728
777,1947336,477390,-0.802,-0.248,0.686,-46.4,50.1,-40.9,10.1,-11.1,-20,0.395947142,0.211584826,0.411481063,-0.793145543
778,1949557,477400,-0.806,-0.276,0.678,-45.1,50.7,-40.5,10.4,-11.3,-20.1,0.395001068,0.2117069,0.412884915,-0.792870876
779,1952115,477400,-0.806,-0.307,0.671,-43.3,51.3,-40,10.4,-11.3,-20.1,0.394024476,0.211859493,0.414258248,-0.792565691
780,1954414,477400,-0.815,-0.323,0.667,-40.9,51.5,-39.4,10.4,-11.3,-20.1,0.393047884,0.212042604,0.415601062,-0.792291025
781,1956929,477400,-0.823,-0.326,0.656,-38.3,51.5,-38.8,10.4,-11.3,-20.1,0.39210181,0.212256233,0.416882839,-0.792046876
782,1960069,477410,-0.835,-0.342,0.636,-32.7,51.1,-37.6,10.4,-10.7,-20.1,0.391705069,0.213232826,0.417249062,-0.791802728
783,1962284,477410,-0.839,-0.353,0.629,-32.7,51.1,-37.6,10.4,-10.7,-20.1,0.390758995,0.213507492,0.418408765,-0.791589099
784,1964601,477410,-0.839,-0.357,0.621,-29.5,50.7,-37.3,10.4,-10.7,-20.1,0.389782403,0.213782159,0.41953795,-0.791405988
785,1967288,477410,-0.839,-0.365,0.617,-25.8,50.2,-37.1,10.4,-10.7,-20.1,0.388805811,0.214087344,0.420575579,-0.791222877
786,1969434,477420,-0.832,-0.393,0.617,-21.5,49.5,-37.1,9.9,-10.4,-19.8,0.3877987,0.214423048,0.421552171,-0.791131321
787,1973545,477420,-0.828,-0.401,0.605,-16.8,48.6,-37,9.9,-10.4,-19.8,0.386791589,0.214758751,0.422437208,-0.791039766
788,1975122,477420,-0.828,-0.413,0.597,-11.7,47.7,-37,9.9,-10.4,-19.8,0.385784478,0.215155492,0.423200171,-0.791039766
789,1977345,477420,-0.828,-0.424,0.597,-6.4,46.6,-36.9,9.9,-10.4,-19.8,0.384746849,0.215552232,0.423871578,-0.791070284
790,1979558,477430,-0.833,-0.448,0.582,-1.1,45.6,-37,9.1,-10.5,-20.1,0.383678701,0.21601001,0.42445143,-0.79116184
791,1981992,477430,-0.837,-0.456,0.582,3.7,44.5,-37,9.1,-10.5,-20.1,0.382610553,0.216467788,0.424939726,-0.791283914
792,1985624,477430,-0.841,-0.464,0.571,8.3,43.4,-37.1,9.1,-10.5,-20.1,0.381511887,0.216925565,0.425336467,-0.791467025
793,1987120,477430,-0.845,-0.463,0.567,12.8,42.5,-37,9.1,-10.5,-20.1,0.380443739,0.21744438,0.425641652,-0.791680654
794,1989384,477440,-0.853,-0.471,0.571,17.3,41.6,-36.7,8.5,-10.4,-19.8,0.379314554,0.217963195,0.425855281,-0.791955321
795,1991901,477440,-0.853,-0.471,0.575,21.8,40.6,-36.4,8.5,-10.4,-19.8,0.378215888,0.218512528,0.426007874,-0.792260506
796,1995269,477440,-0.853,-0.467,0.567,26.1,39.5,-36.1,8.5,-10.4,-19.8,0.377086703,0.219061861,0.426038392,-0.792626728
797,1996877,477440,-0.853,-0.451,0.571,30.2,38.2,-35.5,8.5,-10.4,-19.8,0.375988037,0.219641713,0.426007874,-0.793023469
798,1999956,477450,-0.849,-0.448,0.563,33.8,36.8,-34.7,13.4,-12,-19.8,0.37488937,0.220221564,0.4258858,-0.793420209
799,2002088,477450,-0.845,-0.44,0.567,36.9,35.3,-33.9,13.4,-12,-19.8,0.373790704,0.220831935,0.425702689,-0.793877987
800,2004372,477450,-0.841,-0.44,0.567,39.5,33.7,-32.9,13.4,-12,-19.8,0.372692038,0.221442305,0.425458541,-0.794366283
801,2007233,477450,-0.841,-0.428,0.57,41.7,32.4,-31.9,13.4,-12,-19.8,0.371654408,0.222022156,0.425153356,-0.794854579
802,2010434,477460,-0.837,-0.432,0.574,43.6,31.2,-30.8,10,-9.4,-19.6,0.370616779,0.222632527,0.424787133,-0.795342875
803,2012045,477460,-0.833,-0.428,0.566,45.4,30.2,-29.7,10,-9.4,-19.6,0.36957915,0.223273415,0.424390393,-0.79586169
804,2014408,477460,-0.833,-0.428,0.57,46.9,29.3,-28.6,10,-9.4,-19.6,0.368602557,0.223853267,0.423963134,-0.796380505
805,2017808,477460,-0.837,-0.42,0.562,47.9,28.2,-27.6,10,-9.4,-19.6,0.367625965,0.224494156,0.423474837,-0.796899319
806,2019706,477470,-0.836,-0.413,0.559,48.5,27.1,-26.6,10.7,-9.2,-19.1,0.366679891,0.225104526,0.422986541,-0.797448653
807,2021839,477470,-0.836,-0.409,0.555,48.7,26.1,-25.4,10.7,-9.2,-19.1,0.365703299,0.225714896,0.422467727,-0.797967467
808,2025357,477470,-0.836,-0.401,0.562,48.7,25.2,-24.1,10.7,-9.2,-19.1,0.364848781,0.226325266,0.421948912,-0.798486282
809,2027568,477470,-0.844,-0.393,0.559,48.7,24.3,-22.8,10.7,-9.2,-19.1,0.363994263,0.226935636,0.421399579,-0.799005097
810,2030812,477480,-0.84,-0.385,0.559,48.6,23.4,-21.5,11.3,-9.3,-19.1,0.363139744,0.227546007,0.420850246,-0.799493393
811,2032827,477480,-0.836,-0.381,0.562,48.5,22.4,-20.2,11.3,-9.3,-19.1,0.362346263,0.228125858,0.420270394,-0.799981689
812,2035856,477480,-0.824,-0.389,0.566,48.5,21.5,-19,11.3,-9.3,-19.1,0.3615833,0.22870571,0.419690542,-0.800469985
813,2037565,477480,-0.816,-0.389,0.562,48.2,20.5,-17.8,11.3,-9.3,-19.1,0.360850856,0.229285562,0.419110691,-0.800958281
814,2039842,477490,-0.812,-0.401,0.573,47.8,19.5,-16.6,12.1,-9.4,-19,0.360118412,0.229834895,0.41850032,-0.801416059
815,2041922,477490,-0.809,-0.405,0.566,47.1,18.6,-15.6,12.1,-9.4,-19,0.359447005,0.230414747,0.41788995,-0.801873836
816,2044894,477490,-0.801,-0.425,0.562,46.1,17.8,-14.7,12.1,-9.4,-19,0.358806116,0.230933561,0.417310099,-0.802331614
817,2047228,477490,-0.801,-0.425,0.562,44.9,17.2,-14,12.1,-9.4,-19,0.358165227,0.231452376,0.416730247,-0.802758873
818,2050284,477500,-0.797,-0.433,0.561,43.5,16.8,-13.4,13.3,-11.7,-19,0.357554857,0.231971191,0.416150395,-0.803186132
819,2052492,477500,-0.797,-0.437,0.569,42.2,16.5,-12.9,13.3,-11.7,-19,0.356975005,0.232490005,0.415601062,-0.803582873
820,2054878,477500,-0.793,-0.449,0.565,41,16.1,-12.3,13.3,-11.7,-19,0.356395154,0.232978301,0.415082247,-0.803979614
821,2056969,477500,-0.793,-0.457,0.565,40,15.7,-11.7,13.3,-11.7,-19,0.35584582,0.233436079,0.414532914,-0.804345836
822,2059810,477510,-0.789,-0.453,0.557,38.2,14.6,-10.5,13,-10.4,-18.9,0.355723746,0.234717856,0.413739433,-0.804437391
823,2063936,477510,-0.789,-0.453,0.557,38.2,14.6,-10.5,13,-10.4,-18.9,0.355204932,0.235175634,0.413220618,-0.804803613
824,2064700,477510,-0.786,-0.457,0.557,37.6,14,-9.9,13,-10.4,-18.9,0.354716636,0.235572375,0.412732322,-0.805139317
825,2066990,477510,-0.785,-0.453,0.557,37.1,13.5,-9.3,13,-10.4,-18.9,0.354228339,0.236060671,0.412244026,-0.805475021
826,2071453,477520,-0.778,-0.461,0.557,36.8,13.1,-8.8,13.5,-10.1,-18.8,0.353770562,0.23648793,0.411725211,-0.805810724
827,2071955,477520,-0.774,-0.457,0.557,36.6,12.7,-8.3,13.5,-10.1,-18.8,0.353312784,0.236915189,0.411236915,-0.806146428
828,2075294,477520,-0.774,-0.457,0.557,36.5,12.3,-7.7,13.5,-10.1,-18.8,0.352885525,0.237342448,0.410718101,-0.806451613
829,2077466,477520,-0.77,-0.465,0.561,36.5,12,-7.3,13.5,-10.1,-18.8,0.352458266,0.237769707,0.410199286,-0.806787317
830,2079749,477530,-0.762,-0.461,0.561,36.5,11.6,-6.9,13.5,-10.1,-18.4,0.352031007,0.238196966,0.409680471,-0.807092502
831,2082078,477530,-0.758,-0.477,0.557,36.6,11.2,-6.6,13.5,-10.1,-18.4,0.351634266,0.238624226,0.409161657,-0.807428205
832,2086671,477530,-0.754,-0.481,0.56,36.6,10.9,-6.3,13.5,-10.1,-18.4,0.351237526,0.239051485,0.408642842,-0.80773339
833,2087401,477530,-0.754,-0.485,0.557,36.5,10.6,-6.1,13.5,-10.1,-18.4,0.350840785,0.239448225,0.408093509,-0.808069094
834,2089613,477540,-0.754,-0.481,0.557,36.5,10.3,-5.8,14.1,-10.3,-18.5,0.350444044,0.239875484,0.407574694,-0.808374279
835,2092579,477540,-0.754,-0.473,0.553,36.2,10.1,-5.4,14.1,-10.3,-18.5,0.350077822,0.240272225,0.407025361,-0.808679464
836,2094694,477540,-0.754,-0.469,0.556,35.9,9.9,-5,14.1,-10.3,-18.5,0.3497116,0.240668966,0.406506546,-0.808984649
837,2098098,477540,-0.754,-0.454,0.545,35.4,9.6,-4.7,14.1,-10.3,-18.5,0.349345378,0.241065706,0.405987732,-0.809289834
838,2100088,477550,-0.75,-0.45,0.541,34.9,9.4,-4.3,13.3,-11.4,-18.5,0.349009674,0.241431928,0.405468917,-0.809564501
839,2102520,477550,-0.75,-0.438,0.541,34.5,9.1,-3.9,13.3,-11.4,-18.5,0.348673971,0.241859188,0.404950102,-0.809869686
840,2104807,477550,-0.742,-0.427,0.54,34,8.8,-3.6,13.3,-11.4,-18.5,0.348368786,0.242255928,0.404431288,-0.810144353
841,2107525,477550,-0.741,-0.423,0.544,33.6,8.5,-3.2,13.3,-11.4,-18.5,0.348033082,0.24262215,0.403912473,-0.810419019
842,2109430,477560,-0.737,-0.411,0.552,32.8,8,-2.6,13.4,-11.5,-18.4,0.347972045,0.243537706,0.403271584,-0.810510575
843,2112976,477560,-0.729,-0.407,0.556,32.8,8,-2.6,13.4,-11.5,-18.4,0.347697378,0.243903928,0.40275277,-0.810785241
844,2114707,477560,-0.725,-0.407,0.552,32.4,8,-2.4,13.4,-11.5,-18.4,0.347392193,0.24427015,0.402264473,-0.811029389
845,2117811,477560,-0.729,-0.407,0.552,31.9,7.8,-2.1,13.4,-11.5,-18.4,0.347117527,0.244636372,0.401745659,-0.811304056
846,2119993,477570,-0.729,-0.403,0.552,31.2,7.7,-1.8,13.3,-12.5,-18.5,0.346873379,0.244972076,0.401287881,-0.811548204
847,2122235,477570,-0.729,-0.403,0.552,30.5,7.6,-1.3,13.3,-12.5,-18.5,0.346598712,0.245338298,0.400799585,-0.811761834
848,2124505,477570,-0.729,-0.403,0.552,29.6,7.5,-0.9,13.3,-12.5,-18.5,0.346354564,0.245674001,0.400341807,-0.812005982
849,2127050,477570,-0.725,-0.399,0.552,28.8,7.4,-0.6,13.3,-12.5,-18.5,0.346140934,0.246040223,0.39988403,-0.812219611
850,2129611,477580,-0.725,-0.399,0.548,27.8,7.2,-0.4,13.2,-13.5,-18.2,0.345927305,0.246375927,0.399456771,-0.812433241
851,2132382,477580,-0.721,-0.396,0.544,26.8,7.1,-0.2,13.2,-13.5,-18.2,0.345713675,0.246681112,0.399029511,-0.812616352
852,2136552,477580,-0.729,-0.399,0.548,25.7,6.9,-0.1,13.2,-13.5,-18.2,0.345500046,0.247016816,0.398632771,-0.812799463
853,2137734,477580,-0.717,-0.388,0.551,24.4,6.7,0,13.2,-13.5,-18.2,0.345316935,0.247291482,0.39823603,-0.812982574
854,2139377,477590,-0.717,-0.392,0.54,23.1,6.5,0,13.3,-14.4,-17.6,0.345133824,0.247596667,0.397869808,-0.813165685
855,2142008,477590,-0.713,-0.388,0.543,21.8,6.3,0.1,13.3,-14.4,-17.6,0.344950713,0.247871334,0.397534104,-0.813318278
856,2145055,477590,-0.713,-0.388,0.54,20.5,6.2,0.4,13.3,-14.4,-17.6,0.34479812,0.248146001,0.397228919,-0.813440352
857,2147107,477590,-0.709,-0.388,0.539,19.3,6.1,0.6,13.3,-14.4,-17.6,0.344645528,0.248420667,0.396923734,-0.813592944
858,2149370,477600,-0.709,-0.384,0.536,18.2,6,0.7,13.6,-10.1,-16.5,0.344523453,0.248664815,0.396649068,-0.8136845
859,2151985,477600,-0.713,-0.388,0.54,16.9,5.9,0.7,13.6,-10.1,-16.5,0.344370861,0.248908963,0.396374401,-0.813806574
860,2155345,477600,-0.709,-0.388,0.543,15.7,5.8,0.6,13.6,-10.1,-16.5,0.344218268,0.249122593,0.396130253,-0.813898129
861,2157621,477600,-0.709,-0.396,0.543,14.5,5.8,0.5,13.6,-10.1,-16.5,0.344126713,0.249336222,0.395916623,-0.813989685
862,2159890,477610,-0.705,-0.404,0.543,12.7,5.8,0.3,13.2,-13.4,-19.2,0.344340342,0.250099185,0.395428327,-0.813928648
863,2162267,477610,-0.705,-0.404,0.543,12.7,5.8,0.3,13.2,-13.4,-19.2,0.344218268,0.250282296,0.395245216,-0.814020203
864,2164414,477610,-0.706,-0.408,0.535,12.1,5.8,0.2,13.2,-13.4,-19.2,0.344096194,0.250465407,0.395062105,-0.81408124
865,2167438,477610,-0.706,-0.412,0.539,11.5,5.7,0,13.2,-13.4,-19.2,0.34397412,0.250679037,0.394909513,-0.814142277
866,2169740,477620,-0.706,-0.416,0.543,10.9,5.5,-0.2,13.3,-13.4,-19.2,0.343882565,0.250862148,0.39475692,-0.814203314
867,2171910,477620,-0.71,-0.416,0.536,10.2,5.4,-0.4,13.3,-13.4,-19.2,0.343760491,0.25101474,0.394604328,-0.814264351
868,2174453,477620,-0.714,-0.415,0.544,9.8,5.3,-0.6,13.3,-13.4,-19.2,0.343638417,0.251197851,0.394482253,-0.814325388
869,2178241,477620,-0.71,-0.416,0.536,9.4,5.3,-0.9,13.3,-13.4,-19.2,0.343546861,0.251350444,0.394360179,-0.814386425
870,2180131,477630,-0.71,-0.412,0.54,9.1,5,-1.1,13.2,-13.1,-19.5,0.343424787,0.251503037,0.394238105,-0.814447462
871,2181924,477630,-0.71,-0.412,0.54,9.1,5,-1.1,13.2,-13.1,-19.5,0.343424787,0.251503037,0.394238105,-0.814447462
872,2185741,477630,-0.705,-0.408,0.543,8.8,4.5,-1.3,13.2,-13.1,-19.5,0.343211158,0.251777703,0.393993957,-0.814569536
873,2187463,477630,-0.702,-0.416,0.543,8.8,4.4,-1.5,13.2,-13.1,-19.5,0.343089084,0.251899777,0.393871883,-0.814630573
874,2189687,477640,-0.702,-0.42,0.551,8.9,4.1,-1.6,13,-12.8,-19.1,0.342967009,0.252021851,0.393780328,-0.81469161
875,2192700,477640,-0.702,-0.42,0.543,9.1,3.8,-1.7,13,-12.8,-19.1,0.342844935,0.252143925,0.393627735,-0.814783166
876,2194600,477640,-0.698,-0.42,0.551,9.1,3.6,-1.8,13,-12.8,-19.1,0.34275338,0.252265999,0.393505661,-0.814844203
877,2197633,477640,-0.702,-0.42,0.547,9,3.4,-1.9,13,-12.8,-19.1,0.342631306,0.252388073,0.393383587,-0.814935759
878,2200861,477650,-0.698,-0.416,0.551,8.7,3.4,-2.1,13.4,-11.5,-16.8,0.342509232,0.252479629,0.393261513,-0.814996796
879,2202529,477650,-0.698,-0.416,0.547,8.3,3.3,-2.3,13.4,-11.5,-16.8,0.342387158,0.252601703,0.393169958,-0.815057833
880,2204459,477650,-0.706,-0.412,0.551,8,3.3,-2.4,13.4,-11.5,-16.8,0.342265084,0.252693258,0.393047884,-0.815149388
881,2207010,477650,-0.705,-0.408,0.555,7.8,3.1,-2.4,13.4,-11.5,-16.8,0.342173528,0.252784814,0.392956328,-0.815210425
882,2210373,477660,-0.697,-0.408,0.563,7.4,3.1,-2.2,13.7,-12.1,-18.4,0.342509232,0.253700369,0.392345958,-0.815057833
883,2212567,477660,-0.697,-0.408,0.563,7.4,3.1,-2.2,13.7,-12.1,-18.4,0.342417676,0.253791925,0.392254402,-0.81511887
884,2214706,477660,-0.701,-0.404,0.567,7.3,3.1,-2,13.7,-12.1,-18.4,0.342265084,0.25388348,0.392162847,-0.815179907
885,2217108,477660,-0.697,-0.408,0.567,7.4,3.1,-1.8,13.7,-12.1,-18.4,0.342204047,0.253975036,0.392071291,-0.815240944
886,2220087,477670,-0.698,-0.416,0.57,7.5,2.9,-1.6,13.5,-11.5,-18.3,0.342112491,0.254066591,0.391949217,-0.815301981
887,2222258,477670,-0.702,-0.42,0.578,7.8,2.8,-1.5,13.5,-11.5,-18.3,0.342020936,0.254158147,0.391857662,-0.815363018
888,2224428,477670,-0.702,-0.423,0.571,8,2.7,-1.5,13.5,-11.5,-18.3,0.34192938,0.254249702,0.391735588,-0.815424055
889,2226832,477670,-0.702,-0.427,0.567,8.1,2.5,-1.3,13.5,-11.5,-18.3,0.341837825,0.254341258,0.391613514,-0.81551561
890,2230369,477680,-0.706,-0.427,0.567,7.8,2.5,-1.1,13.8,-11.1,-18.2,0.341746269,0.254463332,0.39149144,-0.815576647
891,2231869,477680,-0.702,-0.435,0.563,7.5,2.7,-1.2,13.8,-11.1,-18.2,0.341654714,0.254554888,0.391399884,-0.815637684
892,2235688,477680,-0.702,-0.431,0.567,7.3,2.8,-1.2,13.8,-11.1,-18.2,0.341563158,0.254646443,0.39127781,-0.815668203
893,2237099,477680,-0.702,-0.427,0.567,7.1,2.8,-1.2,13.8,-11.1,-18.2,0.341471603,0.254737999,0.391186254,-0.81572924
894,2239944,477690,-0.706,-0.431,0.555,6.9,2.5,-1.1,13.6,-11.2,-18.2,0.341410566,0.254829554,0.391094699,-0.815790277
895,2242137,477690,-0.702,-0.427,0.563,6.9,2.4,-1.1,13.6,-11.2,-18.2,0.34131901,0.254890591,0.391003143,-0.815851314
896,2244476,477690,-0.71,-0.419,0.563,6.9,2.4,-1,13.6,-11.2,-18.2,0.341227454,0.254982147,0.390881069,-0.815881832
897,2246839,477690,-0.709,-0.415,0.559,6.7,2.4,-0.9,13.6,-11.2,-18.2,0.341166417,0.255073702,0.390789514,-0.815942869
898,2250354,477700,-0.709,-0.408,0.563,6.4,2.3,-0.8,13.7,-12.1,-17.7,0.34110538,0.255165258,0.390697958,-0.816003906
899,2251952,477700,-0.717,-0.404,0.559,6.1,2.2,-0.8,13.7,-12.1,-17.7,0.341013825,0.255226295,0.390606403,-0.816034425
900,2254444,477700,-0.713,-0.411,0.559,5.8,2.2,-0.9,13.7,-12.1,-17.7,0.340952788,0.25531785,0.390514847,-0.816095462
901,2257923,477700,-0.709,-0.408,0.563,5.5,2.2,-1,13.7,-12.1,-17.7,0.340891751,0.255378887,0.39045381,-0.81612598
902,2259624,477710,-0.705,-0.408,0.563,4.9,2.1,-1.3,13.3,-12.5,-17.3,0.341227454,0.256111332,0.389904477,-0.816034425
903,2262457,477710,-0.705,-0.416,0.563,4.9,2.1,-1.3,13.3,-12.5,-17.3,0.341135899,0.256172369,0.38984344,-0.816064943
904,2264650,477710,-0.709,-0.415,0.563,4.6,2.2,-1.4,13.3,-12.5,-17.3,0.341074862,0.256233406,0.389782403,-0.816095462
905,2266910,477710,-0.706,-0.416,0.559,4.2,2.2,-1.6,13.3,-12.5,-17.3,0.341013825,0.256294443,0.389751885,-0.81612598
906,2269640,477720,-0.702,-0.424,0.567,3.8,2.4,-1.6,13.2,-12.3,-17.4,0.340922269,0.256324961,0.389690847,-0.816156499
907,2272402,477720,-0.702,-0.42,0.567,3.1,2.5,-1.8,13.2,-12.3,-17.4,0.340861232,0.256385998,0.389690847,-0.816187017
908,2275171,477720,-0.709,-0.415,0.563,2.4,2.6,-2,13.2,-12.3,-17.4,0.340800195,0.256447035,0.389660329,-0.816217536
909,2276843,477720,-0.713,-0.411,0.555,1.8,2.6,-2.1,13.2,-12.3,-17.4,0.34070864,0.256477554,0.389660329,-0.816217536
910,2279699,477730,-0.721,-0.415,0.563,1.2,2.5,-2,13.6,-11.8,-15.8,0.340647603,0.256538591,0.389660329,-0.816248054
911,2281963,477730,-0.717,-0.415,0.555,0.7,2.4,-1.8,13.6,-11.8,-15.8,0.340586566,0.256569109,0.389690847,-0.816248054
912,2284961,477730,-0.717,-0.415,0.559,0.4,2.4,-1.5,13.6,-11.8,-15.8,0.340556047,0.256599628,0.389690847,-0.816248054
913,2286716,477730,-0.713,-0.415,0.567,0.1,2.3,-1.5,13.6,-11.8,-15.8,0.34049501,0.256630146,0.389721366,-0.816248054
914,2289506,477740,-0.713,-0.419,0.571,-0.2,2.3,-1.4,13.5,-12.4,-15.5,0.340464492,0.256660665,0.389751885,-0.816248054
915,2292653,477740,-0.713,-0.419,0.567,-0.6,2.4,-1.5,13.5,-12.4,-15.5,0.340403455,0.256691183,0.389812922,-0.816248054
916,2295531,477740,-0.71,-0.423,0.575,-0.9,2.5,-1.5,13.5,-12.4,-15.5,0.340372936,0.256691183,0.38984344,-0.816217536
917,2297156,477740,-0.705,-0.419,0.578,-1.2,2.6,-1.4,13.5,-12.4,-15.5,0.340311899,0.256721702,0.389904477,-0.816217536
918,2299443,477750,-0.713,-0.419,0.579,-1.6,2.7,-1.3,14.1,-12.1,-19.6,0.340281381,0.25675222,0.389965514,-0.816187017
919,2302388,477750,-0.713,-0.415,0.583,-2,2.8,-1.1,14.1,-12.1,-19.6,0.340250862,0.256782739,0.390026551,-0.816156499
920,2305316,477750,-0.717,-0.415,0.587,-2.5,2.9,-1,14.1,-12.1,-19.6,0.340220344,0.256813257,0.390087588,-0.81612598
921,2306835,477750,-0.717,-0.415,0.583,-2.9,3,-0.8,14.1,-12.1,-19.6,0.340189825,0.256843776,0.390179144,-0.816095462
922,2309967,477760,-0.721,-0.423,0.587,-3.2,3,-0.4,13.4,-12.2,-16.5,0.340556047,0.257271035,0.389721366,-0.816034425
923,2312221,477760,-0.721,-0.423,0.587,-3.2,3,-0.4,13.4,-12.2,-16.5,0.340525529,0.257301553,0.389812922,-0.815973388
924,2314481,477760,-0.725,-0.431,0.583,-3.2,3,-0.1,13.4,-12.2,-16.5,0.340525529,0.257332072,0.389873959,-0.815942869
925,2316905,477760,-0.721,-0.431,0.587,-3.3,2.8,0,13.4,-12.2,-16.5,0.340525529,0.25736259,0.389965514,-0.815881832
926,2321181,477770,-0.725,-0.431,0.587,-3.6,2.7,0.2,13.8,-12.1,-16.4,0.340525529,0.257393109,0.39005707,-0.815851314
927,2322661,477770,-0.722,-0.431,0.579,-3.8,2.7,0.3,13.8,-12.1,-16.4,0.340525529,0.257423627,0.390118107,-0.815790277
928,2324936,477770,-0.73,-0.439,0.579,-4,2.7,0.5,13.8,-12.1,-16.4,0.340525529,0.257454146,0.390209662,-0.81572924
929,2327083,477770,-0.734,-0.438,0.575,-4.2,2.7,0.6,13.8,-12.1,-16.4,0.340525529,0.257454146,0.390301218,-0.815698721
930,2329548,477780,-0.733,-0.431,0.568,-4.2,2.5,0.7,13.3,-12.3,-16.8,0.340556047,0.257484664,0.390392773,-0.815637684
931,2332494,477780,-0.733,-0.431,0.571,-4.1,2.4,0.8,13.3,-12.3,-16.8,0.340586566,0.257515183,0.390484329,-0.815576647
932,2336199,477780,-0.741,-0.43,0.568,-3.9,2.2,1,13.3,-12.3,-16.8,0.340586566,0.257515183,0.390575884,-0.81551561
933,2337646,477780,-0.741,-0.434,0.568,-3.7,2,1.3,13.3,-12.3,-16.8,0.340617084,0.257545701,0.390636921,-0.815454573
934,2339494,477790,-0.737,-0.434,0.572,-3.5,1.7,1.6,13.6,-11.9,-17.4,0.340647603,0.25757622,0.390728477,-0.815424055
935,2343011,477790,-0.741,-0.427,0.568,-3.4,1.6,1.9,13.6,-11.9,-17.4,0.34070864,0.25757622,0.390789514,-0.815363018
936,2345084,477790,-0.733,-0.423,0.564,-3.1,1.4,2,13.6,-11.9,-17.4,0.340739158,0.257606738,0.390820032,-0.815301981
937,2347031,477790,-0.737,-0.431,0.56,-2.9,1.1,2,13.6,-11.9,-17.4,0.340769677,0.257606738,0.390881069,-0.815271462
938,2350115,477800,-0.741,-0.43,0.56,-2.9,0.8,2.1,13.8,-11.9,-18.6,0.340830714,0.257637257,0.390942106,-0.815210425
939,2352230,477800,-0.733,-0.423,0.56,-2.8,0.6,2.2,13.8,-11.9,-18.6,0.340891751,0.257637257,0.390972625,-0.815179907
940,2354558,477800,-0.741,-0.427,0.568,-2.8,0.4,2.4,13.8,-11.9,-18.6,0.340922269,0.257637257,0.391003143,-0.81511887
941,2356853,477800,-0.737,-0.431,0.564,-2.8,0.2,2.7,13.8,-11.9,-18.6,0.340983306,0.257667776,0.39106418,-0.815088351
942,2360241,477810,-0.737,-0.431,0.564,-3.2,-0.4,3.2,13.8,-12.1,-18.1,0.341441084,0.258369701,0.390758995,-0.814813684
943,2362306,477810,-0.73,-0.435,0.56,-3.2,-0.4,3.2,13.8,-12.1,-18.1,0.341502121,0.258369701,0.390820032,-0.814752647
944,2364529,477810,-0.729,-0.431,0.571,-3.2,-0.7,3.4,13.8,-12.1,-18.1,0.341593677,0.258369701,0.390850551,-0.81469161
945,2367017,477810,-0.726,-0.431,0.563,-3.2,-0.9,3.5,13.8,-12.1,-18.1,0.341685232,0.258369701,0.390881069,-0.814661092
946,2369577,477820,-0.73,-0.431,0.564,-3.2,-1.1,3.6,13.4,-11.9,-18.1,0.341776788,0.258339183,0.390911588,-0.814600055
947,2372045,477820,-0.73,-0.439,0.567,-3.2,-1.4,3.7,13.4,-11.9,-18.1,0.341868343,0.258278146,0.390942106,-0.814569536
948,2375205,477820,-0.734,-0.438,0.564,-3.3,-1.7,3.8,13.4,-11.9,-18.1,0.341990417,0.258278146,0.390942106,-0.814508499
949,2377578,477820,-0.73,-0.446,0.564,-3.2,-1.8,4.1,13.4,-11.9,-18.1,0.342081973,0.258278146,0.390972625,-0.814477981
950,2379955,477830,-0.726,-0.45,0.575,-3.1,-1.9,4.4,13.8,-12,-18.4,0.342204047,0.258247627,0.391003143,-0.814416944
951,2382428,477830,-0.73,-0.45,0.568,-2.9,-2.1,4.6,13.8,-12,-18.4,0.342326121,0.258247627,0.391003143,-0.814355907
952,2384997,477830,-0.726,-0.45,0.567,-2.7,-2.4,4.7,13.8,-12,-18.4,0.342448195,0.258217109,0.391003143,-0.814325388
953,2386906,477830,-0.722,-0.454,0.567,-2.5,-2.6,4.7,13.8,-12,-18.4,0.342570269,0.25818659,0.391003143,-0.81429487
954,2390138,477840,-0.722,-0.454,0.567,-2.3,-2.7,4.9,13.6,-12.4,-18.8,0.342692343,0.258156072,0.391003143,-0.814233833
955,2392466,477840,-0.722,-0.454,0.567,-2.3,-2.7,4.9,13.6,-12.4,-18.8,0.342692343,0.258156072,0.391003143,-0.814233833
956,2395269,477840,-0.718,-0.455,0.575,-2.1,-2.9,5.5,13.6,-12.4,-18.8,0.342936491,0.258125553,0.390972625,-0.814142277
957,2397718,477840,-0.718,-0.451,0.575,-1.9,-3.2,5.9,13.6,-12.4,-18.8,0.343089084,0.258095035,0.390942106,-0.814111759
958,2399850,477850,-0.714,-0.455,0.583,-1.7,-3.5,6.1,13.7,-12.2,-17.7,0.343241676,0.258064516,0.390911588,-0.81408124
959,2402127,477850,-0.714,-0.451,0.579,-1.4,-3.8,6.2,13.7,-12.2,-17.7,0.343394269,0.258064516,0.390881069,-0.814020203
960,2404584,477850,-0.714,-0.455,0.583,-1.2,-4,6.5,13.7,-12.2,-17.7,0.343546861,0.258033998,0.390850551,-0.813989685
961,2407656,477850,-0.706,-0.459,0.579,-1,-4,6.8,13.7,-12.2,-17.7,0.343699454,0.258003479,0.390789514,-0.813959166
962,2409482,477860,-0.706,-0.467,0.586,-1,-3.8,7.2,13.6,-12,-17.6,0.344065676,0.258156072,0.39045381,-0.813928648
963,2412103,477860,-0.706,-0.467,0.586,-1,-3.8,7.2,13.6,-12,-17.6,0.344218268,0.258156072,0.390423292,-0.813867611
964,2414492,477860,-0.706,-0.471,0.579,-1,-3.8,7.3,13.6,-12,-17.6,0.344401379,0.258125553,0.390362255,-0.813837092
965,2418691,477860,-0.702,-0.471,0.579,-1.1,-3.8,7.3,13.6,-12,-17.6,0.344553972,0.258125553,0.390301218,-0.813776055
966,2419375,477870,-0.706,-0.471,0.579,-1.2,-3.9,7.4,13.3,-12.1,-17.9,0.344737083,0.258095035,0.390270699,-0.813745537
967,2422301,477870,-0.706,-0.471,0.579,-1.2,-3.9,7.6,13.3,-12.1,-17.9,0.344920194,0.258095035,0.390209662,-0.813715018
968,2424666,477870,-0.698,-0.471,0.578,-1.2,-4,7.8,13.3,-12.1,-17.9,0.345103305,0.258064516,0.390148625,-0.813653981
969,2427847,477870,-0.698,-0.471,0.575,-1.1,-4,8,13.3,-12.1,-17.9,0.345286416,0.258064516,0.390118107,-0.813592944
970,2430096,477880,-0.698,-0.471,0.578,-0.9,-4.1,8.2,13.2,-12,-17.7,0.345469527,0.258064516,0.39005707,-0.813562426
971,2432365,477880,-0.694,-0.475,0.578,-0.6,-4,8.2,13.2,-12,-17.7,0.345652638,0.258033998,0.389965514,-0.81347087
972,2434930,477880,-0.694,-0.471,0.578,-0.2,-3.9,8.3,13.2,-12,-17.7,0.345835749,0.258033998,0.389904477,-0.81347087
973,2437071,477880,-0.69,-0.471,0.582,-0.1,-3.7,8.4,13.2,-12,-17.7,0.34601886,0.258033998,0.38984344,-0.813440352
974,2439615,477890,-0.69,-0.475,0.574,0,-3.5,8.4,13.7,-11.9,-17.7,0.346171453,0.258064516,0.389751885,-0.813379315
975,2441909,477890,-0.69,-0.479,0.578,0,-3.3,8.6,13.7,-11.9,-17.7,0.346385083,0.258064516,0.389690847,-0.813348796
976,2444741,477890,-0.691,-0.483,0.582,0.1,-3.3,8.8,13.7,-11.9,-17.7,0.346568194,0.258095035,0.389599292,-0.813287759
977,2447175,477890,-0.698,-0.483,0.578,0.4,-3.2,9,13.7,-11.9,-17.7,0.346751305,0.258095035,0.389507736,-0.813257241
978,2449396,477900,-0.694,-0.479,0.574,0.5,-3.1,9.1,11.9,-12.3,-17.7,0.346934416,0.258125553,0.389446699,-0.813196203
979,2452035,477900,-0.691,-0.479,0.574,0.5,-3,9.2,11.9,-12.3,-17.7,0.347117527,0.258156072,0.389355144,-0.813135166
980,2455381,477900,-0.694,-0.471,0.574,0.3,-2.9,9.3,11.9,-12.3,-17.7,0.347300638,0.25818659,0.389263588,-0.813104648
981,2456879,477900,-0.698,-0.471,0.575,0.1,-2.8,9.5,11.9,-12.3,-17.7,0.347483749,0.258217109,0.389202551,-0.813043611
982,2459677,477910,-0.694,-0.463,0.574,-0.2,-2.7,9.6,15.4,-11.7,-17.8,0.347575304,0.258033998,0.38923307,-0.813043611
983,2461933,477910,-0.694,-0.463,0.574,-0.2,-2.7,9.6,15.4,-11.7,-17.8,0.347788934,0.258064516,0.389141514,-0.812982574
984,2464937,477910,-0.694,-0.463,0.582,-0.4,-2.6,9.7,15.4,-11.7,-17.8,0.347972045,0.258125553,0.389110996,-0.812921537
985,2467965,477910,-0.69,-0.463,0.574,-0.5,-2.6,9.9,15.4,-11.7,-17.8,0.348185675,0.258156072,0.38901944,-0.8128605
986,2469509,477920,-0.69,-0.459,0.57,-0.7,-2.5,10.1,15.5,-12.1,-18,0.348399304,0.25818659,0.388958403,-0.812768944
987,2472620,477920,-0.694,-0.459,0.582,-0.8,-2.5,10.2,15.5,-12.1,-18,0.348582415,0.258217109,0.388897366,-0.812707907
988,2474722,477920,-0.694,-0.459,0.574,-0.9,-2.5,10.4,15.5,-12.1,-18,0.348796045,0.258247627,0.388836329,-0.81264687
989,2477748,477920,-0.698,-0.459,0.578,-1.1,-2.7,10.5,15.5,-12.1,-18,0.349009674,0.258278146,0.388775292,-0.812555315
990,2479468,477930,-0.69,-0.459,0.563,-1.5,-2.7,10.6,15,-11.9,-18.1,0.349253822,0.258278146,0.388744774,-0.812494278
991,2481855,477930,-0.694,-0.459,0.567,-2,-2.7,10.7,15,-11.9,-18.1,0.349467452,0.258339183,0.388683737,-0.812402722
992,2485198,477930,-0.694,-0.463,0.567,-2.5,-2.6,10.7,15,-11.9,-18.1,0.3497116,0.258369701,0.388653218,-0.812311167
993,2486793,477930,-0.694,-0.463,0.563,-3,-2.6,10.7,15,-11.9,-18.1,0.34992523,0.25840022,0.3886227,-0.812219611
994,2489444,477940,-0.69,-0.459,0.563,-3.5,-2.6,10.7,15.1,-11.7,-18,0.350169378,0.25840022,0.388592181,-0.812128056
995,2492893,477940,-0.698,-0.459,0.563,-3.9,-2.6,10.7,15.1,-11.7,-18,0.350383007,0.258430738,0.388592181,-0.8120365
996,2494464,477940,-0.694,-0.455,0.559,-4.4,-2.7,10.9,15.1,-11.7,-18,0.350627155,0.258430738,0.388592181,-0.811914426
997,2497118,477940,-0.694,-0.455,0.559,-4.9,-2.7,11,15.1,-11.7,-18,0.350871303,0.258430738,0.388592181,-0.811792352
998,2499402,477950,-0.694,-0.451,0.559,-5.5,-2.6,11,12.1,-12.3,-17.6,0.35114597,0.258430738,0.3886227,-0.811700797
999,2501952,477950,-0.694,-0.455,0.559,-5.9,-2.5,10.8,12.1,-12.3,-17.6,0.351390118,0.258430738,0.3886227,-0.811578722
1000,2505212,477950,-0.698,-0.455,0.559,-6.1,-2.5,10.7,12.1,-12.3,-17.6,0.351634266,0.258430738,0.388653218,-0.811456648
1001,2507481,477950,-0.698,-0.459,0.559,-6.3,-2.5,10.5,12.1,-12.3,-17.6,0.351878414,0.258430738,0.388683737,-0.811334574
1002,2509795,477960,-0.702,-0.459,0.559,-6.7,-2.7,10.2,14.9,-12.4,-17.4,0.352092044,0.258430738,0.388805811,-0.811181982
1003,2511963,477960,-0.694,-0.467,0.563,-6.7,-2.7,10.2,14.9,-12.4,-17.4,0.352336192,0.258430738,0.388866848,-0.811059908
1004,2514688,477960,-0.694,-0.467,0.559,-6.9,-2.8,9.9,14.9,-12.4,-17.4,0.35258034,0.25840022,0.388897366,-0.810937834
1005,2517045,477960,-0.694,-0.467,0.559,-7,-2.9,9.7,14.9,-12.4,-17.4,0.35279397,0.25840022,0.388958403,-0.81081576
1006,2520035,477970,-0.694,-0.467,0.559,-7,-3,9.6,14.5,-12.3,-17.7,0.353038118,0.258369701,0.388988922,-0.810693686
1007,2522368,477970,-0.698,-0.467,0.555,-6.9,-2.9,9.4,14.5,-12.3,-17.7,0.353282266,0.258339183,0.389049959,-0.81060213
1008,2524553,477970,-0.69,-0.467,0.559,-6.8,-3,9.2,14.5,-12.3,-17.7,0.353495895,0.258278146,0.389080477,-0.810480056
1009,2526877,477970,-0.694,-0.467,0.551,-6.6,-2.9,9.1,14.5,-12.3,-17.7,0.353740043,0.258278146,0.389141514,-0.810357982
1010,2529876,477980,-0.694,-0.463,0.559,-6.5,-3,8.8,14.2,-12.1,-17.8,0.353953673,0.258247627,0.389141514,-0.810266427
1011,2532896,477980,-0.686,-0.463,0.559,-6.3,-3.1,8.6,14.2,-12.1,-17.8,0.354167302,0.258217109,0.389202551,-0.810144353
1012,2535140,477980,-0.686,-0.463,0.562,-6.1,-3.1,8.6,14.2,-12.1,-17.8,0.354380932,0.25818659,0.38923307,-0.810052797
1013,2536701,477980,-0.686,-0.459,0.559,-5.8,-3.3,8.5,14.2,-12.1,-17.8,0.354594562,0.258156072,0.389263588,-0.809961241
1014,2539620,477990,-0.686,-0.459,0.559,-5.5,-3.4,8.3,14.1,-12.3,-17.5,0.354808191,0.258125553,0.389294107,-0.809869686
1015,2542642,477990,-0.682,-0.455,0.558,-5.1,-3.7,8.1,14.1,-12.3,-17.5,0.354991302,0.258095035,0.389324625,-0.80977813
1016,2544382,477990,-0.678,-0.455,0.554,-4.9,-3.9,8,14.1,-12.3,-17.5,0.355204932,0.258033998,0.389324625,-0.809686575
1017,2547945,477990,-0.678,-0.455,0.551,-4.9,-3.9,7.9,14.1,-12.3,-17.5,0.355418561,0.258003479,0.389355144,-0.809625538
1018,2549443,478000,-0.678,-0.455,0.558,-5,-3.8,7.8,13.4,-12.1,-18,0.355601672,0.257972961,0.389355144,-0.809533982
1019,2551972,478000,-0.678,-0.452,0.554,-5.2,-3.7,7.6,13.4,-12.1,-18,0.355815302,0.257911924,0.389385662,-0.809442427
1020,2554865,478000,-0.674,-0.452,0.558,-5.4,-3.7,7.3,13.4,-12.1,-18,0.355998413,0.257881405,0.389416181,-0.80938139
1021,2557080,478000,-0.674,-0.456,0.562,-5.5,-3.7,7.2,13.4,-12.1,-18,0.356181524,0.257820368,0.389416181,-0.809289834
1022,2559583,478010,-0.674,-0.456,0.554,-5.6,-4,7,11.9,-12.2,-18,0.356303598,0.257637257,0.389507736,-0.809259316
1023,2561920,478010,-0.674,-0.456,0.554,-5.6,-4,7,11.9,-12.2,-18,0.356517228,0.25757622,0.389538255,-0.80916776
1024,2566183,478010,-0.678,-0.452,0.558,-5.7,-4.1,7,11.9,-12.2,-18,0.356700339,0.257515183,0.389568773,-0.809106723
