sample_index,elapsed_us,device_time_ms,acc_x_g,acc_y_g,acc_z_g,gyro_x_dps,gyro_y_dps,gyro_z_dps,mag_x_ut,mag_y_ut,mag_z_ut,quat_w,quat_x,quat_y,quat_z
0,4675,1031510,0.932,0.367,0.138,0,-0.5,-0.5,-8,-35,8.5,0.627643666,-0.131992553,-0.641926328,-0.420178838
1,8561,1031510,0.932,0.367,0.134,0,-0.5,-0.5,-8,-35,8.5,0.627613147,-0.131992553,-0.641926328,-0.420178838
2,10737,1031510,0.94,0.367,0.138,0.1,-0.5,-0.5,-8,-35,8.5,0.627613147,-0.131962035,-0.641926328,-0.420178838
3,13085,1031520,0.94,0.371,0.138,0.2,-0.6,-0.5,-8,-35,8.5,0.627582629,-0.131962035,-0.641956847,-0.420178838
4,15018,1031520,0.936,0.371,0.134,0.3,-0.4,-0.7,-9.3,-35.4,9.1,0.627582629,-0.131962035,-0.641956847,-0.420178838
5,18231,1031520,0.94,0.371,0.134,0.3,-0.4,-0.9,-9.3,-35.4,9.1,0.62755211,-0.131931516,-0.641987365,-0.420178838
6,19660,1031520,0.936,0.367,0.138,0.5,-0.4,-1,-9.3,-35.4,9.1,0.62755211,-0.131931516,-0.641987365,-0.420209357
7,23674,1031530,0.936,0.367,0.134,0.7,-0.5,-1.1,-9.3,-35.4,9.1,0.627521592,-0.131900998,-0.642017884,-0.420209357
8,25880,1031530,0.94,0.367,0.138,0.9,-0.5,-1.2,-7.6,-34.5,9.2,0.627521592,-0.131870479,-0.642017884,-0.420209357
9,28204,1031530,0.94,0.367,0.134,1.1,-0.6,-1.4,-7.6,-34.5,9.2,0.627491073,-0.131839961,-0.642048402,-0.420209357
10,30133,1031530,0.932,0.363,0.134,1.2,-0.6,-1.4,-7.6,-34.5,9.2,0.627491073,-0.131809442,-0.642078921,-0.420209357
11,32366,1031540,0.929,0.359,0.13,1.4,-0.6,-1.3,-7.6,-34.5,9.2,0.627460555,-0.131778924,-0.642109439,-0.420209357
12,34743,1031540,0.932,0.359,0.134,1.5,-0.7,-1.2,-7.6,-34.9,9.5,0.627460555,-0.131748405,-0.642139958,-0.420209357
13,38255,1031540,0.929,0.359,0.134,1.5,-0.7,-0.9,-7.6,-34.9,9.5,0.627430036,-0.131717887,-0.642170476,-0.420178838
14,39806,1031540,0.929,0.359,0.134,1.5,-0.6,-0.9,-7.6,-34.9,9.5,0.627430036,-0.131687368,-0.642170476,-0.420178838
15,42717,1031550,0.921,0.359,0.134,1.4,-0.6,-0.7,-7.6,-34.9,9.5,0.627399518,-0.131687368,-0.642200995,-0.42014832
16,44981,1031550,0.932,0.363,0.134,1.3,-0.8,-0.1,-7.8,-34.9,9.5,0.627430036,-0.131809442,-0.642262032,-0.419995727
17,48726,1031550,0.925,0.367,0.134,1.3,-0.8,-0.1,-7.8,-34.9,9.5,0.627399518,-0.131809442,-0.64229255,-0.419995727
18,50612,1031550,0.925,0.363,0.134,1.1,-0.8,0.1,-7.8,-34.9,9.5,0.627399518,-0.131778924,-0.642323069,-0.419965209
19,51998,1031560,0.925,0.367,0.134,1.1,-0.7,0.5,-7.8,-34.9,9.5,0.627399518,-0.131778924,-0.642323069,-0.41993469
20,56106,1031560,0.925,0.371,0.134,1,-0.6,0.8,-7.7,-34.7,9.5,0.627399518,-0.131809442,-0.642353587,-0.419904172
21,57988,1031560,0.925,0.375,0.134,1,-0.5,1,-7.7,-34.7,9.5,0.627399518,-0.131809442,-0.642353587,-0.419873653
22,59601,1031560,0.921,0.375,0.134,1.1,-0.5,1.1,-7.7,-34.7,9.5,0.627430036,-0.131809442,-0.642384106,-0.419843135
23,62318,1031570,0.925,0.379,0.134,1.3,-0.4,1.3,-7.7,-34.7,9.5,0.627430036,-0.131809442,-0.642384106,-0.419812616
24,65420,1031570,0.925,0.383,0.13,1.5,-0.2,1.2,-9.4,-35.3,9,0.627430036,-0.131809442,-0.642414624,-0.419782098
25,68606,1031570,0.921,0.387,0.135,1.7,-0.2,1,-9.4,-35.3,9,0.627460555,-0.131809442,-0.642414624,-0.419721061
26,70690,1031570,0.925,0.387,0.134,1.8,-0.2,0.8,-9.4,-35.3,9,0.627460555,-0.131778924,-0.642445143,-0.419690542
27,72269,1031580,0.929,0.395,0.134,2,-0.2,0.7,-9.4,-35.3,9,0.627460555,-0.131778924,-0.642445143,-0.419660024
28,75124,1031580,0.925,0.383,0.134,2.1,-0.2,0.6,-7.7,-34.9,9.2,0.627491073,-0.131748405,-0.642475661,-0.419629505
29,79098,1031580,0.929,0.387,0.134,2,-0.1,0.4,-7.7,-34.9,9.2,0.627491073,-0.131748405,-0.64250618,-0.419568468
30,81482,1031580,0.929,0.387,0.134,2,0.1,0,-7.7,-34.9,9.2,0.627491073,-0.131717887,-0.64250618,-0.41953795
31,83754,1031590,0.929,0.383,0.134,1.8,0.2,-0.2,-7.7,-34.9,9.2,0.627491073,-0.131687368,-0.642536699,-0.41953795
32,85901,1031590,0.929,0.383,0.138,1.7,0.4,-0.4,-7.7,-35.1,8.7,0.627521592,-0.13165685,-0.642536699,-0.419507431
33,87297,1031590,0.932,0.383,0.134,1.6,0.4,-0.8,-7.7,-35.1,8.7,0.627521592,-0.131595813,-0.642536699,-0.419507431
34,90328,1031590,0.932,0.379,0.134,1.4,0.4,-1.1,-7.7,-35.1,8.7,0.627521592,-0.131565294,-0.642567217,-0.419507431
35,93155,1031600,0.932,0.375,0.134,1.2,0.5,-1.4,-7.7,-35.1,8.7,0.627521592,-0.131534776,-0.642567217,-0.419507431
36,94821,1031600,0.932,0.375,0.134,0.7,0.4,-1.7,-7.4,-35,9.2,0.627460555,-0.131473739,-0.642628254,-0.419507431
37,99268,1031600,0.932,0.375,0.134,0.7,0.4,-1.7,-7.4,-35,9.2,0.627460555,-0.13144322,-0.642628254,-0.419507431
38,99579,1031600,0.936,0.375,0.134,0.5,0.3,-1.8,-7.4,-35,9.2,0.627430036,-0.131412702,-0.642658773,-0.41953795
39,102165,1031610,0.936,0.367,0.134,0.1,0.2,-1.9,-7.4,-35,9.2,0.627430036,-0.131382183,-0.642658773,-0.419568468
40,106409,1031610,0.932,0.371,0.134,-0.1,0.1,-1.7,-7.5,-35.2,8.9,0.627399518,-0.131351665,-0.642658773,-0.419598987
41,108303,1031610,0.936,0.371,0.134,-0.5,0,-1.4,-7.5,-35.2,8.9,0.627399518,-0.131321146,-0.642658773,-0.419629505
42,110890,1031610,0.932,0.367,0.134,-0.8,-0.2,-1.2,-7.5,-35.2,8.9,0.627368999,-0.131321146,-0.642658773,-0.419629505
43,112745,1031620,0.936,0.363,0.134,-1.1,-0.3,-1,-7.5,-35.2,8.9,0.627368999,-0.131321146,-0.642658773,-0.419660024
44,116861,1031620,0.936,0.367,0.13,-1.5,-0.4,-0.8,-9,-35.1,9.2,0.627338481,-0.131351665,-0.642628254,-0.419721061
45,117165,1031620,0.933,0.363,0.13,-1.9,-0.4,-0.7,-9,-35.1,9.2,0.627307962,-0.131351665,-0.642628254,-0.419751579
46,120956,1031620,0.932,0.367,0.13,-2.4,-0.5,-0.7,-9,-35.1,9.2,0.627307962,-0.131382183,-0.642628254,-0.419782098
47,123413,1031630,0.932,0.371,0.13,-2.7,-0.6,-0.5,-9,-35.1,9.2,0.627277444,-0.13144322,-0.642597736,-0.419843135
48,124948,1031630,0.932,0.367,0.134,-3,-0.8,-0.5,-7.7,-35,8.8,0.627246925,-0.131473739,-0.642597736,-0.419873653
49,127274,1031630,0.929,0.363,0.134,-3.3,-0.9,-0.3,-7.7,-35,8.8,0.627216407,-0.131534776,-0.642567217,-0.41993469
50,131538,1031630,0.929,0.367,0.13,-3.4,-0.9,-0.3,-7.7,-35,8.8,0.627185888,-0.131565294,-0.642567217,-0.419965209
51,134003,1031640,0.932,0.367,0.134,-3.5,-1,-0.2,-7.7,-35,8.8,0.627185888,-0.131626331,-0.642536699,-0.420026246
52,136019,1031640,0.929,0.371,0.134,-3.5,-1.1,-0.2,-7.6,-35,8.8,0.62715537,-0.131687368,-0.64250618,-0.420087283
53,138620,1031640,0.929,0.371,0.134,-3.5,-1.3,-0.1,-7.6,-35,8.8,0.627124851,-0.131748405,-0.64250618,-0.420117801
54,140875,1031640,0.929,0.375,0.134,-3.5,-1.3,-0.1,-7.6,-35,8.8,0.627094333,-0.131809442,-0.64250618,-0.420178838
55,143086,1031650,0.929,0.371,0.134,-3.5,-1.3,0,-7.6,-35,8.8,0.627063814,-0.131870479,-0.642475661,-0.420209357
56,145116,1031650,0.925,0.371,0.13,-3,-1,0.1,-7.8,-35.1,9,0.627002777,-0.131992553,-0.642536699,-0.420178838
57,147456,1031650,0.925,0.371,0.13,-3,-1,0.1,-7.8,-35.1,9,0.626972259,-0.132053591,-0.64250618,-0.420209357
58,149649,1031650,0.925,0.371,0.134,-2.7,-1.1,0.2,-7.8,-35.1,9,0.626972259,-0.132053591,-0.64250618,-0.420239875
59,152156,1031660,0.925,0.371,0.134,-2.4,-1.1,0.1,-7.8,-35.1,9,0.62694174,-0.132145146,-0.64250618,-0.420270394
60,156134,1031660,0.925,0.375,0.134,-2.1,-1.1,0.1,-7.7,-34.9,9.1,0.626911222,-0.132175665,-0.642475661,-0.420300913
61,158236,1031660,0.925,0.375,0.134,-1.9,-1,0,-7.7,-34.9,9.1,0.626911222,-0.132206183,-0.642475661,-0.420331431
62,160175,1031660,0.921,0.375,0.134,-1.6,-0.7,0,-7.7,-34.9,9.1,0.626880703,-0.132236702,-0.642475661,-0.420331431
63,162762,1031670,0.921,0.371,0.134,-1.3,-0.5,0,-7.7,-34.9,9.1,0.626880703,-0.13226722,-0.642475661,-0.42036195
64,165868,1031670,0.925,0.375,0.134,-0.9,-0.4,-0.2,-8.9,-35.2,9.1,0.626850185,-0.13226722,-0.642475661,-0.420392468
65,167784,1031670,0.925,0.371,0.134,-0.7,-0.4,-0.4,-8.9,-35.2,9.1,0.626850185,-0.132297739,-0.642475661,-0.420392468
66,169820,1031670,0.925,0.371,0.134,-0.4,-0.3,-0.5,-8.9,-35.2,9.1,0.626850185,-0.132297739,-0.642475661,-0.420392468
67,172440,1031680,0.925,0.371,0.13,-0.2,-0.3,-0.5,-8.9,-35.2,9.1,0.626819666,-0.132297739,-0.642475661,-0.420392468
68,175156,1031680,0.929,0.371,0.134,-0.1,-0.2,-0.5,-8.2,-35.3,9,0.626819666,-0.132297739,-0.642475661,-0.420392468
69,177380,1031680,0.925,0.367,0.13,-0.1,-0.2,-0.6,-8.2,-35.3,9,0.626819666,-0.13226722,-0.64250618,-0.420392468
70,180003,1031680,0.929,0.367,0.13,-0.1,-0.2,-0.7,-8.2,-35.3,9,0.626789148,-0.13226722,-0.64250618,-0.420453505
71,182731,1031690,0.925,0.367,0.13,-0.1,-0.2,-0.8,-8.2,-35.3,9,0.626789148,-0.13226722,-0.64250618,-0.420453505
72,185904,1031690,0.929,0.367,0.13,-0.2,-0.1,-0.8,-8.4,-35.1,8.8,0.626758629,-0.13226722,-0.64250618,-0.420484024
73,188145,1031690,0.932,0.367,0.134,-0.4,0,-0.9,-8.4,-35.1,8.8,0.626758629,-0.13226722,-0.64250618,-0.420484024
74,189792,1031690,0.932,0.367,0.134,-0.5,0,-0.9,-8.4,-35.1,8.8,0.626758629,-0.132236702,-0.64250618,-0.420514542
75,192116,1031700,0.929,0.367,0.13,-0.7,0,-0.8,-8.4,-35.1,8.8,0.626728111,-0.132236702,-0.64250618,-0.420545061
76,194698,1031700,0.932,0.367,0.134,-1.2,-0.4,-0.6,-8.5,-35.8,9,0.626728111,-0.132419813,-0.642567217,-0.420392468
77,198912,1031700,0.932,0.367,0.134,-1.2,-0.4,-0.6,-8.5,-35.8,9,0.626697592,-0.132419813,-0.642567217,-0.420453505
78,201112,1031700,0.94,0.359,0.134,-1.5,-0.6,-0.6,-8.5,-35.8,9,0.626667074,-0.132450331,-0.642567217,-0.420484024
79,202775,1031710,0.936,0.363,0.134,-1.6,-0.7,-0.7,-8.5,-35.8,9,0.626667074,-0.132450331,-0.642567217,-0.420514542
80,205198,1031710,0.94,0.363,0.13,-1.7,-0.8,-0.9,-8.3,-35.7,8.9,0.626636555,-0.13248085,-0.642567217,-0.420545061
81,207427,1031710,0.936,0.359,0.134,-1.9,-0.9,-0.9,-8.3,-35.7,8.9,0.626606037,-0.13248085,-0.642567217,-0.420575579
82,210798,1031710,0.932,0.359,0.134,-2.1,-1,-0.9,-8.3,-35.7,8.9,0.626575518,-0.132511368,-0.642567217,-0.420606098
83,212673,1031720,0.936,0.367,0.134,-2.4,-1.1,-0.8,-8.3,-35.7,8.9,0.626545,-0.132541887,-0.642536699,-0.420667135
84,214853,1031720,0.936,0.359,0.134,-2.6,-1.3,-0.5,-8.8,-35.2,9,0.626514481,-0.132602924,-0.642536699,-0.420697653
85,218968,1031720,0.936,0.363,0.134,-2.7,-1.3,-0.4,-8.8,-35.2,9,0.626483963,-0.132633442,-0.642536699,-0.420728172
86,221094,1031720,0.936,0.363,0.134,-2.7,-1.3,-0.4,-8.8,-35.2,9,0.626483963,-0.132633442,-0.642536699,-0.420728172
87,222722,1031730,0.929,0.359,0.134,-2.9,-1.3,-0.2,-8.8,-35.2,9,0.626422926,-0.132724998,-0.642536699,-0.420819727
88,224629,1031730,0.932,0.363,0.134,-2.9,-1.5,-0.1,-8.3,-35.3,8.5,0.626392407,-0.132786035,-0.64250618,-0.420850246
89,227171,1031730,0.929,0.367,0.134,-2.9,-1.6,0,-8.3,-35.3,8.5,0.626361888,-0.132847072,-0.64250618,-0.420911283
90,231701,1031730,0.929,0.363,0.134,-2.9,-1.6,0,-8.3,-35.3,8.5,0.62633137,-0.132908109,-0.64250618,-0.420941801
91,232042,1031740,0.929,0.363,0.134,-2.9,-1.4,0,-8.3,-35.3,8.5,0.626300851,-0.132938627,-0.64250618,-0.42097232
92,236170,1031740,0.925,0.367,0.13,-2.7,-1.4,0,-7.8,-35.3,8.9,0.626270333,-0.132999664,-0.64250618,-0.421002838
93,238066,1031740,0.932,0.371,0.13,-2.4,-1.3,0.2,-7.8,-35.3,8.9,0.626239814,-0.133030183,-0.64250618,-0.421033357
94,240546,1031740,0.929,0.371,0.134,-2.1,-1.1,0.4,-7.8,-35.3,8.9,0.626209296,-0.13309122,-0.642475661,-0.421063875
95,242583,1031750,0.929,0.371,0.134,-2.1,-1.1,0.4,-7.8,-35.3,8.9,0.626209296,-0.13309122,-0.642475661,-0.421063875
96,244784,1031750,0.925,0.379,0.134,-1.4,-0.8,0,-8.2,-35,8.7,0.626148259,-0.133243812,-0.642567217,-0.421002838
97,247812,1031750,0.925,0.371,0.134,-1.4,-0.8,0,-8.2,-35,8.7,0.62611774,-0.133274331,-0.642567217,-0.421002838
98,249572,1031750,0.921,0.379,0.134,-1.2,-0.8,0,-8.2,-35,8.7,0.62611774,-0.133304849,-0.642567217,-0.421033357
99,253321,1031760,0.921,0.379,0.134,-1,-0.9,0,-8.2,-35,8.7,0.626087222,-0.133335368,-0.642567217,-0.421033357
100,255811,1031760,0.921,0.375,0.134,-0.8,-0.9,0.1,-7.7,-34.9,9,0.626087222,-0.133335368,-0.642567217,-0.421033357
101,257757,1031760,0.921,0.379,0.134,-0.6,-0.8,0.2,-7.7,-34.9,9,0.626087222,-0.133365886,-0.642567217,-0.421033357
102,259906,1031760,0.921,0.379,0.134,-0.5,-0.8,0.3,-7.7,-34.9,9,0.626056703,-0.133396405,-0.642597736,-0.421063875
103,263230,1031770,0.921,0.379,0.131,-0.5,-0.6,0.2,-7.7,-34.9,9,0.626056703,-0.133396405,-0.642597736,-0.421063875
104,265326,1031770,0.921,0.383,0.134,-0.6,-0.6,0.1,-8.8,-35.2,8.8,0.626056703,-0.133426923,-0.642597736,-0.421063875
105,267600,1031770,0.921,0.383,0.134,-0.6,-0.6,0,-8.8,-35.2,8.8,0.626026185,-0.133426923,-0.642597736,-0.421063875
106,271274,1031770,0.925,0.379,0.134,-0.6,-0.6,0,-8.8,-35.2,8.8,0.626026185,-0.133457442,-0.642597736,-0.421063875
107,273520,1031780,0.925,0.383,0.134,-0.6,-0.5,0.1,-8.8,-35.2,8.8,0.626026185,-0.133457442,-0.642597736,-0.421063875
108,275010,1031780,0.929,0.383,0.134,-0.6,-0.4,0.1,-8.4,-35.3,8.9,0.625965148,-0.13348796,-0.642597736,-0.421094394
109,277392,1031780,0.929,0.379,0.134,-0.7,-0.3,0,-8.4,-35.3,8.9,0.625965148,-0.13348796,-0.642597736,-0.421094394
110,280675,1031780,0.929,0.383,0.134,-0.9,-0.3,0,-8.4,-35.3,8.9,0.625965148,-0.133518479,-0.642597736,-0.421094394
111,282609,1031790,0.932,0.379,0.138,-1,-0.3,-0.1,-8.4,-35.3,8.9,0.625965148,-0.133518479,-0.642597736,-0.421124912
112,284775,1031790,0.932,0.375,0.138,-1.2,-0.3,-0.2,-8.9,-35.8,8.8,0.625965148,-0.133548997,-0.642567217,-0.421155431
113,288157,1031790,0.932,0.379,0.134,-1.4,-0.4,-0.4,-8.9,-35.8,8.8,0.625965148,-0.133579516,-0.642567217,-0.421155431
114,290042,1031790,0.936,0.375,0.134,-1.5,-0.5,-0.6,-8.9,-35.8,8.8,0.625934629,-0.133579516,-0.642567217,-0.421185949
115,292358,1031800,0.932,0.379,0.138,-1.5,-0.7,-0.6,-8.9,-35.8,8.8,0.625904111,-0.133610034,-0.642567217,-0.421216468
116,294790,1031800,0.936,0.375,0.134,-1.8,-0.8,-0.3,-8.6,-35.4,8.8,0.625873592,-0.133640553,-0.642597736,-0.421216468
117,298157,1031800,0.936,0.375,0.134,-1.8,-0.8,-0.3,-8.6,-35.4,8.8,0.625843074,-0.133671072,-0.642597736,-0.421246986
118,299693,1031800,0.932,0.371,0.134,-1.9,-0.8,-0.2,-8.6,-35.4,8.8,0.625843074,-0.13370159,-0.642597736,-0.421277505
119,303757,1031810,0.936,0.367,0.134,-2.1,-0.8,-0.2,-8.6,-35.4,8.8,0.625812555,-0.133732109,-0.642567217,-0.421308023
120,306145,1031810,0.936,0.371,0.134,-2.2,-0.8,-0.3,-8.9,-35.3,9.2,0.625782037,-0.133762627,-0.642567217,-0.421338542
121,308337,1031810,0.936,0.375,0.134,-2.4,-0.7,-0.4,-8.9,-35.3,9.2,0.625782037,-0.133823664,-0.642567217,-0.42136906
122,309843,1031810,0.936,0.367,0.13,-2.7,-0.7,-0.4,-8.9,-35.3,9.2,0.625751518,-0.133854183,-0.642536699,-0.421430097
123,313129,1031820,0.932,0.371,0.134,-2.9,-0.7,-0.3,-8.9,-35.3,9.2,0.625721,-0.133884701,-0.642536699,-0.421460616
124,315249,1031820,0.929,0.371,0.13,-3.2,-0.8,-0.2,-8.5,-35.2,8.7,0.625690481,-0.133945738,-0.64250618,-0.421521653
125,317373,1031820,0.932,0.367,0.134,-3.5,-0.8,-0.1,-8.5,-35.2,8.7,0.625690481,-0.134006775,-0.64250618,-0.421552171
126,320688,1031820,0.932,0.371,0.13,-3.8,-1,0,-8.5,-35.2,8.7,0.625659963,-0.134067812,-0.642475661,-0.421613208
127,322711,1031830,0.932,0.371,0.134,-4.1,-1,0.2,-8.5,-35.2,8.7,0.625629444,-0.134128849,-0.642445143,-0.421674245
128,326527,1031830,0.932,0.375,0.13,-4.3,-1.1,0.4,-8.3,-35.4,8.8,0.625598926,-0.134189886,-0.642414624,-0.421704764
129,328154,1031830,0.932,0.375,0.134,-4.5,-1.1,0.5,-8.3,-35.4,8.8,0.625568407,-0.134281442,-0.642384106,-0.421765801
130,330201,1031830,0.929,0.375,0.134,-4.6,-1.2,0.7,-8.3,-35.4,8.8,0.625568407,-0.134372997,-0.642353587,-0.421826838
131,332358,1031840,0.932,0.379,0.134,-4.7,-1.2,0.9,-8.3,-35.4,8.8,0.625537889,-0.134464553,-0.642323069,-0.421857356
132,335677,1031840,0.932,0.375,0.134,-4.8,-1.2,0.9,-8.1,-34.9,9,0.62550737,-0.134556108,-0.64229255,-0.421918394
133,337709,1031840,0.936,0.379,0.134,-4.7,-1.1,0.7,-8.1,-34.9,9,0.625476852,-0.134647664,-0.642262032,-0.421979431
134,339573,1031840,0.932,0.379,0.134,-4.6,-1,0.5,-8.1,-34.9,9,0.625476852,-0.134708701,-0.642231513,-0.422040468
135,342100,1031850,0.932,0.379,0.134,-4.3,-0.8,0.3,-8.1,-34.9,9,0.625446333,-0.134800256,-0.642200995,-0.422070986
136,345783,1031850,0.932,0.379,0.134,-3.8,-0.5,-0.2,-8.6,-35.4,8.8,0.625385296,-0.134861293,-0.642262032,-0.422101505
137,348095,1031850,0.936,0.379,0.134,-3.8,-0.5,-0.2,-8.6,-35.4,8.8,0.625354778,-0.13492233,-0.642231513,-0.422162542
138,350112,1031850,0.936,0.379,0.134,-3.6,-0.4,-0.3,-8.6,-35.4,8.8,0.625324259,-0.134983367,-0.642200995,-0.42219306
139,352293,1031860,0.929,0.383,0.134,-3.3,-0.3,-0.4,-8.6,-35.4,8.8,0.625324259,-0.134983367,-0.642170476,-0.422254097
140,356351,1031860,0.932,0.379,0.134,-3.1,-0.2,-0.4,-8.8,-35.3,8.8,0.625293741,-0.135044404,-0.642170476,-0.422315134
141,358460,1031860,0.932,0.379,0.134,-2.9,-0.2,-0.5,-8.8,-35.3,8.8,0.625263222,-0.135074923,-0.642139958,-0.422345653
142,360892,1031860,0.932,0.379,0.134,-2.6,-0.1,-0.6,-8.8,-35.3,8.8,0.625263222,-0.135105441,-0.642109439,-0.42240669
143,362335,1031870,0.929,0.375,0.134,-2.4,-0.1,-0.8,-8.8,-35.3,8.8,0.625232704,-0.13513596,-0.642109439,-0.422437208
144,365735,1031870,0.929,0.375,0.134,-2.2,0,-0.8,-8.5,-35.4,8.7,0.625232704,-0.135166478,-0.642078921,-0.422498245
145,367756,1031870,0.932,0.375,0.134,-2.1,0,-1,-8.5,-35.4,8.7,0.625202185,-0.135166478,-0.642078921,-0.422528764
146,369989,1031870,0.932,0.375,0.134,-1.9,0.1,-1,-8.5,-35.4,8.7,0.625202185,-0.135196997,-0.642048402,-0.422559282
147,373191,1031880,0.932,0.375,0.138,-1.8,0.2,-1,-8.5,-35.4,8.7,0.625202185,-0.135196997,-0.642017884,-0.422620319
148,375311,1031880,0.936,0.371,0.138,-1.7,0.2,-1,-8.4,-35.4,9.1,0.625171667,-0.135196997,-0.642017884,-0.422650838
149,377557,1031880,0.936,0.375,0.138,-1.6,0.1,-1.2,-8.4,-35.4,9.1,0.625171667,-0.135196997,-0.641987365,-0.422681356
150,379652,1031880,0.932,0.375,0.134,-1.6,0.1,-1.3,-8.4,-35.4,9.1,0.625141148,-0.135196997,-0.641987365,-0.422742393
151,382768,1031890,0.932,0.375,0.138,-1.5,0.1,-1.3,-8.4,-35.4,9.1,0.625141148,-0.135196997,-0.641987365,-0.422772912
152,386111,1031890,0.932,0.371,0.138,-1.6,0.1,-1.3,-8.7,-35.2,9.1,0.62511063,-0.135196997,-0.641956847,-0.422833949
153,389329,1031890,0.932,0.379,0.138,-1.6,0.3,-1.4,-8.7,-35.2,9.1,0.62511063,-0.135196997,-0.641956847,-0.422864467
154,391488,1031890,0.929,0.379,0.138,-1.8,0.4,-1.3,-8.7,-35.2,9.1,0.625080111,-0.135196997,-0.641926328,-0.422894986
155,392985,1031900,0.932,0.379,0.138,-1.9,0.5,-1.1,-8.7,-35.2,9.1,0.625080111,-0.135227515,-0.64189581,-0.422956023
156,395973,1031900,0.929,0.383,0.134,-2.2,0.4,-0.9,-8.7,-35.4,9.1,0.625049593,-0.135258034,-0.641926328,-0.422956023
157,398183,1031900,0.929,0.379,0.138,-2.3,0.3,-0.8,-8.7,-35.4,9.1,0.625049593,-0.135258034,-0.64189581,-0.42301706
158,399629,1031900,0.929,0.383,0.134,-2.3,0.3,-0.8,-8.7,-35.4,9.1,0.625049593,-0.135288553,-0.641865291,-0.423047578
159,402712,1031910,0.929,0.383,0.138,-2.4,0.3,-0.7,-8.7,-35.4,9.1,0.625019074,-0.135319071,-0.641834773,-0.423108615
160,404807,1031910,0.925,0.383,0.138,-2.5,0.3,-0.7,-8.9,-35.3,8.8,0.625019074,-0.135319071,-0.641804254,-0.423139134
161,408053,1031910,0.932,0.387,0.138,-2.6,0.4,-0.8,-8.9,-35.3,8.8,0.625019074,-0.13534959,-0.641773736,-0.423200171
162,410152,1031910,0.929,0.391,0.138,-2.7,0.3,-0.7,-8.9,-35.3,8.8,0.624988556,-0.135380108,-0.641773736,-0.423261208
163,413136,1031920,0.929,0.395,0.134,-2.7,0.3,-0.5,-8.9,-35.3,8.8,0.624988556,-0.135410627,-0.641743217,-0.423291726
164,414640,1031920,0.929,0.402,0.138,-2.5,0.1,-0.4,-8.3,-35.1,8.9,0.624988556,-0.135441145,-0.641712699,-0.423352763
165,417630,1031920,0.932,0.398,0.138,-2.3,0,-0.5,-8.3,-35.1,8.9,0.624958037,-0.135441145,-0.64168218,-0.423383282
166,419820,1031920,0.929,0.402,0.135,-2.2,0,-0.6,-8.3,-35.1,8.9,0.624958037,-0.135471664,-0.641651662,-0.4234138
167,422945,1031930,0.929,0.402,0.138,-2.1,0,-0.8,-8.3,-35.1,8.9,0.624927519,-0.135502182,-0.641651662,-0.423474837
168,425355,1031930,0.932,0.402,0.142,-2.1,0,-1.1,-8.6,-35.2,8.6,0.624927519,-0.135502182,-0.641590625,-0.423505356
169,427260,1031930,0.932,0.402,0.138,-2.2,-0.2,-1.3,-8.6,-35.2,8.6,0.624897,-0.135532701,-0.641590625,-0.423566393
170,430450,1031930,0.929,0.402,0.135,-2.3,-0.3,-1.6,-8.6,-35.2,8.6,0.624866482,-0.135532701,-0.641590625,-0.42362743
171,433453,1031940,0.929,0.402,0.138,-2.5,-0.4,-2,-8.6,-35.2,8.6,0.624835963,-0.135532701,-0.641590625,-0.423688467
172,436516,1031940,0.932,0.402,0.146,-2.7,-0.4,-2.4,-9,-34.9,9.1,0.624805445,-0.135563219,-0.641590625,-0.423749504
173,438104,1031940,0.932,0.398,0.142,-3,-0.2,-2.7,-9,-34.9,9.1,0.624774926,-0.135563219,-0.641560106,-0.42384106
174,439559,1031940,0.936,0.398,0.138,-3.5,-0.1,-2.8,-9,-34.9,9.1,0.624713889,-0.135563219,-0.641560106,-0.423902097
175,442616,1031950,0.936,0.386,0.146,-3.9,-0.1,-3,-9,-34.9,9.1,0.62468337,-0.135563219,-0.641529588,-0.424024171
176,445618,1031950,0.936,0.39,0.154,-4.3,0,-3.2,-9.1,-35.2,8.7,0.624561296,-0.135471664,-0.641529588,-0.424207282
177,447082,1031950,0.936,0.39,0.154,-4.6,0,-3.5,-9.1,-35.2,8.7,0.624530778,-0.135471664,-0.641499069,-0.424298837
178,450005,1031950,0.932,0.382,0.158,-4.8,0.3,-3.8,-9.1,-35.2,8.7,0.624469741,-0.135502182,-0.641438032,-0.42445143
179,452319,1031960,0.932,0.386,0.166,-4.8,0.5,-3.9,-9.1,-35.2,8.7,0.624439222,-0.135502182,-0.641407514,-0.424573504
180,454526,1031960,0.928,0.378,0.166,-4.6,0.6,-3.9,-9.4,-34.9,9.2,0.624408704,-0.135502182,-0.641376995,-0.424695578
181,459092,1031960,0.928,0.378,0.166,-4.3,0.7,-3.8,-9.4,-34.9,9.2,0.624347667,-0.135502182,-0.641315958,-0.424787133
182,461294,1031960,0.921,0.382,0.174,-3.7,0.6,-3.6,-9.4,-34.9,9.2,0.624317148,-0.135502182,-0.64128544,-0.424909207
183,463770,1031970,0.917,0.386,0.178,-3.1,0.6,-3.3,-9.4,-34.9,9.2,0.62428663,-0.135471664,-0.641254921,-0.425000763
184,465871,1031970,0.917,0.39,0.178,-2.5,0.6,-3,-8.2,-35.4,8.3,0.624256111,-0.135471664,-0.641254921,-0.425092318
185,468166,1031970,0.905,0.386,0.186,-1.8,0.6,-2.9,-8.2,-35.4,8.3,0.624256111,-0.135441145,-0.641224403,-0.425153356
186,470186,1031970,0.901,0.39,0.186,-1,0.6,-2.7,-8.2,-35.4,8.3,0.624225593,-0.135410627,-0.641224403,-0.425214393
187,472044,1031980,0.897,0.394,0.186,-0.2,0.6,-2.7,-8.2,-35.4,8.3,0.624195074,-0.135380108,-0.641224403,-0.425244911
188,475766,1031980,0.893,0.398,0.182,0.3,0.5,-2.7,-8.9,-35,8.8,0.624195074,-0.135319071,-0.641224403,-0.42527543
189,477203,1031980,0.878,0.402,0.19,1.1,0.2,-2.6,-8.9,-35,8.8,0.624164556,-0.135258034,-0.641224403,-0.425305948
190,479673,1031980,0.87,0.402,0.186,1.8,-0.1,-2.5,-8.9,-35,8.8,0.624164556,-0.135196997,-0.641254921,-0.425305948
191,483391,1031990,0.866,0.406,0.187,2.5,-0.5,-2.4,-8.9,-35,8.8,0.624134037,-0.13513596,-0.64128544,-0.425305948
192,485522,1031990,0.854,0.406,0.187,3,-1.2,-2.2,-9.3,-35.2,8.4,0.624103519,-0.135074923,-0.641346477,-0.42527543
193,486996,1031990,0.846,0.414,0.191,3.4,-1.8,-2.2,-9.3,-35.2,8.4,0.624073,-0.134983367,-0.641407514,-0.42527543
194,489863,1031990,0.842,0.414,0.191,3.5,-2.6,-2.1,-9.3,-35.2,8.4,0.624011963,-0.134983367,-0.641499069,-0.425244911
195,492285,1032000,0.835,0.415,0.187,3.4,-3.2,-2.2,-9.3,-35.2,8.4,0.623950926,-0.13492233,-0.641560106,-0.425214393
196,494789,1032000,0.823,0.422,0.195,3.3,-3.8,-2.2,-9.2,-35.4,8.7,0.623920408,-0.134678182,-0.641560106,-0.425397504
197,497448,1032000,0.823,0.422,0.195,3,-4.3,-2.3,-9.2,-35.4,8.7,0.623828852,-0.134647664,-0.641651662,-0.425366985
198,499787,1032000,0.815,0.422,0.199,2.5,-4.6,-2.5,-9.2,-35.4,8.7,0.623767815,-0.134617145,-0.641743217,-0.425366985
199,502008,1032010,0.811,0.426,0.2,2,-4.9,-2.7,-9.2,-35.4,8.7,0.62367626,-0.134586627,-0.641834773,-0.425336467
200,504939,1032010,0.807,0.419,0.188,1.4,-5.4,-2.9,-9.4,-35.4,8.8,0.623584704,-0.134586627,-0.641926328,-0.425366985
201,507268,1032010,0.811,0.423,0.196,0.8,-5.8,-3.2,-9.4,-35.4,8.8,0.62346263,-0.134586627,-0.642017884,-0.425366985
202,510072,1032010,0.811,0.426,0.2,0.4,-6.2,-3.4,-9.4,-35.4,8.8,0.623340556,-0.134586627,-0.642109439,-0.425397504
203,513241,1032020,0.811,0.423,0.196,0.2,-6.6,-3.7,-9.4,-35.4,8.8,0.623218482,-0.134586627,-0.642231513,-0.425428022
204,514687,1032020,0.811,0.423,0.196,0,-6.9,-3.9,-7.8,-35.6,8.5,0.623096408,-0.134586627,-0.642323069,-0.425458541
205,517859,1032020,0.815,0.422,0.203,0,-7.2,-4.3,-7.8,-35.6,8.5,0.622943815,-0.134586627,-0.642445143,-0.425489059
206,519827,1032020,0.823,0.422,0.195,-0.2,-7.5,-4.8,-7.8,-35.6,8.5,0.622791223,-0.134617145,-0.642567217,-0.425550096
207,522976,1032030,0.827,0.422,0.199,-0.3,-7.8,-5.2,-7.8,-35.6,8.5,0.62263863,-0.134617145,-0.642658773,-0.425580615
208,526080,1032030,0.827,0.426,0.203,-0.3,-8.1,-5.4,-9.2,-34.9,8.8,0.622455519,-0.134617145,-0.642780847,-0.425641652
209,528344,1032030,0.838,0.422,0.195,-0.1,-8.4,-5.9,-9.2,-34.9,8.8,0.622302927,-0.134617145,-0.642933439,-0.425702689
210,530323,1032030,0.846,0.434,0.191,0,-8.6,-6.3,-9.2,-34.9,8.8,0.622119816,-0.134586627,-0.643055513,-0.425763726
211,531982,1032040,0.85,0.434,0.187,0.2,-8.9,-6.7,-9.2,-34.9,8.8,0.621936705,-0.134586627,-0.643208106,-0.425824763
212,534934,1032040,0.854,0.434,0.187,0.4,-9.1,-7.1,-8.8,-35,8.7,0.621723075,-0.134556108,-0.643360698,-0.4258858
213,538119,1032040,0.858,0.442,0.179,0.6,-9.5,-7.6,-8.8,-35,8.7,0.621539964,-0.13452559,-0.643513291,-0.425946837
214,540045,1032040,0.87,0.45,0.179,0.8,-9.8,-8.1,-8.8,-35,8.7,0.621326334,-0.134495071,-0.643665883,-0.426038392
215,542419,1032050,0.874,0.457,0.179,1.1,-10.1,-8.7,-8.8,-35,8.7,0.621082186,-0.134464553,-0.643848994,-0.426099429
216,545235,1032050,0.874,0.461,0.175,1.4,-10.4,-9.1,-8.9,-35.2,8.8,0.620838038,-0.134098331,-0.643910031,-0.426465651
217,548530,1032050,0.878,0.469,0.175,1.5,-10.7,-9.4,-8.9,-35.2,8.8,0.620624409,-0.134006775,-0.644123661,-0.426526688
218,549840,1032050,0.893,0.469,0.171,1.3,-11,-9.8,-8.9,-35.2,8.8,0.620380261,-0.133976257,-0.644306772,-0.426618244
219,552691,1032060,0.885,0.481,0.175,0.9,-11.4,-10.4,-8.9,-35.2,8.8,0.620105594,-0.13391522,-0.644489883,-0.426709799
220,555865,1032060,0.885,0.481,0.168,0.4,-11.9,-11.1,-8.9,-35,9,0.619861446,-0.133884701,-0.644703513,-0.426831874
221,557226,1032060,0.897,0.489,0.164,-0.2,-12.2,-11.9,-8.9,-35,9,0.619556261,-0.133823664,-0.644886624,-0.426953948
222,560215,1032060,0.893,0.497,0.156,-0.9,-12.6,-12.6,-8.9,-35,9,0.619251076,-0.133762627,-0.645100253,-0.42710654
223,563374,1032070,0.893,0.5,0.164,-1.4,-13,-13.2,-8.9,-35,9,0.618945891,-0.133732109,-0.645283364,-0.427259133
224,564664,1032070,0.889,0.512,0.16,-1.9,-13.3,-13.5,-7.4,-35.8,8.8,0.618640706,-0.13370159,-0.645496994,-0.427442244
225,567677,1032070,0.889,0.512,0.16,-2.5,-13.5,-13.7,-7.4,-35.8,8.8,0.618305002,-0.133640553,-0.645680105,-0.427625355
226,570801,1032070,0.889,0.516,0.164,-3.1,-13.7,-13.6,-7.4,-35.8,8.8,0.617969298,-0.133640553,-0.645893735,-0.427808466
227,572720,1032080,0.889,0.516,0.156,-3.9,-13.7,-13.8,-7.4,-35.8,8.8,0.617633595,-0.133610034,-0.646076846,-0.428022095
228,575953,1032080,0.889,0.52,0.16,-4.9,-13.7,-13.8,-8.7,-35.4,8.2,0.617297891,-0.133610034,-0.646259957,-0.428205206
229,578104,1032080,0.885,0.516,0.16,-6.2,-13.7,-13.9,-8.7,-35.4,8.2,0.616962188,-0.133640553,-0.646412549,-0.428449355
230,580841,1032080,0.885,0.524,0.164,-7.7,-13.6,-14,-8.7,-35.4,8.2,0.616626484,-0.133671072,-0.646565142,-0.428724021
231,582366,1032090,0.881,0.512,0.168,-9.4,-13.6,-14.1,-8.7,-35.4,8.2,0.616260262,-0.133732109,-0.646717734,-0.428998688
232,585325,1032090,0.877,0.516,0.172,-10.9,-13.5,-14.2,-8.9,-35.5,8.5,0.615924558,-0.133793146,-0.646839808,-0.429303873
233,587276,1032090,0.877,0.512,0.172,-12.4,-13.3,-14.3,-8.9,-35.5,8.5,0.615558336,-0.133884701,-0.646931364,-0.429639576
234,590505,1032090,0.877,0.504,0.172,-14,-13.3,-14.4,-8.9,-35.5,8.5,0.615192114,-0.134006775,-0.647022919,-0.430005799
235,593409,1032100,0.874,0.501,0.176,-15.5,-13.4,-14.2,-8.9,-35.5,8.5,0.614825892,-0.134128849,-0.647114475,-0.430372021
236,596428,1032100,0.87,0.497,0.176,-17,-13.5,-13.9,-8.6,-35.4,8.5,0.614337596,-0.133823664,-0.647083956,-0.431134983
237,598002,1032100,0.87,0.497,0.176,-18.4,-13.8,-13.7,-8.6,-35.4,8.5,0.613971374,-0.134006775,-0.647144993,-0.431562243
238,601161,1032100,0.874,0.493,0.176,-19.7,-14.2,-13.7,-8.6,-35.4,8.5,0.613574633,-0.134220405,-0.64720603,-0.431958983
239,604529,1032110,0.874,0.493,0.164,-20.6,-14.7,-13.4,-8.6,-35.4,8.5,0.613177892,-0.134434034,-0.647236549,-0.432386242
240,604731,1032110,0.874,0.493,0.168,-21.4,-15.2,-13,-9,-35.3,8.5,0.612781152,-0.134678182,-0.647267067,-0.43284402
241,608347,1032110,0.878,0.489,0.168,-21.7,-15.8,-12.3,-9,-35.3,8.5,0.612384411,-0.134952849,-0.647328104,-0.433271279
242,610377,1032110,0.885,0.489,0.16,-22,-16.3,-11.7,-9,-35.3,8.5,0.611957152,-0.135227515,-0.647358623,-0.43366802
243,612521,1032120,0.881,0.493,0.16,-22,-16.9,-10.8,-9,-35.3,8.5,0.611560411,-0.135532701,-0.64741966,-0.43406476
244,615773,1032120,0.889,0.493,0.152,-22,-17.5,-10.1,-6.8,-36,8.5,0.611133152,-0.135868404,-0.647480697,-0.434492019
245,617843,1032120,0.889,0.501,0.148,-22.1,-17.9,-9.6,-6.8,-36,8.5,0.610736412,-0.136204108,-0.647511216,-0.434858242
246,619689,1032120,0.897,0.501,0.148,-22.4,-18.1,-9.4,-6.8,-36,8.5,0.610309153,-0.136539811,-0.647572253,-0.435254982
247,623502,1032130,0.901,0.505,0.144,-22.8,-18.3,-9.4,-6.8,-36,8.5,0.609912412,-0.136875515,-0.64763329,-0.435651723
248,625206,1032130,0.897,0.505,0.14,-23.6,-18.3,-9.5,-8.5,-35.4,8.6,0.609485153,-0.137211219,-0.647694327,-0.436017945
249,627691,1032130,0.901,0.509,0.136,-24.6,-18.2,-9.6,-8.5,-35.4,8.6,0.609057894,-0.137577441,-0.647724845,-0.436475723
250,629971,1032130,0.909,0.509,0.136,-25.6,-18.1,-9.8,-8.5,-35.4,8.6,0.608630634,-0.137974181,-0.647755364,-0.4369335
251,632381,1032140,0.909,0.509,0.136,-26.5,-18.2,-9.9,-8.5,-35.4,8.6,0.608203375,-0.138340403,-0.647755364,-0.437360759
252,634708,1032140,0.913,0.509,0.136,-27.3,-18.3,-10.2,-8.3,-35,8.4,0.607745598,-0.138737144,-0.647785882,-0.437849055
253,639119,1032140,0.917,0.512,0.136,-28.1,-18.4,-10.5,-8.3,-35,8.4,0.607318339,-0.139133885,-0.647785882,-0.438306833
254,641592,1032140,0.921,0.504,0.136,-28.7,-18.4,-10.9,-8.3,-35,8.4,0.606860561,-0.139530625,-0.647785882,-0.438825648
255,642072,1032150,0.921,0.505,0.132,-29.5,-18.2,-11.2,-8.3,-35,8.4,0.606402783,-0.139957884,-0.647785882,-0.439313944
256,646049,1032150,0.921,0.501,0.136,-30.3,-18.1,-11.4,-8.5,-35,8.6,0.605761895,-0.139957884,-0.647816401,-0.440168462
257,648468,1032150,0.921,0.505,0.132,-31.4,-18,-11.7,-8.5,-35,8.6,0.605304117,-0.140385144,-0.647785882,-0.440687277
258,650299,1032150,0.925,0.504,0.132,-32.3,-17.8,-11.9,-8.5,-35,8.6,0.604815821,-0.140812403,-0.647755364,-0.441267129
259,652572,1032160,0.928,0.497,0.132,-33.4,-17.7,-12.3,-8.5,-35,8.6,0.604358043,-0.141239662,-0.647694327,-0.44184698
260,654615,1032160,0.925,0.497,0.132,-34.4,-17.5,-12.7,-8.1,-35.2,8,0.603869747,-0.141697439,-0.64763329,-0.442426832
261,658305,1032160,0.925,0.497,0.128,-35.5,-17.4,-12.9,-8.1,-35.2,8,0.603381451,-0.142155217,-0.647572253,-0.443067721
262,660114,1032160,0.928,0.493,0.132,-36.6,-17.2,-12.9,-8.1,-35.2,8,0.602923673,-0.142612995,-0.647480697,-0.443708609
263,664191,1032170,0.928,0.485,0.132,-37.6,-16.9,-12.8,-8.1,-35.2,8,0.602435377,-0.143101291,-0.647389142,-0.444349498
264,664594,1032170,0.925,0.489,0.128,-38.5,-16.6,-12.6,-6.6,-36.4,7.6,0.601947081,-0.143589587,-0.647267067,-0.444990387
265,667210,1032170,0.925,0.485,0.128,-39.4,-16.3,-12.4,-6.6,-36.4,7.6,0.601489303,-0.144077883,-0.647144993,-0.445661794
266,671625,1032170,0.928,0.485,0.128,-40.1,-16,-12.4,-6.6,-36.4,7.6,0.601001007,-0.144596698,-0.646992401,-0.446333201
267,673998,1032180,0.925,0.489,0.132,-40.5,-15.8,-12.5,-6.6,-36.4,7.6,0.600512711,-0.145115513,-0.646839808,-0.447035127
268,676096,1032180,0.925,0.477,0.128,-40.8,-15.7,-12.5,-7.8,-35.4,8,0.600054933,-0.145603809,-0.646687216,-0.447737053
269,677733,1032180,0.925,0.477,0.128,-40.8,-15.7,-12.5,-7.8,-35.4,8,0.600054933,-0.145603809,-0.646687216,-0.447737053
270,680032,1032180,0.925,0.477,0.128,-40.8,-15.7,-12.5,-7.8,-35.4,8,0.600054933,-0.145603809,-0.646687216,-0.447737053
271,682320,1032190,0.925,0.477,0.128,-40.8,-15.7,-12.5,-7.8,-35.4,8,0.600054933,-0.145603809,-0.646687216,-0.447737053
272,685647,1032190,0.925,0.477,0.128,-40.8,-15.7,-12.5,-7.8,-35.4,8,0.600054933,-0.145603809,-0.646687216,-0.447737053
273,687140,1032190,0.921,0.485,0.128,-40.8,-15.6,-9.8,-6.9,-35.2,7.3,0.597735527,-0.148258919,-0.645893735,-0.451094089
274,691278,1032190,0.913,0.493,0.132,-40.6,-15.4,-9.1,-6.9,-35.2,7.3,0.597308267,-0.148808252,-0.645710623,-0.451734977
275,693516,1032200,0.913,0.497,0.132,-40.2,-15.3,-8.5,-6.9,-35.2,7.3,0.59685049,-0.149388104,-0.645558031,-0.452375866
276,695659,1032200,0.913,0.505,0.128,-39.9,-15.2,-7.9,-7.1,-35.7,7.6,0.596148564,-0.149357585,-0.645496994,-0.453413495
277,697789,1032200,0.909,0.513,0.128,-39.5,-15.1,-7.5,-7.1,-35.7,7.6,0.595721305,-0.149906919,-0.645313883,-0.454023865
278,699997,1032200,0.909,0.52,0.125,-39.2,-15,-7,-7.1,-35.7,7.6,0.595324564,-0.150456252,-0.64516129,-0.454634236
279,702467,1032210,0.909,0.52,0.125,-38.7,-14.8,-6.6,-7.1,-35.7,7.6,0.594897305,-0.151036103,-0.644978179,-0.455214087
280,704821,1032210,0.909,0.524,0.125,-38.2,-14.7,-6.2,-7,-35.8,7,0.594500565,-0.151585437,-0.644825587,-0.455793939
281,708254,1032210,0.905,0.54,0.125,-37.4,-14.5,-6,-7,-35.8,7,0.594134342,-0.15213477,-0.644642476,-0.456343272
282,710187,1032210,0.905,0.548,0.117,-36.6,-14.4,-5.9,-7,-35.8,7,0.593737602,-0.152653584,-0.644489883,-0.456892605
283,712420,1032220,0.905,0.548,0.117,-35.9,-14.3,-5.9,-7,-35.8,7,0.59337138,-0.153172399,-0.644337291,-0.45741142
284,715661,1032220,0.905,0.556,0.109,-35.3,-14.2,-5.8,-5.7,-36.9,6.7,0.592974639,-0.153691214,-0.644184698,-0.457930235
285,717690,1032220,0.909,0.564,0.117,-34.9,-14.1,-5.8,-5.7,-36.9,6.7,0.592608417,-0.154210028,-0.644032105,-0.458449049
286,721721,1032220,0.909,0.564,0.109,-34.7,-13.9,-5.8,-5.7,-36.9,6.7,0.592242195,-0.154728843,-0.643910031,-0.458967864
287,723964,1032230,0.913,0.564,0.105,-34.5,-13.6,-6.1,-5.7,-36.9,6.7,0.591875973,-0.155217139,-0.643757439,-0.45945616
288,726197,1032230,0.909,0.568,0.11,-34.5,-13.3,-6.3,-7.4,-35.7,7.3,0.591509751,-0.155705435,-0.643604846,-0.460005493
289,728049,1032230,0.909,0.568,0.113,-34.7,-13,-6.5,-7.4,-35.7,7.3,0.591143529,-0.156193731,-0.643421735,-0.460554827
290,730178,1032230,0.913,0.568,0.109,-35.1,-12.6,-6.7,-7.4,-35.7,7.3,0.590777306,-0.156682028,-0.643269143,-0.461073641
291,732152,1032240,0.917,0.564,0.109,-35.8,-12.2,-7,-7.4,-35.7,7.3,0.590411084,-0.157170324,-0.643086032,-0.461622974
292,736207,1032240,0.921,0.564,0.113,-36.8,-11.7,-7.3,-6.5,-35.8,6.8,0.590044862,-0.15765862,-0.642902921,-0.462202826
293,738647,1032240,0.925,0.56,0.105,-38.1,-11.2,-7.8,-6.5,-35.8,6.8,0.58967864,-0.158146916,-0.642689291,-0.462813196
294,740774,1032240,0.928,0.556,0.113,-39.5,-10.8,-8.2,-6.5,-35.8,6.8,0.589281899,-0.158665731,-0.642445143,-0.463423566
295,742852,1032250,0.936,0.556,0.113,-41.3,-10.2,-8.7,-6.5,-35.8,6.8,0.588915677,-0.159154027,-0.642200995,-0.464094974
296,745085,1032250,0.921,0.536,0.121,-43.5,-9.4,-8.9,-6.8,-36,6.6,0.588213752,-0.159215064,-0.642109439,-0.465071566
297,747337,1032250,0.921,0.536,0.121,-46,-8.5,-9,-6.8,-36,6.6,0.58784753,-0.159764397,-0.641804254,-0.46580401
298,750576,1032250,0.932,0.528,0.128,-48.8,-7.5,-9,-6.8,-36,6.6,0.587450789,-0.160344249,-0.641407514,-0.466566973
299,752635,1032260,0.932,0.516,0.124,-51.6,-6.5,-9.3,-6.8,-36,6.6,0.587084567,-0.160954619,-0.641010773,-0.467390973
300,754873,1032260,0.936,0.504,0.124,-54.2,-5.7,-9.7,-6.6,-36.1,6.6,0.586718345,-0.161564989,-0.640552995,-0.468245491
301,758083,1032260,0.964,0.512,0.116,-56.4,-5.2,-9.9,-6.6,-36.1,6.6,0.586352123,-0.162205878,-0.640095218,-0.469161046
302,760150,1032260,1.007,0.527,0.123,-58.1,-4.9,-9.4,-6.6,-36.1,6.6,0.5859859,-0.162877285,-0.639576403,-0.470076601
303,762692,1032270,1.069,0.538,0.114,-59.1,-4.2,-7.4,-6.6,-36.1,6.6,0.585619678,-0.163579211,-0.639057588,-0.470992157
304,764875,1032270,1.038,0.523,0.118,-60,-2.3,-2.9,-5.7,-37.7,5.4,0.585345012,-0.164281137,-0.638477737,-0.471846675
305,768073,1032270,1.167,0.569,0.113,-61.3,1.1,4.2,-5.7,-37.7,5.4,0.585192419,-0.165135655,-0.637836848,-0.472640156
306,769538,1032270,1.038,0.503,0.126,-63.6,7.2,14,-5.7,-37.7,5.4,0.585222938,-0.166081729,-0.637012848,-0.4733726
307,772395,1032280,0.905,0.481,0.144,-67.1,15.8,25.8,-5.7,-37.7,5.4,0.585467086,-0.167119358,-0.636036256,-0.474044008
308,775658,1032280,0.893,0.465,0.144,-71.5,25.3,37.3,-6.4,-36.9,5.6,0.585924863,-0.16830958,-0.634846034,-0.474654378
309,777715,1032280,0.878,0.434,0.136,-76.7,33.3,45.2,-6.4,-36.9,5.6,0.586565752,-0.169560839,-0.633442183,-0.475264748
310,779991,1032280,0.979,0.453,0.126,-82,38.3,47.6,-6.4,-36.9,5.6,0.587298196,-0.170873135,-0.631916257,-0.475905637
311,782173,1032290,0.975,0.437,0.134,-86.4,40.6,45.2,-6.4,-36.9,5.6,0.588000122,-0.17218543,-0.630329295,-0.4766686
312,785154,1032290,0.761,0.377,0.157,-89.4,42.2,40.4,-6.5,-36.4,5,0.588671529,-0.173436689,-0.628711814,-0.477553636
313,787436,1032290,0.679,0.354,0.158,-90.9,44.3,35.7,-6.5,-36.4,5,0.589312418,-0.17465743,-0.627063814,-0.47849971
314,790516,1032290,0.671,0.35,0.162,-91.1,45.3,31,-6.5,-36.4,5,0.58989227,-0.175756096,-0.625385296,-0.479506821
315,793390,1032300,0.733,0.35,0.141,-90.3,42.8,24.2,-6.5,-36.4,5,0.590380566,-0.176824244,-0.623798334,-0.480605487
316,794818,1032300,0.819,0.361,0.132,-88.2,35.6,14.2,-6.3,-36.7,5.1,0.590685751,-0.177770318,-0.622363964,-0.481765191
317,797842,1032300,0.784,0.349,0.136,-84.6,25.2,2.6,-6.3,-36.7,5.1,0.590716269,-0.178624836,-0.621143223,-0.482985931
318,799966,1032300,0.776,0.353,0.137,-79.5,14.7,-7.2,-6.3,-36.7,5.1,0.590533158,-0.179387799,-0.620136113,-0.484206671
319,803101,1032310,0.827,0.372,0.132,-73.4,5.5,-13.6,-6.3,-36.7,5.1,0.590166936,-0.180089724,-0.619342631,-0.485396893
320,805201,1032310,0.89,0.368,0.131,-66.8,-2.1,-16.1,-6.1,-36.8,4.2,0.589709159,-0.180761132,-0.618732261,-0.48649556
321,807389,1032310,0.882,0.372,0.131,-60.2,-8.5,-15.3,-6.1,-36.8,4.2,0.589190344,-0.181432539,-0.618243965,-0.487472152
322,810556,1032310,0.893,0.387,0.135,-53.8,-13.2,-11.9,-6.1,-36.8,4.2,0.588671529,-0.182103946,-0.617908261,-0.488296152
323,813567,1032320,0.905,0.407,0.135,-48.3,-16.2,-7.3,-6.1,-36.8,4.2,0.588183233,-0.182805872,-0.617633595,-0.488967559
324,814917,1032320,0.905,0.422,0.139,-44.5,-17.8,-3.1,-5.8,-37.9,3.4,0.587725455,-0.183507797,-0.617389447,-0.489547411
325,818243,1032320,0.905,0.434,0.135,-43.1,-18.2,-0.4,-5.8,-37.9,3.4,0.587328715,-0.18427076,-0.617175817,-0.490066225
326,820397,1032320,0.901,0.438,0.135,-43.8,-17.7,0.4,-5.8,-37.9,3.4,0.586901456,-0.185003204,-0.616931669,-0.49058504
327,822554,1032330,0.893,0.442,0.136,-46,-16.9,-0.2,-5.8,-37.9,3.4,0.586474197,-0.185766167,-0.616657002,-0.491134373
328,824851,1032330,0.889,0.442,0.132,-49,-16,-1.9,-6.3,-36.5,3.8,0.586046937,-0.186559648,-0.616321299,-0.491744743
329,827178,1032330,0.882,0.438,0.132,-51.7,-15,-4,-6.3,-36.5,3.8,0.58558916,-0.187322611,-0.615985595,-0.492446669
330,829937,1032330,0.878,0.43,0.136,-53.6,-14.2,-6.1,-6.3,-36.5,3.8,0.585100864,-0.188085574,-0.615619373,-0.493179113
331,833084,1032340,0.882,0.426,0.144,-54.4,-13.8,-7.9,-6.3,-36.5,3.8,0.584612568,-0.188818018,-0.615253151,-0.493942076
332,836170,1032340,0.882,0.418,0.147,-54.1,-13.5,-9,-6.2,-36.9,3.4,0.584124271,-0.189519944,-0.61485641,-0.494735557
333,838331,1032340,0.882,0.418,0.159,-52.5,-13.4,-9.5,-6.2,-36.9,3.4,0.583605457,-0.19022187,-0.614520707,-0.49549852
334,839752,1032340,0.885,0.414,0.175,-49.9,-13.1,-9.5,-6.2,-36.9,3.4,0.583117161,-0.190862758,-0.614185003,-0.496230964
335,842702,1032350,0.893,0.422,0.175,-46.6,-12.6,-9.1,-6.2,-36.9,3.4,0.582659383,-0.191473128,-0.613879818,-0.49693289
336,844958,1032350,0.905,0.421,0.19,-42.7,-12.1,-8.7,-5.7,-36.9,3.2,0.582171087,-0.191961425,-0.61363567,-0.497604297
337,848237,1032350,0.917,0.421,0.182,-38.6,-11.6,-8.2,-5.7,-36.9,3.2,0.581774346,-0.192449721,-0.613391522,-0.498184149
338,850316,1032350,0.917,0.425,0.182,-34.2,-11.1,-7.9,-5.7,-36.9,3.2,0.581377606,-0.192907498,-0.613208411,-0.498702963
339,852539,1032360,0.924,0.426,0.162,-29.3,-10.6,-7.7,-5.7,-36.9,3.2,0.581041902,-0.193304239,-0.613055818,-0.499130222
340,856673,1032360,0.94,0.429,0.15,-23.9,-10.2,-7.6,-5.7,-37,2.8,0.580706198,-0.193578906,-0.612964263,-0.499526963
341,857048,1032360,0.94,0.43,0.139,-17.6,-10,-7.5,-5.7,-37,2.8,0.580431532,-0.193853572,-0.612933744,-0.49980163
342,859677,1032360,0.94,0.434,0.143,-10.5,-10.1,-7.2,-5.7,-37,2.8,0.580156865,-0.193975646,-0.612964263,-0.499984741
343,863050,1032370,0.952,0.437,0.135,-3,-10.4,-6.8,-5.7,-37,2.8,0.579943236,-0.194036683,-0.613086337,-0.500076296
344,866042,1032370,0.944,0.449,0.139,4,-11.1,-6.5,-6,-37.9,2.4,0.579729606,-0.194036683,-0.613299966,-0.500045778
345,868300,1032370,0.928,0.453,0.143,9.8,-11.8,-6.5,-6,-37.9,2.4,0.579546495,-0.193945128,-0.613605152,-0.499954222
346,869748,1032370,0.925,0.457,0.143,13.6,-12.1,-7.2,-6,-37.9,2.4,0.579363384,-0.193823054,-0.613940855,-0.49980163
347,872672,1032380,0.932,0.465,0.143,14.7,-11.9,-8.7,-6,-37.9,2.4,0.579180273,-0.193639943,-0.61424604,-0.499679556
348,875970,1032380,0.921,0.469,0.136,13,-10.9,-11.3,-5.8,-37.2,3,0.578966643,-0.193426313,-0.614612262,-0.499588
349,877291,1032380,0.909,0.461,0.136,8.6,-9.2,-14.6,-5.8,-37.2,3,0.578722495,-0.193243202,-0.614886929,-0.499618519
350,880487,1032380,0.901,0.462,0.132,2.1,-6.4,-18.2,-5.8,-37.2,3,0.57841731,-0.193029572,-0.61507004,-0.49980163
351,883420,1032390,0.889,0.43,0.124,-5.7,-3,-21.6,-5.8,-37.2,3,0.578142644,-0.192846461,-0.615131077,-0.500137333
352,884866,1032390,0.882,0.423,0.116,-14.1,0.7,-24.6,-5.9,-37.2,2.5,0.57780694,-0.192693869,-0.61507004,-0.500656148
353,888053,1032390,0.917,0.419,0.111,-21.9,4.1,-26.6,-5.9,-37.2,2.5,0.577471236,-0.192571795,-0.614886929,-0.501297037
354,889853,1032390,0.925,0.407,0.099,-28.3,6.7,-27.3,-5.9,-37.2,2.5,0.577166051,-0.192480239,-0.614612262,-0.502029481
355,891978,1032400,0.905,0.376,0.096,-32.9,8.8,-26.1,-5.9,-37.2,2.5,0.576860866,-0.192449721,-0.61424604,-0.502853481
356,895895,1032400,0.89,0.333,0.087,-38.5,12.6,-16.7,-5.7,-37.1,2.8,0.576494644,-0.192602313,-0.613971374,-0.503524888
357,897566,1032400,0.89,0.333,0.087,-38.5,12.6,-16.7,-5.7,-37.1,2.8,0.576311533,-0.192724387,-0.613452559,-0.504318369
358,900691,1032400,0.831,0.255,0.084,-40.6,14.1,-9.7,-5.7,-37.1,2.8,0.576250496,-0.192938017,-0.612872707,-0.505050813
359,902294,1032410,0.816,0.22,0.076,-42.7,14.9,-3.3,-5.7,-37.1,2.8,0.576219977,-0.193273721,-0.612231819,-0.505722221
360,905245,1032410,0.863,0.235,0.079,-44.8,14.6,0.6,-5.4,-37.2,2.6,0.576219977,-0.193670461,-0.611529893,-0.506363109
361,907413,1032410,0.96,0.273,0.097,-46.6,13.1,1,-5.4,-37.2,2.6,0.576219977,-0.194128239,-0.610858486,-0.507034516
362,910639,1032410,0.878,0.211,0.125,-48.7,11.4,-0.3,-5.4,-37.2,2.6,0.57615894,-0.194616535,-0.61015656,-0.507736442
363,912691,1032420,0.855,0.18,0.133,-51.8,10.1,-0.8,-5.4,-37.2,2.6,0.576067385,-0.19513535,-0.609485153,-0.508468886
364,915964,1032420,0.855,0.16,0.133,-56,9,0.9,-5.6,-37.9,2.2,0.575975829,-0.19574572,-0.60872219,-0.509262368
365,918165,1032420,0.901,0.175,0.171,-60.5,7.4,4,-5.6,-37.9,2.2,0.575853755,-0.196478164,-0.607959227,-0.51002533
366,920169,1032420,0.893,0.135,0.183,-64,4.6,6.6,-5.6,-37.9,2.2,0.575701163,-0.197332682,-0.607135228,-0.510818812
367,922049,1032430,0.831,0.089,0.187,-65.6,1.1,7.9,-5.6,-37.9,2.2,0.575518052,-0.198248238,-0.606372265,-0.511612293
368,925552,1032430,0.807,0.081,0.203,-64.9,-2.6,8,-5.6,-37.1,1.7,0.575304422,-0.199194311,-0.605639821,-0.512344737
369,927184,1032430,0.956,0.153,0.229,-61,-6.4,6.5,-5.6,-37.1,1.7,0.575029756,-0.200109867,-0.604998932,-0.513046663
370,930792,1032430,0.948,0.161,0.241,-53.5,-10.2,3.2,-5.6,-37.1,1.7,0.574694052,-0.200933866,-0.604510636,-0.513657033
371,932588,1032440,0.928,0.173,0.253,-42.9,-13.7,0.1,-5.6,-37.1,1.7,0.57432783,-0.201635792,-0.604205451,-0.514175848
372,934605,1032440,0.936,0.197,0.242,-30.8,-16.4,-0.8,-5.4,-37.6,2,0.573961608,-0.202215644,-0.604083377,-0.514511551
373,938067,1032440,0.956,0.236,0.214,-18.8,-17.9,0.9,-5.4,-37.6,2,0.573656423,-0.202642903,-0.604083377,-0.514664144
374,941153,1032440,0.96,0.26,0.195,-8.1,-18.1,3.8,-5.4,-37.6,2,0.573412275,-0.203009125,-0.604205451,-0.514633625
375,942456,1032450,0.964,0.276,0.172,0.5,-17.2,6.5,-5.4,-37.6,2,0.573259682,-0.203283792,-0.604388562,-0.514481033
376,945729,1032450,0.968,0.304,0.141,11.6,-13.2,7.7,-5.3,-37.3,1.2,0.573412275,-0.203619495,-0.604541154,-0.514023255
377,947029,1032450,0.956,0.312,0.129,11.6,-13.2,7.7,-5.3,-37.3,1.2,0.573351238,-0.203741569,-0.604815821,-0.51371807
378,950197,1032450,0.956,0.32,0.125,14.5,-10.6,5.8,-5.3,-37.3,1.2,0.573351238,-0.203741569,-0.605059969,-0.513412885
379,953537,1032460,0.956,0.324,0.117,16,-8.2,2.8,-5.3,-37.3,1.2,0.573351238,-0.203680532,-0.605334635,-0.5131077
380,955686,1032460,0.956,0.308,0.094,16.1,-6.4,-0.8,-4.9,-37.2,1.8,0.573320719,-0.20352794,-0.605609302,-0.51289407
381,957760,1032460,0.952,0.297,0.086,15.2,-5.1,-4.8,-4.9,-37.2,1.8,0.573259682,-0.203344829,-0.60585345,-0.512680441
382,960885,1032460,0.956,0.285,0.082,13.7,-4.4,-8.5,-4.9,-37.2,1.8,0.573168126,-0.203100681,-0.606097598,-0.512619404
383,963050,1032470,0.968,0.242,0.073,11.7,-4,-11.5,-4.9,-37.2,1.8,0.573046052,-0.202856532,-0.606341746,-0.512588885
384,964504,1032470,0.976,0.214,0.069,9.7,-3.9,-13.3,-5.7,-37.8,1.7,0.57289346,-0.202581866,-0.606555376,-0.512619404
385,967436,1032470,0.988,0.198,0.076,7.8,-4,-14.1,-5.7,-37.8,1.7,0.572710349,-0.202337718,-0.606769005,-0.512680441
386,969703,1032470,0.995,0.171,0.08,6.4,-4.1,-14.1,-5.7,-37.8,1.7,0.572527238,-0.202124088,-0.606952116,-0.512741478
387,972899,1032480,1.019,0.127,0.087,5.4,-4.2,-13.6,-5.7,-37.8,1.7,0.572344127,-0.201940977,-0.607135228,-0.512833033
388,975807,1032480,1.031,0.107,0.09,4.6,-4.2,-13,-5.4,-37.6,1.8,0.572161016,-0.201757866,-0.60728782,-0.512924589
389,977291,1032480,1.038,0.088,0.101,3.8,-4,-12.1,-5.4,-37.6,1.8,0.571977905,-0.201574755,-0.607440413,-0.512985626
390,981263,1032480,1.054,0.056,0.097,2.9,-3.6,-11.1,-5.4,-37.6,1.8,0.571825312,-0.201391644,-0.607562487,-0.513077181
391,983655,1032490,1.062,0.036,0.1,2.2,-3,-10,-5.4,-37.6,1.8,0.57167272,-0.201300089,-0.607654042,-0.513168737
392,985781,1032490,1.066,0.024,0.108,1.6,-2.1,-8.7,-5.5,-37.5,1.9,0.571550645,-0.201208533,-0.607745598,-0.513229774
393,987792,1032490,1.074,0.009,0.108,1.1,-1.2,-6.9,-5.5,-37.5,1.9,0.57145909,-0.201116977,-0.607806635,-0.513290811
394,989983,1032490,1.089,0.004,0.111,0.9,-0.4,-4.8,-5.5,-37.5,1.9,0.571428571,-0.201025422,-0.607837153,-0.513351848
395,992073,1032500,1.132,0.023,0.119,0.9,0,-1.9,-5.5,-37.5,1.9,0.571398053,-0.200994903,-0.607867672,-0.513351848
396,995065,1032500,1.05,-0.034,0.119,1.1,1.7,7.1,-5.3,-37.8,1.8,0.571916868,-0.201940977,-0.607684561,-0.512619404
397,998187,1032500,1.109,0.008,0.119,1.1,1.7,7.1,-5.3,-37.8,1.8,0.572008423,-0.202002014,-0.607654042,-0.512527848
398,1000118,1032500,1.144,0.015,0.122,0.8,3.3,14,-5.3,-37.8,1.8,0.572222053,-0.202154607,-0.607562487,-0.512375256
399,1003120,1032510,1.089,-0.003,0.123,0.6,5.4,21.9,-5.3,-37.8,1.8,0.572527238,-0.202368236,-0.607409894,-0.512100589
400,1004633,1032510,1.031,-0.022,0.124,0.5,7.9,30.3,-5.8,-37.7,1.9,0.572985015,-0.202673421,-0.607165746,-0.511764885
401,1007672,1032510,0.898,-0.079,0.114,0.8,11,38.9,-5.8,-37.7,1.9,0.573564867,-0.203039644,-0.606891079,-0.511307108
402,1010761,1032510,0.921,-0.059,0.106,2.1,13.7,46.1,-5.8,-37.7,1.9,0.574266793,-0.203497421,-0.606524857,-0.510757775
403,1012298,1032520,0.875,-0.094,0.083,5.4,14.9,49.6,-5.8,-37.7,1.9,0.575060274,-0.203894162,-0.606189154,-0.510116886
404,1015374,1032520,0.867,-0.085,0.055,11,14.1,48.4,-5.3,-37.9,1.6,0.575823237,-0.204260384,-0.605914487,-0.509445479
405,1017369,1032520,0.933,-0.051,0.051,18.8,12,43.1,-5.3,-37.9,1.6,0.576555681,-0.204443495,-0.605761895,-0.508713034
406,1020647,1032520,0.937,-0.043,0.043,28.2,9.1,35.9,-5.3,-37.9,1.6,0.57719657,-0.204474013,-0.605822932,-0.507919553
407,1022034,1032530,0.914,-0.046,0.035,38.6,6.6,29.4,-5.3,-37.9,1.6,0.577776421,-0.204290902,-0.606036561,-0.507065035
408,1026539,1032530,0.929,-0.035,0.027,48.5,4.8,26,-5.4,-37.4,2.1,0.578356273,-0.203985717,-0.606372265,-0.506118961
409,1028172,1032530,0.937,-0.039,0.019,56.6,4.1,25.9,-5.4,-37.4,2.1,0.578936125,-0.203558458,-0.606830042,-0.505050813
410,1029564,1032530,0.937,-0.042,0.008,62.2,4.4,27.5,-5.4,-37.4,2.1,0.579577013,-0.203100681,-0.607348857,-0.50389111
411,1033693,1032540,0.969,-0.062,-0.004,65.5,5.4,29.2,-5.4,-37.4,2.1,0.580248421,-0.202581866,-0.607867672,-0.502700888
412,1035624,1032540,0.984,-0.07,-0.008,67.2,6.8,30.2,-5.8,-37.4,2.5,0.580980865,-0.202063051,-0.608386486,-0.501449629
413,1036996,1032540,1.004,-0.078,-0.013,68.1,8.4,30.2,-5.8,-37.4,2.5,0.581713309,-0.201513718,-0.608905301,-0.50019837
414,1040115,1032540,1.02,-0.098,-0.013,68.9,9.7,29.7,-5.8,-37.4,2.5,0.582476272,-0.200933866,-0.609393597,-0.498947111
415,1043150,1032550,1.059,-0.126,-0.026,70.1,10.7,29.2,-5.8,-37.4,2.5,0.583239235,-0.200292978,-0.609881893,-0.497665334
416,1044554,1032550,1.11,-0.146,-0.035,74.1,11.6,29,-5.9,-37.5,2.8,0.584185308,-0.200140385,-0.610431227,-0.495956297
417,1047458,1032550,1.11,-0.146,-0.035,74.1,11.6,29,-5.9,-37.5,2.8,0.58497879,-0.199438459,-0.61098056,-0.494613483
418,1050517,1032550,1.129,-0.166,-0.039,76.9,11.6,29.6,-5.9,-37.5,2.8,0.585802789,-0.198767052,-0.611529893,-0.493270669
419,1052080,1032560,1.164,-0.193,-0.06,79.7,11.6,30.4,-5.9,-37.5,2.8,0.586626789,-0.198004089,-0.612109745,-0.491866817
420,1055104,1032560,1.192,-0.201,-0.072,82.7,11.4,31.5,-6.3,-37.3,3.2,0.587481307,-0.197241127,-0.612689596,-0.490432447
421,1058254,1032560,1.207,-0.205,-0.076,85.7,11.3,32.9,-6.3,-37.3,3.2,0.588335826,-0.196478164,-0.613330485,-0.488906522
422,1060590,1032560,1.239,-0.229,-0.097,88.7,11.2,34.3,-6.3,-37.3,3.2,0.589220862,-0.195684683,-0.613971374,-0.487319559
423,1062076,1032570,1.251,-0.237,-0.109,91.9,11.4,35.9,-6.3,-37.3,3.2,0.590166936,-0.194860683,-0.614673299,-0.48567156
424,1066620,1032570,1.262,-0.241,-0.117,95.4,11.9,37.6,-6.5,-37.1,3.5,0.59111301,-0.194006165,-0.615344707,-0.483962523
425,1068984,1032570,1.27,-0.237,-0.125,99.4,12.7,39.5,-6.5,-37.1,3.5,0.592120121,-0.193121128,-0.616077151,-0.482161931
426,1071150,1032570,1.29,-0.241,-0.145,104,13.5,41.8,-6.5,-37.1,3.5,0.593188269,-0.192175054,-0.616809595,-0.480269784
427,1073544,1032580,1.298,-0.233,-0.149,109.2,14.4,44.4,-6.5,-37.1,3.5,0.594317454,-0.19122898,-0.617572558,-0.478286081
428,1075723,1032580,1.309,-0.229,-0.157,114.7,15.3,47.7,-6.7,-36.5,4.4,0.595477157,-0.19022187,-0.618366039,-0.476180303
429,1078175,1032580,1.302,-0.213,-0.172,120.6,16.4,51.5,-6.7,-36.5,4.4,0.596758934,-0.18918424,-0.619190039,-0.473952452
430,1079700,1032580,1.305,-0.197,-0.172,126.7,17.8,55.4,-6.7,-36.5,4.4,0.59807123,-0.188085574,-0.620044557,-0.471602527
431,1083875,1032590,1.298,-0.181,-0.183,133.1,19.6,59.1,-6.7,-36.5,4.4,0.5995056,-0.186956389,-0.620929594,-0.469100009
432,1085954,1032590,1.302,-0.169,-0.183,139.8,21.7,62.2,-7.1,-36.2,4.6,0.601001007,-0.185735649,-0.621814631,-0.466475417
433,1087692,1032590,1.278,-0.134,-0.19,146.6,23.8,64.8,-7.1,-36.2,4.6,0.60258797,-0.184453871,-0.622730186,-0.463728751
434,1090131,1032590,1.266,-0.118,-0.198,153.4,26,67.2,-7.1,-36.2,4.6,0.604235969,-0.183080538,-0.623645741,-0.460860012
435,1093629,1032600,1.255,-0.098,-0.197,160.2,28.3,69.2,-7.1,-36.2,4.6,0.605945006,-0.18161565,-0.624622333,-0.457869198
436,1096395,1032600,1.22,-0.066,-0.22,167,30.5,70.9,-7.6,-36,6.2,0.607715079,-0.180089724,-0.625598926,-0.454786828
437,1098581,1032600,1.196,-0.034,-0.227,173.8,32.5,72.2,-7.6,-36,6.2,0.609576708,-0.178441725,-0.626606037,-0.451582385
438,1100916,1032600,1.173,-0.018,-0.238,180.5,34.4,73.1,-7.6,-36,6.2,0.611438337,-0.17670217,-0.627613147,-0.448255867
439,1102830,1032610,1.157,0.005,-0.245,187.2,36.1,73.7,-7.6,-36,6.2,0.613391522,-0.174840541,-0.628681295,-0.444837794
440,1105032,1032610,1.118,0.045,-0.271,193.4,37.9,74.1,-7.9,-35.5,6.6,0.615344707,-0.172917875,-0.629749443,-0.441358684
441,1107362,1032610,1.099,0.057,-0.29,199,39.7,74.7,-7.9,-35.5,6.6,0.617358928,-0.170873135,-0.630848109,-0.4377575
442,1109845,1032610,1.087,0.069,-0.31,203.3,41.4,75.5,-7.9,-35.5,6.6,0.619403668,-0.168767357,-0.631946776,-0.43406476
443,1112085,1032620,1.06,0.102,-0.332,206.5,43.1,76.2,-7.9,-35.5,6.6,0.621478927,-0.166631062,-0.633045442,-0.430372021
444,1116614,1032620,1.052,0.106,-0.344,208.4,44.8,76.9,-8.3,-35.3,7.9,0.623554186,-0.164433729,-0.63411359,-0.426587725
445,1118825,1032620,1.04,0.11,-0.359,209.1,46.1,77.4,-8.3,-35.3,7.9,0.625659963,-0.162236396,-0.635120701,-0.42280343
446,1120889,1032620,1.036,0.11,-0.375,208.7,47,77.8,-8.3,-35.3,7.9,0.62776574,-0.160039064,-0.636127812,-0.419019135
447,1123250,1032630,1.029,0.107,-0.394,207.3,47.4,78.4,-8.3,-35.3,7.9,0.629871517,-0.157841731,-0.637104404,-0.41523484
448,1124797,1032630,1.033,0.099,-0.398,205.5,47.4,79.1,-9.1,-35.1,9.2,0.631946776,-0.155674917,-0.638019959,-0.411450545
449,1127268,1032630,1.037,0.099,-0.406,203.4,47,79.7,-9.1,-35.1,9.2,0.633991516,-0.153538621,-0.638935514,-0.40766625
450,1131285,1032630,1.044,0.091,-0.406,201.1,46.4,80.1,-9.1,-35.1,9.2,0.636036256,-0.151493881,-0.639790033,-0.403912473
451,1133547,1032640,1.052,0.087,-0.415,198.8,45.6,80.4,-9.1,-35.1,9.2,0.638019959,-0.149449141,-0.640644551,-0.400158696
452,1135869,1032640,1.056,0.083,-0.415,196.5,44.9,80.8,-9.1,-34.6,9.9,0.639973144,-0.147434919,-0.641468551,-0.396435438
453,1138173,1032640,1.064,0.083,-0.415,194.4,44.3,81.4,-9.1,-34.6,9.9,0.641926328,-0.145481735,-0.642262032,-0.39271218
454,1140056,1032640,1.068,0.075,-0.419,192.3,44,82.1,-9.1,-34.6,9.9,0.643848994,-0.143559069,-0.643024995,-0.388988922
455,1142256,1032650,1.072,0.079,-0.419,190.5,43.9,82.9,-9.1,-34.6,9.9,0.645771661,-0.141666921,-0.643757439,-0.385296182
456,1144669,1032650,1.08,0.075,-0.415,188.8,43.9,83.9,-10.2,-33.9,10.5,0.647663808,-0.139805292,-0.644459365,-0.381572924
457,1147009,1032650,1.091,0.083,-0.423,187.6,43.7,84.7,-10.2,-33.9,10.5,0.649555956,-0.1380047,-0.645130772,-0.377880184
458,1150692,1032650,1.088,0.079,-0.427,186.7,43,85.5,-10.2,-33.9,10.5,0.651417585,-0.136204108,-0.645802179,-0.374156926
459,1152767,1032660,1.088,0.083,-0.431,186.2,42.2,86.3,-10.2,-33.9,10.5,0.653279214,-0.134434034,-0.646443068,-0.370433668
460,1154963,1032660,1.095,0.095,-0.427,186.4,41,87.1,-10.2,-33.3,12.1,0.655079806,-0.132663961,-0.647114475,-0.366679891
461,1158119,1032660,1.095,0.107,-0.435,187.4,39.7,87.7,-10.2,-33.3,12.1,0.656880398,-0.130893887,-0.647785882,-0.362895596
462,1160295,1032660,1.095,0.122,-0.438,189.4,37.9,88.2,-10.2,-33.3,12.1,0.658650472,-0.129123814,-0.648487808,-0.359050264
463,1162549,1032670,1.095,0.134,-0.434,192,35.5,88.3,-10.2,-33.3,12.1,0.660390027,-0.12735374,-0.649220252,-0.355174413
464,1166228,1032670,1.099,0.15,-0.43,195.2,32.5,88,-11.2,-32.2,12.3,0.662068545,-0.125522629,-0.650013733,-0.351207007
465,1168483,1032670,1.103,0.189,-0.445,198.7,28.6,87.6,-11.2,-32.2,12.3,0.663686026,-0.123630482,-0.650868252,-0.347209082
466,1170648,1032670,1.115,0.209,-0.457,202.6,23.9,87.1,-11.2,-32.2,12.3,0.665211951,-0.121799371,-0.651814325,-0.343119602
467,1172806,1032680,1.123,0.228,-0.469,206.6,18.4,86.3,-11.2,-32.2,12.3,0.66667684,-0.119876705,-0.652851955,-0.338969085
468,1174940,1032680,1.142,0.287,-0.476,211,12.6,85.6,-11.4,-31.9,13.3,0.668019654,-0.117923521,-0.654011658,-0.33475753
469,1178961,1032680,1.146,0.303,-0.484,215.6,6.9,84.8,-11.4,-31.9,13.3,0.669301431,-0.115939817,-0.655262917,-0.330454421
470,1181190,1032680,1.158,0.334,-0.488,220.6,2.1,84.5,-11.4,-31.9,13.3,0.670491653,-0.113925596,-0.656575213,-0.326059755
471,1183401,1032690,1.177,0.358,-0.5,226.1,-1.4,84.4,-11.4,-31.9,13.3,0.671620838,-0.111819819,-0.658009583,-0.321573534
472,1185643,1032690,1.201,0.416,-0.507,231.5,-3.8,84.5,-12,-31.3,14,0.672719504,-0.109683523,-0.659474471,-0.316995758
473,1187738,1032690,1.201,0.432,-0.507,236.6,-4.5,84.6,-12,-31.3,14,0.673787652,-0.107455672,-0.66093936,-0.312326426
474,1191581,1032690,1.201,0.455,-0.499,241.2,-3.5,84.4,-12,-31.3,14,0.6748558,-0.105136265,-0.662434767,-0.307596057
475,1193408,1032700,1.201,0.483,-0.483,245,-0.9,83.9,-12,-31.3,14,0.675954466,-0.102755821,-0.663899655,-0.30283517
476,1195722,1032700,1.197,0.491,-0.479,250.4,7.5,80,-12.2,-30.2,15.5,0.677144688,-0.100161748,-0.66524247,-0.298013245
477,1197850,1032700,1.193,0.498,-0.467,250.4,7.5,80,-12.2,-30.2,15.5,0.67833491,-0.0975676748,-0.666585284,-0.293221839
478,1200026,1032700,1.185,0.498,-0.467,251.7,13,76.7,-12.2,-30.2,15.5,0.679525132,-0.094882046,-0.667836543,-0.288460952
479,1202274,1032710,1.177,0.502,-0.443,252,18.8,72.7,-12.2,-30.2,15.5,0.680776391,-0.0920743431,-0.668935209,-0.283730583
480,1206154,1032710,1.173,0.498,-0.431,251.7,25.4,68.8,-13.2,-29.3,16.6,0.682058168,-0.0892056032,-0.670003357,-0.279091769
481,1208472,1032710,1.169,0.494,-0.419,250.8,32.6,65,-13.2,-29.3,16.6,0.683400983,-0.0862147893,-0.670888394,-0.274513993
482,1209890,1032710,1.157,0.474,-0.388,249.4,40.6,62,-13.2,-29.3,16.6,0.684835353,-0.0831629383,-0.671651357,-0.269997253
483,1213113,1032720,1.145,0.47,-0.372,247.6,48.9,60.1,-13.2,-29.3,16.6,0.686361278,-0.0800500504,-0.672261727,-0.265572069
484,1214560,1032720,1.138,0.462,-0.361,245.8,57.2,59,-13.2,-27.3,17.7,0.687948241,-0.0769066439,-0.672719504,-0.261177404
485,1217598,1032720,1.13,0.458,-0.353,244,64.9,58.7,-13.2,-27.3,17.7,0.689626759,-0.0737327189,-0.673024689,-0.256813257
486,1221038,1032720,1.122,0.462,-0.329,242.9,71.7,58.9,-13.2,-27.3,17.7,0.691396832,-0.0705282754,-0.673207801,-0.252418592
487,1223363,1032730,1.114,0.473,-0.317,242.8,77.2,59.6,-13.2,-27.3,17.7,0.693227943,-0.0673238319,-0.673268838,-0.248115482
488,1225629,1032730,1.102,0.477,-0.301,243.7,81.1,60.8,-13.8,-27.4,18.1,0.695089572,-0.0640583514,-0.673268838,-0.243720817
489,1227605,1032730,1.102,0.477,-0.301,243.7,81.1,60.8,-13.8,-27.4,18.1,0.695089572,-0.0640583514,-0.673268838,-0.243720817
490,1229879,1032730,1.102,0.477,-0.301,243.7,81.1,60.8,-13.8,-27.4,18.1,0.695089572,-0.0640583514,-0.673268838,-0.243720817
491,1232414,1032740,1.055,0.528,-0.257,252.8,83.6,64.6,-13.8,-27.4,18.1,0.700735496,-0.0542008728,-0.673055208,-0.230170598
492,1236029,1032740,1.039,0.548,-0.248,257.5,82,65.5,-14.2,-26.2,19.2,0.702566607,-0.0508133183,-0.672994171,-0.225470748
493,1238371,1032740,1.02,0.599,-0.212,262.7,79.7,65.7,-14.2,-26.2,19.2,0.70433668,-0.0473342082,-0.672994171,-0.220709861
494,1240669,1032740,1.012,0.622,-0.204,268.2,77.2,65,-14.2,-26.2,19.2,0.706045717,-0.0438245796,-0.673024689,-0.215826899
495,1242248,1032750,0.98,0.638,-0.195,273.5,74.6,63.3,-14.2,-26.2,19.2,0.707693716,-0.0401623585,-0.673085726,-0.210913419
496,1245720,1032750,0.953,0.681,-0.175,282.2,70,57.7,-14.9,-25.5,20.1,0.709219642,-0.0363475448,-0.673238319,-0.205938902
497,1248105,1032750,0.941,0.709,-0.166,282.2,70,57.7,-14.9,-25.5,20.1,0.710715049,-0.0325022126,-0.673360393,-0.200933866
498,1249662,1032750,0.941,0.709,-0.166,282.2,70,57.7,-14.9,-25.5,20.1,0.710715049,-0.0325022126,-0.673360393,-0.200933866
499,1252167,1032760,0.918,0.736,-0.158,287.9,67.6,49.6,-14.9,-25.5,20.1,0.713522752,-0.0245368816,-0.67363506,-0.190984832
500,1256619,1032760,0.906,0.768,-0.165,289.5,67.6,45,-14.9,-24.1,20.9,0.714835047,-0.0203863643,-0.673757134,-0.186071352
501,1258977,1032760,0.914,0.788,-0.161,290,68.3,40.3,-14.9,-24.1,20.9,0.716116825,-0.0162053285,-0.673818171,-0.181188391
502,1261144,1032760,0.925,0.807,-0.157,289.1,69.9,35.6,-14.9,-24.1,20.9,0.717368084,-0.0119327372,-0.673848689,-0.176427503
503,1263346,1032770,0.945,0.826,-0.153,286.7,72.1,31.2,-14.9,-24.1,20.9,0.718619343,-0.00762962737,-0.673787652,-0.171727653
504,1265731,1032770,0.965,0.822,-0.157,282.4,74.9,27.6,-15.4,-21.3,21.9,0.719840083,-0.00332651753,-0.673665578,-0.167149876
505,1267621,1032770,0.961,0.814,-0.157,276.5,78.2,25.1,-15.4,-21.3,21.9,0.721091342,0.000915555284,-0.67342143,-0.162694174
506,1269845,1032770,0.964,0.81,-0.146,269,81.5,23.5,-15.4,-21.3,21.9,0.722373119,0.00509659108,-0.673085726,-0.158360546
507,1274034,1032780,0.992,0.822,-0.138,260.7,84.9,22.6,-15.4,-21.3,21.9,0.723624378,0.00915555284,-0.672627949,-0.15417951
508,1276692,1032780,1.031,0.829,-0.135,251.9,88.3,21.8,-15.5,-21.1,21.9,0.724936674,0.0131229591,-0.672078616,-0.15009003
509,1278932,1032780,1.121,0.875,-0.144,242.9,91.7,20.9,-15.5,-21.1,21.9,0.726279489,0.0169377728,-0.671437727,-0.14618366
510,1281163,1032780,1.117,0.875,-0.132,233.9,95,20.8,-15.5,-21.1,21.9,0.727652821,0.0206305124,-0.670674764,-0.142399365
511,1282750,1032790,1.226,0.909,-0.141,224.6,99.3,23.3,-15.5,-21.1,21.9,0.729056673,0.0241706595,-0.669789727,-0.138676107
512,1285330,1032790,1.175,0.882,-0.129,215.1,105.2,29.7,-16.1,-20.3,21.8,0.73055208,0.0274666585,-0.668752098,-0.134983367
513,1287486,1032790,1.066,0.847,-0.088,205,113.2,40.7,-16.1,-20.3,21.8,0.732200079,0.030487991,-0.667592395,-0.131290628
514,1290789,1032790,1.085,0.854,0.004,194.7,122.3,54.4,-16.1,-20.3,21.8,0.734000671,0.0331736198,-0.666219062,-0.127506333
515,1292726,1032800,0.96,0.791,0.096,183.9,131.1,67.7,-16.1,-20.3,21.8,0.735953856,0.0354930265,-0.664662618,-0.123630482
516,1295117,1032800,0.646,0.615,0.291,162,142.4,81.3,-16.6,-19.3,22.4,0.738090152,0.0372936186,-0.662862026,-0.119876705
517,1297322,1032800,0.646,0.615,0.291,162,142.4,81.3,-16.6,-19.3,22.4,0.740226447,0.0390942106,-0.661061434,-0.116122929
518,1299908,1032800,0.626,0.499,0.501,151,143.7,77.6,-16.6,-19.3,22.4,0.742362743,0.0407727287,-0.659169286,-0.112552263
519,1302528,1032810,0.7,0.461,0.589,140.2,141.5,64.9,-16.6,-19.3,22.4,0.744438002,0.0424817652,-0.657277139,-0.109347819
520,1304788,1032810,0.77,0.428,0.686,129.6,136.5,44.6,-17.1,-18.3,22.1,0.746360668,0.0442213202,-0.65541551,-0.106662191
521,1308044,1032810,0.816,0.353,0.884,119.4,131.2,21.7,-17.1,-18.3,22.1,0.74816126,0.0461745048,-0.65355388,-0.104464858
522,1311173,1032810,0.823,0.324,0.985,110.1,128.2,2.7,-17.1,-18.3,22.1,0.749900815,0.0482497635,-0.65172277,-0.102725303
523,1312749,1032820,0.827,0.288,1.078,102.5,128.6,-7.9,-17.1,-18.3,22.1,0.751579333,0.0503250221,-0.649830622,-0.101260414
524,1316210,1032820,0.948,0.32,1.17,97.9,132,-9.3,-18,-16.5,23.4,0.753318888,0.0523697623,-0.647877438,-0.099856563
525,1318478,1032820,1.029,0.247,1.286,97.8,137.5,-3,-18,-16.5,23.4,0.755149998,0.0543229469,-0.645802179,-0.0983916746
526,1320719,1032820,0.857,0.166,1.35,103.6,145.9,10.9,-18,-16.5,23.4,0.757103183,0.0561845759,-0.643635365,-0.096560564
527,1322219,1032830,0.767,0.127,1.387,117.4,159.2,31.9,-18,-16.5,23.4,0.759239479,0.0580156865,-0.64128544,-0.0941801202
528,1325216,1032830,0.545,0.008,1.409,141.7,177.5,57.2,-18.4,-17.3,22.2,0.761650441,0.0599078341,-0.638691366,-0.0910367138
529,1327439,1032830,0.431,-0.017,1.383,178.9,199.1,81.2,-18.4,-17.3,22.2,0.764366588,0.0621356853,-0.635853145,-0.086916715
530,1330575,1032830,0.287,0.004,1.358,230.2,221.1,99.4,-18.4,-17.3,22.2,0.767265847,0.0650349437,-0.632709738,-0.0817590869
531,1331994,1032840,0.322,0.099,1.285,293.8,240.9,110.2,-18.4,-17.3,22.2,0.770348216,0.0688497574,-0.629322184,-0.075533311
532,1335807,1032840,-0.075,0.395,1.201,365.4,257.1,115.2,-19.5,-15.8,22.1,0.773491623,0.0738242744,-0.625751518,-0.0681783502
533,1337992,1032840,-0.024,0.666,1.133,438,269,118,-19.5,-15.8,22.1,0.776573992,0.0800195318,-0.62202826,-0.0597552416
534,1340179,1032840,-0.071,1.008,1.119,503.9,275.9,121.3,-19.5,-15.8,22.1,0.779534288,0.0872524186,-0.618152409,-0.0503860591
535,1343461,1032850,-0.091,1.745,0.987,555.5,277.5,127.4,-19.5,-15.8,22.1,0.782280953,0.0952787866,-0.61424604,-0.040192877
536,1345659,1032850,-0.056,2.177,0.878,594.3,264,152.8,-20.4,-14,21.8,0.784630879,0.10361034,-0.610492264,-0.029053621
537,1347063,1032850,0.01,2.638,0.73,594.3,264,152.8,-20.4,-14,21.8,0.786828211,0.111880856,-0.606646931,-0.0179448836
538,1349883,1032850,0.08,3.091,0.558,579.4,247.8,170.8,-20.4,-14,21.8,0.78868984,0.119663076,-0.602954192,-0.00671407208
539,1353164,1032860,0.007,3.863,0.165,546.9,223.1,187.8,-20.4,-14,21.8,0.790154729,0.126621296,-0.599658193,0.00424207282
540,1354564,1032860,0.038,4.009,0.069,502.9,189.6,198.2,-21.3,-10.4,22.3,0.79116184,0.132663961,-0.596819971,0.0147709586
541,1357535,1032860,0.011,3.931,0.061,450,148.3,196.1,-21.3,-10.4,22.3,0.791680654,0.137821589,-0.594653157,0.0244148076
542,1360588,1032860,0.168,3.257,0.1,384.1,101.9,175.8,-21.3,-10.4,22.3,0.791711173,0.142124699,-0.593188269,0.0327463607
543,1361986,1032870,0.465,2.865,0.114,295,53.5,134.4,-21.3,-10.4,22.3,0.791375469,0.145451216,-0.592455824,0.0390636921
544,1365916,1032870,0.762,2.512,0.155,175,7.7,74.1,-21.7,-7.3,23.1,0.790856655,0.147495956,-0.592394787,0.0426343577
545,1367295,1032870,0.938,2.187,0.191,26.8,-29.7,4.7,-21.7,-7.3,23.1,0.790368358,0.147923215,-0.592913602,0.0429700613
546,1370626,1032870,1.013,1.618,0.16,-137.3,-54,-57.5,-21.7,-7.3,23.1,0.790154729,0.146366771,-0.59376812,0.0400402844
547,1372133,1032880,0.916,1.345,0.119,-301.9,-63.9,-96.1,-21.7,-7.3,23.1,0.790368358,0.142429884,-0.59480575,0.0342722861
548,1375906,1032880,0.866,1.072,0.019,-455.4,-63.7,-103.1,-21.8,-9.4,22,0.790978729,0.13595996,-0.595904416,0.0263679922
549,1377303,1032880,0.68,0.606,-0.159,-590.5,-61.8,-82.4,-21.8,-9.4,22,0.791924802,0.126865444,-0.597033601,0.0170903653
550,1380266,1032880,0.61,0.377,-0.254,-702.2,-65.3,-46.6,-21.8,-9.4,22,0.792931913,0.115329447,-0.598223823,0.00695822016
551,1382447,1032890,0.575,0.225,-0.303,-787.1,-78,-10.3,-21.8,-9.4,22,0.793786431,0.101870785,-0.599566637,-0.00366222114
552,1385732,1032890,0.513,0.038,-0.347,-842.5,-98.9,15.8,-21.6,-12.3,21,0.794213691,0.0870082705,-0.6011536,-0.0146488845
553,1388062,1032890,0.556,-0.182,-0.331,-868.3,-125.1,26.6,-21.6,-12.3,21,0.794091617,0.0715964232,-0.60298471,-0.025757622
554,1389987,1032890,0.627,-0.273,-0.325,-866.8,-152.8,22.2,-21.6,-12.3,21,0.793298135,0.0561845759,-0.605059969,-0.0370494705
555,1393883,1032900,0.681,-0.341,-0.307,-843.1,-179.3,6.8,-21.6,-12.3,21,0.791833247,0.0413525803,-0.607379376,-0.048280282
556,1396191,1032900,0.794,-0.421,-0.248,-754.9,-224,-33.6,-21.4,-15.9,20.3,0.789391766,0.0285042879,-0.610339671,-0.0590533158
557,1397692,1032900,0.872,-0.435,-0.21,-754.9,-224,-33.6,-21.4,-15.9,20.3,0.786706137,0.0156254769,-0.613116855,-0.0698263497
558,1399879,1032900,0.907,-0.467,-0.18,-702.2,-241.3,-48.4,-21.4,-15.9,20.3,0.783562731,0.00390636921,-0.616077151,-0.0801110874
559,1403196,1032910,0.97,-0.487,-0.177,-649.3,-254.6,-57,-21.4,-15.9,20.3,0.779992065,-0.00686666463,-0.619220557,-0.0898159734
560,1405676,1032910,1.087,-0.49,-0.125,-598.2,-263.1,-59.8,-20.5,-18.6,19.7,0.776146733,-0.0167241432,-0.622486038,-0.0988799707
561,1407777,1032910,1.122,-0.506,-0.122,-550.1,-266.4,-58.9,-20.5,-18.6,19.7,0.772148808,-0.025818659,-0.625782037,-0.107242042
562,1409885,1032910,1.134,-0.526,-0.083,-506,-263.9,-55.9,-20.5,-18.6,19.7,0.768059328,-0.0342112491,-0.629016999,-0.114932707
563,1413165,1032920,1.161,-0.558,-0.095,-466.7,-255.3,-52.5,-20.5,-18.6,19.7,0.764030885,-0.041932432,-0.632129887,-0.122013001
564,1415235,1032920,1.22,-0.613,-0.089,-433.4,-241.2,-50.4,-19.4,-19.4,21.1,0.760124516,-0.0491042817,-0.634998627,-0.128604999
565,1417324,1032920,1.271,-0.661,-0.114,-406.2,-223,-51.2,-19.4,-19.4,21.1,0.756401257,-0.0557573168,-0.6375927,-0.134830775
566,1420652,1032920,1.267,-0.673,-0.095,-384.8,-202.6,-55.7,-19.4,-19.4,21.1,0.752922147,-0.0619220557,-0.639820551,-0.140842921
567,1422326,1032930,1.361,-0.771,-0.172,-368.2,-181.8,-63.2,-19.4,-19.4,21.1,0.749656667,-0.0676595355,-0.641743217,-0.146794031
568,1425652,1032930,1.392,-0.826,-0.212,-356.3,-162.4,-72.3,-18.8,-22.2,18.2,0.746604816,-0.0730002747,-0.64333018,-0.152714621
569,1428110,1032930,1.447,-0.884,-0.269,-348.7,-145.1,-82,-18.8,-22.2,18.2,0.743705557,-0.0780053102,-0.644642476,-0.158726768
570,1430004,1032930,1.475,-0.923,-0.293,-345.1,-129.8,-91.4,-18.8,-22.2,18.2,0.740958892,-0.0827661977,-0.645710623,-0.16483047
571,1432336,1032940,1.53,-1.057,-0.359,-343.7,-115.7,-100.1,-18.8,-22.2,18.2,0.738303781,-0.0873134556,-0.646504105,-0.171086764
572,1434684,1032940,1.542,-1.092,-0.391,-343.2,-102.3,-107.7,-17.7,-23.5,17.7,0.735801263,-0.091708121,-0.647053438,-0.177434614
573,1437013,1032940,1.565,-1.131,-0.399,-342.7,-89.8,-113.8,-17.7,-23.5,17.7,0.733359783,-0.0959501938,-0.647358623,-0.183935057
574,1440609,1032940,1.554,-1.217,-0.424,-341.2,-78.7,-118.2,-17.7,-23.5,17.7,0.731040376,-0.100039674,-0.647480697,-0.190466018
575,1442127,1032950,1.573,-1.244,-0.456,-337.9,-69.1,-120.3,-17.7,-23.5,17.7,0.728812525,-0.104037599,-0.64741966,-0.196996979
576,1446192,1032950,1.503,-1.248,-0.427,-317.7,-53.7,-116.1,-17.3,-25.1,16.7,0.726798303,-0.107669301,-0.647144993,-0.203222755
577,1447680,1032950,1.503,-1.248,-0.427,-317.7,-53.7,-116.1,-17.3,-25.1,16.7,0.724784082,-0.111301004,-0.646839808,-0.209418012
578,1450916,1032950,1.159,-1.139,-0.298,-295.5,-46.6,-108.3,-17.3,-25.1,16.7,0.722891934,-0.11465804,-0.646473586,-0.21518601
579,1452289,1032960,1.057,-1.064,-0.249,-264.1,-40.4,-96.5,-17.3,-25.1,16.7,0.721182897,-0.117648854,-0.646107364,-0.22031312
580,1456199,1032960,1.01,-0.986,-0.223,-226.5,-37.5,-82.1,-16.6,-26.5,15.8,0.719656972,-0.120212409,-0.645802179,-0.224707785
581,1458365,1032960,0.947,-0.856,-0.158,-187.9,-39.9,-67.7,-16.6,-26.5,15.8,0.718283639,-0.122409742,-0.645680105,-0.228308969
582,1460786,1032960,0.915,-0.793,-0.133,-151.8,-47.8,-54.2,-16.6,-26.5,15.8,0.716910306,-0.124271371,-0.645832698,-0.231177709
583,1462733,1032970,0.903,-0.727,-0.116,-117.8,-59.1,-41.5,-16.6,-26.5,15.8,0.715567492,-0.125827815,-0.646259957,-0.233314005
584,1464952,1032970,0.88,-0.641,-0.08,-83.3,-70.7,-28.8,-16.5,-26,17.4,0.71416364,-0.127079073,-0.647022919,-0.234748375
585,1467245,1032970,0.875,-0.465,-0.019,-45.6,-79.7,-15.7,-16.5,-26,17.4,0.712851344,-0.12796411,-0.648091067,-0.235419782
586,1469840,1032970,0.879,-0.375,0.02,-3.9,-84.4,-2.4,-16.5,-26,17.4,0.711630604,-0.128452406,-0.649372845,-0.23526719
587,1472032,1032980,0.898,-0.313,0.036,40.6,-84,10.5,-16.5,-26,17.4,0.710592975,-0.128391369,-0.650868252,-0.234290597
588,1476366,1032980,0.867,-0.177,0.125,85.2,-78.5,22.5,-16,-27.3,15.7,0.709830012,-0.127780999,-0.652455214,-0.232520524
589,1478061,1032980,0.874,-0.118,0.141,127.6,-68.5,33,-16,-27.3,15.7,0.709372234,-0.126621296,-0.654072695,-0.229987487
590,1479561,1032980,0.917,-0.06,0.157,166.3,-55.2,41.4,-16,-27.3,15.7,0.70925016,-0.124912259,-0.655629139,-0.226783044
591,1482556,1032990,0.866,0.025,0.217,201.2,-39.6,47.1,-16,-27.3,15.7,0.70946379,-0.12265389,-0.657094028,-0.223120823
592,1485940,1032990,0.846,0.201,0.294,232,-22.6,49.8,-16,-26.4,16.3,0.709982604,-0.119907224,-0.658436842,-0.218939787
593,1487366,1032990,0.854,0.267,0.318,258.1,-5.6,49.4,-16,-26.4,16.3,0.710806604,-0.116641743,-0.659627064,-0.214453566
594,1490660,1032990,0.873,0.322,0.319,277.8,9.7,46.2,-16,-26.4,16.3,0.711844234,-0.112949004,-0.660634175,-0.209753716
595,1492737,1033000,0.838,0.463,0.356,290.4,22.2,41,-16,-26.4,16.3,0.713064974,-0.10892056,-0.661519211,-0.204992828
596,1495033,1033000,0.802,0.514,0.373,300.6,37.9,26.9,-16.1,-24.9,17.6,0.714438307,-0.104464858,-0.662190619,-0.200323496
597,1499086,1033000,0.83,0.566,0.33,300.6,37.9,26.9,-16.1,-24.9,17.6,0.715781121,-0.100009156,-0.662831507,-0.195623646
598,1501260,1033000,0.818,0.675,0.347,302,40.8,19.5,-16.1,-24.9,17.6,0.717093417,-0.0954008606,-0.663441877,-0.191045869
599,1503476,1033010,0.779,0.88,0.327,302.8,41.1,12.2,-16.1,-24.9,17.6,0.718344676,-0.0906704917,-0.664021729,-0.186559648
600,1506006,1033010,0.767,0.998,0.352,302.3,39.5,5.5,-16.7,-23.8,18.2,0.719534898,-0.0858485672,-0.664601581,-0.182164983
601,1508282,1033010,0.724,1.139,0.366,298.9,37.4,0.3,-16.7,-23.8,18.2,0.720603046,-0.0809961241,-0.665181433,-0.177892392
602,1510239,1033010,0.654,1.114,0.25,289.7,36,-2.2,-16.7,-23.8,18.2,0.721640675,-0.0762657552,-0.665730766,-0.173772393
603,1514081,1033020,0.607,1.189,0.259,273.2,35.9,-2,-16.7,-23.8,18.2,0.722586749,-0.0718100528,-0.666188543,-0.169896542
604,1516067,1033020,0.572,1.241,0.257,250.7,37.3,-0.9,-16.8,-21.8,21.5,0.723502304,-0.067690054,-0.666524247,-0.166325877
605,1518308,1033020,0.56,1.268,0.269,225.3,39.7,-1.6,-16.8,-21.8,21.5,0.724387341,-0.0639667959,-0.666707358,-0.163121433
606,1521132,1033020,0.497,1.304,0.318,199.5,42.4,-6.1,-16.8,-21.8,21.5,0.725272378,-0.0605792413,-0.666737877,-0.160374767
607,1523150,1033030,0.486,1.257,0.302,172.7,44.5,-14.2,-16.8,-21.8,21.5,0.726096377,-0.0574663533,-0.666646321,-0.158146916
608,1524936,1033030,0.466,1.226,0.317,143.4,44.8,-24.3,-17,-23,19.4,0.726828822,-0.054689169,-0.66646321,-0.156468398
609,1528098,1033030,0.399,1.222,0.346,110.6,42.6,-34.8,-17,-23,19.4,0.72746971,-0.0522782067,-0.666219062,-0.155491806
610,1530796,1033030,0.498,1.081,0.268,74.4,37,-44,-17,-23,19.4,0.727927488,-0.0503250221,-0.665913877,-0.155156102
611,1532300,1033040,0.639,0.927,0.177,34.3,27,-50.9,-17,-23,19.4,0.728202155,-0.0489516892,-0.665669729,-0.155491806
612,1535178,1033040,0.733,0.793,0.135,-7.8,13,-55,-16.7,-22.8,19.3,0.728202155,-0.0482497635,-0.665486618,-0.156468398
613,1537408,1033040,0.827,0.585,0.092,-48.1,-2.4,-57,-16.7,-22.8,19.3,0.72789697,-0.0481887265,-0.665425581,-0.158085879
614,1540575,1033040,0.858,0.51,0.086,-80.4,-15.2,-58.3,-16.7,-22.8,19.3,0.727408673,-0.0486770226,-0.665456099,-0.160191656
615,1541936,1033050,0.894,0.454,0.089,-101,-21.8,-60,-16.7,-22.8,19.3,0.726767785,-0.0494705039,-0.665486618,-0.1625721
616,1545156,1033050,0.96,0.371,0.098,-113.6,-18.2,-63.7,-16.6,-23.5,19.3,0.726157414,-0.0504165777,-0.665456099,-0.16522721
617,1548081,1033050,0.999,0.339,0.093,-113.7,-13.8,-64.6,-16.6,-23.5,19.3,0.725577563,-0.0513016144,-0.665334025,-0.167882321
618,1550879,1033050,1.03,0.311,0.1,-114.3,-11,-63.7,-16.6,-23.5,19.3,0.725058748,-0.0522476882,-0.665150914,-0.170537431
619,1552315,1033060,1.058,0.291,0.1,-116.7,-11.1,-60.7,-16.6,-23.5,19.3,0.724539933,-0.053254799,-0.664967803,-0.173162023
620,1555621,1033060,1.112,0.255,0.11,-121.2,-13.8,-55.7,-16.5,-23.7,18.8,0.7239906,-0.0544145024,-0.664784692,-0.175786615
621,1557095,1033060,1.136,0.243,0.113,-127.2,-18.8,-49.4,-16.5,-23.7,18.8,0.723349712,-0.0557878353,-0.664662618,-0.178380688
622,1560078,1033060,1.132,0.239,0.129,-134.3,-25.2,-42.7,-16.5,-23.7,18.8,0.722647786,-0.0573747978,-0.664571062,-0.180974761
623,1562231,1033070,1.163,0.231,0.128,-142.2,-32.3,-36.5,-16.5,-23.7,18.8,0.721854305,-0.0592364269,-0.664571062,-0.183568834
624,1565612,1033070,1.198,0.222,0.159,-150.8,-39.7,-32,-16.5,-23.8,20.2,0.720969268,-0.0613116855,-0.664632099,-0.186223945
625,1567059,1033070,1.225,0.218,0.166,-159.9,-47.1,-29.2,-16.5,-23.8,20.2,0.719931639,-0.0635700552,-0.664754173,-0.188940092
626,1569764,1033070,1.245,0.213,0.178,-169.1,-54,-27.9,-16.5,-23.8,20.2,0.718802454,-0.066011536,-0.664937284,-0.191747795
627,1572932,1033080,1.257,0.189,0.197,-178,-60.2,-27.5,-16.5,-23.8,20.2,0.717551195,-0.0686971648,-0.665181433,-0.194677572
628,1575028,1033080,1.26,0.178,0.204,-186.3,-65.3,-27.8,-15.8,-24.9,18.4,0.71620838,-0.0714743492,-0.665425581,-0.197729423
629,1578119,1033080,1.249,0.17,0.212,-193.9,-69.5,-28.1,-15.8,-24.9,18.4,0.714743492,-0.0744041261,-0.665730766,-0.200872829
630,1579656,1033080,1.233,0.162,0.208,-201.1,-73.1,-28.7,-15.8,-24.9,18.4,0.713217566,-0.0774559771,-0.666035951,-0.204107791
631,1582480,1033090,1.194,0.151,0.189,-207.8,-76.9,-29.7,-15.8,-24.9,18.4,0.711630604,-0.0805993835,-0.666341136,-0.207464827
632,1585732,1033090,1.151,0.144,0.182,-214.4,-80.9,-31.4,-15.8,-25.1,17.8,0.709921567,-0.0838343455,-0.66667684,-0.210913419
633,1587883,1033090,1.14,0.148,0.159,-220.4,-85.6,-34.1,-15.8,-25.1,17.8,0.708090457,-0.0871303446,-0.667043062,-0.214514603
634,1590877,1033090,1.124,0.13,0.112,-225.7,-90.9,-37.9,-15.8,-25.1,17.8,0.706167791,-0.0904873806,-0.667439802,-0.218207343
635,1592237,1033100,1.167,0.122,0.056,-229.6,-96.6,-42.8,-15.8,-25.1,17.8,0.704092532,-0.0938444166,-0.667928098,-0.222022156
636,1595346,1033100,1.195,0.111,0.005,-231.1,-101.8,-47.5,-15,-26.1,17.6,0.701895199,-0.0972319712,-0.668446913,-0.225898007
637,1598322,1033100,1.195,0.111,0.005,-229.1,-105.3,-50.6,-15,-26.1,17.6,0.699606311,-0.100497452,-0.669026765,-0.229773858
638,1599704,1033100,1.183,0.096,-0.029,-222.8,-105.7,-51.1,-15,-26.1,17.6,0.697286905,-0.103701895,-0.669637135,-0.233588672
639,1602727,1033110,1.187,0.084,-0.045,-212.9,-102.8,-49.1,-15,-26.1,17.6,0.695059053,-0.106723228,-0.670216987,-0.237220374
640,1605835,1033110,1.199,0.08,-0.065,-200.5,-97,-45.9,-14.7,-27.3,16.8,0.692922758,-0.109591968,-0.670735801,-0.240607929
641,1608983,1033110,1.188,0.084,-0.08,-186.5,-88.9,-42.5,-14.7,-27.3,16.8,0.690939055,-0.112277596,-0.671193579,-0.243751335
642,1611131,1033110,1.188,0.081,-0.096,-171.6,-79.2,-39.8,-14.7,-27.3,16.8,0.689138462,-0.114688559,-0.67159032,-0.246681112
643,1613208,1033120,1.199,0.085,-0.1,-156.3,-68.4,-38,-14.7,-27.3,16.8,0.6875515,-0.116855373,-0.671864986,-0.249366741
644,1614738,1033120,1.192,0.085,-0.104,-140.5,-56.6,-36.9,-14.7,-27.8,17.5,0.686147649,-0.118717002,-0.672048097,-0.25183874
645,1617690,1033120,1.188,0.112,-0.1,-124.3,-44.5,-36.1,-14.7,-27.8,17.5,0.684957427,-0.120303964,-0.672109134,-0.25409711
646,1620767,1033120,1.164,0.128,-0.087,-108,-32.2,-35.1,-14.7,-27.8,17.5,0.684011353,-0.121585742,-0.672078616,-0.256111332
647,1622103,1033130,1.086,0.152,-0.062,-92.3,-20.3,-33.7,-14.7,-27.8,17.5,0.683278909,-0.122562334,-0.671956542,-0.257911924
648,1625058,1033130,0.996,0.204,-0.048,-78.5,-10.3,-32,-13.8,-28.5,15.8,0.682729575,-0.123325297,-0.671742912,-0.259529405
649,1628198,1033130,1.004,0.232,-0.056,-67.7,-3.3,-30.6,-13.8,-28.5,15.8,0.682332835,-0.123905148,-0.671498764,-0.260963775
650,1629583,1033130,0.996,0.244,-0.059,-60.4,-0.3,-30,-13.8,-28.5,15.8,0.681997131,-0.124362926,-0.671254616,-0.26227607
651,1632796,1033140,0.969,0.26,-0.07,-56.5,-0.3,-29.8,-13.8,-28.5,15.8,0.681661428,-0.124790185,-0.671010468,-0.263557848
652,1635637,1033140,0.937,0.296,-0.081,-54.9,-1.6,-29.7,-13.8,-28.4,15.6,0.681325724,-0.125186926,-0.670796838,-0.264809107
653,1637043,1033140,0.93,0.304,-0.097,-55.4,-2.7,-29.5,-13.8,-28.4,15.6,0.680959502,-0.125583666,-0.670583209,-0.266029847
654,1639799,1033140,0.922,0.312,-0.108,-58,-3.2,-29,-13.8,-28.4,15.6,0.68059328,-0.126041444,-0.670369579,-0.267311625
655,1643131,1033150,0.91,0.308,-0.12,-62.7,-3.2,-28.5,-13.8,-28.4,15.6,0.680196539,-0.126560259,-0.670125431,-0.268654439
656,1644683,1033150,0.91,0.293,-0.12,-68.9,-3.1,-28.2,-13.4,-28.8,15.6,0.679555651,-0.126895962,-0.670064394,-0.270302438
657,1648937,1033150,0.91,0.293,-0.12,-75.7,-3,-28.4,-13.4,-28.8,15.6,0.679128391,-0.127628407,-0.669759209,-0.271828364
658,1651030,1033150,0.91,0.281,-0.112,-82.4,-3.2,-29.2,-13.4,-28.8,15.6,0.678670614,-0.128452406,-0.669392987,-0.273445845
659,1653355,1033160,0.914,0.245,-0.101,-88.1,-3.8,-31.1,-13.4,-28.8,15.6,0.678182318,-0.129306925,-0.668996246,-0.2751854
660,1655336,1033160,0.918,0.225,-0.097,-92.5,-4.5,-33.4,-13.5,-29.2,14.9,0.677663503,-0.13022248,-0.668599506,-0.277016511
661,1657323,1033160,0.926,0.209,-0.09,-95.6,-5,-35.9,-13.5,-29.2,14.9,0.677083651,-0.131138035,-0.668202765,-0.278939177
662,1661784,1033160,0.937,0.186,-0.079,-97.4,-5.3,-38.1,-13.5,-29.2,14.9,0.6765038,-0.132053591,-0.667806024,-0.280892361
663,1662258,1033170,0.949,0.17,-0.067,-98.5,-5.4,-40,-13.5,-29.2,14.9,0.675893429,-0.132969146,-0.667378765,-0.282906583
664,1664626,1033170,0.965,0.162,-0.064,-99,-5.5,-41.2,-13.4,-29.6,15.6,0.675252541,-0.133854183,-0.666982025,-0.284951323
665,1668533,1033170,0.984,0.15,-0.064,-99.2,-5.8,-42,-13.4,-29.6,15.6,0.674611652,-0.134739219,-0.666554765,-0.286996063
666,1670928,1033170,1.02,0.126,-0.069,-99.2,-6.3,-42.4,-13.4,-29.6,15.6,0.673970763,-0.135624256,-0.666158025,-0.289040803
667,1672731,1033180,1.035,0.121,-0.065,-99.4,-6.8,-42.7,-13.4,-29.6,15.6,0.673299356,-0.136509293,-0.665761284,-0.291085543
668,1676225,1033180,1.051,0.11,-0.07,-99.9,-7.2,-43,-13,-29.8,14.9,0.672627949,-0.13739433,-0.665364544,-0.293160802
669,1679070,1033180,1.07,0.106,-0.078,-100.4,-7.5,-43.2,-13,-29.8,14.9,0.671926023,-0.138279366,-0.664937284,-0.295236061
670,1681306,1033180,1.098,0.093,-0.067,-101,-7.8,-42.8,-13,-29.8,14.9,0.671254616,-0.139194922,-0.664540544,-0.297280801
671,1683647,1033190,1.109,0.081,-0.071,-101.5,-8.2,-41.7,-13,-29.8,14.9,0.67055269,-0.140140996,-0.664143803,-0.299356059
672,1685792,1033190,1.117,0.077,-0.06,-101.5,-8.8,-39.6,-12.9,-30.5,14,0.669850764,-0.141087069,-0.663716544,-0.301370281
673,1687497,1033190,1.137,0.089,-0.048,-100.9,-9.8,-36.9,-12.9,-30.5,14,0.669148839,-0.14209418,-0.663319803,-0.303353984
674,1689902,1033190,1.144,0.088,-0.04,-99.7,-11.3,-33.7,-12.9,-30.5,14,0.668446913,-0.143162328,-0.662923063,-0.305246132
675,1692468,1033200,1.152,0.1,-0.036,-97.7,-13.3,-30.4,-12.9,-30.5,14,0.667744987,-0.144230476,-0.662556841,-0.307046724
676,1695135,1033200,1.152,0.135,-0.032,-95.1,-15.5,-27,-12.7,-30.5,13.5,0.667043062,-0.145329142,-0.662221137,-0.308786279
677,1697376,1033200,1.156,0.155,-0.02,-91.8,-17.7,-24,-12.7,-30.5,13.5,0.666341136,-0.146427808,-0.661946471,-0.31040376
678,1700036,1033200,1.16,0.174,-0.016,-88,-19.9,-21.3,-12.7,-30.5,13.5,0.665608692,-0.147526475,-0.661702322,-0.311929685
679,1702639,1033210,1.156,0.194,-0.016,-83.9,-21.9,-19,-12.7,-30.5,13.5,0.664906766,-0.148625141,-0.661519211,-0.313333537
680,1704785,1033210,1.148,0.237,-0.007,-79.6,-23.8,-17,-12.8,-31.1,13.1,0.664174322,-0.149693289,-0.661366619,-0.314645833
681,1707419,1033210,1.148,0.257,-0.011,-75.2,-25.4,-15.4,-12.8,-31.1,13.1,0.663441877,-0.150730918,-0.661275063,-0.315866573
682,1711071,1033210,1.144,0.28,-0.007,-70.9,-26.7,-14.4,-12.8,-31.1,13.1,0.662739952,-0.151738029,-0.661214026,-0.317026276
683,1713285,1033220,1.144,0.304,-0.014,-66.4,-27.5,-14,-12.8,-31.1,13.1,0.662007508,-0.152684103,-0.661183508,-0.318094424
684,1715438,1033220,1.124,0.347,-0.006,-61.9,-27.9,-14.2,-12.8,-31.5,13.6,0.661305582,-0.153538621,-0.661214026,-0.319101535
685,1717559,1033220,1.109,0.363,-0.009,-57.5,-27.8,-15,-12.8,-31.5,13.6,0.660603656,-0.154393139,-0.661275063,-0.320047609
686,1719821,1033220,1.097,0.387,-0.009,-53.5,-27,-16.4,-12.8,-31.5,13.6,0.659932249,-0.155125584,-0.6613361,-0.320963164
687,1723266,1033230,1.066,0.419,-0.015,-50.3,-25.7,-18.2,-12.8,-31.5,13.6,0.659260842,-0.155766472,-0.661427656,-0.321878719
688,1725405,1033230,1.054,0.438,-0.015,-48.1,-24.1,-20.4,-11.9,-31.3,12.8,0.658589434,-0.156315806,-0.661488693,-0.322794275
689,1727507,1033230,1.046,0.45,-0.023,-46.8,-22.1,-22.7,-11.9,-31.3,12.8,0.657948546,-0.15683462,-0.66154973,-0.32370983
690,1729815,1033230,1.031,0.458,-0.022,-46.5,-19.6,-25.4,-11.9,-31.3,12.8,0.657338176,-0.157261879,-0.661610767,-0.324686422
691,1732406,1033240,1.011,0.474,-0.022,-47.1,-16.8,-28.4,-11.9,-31.3,12.8,0.656727805,-0.15765862,-0.661610767,-0.325693533
692,1734874,1033240,1.003,0.482,-0.021,-48.5,-13.7,-31.5,-11.8,-32,12.9,0.656147954,-0.157994324,-0.661580248,-0.326822718
693,1737228,1033240,0.996,0.478,-0.021,-50.5,-10.7,-34.5,-11.8,-32,12.9,0.655568102,-0.158299509,-0.661488693,-0.32801294
694,1741814,1033240,0.984,0.463,-0.017,-53.2,-8.2,-37.2,-11.8,-32,12.9,0.65498825,-0.158574175,-0.6613361,-0.329264199
695,1742165,1033250,0.98,0.451,-0.025,-56.8,-6.4,-39.6,-11.8,-32,12.9,0.654408399,-0.158848842,-0.661122471,-0.330637532
696,1744706,1033250,0.984,0.4,-0.038,-61.5,-5.6,-41.6,-12,-31.9,12.6,0.653248695,-0.158513138,-0.661427656,-0.332590716
697,1749263,1033250,0.984,0.4,-0.038,-67.2,-5.6,-43.4,-12,-31.9,12.6,0.652607807,-0.15887936,-0.661183508,-0.33414716
698,1749679,1033250,0.996,0.353,-0.038,-73.2,-6.2,-45,-12,-31.9,12.6,0.651936399,-0.159337138,-0.660878323,-0.335825678
699,1752057,1033260,0.996,0.333,-0.019,-78.8,-7,-46.6,-12,-31.9,12.6,0.651203955,-0.159825434,-0.660573138,-0.337595752
700,1756608,1033260,1,0.321,-0.019,-83.4,-7.7,-48.5,-11.8,-32.4,12.1,0.650440992,-0.160374767,-0.660237434,-0.339457381
701,1758868,1033260,1.015,0.278,-0.016,-87.4,-8.1,-50.5,-11.8,-32.4,12.1,0.649647511,-0.160954619,-0.659871212,-0.341410566
702,1761079,1033260,1.023,0.258,-0.013,-91.6,-8.2,-52.4,-11.8,-32.4,12.1,0.648823511,-0.161564989,-0.659474471,-0.343455306
703,1763327,1033270,1.035,0.25,-0.009,-96,-8.5,-54.1,-11.8,-32.4,12.1,0.647938475,-0.162205878,-0.659077731,-0.345561083
704,1765903,1033270,1.039,0.227,-0.009,-100.5,-8.6,-55.3,-11.6,-32.6,12,0.647053438,-0.162877285,-0.658650472,-0.347758415
705,1767576,1033270,1.043,0.187,-0.006,-104.7,-8.8,-55.9,-11.6,-32.6,12,0.646107364,-0.163640248,-0.658162175,-0.350016785
706,1769879,1033270,1.043,0.167,0.004,-108.3,-8.9,-55.7,-11.6,-32.6,12,0.645191809,-0.164433729,-0.657643361,-0.352336192
707,1772496,1033280,1.043,0.156,0.004,-111.1,-9.1,-55.1,-11.6,-32.6,12,0.644215217,-0.165257729,-0.657124546,-0.354686117
708,1776395,1033280,1.039,0.12,0.016,-113.2,-9.5,-54.1,-11.5,-33.2,11.2,0.643269143,-0.166142766,-0.656575213,-0.357036042
709,1778538,1033280,1.043,0.104,0.023,-114.6,-10.1,-52.9,-11.5,-33.2,11.2,0.64229255,-0.167088839,-0.65602588,-0.359355449
710,1780774,1033280,1.035,0.097,0.019,-115.4,-11,-51.7,-11.5,-33.2,11.2,0.64128544,-0.168034913,-0.655446028,-0.361705374
711,1782700,1033290,1.027,0.077,0.027,-115.9,-12.3,-50.4,-11.5,-33.2,11.2,0.640278329,-0.169042024,-0.654896695,-0.364024781
712,1784951,1033290,1.011,0.077,0.043,-115.8,-13.6,-48.9,-11.2,-33.6,10.6,0.639271218,-0.170079653,-0.654347362,-0.366313669
713,1788036,1033290,1.003,0.073,0.051,-115.2,-14.9,-47,-11.2,-33.6,10.6,0.638264107,-0.171117283,-0.653798029,-0.36854152
714,1791116,1033290,0.988,0.081,0.055,-114,-16.2,-44.8,-11.2,-33.6,10.6,0.637226478,-0.172215949,-0.653279214,-0.370738853
715,1793323,1033300,0.96,0.093,0.056,-112.5,-17.5,-42.1,-11.2,-33.6,10.6,0.636219367,-0.173314615,-0.652760399,-0.372875149
716,1795608,1033300,0.941,0.121,0.053,-110.7,-19,-39.1,-11.2,-33.5,10.5,0.635395367,-0.175023652,-0.652241585,-0.374401074
717,1796945,1033300,0.941,0.121,0.053,-108.7,-20.7,-35.8,-11.2,-33.5,10.5,0.634388256,-0.176213874,-0.651783807,-0.376354259
718,1799850,1033300,0.937,0.133,0.049,-106.6,-22.5,-32.3,-11.2,-33.5,10.5,0.633381146,-0.177404096,-0.651326029,-0.378246406
719,1803029,1033310,0.917,0.164,0.042,-104.4,-23.9,-28.9,-11.2,-33.5,10.5,0.632404553,-0.178624836,-0.65089877,-0.38001648
720,1806088,1033310,0.914,0.18,0.034,-102.2,-24.8,-25.8,-10.5,-34.3,10.1,0.631427961,-0.179876095,-0.650502029,-0.381725517
721,1808383,1033310,0.91,0.192,0.035,-100.1,-24.8,-23.4,-10.5,-34.3,10.1,0.630481887,-0.181127354,-0.650105289,-0.383373516
722,1810590,1033310,0.906,0.212,0.035,-98.1,-24.2,-21.7,-10.5,-34.3,10.1,0.629566332,-0.182378613,-0.649708548,-0.384990997
723,1812826,1033320,0.898,0.228,0.023,-96.1,-23,-20.8,-10.5,-34.3,10.1,0.628681295,-0.183599353,-0.649281289,-0.386547441
724,1814928,1033320,0.894,0.236,0.02,-94.4,-21.7,-20.4,-10.3,-34.2,9.3,0.627826777,-0.184789575,-0.648884548,-0.388073366
725,1818067,1033320,0.886,0.248,0.016,-92.8,-20.4,-20.6,-10.3,-34.2,9.3,0.627002777,-0.185949278,-0.648457289,-0.389568773
726,1821067,1033320,0.886,0.263,0.008,-91.6,-19.3,-21.2,-10.3,-34.2,9.3,0.626148259,-0.187047945,-0.64803003,-0.391094699
727,1824054,1033330,0.886,0.264,0.004,-90.6,-18.5,-21.8,-10.3,-34.2,9.3,0.625354778,-0.188146611,-0.647572253,-0.392590106
728,1825547,1033330,0.886,0.271,0.008,-89.9,-17.7,-22.5,-10.4,-34.9,8.9,0.624530778,-0.189214759,-0.647144993,-0.394085513
729,1826981,1033330,0.89,0.271,0.001,-89.4,-17,-23.3,-10.4,-34.9,8.9,0.623706778,-0.190252388,-0.646717734,-0.395611438
730,1831532,1033330,0.89,0.271,-0.006,-89.2,-16.1,-24.2,-10.4,-34.9,8.9,0.622913297,-0.191259499,-0.646259957,-0.397137364
731,1833166,1033340,0.898,0.267,-0.006,-89.3,-15.2,-25.2,-10.4,-34.9,8.9,0.622058779,-0.192236091,-0.645802179,-0.398663289
732,1835203,1033340,0.902,0.271,0,-89.5,-14.1,-26.2,-10,-34.9,8.8,0.621295816,-0.193212683,-0.645313883,-0.400219733
733,1839080,1033340,0.906,0.259,0,-89.7,-13.1,-27.5,-10,-34.9,8.8,0.620502335,-0.194158757,-0.644825587,-0.401806696
734,1841464,1033340,0.918,0.259,0,-89.9,-12.2,-28.9,-10,-34.9,8.8,0.619678335,-0.195074313,-0.644306772,-0.403424177
735,1843613,1033350,0.925,0.259,0.004,-90.2,-11.3,-29.9,-10,-34.9,8.8,0.618884854,-0.195959349,-0.643818476,-0.405041658
736,1845853,1033350,0.933,0.243,0.007,-90.3,-10.6,-30.6,-9.9,-35.2,8.4,0.617786187,-0.19696646,-0.643635365,-0.406476028
737,1848153,1033350,0.941,0.235,0,-90.2,-10,-31.2,-9.9,-35.2,8.4,0.616962188,-0.197820978,-0.643086032,-0.408124027
738,1850194,1033350,0.945,0.231,0.003,-90,-9.3,-31.7,-9.9,-35.2,8.4,0.616168706,-0.198675497,-0.642567217,-0.409772027
739,1852423,1033360,0.957,0.227,0,-89.5,-8.5,-32.3,-9.9,-35.2,8.4,0.615375225,-0.199499496,-0.642017884,-0.411450545
740,1855604,1033360,0.972,0.208,0.002,-89.1,-7.6,-32.9,-9.5,-35.6,7.7,0.614581744,-0.200292978,-0.641468551,-0.413098544
741,1857663,1033360,0.984,0.203,0.002,-88.7,-6.8,-33.4,-9.5,-35.6,7.7,0.613788263,-0.201086459,-0.640888699,-0.414746544
742,1859924,1033360,0.996,0.196,0.002,-88.4,-6.1,-33.8,-9.5,-35.6,7.7,0.6130253,-0.201849422,-0.640308847,-0.416425062
743,1863082,1033370,1,0.18,0.005,-88.2,-5.3,-34.3,-9.5,-35.6,7.7,0.612231819,-0.202612384,-0.639728996,-0.418073061
744,1864600,1033370,1.019,0.164,0.001,-88.1,-4.4,-34.7,-9.7,-35.7,6.5,0.611468856,-0.203344829,-0.639149144,-0.419751579
745,1867380,1033370,1.031,0.16,0.005,-87.8,-3.3,-35.1,-9.7,-35.7,6.5,0.610705893,-0.204046754,-0.638538774,-0.421430097
746,1870589,1033370,1.031,0.148,0.001,-87.2,-2.3,-35.5,-9.7,-35.7,6.5,0.60994293,-0.204718162,-0.637928404,-0.423108615
747,1873494,1033380,1.043,0.14,0.004,-86.3,-1.3,-35.9,-9.7,-35.7,6.5,0.609210486,-0.205389569,-0.637318033,-0.424787133
748,1875896,1033380,1.047,0.136,0.004,-85.4,-0.3,-36.2,-9.2,-35.4,7,0.608478042,-0.206030457,-0.636677145,-0.426465651
749,1878101,1033380,1.05,0.132,0.004,-84.5,0.5,-36.2,-9.2,-35.4,7,0.607776116,-0.206640828,-0.636066774,-0.428113651
750,1881071,1033380,1.047,0.124,0.008,-83.7,1.2,-35.9,-9.2,-35.4,7,0.60707419,-0.207251198,-0.635425886,-0.42976165
751,1882488,1033390,1.054,0.124,0.012,-82.7,1.6,-35.4,-9.2,-35.4,7,0.606402783,-0.20783105,-0.634784997,-0.431379131
752,1885519,1033390,1.058,0.12,0.011,-81.5,1.8,-34.7,-9,-36.2,6.6,0.605731376,-0.208410901,-0.634144108,-0.432966094
753,1888610,1033390,1.054,0.116,0.011,-79.9,1.8,-34,-9,-36.2,6.6,0.605059969,-0.208990753,-0.63350322,-0.434553056
754,1890021,1033390,1.05,0.12,0.008,-78.2,1.7,-33,-9,-36.2,6.6,0.60441908,-0.209540086,-0.63289285,-0.436078982
755,1893208,1033400,1.05,0.124,0.012,-76.1,1.5,-32.2,-9,-36.2,6.6,0.603778191,-0.210089419,-0.632312998,-0.43754387
756,1895312,1033400,1.039,0.132,0.02,-73.7,1.4,-31.1,-8.9,-36.3,5.8,0.603228858,-0.21109653,-0.631824702,-0.438520463
757,1897515,1033400,1.039,0.132,0.02,-71.2,1.3,-30.2,-8.9,-36.3,5.8,0.602618488,-0.211615345,-0.63124485,-0.439924314
758,1900824,1033400,1.039,0.14,0.02,-68.5,1,-29.1,-8.9,-36.3,5.8,0.602038636,-0.212103641,-0.630726035,-0.44123661
759,1903012,1033410,1.035,0.152,0.016,-65.7,0.7,-28.2,-8.9,-36.3,5.8,0.601489303,-0.212561419,-0.630207221,-0.442518387
760,1905784,1033410,1.031,0.156,0.016,-62.9,0.4,-27,-9.1,-36.6,5.6,0.60093997,-0.213019196,-0.629718925,-0.443739128
761,1907292,1033410,1.031,0.171,0.02,-60.2,0.1,-26,-9.1,-36.6,5.6,0.600390637,-0.213446455,-0.629261147,-0.44492935
762,1910559,1033410,1.027,0.179,0.017,-57.6,0,-24.7,-9.1,-36.6,5.6,0.599902341,-0.213873714,-0.628803369,-0.446028016
763,1912666,1033420,1.023,0.183,0.021,-55.3,0,-23.5,-9.1,-36.6,5.6,0.599414045,-0.214270455,-0.62837611,-0.447096164
764,1914866,1033420,1.023,0.191,0.021,-53.3,0.1,-22.3,-8.4,-36.3,4.4,0.598925748,-0.214667196,-0.627948851,-0.448133793
765,1917230,1033420,1.023,0.203,0.021,-51.7,0,-21.1,-8.4,-36.3,4.4,0.598498489,-0.215033418,-0.62755211,-0.449110385
766,1920704,1033420,1.019,0.211,0.025,-50.3,0,-20.1,-8.4,-36.3,4.4,0.598040712,-0.215430158,-0.62715537,-0.450056459
767,1922755,1033430,1.019,0.214,0.033,-49.3,0,-19.3,-8.4,-36.3,4.4,0.597613453,-0.215796381,-0.626758629,-0.451002533
768,1924941,1033430,1.019,0.218,0.029,-48.5,0.1,-18.7,-8.8,-36.6,5.2,0.597216712,-0.216193121,-0.626361888,-0.45188757
769,1927229,1033430,1.015,0.218,0.033,-48.2,0.6,-18.2,-8.8,-36.6,5.2,0.596819971,-0.216559343,-0.625965148,-0.452803125
770,1930128,1033430,1.015,0.222,0.037,-48,1.2,-18,-8.8,-36.6,5.2,0.596423231,-0.216925565,-0.625568407,-0.453688162
771,1933306,1033440,1.011,0.226,0.041,-47.9,1.8,-17.9,-8.8,-36.6,5.2,0.596057009,-0.217291787,-0.625141148,-0.454603717
772,1934841,1033440,1.015,0.226,0.037,-47.6,2.3,-17.8,-8.1,-36.6,5,0.595690786,-0.217627491,-0.624713889,-0.455488754
773,1937894,1033440,1.011,0.226,0.041,-47.1,2.6,-17.9,-8.1,-36.6,5,0.595324564,-0.217963195,-0.624317148,-0.456373791
774,1940763,1033440,1.011,0.226,0.045,-46.5,2.7,-17.9,-8.1,-36.6,5,0.594958342,-0.218298898,-0.623889889,-0.457258827
775,1942300,1033450,1.015,0.23,0.045,-45.5,2.6,-18,-8.1,-36.6,5,0.59459212,-0.218634602,-0.623493149,-0.458113346
776,1945590,1033450,1.007,0.226,0.061,-44.2,2.5,-18,-7.8,-36.7,4.8,0.594134342,-0.220068972,-0.623584704,-0.457869198
777,1947621,1033450,1.007,0.226,0.061,-42.7,2.6,-17.9,-7.8,-36.7,4.8,0.593798639,-0.220343638,-0.623187963,-0.458723716
778,1950669,1033450,1.007,0.23,0.057,-41.3,2.9,-17.8,-7.8,-36.7,4.8,0.593462935,-0.220618305,-0.622821741,-0.459517197
779,1952325,1033460,1.003,0.23,0.057,-39.9,3.2,-17.3,-7.8,-36.7,4.8,0.593127232,-0.220862453,-0.622486038,-0.460310678
780,1956141,1033460,0.999,0.238,0.069,-38.5,3.5,-16.9,-8.1,-36.9,4.8,0.592822047,-0.221106601,-0.622119816,-0.461073641
781,1958337,1033460,1.003,0.234,0.065,-37,3.7,-16.3,-8.1,-36.9,4.8,0.59254738,-0.221320231,-0.621784112,-0.461806085
782,1960648,1033460,1.003,0.234,0.061,-35.6,4,-15.8,-8.1,-36.9,4.8,0.592272713,-0.221503342,-0.621448408,-0.462508011
783,1962695,1033470,0.999,0.238,0.069,-34.3,4.3,-15.3,-8.1,-36.9,4.8,0.591998047,-0.221716971,-0.621112705,-0.463179418
784,1965695,1033470,0.995,0.234,0.065,-33.3,4.6,-14.7,-8.1,-36.8,2.4,0.591753899,-0.221900082,-0.620777001,-0.463850826
785,1967124,1033470,0.991,0.238,0.069,-32,4.9,-14.3,-8.1,-36.8,2.4,0.591509751,-0.222052675,-0.620471816,-0.464491714
786,1970090,1033470,0.984,0.242,0.073,-30.5,5.4,-13.9,-8.1,-36.8,2.4,0.591296121,-0.222205267,-0.620166631,-0.465102084
787,1973347,1033480,0.988,0.246,0.069,-28.8,6,-13.3,-8.1,-36.8,2.4,0.59111301,-0.22235786,-0.619861446,-0.465712455
788,1974802,1033480,0.984,0.246,0.065,-27.2,6.4,-12.7,-7.9,-37.5,3.8,0.590929899,-0.222449416,-0.619556261,-0.466261788
789,1978607,1033480,0.988,0.246,0.065,-25.9,6.8,-12.2,-7.9,-37.5,3.8,0.590777306,-0.22257149,-0.619251076,-0.466811121
790,1979990,1033480,0.98,0.25,0.065,-24.8,7.1,-11.9,-7.9,-37.5,3.8,0.590624714,-0.222632527,-0.618976409,-0.467329936
791,1983079,1033490,0.98,0.25,0.065,-24,7.4,-11.9,-7.9,-37.5,3.8,0.59050264,-0.222724082,-0.618671224,-0.46784875
792,1986301,1033490,0.976,0.25,0.065,-23.2,7.7,-11.8,-8,-37,3.9,0.590350047,-0.222785119,-0.618396558,-0.468367565
793,1988394,1033490,0.976,0.246,0.069,-22.6,8,-11.9,-8,-37,3.9,0.590227973,-0.222815638,-0.618121891,-0.468855861
794,1989815,1033490,0.976,0.242,0.073,-22,8.3,-11.9,-8,-37,3.9,0.590136418,-0.222876675,-0.617847224,-0.469344157
795,1992986,1033500,0.972,0.242,0.081,-21.5,8.5,-12,-8,-37,3.9,0.590014344,-0.222876675,-0.617572558,-0.469832453
796,1994557,1033500,0.968,0.238,0.077,-21,8.6,-11.9,-7.6,-37,4,0.589861751,-0.223609119,-0.617572558,-0.469649342
797,1997487,1033500,0.968,0.242,0.081,-20.6,8.6,-11.8,-7.6,-37,4,0.589770196,-0.223639637,-0.61732841,-0.470137638
798,2000726,1033500,0.968,0.234,0.081,-20.1,8.4,-11.5,-7.6,-37,4,0.58967864,-0.223639637,-0.617053743,-0.470595416
799,2002992,1033510,0.968,0.238,0.085,-19.8,8.1,-11.1,-7.6,-37,4,0.589556566,-0.223670156,-0.616809595,-0.471053194
800,2005063,1033510,0.964,0.238,0.089,-19.5,7.7,-10.7,-8.2,-37.5,3.9,0.589465011,-0.223700674,-0.616565447,-0.471480453
801,2008676,1033510,0.964,0.23,0.089,-19.2,7.2,-10.2,-8.2,-37.5,3.9,0.589373455,-0.223731193,-0.616321299,-0.471907712
802,2010371,1033510,0.964,0.23,0.089,-18.8,6.6,-9.9,-8.2,-37.5,3.9,0.589251381,-0.223761711,-0.616077151,-0.472334971
803,2013756,1033520,0.964,0.23,0.093,-18.2,6,-9.6,-8.2,-37.5,3.9,0.589159825,-0.223822748,-0.615863521,-0.472731712
804,2015388,1033520,0.956,0.23,0.097,-17.5,5.6,-9.1,-7.7,-37.2,1.5,0.589037751,-0.223853267,-0.615649892,-0.473097934
805,2018877,1033520,0.956,0.238,0.101,-16.7,5.1,-8.4,-7.7,-37.2,1.5,0.588946196,-0.223914304,-0.615466781,-0.473464156
806,2021089,1033520,0.952,0.238,0.101,-15.7,4.7,-7.5,-7.7,-37.2,1.5,0.58885464,-0.223944823,-0.61528367,-0.47379986
807,2022532,1033530,0.944,0.246,0.105,-14.5,4.3,-6.6,-7.7,-37.2,1.5,0.588763085,-0.22400586,-0.615100558,-0.474105045
808,2025904,1033530,0.944,0.253,0.109,-13.1,4,-5.9,-8,-37.2,3.1,0.588702048,-0.224066897,-0.614947966,-0.474379711
809,2027965,1033530,0.944,0.261,0.105,-11.7,3.7,-5.3,-8,-37.2,3.1,0.588641011,-0.224097415,-0.614795373,-0.474623859
810,2030743,1033530,0.941,0.261,0.109,-10.1,3.5,-4.8,-8,-37.2,3.1,0.588579974,-0.224127934,-0.614673299,-0.474837489
811,2032263,1033540,0.929,0.273,0.117,-8.5,3.2,-4.3,-8,-37.2,3.1,0.588549455,-0.224127934,-0.614551225,-0.4750206
812,2035396,1033540,0.921,0.277,0.121,-6.8,3.1,-3.8,-7.5,-37.2,3.5,0.588518937,-0.224158452,-0.61445967,-0.475173193
813,2037578,1033540,0.921,0.289,0.118,-5,3,-3.6,-7.5,-37.2,3.5,0.588488418,-0.224127934,-0.614398633,-0.475295267
814,2040144,1033540,0.913,0.293,0.114,-3.3,3.1,-3.4,-7.5,-37.2,3.5,0.588488418,-0.224097415,-0.614337596,-0.475417341
815,2042070,1033550,0.909,0.305,0.11,-1.7,3.2,-3.4,-7.5,-37.2,3.5,0.588488418,-0.224036378,-0.61424604,-0.475478378
816,2046213,1033550,0.905,0.317,0.11,0.9,3.3,-3.2,-8,-37,3.1,0.5884579,-0.224127934,-0.614398633,-0.475356304
817,2048110,1033550,0.905,0.317,0.11,0.9,3.3,-3.2,-8,-37,3.1,0.5884579,-0.224036378,-0.614368114,-0.475417341
818,2051103,1033550,0.901,0.321,0.111,2,3.4,-3.2,-8,-37,3.1,0.588488418,-0.223914304,-0.614368114,-0.475447859
819,2053154,1033560,0.905,0.317,0.103,2.9,3.6,-3.3,-8,-37,3.1,0.588518937,-0.22379223,-0.614368114,-0.475447859
820,2054711,1033560,0.897,0.325,0.107,3.6,3.7,-3.4,-7.8,-37.2,3.5,0.588549455,-0.223670156,-0.614368114,-0.475478378
821,2057714,1033560,0.894,0.325,0.111,4.1,3.7,-3.9,-7.8,-37.2,3.5,0.588579974,-0.223517563,-0.614368114,-0.475478378
822,2061178,1033560,0.894,0.329,0.103,4.5,3.6,-4.6,-7.8,-37.2,3.5,0.588610492,-0.223364971,-0.614398633,-0.475508896
823,2063197,1033570,0.894,0.325,0.103,4.5,3.5,-5.3,-7.8,-37.2,3.5,0.588610492,-0.223212378,-0.614429151,-0.475539415
824,2064778,1033570,0.89,0.329,0.099,4.4,3.3,-5.9,-7.7,-37.3,1.2,0.588610492,-0.223029267,-0.61445967,-0.475569933
825,2068716,1033570,0.894,0.325,0.107,4.2,3.1,-6.3,-7.7,-37.3,1.2,0.588610492,-0.222876675,-0.614490188,-0.475600452
826,2070921,1033570,0.894,0.321,0.103,4,2.8,-6.6,-7.7,-37.3,1.2,0.588610492,-0.222693564,-0.614551225,-0.47563097
827,2073179,1033580,0.89,0.321,0.103,3.8,2.5,-6.9,-7.7,-37.3,1.2,0.588579974,-0.222510453,-0.614581744,-0.475692007
828,2075655,1033580,0.894,0.321,0.111,3.7,2.3,-7.1,-7.5,-37.2,3.4,0.588579974,-0.22235786,-0.614612262,-0.475753044
829,2077366,1033580,0.89,0.317,0.107,3.6,2.2,-7.3,-7.5,-37.2,3.4,0.588549455,-0.222174749,-0.614673299,-0.475814081
830,2080661,1033580,0.897,0.321,0.115,3.6,2.1,-7.4,-7.5,-37.2,3.4,0.588518937,-0.222022156,-0.614703818,-0.4758446
831,2082420,1033590,0.894,0.317,0.111,3.7,2,-7.5,-7.5,-37.2,3.4,0.5884579,-0.221839045,-0.614764855,-0.475905637
832,2084558,1033590,0.897,0.317,0.111,3.6,1.9,-7.7,-7.9,-37.2,3.4,0.588427381,-0.221686453,-0.614825892,-0.475966674
833,2087121,1033590,0.901,0.317,0.107,3.5,1.9,-8,-7.9,-37.2,3.4,0.588396863,-0.221503342,-0.61485641,-0.476027711
834,2091649,1033590,0.894,0.317,0.115,3.3,1.9,-8.2,-7.9,-37.2,3.4,0.588366344,-0.221320231,-0.614917447,-0.476119266
835,2093818,1033600,0.898,0.313,0.107,3,1.9,-8.3,-7.9,-37.2,3.4,0.588305307,-0.221167638,-0.614947966,-0.476180303
836,2096230,1033600,0.897,0.309,0.114,2.5,1.7,-8.2,-7.6,-37.3,3.5,0.587969604,-0.221076083,-0.615375225,-0.476088748
837,2099169,1033600,0.901,0.313,0.114,2.5,1.7,-8.2,-7.6,-37.3,3.5,0.587939085,-0.220892972,-0.615405744,-0.476180303
838,2099513,1033600,0.897,0.317,0.115,2.3,1.6,-8.2,-7.6,-37.3,3.5,0.587878048,-0.220740379,-0.615466781,-0.476271859
839,2103154,1033610,0.901,0.309,0.118,2.3,1.5,-8.1,-7.6,-37.3,3.5,0.587817011,-0.220587786,-0.615497299,-0.476332896
840,2105551,1033610,0.901,0.313,0.122,2.5,1.3,-8,-7.9,-37.4,3.3,0.587755974,-0.220435194,-0.615558336,-0.476424451
841,2107510,1033610,0.905,0.313,0.122,2.8,1,-7.9,-7.9,-37.4,3.3,0.587725455,-0.220282601,-0.615619373,-0.476485488
842,2109842,1033610,0.909,0.32,0.122,3.1,0.7,-7.7,-7.9,-37.4,3.3,0.587664418,-0.220130009,-0.61568041,-0.476546525
843,2112597,1033620,0.909,0.316,0.13,3.6,0.5,-7.6,-7.9,-37.4,3.3,0.587603381,-0.219946898,-0.615741447,-0.476607562
844,2116145,1033620,0.913,0.324,0.13,4,0.4,-7.4,-7.4,-37.2,1.4,0.587542344,-0.219824824,-0.615802484,-0.476638081
845,2118084,1033620,0.913,0.324,0.13,4.7,0.3,-7.2,-7.4,-37.2,1.4,0.587511826,-0.219641713,-0.61589404,-0.4766686
846,2119651,1033620,0.917,0.336,0.13,5.4,0.4,-7,-7.4,-37.2,1.4,0.587450789,-0.21948912,-0.615985595,-0.476699118
847,2122568,1033630,0.917,0.34,0.13,6.2,0.5,-6.6,-7.4,-37.2,1.4,0.58742027,-0.219306009,-0.616077151,-0.476699118
848,2126235,1033630,0.921,0.344,0.134,7,0.6,-6.5,-7.7,-36.9,3.4,0.587389752,-0.219122898,-0.616168706,-0.476699118
849,2127707,1033630,0.925,0.34,0.13,7.6,0.9,-6.4,-7.7,-36.9,3.4,0.587389752,-0.218939787,-0.616260262,-0.4766686
850,2130339,1033630,0.932,0.351,0.134,8.1,1.3,-6.6,-7.7,-36.9,3.4,0.587389752,-0.218726157,-0.616351817,-0.476638081
851,2133110,1033640,0.933,0.351,0.13,8.7,1.7,-6.8,-7.7,-36.9,3.4,0.587359233,-0.218512528,-0.616443373,-0.476638081
852,2134622,1033640,0.933,0.359,0.13,9.3,2.1,-6.8,-7.4,-37.3,3.6,0.587359233,-0.21826838,-0.616565447,-0.476607562
853,2137542,1033640,0.936,0.359,0.134,9.8,2.6,-6.9,-7.4,-37.3,3.6,0.587389752,-0.217993713,-0.616657002,-0.476577044
854,2140052,1033640,0.94,0.355,0.134,10.2,3,-6.9,-7.4,-37.3,3.6,0.587389752,-0.217749565,-0.616748558,-0.476546525
855,2142372,1033650,0.944,0.355,0.134,10.3,3.3,-7,-7.4,-37.3,3.6,0.58742027,-0.217505417,-0.616870632,-0.476516007
856,2144520,1033650,0.952,0.355,0.134,10.2,3.5,-7.4,-7.6,-36.8,3.9,0.587328715,-0.217139195,-0.617053743,-0.476516007
857,2147736,1033650,0.952,0.359,0.134,10.2,3.5,-7.4,-7.6,-36.8,3.9,0.587359233,-0.216864528,-0.617145299,-0.476485488
858,2149649,1033650,0.956,0.363,0.134,10.1,3.5,-7.6,-7.6,-36.8,3.9,0.587359233,-0.21662038,-0.617236854,-0.476485488
859,2153412,1033660,0.96,0.355,0.133,10,3.5,-7.5,-7.6,-36.8,3.9,0.587389752,-0.216345714,-0.61732841,-0.47645497
860,2155962,1033660,0.96,0.355,0.133,9.8,3.5,-7.4,-7.6,-37.2,3.9,0.58742027,-0.216040529,-0.617419965,-0.476424451
861,2157797,1033660,0.964,0.355,0.129,9.6,3.5,-7.2,-7.6,-37.2,3.9,0.58742027,-0.215826899,-0.617511521,-0.476393933
862,2160075,1033660,0.964,0.359,0.133,9.5,3.5,-6.8,-7.6,-37.2,3.9,0.587450789,-0.215582751,-0.617603076,-0.476393933
863,2162341,1033670,0.964,0.363,0.133,9.3,3.5,-6.4,-7.6,-37.2,3.9,0.587481307,-0.215338603,-0.617694632,-0.476363414
864,2165812,1033670,0.972,0.363,0.133,9.2,3.5,-6,-7.4,-37.2,1.8,0.587511826,-0.215063936,-0.617755669,-0.476332896
865,2167780,1033670,0.968,0.367,0.133,9,3.3,-5.9,-7.4,-37.2,1.8,0.587511826,-0.214850307,-0.617847224,-0.476302377
866,2169954,1033670,0.968,0.37,0.137,8.6,3.2,-5.6,-7.4,-37.2,1.8,0.587542344,-0.214636677,-0.617908261,-0.476271859
867,2173308,1033680,0.972,0.37,0.137,8.4,3.1,-5.3,-7.4,-37.2,1.8,0.587572863,-0.214423048,-0.617999817,-0.47624134
868,2174717,1033680,0.968,0.374,0.134,8.2,3.2,-5.1,-7.3,-37.5,3.6,0.587603381,-0.214209418,-0.618060854,-0.476210822
869,2178127,1033680,0.972,0.37,0.133,8.2,3.3,-4.9,-7.3,-37.5,3.6,0.5876339,-0.213995788,-0.618121891,-0.476180303
870,2179834,1033680,0.972,0.374,0.137,8.2,3.4,-4.8,-7.3,-37.5,3.6,0.587664418,-0.213812677,-0.618152409,-0.476149785
871,2182184,1033690,0.964,0.374,0.134,8.1,3.4,-4.6,-7.3,-37.5,3.6,0.587694937,-0.213599048,-0.618243965,-0.476119266
872,2186140,1033690,0.968,0.378,0.134,8,3.4,-4.4,-7.4,-36.7,3.6,0.587755974,-0.213385418,-0.618305002,-0.476088748
873,2188629,1033690,0.968,0.382,0.134,7.8,3.5,-4.2,-7.4,-36.7,3.6,0.587786493,-0.213202307,-0.618366039,-0.476027711
874,2190795,1033690,0.968,0.378,0.134,7.4,3.6,-4.2,-7.4,-36.7,3.6,0.587817011,-0.213019196,-0.618427076,-0.475997192
875,2192704,1033700,0.968,0.378,0.134,7.1,3.8,-4.1,-7.4,-36.7,3.6,0.587878048,-0.212836085,-0.618457595,-0.475997192
876,2195056,1033700,0.968,0.378,0.137,6.7,4.3,-3.9,-7.2,-37.5,3.6,0.587755974,-0.2125309,-0.618671224,-0.476027711
877,2197193,1033700,0.968,0.378,0.137,6.7,4.3,-3.9,-7.2,-37.5,3.6,0.587786493,-0.21231727,-0.618701743,-0.475997192
878,2200196,1033700,0.968,0.374,0.137,6.7,4.5,-3.8,-7.2,-37.5,3.6,0.58784753,-0.212134159,-0.618732261,-0.475966674
879,2202897,1033710,0.964,0.378,0.138,6.5,4.5,-3.6,-7.2,-37.5,3.6,0.587908567,-0.211951048,-0.61876278,-0.475966674
880,2206281,1033710,0.964,0.37,0.141,6.3,4.5,-3.4,-7.5,-37.6,3.3,0.587939085,-0.211798456,-0.61876278,-0.475936155
881,2208399,1033710,0.964,0.374,0.141,6.1,4.6,-3.2,-7.5,-37.6,3.3,0.588000122,-0.211615345,-0.618793298,-0.475905637
882,2210934,1033710,0.968,0.374,0.141,6,4.7,-3,-7.5,-37.6,3.3,0.588061159,-0.211462752,-0.618823817,-0.475905637
883,2212498,1033720,0.964,0.37,0.141,5.9,4.8,-2.9,-7.5,-37.6,3.3,0.588122196,-0.211279641,-0.618823817,-0.475875118
884,2214555,1033720,0.964,0.367,0.141,5.8,4.9,-2.7,-7.3,-37.5,2.3,0.588183233,-0.211127049,-0.618823817,-0.4758446
885,2218974,1033720,0.96,0.367,0.141,5.9,5.2,-2.3,-7.3,-37.5,2.3,0.588274789,-0.210974456,-0.618823817,-0.4758446
886,2220877,1033720,0.96,0.374,0.145,6,5.4,-2,-7.3,-37.5,2.3,0.588335826,-0.210791345,-0.618854335,-0.475814081
887,2222522,1033730,0.956,0.37,0.145,6.1,5.5,-1.6,-7.3,-37.5,2.3,0.588427381,-0.210638752,-0.618854335,-0.475753044
888,2224698,1033730,0.948,0.371,0.142,6,5.5,-1.3,-7.4,-37.4,3.2,0.588518937,-0.21048616,-0.618823817,-0.475722526
889,2228074,1033730,0.952,0.371,0.146,6,5.5,-0.9,-7.4,-37.4,3.2,0.588610492,-0.210333567,-0.618823817,-0.475692007
890,2229888,1033730,0.948,0.367,0.142,5.9,5.4,-0.4,-7.4,-37.4,3.2,0.588702048,-0.210180975,-0.618823817,-0.47563097
891,2234319,1033740,0.94,0.375,0.15,6,5.4,0.1,-7.4,-37.4,3.2,0.588824122,-0.210058901,-0.618823817,-0.475569933
892,2234762,1033740,0.944,0.382,0.142,6.2,5.5,0.6,-7.5,-37.5,3.3,0.588915677,-0.209936827,-0.618823817,-0.475508896
893,2237196,1033740,0.94,0.379,0.146,6.3,5.6,0.8,-7.5,-37.5,3.3,0.589037751,-0.209814753,-0.618793298,-0.475447859
894,2241488,1033740,0.94,0.378,0.15,6.5,5.7,1,-7.5,-37.5,3.3,0.589159825,-0.209692679,-0.618793298,-0.475356304
895,2244148,1033750,0.932,0.382,0.15,6.5,5.8,1,-7.5,-37.5,3.3,0.589281899,-0.209540086,-0.61876278,-0.475295267
896,2246001,1033750,0.932,0.375,0.146,6.5,6,1.3,-7.5,-37.3,3.1,0.589251381,-0.209173864,-0.618884854,-0.475386822
897,2247427,1033750,0.929,0.379,0.146,6.5,6,1.3,-7.5,-37.3,3.1,0.589373455,-0.20905179,-0.618854335,-0.475295267
898,2251721,1033750,0.925,0.375,0.15,6.4,6.1,1.4,-7.5,-37.3,3.1,0.589495529,-0.208899197,-0.618823817,-0.47523423
899,2252113,1033760,0.925,0.375,0.142,6.3,6.2,1.5,-7.5,-37.3,3.1,0.589617603,-0.208777123,-0.618823817,-0.475142674
900,2255210,1033760,0.921,0.375,0.142,6.1,6.1,1.7,-7.4,-37.4,3.2,0.589739677,-0.208655049,-0.618793298,-0.475081637
901,2257358,1033760,0.921,0.371,0.146,5.9,6.1,1.9,-7.4,-37.4,3.2,0.58989227,-0.208563494,-0.61876278,-0.474990081
902,2260189,1033760,0.917,0.375,0.142,5.7,6,2,-7.4,-37.4,3.2,0.590014344,-0.20844142,-0.618732261,-0.474898526
903,2262803,1033770,0.917,0.367,0.138,5.6,6,2.1,-7.4,-37.4,3.2,0.590136418,-0.208319346,-0.618701743,-0.474837489
904,2264821,1033770,0.917,0.371,0.142,5.5,6.1,2.2,-7.3,-37.1,2.5,0.59028901,-0.20822779,-0.618671224,-0.474776452
905,2267254,1033770,0.917,0.371,0.142,5.4,6.3,2.3,-7.3,-37.1,2.5,0.590411084,-0.208136235,-0.618640706,-0.474684896
906,2269727,1033770,0.917,0.371,0.138,5.3,6.3,2.5,-7.3,-37.1,2.5,0.590533158,-0.208014161,-0.618610187,-0.474623859
907,2273441,1033780,0.913,0.367,0.142,5.2,6.2,2.6,-7.3,-37.1,2.5,0.590685751,-0.207922605,-0.618579669,-0.474532304
908,2275905,1033780,0.913,0.371,0.138,5,6,2.8,-7.5,-37.1,3.5,0.590807825,-0.20783105,-0.618518632,-0.474471267
909,2278204,1033780,0.917,0.363,0.134,4.8,5.8,3,-7.5,-37.1,3.5,0.590960417,-0.207770013,-0.618488113,-0.474379711
910,2279960,1033780,0.913,0.371,0.138,4.6,5.7,3.1,-7.5,-37.1,3.5,0.591082492,-0.207678457,-0.618457595,-0.474288156
911,2281949,1033790,0.917,0.367,0.138,4.4,5.5,3.2,-7.5,-37.1,3.5,0.591204566,-0.20761742,-0.618396558,-0.474227119
912,2285689,1033790,0.913,0.371,0.138,4.3,5.3,3.2,-7,-37.3,3.9,0.59132664,-0.207525864,-0.618366039,-0.474135563
913,2287589,1033790,0.913,0.367,0.134,4.3,5.2,3.1,-7,-37.3,3.9,0.591448714,-0.207464827,-0.61833552,-0.474074526
914,2291471,1033790,0.913,0.367,0.134,4.3,5.2,3,-7,-37.3,3.9,0.591570788,-0.20740379,-0.618305002,-0.474013489
915,2291981,1033800,0.913,0.363,0.134,4.3,5.2,2.9,-7,-37.3,3.9,0.591692862,-0.207342753,-0.618243965,-0.473921934
916,2295847,1033800,0.917,0.363,0.134,4.1,5.2,2.5,-7.1,-37.4,3.5,0.591601306,-0.207068087,-0.618396558,-0.473952452
917,2297703,1033800,0.917,0.363,0.134,4.1,5.2,2.5,-7.1,-37.4,3.5,0.59172338,-0.20700705,-0.618366039,-0.473891415
918,2299991,1033800,0.917,0.359,0.13,4.3,5.3,2.3,-7.1,-37.4,3.5,0.591845454,-0.206915494,-0.61833552,-0.473830378
919,2302303,1033810,0.917,0.363,0.134,4.6,5.4,2.3,-7.1,-37.4,3.5,0.591967528,-0.206823939,-0.618305002,-0.473769341
920,2305212,1033810,0.913,0.355,0.134,4.8,5.4,2.3,-7.3,-37.1,3.2,0.592089602,-0.206732383,-0.618274483,-0.473708304
921,2307627,1033810,0.913,0.359,0.134,5.1,5.4,2.1,-7.3,-37.1,3.2,0.592211676,-0.206640828,-0.618243965,-0.473616749
922,2309768,1033810,0.913,0.359,0.134,5.3,5.2,2,-7.3,-37.1,3.2,0.59233375,-0.206549272,-0.618213446,-0.473555712
923,2312419,1033820,0.909,0.356,0.134,5.5,5,1.8,-7.3,-37.1,3.2,0.592425306,-0.206457717,-0.618152409,-0.473464156
924,2314491,1033820,0.913,0.359,0.134,5.8,4.7,1.8,-7.5,-37.3,3.1,0.59254738,-0.206366161,-0.618152409,-0.473403119
925,2318999,1033820,0.917,0.359,0.134,6,4.5,1.7,-7.5,-37.3,3.1,0.592638936,-0.206244087,-0.618152409,-0.473311563
926,2321263,1033820,0.909,0.367,0.134,6.2,4.3,1.8,-7.5,-37.3,3.1,0.59276101,-0.206152532,-0.618152409,-0.473220008
927,2323619,1033830,0.909,0.363,0.134,6.3,4.2,2,-7.5,-37.3,3.1,0.592852565,-0.206060976,-0.618152409,-0.473128452
928,2326132,1033830,0.909,0.363,0.134,6.5,4.1,2.1,-7.6,-37,3.5,0.592974639,-0.205938902,-0.618152409,-0.473036897
929,2328351,1033830,0.913,0.371,0.134,6.8,3.9,2.1,-7.6,-37,3.5,0.593066195,-0.205847346,-0.618152409,-0.472914823
930,2330709,1033830,0.913,0.367,0.134,7.1,3.8,2.1,-7.6,-37,3.5,0.593188269,-0.205755791,-0.618213446,-0.472823267
931,2332724,1033840,0.913,0.375,0.135,7.4,3.7,2,-7.6,-37,3.5,0.593279824,-0.205633717,-0.618243965,-0.472701193
932,2334875,1033840,0.913,0.375,0.135,7.6,3.7,2,-7.6,-36.9,3.5,0.593401898,-0.205542161,-0.618243965,-0.472609638
933,2337472,1033840,0.913,0.371,0.138,7.7,3.5,2,-7.6,-36.9,3.5,0.593493454,-0.205420087,-0.618274483,-0.472487564
934,2339553,1033840,0.917,0.371,0.138,7.7,3.4,2.1,-7.6,-36.9,3.5,0.593615528,-0.205298013,-0.618305002,-0.47236549
935,2342669,1033850,0.913,0.371,0.138,7.6,3.2,2.1,-7.6,-36.9,3.5,0.593707083,-0.205206458,-0.61833552,-0.472243416
936,2345040,1033850,0.917,0.371,0.138,7.7,3.2,2.1,-7.9,-36.8,3.7,0.59337138,-0.204657125,-0.618732261,-0.472396008
937,2347214,1033850,0.917,0.371,0.138,7.7,3.2,2.1,-7.9,-36.8,3.7,0.593462935,-0.204535051,-0.61876278,-0.472273934
938,2350210,1033850,0.913,0.371,0.134,7.9,3.3,2,-7.9,-36.8,3.7,0.593585009,-0.204443495,-0.618793298,-0.47215186
939,2352548,1033860,0.917,0.379,0.134,8.2,3.4,2,-7.9,-36.8,3.7,0.593676565,-0.204321421,-0.618823817,-0.472029786
940,2354766,1033860,0.917,0.375,0.138,8.3,3.4,2.1,-7.6,-37.2,3.7,0.59376812,-0.204199347,-0.618854335,-0.471907712
941,2358045,1033860,0.921,0.375,0.134,8.5,3.3,2.1,-7.6,-37.2,3.7,0.593890194,-0.204077273,-0.618884854,-0.471785638
942,2360174,1033860,0.917,0.367,0.134,8.5,3.2,2,-7.6,-37.2,3.7,0.59398175,-0.203985717,-0.618915372,-0.471663564
943,2362311,1033870,0.921,0.367,0.138,8.6,3.2,1.8,-7.6,-37.2,3.7,0.594103824,-0.203863643,-0.618945891,-0.471510971
944,2365588,1033870,0.921,0.367,0.142,8.7,3.2,1.6,-7.8,-36.8,3.9,0.594195379,-0.203741569,-0.619006928,-0.471388897
945,2367798,1033870,0.917,0.367,0.138,8.7,3.3,1.6,-7.8,-36.8,3.9,0.594286935,-0.203588977,-0.619037446,-0.471266823
946,2370071,1033870,0.921,0.371,0.146,8.8,3.3,1.5,-7.8,-36.8,3.9,0.594378491,-0.203466903,-0.619067965,-0.471144749
947,2372214,1033880,0.921,0.363,0.142,9,3.4,1.4,-7.8,-36.8,3.9,0.594500565,-0.203344829,-0.619129002,-0.471022675
948,2376307,1033880,0.921,0.371,0.142,9.2,3.4,1.6,-8,-37.4,4.2,0.59459212,-0.203222755,-0.61915952,-0.470900601
949,2378741,1033880,0.921,0.367,0.146,9.3,3.5,1.7,-8,-37.4,4.2,0.594714194,-0.203070162,-0.619220557,-0.470748009
950,2380893,1033880,0.921,0.371,0.142,9.4,3.4,1.7,-8,-37.4,4.2,0.59480575,-0.202948088,-0.619251076,-0.470625935
951,2383183,1033890,0.921,0.371,0.146,9.4,3.3,1.7,-8,-37.4,4.2,0.594927824,-0.202795495,-0.619281594,-0.470473342
952,2384767,1033890,0.921,0.375,0.146,9.4,3.2,1.6,-8.1,-37.6,3.5,0.595019379,-0.202673421,-0.619342631,-0.470351268
953,2388243,1033890,0.921,0.371,0.146,9.4,3.2,1.5,-8.1,-37.6,3.5,0.595110935,-0.202551347,-0.619403668,-0.470229194
954,2390343,1033890,0.917,0.371,0.15,9.4,3.1,1.5,-8.1,-37.6,3.5,0.595233009,-0.202368236,-0.619434187,-0.470076601
955,2393158,1033900,0.921,0.379,0.15,9.4,3,1.5,-8.1,-37.6,3.5,0.595324564,-0.202276681,-0.619495224,-0.469954527
956,2395203,1033900,0.925,0.378,0.162,9.3,2.9,1.6,-7.5,-37.5,3.7,0.595110935,-0.201666311,-0.619739372,-0.470137638
957,2397305,1033900,0.925,0.379,0.15,9.3,2.9,1.6,-7.5,-37.5,3.7,0.59520249,-0.201544237,-0.619800409,-0.470015564
958,2401442,1033900,0.921,0.375,0.154,9.2,2.8,1.6,-7.5,-37.5,3.7,0.595294046,-0.201391644,-0.619861446,-0.469862972
959,2403737,1033910,0.921,0.379,0.154,9,2.9,1.4,-7.5,-37.5,3.7,0.595385601,-0.20126957,-0.619891964,-0.469740898
960,2405820,1033910,0.925,0.379,0.15,9,2.8,1.4,-7.8,-37.4,3.6,0.595477157,-0.201147496,-0.619953001,-0.469618824
961,2408088,1033910,0.925,0.383,0.154,8.7,2.9,1.4,-7.8,-37.4,3.6,0.595599231,-0.201025422,-0.61998352,-0.46949675
962,2410141,1033910,0.925,0.383,0.154,8.5,3,1.2,-7.8,-37.4,3.6,0.595690786,-0.200903348,-0.620044557,-0.469374676
963,2412129,1033920,0.925,0.379,0.154,8.2,3.3,1.1,-7.8,-37.4,3.6,0.595782342,-0.200781274,-0.620075076,-0.469222083
964,2415209,1033920,0.925,0.375,0.154,8,3.4,0.9,-7.7,-37,4,0.595873898,-0.2006592,-0.620105594,-0.469161046
965,2417135,1033920,0.928,0.379,0.154,7.7,3.4,0.8,-7.7,-37,4,0.595965453,-0.200537126,-0.620136113,-0.469038972
966,2419724,1033920,0.928,0.382,0.154,7.4,3.3,0.7,-7.7,-37,4,0.59602649,-0.200415052,-0.620166631,-0.468947417
967,2424201,1033930,0.932,0.386,0.154,7.1,3.2,0.6,-7.7,-37,4,0.596118046,-0.200292978,-0.62019715,-0.468855861
968,2424582,1033930,0.932,0.382,0.158,6.8,3.1,0.5,-7.5,-37.2,3.9,0.596209601,-0.200170904,-0.620227668,-0.468764306
969,2427238,1033930,0.928,0.378,0.158,6.5,3,0.4,-7.5,-37.2,3.9,0.596270638,-0.200079348,-0.620227668,-0.468703269
970,2429498,1033930,0.932,0.378,0.158,6.2,2.9,0.2,-7.5,-37.2,3.9,0.596331675,-0.199957274,-0.620258187,-0.468611713
971,2434027,1033940,0.936,0.378,0.158,5.7,2.9,0.1,-7.5,-37.2,3.9,0.596423231,-0.199865719,-0.620288705,-0.468550676
972,2436255,1033940,0.936,0.374,0.161,5.2,2.9,0,-7.4,-36.6,3.8,0.596484268,-0.199743645,-0.620288705,-0.468489639
973,2438280,1033940,0.94,0.375,0.15,4.7,2.9,-0.2,-7.4,-36.6,3.8,0.596514786,-0.199652089,-0.620319224,-0.46845912
974,2440567,1033940,0.936,0.371,0.15,4.2,2.8,-0.3,-7.4,-36.6,3.8,0.596575823,-0.199560533,-0.620319224,-0.468398083
975,2442040,1033950,0.94,0.374,0.154,3.6,2.7,-0.5,-7.4,-36.6,3.8,0.59663686,-0.199499496,-0.620319224,-0.468367565
976,2445730,1033950,0.94,0.367,0.15,2.8,2.9,-1.3,-7.5,-36.8,3.8,0.596514786,-0.199163793,-0.620410779,-0.468550676
977,2447131,1033950,0.944,0.359,0.149,2.8,2.9,-1.3,-7.5,-36.8,3.8,0.596575823,-0.199072237,-0.620410779,-0.468520157
978,2450022,1033950,0.944,0.367,0.157,2.3,3,-1.6,-7.5,-36.8,3.8,0.596606342,-0.198980682,-0.620410779,-0.468520157
979,2452304,1033960,0.944,0.363,0.157,1.9,3.1,-1.7,-7.5,-36.8,3.8,0.59663686,-0.198919645,-0.620380261,-0.468550676
980,2455579,1033960,0.944,0.359,0.149,1.5,3.1,-1.7,-7.7,-37.2,3.7,0.596667379,-0.198828089,-0.620380261,-0.468550676
981,2457629,1033960,0.94,0.367,0.15,0.9,3.1,-1.7,-7.7,-37.2,3.7,0.596697897,-0.198767052,-0.620349742,-0.468581194
982,2459830,1033960,0.944,0.359,0.153,0.4,2.9,-1.6,-7.7,-37.2,3.7,0.596728416,-0.198706015,-0.620319224,-0.468611713
983,2463043,1033970,0.94,0.363,0.15,0,2.9,-1.6,-7.7,-37.2,3.7,0.596728416,-0.198644978,-0.620288705,-0.468642232
984,2465144,1033970,0.94,0.363,0.15,-0.4,2.8,-1.4,-8,-36.6,4,0.596758934,-0.19861446,-0.620258187,-0.46867275
985,2467286,1033970,0.936,0.359,0.15,-0.7,2.6,-1.2,-8,-36.6,4,0.596789453,-0.198583941,-0.620227668,-0.468703269
986,2470572,1033970,0.936,0.363,0.15,-1,2.5,-1.1,-8,-36.6,4,0.596789453,-0.198553423,-0.620166631,-0.468764306
987,2472635,1033980,0.94,0.363,0.153,-1.4,2.4,-1,-8,-36.6,4,0.596819971,-0.198522904,-0.620136113,-0.468794824
988,2474804,1033980,0.932,0.363,0.158,-1.6,2.3,-0.8,-8,-37.1,4,0.596819971,-0.198522904,-0.620075076,-0.468855861
989,2477699,1033980,0.932,0.367,0.15,-1.8,2.3,-0.7,-8,-37.1,4,0.59685049,-0.198461867,-0.620044557,-0.46888638
990,2480094,1033980,0.932,0.367,0.154,-1.9,2.1,-0.5,-8,-37.1,4,0.59685049,-0.198461867,-0.61998352,-0.468947417
991,2482270,1033990,0.928,0.371,0.154,-2.1,1.8,-0.3,-8,-37.1,4,0.596881008,-0.198461867,-0.619953001,-0.468977935
992,2486435,1033990,0.928,0.371,0.154,-2.2,1.7,-0.3,-7.7,-36.8,4,0.596881008,-0.198522904,-0.619922483,-0.469008454
993,2488546,1033990,0.928,0.363,0.154,-2.2,1.6,-0.3,-7.7,-36.8,4,0.596881008,-0.198522904,-0.619861446,-0.469069491
994,2491052,1033990,0.925,0.371,0.154,-2.3,1.7,-0.3,-7.7,-36.8,4,0.596911527,-0.198522904,-0.619830927,-0.469100009
995,2493316,1034000,0.921,0.367,0.158,-2.4,1.9,-0.3,-7.7,-36.8,4,0.596911527,-0.198522904,-0.61976989,-0.469161046
996,2495292,1034000,0.921,0.363,0.154,-2.6,2.1,-0.4,-7.8,-37,3.9,0.596789453,-0.198309275,-0.619800409,-0.469374676
997,2497428,1034000,0.921,0.363,0.154,-2.6,2.1,-0.4,-7.8,-37,3.9,0.596819971,-0.198309275,-0.619739372,-0.469435713
998,2500584,1034000,0.925,0.359,0.154,-2.7,2.2,-0.6,-7.8,-37,3.9,0.596819971,-0.198309275,-0.619678335,-0.469466231
999,2501962,1034010,0.928,0.363,0.154,-2.7,2.3,-0.7,-7.8,-37,3.9,0.596819971,-0.198309275,-0.619647816,-0.469527268
1000,2504968,1034010,0.925,0.359,0.15,-2.6,2.4,-0.9,-7.8,-37,4.2,0.59685049,-0.198309275,-0.619586779,-0.469588305
1001,2508096,1034010,0.932,0.359,0.146,-2.6,2.6,-1.2,-7.8,-37,4.2,0.59685049,-0.198309275,-0.619525742,-0.469649342
1002,2509540,1034010,0.932,0.351,0.153,-2.5,2.8,-1.4,-7.8,-37,4.2,0.596881008,-0.198278756,-0.619464705,-0.469710379
1003,2513458,1034020,0.932,0.347,0.153,-2.5,2.9,-1.6,-7.8,-37,4.2,0.596881008,-0.198248238,-0.619403668,-0.469801935
1004,2515600,1034020,0.936,0.347,0.149,-2.5,3.1,-1.8,-7.7,-37,4,0.596881008,-0.198248238,-0.619342631,-0.469862972
1005,2516958,1034020,0.936,0.339,0.145,-2.5,3.3,-2,-7.7,-37,4,0.596911527,-0.198217719,-0.619281594,-0.469924009
1006,2520807,1034020,0.936,0.343,0.142,-2.5,3.3,-2,-7.7,-37,4,0.596911527,-0.198187201,-0.619220557,-0.470015564
1007,2522183,1034030,0.94,0.335,0.137,-2.4,3.4,-2,-7.7,-37,4,0.596942045,-0.198156682,-0.61915952,-0.470076601
1008,2525190,1034030,0.936,0.339,0.138,-2.3,3.4,-1.9,-7.9,-37.3,4.2,0.596942045,-0.198126164,-0.619098483,-0.470168157
1009,2527320,1034030,0.94,0.335,0.141,-2.3,3.4,-1.9,-7.9,-37.3,4.2,0.596972564,-0.198095645,-0.619037446,-0.470229194
1010,2530459,1034030,0.94,0.335,0.145,-2.2,3.3,-1.9,-7.9,-37.3,4.2,0.596972564,-0.198065126,-0.618976409,-0.470290231
1011,2533675,1034040,0.936,0.335,0.141,-2.3,3,-1.8,-7.9,-37.3,4.2,0.597003082,-0.198034608,-0.618945891,-0.470381787
1012,2535689,1034040,0.932,0.335,0.145,-2.3,2.8,-1.7,-7.3,-37.1,4.1,0.597003082,-0.198004089,-0.618884854,-0.470442824
1013,2537015,1034040,0.932,0.335,0.149,-2.4,2.5,-1.7,-7.3,-37.1,4.1,0.597003082,-0.198004089,-0.618823817,-0.470503861
1014,2540022,1034040,0.932,0.335,0.149,-2.3,2.2,-1.5,-7.3,-37.1,4.1,0.597003082,-0.197973571,-0.618793298,-0.470564898
1015,2543307,1034050,0.932,0.339,0.145,-2.2,2,-1.2,-7.3,-37.1,4.1,0.597003082,-0.197973571,-0.618732261,-0.470625935
