sample_index,elapsed_us,device_time_ms,acc_x_g,acc_y_g,acc_z_g,gyro_x_dps,gyro_y_dps,gyro_z_dps,mag_x_ut,mag_y_ut,mag_z_ut,quat_w,quat_x,quat_y,quat_z
0,4973,1666860,0.978,0.012,0.24,-2.8,-0.7,-0.6,-6.5,23.6,-20.3,0.162480544,-0.60155034,-0.135624256,-0.770256661
1,6480,1666870,0.974,0.008,0.236,-2.6,-0.6,-0.6,-6.4,23.6,-20.6,0.162419507,-0.60155034,-0.135593738,-0.770256661
2,10357,1666870,0.974,0.005,0.236,-2.5,-0.4,-0.5,-6.4,23.6,-20.6,0.162388989,-0.601580859,-0.135563219,-0.770256661
3,11770,1666870,0.974,0.005,0.224,-2.5,-0.4,-0.5,-6.4,23.6,-20.6,0.162327952,-0.601580859,-0.135532701,-0.770287179
4,14908,1666870,0.974,0.005,0.236,-2.5,-0.4,-0.5,-6.4,23.6,-20.6,0.162297433,-0.601611377,-0.135471664,-0.770287179
5,16671,1666880,0.97,0.012,0.236,-2.5,-0.4,-0.4,-6.8,23.9,-20.6,0.162236396,-0.601611377,-0.135441145,-0.770287179
6,19833,1666880,0.974,0.012,0.236,-2.5,-0.3,-0.3,-6.8,23.9,-20.6,0.162205878,-0.601641896,-0.135410627,-0.770287179
7,21330,1666880,0.974,0.008,0.232,-2.5,-0.1,-0.3,-6.8,23.9,-20.6,0.162175359,-0.601641896,-0.135380108,-0.770287179
8,24213,1666880,0.974,0.005,0.232,-2.5,-0.1,-0.3,-6.8,23.9,-20.6,0.162114322,-0.601641896,-0.13534959,-0.770287179
9,26960,1666890,0.974,0.005,0.232,-2.5,-0.1,-0.3,-6.8,23.9,-20.6,0.162114322,-0.601641896,-0.13534959,-0.770287179
10,28633,1666890,0.966,0.005,0.232,-2.6,0,-0.4,-6.8,23.9,-20.6,0.162053285,-0.60176397,-0.135227515,-0.770256661
11,31616,1666890,0.966,0.005,0.236,-2.8,0,-0.5,-6.8,23.9,-20.6,0.162022767,-0.60176397,-0.135196997,-0.770256661
12,34715,1666890,0.966,0.005,0.236,-2.9,0,-0.7,-6.8,23.9,-20.6,0.16196173,-0.601794488,-0.135166478,-0.770256661
13,36098,1666900,0.958,0.001,0.229,-2.9,-0.1,-0.9,-6.2,23.1,-21.1,0.161900693,-0.601794488,-0.135105441,-0.770287179
14,39117,1666900,0.966,0.001,0.236,-3,-0.1,-1.1,-6.2,23.1,-21.1,0.161839656,-0.601794488,-0.135074923,-0.770287179
15,42423,1666900,0.958,-0.002,0.236,-3,0,-1.1,-6.2,23.1,-21.1,0.161778619,-0.601794488,-0.135044404,-0.770287179
16,44433,1666900,0.954,-0.01,0.233,-3,0,-1.2,-6.2,23.1,-21.1,0.161717582,-0.601825007,-0.134983367,-0.770317698
17,47484,1666910,0.962,-0.006,0.24,-2.9,0,-1.3,-5.8,23.2,-20.5,0.161656545,-0.601825007,-0.134983367,-0.770317698
18,48882,1666910,0.958,-0.006,0.236,-3,0,-1.4,-5.8,23.2,-20.5,0.161595508,-0.601825007,-0.134952849,-0.770348216
19,51992,1666910,0.958,-0.014,0.236,-3,0,-1.5,-5.8,23.2,-20.5,0.161534471,-0.601825007,-0.13492233,-0.770348216
20,54938,1666910,0.954,-0.014,0.233,-3.1,0,-1.8,-5.8,23.2,-20.5,0.161473434,-0.601825007,-0.134891812,-0.770378735
21,56479,1666920,0.958,-0.018,0.229,-3.1,-0.2,-2,-5.4,23.3,-20.6,0.16135136,-0.601855525,-0.134861293,-0.770378735
22,60215,1666920,0.958,-0.014,0.232,-3.1,-0.3,-2.1,-5.4,23.3,-20.6,0.161320841,-0.601855525,-0.134830775,-0.770409253
23,61504,1666920,0.962,-0.014,0.236,-3.2,-0.5,-2.1,-5.4,23.3,-20.6,0.161229286,-0.601886044,-0.134830775,-0.770409253
24,65432,1666920,0.958,-0.018,0.232,-3.2,-0.6,-2.1,-5.4,23.3,-20.6,0.16113773,-0.601886044,-0.134800256,-0.770409253
25,67638,1666930,0.962,-0.014,0.232,-3.3,-0.6,-2.3,-5.2,23.2,-21,0.161076693,-0.601916562,-0.134769738,-0.770439772
26,69287,1666930,0.962,-0.014,0.236,-3.3,-0.8,-2.4,-5.2,23.2,-21,0.160985137,-0.601916562,-0.134739219,-0.770439772
27,71294,1666930,0.966,-0.014,0.236,-3.3,-0.8,-2.5,-5.2,23.2,-21,0.160893582,-0.601947081,-0.134739219,-0.770439772
28,74246,1666930,0.966,-0.018,0.236,-3.1,-0.9,-2.5,-5.2,23.2,-21,0.160802026,-0.601947081,-0.134708701,-0.770439772
29,77578,1666940,0.966,-0.018,0.236,-3.1,-0.9,-2.5,-5.2,23.2,-21,0.160802026,-0.601947081,-0.134708701,-0.770439772
30,79250,1666940,0.97,-0.014,0.232,-3,-0.9,-2.3,-5.2,23.2,-21,0.160832545,-0.602099673,-0.134434034,-0.770378735
31,82456,1666940,0.97,-0.01,0.236,-3,-1.1,-2.3,-5.2,23.2,-21,0.160740989,-0.602130192,-0.134403516,-0.770378735
32,83889,1666940,0.974,-0.014,0.236,-3,-1.4,-2.4,-5.2,23.2,-21,0.160649434,-0.60216071,-0.134403516,-0.770378735
33,86741,1666950,0.974,-0.006,0.24,-2.8,-1.7,-2.6,-5.4,23.1,-20.8,0.160588397,-0.602191229,-0.134403516,-0.770378735
34,89731,1666950,0.974,-0.006,0.236,-2.7,-1.8,-2.7,-5.4,23.1,-20.8,0.160496841,-0.602221747,-0.134403516,-0.770378735
35,92739,1666950,0.974,-0.006,0.236,-2.5,-1.9,-2.8,-5.4,23.1,-20.8,0.160374767,-0.602252266,-0.134403516,-0.770378735
36,94143,1666950,0.981,-0.006,0.236,-2.4,-1.9,-2.8,-5.4,23.1,-20.8,0.16031373,-0.602282785,-0.134403516,-0.770348216
37,97278,1666960,0.978,-0.006,0.236,-2.2,-1.9,-2.7,-5.4,23.1,-20.8,0.160222175,-0.602313303,-0.134403516,-0.770348216
38,98771,1666960,0.978,-0.006,0.236,-2,-1.9,-2.8,-5.4,23.1,-20.8,0.160161138,-0.602343822,-0.134403516,-0.770348216
39,101122,1666960,0.977,-0.002,0.232,-1.8,-2,-2.8,-5.4,23.1,-20.8,0.160069582,-0.60237434,-0.134434034,-0.770317698
40,104108,1666960,0.978,0.005,0.24,-1.6,-2.1,-2.8,-5.4,23.1,-20.8,0.160008545,-0.602404859,-0.134434034,-0.770317698
41,107206,1666970,0.981,0.001,0.24,-1.5,-2.2,-2.9,-5.4,23.1,-20.8,0.15991699,-0.602435377,-0.134464553,-0.770287179
42,110083,1666970,0.974,0.001,0.24,-1.5,-2.3,-2.8,-5.4,23.1,-20.8,0.159855953,-0.602465896,-0.134495071,-0.770287179
43,111583,1666970,0.978,0.001,0.236,-1.6,-2.4,-2.8,-5.4,23.1,-20.8,0.159764397,-0.602526933,-0.134495071,-0.770256661
44,114793,1666970,0.985,0,0.236,-1.6,-2.4,-2.9,-5.4,23.1,-20.8,0.15970336,-0.602526933,-0.13452559,-0.770256661
45,116169,1666980,0.985,0,0.236,-1.7,-2.2,-2.8,-5.4,23.1,-20.8,0.159611805,-0.60258797,-0.134556108,-0.770226142
46,119170,1666980,0.985,0,0.232,-1.7,-2.1,-2.7,-5.4,23.1,-20.8,0.159550768,-0.602618488,-0.134556108,-0.770226142
47,122164,1666980,0.985,0.004,0.236,-1.6,-2.1,-2.7,-5.4,23.1,-20.8,0.159459212,-0.602649007,-0.134586627,-0.770195624
48,123735,1666980,0.978,0.004,0.232,-1.6,-2.2,-2.7,-5.4,23.1,-20.8,0.159398175,-0.602679525,-0.134586627,-0.770195624
49,126674,1666990,0.978,0.004,0.232,-1.6,-2.2,-2.7,-5.4,23.1,-20.8,0.159398175,-0.602679525,-0.134586627,-0.770195624
50,129956,1666990,0.981,0.004,0.236,-1.7,-2.1,-2.7,-5.4,23.1,-20.8,0.159306619,-0.602862636,-0.13452559,-0.770104068
51,131864,1666990,0.97,0.005,0.236,-1.7,-1.9,-2.6,-5.4,23.1,-20.8,0.159245582,-0.602893155,-0.13452559,-0.77007355
52,134852,1666990,0.974,0.001,0.24,-1.7,-1.7,-2.4,-5.4,23.1,-20.8,0.159154027,-0.602923673,-0.134556108,-0.77007355
53,136373,1667000,0.974,0.008,0.236,-1.7,-1.7,-2.2,-6.2,23.2,-20.5,0.15909299,-0.602954192,-0.134556108,-0.77007355
54,139351,1667000,0.97,0.005,0.24,-1.7,-1.8,-2.1,-6.2,23.2,-20.5,0.159031953,-0.60298471,-0.134556108,-0.770043031
55,142886,1667000,0.966,0.001,0.236,-1.8,-1.7,-2.1,-6.2,23.2,-20.5,0.158970916,-0.603015229,-0.134556108,-0.770043031
56,144788,1667000,0.966,0.005,0.232,-2,-1.7,-2.2,-6.2,23.2,-20.5,0.158909879,-0.603045747,-0.134556108,-0.770043031
57,146298,1667010,0.966,-0.002,0.236,-2,-1.6,-2.3,-6.2,23.2,-20.5,0.158818323,-0.603076266,-0.134556108,-0.770012513
58,149186,1667010,0.958,-0.002,0.229,-1.9,-1.5,-2.1,-6.2,23.2,-20.5,0.158757286,-0.603076266,-0.134556108,-0.770012513
59,151959,1667010,0.958,0.001,0.232,-1.7,-1.3,-2.2,-6.2,23.2,-20.5,0.158696249,-0.603106784,-0.134586627,-0.770012513
60,153659,1667010,0.958,-0.002,0.232,-1.6,-1.2,-2.2,-6.2,23.2,-20.5,0.158635212,-0.603137303,-0.134586627,-0.770012513
61,156701,1667020,0.962,-0.006,0.232,-1.5,-1.1,-2.3,-6.2,23.2,-20.5,0.158574175,-0.603137303,-0.134586627,-0.770012513
62,159830,1667020,0.958,-0.006,0.229,-1.3,-0.9,-2.3,-6.2,23.2,-20.5,0.158513138,-0.603167821,-0.134586627,-0.770012513
63,161391,1667020,0.962,-0.006,0.228,-1.1,-0.8,-2.3,-6.2,23.2,-20.5,0.158421583,-0.603167821,-0.134617145,-0.770012513
64,163629,1667020,0.962,-0.01,0.232,-0.8,-0.7,-2.2,-6.2,23.2,-20.5,0.158391064,-0.603167821,-0.134647664,-0.770012513
65,167408,1667030,0.962,-0.01,0.228,-0.6,-0.7,-2.2,-6.2,23.2,-20.5,0.158360546,-0.60319834,-0.134647664,-0.770012513
66,169383,1667030,0.962,-0.01,0.232,-0.5,-0.7,-2.3,-6.2,23.2,-20.5,0.158299509,-0.60319834,-0.134678182,-0.770012513
67,172783,1667030,0.962,-0.014,0.232,-0.4,-0.9,-2.1,-6.2,23.2,-20.5,0.15826899,-0.60319834,-0.134708701,-0.770012513
68,175031,1667030,0.962,-0.01,0.232,-0.3,-0.9,-2,-6.2,23.2,-20.5,0.158207953,-0.603228858,-0.134739219,-0.769981994
69,176532,1667040,0.962,-0.01,0.232,-0.3,-0.9,-2,-6.2,23.2,-20.5,0.158207953,-0.603228858,-0.134739219,-0.769981994
70,179345,1667040,0.966,-0.006,0.236,-0.4,-1,-2,-6.2,23.2,-20.5,0.15826899,-0.603320414,-0.134617145,-0.769920957
71,181803,1667040,0.966,-0.01,0.236,-0.4,-1.1,-2,-6.2,23.2,-20.5,0.158207953,-0.603350932,-0.134617145,-0.769920957
72,184027,1667040,0.966,-0.002,0.236,-0.3,-1.2,-1.9,-6.2,23.2,-20.5,0.158177435,-0.603350932,-0.134647664,-0.769920957
73,186335,1667050,0.966,-0.002,0.232,-0.3,-1.4,-1.8,-5.8,23.2,-20.5,0.158146916,-0.603381451,-0.134678182,-0.769890439
74,190073,1667050,0.966,0.001,0.236,-0.3,-1.5,-1.5,-5.8,23.2,-20.5,0.158085879,-0.603381451,-0.134678182,-0.769890439
75,192212,1667050,0.966,-0.002,0.232,-0.4,-1.6,-1.4,-5.8,23.2,-20.5,0.158055361,-0.603411969,-0.134708701,-0.76985992
76,193813,1667050,0.974,0.005,0.236,-0.4,-1.8,-1.3,-5.8,23.2,-20.5,0.158024842,-0.603442488,-0.134739219,-0.76985992
77,196920,1667060,0.974,0.005,0.236,-0.5,-1.9,-1.4,-5.8,23.2,-20.5,0.157994324,-0.603473006,-0.134739219,-0.769829402
78,200196,1667060,0.97,0.001,0.236,-0.6,-2,-1.4,-5.8,23.2,-20.5,0.157963805,-0.603503525,-0.134769738,-0.769829402
79,202258,1667060,0.974,0.005,0.24,-0.7,-1.9,-1.4,-5.8,23.2,-20.5,0.157902768,-0.603534043,-0.134769738,-0.769798883
80,205028,1667060,0.978,0.005,0.236,-0.8,-1.8,-1.2,-5.8,23.2,-20.5,0.15787225,-0.603564562,-0.134769738,-0.769768365
81,206611,1667070,0.981,0.008,0.236,-0.8,-1.8,-1,-5.8,23.2,-20.5,0.157841731,-0.60359508,-0.134769738,-0.769768365
82,210821,1667070,0.97,0.009,0.236,-0.9,-1.8,-0.9,-5.8,23.2,-20.5,0.157811213,-0.603625599,-0.134800256,-0.769737846
83,212772,1667070,0.974,0.008,0.232,-0.9,-1.9,-0.8,-5.8,23.2,-20.5,0.157780694,-0.603656117,-0.134800256,-0.769707327
84,214141,1667070,0.978,0.005,0.236,-0.9,-1.8,-0.8,-5.8,23.2,-20.5,0.157750175,-0.603717154,-0.134800256,-0.769707327
85,217313,1667080,0.974,0.008,0.232,-1,-1.8,-0.8,-5.8,23.2,-20.5,0.157719657,-0.603747673,-0.134800256,-0.769676809
86,218895,1667080,0.978,0.004,0.232,-0.9,-1.7,-0.9,-5.8,23.2,-20.5,0.157689138,-0.603778191,-0.134800256,-0.769676809
87,222814,1667080,0.978,0.008,0.228,-0.8,-1.6,-1.1,-5.8,23.2,-20.5,0.157628101,-0.603778191,-0.134800256,-0.76964629
88,224345,1667080,0.978,0.008,0.232,-0.7,-1.7,-1.1,-5.8,23.2,-20.5,0.157597583,-0.60380871,-0.134800256,-0.76964629
89,227327,1667090,0.978,0.008,0.232,-0.7,-1.7,-1.1,-5.8,23.2,-20.5,0.157597583,-0.60380871,-0.134800256,-0.76964629
90,228892,1667090,0.974,0.001,0.232,-0.4,-1.5,-1.1,-5.8,23.2,-20.5,0.157597583,-0.603961303,-0.134769738,-0.769554735
91,231852,1667090,0.97,0.009,0.232,-0.4,-1.4,-1.2,-5.8,23.2,-20.5,0.157567064,-0.603961303,-0.134769738,-0.769524216
92,234806,1667090,0.974,0.008,0.232,-0.3,-1.5,-1.3,-5.8,23.2,-20.5,0.157536546,-0.603991821,-0.134800256,-0.769524216
93,236371,1667100,0.974,0.005,0.228,-0.3,-1.5,-1.4,-5.8,23.2,-20.3,0.157506027,-0.60402234,-0.134800256,-0.769493698
94,239668,1667100,0.974,0.005,0.232,-0.3,-1.6,-1.4,-5.8,23.2,-20.3,0.15744499,-0.604052858,-0.134830775,-0.769493698
95,241405,1667100,0.97,0.005,0.232,-0.3,-1.6,-1.3,-5.8,23.2,-20.3,0.15744499,-0.604052858,-0.134861293,-0.769463179
96,243725,1667100,0.97,-0.002,0.232,-0.3,-1.6,-1.2,-5.8,23.2,-20.3,0.157414472,-0.604083377,-0.134861293,-0.769463179
97,246464,1667110,0.974,0.005,0.236,-0.2,-1.7,-1.3,-5.8,23.2,-20.3,0.157383953,-0.604113895,-0.134891812,-0.769432661
98,249647,1667110,0.974,0.001,0.232,-0.3,-1.8,-1.3,-5.8,23.2,-20.3,0.157353435,-0.604144414,-0.134891812,-0.769402142
99,251301,1667110,0.966,0.001,0.228,-0.3,-1.8,-1.4,-5.8,23.2,-20.3,0.157322916,-0.604174932,-0.13492233,-0.769402142
100,254397,1667110,0.97,0.005,0.232,-0.3,-1.8,-1.5,-5.8,23.2,-20.3,0.157292398,-0.604205451,-0.134952849,-0.769371624
101,256504,1667120,0.97,0.005,0.228,-0.4,-1.8,-1.4,-5.8,23.2,-20.3,0.157231361,-0.604235969,-0.134952849,-0.769371624
102,259521,1667120,0.97,0.005,0.228,-0.4,-1.7,-1.3,-5.8,23.2,-20.3,0.157200842,-0.604266488,-0.134983367,-0.769341105
103,261372,1667120,0.974,0.005,0.228,-0.4,-1.8,-1.2,-5.8,23.2,-20.3,0.157170324,-0.604297006,-0.134983367,-0.769310587
104,265472,1667120,0.97,0.005,0.232,-0.4,-2,-1.2,-5.8,23.2,-20.3,0.157139805,-0.604327525,-0.134983367,-0.769310587
105,267519,1667130,0.97,0.005,0.224,-0.5,-2.2,-1.3,-5.8,23.2,-20.3,0.157109287,-0.604358043,-0.134983367,-0.769280068
106,270406,1667130,0.966,0.005,0.228,-0.6,-2.2,-1.2,-5.8,23.2,-20.3,0.157078768,-0.604388562,-0.135044404,-0.76924955
107,272756,1667130,0.97,0.001,0.22,-0.7,-2.1,-1.1,-5.8,23.2,-20.3,0.15704825,-0.60441908,-0.135044404,-0.769219031
108,275162,1667130,0.97,0.001,0.228,-0.7,-2,-1.1,-5.8,23.2,-20.3,0.157017731,-0.604449599,-0.135044404,-0.769219031
109,277418,1667140,0.97,0.001,0.228,-0.7,-2,-1.1,-5.8,23.2,-20.3,0.157017731,-0.604449599,-0.135044404,-0.769219031
110,279403,1667140,0.966,0.005,0.228,-0.6,-1.8,-1,-5.8,23.2,-20.3,0.15704825,-0.604663228,-0.13492233,-0.769066439
111,281736,1667140,0.97,0.009,0.228,-0.6,-1.8,-1,-5.8,23.2,-20.3,0.157017731,-0.604693747,-0.13492233,-0.769066439
112,284035,1667140,0.974,0.008,0.228,-0.5,-1.8,-1.1,-5.8,23.2,-20.3,0.156987213,-0.604693747,-0.134952849,-0.76903592
113,287587,1667150,0.97,0.005,0.228,-0.5,-1.8,-1.1,-5.5,23,-21.4,0.156956694,-0.604724265,-0.134952849,-0.769005402
114,289719,1667150,0.974,0.008,0.224,-0.4,-1.8,-1,-5.5,23,-21.4,0.156926176,-0.604754784,-0.134952849,-0.769005402
115,291467,1667150,0.97,0.009,0.228,-0.4,-1.8,-0.9,-5.5,23,-21.4,0.156895657,-0.604785302,-0.134983367,-0.768974883
116,295614,1667150,0.97,0.008,0.224,-0.4,-1.8,-0.9,-5.5,23,-21.4,0.156895657,-0.604815821,-0.134983367,-0.768974883
117,297805,1667160,0.966,0.009,0.224,-0.3,-1.8,-0.9,-5.5,23,-21.4,0.156865139,-0.604846339,-0.134983367,-0.768944365
118,300212,1667160,0.974,0.005,0.228,-0.3,-1.8,-1,-5.5,23,-21.4,0.15683462,-0.604876858,-0.134983367,-0.768913846
119,302608,1667160,0.97,0.005,0.228,-0.4,-1.8,-1,-5.5,23,-21.4,0.156804102,-0.604907376,-0.134983367,-0.768913846
120,304545,1667160,0.97,0.005,0.228,-0.4,-1.8,-0.8,-5.5,23,-21.4,0.156773583,-0.604937895,-0.135044404,-0.768883328
121,306588,1667170,0.97,0.005,0.228,-0.5,-1.7,-0.9,-5.5,23,-21.4,0.156743065,-0.604968413,-0.135044404,-0.768852809
122,310637,1667170,0.974,0.005,0.228,-0.6,-1.7,-0.8,-5.5,23,-21.4,0.156712546,-0.604998932,-0.135044404,-0.768852809
123,312475,1667170,0.974,0.008,0.22,-0.7,-1.7,-0.9,-5.5,23,-21.4,0.156682028,-0.60502945,-0.135044404,-0.768822291
124,314568,1667170,0.97,0.009,0.228,-0.8,-1.7,-0.8,-5.5,23,-21.4,0.156651509,-0.605059969,-0.135044404,-0.768822291
125,316883,1667180,0.974,0.008,0.228,-0.9,-1.7,-0.7,-5.5,23,-21.4,0.156620991,-0.605090487,-0.135044404,-0.768791772
126,318658,1667180,0.966,0.005,0.228,-1,-1.8,-0.6,-5.5,23,-21.4,0.156590472,-0.605121006,-0.135044404,-0.768761254
127,321856,1667180,0.977,0.001,0.224,-1.1,-2,-0.7,-5.5,23,-21.4,0.156559954,-0.605151524,-0.135044404,-0.768761254
128,324868,1667180,0.974,0.005,0.224,-1.2,-2,-0.8,-5.5,23,-21.4,0.156529435,-0.605182043,-0.135044404,-0.768730735
129,327037,1667190,0.974,0.005,0.224,-1.2,-2,-0.8,-5.5,23,-21.4,0.156529435,-0.605182043,-0.135044404,-0.768730735
130,329545,1667190,0.974,0.005,0.228,-1.3,-2,-0.9,-5.5,23,-21.4,0.156590472,-0.605395672,-0.134891812,-0.768608661
131,332642,1667190,0.981,0.004,0.228,-1.3,-2,-1,-5.5,23,-21.4,0.156529435,-0.605426191,-0.134891812,-0.768578143
132,334816,1667190,0.981,0.004,0.228,-1.4,-2.1,-1,-5.5,23,-21.4,0.156468398,-0.605456709,-0.134861293,-0.768547624
133,336748,1667200,0.978,0.001,0.232,-1.4,-2.2,-1,-5.8,23.2,-21.9,0.156468398,-0.605487228,-0.134861293,-0.768547624
134,338866,1667200,0.978,0.001,0.232,-1.4,-2.3,-1,-5.8,23.2,-21.9,0.156407361,-0.605548265,-0.134861293,-0.768517106
135,341412,1667200,0.977,0.001,0.228,-1.4,-2.3,-0.9,-5.8,23.2,-21.9,0.156376843,-0.605578784,-0.134861293,-0.768486587
136,345314,1667200,0.977,0.001,0.228,-1.4,-2.2,-1,-5.8,23.2,-21.9,0.156315806,-0.605609302,-0.134861293,-0.768456069
137,347351,1667210,0.981,0.004,0.228,-1.4,-2.1,-0.9,-5.8,23.2,-21.9,0.156285287,-0.605670339,-0.134861293,-0.768456069
138,348849,1667210,0.981,0,0.224,-1.4,-2.1,-1,-5.8,23.2,-21.9,0.156254769,-0.605700858,-0.134861293,-0.76842555
139,351704,1667210,0.978,0.005,0.236,-1.4,-2.2,-1,-5.8,23.2,-21.9,0.156193731,-0.605731376,-0.134861293,-0.768395032
140,353935,1667210,0.981,0.004,0.228,-1.3,-2.3,-0.8,-5.8,23.2,-21.9,0.156163213,-0.605792413,-0.134861293,-0.768395032
141,356412,1667220,0.978,0.005,0.236,-1.2,-2.4,-0.8,-5.7,22.9,-20.4,0.156132694,-0.605822932,-0.134861293,-0.768364513
142,360061,1667220,0.981,0.004,0.232,-1.2,-2.5,-0.8,-5.7,22.9,-20.4,0.156071657,-0.60585345,-0.134861293,-0.768333995
143,361797,1667220,0.985,0,0.232,-1.2,-2.6,-0.8,-5.7,22.9,-20.4,0.156041139,-0.605914487,-0.134861293,-0.768303476
144,363679,1667220,0.981,0.004,0.232,-1.2,-2.6,-0.7,-5.7,22.9,-20.4,0.15601062,-0.605975524,-0.134861293,-0.768272958
145,366229,1667230,0.974,0.008,0.232,-1.2,-2.6,-0.6,-6.1,23.1,-20.9,0.155980102,-0.606006043,-0.134830775,-0.768242439
146,370370,1667230,0.978,0.008,0.228,-1.1,-2.5,-0.4,-6.1,23.1,-20.9,0.155949583,-0.60606708,-0.134830775,-0.768211921
147,372667,1667230,0.974,0.008,0.228,-1.1,-2.4,-0.4,-6.1,23.1,-20.9,0.155919065,-0.606097598,-0.134830775,-0.768181402
148,374189,1667230,0.981,0.008,0.228,-1,-2.4,-0.4,-6.1,23.1,-20.9,0.155888546,-0.606128117,-0.134830775,-0.768150884
149,376188,1667240,0.981,0.008,0.228,-1,-2.4,-0.4,-6.1,23.1,-20.9,0.155888546,-0.606128117,-0.134830775,-0.768150884
150,380566,1667240,0.974,0.012,0.224,-0.9,-2.6,-0.2,-5.9,23.1,-21.8,0.155919065,-0.606280709,-0.134739219,-0.768059328
151,381209,1667240,0.977,0.012,0.22,-0.8,-2.5,-0.1,-5.9,23.1,-21.8,0.155888546,-0.606341746,-0.134708701,-0.768028809
152,383642,1667240,0.974,0.012,0.224,-0.7,-2.4,0,-5.9,23.1,-21.8,0.155858028,-0.606372265,-0.134708701,-0.767998291
153,386123,1667250,0.977,0.012,0.224,-0.6,-2.3,0,-5.9,22.9,-20.6,0.155858028,-0.606402783,-0.134708701,-0.767967772
154,390234,1667250,0.977,0.012,0.224,-0.4,-2.3,0,-5.9,22.9,-20.6,0.155858028,-0.606433302,-0.134708701,-0.767937254
155,391409,1667250,0.977,0.012,0.216,-0.4,-2.3,0,-5.9,22.9,-20.6,0.155827509,-0.606494339,-0.134708701,-0.767906735
156,394777,1667250,0.977,0.012,0.216,-0.4,-2.3,0.2,-5.9,22.9,-20.6,0.155827509,-0.606524857,-0.134708701,-0.767876217
157,396367,1667260,0.97,0.012,0.22,-0.4,-2.2,0.3,-5.7,23,-20.7,0.155827509,-0.606585894,-0.134708701,-0.767845698
158,400419,1667260,0.977,0.016,0.216,-0.4,-2.1,0.5,-5.7,23,-20.7,0.155827509,-0.606616413,-0.134708701,-0.76781518
159,402282,1667260,0.97,0.016,0.22,-0.5,-1.8,0.5,-5.7,23,-20.7,0.155796991,-0.606646931,-0.134678182,-0.767784661
160,404597,1667260,0.974,0.016,0.216,-0.6,-1.7,0.5,-5.7,23,-20.7,0.155796991,-0.60667745,-0.134678182,-0.767754143
161,407394,1667270,0.97,0.016,0.224,-0.7,-1.6,0.5,-5.8,23.1,-20.5,0.155796991,-0.606707968,-0.134647664,-0.767754143
162,409155,1667270,0.97,0.016,0.217,-0.7,-1.5,0.6,-5.8,23.1,-20.5,0.155796991,-0.606738487,-0.134647664,-0.767723624
163,411909,1667270,0.97,0.016,0.224,-0.7,-1.3,0.6,-5.8,23.1,-20.5,0.155796991,-0.606769005,-0.134617145,-0.767723624
164,414235,1667270,0.974,0.016,0.216,-0.9,-1.2,0.5,-5.8,23.1,-20.5,0.155796991,-0.606799524,-0.134617145,-0.767693106
165,417825,1667280,0.962,0.016,0.217,-0.9,-1.2,0.4,-5.3,23.7,-20.6,0.155766472,-0.606830042,-0.134586627,-0.767693106
166,420136,1667280,0.97,0.012,0.217,-1,-1.1,0.2,-5.3,23.7,-20.6,0.155766472,-0.606860561,-0.134586627,-0.767662587
167,422483,1667280,0.97,0.012,0.213,-1.2,-1,0.3,-5.3,23.7,-20.6,0.155766472,-0.606860561,-0.134556108,-0.767662587
168,424312,1667280,0.97,0.012,0.217,-1.5,-0.9,0.2,-5.3,23.7,-20.6,0.155735954,-0.606891079,-0.13452559,-0.767632069
169,428272,1667290,0.97,0.012,0.217,-1.5,-0.9,0.2,-5.3,23.7,-20.6,0.155735954,-0.606891079,-0.13452559,-0.767632069
170,430106,1667290,0.966,0.012,0.213,-2,-0.7,0.2,-5.9,23.1,-20.9,0.155705435,-0.607043672,-0.134434034,-0.767540513
171,432659,1667290,0.97,0.012,0.217,-2.1,-0.8,0.2,-5.9,23.1,-20.9,0.155674917,-0.60707419,-0.134403516,-0.767540513
172,435194,1667290,0.97,0.012,0.217,-2.4,-0.8,0.1,-5.9,23.1,-20.9,0.155644398,-0.607104709,-0.134372997,-0.767540513
173,437160,1667300,0.97,0.012,0.217,-2.6,-0.9,0,-5.9,23.4,-19.4,0.15561388,-0.607135228,-0.13431196,-0.767509995
174,439377,1667300,0.97,0.012,0.217,-2.6,-0.9,0.1,-5.9,23.4,-19.4,0.155583361,-0.607165746,-0.134281442,-0.767509995
175,441519,1667300,0.974,0.012,0.22,-2.7,-1.1,0.1,-5.9,23.4,-19.4,0.155491806,-0.607165746,-0.134250923,-0.767509995
176,444462,1667300,0.974,0.012,0.216,-2.8,-1.2,0.1,-5.9,23.4,-19.4,0.155491806,-0.607226783,-0.134189886,-0.767509995
177,446434,1667310,0.974,0.012,0.213,-2.9,-1.3,0,-5.7,22.7,-21.1,0.155461287,-0.607257302,-0.134159368,-0.767479476
178,449501,1667310,0.977,0.012,0.216,-3,-1.4,0,-5.7,22.7,-21.1,0.15540025,-0.60728782,-0.134098331,-0.767479476
179,451611,1667310,0.974,0.012,0.216,-3.2,-1.6,0.1,-5.7,22.7,-21.1,0.155369732,-0.607318339,-0.134006775,-0.767479476
180,455060,1667310,0.974,0.012,0.216,-3.2,-1.7,0.1,-5.7,22.7,-21.1,0.155308695,-0.607348857,-0.134006775,-0.767448958
181,456918,1667320,0.977,0.012,0.212,-3.3,-1.8,0.1,-5.7,22.3,-21.4,0.155278176,-0.607409894,-0.133945738,-0.767448958
182,459421,1667320,0.981,0.016,0.216,-3.2,-1.9,0.2,-5.7,22.3,-21.4,0.155217139,-0.607440413,-0.133884701,-0.767418439
183,462505,1667320,0.977,0.012,0.212,-3.2,-2,0.3,-5.7,22.3,-21.4,0.155186621,-0.60750145,-0.133854183,-0.767387921
184,464483,1667320,0.977,0.012,0.212,-3,-2.1,0.4,-5.7,22.3,-21.4,0.155156102,-0.607531968,-0.133793146,-0.767387921
185,466909,1667330,0.974,0.024,0.213,-2.9,-2.3,0.4,-5.7,22.3,-21.1,0.155095065,-0.607593005,-0.133732109,-0.767357402
186,468924,1667330,0.974,0.02,0.216,-2.8,-2.6,0.4,-5.7,22.3,-21.1,0.155064547,-0.607654042,-0.13370159,-0.767326884
187,471403,1667330,0.974,0.024,0.209,-2.7,-2.8,0.5,-5.7,22.3,-21.1,0.155034028,-0.607715079,-0.133671072,-0.767296365
188,474490,1667330,0.974,0.028,0.213,-2.7,-3.2,0.8,-5.7,22.3,-21.1,0.15500351,-0.607776116,-0.133610034,-0.767265847
189,476698,1667340,0.974,0.028,0.213,-2.7,-3.2,0.8,-5.7,22.3,-21.1,0.15500351,-0.607776116,-0.133610034,-0.767265847
190,480130,1667340,0.974,0.04,0.205,-2.6,-3.6,1.2,-5.7,22.2,-21.2,0.154881436,-0.608050783,-0.133610034,-0.767082736
191,482656,1667340,0.977,0.043,0.201,-2.5,-3.7,1.4,-5.7,22.2,-21.2,0.154850917,-0.60811182,-0.133548997,-0.767021699
192,484307,1667340,0.974,0.047,0.201,-2.5,-3.7,1.6,-5.7,22.2,-21.2,0.154820399,-0.608203375,-0.133518479,-0.766960662
193,486399,1667350,0.974,0.055,0.197,-2.5,-3.7,1.8,-5.8,24.3,-19.5,0.154820399,-0.608264412,-0.133457442,-0.766930143
194,490463,1667350,0.974,0.059,0.189,-2.6,-4,2,-5.8,24.3,-19.5,0.154820399,-0.608355968,-0.133396405,-0.766869106
195,491996,1667350,0.974,0.067,0.197,-2.7,-4.3,2,-5.8,24.3,-19.5,0.15478988,-0.608447523,-0.133335368,-0.766808069
196,493867,1667350,0.97,0.075,0.197,-2.8,-4.6,2.1,-5.8,24.3,-19.5,0.15478988,-0.608539079,-0.133274331,-0.766747032
197,496472,1667360,0.97,0.086,0.189,-3,-4.9,2.2,-5.7,23.2,-21.2,0.154759362,-0.608630634,-0.133213294,-0.766685995
198,500361,1667360,0.974,0.086,0.185,-3.2,-5.1,2.4,-5.7,23.2,-21.2,0.154759362,-0.608752709,-0.133152257,-0.76659444
199,502116,1667360,0.97,0.083,0.185,-3.4,-5.1,2.5,-5.7,23.2,-21.2,0.154728843,-0.608844264,-0.133030183,-0.766563921
200,505199,1667360,0.97,0.094,0.177,-3.7,-4.9,2.6,-5.7,23.2,-21.2,0.154698325,-0.60893582,-0.132999664,-0.766502884
201,507577,1667370,0.97,0.09,0.185,-3.9,-4.7,2.6,-5.8,23.2,-20.7,0.154698325,-0.609057894,-0.132908109,-0.766441847
202,509366,1667370,0.974,0.094,0.177,-4.4,-4.5,2.4,-5.8,23.2,-20.7,0.154667806,-0.609149449,-0.132816553,-0.76638081
203,511618,1667370,0.974,0.094,0.177,-4.9,-4.3,2.2,-5.8,23.2,-20.7,0.154606769,-0.609241005,-0.132724998,-0.766319773
204,513687,1667370,0.974,0.094,0.177,-5.4,-4.2,2,-5.8,23.2,-20.7,0.15457625,-0.60933256,-0.132602924,-0.766289254
205,517986,1667380,0.97,0.086,0.173,-6.1,-3.9,2,-5.7,23.8,-21.1,0.154515213,-0.609424116,-0.13248085,-0.766228217
206,520118,1667380,0.974,0.09,0.173,-6.8,-3.6,1.8,-5.7,23.8,-21.1,0.154423658,-0.609515671,-0.132358776,-0.766197699
207,521998,1667380,0.974,0.086,0.177,-7.6,-3.3,1.6,-5.7,23.8,-21.1,0.154362621,-0.609607227,-0.132236702,-0.76616718
208,523695,1667380,0.974,0.086,0.173,-8.3,-3.2,1.3,-5.7,23.8,-21.1,0.154240547,-0.609698782,-0.132053591,-0.766136662
209,527801,1667390,0.974,0.086,0.173,-8.3,-3.2,1.3,-5.7,23.8,-21.1,0.154240547,-0.609698782,-0.132053591,-0.766136662
210,530208,1667390,0.974,0.086,0.177,-10,-2.9,1,-5.7,24,-20.9,0.153233436,-0.610248115,-0.132724998,-0.765800958
211,532248,1667390,0.981,0.082,0.177,-11,-2.7,0.8,-5.7,24,-20.9,0.153111362,-0.610339671,-0.132541887,-0.765800958
212,534351,1667390,0.977,0.075,0.173,-12.1,-2.7,0.7,-5.7,24,-20.9,0.152958769,-0.610431227,-0.132328257,-0.765800958
213,536481,1667400,0.985,0.078,0.177,-13.1,-2.7,0.6,-5.8,23.8,-20.2,0.152775658,-0.610522782,-0.132114628,-0.765800958
214,538916,1667400,0.989,0.067,0.181,-14.1,-2.9,0.5,-5.8,23.8,-20.2,0.152562029,-0.610614338,-0.131870479,-0.765800958
215,542248,1667400,0.993,0.07,0.177,-15.1,-2.9,0.4,-5.8,23.8,-20.2,0.152378918,-0.610705893,-0.131626331,-0.765800958
216,543853,1667400,0.997,0.07,0.185,-15.9,-3,0.3,-5.8,23.8,-20.2,0.152165288,-0.610827967,-0.131382183,-0.765800958
217,546645,1667410,0.997,0.074,0.185,-16.8,-3.2,0.2,-6,23.5,-20.4,0.151951659,-0.610919523,-0.131076998,-0.765800958
218,548668,1667410,1.005,0.074,0.173,-17.6,-3.4,0.2,-6,23.5,-20.4,0.151707511,-0.611041597,-0.130802332,-0.765800958
219,551179,1667410,1.005,0.07,0.181,-18.2,-3.6,0.1,-6,23.5,-20.4,0.151432844,-0.611163671,-0.130527665,-0.765800958
220,554583,1667410,1.009,0.078,0.18,-18.7,-3.9,0.2,-6,23.5,-20.4,0.151188696,-0.611285745,-0.13022248,-0.765800958
221,556841,1667420,1.005,0.082,0.177,-19.2,-4.1,0.3,-5.6,23.7,-20.1,0.150914029,-0.611438337,-0.129917295,-0.765800958
222,559075,1667420,1.013,0.086,0.184,-19.9,-4.3,0.4,-5.6,23.7,-20.1,0.150669881,-0.611560411,-0.129581591,-0.765800958
223,562348,1667420,1.009,0.078,0.18,-20.5,-4.3,0.5,-5.6,23.7,-20.1,0.150364696,-0.611713004,-0.129245888,-0.765800958
224,563858,1667420,1.009,0.082,0.188,-21,-4.3,0.7,-5.6,23.7,-20.1,0.15009003,-0.611865596,-0.128910184,-0.765800958
225,568075,1667430,1.013,0.074,0.184,-21.6,-4.3,0.9,-5.5,24,-20.1,0.149815363,-0.611987671,-0.128543962,-0.765800958
226,570655,1667430,1.013,0.078,0.184,-22,-4.1,1.1,-5.5,24,-20.1,0.149540696,-0.612140263,-0.128147221,-0.765800958
227,571140,1667430,1.013,0.082,0.184,-22.5,-3.9,1.4,-5.5,24,-20.1,0.149235511,-0.612292856,-0.127780999,-0.765800958
228,574014,1667430,1.013,0.086,0.188,-23.1,-3.8,1.4,-5.5,24,-20.1,0.148930326,-0.61241493,-0.127384259,-0.765800958
229,577729,1667440,1.013,0.086,0.188,-23.1,-3.8,1.4,-5.5,24,-20.1,0.148930326,-0.61241493,-0.127384259,-0.765800958
230,579804,1667440,1.009,0.078,0.184,-24.7,-3.9,1.6,-5.2,24.1,-19.7,0.148106326,-0.612842189,-0.126834925,-0.765739921
231,582231,1667440,1.009,0.074,0.18,-25.6,-4.1,1.7,-5.2,24.1,-19.7,0.147770623,-0.612994781,-0.126407666,-0.765739921
232,583773,1667440,1.009,0.082,0.18,-26.4,-4.2,1.7,-5.2,24.1,-19.7,0.147434919,-0.613177892,-0.125949889,-0.765739921
233,586861,1667450,1.005,0.07,0.177,-27.2,-4.1,1.7,-5.8,23.5,-19.6,0.147099216,-0.613330485,-0.125492111,-0.76577044
234,589189,1667450,1.009,0.062,0.173,-27.9,-4,1.9,-5.8,23.5,-19.6,0.146702475,-0.613483077,-0.125003815,-0.76577044
235,592670,1667450,1.009,0.07,0.169,-28.4,-3.8,2.1,-5.8,23.5,-19.6,0.14639729,-0.613666189,-0.124515519,-0.765800958
236,595305,1667450,1.009,0.058,0.169,-28.9,-3.6,2.3,-5.8,23.5,-19.6,0.146031068,-0.613818781,-0.123996704,-0.765831477
237,596895,1667460,1.005,0.066,0.169,-29.3,-3.4,2.4,-5.7,24.1,-19.6,0.145664846,-0.613971374,-0.123477889,-0.765831477
238,599188,1667460,1.009,0.062,0.169,-29.8,-3.3,2.5,-5.7,24.1,-19.6,0.145298624,-0.614123966,-0.122959075,-0.765861995
239,602188,1667460,1.005,0.058,0.173,-30.3,-3.3,2.5,-5.7,24.1,-19.6,0.144932402,-0.61424604,-0.12244026,-0.765892514
240,605535,1667460,1.001,0.058,0.169,-30.7,-3.2,2.6,-5.7,24.1,-19.6,0.144566179,-0.61445967,-0.121890927,-0.765923032
241,607406,1667470,1.005,0.055,0.169,-31.1,-3.1,2.7,-5.8,24.2,-19.9,0.144169439,-0.614612262,-0.121341594,-0.765953551
242,608741,1667470,1.001,0.055,0.161,-31.5,-3,2.8,-5.8,24.2,-19.9,0.143772698,-0.614764855,-0.120792261,-0.765984069
243,611854,1667470,1.005,0.051,0.165,-32,-2.8,2.7,-5.8,24.2,-19.9,0.143406476,-0.614917447,-0.120212409,-0.766045106
244,614157,1667470,1.009,0.047,0.169,-32.7,-2.6,2.7,-5.8,24.2,-19.9,0.143009735,-0.61507004,-0.119663076,-0.766075625
245,617590,1667480,1.005,0.047,0.169,-33.3,-2.3,2.7,-6.1,24.4,-19.3,0.142582476,-0.615222633,-0.119083224,-0.766106143
246,619966,1667480,1.009,0.039,0.169,-34,-1.8,2.8,-6.1,24.4,-19.3,0.142185736,-0.615375225,-0.118472854,-0.76616718
247,622365,1667480,1.005,0.035,0.169,-34.7,-1.3,2.8,-6.1,24.4,-19.3,0.141758477,-0.615497299,-0.117862484,-0.766228217
248,623900,1667480,1.012,0.023,0.165,-35.5,-0.8,2.8,-6.1,24.4,-19.3,0.141331217,-0.615649892,-0.117221595,-0.766319773
249,626115,1667490,1.012,0.023,0.165,-35.5,-0.8,2.8,-6.1,24.4,-19.3,0.141331217,-0.615649892,-0.117221595,-0.766319773
250,629969,1667490,1.008,0.015,0.165,-37.2,0,2.9,-6.8,24.3,-19.3,0.140171514,-0.61629078,-0.116245003,-0.766136662
251,632366,1667490,1.012,0.007,0.165,-38,0.6,2.9,-6.8,24.3,-19.3,0.139713736,-0.616412854,-0.115573595,-0.766228217
252,634285,1667490,1.012,0.007,0.165,-38.7,1.4,2.8,-6.8,24.3,-19.3,0.13922544,-0.61650441,-0.114841151,-0.766350291
253,637705,1667500,1.012,0,0.165,-39.3,2.3,2.7,-5.3,23.6,-19.2,0.138767663,-0.616595965,-0.114169744,-0.766472365
254,640189,1667500,1.008,-0.019,0.181,-39.8,3.2,2.5,-5.3,23.6,-19.2,0.138279366,-0.616687521,-0.113467818,-0.76659444
255,642036,1667500,1.008,-0.023,0.173,-40.2,3.9,2.4,-5.3,23.6,-19.2,0.13779107,-0.616748558,-0.112735374,-0.766747032
256,645431,1667500,1.008,-0.027,0.177,-40.4,4.5,2.2,-5.3,23.6,-19.2,0.137272256,-0.616779077,-0.112033448,-0.766899625
257,647437,1667510,1,-0.038,0.177,-40.5,4.9,2,-6.9,24.9,-19,0.136783959,-0.616840114,-0.111301004,-0.767052217
258,649062,1667510,0.993,-0.046,0.189,-40.6,5.1,1.9,-6.9,24.9,-19,0.136295663,-0.616870632,-0.11056856,-0.76720481
259,651261,1667510,0.993,-0.046,0.185,-40.5,5.2,1.9,-6.9,24.9,-19,0.135776849,-0.616901151,-0.109866634,-0.767387921
260,654408,1667510,0.985,-0.05,0.189,-40.5,5.2,2,-6.9,24.9,-19,0.135288553,-0.616931669,-0.10913419,-0.767540513
261,656855,1667520,0.981,-0.053,0.189,-40.4,5.2,2.1,-6.7,25,-19.2,0.134800256,-0.616962188,-0.108432264,-0.767693106
262,659117,1667520,0.973,-0.057,0.189,-40.1,5,2.3,-6.7,25,-19.2,0.13431196,-0.617023225,-0.10769982,-0.767845698
263,661335,1667520,0.977,-0.053,0.197,-39.7,4.7,2.5,-6.7,25,-19.2,0.133823664,-0.617053743,-0.106997894,-0.767998291
264,663841,1667520,0.969,-0.061,0.193,-39.1,4.3,2.6,-6.7,25,-19.2,0.133335368,-0.61711478,-0.10626545,-0.768150884
265,667689,1667530,0.965,-0.041,0.193,-38.6,4,2.8,-6.8,25,-18.9,0.13287759,-0.617145299,-0.105563524,-0.768272958
266,669890,1667530,0.965,-0.045,0.201,-37.9,3.7,2.8,-6.8,25,-18.9,0.132419813,-0.617206336,-0.104892117,-0.76842555
267,671675,1667530,0.965,-0.037,0.197,-37.1,3.3,2.9,-6.8,25,-18.9,0.131992553,-0.617267373,-0.10422071,-0.768547624
268,674109,1667530,0.962,-0.045,0.193,-36.2,2.8,3.1,-6.8,25,-18.9,0.131565294,-0.61732841,-0.103579821,-0.76863918
269,676361,1667540,0.962,-0.045,0.193,-36.2,2.8,3.1,-6.8,25,-18.9,0.131565294,-0.61732841,-0.103579821,-0.76863918
270,678713,1667540,0.95,-0.022,0.193,-34.2,1.7,3.2,-6.3,25.3,-19.1,0.130863369,-0.617603076,-0.102145451,-0.768730735
271,682355,1667540,0.95,-0.025,0.193,-33.3,1.1,3.4,-6.3,25.3,-19.1,0.130466628,-0.617694632,-0.101535081,-0.768822291
272,684571,1667540,0.95,-0.018,0.193,-32.4,0.5,3.5,-6.3,25.3,-19.1,0.130100406,-0.617786187,-0.100955229,-0.768883328
273,686792,1667550,0.95,-0.006,0.19,-31.7,0,3.6,-5.2,24.7,-18.5,0.129734184,-0.617877743,-0.100375378,-0.768944365
274,688941,1667550,0.95,0.001,0.197,-30.9,-0.2,3.7,-5.2,24.7,-18.5,0.129367962,-0.617969298,-0.099795526,-0.769005402
275,692000,1667550,0.95,0.001,0.193,-30.2,-0.3,3.7,-5.2,24.7,-18.5,0.129032258,-0.618091372,-0.0992156743,-0.76903592
276,694178,1667550,0.95,0.009,0.19,-29.7,-0.3,3.8,-5.2,24.7,-18.5,0.128696554,-0.618152409,-0.0986968596,-0.769096957
277,696975,1667560,0.946,0.009,0.193,-29.2,-0.1,3.8,-6,24.9,-18.1,0.128360851,-0.618274483,-0.0981475265,-0.769157994
278,698869,1667560,0.95,0.013,0.19,-28.9,0.1,3.8,-6,24.9,-18.1,0.128025147,-0.618366039,-0.0975981933,-0.769188513
279,703128,1667560,0.95,0.013,0.193,-28.7,0.3,3.8,-6,24.9,-18.1,0.127719962,-0.618427076,-0.0970793786,-0.76924955
280,704975,1667560,0.954,0.012,0.189,-28.7,0.6,3.8,-6,24.9,-18.1,0.127384259,-0.618518632,-0.0965300455,-0.769310587
281,707011,1667570,0.946,0.013,0.193,-28.9,0.8,3.8,-6.1,25.3,-18.3,0.127079073,-0.618579669,-0.0959807123,-0.769371624
282,709929,1667570,0.95,0.016,0.193,-29.1,1.2,3.6,-6.1,25.3,-18.3,0.12674337,-0.618640706,-0.0954618976,-0.769432661
283,712636,1667570,0.95,0.016,0.189,-29.4,1.5,3.4,-6.1,25.3,-18.3,0.126407666,-0.618701743,-0.0949125645,-0.769524216
284,714323,1667570,0.946,0.017,0.19,-29.7,1.9,3.1,-6.1,25.3,-18.3,0.126041444,-0.61876278,-0.0943327128,-0.769585253
285,716453,1667580,0.95,0.013,0.186,-30,2.4,2.9,-5.8,25.3,-17.9,0.125705741,-0.618823817,-0.0938138981,-0.769676809
286,719837,1667580,0.946,0.013,0.186,-30.3,2.7,2.7,-5.8,25.3,-17.9,0.125339518,-0.618854335,-0.093264565,-0.769768365
287,721714,1667580,0.95,0.013,0.193,-30.7,3,2.4,-5.8,25.3,-17.9,0.124973296,-0.618884854,-0.0926847133,-0.76985992
288,723919,1667580,0.95,0.013,0.19,-31.1,3.4,2.1,-5.8,25.3,-17.9,0.124607074,-0.618915372,-0.0921353801,-0.769981994
289,726525,1667590,0.95,0.013,0.19,-31.1,3.4,2.1,-5.8,25.3,-17.9,0.124607074,-0.618915372,-0.0921353801,-0.769981994
290,728789,1667590,0.942,0.009,0.194,-32.2,4.1,1.6,-5.2,25.3,-17.7,0.123630482,-0.619129002,-0.0911893063,-0.77007355
291,733154,1667590,0.946,0.009,0.197,-32.7,4.2,1.3,-5.2,25.3,-17.7,0.123233741,-0.61915952,-0.0906094546,-0.770195624
292,735273,1667590,0.946,0.009,0.201,-33.3,4.3,1,-5.2,25.3,-17.7,0.122806482,-0.619190039,-0.090029603,-0.770317698
293,737146,1667600,0.942,0.009,0.205,-33.9,4.2,0.8,-5.7,25.3,-17.9,0.122379223,-0.619190039,-0.0894497513,-0.770439772
294,739319,1667600,0.946,0.013,0.217,-34.6,4.1,0.6,-5.7,25.3,-17.9,0.121921445,-0.619220557,-0.0888393811,-0.770561846
295,741631,1667600,0.938,0.013,0.225,-35.6,4.1,0.5,-5.7,25.3,-17.9,0.121463668,-0.619251076,-0.0882290109,-0.77068392
296,744902,1667600,0.919,0.002,0.221,-36.8,4.2,0.4,-5.7,25.3,-17.9,0.120975372,-0.619281594,-0.0875881222,-0.770805994
297,746873,1667610,0.903,-0.013,0.194,-38.2,4.1,0,-5.6,25.2,-17.6,0.120456557,-0.619312113,-0.086916715,-0.770928068
298,749109,1667610,0.919,-0.017,0.186,-39.1,4.1,-0.7,-5.6,25.2,-17.6,0.119937742,-0.619342631,-0.0862758263,-0.77108066
299,752424,1667610,0.923,-0.013,0.186,-38.6,4,-1.6,-5.6,25.2,-17.6,0.119388409,-0.61937315,-0.0856349376,-0.771202734
300,754444,1667610,0.934,-0.017,0.19,-37,3.8,-2.4,-5.6,25.2,-17.6,0.118869594,-0.619403668,-0.0850245674,-0.771324808
301,756775,1667620,0.946,-0.018,0.186,-35.3,3.2,-2.9,-6,25.2,-18.2,0.118320261,-0.619434187,-0.0844752342,-0.771446883
302,759874,1667620,0.942,-0.01,0.194,-34,2,-3.2,-6,25.2,-18.2,0.117831965,-0.619464705,-0.0839259011,-0.771538438
303,761340,1667620,0.942,-0.01,0.194,-33.5,0.7,-3.4,-6,25.2,-18.2,0.117282632,-0.619556261,-0.0834070864,-0.771629994
304,764355,1667620,0.95,-0.006,0.197,-33.6,-0.4,-3.3,-6,25.2,-18.2,0.116794336,-0.619617298,-0.0828882717,-0.771691031
305,766792,1667630,0.95,-0.002,0.197,-34.3,-1.3,-3.2,-6,25.6,-17.6,0.116275521,-0.619739372,-0.0823694571,-0.771721549
306,768895,1667630,0.954,-0.002,0.193,-35.2,-1.9,-3,-6,25.6,-17.6,0.115756706,-0.619861446,-0.0818201239,-0.771782586
307,771981,1667630,0.954,-0.002,0.201,-36.2,-2.3,-3,-6,25.6,-17.6,0.115207373,-0.61998352,-0.0812402722,-0.771813105
308,774232,1667630,0.954,-0.002,0.197,-37.2,-2.6,-2.9,-6,25.6,-17.6,0.11465804,-0.620105594,-0.0806604205,-0.771843623
309,777414,1667640,0.954,-0.002,0.197,-37.2,-2.6,-2.9,-6,25.6,-17.6,0.11465804,-0.620105594,-0.0806604205,-0.771843623
310,778848,1667640,0.958,-0.002,0.189,-39,-2.9,-3.1,-6,25.6,-17.4,0.113376263,-0.620502335,-0.0795617542,-0.771843623
311,782970,1667640,0.958,-0.002,0.193,-39.7,-2.8,-3.3,-6,25.6,-17.4,0.11282693,-0.620624409,-0.0789208655,-0.771874142
312,785165,1667640,0.962,-0.006,0.185,-40.3,-2.8,-3.7,-6,25.6,-17.4,0.112216559,-0.620777001,-0.0783104953,-0.771935179
313,787454,1667650,0.962,-0.014,0.185,-40.9,-2.8,-4,-6.4,25.7,-17.5,0.111575671,-0.620899075,-0.0776696066,-0.771965697
314,789485,1667650,0.958,-0.018,0.189,-41.4,-2.8,-4.5,-6.4,25.7,-17.5,0.110934782,-0.621051668,-0.0770592364,-0.771996216
315,791884,1667650,0.962,-0.018,0.185,-41.7,-2.9,-5.1,-6.4,25.7,-17.5,0.110263375,-0.62120426,-0.0764183477,-0.772057253
316,794005,1667650,0.965,-0.026,0.185,-42.2,-2.9,-5.6,-6.4,25.7,-17.5,0.109591968,-0.621326334,-0.075777459,-0.772087771
317,796401,1667660,0.961,-0.037,0.182,-42.6,-2.7,-6.3,-5,25.4,-16.8,0.10892056,-0.621478927,-0.0751670888,-0.772148808
318,798646,1667660,0.962,-0.034,0.189,-43,-2.7,-6.9,-5,25.4,-16.8,0.108218635,-0.621601001,-0.0745567186,-0.772209845
319,802278,1667660,0.961,-0.045,0.182,-43.4,-2.6,-7.6,-5,25.4,-16.8,0.10748619,-0.621753594,-0.07391583,-0.772240364
320,805282,1667660,0.958,-0.053,0.186,-43.6,-2.7,-8.4,-5,25.4,-16.8,0.106753746,-0.621875668,-0.0733054598,-0.772301401
321,807682,1667670,0.958,-0.057,0.189,-43.8,-2.8,-9.2,-5.1,26.1,-17,0.105990783,-0.62202826,-0.0726950896,-0.772362438
322,809906,1667670,0.95,-0.057,0.19,-44,-3,-10.1,-5.1,26.1,-17,0.105227821,-0.622150334,-0.0721152379,-0.772392956
323,811875,1667670,0.958,-0.069,0.193,-44.1,-3.1,-10.9,-5.1,26.1,-17,0.104434339,-0.622302927,-0.0715048677,-0.772453993
324,814121,1667670,0.954,-0.069,0.197,-44.2,-3.2,-11.6,-5.1,26.1,-17,0.10361034,-0.622425001,-0.0708944975,-0.77251503
325,817420,1667680,0.954,-0.072,0.197,-44.3,-3.3,-12.3,-5.5,26.1,-16.7,0.102816858,-0.622577593,-0.0703756829,-0.772545549
326,819572,1667680,0.954,-0.076,0.205,-44.5,-3.3,-13,-5.5,26.1,-16.7,0.101992859,-0.622699667,-0.0697958312,-0.772606586
327,821673,1667680,0.95,-0.08,0.201,-44.8,-3.5,-13.6,-5.5,26.1,-16.7,0.10113834,-0.62285226,-0.069246498,-0.772667623
328,824843,1667680,0.954,-0.084,0.201,-45,-3.8,-14.3,-5.5,26.1,-16.7,0.100283822,-0.622974334,-0.0686666463,-0.772698141
329,826344,1667690,0.954,-0.084,0.201,-45,-3.8,-14.3,-5.5,26.1,-16.7,0.100283822,-0.622974334,-0.0686666463,-0.772698141
330,829240,1667690,0.946,-0.08,0.205,-45.3,-4.7,-15.7,-5.2,26.1,-16.4,0.0990936003,-0.623493149,-0.0668660543,-0.772606586
331,832341,1667690,0.946,-0.088,0.198,-45.6,-5.2,-16.3,-5.2,26.1,-16.4,0.098178045,-0.623645741,-0.0663167211,-0.772637104
332,834495,1667690,0.946,-0.084,0.194,-45.9,-5.7,-17,-5.2,26.1,-16.4,0.0972624897,-0.623828852,-0.0657979064,-0.772667623
333,836577,1667700,0.946,-0.084,0.205,-46.1,-6.3,-17.6,-7.1,26.1,-16.7,0.0963469344,-0.624011963,-0.0652790918,-0.772667623
334,839870,1667700,0.961,-0.076,0.205,-46.1,-7.1,-18.3,-7.1,26.1,-16.7,0.0954008606,-0.624195074,-0.0647602771,-0.772698141
335,841846,1667700,0.961,-0.065,0.201,-45.7,-7.9,-19.2,-7.1,26.1,-16.7,0.0944242683,-0.624408704,-0.064271981,-0.772667623
336,844233,1667700,0.962,-0.069,0.205,-45.2,-8.5,-19.9,-7.1,26.1,-16.7,0.0934781945,-0.624591815,-0.0637836848,-0.772667623
337,847394,1667710,0.973,-0.065,0.193,-44.6,-9,-20.5,-5.3,26.1,-16.4,0.0925016022,-0.624805445,-0.0633259072,-0.772637104
338,849421,1667710,0.965,-0.069,0.193,-44,-9.4,-21.1,-5.3,26.1,-16.4,0.0915250099,-0.625049593,-0.062898648,-0.772637104
339,851669,1667710,0.973,-0.061,0.193,-43.4,-9.8,-21.5,-5.3,26.1,-16.4,0.0905484176,-0.625263222,-0.0624713889,-0.772606586
340,854808,1667710,0.973,-0.049,0.193,-42.9,-10.4,-21.8,-5.3,26.1,-16.4,0.0896023438,-0.625476852,-0.0620441298,-0.772545549
341,856233,1667720,0.981,-0.046,0.193,-42.5,-11,-22.2,-5.7,26.4,-16.1,0.0886257515,-0.625721,-0.0616779077,-0.77251503
342,859196,1667720,0.985,-0.03,0.189,-42,-11.6,-22.3,-5.7,26.4,-16.1,0.0876491592,-0.625965148,-0.0613116855,-0.772453993
343,862479,1667720,0.993,-0.03,0.189,-41.7,-12.1,-22.4,-5.7,26.4,-16.1,0.0866725669,-0.626239814,-0.0609454634,-0.772362438
344,863873,1667720,0.997,-0.018,0.189,-41.4,-12.6,-22.3,-5.7,26.4,-16.1,0.0857264931,-0.626483963,-0.0605487228,-0.772301401
345,866807,1667730,1.012,-0.003,0.192,-41.1,-12.8,-22.3,-5.9,26.4,-15.9,0.0847804193,-0.626758629,-0.0602130192,-0.772209845
346,870036,1667730,1.016,0.004,0.188,-41,-12.9,-22.2,-5.9,26.4,-15.9,0.083803827,-0.627033296,-0.0598467971,-0.772148808
347,871703,1667730,1.016,0,0.188,-41.2,-12.7,-22.1,-5.9,26.4,-15.9,0.0828577532,-0.627277444,-0.059480575,-0.772057253
348,874931,1667730,1.016,0.008,0.188,-41.7,-12.3,-22,-5.9,26.4,-15.9,0.0819116794,-0.627521592,-0.0590838343,-0.771965697
349,877067,1667740,1.016,0.008,0.188,-41.7,-12.3,-22,-5.9,26.4,-15.9,0.0819116794,-0.627521592,-0.0590838343,-0.771965697
350,879295,1667740,1.024,0.007,0.188,-43.1,-10.9,-21.8,-6.2,26.4,-15.8,0.0799279763,-0.628101444,-0.0583208716,-0.771782586
351,881514,1667740,1.024,0.007,0.184,-43.9,-9.9,-21.8,-6.2,26.4,-15.8,0.078951384,-0.628315073,-0.0578936125,-0.771752068
352,884381,1667740,1.028,0.011,0.184,-44.6,-9,-21.7,-6.2,26.4,-15.8,0.0779442732,-0.628528703,-0.0574663533,-0.771691031
353,886683,1667750,1.028,0.003,0.172,-45.5,-8.2,-21.7,-6.8,26.6,-15.5,0.0769676809,-0.628711814,-0.0570085757,-0.771691031
354,889093,1667750,1.028,0.003,0.168,-46.2,-7.3,-21.7,-6.8,26.6,-15.5,0.0759605701,-0.628894925,-0.0565507981,-0.771691031
355,891319,1667750,1.032,0.003,0.172,-47,-6.3,-21.7,-6.8,26.6,-15.5,0.0749229408,-0.629047517,-0.0560625019,-0.771691031
356,895096,1667750,1.024,-0.007,0.169,-47.6,-5.1,-21.5,-6.8,26.6,-15.5,0.07391583,-0.62920011,-0.0555742058,-0.771721549
357,896472,1667760,1.024,-0.015,0.169,-48.3,-4.1,-21.5,-7.1,26.6,-15.6,0.0728476821,-0.629291665,-0.0550553911,-0.771752068
358,899500,1667760,1.024,-0.019,0.165,-49,-3.3,-21.5,-7.1,26.6,-15.6,0.0718405713,-0.629413739,-0.0545365764,-0.771782586
359,902592,1667760,1.016,-0.023,0.165,-49.7,-2.7,-21.6,-7.1,26.6,-15.6,0.0707724235,-0.629505295,-0.0539872433,-0.771843623
360,903951,1667760,1.008,-0.038,0.157,-50.6,-2,-21.6,-7.1,26.6,-15.6,0.0697042756,-0.62959685,-0.0534379101,-0.77190466
361,907477,1667770,1.004,-0.046,0.157,-51.3,-1.3,-21.5,-7.1,26.7,-14.9,0.0686361278,-0.629688406,-0.0528580584,-0.771996216
362,908830,1667770,1,-0.058,0.161,-52,-0.7,-21.5,-7.1,26.7,-14.9,0.06756798,-0.629749443,-0.0522782067,-0.772057253
363,911857,1667770,0.992,-0.073,0.161,-52.5,-0.2,-21.4,-7.1,26.7,-14.9,0.0664693136,-0.62981048,-0.0516983551,-0.772148808
364,914463,1667770,0.989,-0.085,0.154,-53,0.1,-21.3,-7.1,26.7,-14.9,0.0654011658,-0.629840999,-0.0510574664,-0.772240364
365,916872,1667780,0.988,-0.093,0.154,-53.3,0.3,-21.2,-7.4,26.3,-14.8,0.0643024995,-0.629871517,-0.0505081332,-0.772331919
366,919217,1667780,0.981,-0.1,0.158,-53.5,0.5,-21.1,-7.4,26.3,-14.8,0.0632038331,-0.629932554,-0.049836726,-0.772423475
367,922446,1667780,0.981,-0.108,0.15,-53.8,0.4,-21,-7.4,26.3,-14.8,0.0621051668,-0.629993591,-0.0492568743,-0.77251503
368,924542,1667780,0.977,-0.108,0.162,-53.9,0.3,-20.9,-7.4,26.3,-14.8,0.061037019,-0.63002411,-0.0486159856,-0.772606586
369,926772,1667790,0.977,-0.108,0.162,-53.9,0.3,-20.9,-7.4,26.3,-14.8,0.061037019,-0.63002411,-0.0486159856,-0.772606586
370,929057,1667790,0.977,-0.12,0.158,-54,0,-20.7,-7.4,26.8,-15,0.0591753899,-0.630359813,-0.0469985046,-0.772576067
371,931469,1667790,0.965,-0.12,0.166,-53.9,-0.2,-20.5,-7.4,26.8,-15,0.0580767235,-0.63042085,-0.0463576159,-0.772667623
372,933726,1667790,0.965,-0.124,0.166,-53.9,-0.2,-20.5,-7.4,26.8,-15,0.0569780572,-0.630451369,-0.0457472457,-0.772759178
373,937481,1667800,0.965,-0.128,0.162,-53.8,-0.8,-20.2,-7.4,26.9,-15.2,0.0559099094,-0.630512406,-0.045106357,-0.772820215
374,939828,1667800,0.961,-0.124,0.166,-53.8,-0.8,-20.2,-7.4,26.9,-15.2,0.054811243,-0.630573443,-0.0444654683,-0.772881252
375,941731,1667800,0.965,-0.124,0.162,-53.7,-1.1,-20.1,-7.4,26.9,-15.2,0.0537430952,-0.63063448,-0.0438550981,-0.772942289
376,944022,1667800,0.961,-0.127,0.162,-53.4,-1.3,-20,-7.4,26.9,-15.2,0.0526749474,-0.630695517,-0.0432447279,-0.773003327
377,946202,1667810,0.961,-0.127,0.162,-53.1,-1.4,-20.1,-7.8,26.8,-13.5,0.0515457625,-0.630787072,-0.0426038392,-0.773033845
378,950625,1667810,0.973,-0.128,0.158,-52.6,-1.7,-20.2,-7.8,26.8,-13.5,0.0505081332,-0.630848109,-0.0420239875,-0.773094882
379,951132,1667810,0.973,-0.128,0.154,-52,-1.9,-20.2,-7.8,26.8,-13.5,0.0494705039,-0.630909146,-0.0414136174,-0.773125401
380,955071,1667810,0.977,-0.124,0.154,-51.3,-1.9,-20.3,-7.8,26.8,-13.5,0.0483718375,-0.631000702,-0.0408032472,-0.773186438
381,956758,1667820,0.977,-0.132,0.154,-50.6,-1.8,-20.4,-7.8,26.8,-13.1,0.0473647267,-0.631061739,-0.040253914,-0.773216956
382,958780,1667820,0.984,-0.124,0.15,-50,-1.7,-20.5,-7.8,26.8,-13.1,0.0463270974,-0.631122776,-0.0397045808,-0.773247475
383,961771,1667820,0.992,-0.128,0.154,-49.3,-1.6,-20.5,-7.8,26.8,-13.1,0.0452894681,-0.631183813,-0.0391552477,-0.773308512
384,964078,1667820,0.996,-0.128,0.146,-48.7,-1.6,-20.5,-7.8,26.8,-13.1,0.0442823572,-0.63124485,-0.0386059145,-0.77333903
385,967163,1667830,1.004,-0.128,0.146,-48,-1.4,-20.4,-7.6,26.8,-12.5,0.0432447279,-0.631275369,-0.0380870998,-0.773369549
386,969965,1667830,1.004,-0.132,0.15,-47.3,-1,-20.2,-7.6,26.8,-12.5,0.0422681356,-0.631336406,-0.0375682852,-0.773430586
387,972283,1667830,1.016,-0.128,0.149,-46.6,-0.6,-20.1,-7.6,26.8,-12.5,0.0412915433,-0.631366924,-0.0370494705,-0.773461104
388,974287,1667830,1.016,-0.128,0.149,-46.1,-0.4,-19.9,-7.6,26.8,-12.5,0.040314951,-0.631397443,-0.0365611744,-0.773522141
389,977442,1667840,1.016,-0.128,0.149,-46.1,-0.4,-19.9,-7.6,26.8,-12.5,0.040314951,-0.631397443,-0.0365611744,-0.773522141
390,978809,1667840,1.024,-0.129,0.153,-45.1,0.3,-19.4,-7.7,27,-12.1,0.0388500626,-0.631733146,-0.0350047304,-0.773369549
391,981760,1667840,1.031,-0.133,0.149,-44.8,0.8,-19.1,-7.7,27,-12.1,0.0379345073,-0.631733146,-0.0345164342,-0.773461104
392,984063,1667840,1.031,-0.137,0.149,-44.6,1.4,-18.7,-7.7,27,-12.1,0.037018952,-0.631733146,-0.0340281381,-0.773522141
393,987205,1667850,1.035,-0.144,0.153,-44.5,2.1,-18.4,-8,27.1,-15.2,0.0361033967,-0.631733146,-0.0334788049,-0.773583178
394,988885,1667850,1.035,-0.148,0.145,-44.4,2.9,-18.1,-8,27.1,-15.2,0.0351878414,-0.631702628,-0.0329905087,-0.773674734
395,992161,1667850,1.035,-0.156,0.149,-44.3,3.8,-17.6,-8,27.1,-15.2,0.0342722861,-0.631672109,-0.0325022126,-0.773766289
396,995083,1667850,1.035,-0.168,0.149,-44.2,5,-17.3,-8,27.1,-15.2,0.0333567309,-0.631580554,-0.0319833979,-0.773888363
397,996562,1667860,1.035,-0.168,0.145,-43.9,6.2,-17.1,-8,26.9,-13,0.0324716941,-0.631519517,-0.0314951018,-0.774010437
398,998914,1667860,1.035,-0.172,0.149,-43.6,7.6,-16.9,-8,26.9,-13,0.0315866573,-0.631397443,-0.0309762871,-0.77416303
399,1001173,1667860,1.035,-0.18,0.141,-43.2,8.8,-16.7,-8,26.9,-13,0.030732139,-0.631275369,-0.0304574725,-0.774315622
400,1004829,1667860,1.039,-0.199,0.145,-42.8,10,-16.5,-8,26.9,-13,0.0298471023,-0.631122776,-0.0299691763,-0.774498733
401,1006193,1667870,1.035,-0.203,0.137,-42.5,11.1,-16.3,-8.3,26.9,-13.1,0.028992584,-0.630939665,-0.0294808802,-0.774712363
402,1009065,1667870,1.031,-0.211,0.141,-42.2,12,-16.1,-8.3,26.9,-13.1,0.0281685842,-0.630756554,-0.028931547,-0.774895474
403,1012349,1667870,1.031,-0.219,0.138,-42,12.8,-15.9,-8.3,26.9,-13.1,0.027314066,-0.630542924,-0.0284432508,-0.775109104
404,1013753,1667870,1.027,-0.234,0.134,-41.9,13.4,-15.6,-8.3,26.9,-13.1,0.0264900662,-0.630329295,-0.0279549547,-0.775322733
405,1016715,1667880,1.023,-0.234,0.134,-41.7,14,-15.6,-8.1,27.4,-13.8,0.025635548,-0.630115665,-0.0274666585,-0.775566881
406,1020451,1667880,1.027,-0.242,0.13,-41.5,14.4,-15.4,-8.1,27.4,-13.8,0.0248420667,-0.629871517,-0.0269783624,-0.775780511
407,1022274,1667880,1.023,-0.262,0.13,-41.5,14.8,-15.1,-8.1,27.4,-13.8,0.024018067,-0.629657888,-0.0264595477,-0.776024659
408,1024201,1667880,1.019,-0.265,0.134,-41.4,15.3,-14.8,-8.1,27.4,-13.8,0.0231940672,-0.629413739,-0.0259712516,-0.776268807
409,1027393,1667890,1.019,-0.265,0.134,-41.4,15.3,-14.8,-8.1,27.4,-13.8,0.0231940672,-0.629413739,-0.0259712516,-0.776268807
410,1028897,1667890,1.015,-0.281,0.138,-40.8,15.6,-14.3,-7.9,27.8,-14,0.022583697,-0.629352702,-0.0236823634,-0.776390881
411,1031617,1667890,1.015,-0.293,0.142,-40.1,15.6,-13.9,-7.9,27.8,-14,0.0218207343,-0.629108554,-0.0231940672,-0.776635029
412,1034931,1667890,1.019,-0.297,0.146,-39.3,15.5,-13.6,-7.9,27.8,-14,0.0210577715,-0.628864406,-0.0227057711,-0.776879177
413,1036183,1667900,1.023,-0.304,0.142,-38.3,15.5,-13.4,-8.2,27.7,-12.8,0.0203253273,-0.62858974,-0.0222174749,-0.777123325
414,1039221,1667900,1.023,-0.312,0.154,-37.2,15.4,-13.1,-8.2,27.7,-12.8,0.0195928831,-0.628345592,-0.0217902158,-0.777336955
415,1042418,1667900,1.019,-0.312,0.157,-36,15.4,-12.9,-8.2,27.7,-12.8,0.0188909574,-0.628101444,-0.0213629566,-0.777581103
416,1043865,1667900,1.019,-0.316,0.161,-34.8,15.2,-12.6,-8.2,27.7,-12.8,0.0181890316,-0.627857295,-0.0209356975,-0.777825251
417,1046756,1667910,1.023,-0.32,0.161,-33.8,15.2,-12.3,-8.4,27.3,-12.7,0.0175481429,-0.627582629,-0.0205084384,-0.778038881
418,1049704,1667910,1.023,-0.332,0.165,-33,15.2,-11.9,-8.4,27.3,-12.7,0.0169072542,-0.627338481,-0.0201116977,-0.778283029
419,1051124,1667910,1.019,-0.339,0.169,-32.2,15.4,-11.4,-8.4,27.3,-12.7,0.016235847,-0.627094333,-0.0197149571,-0.778496658
420,1053995,1667910,1.019,-0.339,0.169,-31.7,15.7,-11,-8.4,27.3,-12.7,0.0156254769,-0.626819666,-0.019287698,-0.778740806
421,1057258,1667920,1.023,-0.343,0.173,-31,16,-10.5,-7.9,27.4,-12.8,0.0150456252,-0.626545,-0.0189214759,-0.778954436
422,1058639,1667920,1.023,-0.351,0.169,-30.2,16.4,-10,-7.9,27.4,-12.8,0.0144657735,-0.626300851,-0.0185552538,-0.779198584
423,1061582,1667920,1.027,-0.359,0.169,-29.3,16.9,-9.5,-7.9,27.4,-12.8,0.0139164403,-0.625965148,-0.0181890316,-0.779442732
424,1064783,1667920,1.023,-0.371,0.173,-28.4,17.8,-9,-7.9,27.4,-12.8,0.0133976257,-0.625690481,-0.0178228095,-0.779717399
425,1066256,1667930,1.027,-0.386,0.165,-27.5,18.8,-8.6,-8,27.7,-12.7,0.012878811,-0.625385296,-0.0174565874,-0.779992065
426,1069275,1667930,1.023,-0.394,0.158,-26.4,20,-8.1,-8,27.7,-12.7,0.0123905148,-0.625049593,-0.0170903653,-0.780266732
427,1071155,1667930,1.015,-0.402,0.166,-25.4,21.4,-7.6,-8,27.7,-12.7,0.0119022187,-0.62468337,-0.0167851802,-0.780571917
428,1073948,1667930,1.015,-0.418,0.162,-24.2,22.9,-7,-8,27.7,-12.7,0.0114749596,-0.624317148,-0.0164799951,-0.78090762
429,1077022,1667940,1.011,-0.441,0.154,-21.4,26.2,-5.8,-8,27.4,-12.5,0.0110782189,-0.623859371,-0.01617481,-0.781273843
430,1080121,1667940,1.007,-0.453,0.15,-21.4,26.2,-5.8,-8,27.4,-12.5,0.0107119968,-0.623401593,-0.0158696249,-0.781640065
431,1081513,1667940,0.999,-0.468,0.146,-19.8,28.1,-5.4,-8,27.4,-12.5,0.0103457747,-0.622943815,-0.0156254769,-0.782006287
432,1085534,1667940,0.995,-0.491,0.15,-18.3,29.8,-5.4,-8,27.4,-12.5,0.0100100711,-0.622425001,-0.0153508103,-0.782433546
433,1087898,1667950,0.995,-0.515,0.15,-16.4,31.4,-5.5,-8.2,27.7,-11.6,0.00970488601,-0.621906186,-0.0151676992,-0.782860805
434,1090033,1667950,0.995,-0.534,0.147,-14.4,32.9,-5.9,-8.2,27.7,-11.6,0.00943021943,-0.621326334,-0.0149845882,-0.783318583
435,1091460,1667950,0.987,-0.546,0.155,-12.3,34.3,-6.8,-8.2,27.7,-11.6,0.00915555284,-0.620746483,-0.0148625141,-0.78377636
436,1093664,1667950,0.987,-0.581,0.159,-10,35.6,-7.7,-8.2,27.7,-11.6,0.00888088626,-0.620136113,-0.0147709586,-0.784264657
437,1096854,1667960,0.991,-0.609,0.159,-7.6,36.9,-8.8,-8.3,27.3,-13.7,0.00863673818,-0.619495224,-0.0147709586,-0.784783471
438,1099206,1667960,0.991,-0.628,0.17,-5.2,38.1,-9.8,-8.3,27.3,-13.7,0.00842310862,-0.618854335,-0.0148014771,-0.785302286
439,1101299,1667960,0.963,-0.628,0.171,-2.9,39.4,-10.8,-8.3,27.3,-13.7,0.00820947905,-0.618152409,-0.0148930326,-0.7858211
440,1105219,1667960,0.944,-0.651,0.191,-0.6,40.2,-11.6,-8.3,27.3,-13.7,0.00799584948,-0.617481002,-0.0150151067,-0.786370434
441,1107729,1667970,0.94,-0.674,0.199,1,40.4,-12.1,-8.2,27.1,-13.7,0.00784325694,-0.616779077,-0.0151982177,-0.786919767
442,1109760,1667970,0.959,-0.717,0.183,1.4,39.6,-12.1,-8.2,27.1,-13.7,0.00766014588,-0.616077151,-0.0153813288,-0.7874691
443,1111896,1667970,1.006,-0.773,0.186,0.4,37.6,-12.3,-8.2,27.1,-13.7,0.00744651631,-0.615436262,-0.0155644398,-0.787957396
444,1113677,1667970,0.994,-0.757,0.198,-1.1,34.9,-12.7,-8.2,27.1,-13.7,0.00723288675,-0.614825892,-0.0156865139,-0.788445692
445,1116810,1667980,0.979,-0.718,0.214,-1.9,32.3,-12.4,-7.9,26.2,-13.4,0.00701925718,-0.61424604,-0.0158391064,-0.788872951
446,1119142,1667980,0.963,-0.741,0.214,-1.9,29.9,-10.4,-7.9,26.2,-13.4,0.00680562761,-0.613757744,-0.0159306619,-0.789269692
447,1121504,1667980,1.006,-0.847,0.19,-2.5,27,-6.1,-7.9,26.2,-13.4,0.00668355358,-0.613299966,-0.0159611805,-0.789635914
448,1123649,1667980,1.044,-0.942,0.174,-5,23,-0.1,-7.9,26.2,-13.4,0.00662251656,-0.612903226,-0.0158696249,-0.789941099
449,1128028,1667990,1.044,-0.942,0.174,-5,23,-0.1,-7.9,26.2,-13.4,0.00662251656,-0.612903226,-0.0158696249,-0.789941099
450,1130447,1667990,1.15,-1.006,0.164,-9.6,13.9,8.4,-8,26.2,-13.4,0.00665303507,-0.61241493,-0.0153202918,-0.79033784
451,1132586,1667990,1.158,-0.986,0.203,-5,12.1,6.4,-8,26.2,-13.4,0.00671407208,-0.6122013,-0.0151371807,-0.790490432
452,1134362,1667990,1.142,-0.986,0.219,6.1,13.5,2,-8,26.2,-13.4,0.00683614612,-0.611987671,-0.0151982177,-0.790673544
453,1137785,1668000,1.103,-0.962,0.224,21.7,17.4,0.4,-8.2,28.5,-11.8,0.00714133122,-0.611682485,-0.0155949583,-0.790887173
454,1139522,1668000,1.022,-0.898,0.245,38,21.9,4.3,-8.2,28.5,-11.8,0.0077211829,-0.611285745,-0.01617481,-0.79116184
455,1141290,1668000,1.014,-0.898,0.233,52.1,25.5,12.7,-8.2,28.5,-11.8,0.00863673818,-0.610858486,-0.0169072542,-0.791497543
456,1145119,1668000,1.014,-0.89,0.229,61.9,27.4,21.8,-8.2,28.5,-11.8,0.00985747856,-0.610339671,-0.017670217,-0.791833247
457,1146712,1668010,1.014,-0.89,0.217,67.6,27.6,28.8,-7.7,27.3,-13.9,0.01126133,-0.609881893,-0.0184331797,-0.79216895
458,1148993,1668010,1.014,-0.882,0.206,70.6,26.7,32.8,-7.7,27.3,-13.9,0.0127872555,-0.609424116,-0.019226661,-0.792474136
459,1151422,1668010,1.002,-0.867,0.198,72.9,25.5,34.8,-7.7,27.3,-13.9,0.014374218,-0.608966338,-0.0200201422,-0.792779321
460,1153641,1668010,0.99,-0.847,0.198,76.2,24.7,35.6,-7.7,27.3,-13.9,0.015991699,-0.608539079,-0.0208746605,-0.793053987
461,1158157,1668020,0.975,-0.839,0.198,80.2,24.4,35.8,-7.7,27.1,-14,0.0177007355,-0.608081301,-0.0217291787,-0.793328654
462,1158623,1668020,0.897,-0.767,0.196,84.3,24.2,35.4,-7.7,27.1,-14,0.019409772,-0.607654042,-0.0227057711,-0.79360332
463,1161585,1668020,0.901,-0.771,0.188,87,23.2,33.9,-7.7,27.1,-14,0.0212103641,-0.607226783,-0.0238044374,-0.793847468
464,1164742,1668020,0.908,-0.748,0.188,86.9,20.7,31.2,-7.7,27.1,-14,0.0229194006,-0.606860561,-0.0248725852,-0.794061098
465,1166793,1668030,0.963,-0.831,0.152,83,16.2,27.5,-7.7,27.6,-14.5,0.0245063631,-0.606555376,-0.0259407331,-0.794213691
466,1169104,1668030,0.974,-0.815,0.151,75.8,9.9,23,-7.7,27.6,-14.5,0.025879696,-0.606341746,-0.0269478439,-0.794305246
467,1172134,1668030,0.944,-0.655,0.179,67.4,3.1,18.6,-7.7,27.6,-14.5,0.0271004364,-0.606250191,-0.0278328806,-0.794274728
468,1173715,1668030,0.929,-0.572,0.218,59.3,-2.8,15.6,-7.7,27.6,-14.5,0.0281685842,-0.606280709,-0.0286873989,-0.794213691
469,1176756,1668040,0.929,-0.572,0.218,59.3,-2.8,15.6,-7.7,27.6,-14.5,0.0281685842,-0.606280709,-0.0286873989,-0.794213691
470,1179738,1668040,1.063,-1.111,0.041,36.8,-13.1,25.8,-7.3,27.4,-14.5,0.0300302133,-0.606616413,-0.0296334727,-0.793847468
471,1181317,1668040,1.086,-1.217,0.009,21.4,-18.4,40.5,-7.3,27.4,-14.5,0.0310068056,-0.606952116,-0.0294808802,-0.793542283
472,1185123,1668040,1.144,-1.155,0.024,10,-21.6,54.4,-7.3,27.4,-14.5,0.032105472,-0.607348857,-0.028931547,-0.793237098
473,1186679,1668050,1.133,-1.116,0.032,9.2,-20.1,60.7,-6.8,28,-13.7,0.0332346568,-0.607745598,-0.0283211768,-0.792901395
474,1188969,1668050,1.129,-1.096,0.036,20.5,-13.5,58.9,-6.8,28,-13.7,0.0345469527,-0.607989746,-0.0278939177,-0.792687765
475,1191145,1668050,1.121,-1.12,0.016,39.6,-4.1,55.5,-6.8,28,-13.7,0.0360118412,-0.608081301,-0.0278328806,-0.792565691
476,1194035,1668050,1.055,-1.068,0.002,60,5.1,57.6,-6.8,28,-13.7,0.0378124332,-0.607959227,-0.0280770287,-0.792535173
477,1197162,1668060,1.027,-1.067,-0.013,76.4,12.2,66.9,-7.1,27.8,-14.5,0.0400097659,-0.607715079,-0.0285348064,-0.79259621
478,1198715,1668060,1.004,-1.016,-0.016,87.5,16.4,80,-7.1,27.8,-14.5,0.0425122837,-0.607409894,-0.028992584,-0.792687765
479,1201807,1668060,1.012,-1.016,-0.024,94.5,17.3,91.5,-7.1,27.8,-14.5,0.0454115421,-0.60707419,-0.0293893246,-0.792779321
480,1204005,1668060,1.028,-0.958,-0.028,99.5,15.5,98.5,-7.1,27.8,-14.5,0.0484328745,-0.606769005,-0.0297860652,-0.792809839
481,1206581,1668070,1.059,-0.974,-0.041,104.4,11.7,100.3,-6.2,28,-14.9,0.0515457625,-0.606524857,-0.0302438429,-0.792779321
482,1208993,1668070,1.082,-0.963,-0.053,110.2,7.2,98.8,-6.2,28,-14.9,0.0547196875,-0.606341746,-0.0308542131,-0.792687765
483,1212336,1668070,1.117,-0.928,-0.046,117.2,3,96,-6.2,28,-14.9,0.0579546495,-0.606219672,-0.0316171758,-0.792535173
484,1213890,1668070,1.121,-0.901,-0.046,125.8,0.3,93.7,-6.2,28,-14.9,0.06122013,-0.606097598,-0.0325022126,-0.792321543
485,1216140,1668080,1.129,-0.893,-0.038,135.6,-0.2,93.3,-5.4,27.9,-15,0.0646382031,-0.605975524,-0.033661916,-0.792107913
486,1218701,1668080,1.137,-0.886,-0.038,146.1,1.1,95.8,-5.4,27.9,-15,0.0682393872,-0.605822932,-0.0349131748,-0.791863765
487,1221913,1668080,1.149,-0.847,-0.039,156.2,3.6,101.2,-5.4,27.9,-15,0.0720542009,-0.605609302,-0.0362559893,-0.791650136
488,1223842,1668080,1.149,-0.827,-0.043,165.6,6.2,108.6,-5.4,27.9,-15,0.0761131626,-0.605304117,-0.0376293222,-0.791405988
489,1227520,1668090,1.149,-0.827,-0.043,165.6,6.2,108.6,-5.4,27.9,-15,0.0761131626,-0.605304117,-0.0376293222,-0.791405988
490,1228851,1668090,1.122,-0.752,-0.027,181.8,11.6,125.5,-5.2,27.3,-15.9,0.0850245674,-0.604541154,-0.0405590991,-0.79094821
491,1232044,1668090,1.103,-0.705,-0.03,188.4,14.1,133.8,-5.2,27.3,-15.9,0.0898159734,-0.604052858,-0.0420239875,-0.790704062
492,1234160,1668090,1.091,-0.693,-0.034,193.4,16.2,141.5,-5.2,27.3,-15.9,0.0948210089,-0.603534043,-0.043488876,-0.790459914
493,1237555,1668100,1.087,-0.686,-0.05,196.3,17.5,148,-4.5,26.1,-16.7,0.099978637,-0.602954192,-0.0448927274,-0.790185247
494,1239511,1668100,1.095,-0.658,-0.05,197.2,18.2,153,-4.5,26.1,-16.7,0.105227821,-0.602343822,-0.0462355419,-0.789880062
495,1241999,1668100,1.099,-0.658,-0.066,196.9,18.3,156.6,-4.5,26.1,-16.7,0.110538041,-0.601733451,-0.0475173193,-0.789574877
496,1244071,1668100,1.103,-0.651,-0.077,196.4,18.1,159.2,-4.5,26.1,-16.7,0.11587878,-0.601092563,-0.0487685781,-0.789208655
497,1247662,1668110,1.102,-0.643,-0.093,196.3,17.9,161.7,-3.9,26.7,-17.5,0.121250038,-0.600451674,-0.0499893185,-0.788811914
498,1249384,1668110,1.098,-0.635,-0.124,196.5,18.1,164.5,-3.9,26.7,-17.5,0.126682333,-0.599780267,-0.0511490219,-0.788384655
499,1251590,1668110,1.098,-0.628,-0.144,196.8,18.7,167.9,-3.9,26.7,-17.5,0.132145146,-0.59910886,-0.0522782067,-0.787926878
500,1253684,1668110,1.098,-0.624,-0.152,197.1,20.1,172.1,-3.9,26.7,-17.5,0.137699515,-0.598376415,-0.0533768731,-0.7874691
501,1257062,1668120,1.094,-0.616,-0.171,197.6,22.1,176.9,-3.3,26.2,-18,0.143345439,-0.597582934,-0.0543839839,-0.786980804
502,1258840,1668120,1.09,-0.604,-0.206,198.7,24.2,181.8,-3.3,26.2,-18,0.149082919,-0.596758934,-0.0553605762,-0.786461989
503,1261135,1668120,1.082,-0.593,-0.218,200.2,25.9,186.9,-3.3,26.2,-18,0.154942473,-0.595873898,-0.0562761315,-0.785943175
504,1265045,1668120,1.086,-0.589,-0.23,202.2,26.4,192,-3.3,26.2,-18,0.160893582,-0.594958342,-0.0571611682,-0.785363323
505,1266357,1668130,1.094,-0.573,-0.254,204.4,25.6,197.3,-2.9,26.1,-18.9,0.166966765,-0.594042787,-0.0580156865,-0.784752953
506,1269321,1668130,1.106,-0.57,-0.265,206.9,23.3,202.7,-2.9,26.1,-18.9,0.173131504,-0.593127232,-0.0588396863,-0.784020508
507,1271207,1668130,1.117,-0.554,-0.27,209.7,19.6,207.9,-2.9,26.1,-18.9,0.179418317,-0.592272713,-0.059663686,-0.783227027
508,1275697,1668130,1.141,-0.535,-0.278,212.8,14.5,212.5,-2.9,26.1,-18.9,0.185827204,-0.591448714,-0.0604876858,-0.782280953
509,1278468,1668140,1.141,-0.535,-0.278,212.8,14.5,212.5,-2.9,26.1,-18.9,0.185827204,-0.591448714,-0.0604876858,-0.782280953
510,1278791,1668140,1.207,-0.497,-0.287,220.6,1.5,219.5,-2.6,25.2,-19.9,0.198889126,-0.590014344,-0.0622882778,-0.779992065
511,1281217,1668140,1.227,-0.498,-0.299,225.3,-5.1,222.2,-2.6,25.2,-19.9,0.20557268,-0.589403974,-0.0632648701,-0.778649251
512,1285309,1668140,1.25,-0.459,-0.319,230.8,-11.2,224.9,-2.6,25.2,-19.9,0.212347789,-0.588885159,-0.0643635365,-0.777153844
513,1287799,1668150,1.266,-0.459,-0.335,237.6,-16.5,227.6,0.6,23.7,-20.5,0.219214454,-0.588366344,-0.0655232398,-0.775536363
514,1288685,1668150,1.277,-0.448,-0.359,246.1,-21.2,230.6,0.6,23.7,-20.5,0.226264229,-0.58784753,-0.0668355358,-0.773766289
515,1292331,1668150,1.301,-0.425,-0.379,256.6,-25.5,234,0.6,23.7,-20.5,0.233436079,-0.587328715,-0.0683004242,-0.77190466
516,1293785,1668150,1.371,-0.368,-0.412,269.3,-29.6,238.2,0.6,23.7,-20.5,0.240852077,-0.5868099,-0.0699179052,-0.76985992
517,1296411,1668160,1.402,-0.333,-0.424,284.1,-33.5,243,-0.5,24.6,-21.3,0.248512223,-0.586230049,-0.0717490158,-0.767693106
518,1300016,1668160,1.43,-0.303,-0.436,300.6,-37.2,248,-0.5,24.6,-21.3,0.256447035,-0.58558916,-0.0738242744,-0.765373699
519,1301549,1668160,1.469,-0.272,-0.445,317.6,-40.2,253.1,-0.5,24.6,-21.3,0.264656514,-0.584856716,-0.0761131626,-0.7629017
520,1303976,1668160,1.563,-0.203,-0.459,334.4,-42.6,257.7,-0.5,24.6,-21.3,0.27314066,-0.584063234,-0.0786461989,-0.760307627
521,1307640,1668170,1.664,-0.139,-0.457,350.1,-44.2,261.6,0.1,23.1,-22.5,0.281868954,-0.583117161,-0.0813623463,-0.757530442
522,1309852,1668170,1.704,-0.081,-0.454,363.9,-44.6,264.5,0.1,23.1,-22.5,0.29074984,-0.582049013,-0.0842921232,-0.754661702
523,1311886,1668170,1.794,-0.012,-0.42,374.5,-42.5,266.9,0.1,23.1,-22.5,0.299813837,-0.580858791,-0.0873439741,-0.751701407
524,1314349,1668170,1.806,0.003,-0.389,379.8,-36.7,269.6,0.1,23.1,-22.5,0.30896939,-0.579454939,-0.0903958251,-0.748710593
525,1316580,1668180,1.775,0,-0.361,378.2,-26,273.2,1.4,21.8,-23.5,0.318155461,-0.577837458,-0.093264565,-0.745750298
526,1319142,1668180,1.709,0.001,-0.321,369.1,-10.2,276.7,1.4,21.8,-23.5,0.327280496,-0.575975829,-0.0958586383,-0.742912076
527,1321472,1668180,1.67,0.076,-0.218,353.7,9.7,279.4,1.4,21.8,-23.5,0.336252937,-0.573839534,-0.0979949339,-0.740256966
528,1324566,1668180,1.62,0.105,-0.171,333,31.8,281.6,1.4,21.8,-23.5,0.34501175,-0.57145909,-0.0996124149,-0.737846004
529,1326726,1668190,1.62,0.105,-0.171,333,31.8,281.6,1.4,21.8,-23.5,0.34501175,-0.57145909,-0.0996124149,-0.737846004
530,1330508,1668190,1.55,0.204,-0.103,279.4,74.4,289.3,2.6,20.4,-24.7,0.36179693,-0.566118351,-0.100955229,-0.733726005
531,1332356,1668190,1.414,0.343,-0.108,247.3,92,298.4,2.6,20.4,-24.7,0.369823298,-0.563341166,-0.100497452,-0.731925413
532,1334067,1668190,1.391,0.418,-0.14,212.5,106.5,313,2.6,20.4,-24.7,0.377666555,-0.560594501,-0.0991851558,-0.730216376
533,1336313,1668200,1.34,0.422,-0.201,175,118.4,334.3,4.7,18.4,-24.7,0.385357219,-0.557969909,-0.0968962676,-0.72850734
534,1339050,1668200,1.143,0.315,-0.35,135,129.3,362.6,4.7,18.4,-24.7,0.393017365,-0.555528428,-0.0935392315,-0.726737266
535,1341383,1668200,1.17,0.322,-0.421,94.8,139.9,395,4.7,18.4,-24.7,0.400708029,-0.553270058,-0.0890530107,-0.7248146
536,1344698,1668200,1.248,0.325,-0.442,59.7,149.5,425.6,4.7,18.4,-24.7,0.408429212,-0.551164281,-0.0835291604,-0.722739341
537,1347390,1668210,1.182,0.342,-0.413,36.5,155.9,448.7,6,18.3,-25.1,0.416211432,-0.549180578,-0.077333903,-0.72051149
538,1349092,1668210,1.311,0.203,-0.384,28.2,155.9,461.1,6,18.3,-25.1,0.424054689,-0.547227393,-0.0708334605,-0.718100528
539,1351096,1668210,1.284,0.211,-0.321,35,145.3,462,6,18.3,-25.1,0.431897946,-0.545304727,-0.064516129,-0.715475936
540,1355037,1668210,1.198,0.276,-0.249,54.2,120.7,451,6,18.3,-25.1,0.439741203,-0.543504135,-0.0588396863,-0.712546159
541,1357274,1668220,1.069,0.086,-0.27,79.5,83.2,429.1,8,17.3,-25,0.447431867,-0.54197821,-0.0542008728,-0.709280679
542,1359361,1668220,1.111,-0.023,-0.255,101.8,38.8,400.2,8,17.3,-25,0.454847865,-0.540849025,-0.0506607257,-0.705679495
543,1361213,1668220,1.065,-0.088,-0.168,113.6,-3.3,368.8,8,17.3,-25,0.461867122,-0.540147099,-0.0480971709,-0.701834162
544,1365266,1668220,0.964,-0.109,-0.048,113.3,-35.3,337.9,8,17.3,-25,0.468306528,-0.539872433,-0.0461745048,-0.697866756
545,1367757,1668230,1.116,-0.319,-0.023,103.1,-55,308.5,8.5,16.6,-25.5,0.474166082,-0.539963988,-0.0446790979,-0.693929868
546,1369863,1668230,1.115,-0.436,-0.027,84.9,-66.6,283,8.5,16.6,-25.5,0.479384747,-0.540360729,-0.0433362835,-0.690115055
547,1371962,1668230,1.033,-0.493,-0.033,61,-75.8,265.2,8.5,16.6,-25.5,0.483993042,-0.541093173,-0.0419019135,-0.686391797
548,1374196,1668230,0.95,-0.605,-0.125,34.9,-85.8,257.4,8.5,16.6,-25.5,0.488174078,-0.542252876,-0.040314951,-0.682607501
549,1378701,1668240,0.95,-0.605,-0.125,34.9,-85.8,257.4,8.5,16.6,-25.5,0.488174078,-0.542252876,-0.040314951,-0.682607501
550,1378701,1668240,0.703,-1.252,-0.558,-4.9,-98.5,261.2,8.9,16.1,-25.1,0.495773186,-0.545487838,-0.0363170263,-0.674733726
551,1381599,1668240,0.532,-1.315,-0.477,-6,-93.7,260,8.9,16.1,-25.1,0.499465926,-0.547135838,-0.0341502121,-0.670796838
552,1383713,1668240,0.77,-1.093,0.144,11.5,-82,250.7,8.9,16.1,-25.1,0.503189184,-0.548387097,-0.0321970275,-0.66707358
553,1386165,1668250,1.5,-0.605,1.12,44.6,-72.1,234.9,8.6,15.6,-25.6,0.507095553,-0.549089022,-0.0308236946,-0.66359447
554,1390544,1668250,2.407,-0.075,2.277,83.5,-73.5,218.7,8.6,15.6,-25.6,0.511215552,-0.549363689,-0.0302438429,-0.660206915
555,1392712,1668250,3.695,0.443,3.329,114.8,-86.8,209.5,8.6,15.6,-25.6,0.515518662,-0.549485763,-0.0303353984,-0.656758324
556,1394943,1668250,7.539,1.072,4.509,126,-103.1,209.9,8.6,15.6,-25.6,0.519974364,-0.549668874,-0.0307626576,-0.653065584
557,1397033,1668260,8.024,1.041,3.858,109.5,-114,217.3,9.5,14.9,-25.8,0.524307993,-0.550187689,-0.0310068056,-0.649159215
558,1399292,1668260,7.729,1.29,1.917,64.8,-126.1,231.2,9.5,14.9,-25.8,0.528244881,-0.551377911,-0.0306405835,-0.644917142
559,1401127,1668260,6.16,2.402,-0.565,8.4,-158.9,252.5,9.5,14.9,-25.8,0.531785028,-0.553666799,-0.0295419172,-0.640095218
560,1404487,1668260,4.27,4.754,-3.858,-15.7,-221.7,268.8,9.5,14.9,-25.8,0.535203101,-0.55711539,-0.0286568804,-0.634296701
561,1407941,1668270,3.199,5.212,-4.943,57.6,-298.3,253.8,9.2,14.6,-26,0.539201025,-0.560716575,-0.0298471023,-0.627643666
562,1409962,1668270,2.342,6.02,-5.614,282,-348.1,189,9.2,14.6,-26,0.544999542,-0.5622425,-0.0354930265,-0.620929594
563,1411417,1668270,-0.385,7.935,-7.712,657.4,-328.8,83.6,9.2,14.6,-26,0.55384991,-0.558885464,-0.0472731712,-0.615314188
564,1415019,1668270,-2.104,7.964,-7.12,1124.4,-220,-40.4,9.2,14.6,-26,0.566637165,-0.548020875,-0.0654927213,-0.611774041
565,1416804,1668280,-2.553,7.989,-4.449,1566.1,-41.3,-171.6,7.7,9.1,-27.7,0.582659383,-0.528641621,-0.0889309366,-0.610797449
566,1419117,1668280,-2.037,7.998,-0.974,1883.3,156.5,-303.1,7.7,9.1,-27.7,0.600146489,-0.501571703,-0.115451521,-0.612262337
567,1421831,1668280,-0.547,6.971,2.687,1974.1,316.8,-414.7,7.7,9.1,-27.7,0.616382336,-0.469954527,-0.14209418,-0.615588855
568,1424240,1668280,-0.118,6.824,2.761,1783.5,404.7,-478.6,7.7,9.1,-27.7,0.62898648,-0.438673055,-0.165379803,-0.620105594
569,1426164,1668290,-0.118,6.824,2.761,1783.5,404.7,-478.6,7.7,9.1,-27.7,0.62898648,-0.438673055,-0.165379803,-0.620105594
570,1429915,1668290,0.147,5.371,1.545,692.8,358,-439.3,9.3,1.7,-27.7,0.63780633,-0.396710105,-0.190496536,-0.632038331
571,1431773,1668290,0.2,3.896,0.654,64.3,276,-382.7,9.3,1.7,-27.7,0.634205145,-0.390392773,-0.19083224,-0.639454329
572,1433931,1668290,0.387,2.97,0.445,-451.2,199,-337.4,9.3,1.7,-27.7,0.626422926,-0.392406995,-0.184636982,-0.64763329
573,1436868,1668300,0.45,2.257,0.336,-809.9,143.7,-312.3,9,4.3,-27.6,0.615558336,-0.400128178,-0.173894467,-0.656300546
574,1440398,1668300,0.406,1.135,0.104,-1027.1,109,-301.4,9,4.3,-27.6,0.602496414,-0.411114841,-0.160283212,-0.664998321
575,1441851,1668300,0.451,0.641,0.01,-1147.5,83.4,-295,9,4.3,-27.6,0.588030641,-0.423810541,-0.145146031,-0.67342143
576,1444500,1668300,0.446,0.309,0.01,-1221.5,53.6,-288.2,9,4.3,-27.6,0.572435682,-0.437604907,-0.129123814,-0.681234169
577,1446526,1668310,0.534,-0.051,-0.033,-1288.1,12.3,-284.7,11.1,9.3,-26.6,0.555711539,-0.452528459,-0.112491226,-0.688253426
578,1450731,1668310,0.849,-1.101,-0.405,-1366.5,-37.5,-291.7,11.1,9.3,-26.6,0.537491989,-0.468733787,-0.0952482681,-0.694448683
579,1451152,1668310,1.065,-1.716,-0.599,-1457.4,-88.4,-315.3,11.1,9.3,-26.6,0.517349773,-0.486251411,-0.07739494,-0.699911496
580,1454993,1668310,1.522,-2.459,-0.783,-1546.8,-133.1,-357.1,11.1,9.3,-26.6,0.494949187,-0.504837184,-0.0590227973,-0.704702902
581,1457217,1668320,3.82,-5.176,-1.737,-1612.5,-168.6,-410.5,10.4,16.6,-24.3,0.47032075,-0.524002808,-0.0405285806,-0.708883938
582,1459284,1668320,5.557,-7.523,-2.642,-1630.7,-196.5,-459.1,10.4,16.6,-24.3,0.44410535,-0.542985321,-0.0225531785,-0.712302011
583,1461260,1668320,6.052,-8.152,-3.315,-1577.5,-228.3,-471.7,10.4,16.6,-24.3,0.417676321,-0.561235389,-0.00582903531,-0.714468825
584,1463699,1668320,4.939,-8.125,-3.287,-1428.5,-282.6,-406.5,10.4,16.6,-24.3,0.393597217,-0.578295236,0.00885036775,-0.714529862
585,1468255,1668330,2.205,-7.551,-0.845,-1160.5,-360.6,-245.8,8.6,22.1,-21.3,0.375041963,-0.593707083,0.0207525864,-0.711600085
586,1470525,1668330,1.267,-5.601,0.691,-777.3,-430.5,-28.1,8.6,22.1,-21.3,0.36466567,-0.606646931,0.028931547,-0.70577105
587,1472795,1668330,0.941,-4.09,1.65,-336.8,-447.3,166.3,8.6,22.1,-21.3,0.36301767,-0.616077151,0.0327463607,-0.698232978
588,1474877,1668330,0.785,-3.245,1.957,54.6,-394.3,279.3,8.6,22.1,-21.3,0.368266854,-0.62141789,0.0325022126,-0.690725425
589,1477242,1668340,0.785,-3.245,1.957,54.6,-394.3,279.3,8.6,22.1,-21.3,0.368266854,-0.62141789,0.0325022126,-0.690725425
590,1478738,1668340,0.785,-2.027,1.124,379.5,-174.4,297.6,8.3,21.5,-22.1,0.386944182,-0.622363964,0.0267952513,-0.679830317
591,1481233,1668340,0.681,-1.824,0.703,331.7,-63.1,274.3,8.3,21.5,-22.1,0.395519883,-0.620319224,0.0250251778,-0.676808985
592,1484854,1668340,0.666,-1.421,-0.127,233.8,31.7,258.1,8.3,21.5,-22.1,0.402478103,-0.617664113,0.0253913999,-0.675130467
593,1487073,1668350,0.637,-1.36,-0.471,149,107,254.1,8.4,21.3,-22.1,0.408154546,-0.614642781,0.0275582141,-0.674398022
594,1489558,1668350,0.597,-1.243,-0.678,110.9,159.9,260.9,8.4,21.3,-22.1,0.413373211,-0.611133152,0.0308236946,-0.674275948
595,1491696,1668350,0.612,-1.225,-0.893,125.5,187.9,273.5,8.4,21.3,-22.1,0.41892758,-0.607013153,0.0343333232,-0.674367504
596,1494873,1668350,0.674,-1.024,-1.114,181.1,189.5,284.8,8.4,21.3,-22.1,0.425366985,-0.602343822,0.037141026,-0.674398022
597,1497033,1668360,0.69,-0.778,-1.099,260.1,166.6,287,9.6,20.2,-22.2,0.432874538,-0.597216712,0.0386669515,-0.674092837
598,1499126,1668360,0.745,-0.7,-1.034,344.8,124.6,274.9,9.6,20.2,-22.2,0.441267129,-0.591875973,0.0383312479,-0.673390912
599,1502382,1668360,0.832,-0.693,-0.847,420.7,72.8,248.5,9.6,20.2,-22.2,0.450270089,-0.586504715,0.0360728782,-0.672261727
600,1504323,1668360,0.803,-0.676,-0.561,479.8,22.2,215.1,9.6,20.2,-22.2,0.459517197,-0.581255531,0.0320139164,-0.67076632
601,1506682,1668370,0.851,-0.461,-0.414,524.1,-17.2,186.3,10.5,18.2,-23.8,0.468855861,-0.576067385,0.0264900662,-0.668996246
602,1510247,1668370,0.931,-0.317,-0.282,561.7,-40.6,172.6,10.5,18.2,-23.8,0.478438673,-0.570787683,0.0200811792,-0.666982025
603,1511737,1668370,1.011,0.108,-0.077,598.7,-48.9,176.4,10.5,18.2,-23.8,0.488418226,-0.56511124,0.0130619221,-0.664723655
604,1514264,1668370,1.024,0.315,-0.027,635.2,-46.5,192,10.5,18.2,-23.8,0.499008148,-0.558885464,0.00570696127,-0.662221137
605,1516121,1668380,1.115,0.677,0.076,668.1,-38.8,209.3,10.7,15.1,-25.1,0.510116886,-0.552110355,-0.00180059206,-0.659474471
606,1520133,1668380,1.187,1.036,0.144,694.3,-30.2,220.4,10.7,15.1,-25.1,0.521591845,-0.544755394,-0.00946073794,-0.656544694
607,1522418,1668380,1.33,1.542,0.258,710.1,-23.6,221,10.7,15.1,-25.1,0.533127842,-0.536973174,-0.0172734764,-0.653523362
608,1524104,1668380,1.344,1.886,0.363,712.9,-20.4,210.8,10.7,15.1,-25.1,0.544419691,-0.528977325,-0.0252082888,-0.650471511
609,1526216,1668390,1.344,1.886,0.363,712.9,-20.4,210.8,10.7,15.1,-25.1,0.544419691,-0.528977325,-0.0252082888,-0.650471511
610,1528909,1668390,1.315,2.412,0.613,672.9,-24.3,162,10.7,11.8,-26,0.564989166,-0.513229774,-0.0411389508,-0.644703513
611,1532223,1668390,1.041,2.68,0.88,623.5,-29.3,126.7,10.7,11.8,-26,0.573656423,-0.506027406,-0.0488601337,-0.642170476
612,1533677,1668390,0.842,2.644,0.958,546.5,-33.3,87.9,10.7,11.8,-26,0.580858791,-0.499710074,-0.0559404279,-0.640095218
613,1537417,1668400,0.631,2.554,1.001,439.2,-33.5,48.6,10.4,9.1,-27.5,0.586260567,-0.494613483,-0.0619830927,-0.638538774
614,1539575,1668400,0.274,1.543,0.689,304.5,-29.8,11.4,10.4,9.1,-27.5,0.589648122,-0.491164892,-0.0664998321,-0.637623218
615,1541892,1668400,0.323,1.213,0.579,155.4,-24.6,-22.9,10.4,9.1,-27.5,0.590960417,-0.489486373,-0.0692159795,-0.637440107
616,1544039,1668400,0.342,0.982,0.524,15.8,-20.5,-58,10.4,9.1,-27.5,0.59028901,-0.489486373,-0.0703146458,-0.637928404
617,1548215,1668410,0.357,0.778,0.501,-91.1,-18,-98.1,10.2,9.8,-26.3,0.587908567,-0.490707114,-0.0703146458,-0.639149144
618,1550366,1668410,0.438,0.503,0.476,-155.3,-15.1,-144.9,10.2,9.8,-26.3,0.584215827,-0.492721335,-0.0699179052,-0.64107181
619,1552585,1668410,0.492,0.377,0.475,-185.1,-11.4,-194.4,10.2,9.8,-26.3,0.579454939,-0.494949187,-0.0695516831,-0.643696402
620,1554629,1668410,0.601,0.282,0.438,-196.5,-8,-240.3,10.2,9.8,-26.3,0.573931089,-0.497177038,-0.0694906461,-0.646931364
621,1556849,1668420,0.768,0.056,0.377,-203.8,-7,-277.3,9.9,10.5,-25.5,0.567796869,-0.499374371,-0.0697042756,-0.650624104
622,1558729,1668420,0.861,-0.066,0.332,-215,-9.3,-301.6,9.9,10.5,-25.5,0.561143834,-0.501693777,-0.0700399792,-0.654560991
623,1561253,1668420,0.929,-0.334,0.214,-232.7,-15,-311.6,9.9,10.5,-25.5,0.554094058,-0.504257332,-0.0703146458,-0.658558916
624,1565130,1668420,0.996,-0.37,0.174,-255.3,-24.2,-306.9,9.9,10.5,-25.5,0.546830653,-0.507217627,-0.0703146458,-0.66237373
625,1567450,1668430,1.053,-0.637,0.122,-278.5,-37.6,-288.3,9.6,12.1,-24.7,0.539475692,-0.510635701,-0.0699179052,-0.665791803
626,1569478,1668430,1.091,-0.822,0.094,-299.3,-55,-256.3,9.6,12.1,-24.7,0.532334361,-0.51454207,-0.0690939055,-0.668630024
627,1571551,1668430,1.091,-0.912,0.095,-315.4,-74.4,-212.6,9.6,12.1,-24.7,0.525559252,-0.518936735,-0.0677205725,-0.670705283
628,1573671,1668430,1.051,-1.048,0.08,-325.4,-93.1,-161.1,9.6,12.1,-24.7,0.519363994,-0.523789178,-0.0658589434,-0.671956542
629,1578069,1668440,1.051,-1.048,0.08,-325.4,-93.1,-161.1,9.6,12.1,-24.7,0.519363994,-0.523789178,-0.0658589434,-0.671956542
630,1580246,1668440,1.015,-1.461,0.124,-320.1,-119.9,-55.4,9.1,14.3,-24.4,0.509170812,-0.534165471,-0.0607928709,-0.672048097
631,1581924,1668440,1.012,-1.351,0.222,-303.5,-125.2,-10.6,9.1,14.3,-24.4,0.50532548,-0.539353618,-0.057863094,-0.671071505
632,1584142,1668440,0.949,-1.698,0.22,-278.4,-124.3,24.9,9.1,14.3,-24.4,0.50224311,-0.544267098,-0.05487228,-0.669698172
633,1586534,1668450,0.945,-1.678,0.259,-246.3,-117,49.5,8.3,15.4,-27.6,0.499893185,-0.5487228,-0.0519730216,-0.668050172
634,1588912,1668450,0.906,-1.634,0.299,-208.4,-104.3,63.5,8.3,15.4,-27.6,0.498184149,-0.552568133,-0.0492873928,-0.666310617
635,1592370,1668450,0.798,-1.476,0.34,-166.6,-87.7,69.2,8.3,15.4,-27.6,0.497085482,-0.555742058,-0.0469985046,-0.664693136
636,1594964,1668450,0.827,-1.042,0.409,-124.9,-70.3,68.6,8.3,15.4,-27.6,0.496475112,-0.558183538,-0.045106357,-0.663197729
637,1596749,1668460,0.819,-0.929,0.429,-92.4,-55.3,65,8.7,15.5,-24.8,0.496261483,-0.560045167,-0.0435804315,-0.661915952
638,1599027,1668460,0.777,-0.869,0.425,-76.6,-44.6,61.7,8.7,15.5,-24.8,0.496169927,-0.561571093,-0.0422070986,-0.660786767
639,1601647,1668460,0.734,-0.826,0.407,-78.5,-37.1,61.7,8.7,15.5,-24.8,0.496047853,-0.563005463,-0.0407116916,-0.659718619
640,1604277,1668460,0.691,-0.759,0.388,-91.4,-30.8,66.3,8.7,15.5,-24.8,0.495864742,-0.56450087,-0.0389110996,-0.658711509
641,1606422,1668470,0.687,-0.782,0.364,-105.9,-24.6,73.8,8.4,15.9,-25.2,0.495590075,-0.566057314,-0.0367442854,-0.657673879
642,1610574,1668470,0.718,-0.771,0.356,-113.7,-18.6,82.2,8.4,15.9,-25.2,0.495345927,-0.567644276,-0.0343028047,-0.656666768
643,1612676,1668470,0.765,-0.744,0.359,-111,-13.5,91.3,8.4,15.9,-25.2,0.495254372,-0.569078646,-0.0317392499,-0.655568102
644,1614964,1668470,0.788,-0.706,0.362,-97.5,-9.9,101.8,8.4,15.9,-25.2,0.49549852,-0.570360424,-0.0291756951,-0.654408399
645,1617040,1668480,0.785,-0.655,0.366,-75.8,-7.4,114.3,8.9,15.7,-25.8,0.496200446,-0.571337016,-0.0267342143,-0.653126621
646,1619307,1668480,0.82,-0.62,0.365,-50.8,-5.5,128.3,8.9,15.7,-25.8,0.497390667,-0.572038942,-0.0245063631,-0.651692251
647,1621196,1668480,0.824,-0.515,0.381,-26.8,-4,142.9,8.9,15.7,-25.8,0.499069185,-0.572466201,-0.0223395489,-0.650105289
648,1624467,1668480,0.833,-0.433,0.396,-6.8,-2.4,156.7,8.9,15.7,-25.8,0.501205481,-0.572649312,-0.0203558458,-0.648365734
649,1626259,1668490,0.833,-0.433,0.396,-6.8,-2.4,156.7,8.9,15.7,-25.8,0.501205481,-0.572649312,-0.0203558458,-0.648365734
650,1630170,1668490,0.794,-0.311,0.416,16.6,1.8,176.1,8.9,16.1,-26.6,0.506363109,-0.572496719,-0.0163579211,-0.644581439
651,1632471,1668490,0.81,-0.241,0.42,19.2,4,179.1,8.9,16.1,-26.6,0.509140294,-0.572313608,-0.0143436995,-0.642658773
652,1634424,1668490,0.787,-0.201,0.424,17.2,6.5,177.4,8.9,16.1,-26.6,0.511825922,-0.57206946,-0.0122989593,-0.640766625
653,1636746,1668500,0.779,-0.189,0.42,12.9,9.1,171.3,9.3,15.5,-25.6,0.514389477,-0.571825312,-0.0102542192,-0.638935514
654,1638996,1668500,0.763,-0.177,0.42,8.9,12,160.5,9.3,15.5,-25.6,0.516739402,-0.571611682,-0.00823999756,-0.637287515
655,1642373,1668500,0.803,-0.119,0.435,6.6,14.6,144.7,9.3,15.5,-25.6,0.518814661,-0.571337016,-0.00634784997,-0.635822626
656,1644602,1668500,0.834,-0.073,0.446,6.6,16.2,124.7,9.3,15.5,-25.6,0.520645772,-0.571062349,-0.00469985046,-0.634632405
657,1646767,1668510,0.76,-0.06,0.452,7.2,17,101.8,9.9,16,-25.6,0.522141179,-0.570757164,-0.00335703604,-0.633686331
658,1648972,1668510,0.787,-0.119,0.428,5.9,17.1,77.1,9.9,16,-25.6,0.523270363,-0.570451979,-0.00228888821,-0.633014924
659,1652008,1668510,0.744,-0.138,0.409,2,16.9,51.8,9.9,16,-25.6,0.524033326,-0.570207831,-0.00146488845,-0.632618183
660,1654276,1668510,0.775,-0.154,0.381,-2.9,16.8,28.1,9.9,16,-25.6,0.52436903,-0.569994201,-0.000885036775,-0.632526627
661,1656776,1668520,0.864,-0.187,0.356,-6.9,16.8,7.3,9.8,16,-25.5,0.524399548,-0.569841609,-0.000488296152,-0.632648701
662,1658961,1668520,0.872,-0.207,0.344,-9.6,17.6,-10.4,9.8,16,-25.5,0.524124882,-0.569719535,-0.000305185095,-0.632984405
663,1662004,1668520,0.872,-0.238,0.336,-11.3,19.5,-24.9,9.8,16,-25.5,0.523636586,-0.569566942,-0.000213629566,-0.63350322
664,1664362,1668520,0.887,-0.274,0.32,-13.2,22.8,-35.6,9.8,16,-25.5,0.522995697,-0.56941435,-0.000213629566,-0.634205145
665,1666463,1668530,0.778,-0.307,0.295,-15.7,26.8,-42.3,10.1,15.7,-25.5,0.522202216,-0.56920072,-0.000213629566,-0.635029145
666,1668729,1668530,0.801,-0.292,0.31,-18.9,30.5,-45.6,10.1,15.7,-25.5,0.521347697,-0.569017609,-0.000183111057,-0.635914182
667,1671290,1668530,0.77,-0.307,0.311,-22.8,32.9,-47,10.1,15.7,-25.5,0.520401624,-0.56880398,-6.1037019e-05,-0.636860256
668,1675838,1668530,0.715,-0.298,0.308,-27.1,33.9,-47.7,10.1,15.7,-25.5,0.519394513,-0.568651387,6.1037019e-05,-0.637836848
669,1676269,1668540,0.715,-0.298,0.308,-27.1,33.9,-47.7,10.1,15.7,-25.5,0.519394513,-0.568651387,6.1037019e-05,-0.637836848
670,1680294,1668540,0.621,-0.316,0.29,-33.9,33.6,-49.7,10,16,-25.7,0.517227699,-0.568437757,0.000518814661,-0.639790033
671,1682497,1668540,0.629,-0.297,0.306,-34.3,33,-50.1,10,16,-25.7,0.516098514,-0.568346202,0.000762962737,-0.640766625
672,1685029,1668540,0.677,-0.184,0.34,-32.2,32.3,-49.9,10,16,-25.7,0.514999847,-0.568285165,0.000946073794,-0.641712699
673,1686714,1668550,0.7,-0.185,0.32,-28.7,31,-50.3,10.1,16,-24.2,0.5139317,-0.568163091,0.00106814783,-0.642658773
674,1688940,1668550,0.743,-0.209,0.296,-26.4,29,-52.9,10.1,16,-24.2,0.512863552,-0.568041017,0.00109866634,-0.643604846
675,1691963,1668550,0.684,-0.255,0.273,-26.4,26,-58.9,10.1,16,-24.2,0.511703848,-0.56797998,0.00103762932,-0.644581439
676,1694287,1668550,0.849,-0.062,0.34,-28.1,21.6,-69.4,10.1,16,-24.2,0.510361034,-0.56797998,0.000823999756,-0.645649586
677,1696486,1668560,0.86,-0.125,0.317,-31.1,15.6,-82.9,9.5,15.6,-25.8,0.508774071,-0.568132572,0.000396740623,-0.646748253
678,1700381,1668560,0.77,-0.249,0.264,-36.7,8.1,-96.1,9.5,15.6,-25.8,0.507003998,-0.568407239,-0.000152592547,-0.647907956
679,1702560,1668560,0.785,-0.284,0.24,-44.7,0,-106.9,9.5,15.6,-25.8,0.504928739,-0.568895535,-0.000854518265,-0.649098178
680,1704813,1668560,0.911,-0.173,0.288,-52.2,-8,-115.3,9.5,15.6,-25.8,0.502639851,-0.569597461,-0.001617481,-0.650257881
681,1706928,1668570,0.848,-0.266,0.235,-56.8,-16,-122.7,9.2,16,-25.6,0.50019837,-0.570421461,-0.00250251778,-0.651417585
682,1709185,1668570,0.887,-0.169,0.261,-58.5,-23.7,-129.2,9.2,16,-25.6,0.497634816,-0.571398053,-0.0035401471,-0.65254677
683,1712281,1668570,0.828,-0.25,0.208,-59.1,-30.7,-134,9.2,16,-25.6,0.494979705,-0.572466201,-0.00473036897,-0.653614917
684,1713770,1668570,0.859,-0.215,0.207,-58.8,-36.7,-137,9.2,16,-25.6,0.492294076,-0.573595386,-0.00598162786,-0.654622028
685,1717314,1668580,0.848,-0.192,0.207,-57.1,-41.8,-138.4,9,15.7,-25.2,0.489577929,-0.574785607,-0.00735496078,-0.655598621
686,1719315,1668580,0.832,-0.192,0.192,-52.9,-46,-138.5,9,15.7,-25.2,0.486922819,-0.576006348,-0.00881984924,-0.656514176
687,1721582,1668580,0.899,-0.099,0.195,-45.8,-48.8,-137.8,9,15.7,-25.2,0.484359264,-0.577166051,-0.0104068117,-0.657368694
688,1724738,1668580,0.86,-0.11,0.172,-37.1,-49.9,-135.9,9,15.7,-25.2,0.481948302,-0.578234199,-0.0121158483,-0.658162175
689,1727731,1668590,0.86,-0.11,0.172,-37.1,-49.9,-135.9,9,15.7,-25.2,0.481948302,-0.578234199,-0.0121158483,-0.658162175
690,1729828,1668590,0.864,-0.055,0.156,-21.7,-45.4,-130.4,8.1,16.2,-25.4,0.477492599,-0.580034791,-0.0157170324,-0.659749138
691,1732905,1668590,0.86,-0.005,0.172,-17,-41.1,-129.3,8.1,16.2,-25.4,0.475386822,-0.580767235,-0.0175481429,-0.660573138
692,1734262,1668590,0.848,0.018,0.176,-14.4,-37.3,-130.8,8.1,16.2,-25.4,0.473311563,-0.581377606,-0.0193792535,-0.661458174
693,1737302,1668600,0.86,0.006,0.144,-14.6,-35.3,-135.2,7.9,18.5,-23.7,0.471144749,-0.581987976,-0.0212408826,-0.662434767
694,1738713,1668600,0.852,0.014,0.121,-18.2,-35.9,-142.3,7.9,18.5,-23.7,0.468825343,-0.582628864,-0.0231635487,-0.663441877
695,1741640,1668600,0.852,0.014,0.105,-25.7,-39.1,-151.9,7.9,18.5,-23.7,0.466292306,-0.583391827,-0.0251167333,-0.664510025
696,1744884,1668600,0.86,0.021,0.089,-36.6,-44.3,-163.6,7.9,18.5,-23.7,0.463423566,-0.584307382,-0.0271004364,-0.665608692
697,1746974,1668610,0.859,0.01,0.078,-50.2,-51.1,-176.5,7.5,17.4,-25.7,0.460188604,-0.585436567,-0.0291451765,-0.666768395
698,1749184,1668610,0.898,-0.002,0.022,-65.8,-58.6,-189.5,7.5,17.4,-25.7,0.456556902,-0.586840419,-0.0312204352,-0.667958617
699,1752413,1668610,0.91,-0.018,0.006,-82.8,-65.6,-201.6,7.5,17.4,-25.7,0.45249794,-0.5884579,-0.0332346568,-0.669179357
700,1754397,1668610,0.921,-0.026,-0.005,-100.2,-71,-211.6,7.5,17.4,-25.7,0.448072756,-0.590319529,-0.0351878414,-0.670430616
701,1756652,1668620,0.968,-0.043,-0.021,-117,-74.2,-218.7,6.4,18.1,-25.5,0.44328135,-0.592394787,-0.037018952,-0.671681875
702,1759996,1668620,0.984,-0.062,-0.021,-133.3,-74.9,-222.1,6.4,18.1,-25.5,0.438245796,-0.59459212,-0.0386669515,-0.672963652
703,1762058,1668620,1.003,-0.082,-0.026,-148.7,-72.6,-221.6,6.4,18.1,-25.5,0.432996612,-0.596881008,-0.0400402844,-0.67424543
704,1764368,1668620,1.011,-0.098,-0.022,-163.2,-67.2,-217.2,6.4,18.1,-25.5,0.427594836,-0.599200415,-0.0411084323,-0.675557726
705,1766471,1668630,1.03,-0.165,-0.022,-176.5,-58.9,-209.3,5.7,18.9,-25.2,0.422132023,-0.601519822,-0.0417798395,-0.676870022
706,1769119,1668630,1.03,-0.2,-0.018,-188.2,-47.9,-199.1,5.7,18.9,-25.2,0.41666921,-0.603778191,-0.0420239875,-0.678243355
707,1771179,1668630,1.03,-0.231,-0.014,-198.1,-35.2,-187.8,5.7,18.9,-25.2,0.411267434,-0.605914487,-0.041932432,-0.679647206
708,1775042,1668630,1.022,-0.278,-0.002,-206.3,-21.8,-176.7,5.7,18.9,-25.2,0.405865658,-0.60789819,-0.0413830988,-0.681142613
709,1776478,1668640,1.022,-0.278,-0.002,-206.3,-21.8,-176.7,5.7,18.9,-25.2,0.405865658,-0.60789819,-0.0413830988,-0.681142613
710,1778683,1668640,1.006,-0.422,0.029,-217.3,2.5,-159.8,5,20.5,-25,0.394940031,-0.611957152,-0.0396435438,-0.684041871
711,1781839,1668640,0.994,-0.476,0.029,-220.3,12,-155.8,5,20.5,-25,0.389660329,-0.613513596,-0.0383617664,-0.685720389
712,1783671,1668640,0.975,-0.539,0.057,-221.3,19.2,-155.5,5,20.5,-25,0.384380627,-0.614978484,-0.036957915,-0.687490463
713,1787670,1668650,0.975,-0.539,0.057,-221.3,19.2,-155.5,5,20.5,-25,0.384380627,-0.614978484,-0.036957915,-0.687490463
714,1789999,1668650,0.963,-0.605,0.065,-215.5,28.3,-163.9,5,22,-23.1,0.373729667,-0.617542039,-0.0343028047,-0.691183203
715,1792093,1668650,0.947,-0.593,0.085,-208.2,30.6,-169.8,5,22,-23.1,0.368388928,-0.618640706,-0.0332041383,-0.693136387
716,1795427,1668650,0.928,-0.573,0.121,-198.6,31.7,-174.2,5,22,-23.1,0.363078707,-0.619617298,-0.0322580645,-0.695089572
717,1798051,1668660,0.928,-0.58,0.136,-187.3,31.7,-176,4.4,22.2,-22.3,0.357890561,-0.620471816,-0.0315866573,-0.697042756
718,1800298,1668660,0.913,-0.564,0.148,-175.4,30.5,-174.2,4.4,22.2,-22.3,0.352885525,-0.621265297,-0.0310068056,-0.698934904
719,1802504,1668660,0.913,-0.556,0.172,-163.3,28.4,-169,4.4,22.2,-22.3,0.348094119,-0.621967223,-0.030610065,-0.700704978
720,1804913,1668660,0.897,-0.529,0.195,-151.2,25.2,-161.6,4.4,22.2,-22.3,0.343607898,-0.622608112,-0.0302743614,-0.702383496
721,1806900,1668670,0.898,-0.505,0.199,-139.5,21.5,-153.5,4,23,-22.1,0.339365825,-0.623218482,-0.0300912503,-0.703909421
722,1809122,1668670,0.909,-0.474,0.211,-128,17.4,-146.2,4,23,-22.1,0.335367901,-0.623798334,-0.0299691763,-0.705313272
723,1812385,1668670,0.918,-0.412,0.226,-116.7,13.3,-140.2,4,23,-22.1,0.331644642,-0.624347667,-0.0299996948,-0.70659505
724,1814463,1668670,0.933,-0.377,0.226,-106,9.5,-136.2,4,23,-22.1,0.328104495,-0.624866482,-0.0301522874,-0.707754753
725,1816623,1668680,0.953,-0.342,0.225,-96.3,6,-134.1,3.3,23.5,-22.1,0.324686422,-0.625385296,-0.0304574725,-0.70885342
726,1819925,1668680,0.969,-0.307,0.225,-88.3,3.4,-133.8,3.3,23.5,-22.1,0.32145146,-0.625843074,-0.0308847316,-0.709921567
727,1821894,1668680,1.016,-0.245,0.22,-82.5,1.5,-135.2,3.3,23.5,-22.1,0.318216498,-0.626300851,-0.0314340648,-0.710928678
728,1824121,1668680,1.043,-0.199,0.216,-79.5,0.4,-138.2,3.3,23.5,-22.1,0.314981536,-0.626758629,-0.032105472,-0.711966308
729,1827368,1668690,1.043,-0.199,0.216,-79.5,0.4,-138.2,3.3,23.5,-22.1,0.314981536,-0.626758629,-0.032105472,-0.711966308
730,1829396,1668690,1.106,-0.134,0.179,-83.4,0.3,-147.4,3.1,24.1,-21.5,0.307992798,-0.627643666,-0.0338145085,-0.714133122
731,1831596,1668690,1.121,-0.13,0.159,-91.1,1.2,-152,3.1,24.1,-21.5,0.304391614,-0.628131962,-0.0344553972,-0.715231788
732,1834886,1668690,1.141,-0.131,0.139,-102.1,2.9,-155.5,3.1,24.1,-21.5,0.300546281,-0.628650777,-0.0350047304,-0.716391491
733,1836941,1668700,1.137,-0.15,0.124,-115.6,5.8,-157.6,2.2,23.8,-21,0.296517838,-0.629169591,-0.0353099155,-0.717581713
734,1839179,1668700,1.136,-0.193,0.081,-130.3,9.6,-158.3,2.2,23.8,-21,0.292245247,-0.629749443,-0.035401471,-0.718832972
735,1842357,1668700,1.116,-0.197,0.054,-145.3,14,-158.1,2.2,23.8,-21,0.287789544,-0.630329295,-0.0351878414,-0.720145268
736,1844373,1668700,1.097,-0.236,0.019,-159.7,18,-157.5,2.2,23.8,-21,0.283120212,-0.630909146,-0.0346995453,-0.721488083
737,1846622,1668710,1.081,-0.271,0,-173.4,20.8,-156.8,2.2,24.2,-20.5,0.278267769,-0.631519517,-0.0340281381,-0.722861415
738,1849744,1668710,1.1,-0.35,-0.027,-185.7,21.5,-156.3,2.2,24.2,-20.5,0.273262734,-0.632190924,-0.0331431013,-0.724234748
739,1851134,1668710,1.111,-0.397,-0.039,-196.3,20.1,-156.3,2.2,24.2,-20.5,0.268044069,-0.632923368,-0.0320749535,-0.725577563
740,1854117,1668710,1.127,-0.436,-0.051,-204.3,16.9,-157.1,2.2,24.2,-20.5,0.262794885,-0.633716849,-0.0308847316,-0.72685934
741,1857315,1668720,1.134,-0.573,-0.082,-209.6,13.3,-158.7,1,25.1,-19.8,0.25736259,-0.634601886,-0.0296639912,-0.728080081
742,1859408,1668720,1.142,-0.62,-0.086,-211.8,10.6,-161.1,1,25.1,-19.8,0.251869259,-0.635486923,-0.0285042879,-0.729270302
743,1861625,1668720,1.138,-0.655,-0.074,-210.8,9.8,-164.7,1,25.1,-19.8,0.24631489,-0.636402478,-0.0273445845,-0.730430006
744,1864970,1668720,1.126,-0.694,-0.066,-206.2,10.6,-169.2,1,25.1,-19.8,0.24079104,-0.637226478,-0.0263679922,-0.731589709
745,1866895,1668730,1.102,-0.76,-0.05,-197.7,12.1,-174,0.2,25.8,-19,0.23526719,-0.637958922,-0.0255745109,-0.732779931
746,1869172,1668730,1.087,-0.779,-0.034,-185.6,13.2,-177.7,0.2,25.8,-19,0.229834895,-0.638569292,-0.0250251778,-0.733970153
747,1872515,1668730,1.04,-0.778,-0.021,-170.7,13.4,-179.3,0.2,25.8,-19,0.224585711,-0.639118625,-0.0247199927,-0.735129856
748,1874451,1668730,1.028,-0.778,-0.013,-153.7,12.5,-178.2,0.2,25.8,-19,0.219580676,-0.639576403,-0.0246589557,-0.736259041
749,1876689,1668740,1.028,-0.778,-0.013,-153.7,12.5,-178.2,0.2,25.8,-19,0.219580676,-0.639576403,-0.0246589557,-0.736259041
750,1879787,1668740,0.986,-0.648,0.092,-119.9,7.9,-167.7,0,26.1,-18.4,0.210516678,-0.640278329,-0.0252388073,-0.738273263
751,1881168,1668740,0.991,-0.613,0.119,-106.6,4.7,-159.6,0,26.1,-18.4,0.206457717,-0.640614032,-0.0257271035,-0.739127781
752,1884305,1668740,0.999,-0.534,0.17,-97.7,1.8,-151,0,26.1,-18.4,0.202673421,-0.640919218,-0.0262459181,-0.739860225
753,1886554,1668750,1.046,-0.504,0.193,-93.4,0.2,-142.9,-0.5,25.6,-18.3,0.199041719,-0.641254921,-0.0267342143,-0.740562151
754,1889710,1668750,1.097,-0.469,0.215,-92.8,0.9,-136.6,-0.5,25.6,-18.3,0.19553209,-0.641560106,-0.0271614734,-0.74120304
755,1891091,1668750,1.117,-0.45,0.242,-94.5,4.8,-132.9,-0.5,25.6,-18.3,0.19205298,-0.641804254,-0.0274666585,-0.741904965
756,1894095,1668750,1.144,-0.474,0.277,-96.9,12,-132.2,-0.5,25.6,-18.3,0.18857387,-0.641926328,-0.0276802881,-0.742667928
757,1897268,1668760,1.14,-0.474,0.293,-97.9,21.5,-133.3,-1.9,27.5,-18,0.185064241,-0.64189581,-0.0278939177,-0.743583483
758,1899362,1668760,1.121,-0.465,0.312,-95.8,31.3,-134.7,-1.9,27.5,-18,0.181554613,-0.64168218,-0.0280770287,-0.744621113
759,1901591,1668760,1.105,-0.473,0.321,-90.5,39.6,-134.9,-1.9,27.5,-18,0.178106021,-0.641315958,-0.0283211768,-0.745750298
760,1904774,1668760,1.129,-0.493,0.328,-82.6,45.1,-133,-1.9,27.5,-18,0.174810022,-0.640797143,-0.0286873989,-0.746940519
761,1906834,1668770,1.133,-0.45,0.32,-73,47.4,-128.7,-3.1,27.2,-17.9,0.171727653,-0.640217292,-0.029114658,-0.748130741
762,1909066,1668770,1.09,-0.375,0.317,-62.2,47.4,-122.6,-3.1,27.2,-17.9,0.168889431,-0.639606922,-0.0296334727,-0.749290445
763,1912211,1668770,1.016,-0.245,0.349,-51.4,45.4,-116.6,-3.1,27.2,-17.9,0.166295358,-0.638966033,-0.0302438429,-0.750389111
764,1915119,1668770,0.997,-0.201,0.353,-42.4,41.3,-113.4,-3.1,27.2,-17.9,0.163853877,-0.638386181,-0.0310068056,-0.751396222
765,1916561,1668780,1.009,-0.155,0.337,-37.4,35,-115.1,-3.9,27.3,-17.7,0.161473434,-0.637867367,-0.0318613239,-0.752342296
766,1919493,1668780,1.028,-0.139,0.321,-37.1,27,-122.3,-3.9,27.3,-17.7,0.158970916,-0.637440107,-0.0328684347,-0.753166295
767,1921782,1668780,1.126,-0.149,0.284,-40.9,18.5,-133.2,-3.9,27.3,-17.7,0.15622425,-0.637195959,-0.033967101,-0.75389874
768,1924048,1668780,1.184,-0.123,0.279,-46.6,11,-145.1,-3.9,27.3,-17.7,0.153202918,-0.637073885,-0.0351878414,-0.754600665
769,1927275,1668790,1.184,-0.123,0.279,-46.6,11,-145.1,-3.9,27.3,-17.7,0.153202918,-0.637073885,-0.0351878414,-0.754600665
770,1929260,1668790,1.301,-0.117,0.234,-53.8,2.4,-159.5,-4,27.4,-17.6,0.146549883,-0.637012848,-0.0377819147,-0.755821406
771,1932408,1668790,1.336,-0.102,0.214,-53.3,1.8,-159.5,-4,27.4,-17.6,0.143192846,-0.637012848,-0.0390942106,-0.756370739
772,1933781,1668790,1.364,-0.052,0.209,-50.2,3.5,-156,-4,27.4,-17.6,0.139927366,-0.63698233,-0.0404370251,-0.756950591
773,1936725,1668800,1.387,-0.029,0.205,-45.3,7.5,-150.9,-3.1,26.3,-17.2,0.136814478,-0.636860256,-0.0417798395,-0.757560961
774,1939876,1668800,1.399,-0.002,0.185,-39.9,13.2,-145.4,-3.1,26.3,-17.2,0.133854183,-0.636616108,-0.0430921354,-0.758201849
775,1941297,1668800,1.376,0.017,0.193,-35.1,20.1,-140.2,-3.1,26.3,-17.2,0.131076998,-0.636249886,-0.0444044313,-0.758934294
776,1944258,1668800,1.348,0.029,0.19,-32.2,26.6,-135.9,-3.1,26.3,-17.2,0.128391369,-0.635792108,-0.0456862087,-0.759727775
777,1946477,1668810,1.34,0.01,0.182,-32.1,31.3,-133.1,-4.6,26.9,-17.1,0.125766778,-0.635212256,-0.0469069491,-0.760551775
778,1949662,1668810,1.313,0.014,0.21,-35.2,33.4,-132.3,-4.6,26.9,-17.1,0.123111667,-0.634601886,-0.0480666524,-0.761406293
779,1952480,1668810,1.317,0,0.202,-41.6,32.6,-132.9,-4.6,26.9,-17.1,0.120365001,-0.634052553,-0.0491042817,-0.762260811
780,1953907,1668810,1.337,-0.04,0.198,-51,30,-133.5,-4.6,26.9,-17.1,0.117465743,-0.633533738,-0.0500503555,-0.763084811
781,1956862,1668820,1.297,-0.074,0.195,-62,26.8,-132.7,-5.2,26.7,-17,0.114444411,-0.633106479,-0.0507827998,-0.763847774
782,1959234,1668820,1.301,-0.09,0.187,-73.9,24.6,-129.8,-5.2,26.7,-17,0.111270486,-0.632709738,-0.0512710959,-0.764580218
783,1961504,1668820,1.317,-0.133,0.167,-85.7,24.4,-125.2,-5.2,26.7,-17,0.108005005,-0.632374035,-0.051515244,-0.765312662
784,1963808,1668820,1.32,-0.157,0.159,-96.5,26.5,-119.8,-5.2,26.7,-17,0.104739525,-0.632038331,-0.0514847255,-0.766075625
785,1966135,1668830,1.285,-0.18,0.16,-105.7,30.6,-114.3,-4.9,27.4,-16.4,0.101382488,-0.631611072,-0.0512405774,-0.766869106
786,1969922,1668830,1.273,-0.203,0.156,-113.2,35.9,-108.8,-4.9,27.4,-16.4,0.0980559709,-0.631153294,-0.0507522813,-0.767723624
787,1971951,1668830,1.238,-0.206,0.153,-119.3,41.3,-103.5,-4.9,27.4,-16.4,0.0947294534,-0.630603961,-0.0500808741,-0.76863918
788,1974146,1668830,1.179,-0.225,0.119,-124.6,45.9,-98.6,-4.9,27.4,-16.4,0.0914029359,-0.629963073,-0.0492568743,-0.769615772
789,1977396,1668840,1.144,-0.272,0.061,-129,49.6,-95.1,-4.7,26.6,-15.9,0.0880764183,-0.629291665,-0.0483108005,-0.770622883
790,1979533,1668840,1.093,-0.236,0.054,-132,52.7,-93.7,-4.7,26.6,-15.9,0.0847499008,-0.628559221,-0.0472731712,-0.771660512
791,1981756,1668840,1.069,-0.243,0.047,-133.4,55.1,-94.3,-4.7,26.6,-15.9,0.0813928648,-0.62776574,-0.0461745048,-0.77272866
792,1983906,1668840,1.003,-0.246,0.044,-133,56.5,-95.6,-4.7,26.6,-15.9,0.0780053102,-0.62694174,-0.0451979125,-0.773796808
793,1986997,1668850,0.983,-0.265,0.045,-131.8,55.9,-96.7,-5.6,27,-15.5,0.0746177557,-0.62611774,-0.0441908017,-0.774864956
794,1989263,1668850,0.972,-0.292,0.053,-130.4,53.2,-97.6,-5.6,27,-15.5,0.0712302011,-0.625324259,-0.0432142094,-0.775872066
795,1991527,1668850,0.972,-0.292,0.053,-130.4,53.2,-97.6,-5.6,27,-15.5,0.0712302011,-0.625324259,-0.0432142094,-0.775872066
796,1995058,1668850,0.937,-0.299,0.069,-126.5,43.1,-99.4,-5.6,27,-15.5,0.0644856105,-0.623981445,-0.0414746544,-0.77764214
797,1997377,1668860,0.909,-0.287,0.073,-123,37.3,-98.9,-6.5,27.2,-15.1,0.061159093,-0.623432112,-0.0406811731,-0.778405103
798,1999506,1668860,0.89,-0.267,0.082,-118.4,32.2,-96.8,-6.5,27.2,-15.1,0.0578936125,-0.622943815,-0.0399182104,-0.77907651
799,2001782,1668860,0.87,-0.259,0.086,-113.7,28.6,-93.7,-6.5,27.2,-15.1,0.054811243,-0.622516556,-0.0392468032,-0.77968688
800,2004030,1668860,0.863,-0.255,0.098,-109.9,26.3,-90.7,-6.5,27.2,-15.1,0.0517899106,-0.622119816,-0.038575396,-0.780236213
801,2006332,1668870,0.859,-0.259,0.098,-107.4,25.1,-88,-6.7,27.2,-14.8,0.0488601337,-0.621723075,-0.0378734703,-0.780755028
802,2008652,1668870,0.851,-0.267,0.102,-105.9,24.5,-85.4,-6.7,27.2,-14.8,0.0459913938,-0.621356853,-0.0372325816,-0.781273843
803,2011453,1668870,0.843,-0.266,0.106,-105.2,24.3,-82.7,-6.7,27.2,-14.8,0.0431836909,-0.620960112,-0.0365306558,-0.781762139
804,2014411,1668870,0.843,-0.266,0.102,-104.5,24.1,-79.7,-6.7,27.2,-14.8,0.0404065065,-0.62059389,-0.0357982116,-0.782219916
805,2016069,1668880,0.835,-0.266,0.102,-104.1,23.6,-76.3,-7.2,27.4,-13.9,0.0377208777,-0.620227668,-0.0350352489,-0.782708213
806,2019062,1668880,0.824,-0.25,0.098,-104,22.9,-72.4,-7.2,27.4,-13.9,0.0350962859,-0.619861446,-0.0342112491,-0.78316599
807,2022168,1668880,0.808,-0.235,0.091,-104.5,22.1,-68.8,-7.2,27.4,-13.9,0.0325022126,-0.619495224,-0.0333567309,-0.783593249
808,2023556,1668880,0.804,-0.235,0.087,-104.5,22.1,-68.8,-7.2,27.4,-13.9,0.0299081393,-0.61915952,-0.0324716941,-0.78398999
809,2026664,1668890,0.804,-0.238,0.087,-108.5,19.7,-64,-7.8,27.5,-14,0.0274056215,-0.618823817,-0.0314645833,-0.784386731
810,2029752,1668890,0.812,-0.27,0.071,-108.5,19.7,-64,-7.8,27.5,-14,0.0248420667,-0.618518632,-0.0304574725,-0.784752953
811,2031122,1668890,0.812,-0.286,0.067,-113.5,17.2,-60.6,-7.8,27.5,-14,0.0223090304,-0.618243965,-0.0292977691,-0.785088656
812,2034188,1668890,0.808,-0.289,0.064,-113.5,17.2,-60.6,-7.8,27.5,-14,0.0197454756,-0.61793878,-0.0281991028,-0.78542436
813,2037125,1668900,0.804,-0.293,0.06,-114.7,16.6,-58,-8.6,27.3,-13.4,0.0172124393,-0.617664113,-0.0269783624,-0.785760063
814,2040065,1668900,0.78,-0.297,0.06,-114.4,16.3,-54.5,-8.6,27.3,-13.4,0.0147404401,-0.617389447,-0.025757622,-0.786065249
815,2041494,1668900,0.776,-0.305,0.052,-113.3,16.3,-50.2,-8.6,27.3,-13.4,0.0123599963,-0.61711478,-0.0245063631,-0.786339915
816,2044660,1668900,0.78,-0.313,0.052,-111.7,16.2,-45.8,-8.6,27.3,-13.4,0.0100711081,-0.616840114,-0.0231940672,-0.7866451
817,2046134,1668910,0.784,-0.32,0.052,-110.1,15.6,-41.7,-7.1,27.6,-12.7,0.00787377544,-0.616595965,-0.0218512528,-0.786919767
818,2048807,1668910,0.788,-0.336,0.056,-108.4,14.7,-38,-7.1,27.6,-12.7,0.00576799829,-0.616321299,-0.0205084384,-0.787163915
819,2051895,1668910,0.792,-0.34,0.064,-106.5,13.5,-34.7,-7.1,27.6,-12.7,0.00375377667,-0.616107669,-0.019165624,-0.787408063
820,2054904,1668910,0.788,-0.344,0.076,-103.9,12.2,-31.7,-7.1,27.6,-12.7,0.00180059206,-0.61589404,-0.017792291,-0.787621693
821,2056332,1668920,0.796,-0.34,0.079,-101,10.9,-28.6,-7.1,27.2,-12.5,0,0.61568041,0.0164494766,0.787804804
822,2059401,1668920,0.796,-0.344,0.083,-97.7,9.7,-25.6,-7.1,27.2,-12.5,0.00173955504,0.615497299,0.0151066622,0.787957396
823,2061668,1668920,0.792,-0.34,0.095,-94.4,8.7,-22.5,-7.1,27.2,-12.5,0.00341807306,0.615344707,0.0137943663,0.788109989
824,2065489,1668920,0.796,-0.34,0.099,-91.5,7.7,-19.6,-7.1,27.2,-12.5,0.00497451704,0.615192114,0.0124820704,0.788232063
825,2066875,1668930,0.812,-0.336,0.118,-89.1,6.9,-16.9,-7.4,27.6,-12.2,0.0064394055,0.61507004,0.0111697745,0.788354137
826,2070290,1668930,0.82,-0.34,0.13,-87,6,-14.1,-7.4,27.6,-12.2,0.00787377544,0.614947966,0.00985747856,0.788445692
827,2072381,1668930,0.831,-0.34,0.138,-85.1,5.1,-11.6,-7.4,27.6,-12.2,0.00921658986,0.614825892,0.00854518265,0.788537248
828,2073675,1668930,0.839,-0.337,0.141,-83.1,4.2,-9.3,-7.4,27.6,-12.2,0.0104678488,0.614734336,0.00726340526,0.788598285
829,2076732,1668940,0.839,-0.337,0.141,-83.1,4.2,-9.3,-7.4,27.6,-12.2,0.0104678488,0.614734336,0.00726340526,0.788598285
830,2079823,1668940,0.874,-0.337,0.16,-78.6,2.3,-4.9,-7.6,27.5,-11.4,0.0110782189,0.615192114,0.00253303629,0.788262581
831,2081273,1668940,0.886,-0.337,0.172,-76.4,1.4,-2.9,-7.6,27.5,-11.4,0.0121768853,0.615161596,0.00125125889,0.7882931
832,2084234,1668940,0.898,-0.337,0.187,-74.2,0.6,-0.6,-7.6,27.5,-11.4,0.0131839961,0.615131077,0,0.7882931
833,2087324,1668950,0.902,-0.329,0.195,-72,-0.1,1.5,-8.7,28,-11.7,0.0140995514,0.615100558,-0.00122074038,0.7882931
834,2088621,1668950,0.906,-0.333,0.203,-69.9,-0.8,3.7,-8.7,28,-11.7,0.0149845882,0.615100558,-0.00247199927,0.788262581
835,2091672,1668950,0.914,-0.337,0.206,-67.7,-1.7,5.9,-8.7,28,-11.7,0.0157475509,0.615100558,-0.00372325816,0.788262581
836,2094795,1668950,0.91,-0.337,0.214,-65.4,-2.6,8,-8.7,28,-11.7,0.0165410321,0.615131077,-0.00497451704,0.788201544
837,2096452,1668960,0.91,-0.333,0.222,-63,-3.3,10.1,-7.3,28.2,-11.5,0.0172124393,0.615161596,-0.00619525742,0.788171026
838,2099117,1668960,0.906,-0.333,0.222,-60.5,-4.2,12.2,-7.3,28.2,-11.5,0.017792291,0.615222633,-0.00738547929,0.788109989
839,2102439,1668960,0.91,-0.329,0.218,-58.1,-4.8,14.3,-7.3,28.2,-11.5,0.0183111057,0.615253151,-0.00857570116,0.788018433
840,2103765,1668960,0.902,-0.329,0.222,-55.6,-5.4,16.2,-7.3,28.2,-11.5,0.0187994018,0.615344707,-0.00976592303,0.787957396
841,2106767,1668970,0.898,-0.325,0.222,-53.2,-6,18,-7.2,28.3,-10.8,0.019165624,0.615405744,-0.0109256264,0.787865841
842,2109866,1668970,0.89,-0.329,0.219,-50.7,-6.5,19.7,-7.2,28.3,-10.8,0.0195318461,0.615497299,-0.0120548112,0.787774285
843,2111293,1668970,0.887,-0.333,0.215,-48,-7.1,21.3,-7.2,28.3,-10.8,0.0197759941,0.615588855,-0.0131839961,0.78768273
844,2114334,1668970,0.886,-0.329,0.211,-45.3,-7.8,22.9,-7.2,28.3,-10.8,0.0200201422,0.615710929,-0.0142826624,0.787560656
845,2117348,1668980,0.89,-0.329,0.211,-42.5,-8.7,24.1,-7,28.2,-10.7,0.0201422163,0.615833003,-0.0153202918,0.787438581
846,2119037,1668980,0.886,-0.329,0.207,-39.5,-9.8,25.3,-7,28.2,-10.7,0.0202642903,0.615955077,-0.0163579211,0.787316507
847,2121211,1668980,0.886,-0.329,0.203,-36.2,-11,26.3,-7,28.2,-10.7,0.0203253273,0.616138188,-0.0173345134,0.787163915
848,2123977,1668980,0.89,-0.329,0.199,-32.8,-12.3,27.2,-7,28.2,-10.7,0.0202642903,0.616321299,-0.0182805872,0.787011322
849,2127174,1668990,0.89,-0.329,0.199,-32.8,-12.3,27.2,-7,28.2,-10.7,0.0202642903,0.616321299,-0.0182805872,0.787011322
850,2129958,1668990,0.898,-0.329,0.191,-25.7,-15,28.9,-6.9,28.5,-10.7,0.0190435499,0.616840114,-0.0211188086,0.786553545
851,2131502,1668990,0.906,-0.326,0.187,-22.1,-16.4,29.7,-6.9,28.5,-10.7,0.0187994018,0.617084262,-0.0219428083,0.786339915
852,2134669,1668990,0.894,-0.322,0.191,-18.4,-17.9,30.3,-6.9,28.5,-10.7,0.0185247353,0.617389447,-0.0226752525,0.786095767
853,2137706,1669000,0.902,-0.318,0.199,-14.7,-19.3,31,-7.6,28.6,-10.5,0.0181890316,0.617694632,-0.0233161412,0.785851619
854,2140038,1669000,0.91,-0.322,0.195,-10.9,-20.8,31.6,-7.6,28.6,-10.5,0.017792291,0.618030335,-0.0239265114,0.785576952
855,2142188,1669000,0.91,-0.318,0.199,-7.3,-22.2,32.1,-7.6,28.6,-10.5,0.0173039949,0.618396558,-0.0245368816,0.785271767
856,2144278,1669000,0.918,-0.31,0.199,-3.9,-23.8,32.6,-7.6,28.6,-10.5,0.0167851802,0.61876278,-0.0250251778,0.784966582
857,2147334,1669010,0.922,-0.306,0.195,-0.9,-25.5,33,-7.5,28.5,-10.8,0.016235847,0.619190039,-0.0255134739,0.784630879
858,2148738,1669010,0.929,-0.295,0.194,1.9,-27.2,33.4,-7.5,28.5,-10.8,0.0156254769,0.619647816,-0.0259407331,0.784264657
859,2151865,1669010,0.933,-0.291,0.198,4.3,-28.8,33.8,-7.5,28.5,-10.8,0.0149540696,0.620105594,-0.0263374737,0.783898434
860,2155469,1669010,0.941,-0.287,0.194,6.4,-30.2,34,-7.5,28.5,-10.8,0.0142826624,0.620624409,-0.0267036958,0.783501694
861,2157609,1669020,0.949,-0.276,0.19,8.3,-31.5,34.2,-7.5,28.4,-10.6,0.0135502182,0.621143223,-0.0270393994,0.783074435
862,2160003,1669020,0.957,-0.26,0.194,10.1,-32.8,34.5,-7.5,28.4,-10.6,0.012817774,0.621692557,-0.0273445845,0.782647176
863,2162069,1669020,0.961,-0.252,0.19,12,-34,34.7,-7.5,28.4,-10.6,0.0120242927,0.62224189,-0.0275887326,0.782219916
864,2164315,1669020,0.965,-0.249,0.186,14.1,-34.8,35,-7.5,28.4,-10.6,0.0112308115,0.622821741,-0.0278328806,0.781762139
865,2166438,1669030,0.973,-0.225,0.182,16.2,-35.5,35.3,-7.3,28.7,-10.4,0.0103762932,0.623401593,-0.0280770287,0.781304361
866,2170410,1669030,0.98,-0.218,0.182,17.8,-36.4,35.7,-7.3,28.7,-10.4,0.00949125645,0.624011963,-0.0282601398,0.780816065
867,2172714,1669030,0.984,-0.206,0.185,18.9,-37.3,35.8,-7.3,28.7,-10.4,0.00860621967,0.624622333,-0.0284432508,0.780327769
868,2174280,1669030,0.984,-0.202,0.197,19.6,-38.4,35.8,-7.3,28.7,-10.4,0.0077211829,0.625263222,-0.0285653249,0.779808954
869,2176704,1669040,0.984,-0.202,0.197,19.6,-38.4,35.8,-7.3,28.7,-10.4,0.0077211829,0.625263222,-0.0285653249,0.779808954
870,2179164,1669040,1,-0.186,0.232,20.3,-41.4,35.5,-7,28.8,-10.6,0.0051576281,0.626789148,-0.0297860652,0.778588214
871,2181521,1669040,1,-0.179,0.236,20.7,-43.4,35.3,-7,28.8,-10.6,0.00424207282,0.627491073,-0.0299081393,0.778008362
872,2183816,1669040,1.016,-0.163,0.255,21.6,-45.7,34.9,-7,28.8,-10.6,0.00332651753,0.628254036,-0.0300302133,0.777397992
873,2186452,1669050,1.02,-0.159,0.247,22.9,-48.3,34.4,-7,28.8,-10.6,0.00238044374,0.629047517,-0.0301522874,0.776757103
874,2188895,1669050,1.028,-0.148,0.239,24.4,-51.1,33.8,-7,28.8,-10.6,0.00146488845,0.629871517,-0.0301522874,0.776055177
875,2192636,1669050,1.04,-0.14,0.231,26,-54,33.2,-7,28.8,-10.6,0.000488296152,0.630787072,-0.0302133244,0.775353252
876,2195223,1669050,1.059,-0.117,0.219,27.7,-57.1,32.6,-7,28.8,-10.6,0.000457777642,-0.631733146,0.0301522874,-0.774559771
877,2196902,1669060,1.067,-0.098,0.215,29.6,-60.2,32,-7,28.8,-10.2,0.00143436995,-0.632709738,0.0301217689,-0.773766289
878,2199289,1669060,1.083,-0.094,0.211,31.4,-63.4,31.4,-7,28.8,-10.2,0.00244148076,-0.633777886,0.0300302133,-0.772911771
879,2201404,1669060,1.102,-0.067,0.195,32.9,-66,30.7,-7,28.8,-10.2,0.00344859157,-0.634876553,0.0299081393,-0.771996216
880,2204841,1669060,1.106,-0.071,0.195,33.8,-68.1,30.1,-7,28.8,-10.2,0.00448622089,-0.635975219,0.0297555467,-0.77108066
881,2206312,1669070,1.114,-0.063,0.187,33.8,-69.6,29.7,-6.9,28.9,-9.6,0.00549333171,-0.637134922,0.0295419172,-0.770134587
882,2208712,1669070,1.122,-0.06,0.183,32.8,-70.3,29.6,-6.9,28.9,-9.6,0.00650044252,-0.638294626,0.0294198431,-0.769188513
883,2212550,1669070,1.114,-0.064,0.175,30.8,-70.2,29.7,-6.9,28.9,-9.6,0.00747703482,-0.639454329,0.0292977691,-0.768211921
884,2215016,1669070,1.114,-0.064,0.179,28.1,-68.9,29.9,-6.9,28.9,-9.6,0.00842310862,-0.640583514,0.0292672506,-0.767265847
885,2217031,1669080,1.11,-0.067,0.179,24.9,-66.8,30.3,-7,28.7,-9.3,0.00930814539,-0.64168218,0.0292367321,-0.766319773
886,2219146,1669080,1.106,-0.067,0.175,21.4,-63.9,30.8,-7,28.7,-9.3,0.0101626637,-0.64271981,0.0292977691,-0.765434736
887,2221661,1669080,1.086,-0.063,0.175,18.3,-60.5,31.5,-7,28.7,-9.3,0.0109866634,-0.643696402,0.0294198431,-0.764610736
888,2223988,1669080,1.079,-0.071,0.176,15.8,-56.9,32.3,-7,28.7,-9.3,0.0117801447,-0.644642476,0.0296029542,-0.763817255
889,2226265,1669090,1.079,-0.063,0.172,13.8,-53.2,33.3,-6.6,28.9,-9.1,0.0125736259,-0.645496994,0.0298471023,-0.763054292
890,2229824,1669090,1.059,-0.067,0.164,12.2,-49.7,34.2,-6.6,28.9,-9.1,0.0133365886,-0.646290475,0.0300912503,-0.762352367
891,2231707,1669090,1.059,-0.063,0.156,10.8,-46.3,35,-6.6,28.9,-9.1,0.0141300699,-0.647022919,0.0303964354,-0.76168096
892,2233970,1669090,1.055,-0.063,0.156,9.5,-43.3,35.4,-6.6,28.9,-9.1,0.0148625141,-0.647724845,0.030732139,-0.761070589
893,2236201,1669100,1.055,-0.067,0.156,8.3,-40.4,35.7,-6.6,28.9,-9.1,0.0155949583,-0.648365734,0.0310678426,-0.760490738
894,2238726,1669100,1.043,-0.062,0.157,7.3,-37.6,35.9,-6.6,28.9,-9.1,0.0163274026,-0.648976104,0.0314645833,-0.759971923
895,2241814,1669100,1.039,-0.062,0.149,6.8,-34.9,36.1,-6.6,28.9,-9.1,0.0170598468,-0.649525437,0.0318308054,-0.759453108
896,2244097,1669100,1.035,-0.066,0.149,6.7,-32.2,36.4,-6.6,28.9,-9.1,0.017792291,-0.650044252,0.032227546,-0.758995331
897,2246407,1669110,1.035,-0.062,0.145,6.9,-29.6,36.6,-6.4,28.9,-9.7,0.0184942167,-0.650502029,0.0326242866,-0.758568072
898,2248599,1669110,1.043,-0.066,0.157,7.3,-27.5,36.6,-6.4,28.9,-9.7,0.019226661,-0.650929289,0.0329905087,-0.758171331
899,2252866,1669110,1.032,-0.062,0.161,7.8,-25.7,36.5,-6.4,28.9,-9.7,0.0199591052,-0.651326029,0.0333872494,-0.75777459
900,2254817,1669110,1.028,-0.054,0.149,8.5,-24,36.2,-6.4,28.9,-9.7,0.0207220679,-0.651692251,0.033722953,-0.757438887
901,2256990,1669120,1.031,-0.074,0.126,9.3,-22,35.8,-6.5,29.3,-10.2,0.0214545122,-0.652027955,0.0340891751,-0.757103183
902,2259897,1669120,1.035,-0.078,0.129,10,-20.2,35.2,-6.5,29.3,-10.2,0.0221869564,-0.65233314,0.0344248787,-0.756797998
903,2261418,1669120,1.031,-0.082,0.129,10.2,-19.1,34.4,-6.5,29.3,-10.2,0.0229194006,-0.652607807,0.0346995453,-0.756523331
904,2264954,1669120,1.031,-0.09,0.137,10.2,-19.1,33.4,-6.5,29.3,-10.2,0.0236213263,-0.652882473,0.0350352489,-0.756248665
905,2266782,1669130,1.024,-0.101,0.145,10.2,-19.6,32.1,-6.2,29,-10.1,0.0242927335,-0.653187658,0.0353099155,-0.75594348
906,2268952,1669130,1.016,-0.105,0.149,10.5,-20.3,30.9,-6.2,29,-10.1,0.0249946593,-0.653492843,0.035584582,-0.755668813
907,2271554,1669130,1.016,-0.109,0.157,10.9,-20.9,29.6,-6.2,29,-10.1,0.025635548,-0.653798029,0.0357982116,-0.755363628
908,2273754,1669130,1.016,-0.109,0.149,11.3,-21.1,28.4,-6.2,29,-10.1,0.0263069552,-0.654133732,0.0360118412,-0.755027924
909,2277962,1669140,1.016,-0.109,0.149,11.3,-21.1,28.4,-6.2,29,-10.1,0.0263069552,-0.654133732,0.0360118412,-0.755027924
910,2280226,1669140,1,-0.124,0.165,10.9,-20.2,25.9,-5.8,29.4,-10.6,0.0275887326,-0.654774621,0.0364696188,-0.754417554
911,2282531,1669140,1,-0.132,0.161,10.1,-19.2,24.5,-5.8,29.4,-10.6,0.0281685842,-0.655049287,0.0366527299,-0.754142888
912,2284776,1669140,0.996,-0.144,0.162,9,-18.3,23.2,-5.8,29.4,-10.6,0.0286873989,-0.655323954,0.0368053224,-0.753868221
913,2286820,1669150,0.996,-0.152,0.158,7.8,-17.4,21.7,-5.8,29.4,-10.6,0.0291756951,-0.655598621,0.0369884335,-0.753624073
914,2289102,1669150,0.992,-0.155,0.15,6.5,-16.6,20.4,-5.8,29.4,-10.6,0.0296029542,-0.655842769,0.037141026,-0.753379925
915,2292256,1669150,0.992,-0.151,0.15,5.1,-15.8,19.1,-5.8,29.4,-10.6,0.0300302133,-0.656086917,0.0373546556,-0.753135777
916,2294331,1669150,0.988,-0.163,0.142,4,-14.9,17.8,-5.8,29.4,-10.6,0.0303659169,-0.656331065,0.0375072481,-0.752922147
917,2296431,1669160,0.988,-0.163,0.138,2.9,-14.1,16.5,-5.9,28.9,-11.2,0.0307016205,-0.656544694,0.0376903592,-0.752708518
918,2299426,1669160,0.992,-0.167,0.134,2,-13.4,15.3,-5.9,28.9,-11.2,0.0310068056,-0.656727805,0.0378734703,-0.752494888
919,2302425,1669160,0.988,-0.163,0.134,1.2,-12.9,14,-5.9,28.9,-11.2,0.0312509537,-0.656941435,0.0380565813,-0.752311777
920,2304533,1669160,0.988,-0.159,0.13,0.7,-12.5,12.9,-5.9,28.9,-11.2,0.0314951018,-0.657124546,0.0382091739,-0.752098148
921,2306722,1669170,0.992,-0.167,0.134,0.4,-12.4,11.8,-6.4,29.1,-11.7,0.0317087313,-0.657338176,0.0383617664,-0.751915036
922,2309984,1669170,0.984,-0.167,0.134,0.2,-12.2,10.7,-6.4,29.1,-11.7,0.0318918424,-0.657521287,0.038514359,-0.751731925
923,2311509,1669170,0.992,-0.159,0.13,0.1,-12.1,9.7,-6.4,29.1,-11.7,0.0320749535,-0.657704398,0.0386059145,-0.751548814
924,2315391,1669170,0.984,-0.155,0.134,0,-11.8,8.7,-6.4,29.1,-11.7,0.032227546,-0.657887509,0.038758507,-0.751396222
925,2316715,1669180,0.984,-0.151,0.138,0.1,-11.7,7.8,-6,29.6,-11.5,0.03234962,-0.65807062,0.0388500626,-0.751213111
926,2320150,1669180,0.988,-0.152,0.13,0.2,-11.4,7,-6,29.6,-11.5,0.0324716941,-0.658253731,0.0389416181,-0.75103
927,2321955,1669180,0.992,-0.144,0.13,0.3,-10.9,6.2,-6,29.6,-11.5,0.0325937681,-0.658436842,0.0390331736,-0.750877407
928,2325123,1669180,0.992,-0.14,0.134,0.6,-10.4,5.3,-6,29.6,-11.5,0.0327158422,-0.658619953,0.0390942106,-0.750724815
929,2326526,1669190,0.992,-0.14,0.134,0.6,-10.4,5.3,-6,29.6,-11.5,0.0327158422,-0.658619953,0.0390942106,-0.750724815
930,2329318,1669190,0.992,-0.136,0.138,1.4,-9.1,4,-6.2,29.2,-11.2,0.0332346568,-0.658864101,0.0395519883,-0.750450148
931,2332427,1669190,0.992,-0.132,0.138,1.8,-8.2,3.3,-6.2,29.2,-11.2,0.0333567309,-0.658986175,0.0395519883,-0.750328074
932,2333847,1669190,0.996,-0.136,0.138,2.2,-7.4,2.8,-6.2,29.2,-11.2,0.0334482864,-0.659108249,0.0395519883,-0.750236518
933,2336863,1669200,0.992,-0.124,0.134,2.6,-6.6,2.2,-6.2,29.2,-11.2,0.0334788049,-0.659230323,0.0395519883,-0.750144963
934,2338862,1669200,0.996,-0.128,0.142,2.8,-5.7,1.7,-6.2,29.2,-11.2,0.0336008789,-0.659321879,0.0395214698,-0.750053407
935,2342456,1669200,0.996,-0.124,0.142,3.1,-4.9,1.1,-6.2,29.2,-11.2,0.033661916,-0.659382916,0.0394909513,-0.74999237
936,2344488,1669200,0.996,-0.124,0.142,3.3,-4.1,0.6,-6.2,29.2,-11.2,0.033722953,-0.659443953,0.0394299142,-0.749931333
937,2346710,1669210,0.996,-0.128,0.138,3.4,-3.2,0.1,-5.7,29.1,-11,0.03378399,-0.65950499,0.0393383587,-0.749870296
938,2349896,1669210,1.004,-0.128,0.142,3.5,-2.4,-0.2,-5.7,29.1,-11,0.0338145085,-0.659535508,0.0393078402,-0.749839778
939,2352183,1669210,1,-0.128,0.138,3.7,-1.4,-0.8,-5.7,29.1,-11,0.0338755455,-0.659566027,0.0392468032,-0.749839778
940,2354196,1669210,0.996,-0.132,0.134,3.8,-0.4,-1.1,-5.7,29.1,-11,0.033906064,-0.659566027,0.0391552477,-0.749839778
941,2357296,1669220,0.992,-0.132,0.134,4,0.4,-1.5,-5.9,29.1,-11.1,0.0339365825,-0.659566027,0.0390636921,-0.749839778
942,2359523,1669220,0.988,-0.14,0.138,4.1,1.2,-1.9,-5.9,29.1,-11.1,0.033967101,-0.659535508,0.0389721366,-0.749870296
943,2361652,1669220,0.988,-0.14,0.126,4.3,1.9,-2.3,-5.9,29.1,-11.1,0.033967101,-0.65950499,0.0388500626,-0.749900815
944,2364833,1669220,0.988,-0.136,0.134,4.5,2.5,-2.7,-5.9,29.1,-11.1,0.033967101,-0.659443953,0.038758507,-0.749931333
945,2366892,1669230,0.984,-0.132,0.134,4.7,3.1,-3,-5.8,28.9,-10.8,0.0340281381,-0.659413434,0.0386059145,-0.74999237
946,2369148,1669230,0.988,-0.132,0.134,4.7,3.6,-3.5,-5.8,28.9,-10.8,0.0340281381,-0.659352397,0.038514359,-0.750053407
947,2371751,1669230,0.984,-0.136,0.13,4.8,4.1,-3.8,-5.8,28.9,-10.8,0.0340281381,-0.659260842,0.0383617664,-0.750114444
948,2374426,1669230,0.984,-0.136,0.138,4.7,4.5,-4.1,-5.8,28.9,-10.8,0.0340281381,-0.659199805,0.0382396924,-0.750206
949,2376538,1669240,0.984,-0.136,0.138,4.7,4.5,-4.1,-5.8,28.9,-10.8,0.0340281381,-0.659199805,0.0382396924,-0.750206
950,2380135,1669240,0.984,-0.132,0.142,4.6,4.9,-4.7,-5.7,29,-11.3,0.0343638417,-0.658955657,0.0383617664,-0.750389111
951,2382456,1669240,0.984,-0.136,0.138,4.5,5.1,-4.9,-5.7,29,-11.3,0.0343638417,-0.658864101,0.0382702109,-0.750480667
952,2384214,1669240,0.98,-0.132,0.142,4.4,5.4,-5,-5.7,29,-11.3,0.0343333232,-0.658772546,0.0381176183,-0.750541704
953,2386561,1669250,0.984,-0.128,0.142,4.3,5.7,-5.2,-5.7,29,-11.3,0.0343028047,-0.65868099,0.0379650258,-0.750633259
954,2389554,1669250,0.984,-0.128,0.142,4.2,5.9,-5.4,-5.7,29,-11.3,0.0342722861,-0.658589434,0.0378429518,-0.750724815
955,2392742,1669250,0.988,-0.128,0.142,4.2,6.2,-5.5,-5.7,29,-11.3,0.0342112491,-0.658497879,0.0376903592,-0.750846889
956,2395167,1669250,0.98,-0.128,0.142,4.2,6.4,-5.6,-5.7,29,-11.3,0.0342112491,-0.658375805,0.0375377667,-0.750938444
957,2396756,1669260,0.984,-0.12,0.146,4.1,6.7,-5.8,-5.9,28.7,-11.9,0.0341502121,-0.658284249,0.0373851741,-0.75103
958,2399011,1669260,0.977,-0.116,0.142,4.2,7.1,-6,-5.9,28.7,-11.9,0.0341196936,-0.658162175,0.0372325816,-0.751152074
959,2402037,1669260,0.981,-0.116,0.146,4.2,7.4,-6.1,-5.9,28.7,-11.9,0.0340586566,-0.658040101,0.037079989,-0.751274148
960,2404389,1669260,0.977,-0.116,0.142,4.4,7.8,-6.2,-5.9,28.7,-11.9,0.0340281381,-0.657918027,0.036896878,-0.751396222
961,2406337,1669270,0.984,-0.12,0.15,4.5,8.3,-6.3,-6.1,28.5,-12.3,0.033967101,-0.657795953,0.0367748039,-0.751518296
962,2410345,1669270,0.981,-0.112,0.142,4.5,8.7,-6.4,-6.1,28.5,-12.3,0.0339365825,-0.657643361,0.0366222114,-0.75164037
963,2411896,1669270,0.977,-0.108,0.142,4.5,9.1,-6.5,-6.1,28.5,-12.3,0.0338755455,-0.657490768,0.0364085818,-0.751792962
964,2413860,1669270,0.973,-0.108,0.146,4.5,9.5,-6.6,-6.1,28.5,-12.3,0.033845027,-0.657338176,0.0362865078,-0.751945555
965,2417265,1669280,0.981,-0.112,0.146,4.4,9.9,-6.7,-6.1,28,-11.8,0.03378399,-0.657185583,0.0361339152,-0.752067629
966,2419254,1669280,0.988,-0.112,0.146,4,10.3,-6.8,-6.1,28,-11.8,0.033722953,-0.657002472,0.0359813227,-0.75225074
967,2422446,1669280,0.984,-0.116,0.146,3.6,10.5,-6.7,-6.1,28,-11.8,0.033661916,-0.656849879,0.0358287301,-0.752403333
968,2423803,1669280,0.981,-0.108,0.142,3.4,10.7,-6.6,-6.1,28,-11.8,0.0335703604,-0.656666768,0.0356761376,-0.752555925
969,2426623,1669290,0.981,-0.108,0.142,3.4,10.7,-6.6,-6.1,28,-11.8,0.0335703604,-0.656666768,0.0356761376,-0.752555925
970,2429061,1669290,0.977,-0.112,0.146,3.3,11,-6.4,-6.1,27.9,-11.9,0.033661916,-0.656147954,0.0356456191,-0.753013703
971,2432022,1669290,0.981,-0.104,0.146,3.1,11.2,-6.3,-6.1,27.9,-11.9,0.0336008789,-0.655964843,0.035523545,-0.753166295
972,2433830,1669290,0.984,-0.104,0.146,2.9,11.6,-6.2,-6.1,27.9,-11.9,0.0335398419,-0.655781732,0.0353709525,-0.753349406
973,2436442,1669300,0.985,-0.101,0.15,2.6,11.8,-6.3,-6.1,27.9,-11.9,0.0334482864,-0.655598621,0.0352488784,-0.753501999
974,2438976,1669300,0.984,-0.097,0.142,2.3,12,-6.3,-6.1,27.9,-11.9,0.0333872494,-0.65541551,0.0351268044,-0.75368511
975,2441152,1669300,0.984,-0.097,0.142,2.2,12.1,-6.3,-6.1,27.9,-11.9,0.0332956938,-0.65520188,0.0350047304,-0.753868221
976,2444596,1669300,0.988,-0.101,0.154,2.2,12.2,-6.3,-6.1,27.9,-11.9,0.0332041383,-0.655018769,0.0348826563,-0.754051332
977,2446910,1669310,0.985,-0.097,0.146,1.9,12.4,-6.1,-6,29.3,-11.7,0.0331431013,-0.654805139,0.0347911008,-0.754234443
978,2449164,1669310,0.992,-0.101,0.146,1.4,12.6,-6,-6,29.3,-11.7,0.0330515458,-0.65459151,0.0346690268,-0.754417554
979,2451622,1669310,0.988,-0.101,0.142,0.8,12.8,-5.7,-6,29.3,-11.7,0.0329599902,-0.65437788,0.0346079897,-0.754600665
980,2453949,1669310,0.988,-0.105,0.138,0.2,13.1,-5.5,-6,29.3,-11.7,0.0328684347,-0.654164251,0.0345164342,-0.754814295
981,2456267,1669320,0.984,-0.108,0.146,-0.2,13.3,-5.3,-6,29.1,-11.9,0.0327463607,-0.653950621,0.0344553972,-0.754997406
982,2458741,1669320,0.984,-0.108,0.146,-0.5,13.6,-5.1,-6,29.1,-11.9,0.0326548051,-0.653736991,0.0343943602,-0.755211035
983,2463146,1669320,0.988,-0.116,0.146,-0.9,13.7,-5,-6,29.1,-11.9,0.0325022126,-0.653523362,0.0343638417,-0.755394147
984,2463640,1669320,0.988,-0.112,0.146,-1.3,13.8,-4.8,-6,29.1,-11.9,0.0324411756,-0.653309732,0.0343333232,-0.755607776
985,2466186,1669330,0.984,-0.112,0.15,-1.8,13.9,-4.7,-5.8,29.8,-11.6,0.0323191015,-0.653065584,0.0343028047,-0.755790887
986,2470609,1669330,0.977,-0.12,0.15,-2.2,13.9,-4.6,-5.8,29.8,-11.6,0.0321970275,-0.652851955,0.0342722861,-0.756004517
987,2472682,1669330,0.981,-0.116,0.146,-2.7,13.9,-4.4,-5.8,29.8,-11.6,0.0320749535,-0.652607807,0.0342722861,-0.756187628
988,2475074,1669330,0.98,-0.124,0.142,-3.1,13.9,-4.2,-5.8,29.8,-11.6,0.0319528794,-0.652394177,0.0342722861,-0.756401257
989,2476993,1669340,0.98,-0.124,0.142,-3.1,13.9,-4.2,-5.8,29.8,-11.6,0.0319528794,-0.652394177,0.0342722861,-0.756401257
990,2479089,1669340,0.984,-0.14,0.15,-4.1,14.1,-3.7,-5.8,30.2,-11.7,0.0320749535,-0.651905881,0.0346995453,-0.756797998
991,2481731,1669340,0.981,-0.14,0.154,-4.4,14.1,-3.5,-5.8,30.2,-11.7,0.0319223609,-0.651692251,0.0347605823,-0.756981109
992,2483864,1669340,0.965,-0.139,0.146,-4.7,14,-3.4,-5.8,30.2,-11.7,0.0317697684,-0.651478622,0.0348216193,-0.757194739
993,2488286,1669350,0.973,-0.151,0.146,-4.9,13.8,-3.2,-5.8,30.2,-11.7,0.0316782128,-0.651234474,0.0348521378,-0.75737785
994,2488837,1669350,0.973,-0.155,0.15,-5.3,13.5,-3,-5.8,30.2,-11.7,0.0315256203,-0.651020844,0.0349131748,-0.757560961
995,2491963,1669350,0.973,-0.151,0.154,-5.6,13.1,-3,-5.8,30.2,-11.7,0.0314035463,-0.650807215,0.0349436934,-0.757744072
996,2493713,1669350,0.965,-0.155,0.158,-5.7,12.8,-2.9,-5.8,30.2,-11.7,0.0312509537,-0.650593585,0.0350352489,-0.757927183
997,2496723,1669360,0.961,-0.155,0.154,-5.5,12.6,-2.8,-6.2,29.6,-11.4,0.0310983612,-0.650410474,0.0350962859,-0.758110294
