sample_index,elapsed_us,device_time_ms,acc_x_g,acc_y_g,acc_z_g,gyro_x_dps,gyro_y_dps,gyro_z_dps,mag_x_ut,mag_y_ut,mag_z_ut,quat_w,quat_x,quat_y,quat_z
0,5266,366270,0.928,0.24,0.262,-4.8,3.9,-3,-12.5,-35.2,5.8,0.651814325,-0.193578906,-0.571703238,-0.459089938
1,7629,366270,0.932,0.255,0.27,-0.7,1.4,-0.3,-12.5,-35.2,5.8,0.651844844,-0.193548387,-0.571642201,-0.459181494
2,9867,366270,0.936,0.259,0.27,1.2,0.1,1.3,-12.5,-35.2,5.8,0.651844844,-0.193548387,-0.571642201,-0.459120457
3,12157,366270,0.936,0.263,0.274,2.5,-0.6,2.6,-12.5,-35.2,5.8,0.651875362,-0.193548387,-0.571642201,-0.45905942
4,14297,366280,0.932,0.267,0.27,2.9,-0.7,3.4,-12.5,-35.2,5.8,0.651905881,-0.193578906,-0.57167272,-0.458967864
5,16524,366280,0.928,0.271,0.274,2.4,-0.4,3.5,-12.5,-35.2,5.8,0.651966918,-0.193578906,-0.571703238,-0.458906827
6,18494,366280,0.94,0.271,0.274,1.7,0,3,-12.5,-35.2,5.9,0.651997436,-0.193578906,-0.571703238,-0.458815271
7,20802,366280,0.932,0.271,0.27,1.1,0.3,2.6,-12.5,-35.2,5.9,0.652027955,-0.193578906,-0.571703238,-0.458784753
8,24810,366290,0.932,0.279,0.266,1,0.4,2.4,-12.5,-35.2,5.9,0.652058473,-0.193578906,-0.571703238,-0.458723716
9,27083,366290,0.928,0.283,0.27,1.3,0.4,2.6,-12.5,-35.2,5.9,0.652088992,-0.193639943,-0.57167272,-0.458662679
10,29410,366290,0.932,0.279,0.274,1.8,0.3,2.6,-12.3,-34.5,6,0.652150029,-0.193639943,-0.571703238,-0.45863216
11,31497,366290,0.932,0.271,0.27,2.1,0.1,2.4,-12.3,-34.5,6,0.652180548,-0.193639943,-0.571703238,-0.458571123
12,33538,366300,0.928,0.275,0.274,2.3,0,2,-12.3,-34.5,6,0.652211066,-0.193639943,-0.571703238,-0.458510086
13,37525,366300,0.928,0.275,0.27,2.3,0,1.7,-12.3,-34.5,6,0.652241585,-0.193578906,-0.571733757,-0.458449049
14,39913,366300,0.928,0.271,0.266,2.2,0,1.1,-12.5,-35.2,5.5,0.652272103,-0.193578906,-0.571733757,-0.458388012
15,42223,366300,0.928,0.267,0.274,2.2,0,1.1,-12.5,-35.2,5.5,0.652302622,-0.193578906,-0.571733757,-0.458357494
16,44494,366310,0.928,0.267,0.27,2.1,0.2,0.8,-12.5,-35.2,5.5,0.652302622,-0.193548387,-0.571764275,-0.458326975
17,46454,366310,0.932,0.259,0.27,2.1,0.3,0.6,-12.5,-35.2,5.5,0.65233314,-0.193548387,-0.571764275,-0.458265938
18,48554,366310,0.928,0.263,0.274,2,0.4,0.5,-13,-34.6,6.4,0.652363659,-0.193517869,-0.571794794,-0.45823542
19,52353,366310,0.932,0.255,0.266,1.9,0.3,0.6,-13,-34.6,6.4,0.652363659,-0.19348735,-0.571794794,-0.458204901
20,53919,366320,0.932,0.255,0.266,1.9,0.3,0.6,-13,-34.6,6.4,0.652363659,-0.19348735,-0.571794794,-0.458204901
21,55992,366320,0.928,0.255,0.27,1.4,0.3,0.6,-13,-34.6,6.4,0.652394177,-0.193456832,-0.571825312,-0.458174383
22,59944,366320,0.928,0.255,0.27,1.2,0.2,0.6,-13,-34.6,6.4,0.652424696,-0.193426313,-0.571825312,-0.458143864
23,62118,366320,0.932,0.251,0.27,0.9,0,0.6,-13,-34.6,6.4,0.652424696,-0.193426313,-0.571825312,-0.458113346
24,64359,366330,0.932,0.255,0.274,0.6,0,0.5,-13,-34.6,6.4,0.652455214,-0.193426313,-0.571825312,-0.458113346
25,66474,366330,0.932,0.255,0.27,0.4,0,0.3,-13,-34.6,6.4,0.652455214,-0.193426313,-0.571825312,-0.458082827
26,69427,366330,0.928,0.247,0.27,0.1,0.1,0.3,-12.7,-34.7,6.4,0.652455214,-0.193426313,-0.571825312,-0.458082827
27,70843,366330,0.932,0.251,0.277,0,0.2,0.4,-12.7,-34.7,6.4,0.652455214,-0.193426313,-0.571825312,-0.458082827
28,74044,366340,0.932,0.251,0.27,-0.2,0.2,0.5,-12.7,-34.7,6.4,0.652485733,-0.193426313,-0.571825312,-0.458082827
29,76537,366340,0.932,0.251,0.27,-0.4,0.2,0.4,-12.7,-34.7,6.4,0.652485733,-0.193426313,-0.571794794,-0.458082827
30,79707,366340,0.932,0.247,0.27,-0.5,0.1,0.1,-12.5,-35.1,5.9,0.652485733,-0.193456832,-0.571794794,-0.458082827
31,81898,366340,0.932,0.247,0.27,-0.7,0.2,-0.1,-12.5,-35.1,5.9,0.652485733,-0.193456832,-0.571794794,-0.458082827
32,84201,366350,0.932,0.243,0.277,-0.8,0.2,-0.1,-12.5,-35.1,5.9,0.652485733,-0.193456832,-0.571764275,-0.458113346
33,86419,366350,0.936,0.243,0.27,-0.9,0.4,-0.1,-12.5,-35.1,5.9,0.652485733,-0.193456832,-0.571764275,-0.458113346
34,89479,366350,0.932,0.243,0.27,-1,0.6,-0.1,-12.7,-35.1,5.7,0.652638325,-0.193823054,-0.571611682,-0.457930235
35,92414,366350,0.932,0.243,0.27,-1,0.6,-0.1,-12.7,-35.1,5.7,0.652638325,-0.193823054,-0.571581164,-0.457960753
36,93931,366360,0.932,0.243,0.27,-1.1,0.7,-0.2,-12.7,-35.1,5.7,0.652638325,-0.193823054,-0.571581164,-0.457960753
37,97654,366360,0.932,0.239,0.273,-1.2,0.7,-0.4,-12.7,-35.1,5.7,0.652638325,-0.193823054,-0.571550645,-0.457991272
38,99257,366360,0.936,0.239,0.269,-1.3,0.8,-0.5,-12.7,-35.1,6.2,0.652638325,-0.193823054,-0.571520127,-0.45802179
39,102170,366360,0.936,0.243,0.27,-1.3,0.9,-0.5,-12.7,-35.1,6.2,0.652638325,-0.193823054,-0.571489608,-0.458052309
40,103797,366370,0.936,0.243,0.27,-1.3,0.9,-0.5,-12.7,-35.1,6.2,0.652638325,-0.193823054,-0.571489608,-0.458052309
41,106749,366370,0.936,0.243,0.273,-1.5,0.7,-0.4,-12.7,-35.1,6.2,0.652638325,-0.193853572,-0.57145909,-0.458113346
42,110036,366370,0.936,0.247,0.27,-1.5,0.7,-0.4,-12.7,-35.1,6.2,0.652638325,-0.193853572,-0.571428571,-0.458143864
43,112385,366370,0.932,0.251,0.266,-1.6,0.5,-0.3,-12.7,-35.1,6.2,0.652638325,-0.193884091,-0.571398053,-0.458174383
44,113715,366380,0.94,0.251,0.27,-1.6,0.5,-0.4,-12.7,-35.1,6.2,0.652638325,-0.193884091,-0.571367534,-0.458204901
45,116947,366380,0.936,0.255,0.27,-1.8,0.3,-0.4,-12.7,-35.1,6.2,0.652638325,-0.193914609,-0.571367534,-0.45823542
46,119620,366380,0.94,0.259,0.27,-1.8,0.2,-0.4,-13.4,-34.9,6,0.652607807,-0.193914609,-0.571337016,-0.458265938
47,121038,366380,0.936,0.255,0.27,-1.8,0.2,-0.2,-13.4,-34.9,6,0.652607807,-0.193945128,-0.571275979,-0.458265938
48,124219,366390,0.936,0.259,0.27,-1.9,0.4,-0.1,-13.4,-34.9,6,0.652607807,-0.193975646,-0.571275979,-0.458296457
49,127359,366390,0.936,0.259,0.274,-1.9,0.4,-0.1,-13.4,-34.9,6,0.652607807,-0.193975646,-0.571275979,-0.458326975
50,129856,366390,0.936,0.259,0.27,-1.9,0.3,-0.1,-12.9,-35,5.7,0.652607807,-0.194006165,-0.57124546,-0.458357494
51,132019,366390,0.936,0.263,0.274,-1.9,0.2,-0.1,-12.9,-35,5.7,0.652607807,-0.194036683,-0.571214942,-0.458388012
52,134096,366400,0.932,0.263,0.27,-2,0.1,-0.1,-12.9,-35,5.7,0.652577288,-0.194067202,-0.571184423,-0.458418531
53,136530,366400,0.928,0.259,0.27,-2,0.1,-0.1,-12.9,-35,5.7,0.652577288,-0.19409772,-0.571184423,-0.458449049
54,138651,366400,0.932,0.263,0.27,-2.1,0.1,-0.1,-12.8,-35.3,5.5,0.652638325,-0.194250313,-0.571123386,-0.458388012
55,140884,366400,0.928,0.263,0.27,-2.1,0.1,-0.1,-12.8,-35.3,5.5,0.652607807,-0.194280831,-0.571092868,-0.458418531
56,143669,366410,0.928,0.259,0.27,-2,0,-0.1,-12.8,-35.3,5.5,0.652607807,-0.19431135,-0.571062349,-0.458449049
57,146025,366410,0.932,0.263,0.27,-2,0,-0.1,-12.8,-35.3,5.5,0.652607807,-0.194341868,-0.571062349,-0.458479568
58,148389,366410,0.932,0.263,0.27,-1.9,-0.2,-0.1,-13.3,-34.5,6.1,0.652577288,-0.194372387,-0.571031831,-0.458479568
59,152270,366410,0.928,0.263,0.266,-2,-0.3,0,-13.3,-34.5,6.1,0.652577288,-0.194402905,-0.571031831,-0.458510086
60,154546,366420,0.928,0.263,0.266,-2,-0.3,0,-13.3,-34.5,6.1,0.652577288,-0.194402905,-0.571031831,-0.458510086
61,156757,366420,0.924,0.259,0.278,-2.1,-0.4,-0.2,-13.3,-34.5,6.1,0.65254677,-0.194463942,-0.571001312,-0.458571123
62,158630,366420,0.924,0.259,0.27,-2,-0.5,-0.3,-13.3,-34.5,6.1,0.652516251,-0.194494461,-0.570970794,-0.458601642
63,160941,366420,0.928,0.263,0.27,-1.9,-0.6,-0.4,-13.3,-34.5,6.1,0.652485733,-0.194524979,-0.570970794,-0.45863216
64,165231,366430,0.924,0.263,0.274,-1.6,-0.6,-0.4,-13.3,-34.5,6.1,0.652485733,-0.194555498,-0.570970794,-0.458662679
65,167360,366430,0.932,0.259,0.274,-1.4,-0.6,-0.5,-13.3,-34.5,6.1,0.652455214,-0.194555498,-0.570970794,-0.458662679
66,168951,366430,0.932,0.259,0.278,-1.2,-0.6,-0.6,-13.2,-35.4,5.9,0.652424696,-0.194555498,-0.570970794,-0.458693197
67,171691,366430,0.932,0.259,0.278,-1.2,-0.6,-0.9,-13.2,-35.4,5.9,0.652424696,-0.194555498,-0.570970794,-0.458723716
68,174461,366440,0.932,0.255,0.27,-1.2,-0.5,-1.1,-13.2,-35.4,5.9,0.652394177,-0.194616535,-0.570970794,-0.458754234
69,175919,366440,0.928,0.255,0.274,-1.2,-0.4,-1.3,-13.2,-35.4,5.9,0.652363659,-0.194616535,-0.570970794,-0.458784753
70,178290,366440,0.932,0.255,0.274,-1.1,-0.3,-1.6,-13.2,-35.2,5.8,0.65233314,-0.194616535,-0.570970794,-0.458815271
71,182057,366440,0.932,0.251,0.277,-1,-0.1,-1.8,-13.2,-35.2,5.8,0.652302622,-0.194555498,-0.570970794,-0.458876308
72,183487,366450,0.936,0.247,0.27,-1,0,-1.9,-13.2,-35.2,5.8,0.652302622,-0.194555498,-0.570970794,-0.458906827
73,186820,366450,0.936,0.247,0.273,-1,0.1,-1.9,-13.2,-35.2,5.8,0.652272103,-0.194555498,-0.570970794,-0.458937346
74,188918,366450,0.94,0.239,0.269,-1.3,0,-2,-13.5,-35.4,5.8,0.652394177,-0.194860683,-0.57084872,-0.458815271
75,191938,366450,0.936,0.232,0.265,-1.3,0,-2,-13.5,-35.4,5.8,0.652363659,-0.194830164,-0.570818201,-0.458876308
76,193398,366460,0.936,0.235,0.269,-1.6,-0.1,-2.1,-13.5,-35.4,5.8,0.65233314,-0.194830164,-0.570818201,-0.458906827
77,196416,366460,0.936,0.235,0.269,-1.8,-0.1,-2.2,-13.5,-35.4,5.8,0.652302622,-0.194830164,-0.570818201,-0.458967864
78,199337,366460,0.94,0.235,0.269,-2.1,-0.1,-2.2,-13.2,-35.3,5.7,0.652272103,-0.194860683,-0.570818201,-0.459028901
79,202138,366460,0.94,0.231,0.269,-2.6,0,-2.1,-13.2,-35.3,5.7,0.652241585,-0.194860683,-0.570787683,-0.459089938
80,203493,366470,0.94,0.231,0.269,-2.6,0,-2.1,-13.2,-35.3,5.7,0.652241585,-0.194860683,-0.570787683,-0.459089938
81,206731,366470,0.936,0.232,0.265,-3.3,0,-1.7,-13.2,-35.3,5.7,0.652180548,-0.194891202,-0.570757164,-0.459212012
82,209738,366470,0.94,0.232,0.265,-3.6,-0.1,-1.5,-13.2,-35.3,5.7,0.65211951,-0.19492172,-0.570726646,-0.459303568
83,212026,366470,0.94,0.228,0.269,-3.9,-0.3,-1.5,-13.2,-35.3,5.7,0.652088992,-0.194982757,-0.570696127,-0.459364605
84,214262,366480,0.94,0.231,0.273,-4,-0.5,-1.2,-13.2,-35.3,5.7,0.652058473,-0.195013276,-0.570665609,-0.459425642
85,217259,366480,0.94,0.239,0.265,-4.1,-0.7,-1,-13.2,-35.3,5.7,0.652027955,-0.195074313,-0.57063509,-0.45945616
86,219577,366480,0.94,0.231,0.273,-4.1,-0.7,-0.7,-13.3,-35,6.1,0.651997436,-0.19513535,-0.570604572,-0.459547716
87,221853,366480,0.936,0.239,0.273,-4.1,-0.7,-0.7,-13.3,-35,6.1,0.651966918,-0.195196387,-0.570574053,-0.459608753
88,224004,366490,0.936,0.235,0.269,-4.2,-0.6,-0.8,-13.3,-35,6.1,0.651905881,-0.195257424,-0.570543535,-0.45966979
89,226116,366490,0.936,0.243,0.266,-4.2,-0.6,-0.8,-13.3,-35,6.1,0.651875362,-0.195318461,-0.570513016,-0.459730827
90,228381,366490,0.944,0.239,0.273,-4.2,-0.7,-0.6,-13.7,-34.8,5.9,0.651844844,-0.195379498,-0.570482498,-0.459791864
91,230792,366490,0.936,0.243,0.27,-4.1,-0.8,-0.6,-13.7,-34.8,5.9,0.651814325,-0.195410016,-0.570451979,-0.459852901
92,234001,366500,0.94,0.243,0.269,-4,-0.9,-0.5,-13.7,-34.8,5.9,0.651783807,-0.195471053,-0.570451979,-0.459913938
93,237040,366500,0.936,0.239,0.269,-3.8,-1,-0.5,-13.7,-34.8,5.9,0.651753288,-0.19553209,-0.570421461,-0.459944456
94,238550,366500,0.936,0.243,0.27,-3.3,-1,-0.8,-13.4,-34.6,6.1,0.651875362,-0.196020386,-0.570299387,-0.459700308
95,240794,366500,0.936,0.243,0.27,-3.3,-1,-0.8,-13.4,-34.6,6.1,0.651844844,-0.196081423,-0.570268868,-0.459761345
96,243979,366510,0.94,0.243,0.273,-3.2,-0.9,-0.9,-13.4,-34.6,6.1,0.651814325,-0.196111942,-0.570268868,-0.459822382
97,246013,366510,0.932,0.243,0.27,-3,-1,-1,-13.4,-34.6,6.1,0.651783807,-0.19614246,-0.57023835,-0.459852901
98,248339,366510,0.936,0.247,0.273,-2.9,-1.1,-1,-14.2,-34.9,6.1,0.651753288,-0.196203497,-0.57023835,-0.459913938
99,251395,366510,0.932,0.247,0.27,-2.8,-1.3,-1,-14.2,-34.9,6.1,0.651692251,-0.196234016,-0.57023835,-0.459944456
100,254437,366520,0.932,0.247,0.27,-2.8,-1.3,-1,-14.2,-34.9,6.1,0.651692251,-0.196234016,-0.57023835,-0.459944456
101,256681,366520,0.932,0.243,0.273,-2.7,-1.5,-0.9,-14.2,-34.9,6.1,0.651631214,-0.196325571,-0.57023835,-0.460036012
102,259644,366520,0.928,0.243,0.274,-2.6,-1.6,-0.9,-14.2,-34.9,6.1,0.651570177,-0.19635609,-0.57023835,-0.46006653
103,261798,366520,0.936,0.243,0.277,-2.6,-1.6,-1.1,-14.2,-34.9,6.1,0.651539659,-0.196386608,-0.57023835,-0.460127567
104,263320,366530,0.928,0.247,0.27,-2.4,-1.5,-1.2,-14.2,-34.9,6.1,0.651478622,-0.196447645,-0.57023835,-0.460158086
105,266556,366530,0.936,0.247,0.277,-2.3,-1.5,-1.2,-14.2,-34.9,6.1,0.651448103,-0.196478164,-0.57023835,-0.460188604
106,268791,366530,0.936,0.239,0.273,-2.2,-1.6,-1.2,-13.7,-35.2,5.2,0.651417585,-0.196508683,-0.57023835,-0.460249641
107,271027,366530,0.924,0.239,0.274,-2.2,-1.7,-1.1,-13.7,-35.2,5.2,0.651356548,-0.196508683,-0.57023835,-0.46028016
108,274391,366540,0.924,0.243,0.274,-2.2,-1.7,-0.9,-13.7,-35.2,5.2,0.651326029,-0.19656972,-0.570268868,-0.460310678
109,276513,366540,0.924,0.239,0.274,-2.1,-1.7,-0.9,-13.7,-35.2,5.2,0.651295511,-0.196600238,-0.570268868,-0.460341197
110,279661,366540,0.924,0.243,0.274,-2,-1.9,-0.9,-13.2,-35.4,5.6,0.651234474,-0.196661275,-0.570268868,-0.460371715
111,281916,366540,0.924,0.255,0.282,-1.9,-2,-0.8,-13.2,-35.4,5.6,0.651203955,-0.196691794,-0.570299387,-0.460402234
112,284090,366550,0.924,0.251,0.27,-1.7,-2.2,-0.7,-13.2,-35.4,5.6,0.651142918,-0.196722312,-0.570299387,-0.460432752
113,286135,366550,0.92,0.247,0.278,-1.4,-2.2,-0.6,-13.2,-35.4,5.6,0.6511124,-0.196752831,-0.570329905,-0.460432752
114,289336,366550,0.924,0.255,0.278,-1.2,-2.1,-0.6,-14,-35.3,5.5,0.651203955,-0.19696646,-0.570207831,-0.460371715
115,291576,366550,0.92,0.255,0.278,-1.2,-2.1,-0.6,-14,-35.3,5.5,0.651173437,-0.196996979,-0.57023835,-0.460371715
116,294538,366560,0.92,0.259,0.274,-1.2,-2,-0.5,-14,-35.3,5.5,0.6511124,-0.197027497,-0.570268868,-0.460402234
117,295943,366560,0.92,0.259,0.27,-1.2,-1.9,-0.5,-14,-35.3,5.5,0.651081881,-0.197058016,-0.570268868,-0.460402234
118,299823,366560,0.92,0.267,0.286,-1.2,-1.9,-0.4,-13.7,-35.3,5.4,0.651051363,-0.197088534,-0.570299387,-0.460432752
119,302156,366560,0.924,0.259,0.282,-1.2,-1.9,-0.5,-13.7,-35.3,5.4,0.651020844,-0.197119053,-0.570329905,-0.460432752
120,304412,366570,0.924,0.259,0.282,-1.2,-1.9,-0.5,-13.7,-35.3,5.4,0.651020844,-0.197119053,-0.570329905,-0.460432752
121,306543,366570,0.92,0.271,0.278,-1.2,-2,-0.8,-13.7,-35.3,5.4,0.650929289,-0.19718009,-0.570360424,-0.460463271
122,309496,366570,0.924,0.271,0.274,-1.2,-2,-0.8,-13.7,-35.3,5.4,0.65089877,-0.19718009,-0.570390942,-0.460493789
123,310974,366570,0.92,0.267,0.274,-1.3,-2,-0.9,-13.7,-35.3,5.4,0.650868252,-0.197210608,-0.570390942,-0.460524308
124,313298,366580,0.928,0.267,0.274,-1.5,-1.9,-1,-13.7,-35.3,5.4,0.650837733,-0.197241127,-0.570421461,-0.460524308
125,316536,366580,0.924,0.271,0.27,-1.6,-1.8,-1.2,-13.7,-35.3,5.4,0.650776696,-0.197271645,-0.570421461,-0.460554827
126,319867,366580,0.924,0.271,0.27,-1.8,-1.7,-1.3,-13.5,-34.8,6.1,0.650746178,-0.197302164,-0.570451979,-0.460615864
127,321488,366580,0.924,0.271,0.274,-2,-1.6,-1.4,-13.5,-34.8,6.1,0.650685141,-0.197332682,-0.570451979,-0.460646382
128,323514,366590,0.928,0.267,0.278,-2.2,-1.5,-1.4,-13.5,-34.8,6.1,0.650654622,-0.197363201,-0.570451979,-0.460676901
129,325875,366590,0.928,0.263,0.27,-2.4,-1.5,-1.6,-13.5,-34.8,6.1,0.650593585,-0.197393719,-0.570451979,-0.460737938
130,328902,366590,0.932,0.263,0.27,-2.5,-1.5,-1.8,-14,-34.9,5.4,0.650563066,-0.197424238,-0.570451979,-0.460768456
131,332107,366590,0.928,0.267,0.274,-2.8,-1.7,-2,-14,-34.9,5.4,0.650502029,-0.197454756,-0.570451979,-0.460829493
132,334247,366600,0.936,0.259,0.27,-3,-1.7,-2,-14,-34.9,5.4,0.650440992,-0.197485275,-0.570482498,-0.46089053
133,337194,366600,0.936,0.263,0.274,-3.2,-1.7,-2.2,-14,-34.9,5.4,0.650379955,-0.197485275,-0.570482498,-0.460951567
134,338907,366600,0.936,0.255,0.27,-3.5,-1.7,-2.5,-14,-34.8,6.3,0.650379955,-0.197637867,-0.570421461,-0.460982086
135,342059,366600,0.94,0.255,0.277,-3.5,-1.7,-2.5,-14,-34.8,6.3,0.650318918,-0.197668386,-0.570421461,-0.461043123
136,344293,366610,0.932,0.255,0.27,-3.7,-1.7,-2.4,-14,-34.8,6.3,0.650257881,-0.197729423,-0.570421461,-0.461134678
137,345880,366610,0.94,0.251,0.27,-4,-1.7,-2.2,-14,-34.8,6.3,0.650196844,-0.197759941,-0.570421461,-0.461195715
138,349893,366610,0.936,0.255,0.274,-4.3,-1.6,-2.2,-14.1,-34.7,5.6,0.650135807,-0.197820978,-0.570421461,-0.461287271
139,352103,366610,0.94,0.255,0.277,-4.5,-1.5,-2.2,-14.1,-34.7,5.6,0.65007477,-0.197882015,-0.570390942,-0.461378826
140,354380,366620,0.94,0.255,0.277,-4.5,-1.5,-2.2,-14.1,-34.7,5.6,0.65007477,-0.197882015,-0.570390942,-0.461378826
141,356648,366620,0.936,0.255,0.274,-4.9,-1.7,-2.4,-14.1,-34.7,5.6,0.649922178,-0.197973571,-0.570360424,-0.461531419
142,358621,366620,0.936,0.255,0.274,-5.1,-1.8,-2.4,-14.1,-34.7,5.6,0.649861141,-0.198034608,-0.570360424,-0.461622974
143,360971,366620,0.936,0.255,0.274,-5.3,-1.8,-2.5,-14.1,-34.7,5.6,0.649800104,-0.198095645,-0.570329905,-0.46171453
144,364524,366630,0.936,0.255,0.274,-5.4,-1.8,-2.5,-14.1,-34.7,5.6,0.649708548,-0.198187201,-0.570329905,-0.461806085
145,366799,366630,0.936,0.255,0.274,-5.5,-1.8,-2.5,-14.1,-34.7,5.6,0.649647511,-0.198248238,-0.570299387,-0.461928159
146,369076,366630,0.94,0.251,0.273,-5.5,-1.8,-2.5,-13.7,-35.3,5.7,0.649586474,-0.198309275,-0.570268868,-0.462019715
147,372287,366630,0.936,0.251,0.274,-5.3,-1.7,-2.5,-13.7,-35.3,5.7,0.649494919,-0.198370312,-0.570268868,-0.46211127
148,373984,366640,0.936,0.251,0.274,-5.3,-1.5,-2.7,-13.7,-35.3,5.7,0.649403363,-0.198431349,-0.57023835,-0.462202826
149,376111,366640,0.936,0.251,0.277,-5.2,-1.4,-2.8,-13.7,-35.3,5.7,0.649372845,-0.198461867,-0.570207831,-0.462294382
150,378461,366640,0.936,0.243,0.273,-5.2,-1.3,-2.9,-13.4,-34.7,5.7,0.649281289,-0.198522904,-0.570207831,-0.462416456
151,380781,366640,0.94,0.243,0.273,-5.2,-1.3,-3.1,-13.4,-34.7,5.7,0.649220252,-0.198583941,-0.570177313,-0.462508011
152,383326,366650,0.936,0.247,0.27,-5.2,-1.3,-3.2,-13.4,-34.7,5.7,0.649159215,-0.19861446,-0.570146794,-0.462630085
153,386015,366650,0.932,0.239,0.277,-5,-1.3,-3.2,-13.4,-34.7,5.7,0.64906766,-0.198675497,-0.570146794,-0.462721641
154,389934,366650,0.936,0.243,0.273,-5,-1.3,-3.1,-13.6,-35.5,6.1,0.649220252,-0.199072237,-0.569963683,-0.462599567
155,392310,366650,0.936,0.243,0.273,-5,-1.3,-3.1,-13.6,-35.5,6.1,0.649128697,-0.199133274,-0.569933164,-0.462691122
156,394461,366660,0.936,0.243,0.266,-5,-1.4,-3.1,-13.6,-35.5,6.1,0.64906766,-0.199163793,-0.569933164,-0.462782678
157,396747,366660,0.936,0.239,0.273,-5,-1.5,-3,-13.6,-35.5,6.1,0.649006623,-0.19922483,-0.569902646,-0.462904752
158,398441,366660,0.932,0.232,0.269,-5,-1.5,-3.2,-13.7,-34.9,6.1,0.648915067,-0.199255348,-0.569902646,-0.462996307
159,402284,366660,0.932,0.236,0.269,-4.9,-1.6,-3.2,-13.7,-34.9,6.1,0.64885403,-0.199316385,-0.569872127,-0.463087863
160,404561,366670,0.932,0.236,0.269,-4.9,-1.6,-3.2,-13.7,-34.9,6.1,0.64885403,-0.199316385,-0.569872127,-0.463087863
161,406769,366670,0.928,0.232,0.269,-5.1,-1.8,-3,-13.7,-34.9,6.1,0.648701437,-0.199407941,-0.569841609,-0.463301492
162,409701,366670,0.928,0.239,0.277,-5.2,-1.8,-2.9,-13.7,-34.9,6.1,0.648609882,-0.199438459,-0.569841609,-0.463362529
163,411123,366670,0.928,0.239,0.277,-5.3,-1.9,-2.8,-13.7,-34.9,6.1,0.648548845,-0.199530015,-0.56981109,-0.463484603
164,414495,366680,0.924,0.239,0.274,-5.3,-2,-2.5,-13.7,-34.9,6.1,0.648457289,-0.199591052,-0.56981109,-0.463576159
165,416666,366680,0.924,0.24,0.27,-5.3,-2,-2.3,-13.7,-34.9,6.1,0.648396252,-0.199682608,-0.569780572,-0.463667714
166,418967,366680,0.92,0.243,0.274,-5.3,-2.1,-1.9,-13.1,-34.8,5.6,0.648335215,-0.199743645,-0.569780572,-0.46375927
167,421001,366680,0.92,0.247,0.282,-5.2,-2.3,-1.7,-13.1,-34.8,5.6,0.64824366,-0.1998352,-0.569780572,-0.463850826
168,423301,366690,0.916,0.247,0.282,-5.2,-2.4,-1.7,-13.1,-34.8,5.6,0.648182623,-0.199896237,-0.569750053,-0.463911863
169,425801,366690,0.916,0.251,0.282,-5.2,-2.5,-1.5,-13.1,-34.8,5.6,0.648121586,-0.199987793,-0.569750053,-0.464003418
170,429611,366690,0.916,0.259,0.282,-5.2,-2.6,-1.3,-13.1,-34.7,5.3,0.64803003,-0.20004883,-0.569750053,-0.464064455
171,431950,366690,0.92,0.263,0.282,-5.2,-2.7,-1.3,-13.1,-34.7,5.3,0.647968993,-0.200140385,-0.569719535,-0.464125492
172,433447,366700,0.92,0.263,0.278,-5,-2.8,-1.2,-13.1,-34.7,5.3,0.647907956,-0.200231941,-0.569719535,-0.464217048
173,435888,366700,0.92,0.267,0.282,-5,-2.8,-1.3,-13.1,-34.7,5.3,0.647846919,-0.200323496,-0.569719535,-0.464278085
174,439677,366700,0.912,0.271,0.282,-4.9,-2.8,-1.4,-13.2,-34.4,5.7,0.647846919,-0.200415052,-0.569566942,-0.46436964
175,441938,366700,0.912,0.271,0.286,-4.7,-2.9,-1.5,-13.2,-34.4,5.7,0.647785882,-0.200506607,-0.569566942,-0.464430677
176,444105,366710,0.908,0.271,0.286,-4.6,-3.1,-1.8,-13.2,-34.4,5.7,0.647694327,-0.200567644,-0.569597461,-0.464491714
177,446212,366710,0.912,0.271,0.286,-4.6,-3.4,-2.2,-13.2,-34.4,5.7,0.64763329,-0.200628681,-0.569597461,-0.46458327
178,448484,366710,0.905,0.267,0.29,-4.6,-3.7,-2.6,-13.1,-34.5,5.7,0.647541734,-0.200720237,-0.569627979,-0.464644307
179,450749,366710,0.905,0.263,0.286,-4.7,-4.1,-2.9,-13.1,-34.5,5.7,0.64741966,-0.200781274,-0.569627979,-0.464735862
180,453313,366720,0.905,0.263,0.286,-4.7,-4.1,-2.9,-13.1,-34.5,5.7,0.64741966,-0.200781274,-0.569627979,-0.464735862
181,456976,366720,0.901,0.255,0.294,-4.9,-4.9,-3.6,-13.1,-34.5,5.7,0.64720603,-0.200933866,-0.569689016,-0.464918973
182,459381,366720,0.901,0.255,0.29,-4.9,-5.3,-4,-13.1,-34.5,5.7,0.647053438,-0.200994903,-0.569750053,-0.465010529
183,461504,366720,0.897,0.251,0.29,-5,-5.7,-4.4,-13.1,-34.5,5.7,0.646931364,-0.201086459,-0.56981109,-0.465102084
184,464910,366730,0.897,0.247,0.286,-5.2,-6,-4.6,-13.1,-34.5,5.7,0.646778771,-0.201147496,-0.569841609,-0.465224158
185,467103,366730,0.897,0.24,0.29,-5.5,-6.4,-4.8,-13.1,-34.5,5.7,0.646626179,-0.201239051,-0.569902646,-0.465315714
186,468565,366730,0.897,0.236,0.298,-5.8,-6.7,-4.9,-13.3,-34.8,5.5,0.646473586,-0.201330607,-0.569963683,-0.465437788
187,470983,366730,0.893,0.232,0.294,-6,-6.9,-5.1,-13.3,-34.8,5.5,0.646290475,-0.201391644,-0.57002472,-0.465559862
188,474938,366740,0.897,0.232,0.286,-6.2,-7.2,-5.2,-13.3,-34.8,5.5,0.646137883,-0.201513718,-0.570085757,-0.465681936
189,477217,366740,0.897,0.228,0.29,-6.3,-7.4,-5.3,-13.3,-34.8,5.5,0.645954772,-0.201605274,-0.570146794,-0.46580401
190,479463,366740,0.897,0.224,0.293,-6.3,-7.5,-5.3,-13.4,-34.7,5.7,0.645771661,-0.201727348,-0.570207831,-0.465926084
191,481759,366740,0.901,0.224,0.289,-6.2,-7.7,-5.2,-13.4,-34.7,5.7,0.645588549,-0.201818903,-0.570268868,-0.466048158
192,483649,366750,0.897,0.232,0.286,-6.1,-8,-5.1,-13.4,-34.7,5.7,0.645435957,-0.201910459,-0.570360424,-0.466139714
193,485910,366750,0.905,0.232,0.289,-5.8,-8.3,-4.7,-13.4,-34.7,5.7,0.645252846,-0.202032533,-0.570421461,-0.466261788
194,489731,366750,0.905,0.239,0.29,-5.6,-8.7,-4.2,-13.5,-34.7,5.9,0.645283364,-0.202276681,-0.570268868,-0.466292306
195,491087,366750,0.905,0.239,0.29,-5.3,-9.1,-3.6,-13.5,-34.7,5.9,0.645100253,-0.202368236,-0.570360424,-0.466383862
196,494047,366760,0.905,0.247,0.294,-5.2,-9.5,-3.3,-13.5,-34.7,5.9,0.644947661,-0.202520829,-0.570451979,-0.466444899
197,496340,366760,0.905,0.247,0.29,-5.2,-9.7,-3.2,-13.5,-34.7,5.9,0.64476455,-0.202673421,-0.570543535,-0.466505936
198,499392,366760,0.901,0.247,0.294,-5.2,-10,-3.2,-13.3,-34.8,5.7,0.644581439,-0.202795495,-0.57063509,-0.466566973
199,500866,366760,0.897,0.251,0.286,-5.2,-10.1,-3.2,-13.3,-34.8,5.7,0.644398328,-0.202948088,-0.570757164,-0.466658528
200,504095,366770,0.897,0.251,0.286,-5.2,-10.1,-3.2,-13.3,-34.8,5.7,0.644398328,-0.202948088,-0.570757164,-0.466658528
201,507075,366770,0.893,0.251,0.29,-5,-10.7,-3.3,-13.3,-34.8,5.7,0.644001587,-0.203222755,-0.570970794,-0.466780602
202,508482,366770,0.885,0.255,0.29,-5,-11.2,-3.3,-13.3,-34.8,5.7,0.643818476,-0.203344829,-0.571092868,-0.466841639
203,511503,366770,0.885,0.255,0.29,-4.9,-11.8,-3.4,-13.3,-34.8,5.7,0.643604846,-0.203497421,-0.57124546,-0.466872158
204,514615,366780,0.881,0.255,0.298,-4.8,-12.4,-3.4,-13.3,-34.8,5.7,0.643391217,-0.203650014,-0.571367534,-0.466933195
205,516976,366780,0.881,0.259,0.294,-4.7,-13,-3.3,-13.3,-34.8,5.7,0.643177587,-0.203833125,-0.571520127,-0.466994232
206,519014,366780,0.877,0.263,0.294,-4.7,-13.5,-3.1,-13,-35.1,5,0.642963958,-0.203985717,-0.57167272,-0.467024751
207,521147,366780,0.877,0.259,0.298,-4.5,-13.9,-3,-13,-35.1,5,0.64271981,-0.204168828,-0.571825312,-0.467085788
208,523498,366790,0.873,0.255,0.302,-4.4,-14.3,-3,-13,-35.1,5,0.64250618,-0.204321421,-0.572008423,-0.467116306
209,525816,366790,0.873,0.259,0.302,-4.1,-14.8,-3,-13,-35.1,5,0.642262032,-0.204504532,-0.572191534,-0.467146825
210,530429,366790,0.873,0.259,0.314,-3.6,-15.2,-2.9,-13,-34.7,5.4,0.642017884,-0.204657125,-0.572374645,-0.467146825
211,532707,366790,0.865,0.255,0.318,-3.2,-15.6,-2.7,-13,-34.7,5.4,0.641804254,-0.204840236,-0.572588275,-0.467146825
212,534473,366800,0.865,0.259,0.322,-2.8,-16,-2.4,-13,-34.7,5.4,0.641560106,-0.205023347,-0.572771386,-0.467146825
213,536753,366800,0.865,0.263,0.318,-2.4,-16.4,-2,-13,-34.7,5.4,0.641315958,-0.205175939,-0.572985015,-0.467146825
214,538449,366800,0.865,0.271,0.326,-2,-16.9,-1.6,-12.5,-34.9,5.6,0.641376995,-0.205175939,-0.572740867,-0.467360454
215,540804,366800,0.865,0.271,0.326,-1.7,-17.4,-1.3,-12.5,-34.9,5.6,0.641163366,-0.205389569,-0.572985015,-0.467268899
216,544755,366810,0.869,0.271,0.326,-1.3,-17.8,-0.9,-12.5,-34.9,5.6,0.640919218,-0.20557268,-0.573229163,-0.467268899
217,547017,366810,0.869,0.275,0.322,-0.8,-18.3,-0.7,-12.5,-34.9,5.6,0.640675069,-0.205755791,-0.573473312,-0.467207862
218,549312,366810,0.877,0.278,0.33,-0.1,-18.7,-0.2,-12.7,-34.9,5.5,0.640430921,-0.205938902,-0.573747978,-0.467116306
219,551467,366810,0.873,0.286,0.322,0.3,-19.2,0.2,-12.7,-34.9,5.5,0.640186773,-0.206152532,-0.574022645,-0.467024751
220,553513,366820,0.873,0.286,0.322,0.3,-19.2,0.2,-12.7,-34.9,5.5,0.640186773,-0.206152532,-0.574022645,-0.467024751
221,556581,366820,0.889,0.302,0.322,1.7,-19.9,1,-12.7,-34.9,5.5,0.639728996,-0.206518754,-0.574571978,-0.466780602
222,559585,366820,0.885,0.302,0.322,2.5,-20.2,1.2,-12.7,-34.9,5.5,0.639515366,-0.206701865,-0.574877163,-0.466658528
223,560970,366820,0.881,0.306,0.322,3.4,-20.3,1.5,-12.7,-34.9,5.5,0.639271218,-0.206884976,-0.575182348,-0.466475417
224,563282,366830,0.885,0.318,0.314,4.4,-20.5,1.8,-12.7,-34.9,5.5,0.639057588,-0.207068087,-0.575518052,-0.466322825
225,566292,366830,0.881,0.326,0.307,5.3,-20.8,2.1,-12.7,-34.9,5.5,0.638843959,-0.207220679,-0.575853755,-0.466109195
226,569510,366830,0.881,0.322,0.311,6,-21.3,2.1,-12.5,-34.9,5.8,0.638630329,-0.207373272,-0.576219977,-0.465926084
227,571767,366830,0.885,0.33,0.307,6.5,-21.9,2,-12.5,-34.9,5.8,0.638386181,-0.207556383,-0.576555681,-0.465712455
228,573951,366840,0.881,0.342,0.291,6.7,-22.7,1.8,-12.5,-34.9,5.8,0.638172552,-0.207708975,-0.576952422,-0.465498825
229,576992,366840,0.885,0.35,0.291,6.8,-23.6,1.6,-12.5,-34.9,5.8,0.637897885,-0.207861568,-0.577349162,-0.465285195
230,578408,366840,0.885,0.35,0.291,6.7,-24.5,1.5,-12.4,-34.5,5.8,0.637653737,-0.208044679,-0.577745903,-0.465071566
231,581488,366840,0.889,0.357,0.283,6.4,-25.4,1.3,-12.4,-34.5,5.8,0.63737907,-0.20822779,-0.578142644,-0.464857936
232,584565,366850,0.889,0.365,0.28,6,-26.3,0.8,-12.4,-34.5,5.8,0.637073885,-0.208410901,-0.578569903,-0.464644307
233,586879,366850,0.889,0.365,0.28,5.4,-27.3,0.2,-12.4,-34.5,5.8,0.636738182,-0.208624531,-0.57902768,-0.464430677
234,589004,366850,0.889,0.369,0.276,4.6,-28.3,-0.3,-12.2,-34.7,6.2,0.63637196,-0.208410901,-0.579393902,-0.464613788
235,591058,366850,0.893,0.377,0.272,3.7,-29.2,-0.9,-12.2,-34.7,6.2,0.636005737,-0.208655049,-0.579821162,-0.464430677
236,594135,366860,0.897,0.377,0.276,2.7,-30,-1.3,-12.2,-34.7,6.2,0.635639515,-0.208899197,-0.580278939,-0.464278085
237,596396,366860,0.897,0.377,0.272,1.5,-30.5,-1.8,-12.2,-34.7,6.2,0.635212256,-0.209173864,-0.580736717,-0.464156011
238,598467,366860,0.893,0.373,0.272,0.2,-30.7,-2.2,-12.3,-34.7,5.9,0.634815516,-0.209448531,-0.581163976,-0.464033937
239,600791,366860,0.893,0.373,0.272,-0.9,-30.9,-2.7,-12.3,-34.7,5.9,0.634388256,-0.209723197,-0.581591235,-0.463942381
240,603588,366870,0.893,0.373,0.272,-0.9,-30.9,-2.7,-12.3,-34.7,5.9,0.634388256,-0.209723197,-0.581591235,-0.463942381
241,606803,366870,0.893,0.369,0.272,-2.3,-31.5,-3.4,-12.3,-34.7,5.9,0.63350322,-0.210333567,-0.582476272,-0.463789789
242,609831,366870,0.908,0.369,0.275,-2.5,-31.9,-3.3,-12.3,-34.7,5.9,0.633045442,-0.210669271,-0.582903531,-0.463728751
243,611985,366870,0.908,0.373,0.268,-2.8,-32.2,-3.2,-12.3,-34.7,5.9,0.632587664,-0.210974456,-0.58333079,-0.463667714
244,613382,366880,0.916,0.365,0.271,-3.4,-32.3,-3.2,-12.3,-34.7,5.9,0.632129887,-0.21131016,-0.583758049,-0.463606677
245,617258,366880,0.916,0.361,0.263,-4.4,-32,-3.3,-12.3,-34.7,5.9,0.631672109,-0.211645863,-0.58415479,-0.46354564
246,618584,366880,0.92,0.361,0.267,-5.7,-31.5,-3.6,-12,-35,6.1,0.631214331,-0.212012085,-0.584551531,-0.46354564
247,621625,366880,0.92,0.361,0.259,-7,-31,-4,-12,-35,6.1,0.630726035,-0.212378307,-0.584917753,-0.46354564
248,624670,366890,0.92,0.361,0.259,-8.4,-30.4,-4.3,-12,-35,6.1,0.630268258,-0.21274453,-0.585283975,-0.46354564
249,627076,366890,0.928,0.357,0.255,-9.4,-30,-4.7,-12,-35,6.1,0.629779962,-0.213110752,-0.585619678,-0.463606677
250,629225,366890,0.928,0.353,0.259,-10.2,-29.8,-5.1,-11.6,-35.1,6.2,0.629322184,-0.213476974,-0.585955382,-0.463667714
251,631489,366890,0.932,0.357,0.259,-10.8,-29.7,-5.5,-11.6,-35.1,6.2,0.628833888,-0.213873714,-0.586291086,-0.46375927
252,633551,366900,0.928,0.354,0.255,-11.5,-29.6,-5.6,-11.6,-35.1,6.2,0.628345592,-0.214239937,-0.586596271,-0.463820307
253,635902,366900,0.932,0.354,0.251,-12.2,-29.5,-5.9,-11.6,-35.1,6.2,0.627826777,-0.214636677,-0.586901456,-0.463942381
254,638247,366900,0.932,0.35,0.243,-13.1,-29.4,-6.1,-11.8,-34.9,6.4,0.627277444,-0.214606159,-0.587145604,-0.46436964
255,641915,366900,0.932,0.35,0.243,-14,-29.2,-6.2,-11.8,-34.9,6.4,0.626789148,-0.215033418,-0.587450789,-0.464522233
256,644189,366910,0.932,0.35,0.243,-14.9,-29.1,-6.4,-11.8,-34.9,6.4,0.626270333,-0.215430158,-0.587725455,-0.464644307
257,646619,366910,0.932,0.342,0.239,-15.8,-29,-6.6,-11.8,-34.9,6.4,0.625751518,-0.215857418,-0.588000122,-0.464827418
258,648856,366910,0.936,0.342,0.239,-16.6,-28.9,-6.8,-11.4,-35.1,6.2,0.625232704,-0.216315195,-0.58824427,-0.46498001
259,650920,366910,0.932,0.346,0.243,-17.4,-28.7,-6.9,-11.4,-35.1,6.2,0.624713889,-0.216742454,-0.588488418,-0.465163121
260,653321,366920,0.932,0.346,0.243,-17.4,-28.7,-6.9,-11.4,-35.1,6.2,0.624713889,-0.216742454,-0.588488418,-0.465163121
261,657035,366920,0.936,0.342,0.235,-18.9,-28.1,-7.5,-11.4,-35.1,6.2,0.623645741,-0.217627491,-0.588946196,-0.465559862
262,659240,366920,0.932,0.342,0.236,-19.8,-27.7,-7.6,-11.4,-35.1,6.2,0.623126926,-0.218085269,-0.589159825,-0.46580401
263,662322,366920,0.932,0.346,0.232,-20.6,-27.3,-7.5,-11.4,-35.1,6.2,0.622608112,-0.218543046,-0.589373455,-0.466048158
264,664551,366930,0.936,0.346,0.228,-21.4,-26.8,-7.7,-11.4,-35.1,6.2,0.622058779,-0.219031343,-0.589556566,-0.466292306
265,666723,366930,0.928,0.346,0.232,-22.2,-26.4,-7.8,-11.4,-35.1,6.2,0.621539964,-0.21948912,-0.589709159,-0.466566973
266,669694,366930,0.924,0.35,0.228,-23,-26.1,-7.8,-10.8,-35.1,5.9,0.621021149,-0.219946898,-0.58989227,-0.466841639
267,671007,366930,0.924,0.354,0.228,-23.9,-25.9,-7.8,-10.8,-35.1,5.9,0.620502335,-0.220465712,-0.590014344,-0.467116306
268,674241,366940,0.932,0.358,0.228,-24.8,-25.7,-7.7,-10.8,-35.1,5.9,0.619953001,-0.22092349,-0.590166936,-0.467421491
269,676428,366940,0.932,0.358,0.22,-25.7,-25.6,-7.5,-10.8,-35.1,5.9,0.619434187,-0.221472823,-0.59028901,-0.467726676
270,679465,366940,0.932,0.362,0.224,-26.5,-25.4,-7.4,-11.2,-35.4,5.8,0.618884854,-0.221991638,-0.590380566,-0.46806238
271,681655,366940,0.936,0.366,0.216,-27.2,-25.1,-7.3,-11.2,-35.4,5.8,0.618366039,-0.222510453,-0.590472121,-0.468367565
272,684634,366950,0.936,0.366,0.212,-27.8,-24.8,-7.3,-11.2,-35.4,5.8,0.617847224,-0.223059786,-0.590563677,-0.468703269
273,685956,366950,0.94,0.366,0.208,-28.2,-24.3,-7.6,-11.2,-35.4,5.8,0.617297891,-0.2235786,-0.590655232,-0.469069491
274,689210,366950,0.948,0.374,0.208,-28.6,-23.9,-8,-10.9,-35.3,6.1,0.616443373,-0.223303934,-0.59089938,-0.470015564
275,691331,366950,0.952,0.378,0.2,-29,-23.4,-8.4,-10.9,-35.3,6.1,0.615924558,-0.223853267,-0.590960417,-0.470381787
276,694302,366960,0.956,0.381,0.2,-29.4,-22.9,-8.7,-10.9,-35.3,6.1,0.615375225,-0.224372082,-0.590990936,-0.470748009
277,695762,366960,0.96,0.374,0.192,-29.7,-22.4,-8.9,-10.9,-35.3,6.1,0.61485641,-0.224829859,-0.591051973,-0.471144749
278,698808,366960,0.967,0.377,0.192,-30,-21.9,-9.1,-10.9,-35.3,5.8,0.614337596,-0.225379192,-0.591082492,-0.471572008
279,701838,366960,0.967,0.381,0.192,-30.2,-21.5,-9.4,-10.9,-35.3,5.8,0.613818781,-0.225898007,-0.59111301,-0.471968749
280,705109,366970,0.967,0.381,0.192,-30.2,-21.5,-9.4,-10.9,-35.3,5.8,0.613818781,-0.225898007,-0.59111301,-0.471968749
281,707056,366970,0.975,0.378,0.18,-30.7,-20.5,-9.9,-10.9,-35.3,5.8,0.612781152,-0.226874599,-0.59111301,-0.472823267
282,708424,366970,0.983,0.377,0.18,-31,-19.8,-10.3,-10.8,-36.3,5.6,0.612262337,-0.227362896,-0.59111301,-0.473250526
283,711675,366970,0.983,0.378,0.176,-31.4,-19.3,-10.6,-10.8,-36.3,5.6,0.611743522,-0.227851192,-0.59111301,-0.473708304
284,714875,366980,0.991,0.366,0.176,-31.7,-18.7,-10.9,-10.8,-36.3,5.6,0.611224708,-0.228339488,-0.591082492,-0.474166082
285,716973,366980,0.991,0.37,0.176,-32,-18,-11.3,-10.8,-36.3,5.6,0.610705893,-0.228797266,-0.591051973,-0.474654378
286,718470,366980,0.995,0.362,0.172,-32.4,-17.4,-11.6,-10.9,-35.8,5.3,0.610217597,-0.229255043,-0.590990936,-0.475142674
287,722278,366980,0.995,0.362,0.176,-32.8,-16.9,-11.9,-10.9,-35.8,5.3,0.609698782,-0.229712821,-0.590929899,-0.47563097
288,724397,366990,1.003,0.358,0.168,-33.1,-16.5,-12.3,-10.9,-35.8,5.3,0.609179968,-0.230170598,-0.590868862,-0.476149785
289,725944,366990,0.999,0.354,0.168,-33.5,-16,-12.8,-10.9,-35.8,5.3,0.608691671,-0.230628376,-0.590807825,-0.4766686
290,729680,366990,0.999,0.35,0.172,-34,-15.5,-13.2,-10.4,-35.8,5,0.608172857,-0.231055635,-0.590716269,-0.477187414
291,731220,366990,1.007,0.346,0.168,-34.5,-15,-13.5,-10.4,-35.8,5,0.607654042,-0.231513413,-0.590624714,-0.477736747
292,735023,367000,1.003,0.338,0.168,-35.2,-14.6,-13.7,-10.4,-35.8,5,0.607165746,-0.231940672,-0.590533158,-0.478316599
293,737239,367000,1.003,0.334,0.172,-35.9,-14.2,-13.8,-10.4,-35.8,5,0.606646931,-0.23239845,-0.590411084,-0.478896451
294,739576,367000,0.999,0.338,0.176,-36.6,-14,-13.8,-10.5,-35.1,5,0.606006043,-0.232764672,-0.590441603,-0.479476302
295,740957,367000,1.007,0.334,0.171,-37.2,-13.8,-13.7,-10.5,-35.1,5,0.605487228,-0.233252968,-0.59028901,-0.480056154
296,744060,367010,1.003,0.334,0.168,-37.9,-13.7,-13.6,-10.5,-35.1,5,0.604968413,-0.233710746,-0.590166936,-0.480666524
297,747081,367010,0.999,0.33,0.176,-38.5,-13.4,-13.6,-10.5,-35.1,5,0.604449599,-0.234199042,-0.589983825,-0.481276894
298,749285,367010,1.003,0.326,0.175,-39.3,-13.1,-13.6,-10.8,-35.3,4.9,0.603961303,-0.234656819,-0.589831233,-0.481887265
299,752266,367010,0.999,0.33,0.172,-39.9,-12.8,-13.5,-10.8,-35.3,4.9,0.603442488,-0.235145116,-0.589648122,-0.482528153
300,753916,367020,1.003,0.33,0.175,-40.7,-12.6,-13.1,-10.8,-35.3,4.9,0.602923673,-0.23566393,-0.589465011,-0.483169042
301,755881,367020,0.995,0.323,0.168,-41.2,-12.2,-12.9,-10.8,-35.3,4.9,0.602404859,-0.236152226,-0.589251381,-0.483779412
302,759146,367020,0.995,0.326,0.172,-41.7,-11.9,-12.6,-10.4,-36.6,4.2,0.601916562,-0.236671041,-0.589037751,-0.484420301
303,761211,367020,0.995,0.323,0.168,-42.2,-11.7,-12.7,-10.4,-36.6,4.2,0.601397748,-0.237189856,-0.588793603,-0.485091708
304,763449,367030,0.991,0.323,0.168,-42.6,-11.6,-12.6,-10.4,-36.6,4.2,0.600909452,-0.23770867,-0.588579974,-0.485732597
305,765765,367030,0.991,0.323,0.164,-43,-11.4,-12.5,-10.4,-36.6,4.2,0.600390637,-0.238227485,-0.588335826,-0.486404004
306,770385,367030,0.987,0.331,0.164,-43.5,-11.1,-12.3,-10,-36.1,4.7,0.599902341,-0.2387463,-0.588061159,-0.487044893
307,772729,367030,0.987,0.319,0.164,-43.9,-10.7,-12.1,-10,-36.1,4.7,0.599414045,-0.239295633,-0.587817011,-0.4877163
308,774998,367040,0.987,0.319,0.16,-44.2,-10.4,-12,-10,-36.1,4.7,0.598925748,-0.239844966,-0.587542344,-0.488387707
309,777200,367040,0.983,0.327,0.164,-44.6,-10.3,-11.7,-10,-36.1,4.7,0.598406934,-0.240363781,-0.587267678,-0.489059114
310,779866,367040,0.987,0.323,0.16,-44.8,-10.3,-11.5,-10.1,-36.1,4.3,0.597918638,-0.240913114,-0.586962493,-0.489730522
311,782448,367040,0.983,0.327,0.164,-45,-10.2,-11.5,-10.1,-36.1,4.3,0.597430342,-0.241431928,-0.586687826,-0.490401929
312,784530,367050,0.979,0.323,0.16,-45.1,-10.1,-11.6,-10.1,-36.1,4.3,0.596942045,-0.24201178,-0.58641316,-0.491073336
313,787031,367050,0.979,0.327,0.152,-45.2,-9.8,-11.5,-10.1,-36.1,4.3,0.596453749,-0.242561113,-0.586107974,-0.491775262
314,789446,367050,0.975,0.327,0.152,-45.4,-9.6,-11.4,-9.8,-36.3,4,0.595782342,-0.243110446,-0.586046937,-0.492385632
315,791447,367050,0.975,0.327,0.152,-45.5,-9.3,-11.3,-9.8,-36.3,4,0.595294046,-0.24365978,-0.585741752,-0.493057039
316,793619,367060,0.975,0.327,0.16,-45.6,-9.2,-11.2,-9.8,-36.3,4,0.59480575,-0.244209113,-0.585436567,-0.493758965
317,795954,367060,0.971,0.331,0.153,-45.5,-9,-11.1,-9.8,-36.3,4,0.594317454,-0.244758446,-0.585100864,-0.494430372
318,798361,367060,0.971,0.331,0.156,-45.5,-9,-10.8,-9.7,-36,3.9,0.593859676,-0.245307779,-0.584795679,-0.495101779
319,802350,367060,0.972,0.323,0.152,-45.4,-9.1,-10.8,-9.7,-36,3.9,0.59337138,-0.245857112,-0.584490493,-0.495773186
320,804614,367070,0.968,0.327,0.16,-45.4,-9,-10.8,-9.7,-36,3.9,0.592883084,-0.246406446,-0.58415479,-0.496444594
321,806769,367070,0.964,0.327,0.157,-45.3,-8.9,-10.8,-9.7,-36,3.9,0.592425306,-0.24692526,-0.583849605,-0.497116001
322,808662,367070,0.964,0.331,0.16,-45.2,-8.6,-10.8,-10,-36.6,3.3,0.59193701,-0.247474593,-0.583513901,-0.497787408
323,811030,367070,0.956,0.331,0.161,-44.9,-8.4,-10.8,-10,-36.6,3.3,0.591479232,-0.248023927,-0.583208716,-0.498458815
324,814980,367080,0.952,0.327,0.161,-44.7,-8.3,-10.7,-10,-36.6,3.3,0.591021455,-0.248542741,-0.582873012,-0.499099704
325,817131,367080,0.952,0.327,0.165,-44.6,-8.3,-10.6,-10,-36.6,3.3,0.590563677,-0.249061556,-0.582567827,-0.499771111
326,819352,367080,0.952,0.319,0.168,-44.5,-8.1,-10.5,-10.1,-36.3,3.4,0.590075381,-0.249610889,-0.582232124,-0.500442518
327,821560,367080,0.944,0.323,0.161,-44.3,-7.9,-10.2,-10.1,-36.3,3.4,0.589648122,-0.250129704,-0.581926939,-0.501083407
328,823552,367090,0.952,0.323,0.165,-44.3,-7.8,-10,-10.1,-36.3,3.4,0.589190344,-0.250648518,-0.581591235,-0.501724296
329,825862,367090,0.948,0.315,0.168,-44.1,-7.6,-9.7,-10.1,-36.3,3.4,0.588732566,-0.251197851,-0.581255531,-0.502365184
330,829855,367090,0.944,0.319,0.169,-44.1,-7.7,-9.5,-9.8,-36.5,2.9,0.588305307,-0.251716666,-0.580919828,-0.503006073
331,832128,367090,0.948,0.319,0.165,-43.9,-7.7,-9.3,-9.8,-36.5,2.9,0.58784753,-0.252235481,-0.580584124,-0.503646962
332,834436,367100,0.948,0.315,0.172,-43.8,-7.7,-9,-9.8,-36.5,2.9,0.58742027,-0.252784814,-0.580248421,-0.504287851
333,836511,367100,0.948,0.311,0.172,-43.6,-7.5,-8.8,-9.8,-36.5,2.9,0.586993011,-0.253303629,-0.579912717,-0.504867702
334,838523,367100,0.944,0.315,0.172,-43.4,-7.5,-8.6,-10.1,-36.8,3.1,0.58641316,-0.253822443,-0.579729606,-0.505508591
335,840826,367100,0.948,0.311,0.172,-43,-7.4,-8.6,-10.1,-36.8,3.1,0.5859859,-0.254341258,-0.579424421,-0.506118961
336,844013,367110,0.952,0.307,0.176,-42.7,-7.4,-8.6,-10.1,-36.8,3.1,0.585558641,-0.254860073,-0.579088717,-0.506729331
337,846034,367110,0.948,0.307,0.176,-42.4,-7.3,-8.5,-10.1,-36.8,3.1,0.585131382,-0.255378887,-0.578753014,-0.507339702
338,848315,367110,0.952,0.307,0.172,-42,-7.2,-8.3,-9.9,-36.6,2.5,0.584734642,-0.255867183,-0.57841731,-0.507919553
339,851372,367110,0.948,0.307,0.18,-41.5,-7.1,-8,-9.9,-36.6,2.5,0.584307382,-0.256385998,-0.578112125,-0.508529923
340,854367,367120,0.948,0.307,0.172,-41.2,-6.9,-7.9,-9.9,-36.6,2.5,0.583910642,-0.256874294,-0.577776421,-0.509109775
341,856694,367120,0.944,0.303,0.18,-40.9,-6.8,-7.7,-9.9,-36.6,2.5,0.583513901,-0.257393109,-0.577440718,-0.509689627
342,860008,367120,0.948,0.303,0.176,-40.6,-6.8,-7.5,-9.4,-36.8,2.3,0.583117161,-0.257881405,-0.577135533,-0.51023896
343,861929,367120,0.948,0.299,0.184,-40.2,-6.7,-7.2,-9.4,-36.8,2.3,0.58272042,-0.258369701,-0.576799829,-0.510818812
344,864226,367130,0.948,0.299,0.176,-39.7,-6.6,-6.9,-9.4,-36.8,2.3,0.582323679,-0.258888516,-0.576494644,-0.511368145
345,866097,367130,0.956,0.303,0.18,-39.2,-6.4,-6.5,-9.4,-36.8,2.3,0.581957457,-0.259376812,-0.57615894,-0.511886959
346,868449,367130,0.971,0.307,0.176,-38.6,-6.3,-6.2,-9.2,-36.9,1.7,0.581591235,-0.25983459,-0.575853755,-0.512436293
347,870792,367130,0.975,0.295,0.172,-37.9,-6.2,-5.5,-9.2,-36.9,1.7,0.581225013,-0.260322886,-0.57554857,-0.512924589
348,875201,367140,0.952,0.291,0.184,-37,-5.7,-4.5,-9.2,-36.9,1.7,0.580889309,-0.260811182,-0.575182348,-0.513412885
349,877406,367140,0.952,0.295,0.184,-35.6,-5,-2.8,-9.2,-36.9,1.7,0.580584124,-0.26126896,-0.574907682,-0.513870663
350,879720,367140,0.932,0.3,0.184,-33.8,-4.3,-1,-9.3,-37.3,2.1,0.580339976,-0.261757256,-0.574571978,-0.514297922
351,881911,367140,0.917,0.312,0.185,-31.9,-3.9,0.4,-9.3,-37.3,2.1,0.580095828,-0.262184515,-0.574266793,-0.514664144
352,884217,367150,0.928,0.319,0.184,-30.5,-3.8,0.9,-9.3,-37.3,2.1,0.579882199,-0.262642293,-0.573961608,-0.514999847
353,886126,367150,0.936,0.327,0.177,-30,-4,0.5,-9.3,-37.3,2.1,0.579668569,-0.263069552,-0.573686941,-0.51536607
354,888472,367150,0.944,0.323,0.176,-30.6,-4.6,-0.9,-9,-37.4,1.7,0.579271828,-0.263374737,-0.573595386,-0.51576281
355,890774,367150,0.944,0.319,0.172,-31.7,-5,-2.5,-9,-37.4,1.7,0.578997162,-0.263801996,-0.573290201,-0.516159551
356,893282,367160,0.948,0.319,0.176,-33,-5.1,-3.9,-9,-37.4,1.7,0.578691977,-0.264229255,-0.573015534,-0.51658681
357,897078,367160,0.948,0.319,0.18,-33.4,-5.2,-4.7,-9,-37.4,1.7,0.578386792,-0.264656514,-0.572740867,-0.517044588
358,899141,367160,0.948,0.319,0.18,-33.1,-5.2,-4.9,-9,-37.4,1.7,0.578081606,-0.265083773,-0.572466201,-0.517502365
359,901122,367160,0.956,0.319,0.196,-32,-5.3,-4.7,-9,-37.4,1.7,0.577776421,-0.265480514,-0.572191534,-0.517929624
360,903493,367170,0.952,0.323,0.2,-30.6,-5.5,-4.4,-9,-37.4,1.7,0.577471236,-0.265877255,-0.571947386,-0.518326365
361,907108,367170,0.956,0.318,0.219,-29.4,-5.6,-3.9,-9,-37.4,1.7,0.577166051,-0.266273995,-0.571703238,-0.518723106
362,909626,367170,0.956,0.314,0.243,-28.5,-5.6,-3.5,-9.2,-37,1.5,0.576891385,-0.266640217,-0.57145909,-0.519089328
363,911688,367170,0.959,0.306,0.25,-28,-5.3,-3.3,-9.2,-37,1.5,0.576647237,-0.267006439,-0.57124546,-0.51945555
364,914053,367180,0.959,0.306,0.266,-27.3,-4.8,-3.3,-9.2,-37,1.5,0.57637257,-0.267372662,-0.571001312,-0.519791253
365,916001,367180,0.971,0.298,0.273,-26.5,-3.9,-3.3,-9.2,-37,1.5,0.576128422,-0.267708365,-0.570787683,-0.520157476
366,918363,367180,0.979,0.29,0.281,-25.3,-2.4,-3.3,-9.4,-36.8,1.1,0.575914792,-0.26801355,-0.570543535,-0.520493179
367,922313,367180,0.983,0.294,0.285,-23.7,-0.4,-3.3,-9.4,-36.8,1.1,0.575731681,-0.268288217,-0.570299387,-0.520828883
368,924738,367190,0.979,0.29,0.273,-21.7,1.7,-3.2,-9.4,-36.8,1.1,0.575579089,-0.268501846,-0.570055239,-0.521164586
369,926891,367190,0.991,0.29,0.253,-19,3.9,-3.1,-9.4,-36.8,1.1,0.575487533,-0.268654439,-0.569780572,-0.521439253
370,929079,367190,0.967,0.298,0.246,-15.9,5.8,-2.9,-9.2,-37.1,1.5,0.575426496,-0.268745994,-0.569566942,-0.521713919
371,930996,367190,0.963,0.306,0.231,-12.2,7.3,-2.4,-9.2,-37.1,1.5,0.575426496,-0.268776513,-0.569353313,-0.521958068
372,933487,367200,0.975,0.306,0.215,-8.3,8,-1.4,-9.2,-37.1,1.5,0.575457015,-0.268776513,-0.569139683,-0.52211066
373,935840,367200,0.956,0.334,0.196,-4.1,7.9,-0.2,-9.2,-37.1,1.5,0.57554857,-0.268745994,-0.569017609,-0.522202216
374,939054,367200,0.913,0.359,0.177,3.8,6.1,2.3,-9.1,-37.4,1.3,0.575670644,-0.268593402,-0.568926054,-0.522202216
375,941093,367200,0.913,0.359,0.177,3.8,6.1,2.3,-9.1,-37.4,1.3,0.575792718,-0.268501846,-0.568895535,-0.522171697
376,943424,367210,0.87,0.387,0.167,6.8,5,3.4,-9.1,-37.4,1.3,0.575945311,-0.268410291,-0.568895535,-0.522080142
377,945780,367210,0.874,0.391,0.147,8.8,4.1,4,-9.1,-37.4,1.3,0.576097903,-0.268288217,-0.568895535,-0.521927549
378,948995,367210,0.878,0.403,0.132,9.2,3.2,3.4,-9.8,-37.1,1.7,0.576219977,-0.268196661,-0.568956572,-0.521805475
379,952122,367210,0.886,0.403,0.131,7.9,2.4,1.3,-9.8,-37.1,1.7,0.576311533,-0.268044069,-0.569017609,-0.521713919
380,954458,367220,0.874,0.399,0.112,5,2,-1.9,-9.8,-37.1,1.7,0.576342051,-0.267952513,-0.569048128,-0.521683401
381,956644,367220,0.874,0.384,0.108,1.4,2.1,-5.6,-9.8,-37.1,1.7,0.576311533,-0.267860958,-0.569078646,-0.521744438
382,958665,367220,0.874,0.368,0.1,-2.5,2.6,-8.6,-9.3,-36.6,1.4,0.576250496,-0.267738884,-0.569048128,-0.521897031
383,960895,367220,0.937,0.321,0.083,-6.2,3.2,-10.7,-9.3,-36.6,1.4,0.576128422,-0.267647328,-0.569017609,-0.522141179
384,963297,367230,0.921,0.285,0.086,-9.5,3.5,-11.7,-9.3,-36.6,1.4,0.575975829,-0.267586291,-0.568926054,-0.522415845
385,965826,367230,0.921,0.254,0.094,-12.2,3.3,-11.8,-9.3,-36.6,1.4,0.575823237,-0.267555773,-0.56880398,-0.52272103
386,968961,367230,0.898,0.23,0.106,-14,2.6,-10.8,-9.2,-37.4,0.9,0.575640126,-0.267586291,-0.568681906,-0.523056734
387,972078,367230,0.901,0.191,0.125,-15.3,1.3,-9,-9.2,-37.4,0.9,0.575457015,-0.267647328,-0.568529313,-0.523361919
388,974518,367240,0.886,0.171,0.133,-16.6,-0.4,-7.1,-9.2,-37.4,0.9,0.575273904,-0.267769402,-0.568407239,-0.523667104
389,976615,367240,0.905,0.159,0.132,-18.8,-2.9,-5.7,-9.2,-37.4,0.9,0.575060274,-0.267952513,-0.568254646,-0.523941771
390,979609,367240,0.96,0.131,0.135,-22.3,-5.6,-5.5,-8.9,-37.8,1.1,0.574816126,-0.26822718,-0.568102054,-0.524277474
391,980926,367240,0.96,0.104,0.142,-26.9,-8.2,-6,-8.9,-37.8,1.1,0.574480422,-0.268593402,-0.567918943,-0.524643696
392,984026,367250,0.956,0.096,0.142,-32,-10.2,-6.7,-8.9,-37.8,1.1,0.574083682,-0.269020661,-0.567735832,-0.525040437
393,987087,367250,0.968,0.088,0.15,-36.6,-11.3,-6.7,-8.9,-37.8,1.1,0.573656423,-0.269539476,-0.567491684,-0.525528733
394,988416,367250,0.983,0.076,0.149,-40.7,-12.1,-3.9,-9.1,-37.8,0.4,0.573381756,-0.270577105,-0.567125462,-0.525681326
395,990799,367250,0.984,0.072,0.145,-40.7,-12.1,-3.9,-9.1,-37.8,0.4,0.572923978,-0.271187475,-0.566820276,-0.526169622
396,993542,367260,0.983,0.076,0.149,-40.3,-12,-1.9,-9.1,-37.8,0.4,0.572527238,-0.271797845,-0.566515091,-0.5266274
397,996720,367260,0.999,0.083,0.149,-38.9,-11.6,0,-9.1,-37.8,0.4,0.572161016,-0.272408216,-0.566240425,-0.52702414
398,999487,367260,1.003,0.087,0.137,-37.1,-10.9,1.4,-8.9,-38,0.7,0.571825312,-0.273018586,-0.56593524,-0.527390362
399,1000917,367260,1.003,0.091,0.145,-35,-9.8,2.7,-8.9,-38,0.7,0.571520127,-0.273598437,-0.565630055,-0.527756584
400,1003264,367270,1.007,0.099,0.141,-32.7,-8.9,3.6,-8.9,-38,0.7,0.57124546,-0.274178289,-0.565355388,-0.528061769
401,1006054,367270,1.019,0.115,0.153,-30.2,-8.1,4.2,-8.9,-38,0.7,0.571001312,-0.274697104,-0.565080721,-0.528305918
402,1008444,367270,1.026,0.118,0.153,-27.7,-7.6,4.4,-9,-36.5,1.2,0.570818201,-0.2751854,-0.564806055,-0.528550066
403,1012141,367270,1.026,0.122,0.157,-25.4,-7.2,4.5,-9,-36.5,1.2,0.570604572,-0.275643178,-0.564592425,-0.528763695
404,1014498,367280,1.038,0.126,0.157,-23.3,-7,4.6,-9,-36.5,1.2,0.570451979,-0.276070437,-0.564378796,-0.528946806
405,1016760,367280,1.034,0.138,0.161,-21.5,-6.8,4.7,-9,-36.5,1.2,0.570299387,-0.276467177,-0.564195685,-0.529129917
406,1018950,367280,1.034,0.142,0.153,-19.8,-6.7,5,-8.8,-37.7,0.5,0.570146794,-0.276863918,-0.564012574,-0.529251991
407,1021028,367280,1.034,0.15,0.157,-18.3,-6.5,5.2,-8.8,-37.7,0.5,0.57002472,-0.27723014,-0.563859981,-0.529374065
408,1023298,367290,1.034,0.154,0.145,-16.9,-6.2,5.4,-8.8,-37.7,0.5,0.569902646,-0.277565844,-0.563707389,-0.529496139
409,1026004,367290,1.034,0.158,0.141,-15.5,-5.9,5.7,-8.8,-37.7,0.5,0.569780572,-0.277901547,-0.563554796,-0.529587695
410,1029167,367290,1.038,0.162,0.13,-14,-5.5,6.1,-9,-37.3,1.2,0.569719535,-0.278237251,-0.563432722,-0.529648732
411,1031116,367290,1.038,0.166,0.13,-12.1,-5.2,6.5,-9,-37.3,1.2,0.569658498,-0.278511917,-0.563310648,-0.52967925
412,1034372,367300,1.062,0.162,0.118,-9.8,-4.9,6.8,-9,-37.3,1.2,0.569597461,-0.278786584,-0.563219092,-0.52967925
413,1036552,367300,1.046,0.158,0.106,-7.2,-4.8,7.1,-9,-37.3,1.2,0.569597461,-0.279000214,-0.563158055,-0.529648732
414,1038653,367300,1.066,0.139,0.082,-0.8,-5.3,9,-8.9,-38,0.7,0.569689016,-0.279580065,-0.563188574,-0.529190954
415,1040954,367300,1.042,0.131,0.078,-0.8,-5.3,9,-8.9,-38,0.7,0.569719535,-0.279763176,-0.563188574,-0.52906888
416,1043349,367310,1.035,0.115,0.074,3.4,-5.6,10.9,-8.9,-38,0.7,0.569780572,-0.279915769,-0.563219092,-0.528855251
417,1047161,367310,1.066,0.111,0.058,8.3,-5.8,13.5,-8.9,-38,0.7,0.569933164,-0.280068361,-0.563310648,-0.528550066
418,1049434,367310,1.085,0.095,0.058,13.6,-5.9,16.7,-9.2,-37.3,0.3,0.570146794,-0.280159917,-0.563432722,-0.528122806
419,1050959,367310,1.058,0.045,0.057,19,-5.4,20.3,-9.2,-37.3,0.3,0.570421461,-0.280220954,-0.563615833,-0.527603992
420,1054364,367320,1.058,0.045,0.057,19,-5.4,20.3,-9.2,-37.3,0.3,0.570421461,-0.280220954,-0.563615833,-0.527603992
421,1055850,367320,0.906,0.011,0.103,29.7,-0.9,28.6,-9.2,-37.3,0.3,0.571275979,-0.280251473,-0.563951537,-0.526261177
422,1058295,367320,0.87,0.007,0.123,34.8,1.4,32.3,-9.1,-36.3,1.5,0.571916868,-0.280220954,-0.564134648,-0.525437178
423,1062809,367320,0.882,0.015,0.123,38.7,2,33.4,-9.1,-36.3,1.5,0.572557756,-0.280129398,-0.564348277,-0.524552141
424,1064960,367330,0.956,0.002,0.094,39.8,0.3,30.5,-9.1,-36.3,1.5,0.573137608,-0.280007324,-0.564622944,-0.523697623
425,1067205,367330,1.015,-0.017,0.073,37.1,-3,23.6,-9.1,-36.3,1.5,0.573595386,-0.279854732,-0.564958647,-0.522904141
426,1069499,367330,1,-0.075,0.057,31.8,-6.3,15.1,-9.4,-37.6,0.4,0.573900571,-0.279702139,-0.565294351,-0.522293771
427,1071738,367330,1.008,-0.099,0.045,26.3,-8.2,7.9,-9.4,-37.6,0.4,0.574053163,-0.279580065,-0.565660573,-0.521805475
428,1074126,367340,1.015,-0.102,0.025,23.8,-9,3.9,-9.4,-37.6,0.4,0.5741142,-0.279427473,-0.565996277,-0.521408734
429,1076080,367340,1.023,-0.098,0.017,25.4,-9.4,3.2,-9.4,-37.6,0.4,0.574205756,-0.27927488,-0.566393017,-0.521011994
430,1078483,367340,1.031,-0.094,0.001,30.4,-10,4.7,-9.1,-37,1,0.574297311,-0.279061251,-0.566850795,-0.520493179
431,1082498,367340,1.035,-0.086,-0.005,36.9,-10.7,7.4,-9.1,-37,1,0.574480422,-0.278786584,-0.567339091,-0.519882809
432,1085111,367350,1.035,-0.078,-0.013,43.4,-11.3,10,-9.1,-37,1,0.57472457,-0.278511917,-0.567918943,-0.519150365
433,1087281,367350,1.031,-0.078,-0.044,48.6,-11.5,12.2,-9.1,-37,1,0.575029756,-0.278176214,-0.568529313,-0.518326365
434,1088751,367350,1.024,-0.089,-0.072,55.1,-11.6,14.7,-9.5,-37.1,0.8,0.575518052,-0.278542436,-0.569231239,-0.516800439
435,1091481,367350,1.024,-0.089,-0.072,55.1,-11.6,14.7,-9.5,-37.1,0.8,0.575884274,-0.278176214,-0.569902646,-0.515884884
436,1094352,367360,1.039,-0.093,-0.099,57.6,-11.9,15.5,-9.5,-37.1,0.8,0.576250496,-0.277748955,-0.57063509,-0.514877773
437,1096535,367360,1.047,-0.105,-0.111,60.5,-12.9,16.2,-9.5,-37.1,0.8,0.576647237,-0.277352214,-0.571367534,-0.513840144
438,1098762,367360,1.055,-0.108,-0.123,63.9,-14.4,16.8,-9.5,-37,1.6,0.577043977,-0.276924955,-0.572161016,-0.512741478
439,1101524,367360,1.071,-0.12,-0.132,67.2,-16,17.5,-9.5,-37,1.6,0.577440718,-0.276467177,-0.573015534,-0.511581774
440,1104267,367370,1.071,-0.12,-0.132,67.2,-16,17.5,-9.5,-37,1.6,0.577440718,-0.276467177,-0.573015534,-0.511581774
441,1107024,367370,1.122,-0.18,-0.145,71.5,-18.3,18.8,-9.5,-37,1.6,0.578264718,-0.275551622,-0.574816126,-0.509140294
442,1108470,367370,1.141,-0.199,-0.153,72.2,-18.8,19.5,-9.6,-35.7,3,0.578661458,-0.275093844,-0.575731681,-0.507858516
443,1110745,367370,1.184,-0.224,-0.143,72.3,-19,20.4,-9.6,-35.7,3,0.579088717,-0.274636067,-0.576647237,-0.506576739
444,1114058,367380,1.192,-0.259,-0.135,72.2,-18.8,21.5,-9.6,-35.7,3,0.579515976,-0.274208808,-0.577562792,-0.505294961
445,1116290,367380,1.219,-0.279,-0.144,71.2,-18.3,22.6,-9.6,-35.7,3,0.579973754,-0.273781549,-0.578447829,-0.504013184
446,1119039,367380,1.247,-0.311,-0.149,69.6,-17.3,23.5,-9.5,-37.3,1.8,0.580431532,-0.273415326,-0.579271828,-0.502731407
447,1121824,367380,1.27,-0.35,-0.134,67.6,-16.1,24.7,-9.5,-37.3,1.8,0.580889309,-0.273049104,-0.580095828,-0.501449629
448,1124850,367390,1.286,-0.366,-0.142,66.1,-14.9,26.6,-9.5,-37.3,1.8,0.581377606,-0.272682882,-0.580828272,-0.50019837
449,1126428,367390,1.282,-0.382,-0.139,65.7,-13.8,29.7,-9.5,-37.3,1.8,0.581926939,-0.272377697,-0.581560717,-0.498886074
450,1128423,367390,1.294,-0.386,-0.139,66.6,-13,33.8,-9.7,-36.8,2.2,0.582537309,-0.27210303,-0.582232124,-0.49754326
451,1131331,367390,1.302,-0.382,-0.147,69.1,-12.6,38.6,-9.7,-36.8,2.2,0.583208716,-0.271858882,-0.58293405,-0.49610889
452,1133413,367400,1.302,-0.378,-0.158,72.8,-12.5,43.9,-9.7,-36.8,2.2,0.58394116,-0.271645253,-0.583605457,-0.494552446
453,1136397,367400,1.29,-0.37,-0.162,77.5,-12.2,49.3,-9.7,-36.8,2.2,0.58476516,-0.271401105,-0.584307382,-0.49284341
454,1139514,367400,1.27,-0.334,-0.181,83.1,-11.7,54.7,-10.1,-36.7,2.8,0.585711234,-0.271156957,-0.585039827,-0.491012299
455,1140936,367400,1.251,-0.314,-0.2,89.5,-10.6,60.1,-10.1,-36.7,2.8,0.586748863,-0.270912809,-0.585772271,-0.489028596
456,1144080,367410,1.231,-0.29,-0.203,96.8,-9,65.1,-10.1,-36.7,2.8,0.587908567,-0.270607624,-0.586535234,-0.486922819
457,1147000,367410,1.216,-0.266,-0.222,104.6,-7,69.6,-10.1,-36.7,2.8,0.589159825,-0.270210883,-0.587328715,-0.48463393
458,1148507,367410,1.173,-0.21,-0.232,112.9,-4.8,73.4,-10.5,-36.5,3.4,0.590533158,-0.269753105,-0.588122196,-0.482222968
459,1150804,367410,1.157,-0.186,-0.244,121.2,-2.5,76.7,-10.5,-36.5,3.4,0.592028565,-0.269203772,-0.588976714,-0.479659413
460,1154012,367420,1.157,-0.186,-0.244,121.2,-2.5,76.7,-10.5,-36.5,3.4,0.592028565,-0.269203772,-0.588976714,-0.479659413
461,1157017,367420,1.15,-0.127,-0.294,137.3,1.3,81.6,-10.5,-36.5,3.4,0.595263527,-0.267799921,-0.590807825,-0.474135563
462,1158463,367420,1.181,-0.119,-0.314,145.2,2.9,83.5,-11,-34.6,6.2,0.597003082,-0.266975921,-0.591784417,-0.471175268
463,1160760,367420,1.185,-0.107,-0.314,153.3,4.7,85.4,-11,-34.6,6.2,0.598834193,-0.266029847,-0.592791528,-0.468123417
464,1163554,367430,1.205,-0.111,-0.334,162.2,7,88.3,-11,-34.6,6.2,0.600787378,-0.264961699,-0.593829157,-0.464918973
465,1166808,367430,1.029,-0.101,-0.322,172.2,10.3,93.3,-11,-34.6,6.2,0.602862636,-0.263832514,-0.594897305,-0.4615009
466,1169727,367430,0.927,-0.077,-0.301,183.6,14.1,100.4,-11.4,-36.1,4.5,0.605090487,-0.262550737,-0.595995972,-0.457899716
467,1171329,367430,0.9,-0.045,-0.304,195,17.2,107.7,-11.4,-36.1,4.5,0.60750145,-0.261207923,-0.597094638,-0.454023865
468,1174558,367440,0.99,0,-0.34,204.4,17.5,112.3,-11.4,-36.1,4.5,0.610003967,-0.259804071,-0.598223823,-0.449964904
469,1176700,367440,1.052,-0.011,-0.365,209.2,14.7,111.8,-11.4,-36.1,4.5,0.612475967,-0.258278146,-0.599444563,-0.445783868
470,1178980,367440,1.048,-0.026,-0.365,208.7,9.9,106.6,-11.9,-35.1,6.2,0.614795373,-0.256813257,-0.600726341,-0.441724906
471,1181037,367440,1.041,-0.042,-0.373,204.9,5.7,99.3,-11.9,-35.1,6.2,0.616992706,-0.25531785,-0.602069155,-0.437726981
472,1183316,367450,1.056,-0.058,-0.381,201.2,3.2,93.5,-11.9,-35.1,6.2,0.619037446,-0.253791925,-0.603411969,-0.433851131
473,1185851,367450,1.068,-0.062,-0.374,200.3,2.1,91.1,-11.9,-35.1,6.2,0.621021149,-0.252265999,-0.604785302,-0.42997528
474,1189734,367450,1.08,-0.07,-0.378,202.7,1.4,91.9,-12.5,-34.7,7.2,0.623004852,-0.250740074,-0.606128117,-0.426068911
475,1191835,367450,1.111,-0.07,-0.378,207.5,0.6,94.6,-12.5,-34.7,7.2,0.625019074,-0.249153111,-0.607531968,-0.422009949
476,1194157,367460,1.123,-0.07,-0.379,212.8,-0.4,97.8,-12.5,-34.7,7.2,0.627063814,-0.24753563,-0.608966338,-0.417859432
477,1196033,367460,1.134,-0.07,-0.379,217.2,-1.6,100.9,-12.5,-34.7,7.2,0.629139073,-0.245918149,-0.610400708,-0.41358684
478,1199718,367460,1.142,-0.07,-0.383,220.3,-2.9,103.4,-13.4,-34,7.8,0.631214331,-0.244300668,-0.611865596,-0.409192175
479,1201837,367460,1.154,-0.074,-0.387,221.8,-4.4,105.9,-13.4,-34,7.8,0.633259072,-0.242683187,-0.613361003,-0.404766991
480,1204051,367470,1.154,-0.074,-0.387,221.8,-4.4,105.9,-13.4,-34,7.8,0.633259072,-0.242683187,-0.613361003,-0.404766991
481,1206453,367470,1.177,-0.074,-0.403,220.9,-8.7,111.3,-13.4,-34,7.8,0.637318033,-0.239631336,-0.616260262,-0.395672475
482,1208498,367470,1.193,-0.074,-0.427,219.3,-12,114.5,-13.9,-31.9,11.5,0.639271218,-0.238227485,-0.61772515,-0.39106418
483,1212498,367470,1.248,-0.059,-0.447,218.2,-16,118.2,-13.9,-31.9,11.5,0.641193884,-0.236915189,-0.619190039,-0.386394848
484,1214997,367480,1.275,-0.005,-0.431,217.7,-19.9,122.1,-13.9,-31.9,11.5,0.643055513,-0.235694449,-0.620654927,-0.381633961
485,1216812,367480,1.279,0.006,-0.431,217.6,-22.5,124.7,-13.9,-31.9,11.5,0.644917142,-0.234504227,-0.622119816,-0.376812037
486,1218378,367480,1.275,0.007,-0.494,216.2,-22.6,124,-14.1,-32.1,10.3,0.646717734,-0.233314005,-0.623584704,-0.372020631
487,1222594,367480,1.26,-0.007,-0.525,212.8,-19.3,119.1,-14.1,-32.1,10.3,0.648487808,-0.232093265,-0.624958037,-0.36732078
488,1224757,367490,1.26,-0.015,-0.541,208.9,-13.5,111.8,-14.1,-32.1,10.3,0.650257881,-0.230780969,-0.626270333,-0.362834559
489,1226796,367490,1.248,-0.015,-0.533,207.4,-6.2,105.8,-14.1,-32.1,10.3,0.652058473,-0.22931608,-0.627460555,-0.358470412
490,1229099,367490,1.237,-0.022,-0.537,210.5,1.2,103.7,-14.3,-31.6,11.6,0.653920103,-0.227729118,-0.628559221,-0.354106265
491,1230989,367490,1.237,-0.003,-0.536,218,7.9,105.5,-14.3,-31.6,11.6,0.655934324,-0.225989563,-0.62959685,-0.349650563
492,1233393,367500,1.24,0.008,-0.536,228.4,13.2,110.2,-14.3,-31.6,11.6,0.65807062,-0.224158452,-0.630603961,-0.344981231
493,1237264,367500,1.248,0.035,-0.524,239.4,16.7,116.2,-14.3,-31.6,11.6,0.66032899,-0.222174749,-0.631580554,-0.34009827
494,1239540,367500,1.248,0.051,-0.512,249.3,18.5,122.6,-15.2,-30.6,12.7,0.662678915,-0.220130009,-0.632557146,-0.33497116
495,1241806,367500,1.268,0.074,-0.501,256.9,19.3,128.5,-15.2,-30.6,12.7,0.665120396,-0.21805475,-0.63350322,-0.329660939
496,1243359,367510,1.271,0.097,-0.493,261.2,19.5,133.6,-15.2,-30.6,12.7,0.667592395,-0.215948973,-0.634449293,-0.324198126
497,1246453,367510,1.252,0.082,-0.504,262.2,19.4,137.7,-15.2,-30.6,12.7,0.670033876,-0.213904233,-0.635364849,-0.318643757
498,1248519,367510,1.252,0.082,-0.504,262.2,19.4,137.7,-15.2,-30.6,12.7,0.670033876,-0.213904233,-0.635364849,-0.318643757
499,1251693,367510,1.213,0.059,-0.531,256.1,18.5,142.5,-15.7,-29.3,13.4,0.674886319,-0.209997864,-0.637043367,-0.307504501
500,1254772,367520,1.213,0.059,-0.531,256.1,18.5,142.5,-15.7,-29.3,13.4,0.674886319,-0.209997864,-0.637043367,-0.307504501
501,1257089,367520,1.236,0.048,-0.544,249,16.3,141.9,-15.7,-29.3,13.4,0.679525132,-0.206335643,-0.638538774,-0.296456801
502,1259500,367520,1.24,0.044,-0.548,247.7,14.5,140.5,-16.6,-27.1,16.6,0.681722465,-0.204535051,-0.639271218,-0.290993988
503,1261603,367520,1.237,0.036,-0.551,247.5,12.3,139.4,-16.6,-27.1,16.6,0.683889279,-0.20270394,-0.640034181,-0.285500656
504,1263558,367530,1.26,0.032,-0.56,248.3,9.6,139.4,-16.6,-27.1,16.6,0.685964537,-0.200872829,-0.640797143,-0.280007324
505,1265886,367530,1.276,0.047,-0.572,249.7,6.8,140.3,-16.6,-27.1,16.6,0.688009278,-0.199072237,-0.641590625,-0.274422437
506,1268258,367530,1.28,0.059,-0.579,251.6,3.9,141.6,-17.1,-26.9,15.6,0.689992981,-0.197241127,-0.642414624,-0.268807031
507,1272082,367530,1.299,0.091,-0.599,253.9,1.4,143,-17.1,-26.9,15.6,0.691915647,-0.195410016,-0.643269143,-0.26310007
508,1274306,367540,1.303,0.11,-0.603,256.9,-0.4,144.3,-17.1,-26.9,15.6,0.693838313,-0.193548387,-0.644123661,-0.257301553
509,1276429,367540,1.327,0.138,-0.614,260.6,-1.7,145.4,-17.1,-26.9,15.6,0.695699942,-0.191625721,-0.644978179,-0.251411481
510,1279767,367540,1.381,0.18,-0.623,264.9,-2.2,146.1,-17.4,-25.3,16.6,0.697561571,-0.189672536,-0.645832698,-0.245460372
511,1282039,367540,1.588,0.276,-0.641,269.4,-1.9,146,-17.4,-25.3,16.6,0.6994232,-0.187658315,-0.646687216,-0.239417707
512,1284250,367550,1.752,0.318,-0.671,273.6,0.1,144.8,-17.4,-25.3,16.6,0.701284829,-0.185522019,-0.647511216,-0.233344523
513,1286454,367550,1.764,0.329,-0.643,276.7,5.9,142.4,-17.4,-25.3,16.6,0.703207495,-0.183263649,-0.64824366,-0.22727134
514,1289797,367550,1.525,0.363,-0.596,278.9,18.2,139.7,-17.9,-23.7,17.4,0.705252235,-0.180883206,-0.648762474,-0.221259194
515,1292026,367550,1.596,0.401,-0.612,281.6,36.5,138.7,-17.9,-23.7,17.4,0.707541124,-0.178319651,-0.649006623,-0.215277566
516,1294189,367560,1.662,0.42,-0.64,285.8,57.3,141.1,-17.9,-23.7,17.4,0.710104678,-0.175634022,-0.648884548,-0.209265419
517,1296465,367560,1.4,0.387,-0.578,291.7,76.8,147.1,-17.9,-23.7,17.4,0.712973418,-0.172856838,-0.648457289,-0.203131199
518,1298532,367560,1.615,0.425,-0.624,297.8,93.6,154.7,-18.9,-22.4,18.1,0.716086306,-0.169988098,-0.647724845,-0.196874905
519,1300776,367560,1.353,0.399,-0.549,303.2,107.4,160.1,-18.9,-22.4,18.1,0.719382305,-0.167027802,-0.646717734,-0.190466018
520,1304002,367570,1.353,0.399,-0.549,303.2,107.4,160.1,-18.9,-22.4,18.1,0.719382305,-0.167027802,-0.646717734,-0.190466018
521,1307209,367570,1.248,0.427,-0.5,313.8,127.3,161,-18.9,-22.4,18.1,0.726371044,-0.160771508,-0.644184698,-0.177495651
522,1309546,367570,1.4,0.466,-0.553,319,135.4,159.9,-19.7,-20,20.6,0.730002747,-0.15744499,-0.642689291,-0.17096469
523,1311658,367570,1.142,0.428,-0.455,323.5,142.6,159.2,-19.7,-20,20.6,0.733664968,-0.153996399,-0.641041292,-0.164372692
524,1313915,367580,1.318,0.489,-0.481,326.7,149,158.5,-19.7,-20,20.6,0.737388226,-0.150425733,-0.639271218,-0.157750175
525,1316054,367580,1.017,0.429,-0.394,328.6,152.7,156.9,-19.7,-20,20.6,0.741111484,-0.146794031,-0.637409589,-0.151127659
526,1320089,367580,1.15,0.447,-0.42,329.6,153.6,154.5,-20,-18.7,19.2,0.744773705,-0.143101291,-0.635517441,-0.144535661
527,1322326,367580,1.302,0.461,-0.446,329.7,150.5,151.3,-20,-18.7,19.2,0.748344371,-0.139378033,-0.633594775,-0.137974181
528,1324637,367590,1.192,0.449,-0.323,329.1,144.3,147.7,-20,-18.7,19.2,0.751762444,-0.135593738,-0.631763665,-0.13144322
529,1326876,367590,1.145,0.426,-0.302,327.5,137.3,143.8,-20,-18.7,19.2,0.755027924,-0.131809442,-0.629993591,-0.124973296
530,1329027,367590,0.981,0.404,-0.257,324.1,131.6,140.7,-21.2,-17.4,20.2,0.758110294,-0.128055666,-0.628284555,-0.118564409
531,1331078,367590,1.051,0.438,-0.246,319.4,126.3,138.8,-21.2,-17.4,20.2,0.761070589,-0.124332408,-0.626606037,-0.112247078
532,1333400,367600,1.344,0.462,-0.247,313.7,117.9,136.9,-21.2,-17.4,20.2,0.763847774,-0.120700705,-0.625049593,-0.105990783
533,1336875,367600,1.454,0.476,-0.253,307.3,104.8,132.6,-21.2,-17.4,20.2,0.76638081,-0.117160558,-0.623645741,-0.099856563
534,1339036,367600,1.547,0.491,-0.242,300.2,89.4,126.2,-21.2,-15.5,20.1,0.768608661,-0.113650929,-0.622455519,-0.0939054537
535,1341096,367600,1.715,0.54,-0.241,293.7,76.5,121.3,-21.2,-15.5,20.1,0.770622883,-0.110202338,-0.621448408,-0.0880764183
536,1343427,367610,1.406,0.436,-0.146,289.2,70.7,123.3,-21.2,-15.5,20.1,0.772484512,-0.10687582,-0.620502335,-0.082247383
537,1345854,367610,1.488,0.517,-0.135,288.1,73.8,133.8,-21.2,-15.5,20.1,0.774376659,-0.103701895,-0.619464705,-0.0762352367
538,1348376,367610,1.625,0.559,-0.137,290.7,82.9,149.7,-21.5,-13.9,20.5,0.776390881,-0.100680563,-0.618152409,-0.0699789422
539,1352136,367610,1.253,0.502,0.001,296.3,94.7,166.5,-21.5,-13.9,20.5,0.778557695,-0.0977507859,-0.616657002,-0.0633564257
540,1354018,367620,1.253,0.502,0.001,296.3,94.7,166.5,-21.5,-13.9,20.5,0.778557695,-0.0977507859,-0.616657002,-0.0633564257
541,1357199,367620,1.175,0.592,0.086,309.9,119.7,187.9,-21.5,-13.9,20.5,0.783318583,-0.0919522691,-0.612781152,-0.0493484298
542,1359497,367620,1.272,0.65,0.104,316.3,131.2,189.6,-22.5,-11.5,21.4,0.785882138,-0.0889614551,-0.610461745,-0.0421460616
543,1361611,367620,1.198,0.634,0.148,322.6,141.1,186.1,-22.5,-11.5,21.4,0.788537248,-0.0857570116,-0.607959227,-0.0349131748
544,1363668,367630,1.096,0.647,0.201,328.5,150.6,178.8,-22.5,-11.5,21.4,0.791253395,-0.0823694571,-0.60524308,-0.0277718436
545,1367108,367630,1.162,0.685,0.224,335.5,160.6,170,-22.5,-11.5,21.4,0.79403058,-0.0787072359,-0.602343822,-0.0206915494
546,1368455,367630,0.994,0.666,0.274,344.9,172.5,161.3,-22.5,-9.5,20.7,0.796929838,-0.0747703482,-0.599230934,-0.0136417737
547,1371458,367630,0.982,0.713,0.298,357.9,187.5,154.2,-22.5,-9.5,20.7,0.799981689,-0.0705282754,-0.595782342,-0.00659199805
548,1374521,367640,0.9,0.706,0.327,374.7,205.1,149.2,-22.5,-9.5,20.7,0.803216651,-0.065889462,-0.591998047,0.000549333171
549,1376885,367640,0.857,0.722,0.363,394.8,223.3,146,-22.5,-9.5,20.7,0.806604205,-0.0608233894,-0.58784753,0.00787377544
550,1378814,367640,0.723,0.768,0.538,416.8,240.1,144.1,-23.4,-7.5,19.9,0.810174871,-0.0553910947,-0.583300272,0.0154423658
551,1382101,367640,0.629,0.76,0.645,438.2,255.3,143.2,-23.4,-7.5,19.9,0.813867611,-0.0495620594,-0.578447829,0.0231940672
552,1383402,367650,0.519,0.77,0.816,455.8,269.7,142.6,-23.4,-7.5,19.9,0.817621387,-0.0433973205,-0.573229163,0.0312204352
553,1386382,367650,0.357,0.767,1.182,466,284.1,141.1,-23.4,-7.5,19.9,0.82146672,-0.0370494705,-0.567674795,0.0393078402
554,1389509,367650,0.298,0.788,1.368,456,312.6,129,-24.1,-5.2,18.8,0.825525681,-0.030732139,-0.561510056,0.0469985046
555,1390952,367650,0.121,0.795,1.563,456,312.6,129,-24.1,-5.2,18.8,0.829462569,-0.0244148076,-0.55528428,0.0547196875
556,1394614,367660,0.042,0.822,1.713,436.8,324.1,118.6,-24.1,-5.2,18.8,0.833429975,-0.0183111057,-0.548783837,0.0619830927
557,1396968,367660,-0.211,0.9,1.91,412.6,330.3,108.4,-24.1,-5.2,18.8,0.837336344,-0.0125736259,-0.542161321,0.0687582018
558,1399203,367660,-0.27,0.976,1.901,389.2,328.3,101.4,-24.8,-3.5,17.4,0.84112064,-0.00717184973,-0.535508286,0.0751060518
559,1402173,367660,-0.442,1.069,1.858,372.6,316.2,100.2,-24.8,-3.5,17.4,0.844660787,-0.00201422163,-0.529038362,0.0812402722
560,1404407,367670,-0.442,1.069,1.858,372.6,316.2,100.2,-24.8,-3.5,17.4,0.844660787,-0.00201422163,-0.529038362,0.0812402722
561,1405964,367670,-0.452,1.565,1.473,372.5,263.3,118.6,-24.8,-3.5,17.4,0.850550859,0.00802636799,-0.517349773,0.0938444166
562,1409778,367670,-0.467,1.721,1.31,385.7,226.6,137,-25.4,-1.4,17,0.852717673,0.0131534776,-0.512344737,0.100802637
563,1412097,367670,-0.639,1.87,1.167,400,186.1,158.1,-25.4,-1.4,17,0.854274117,0.0184331797,-0.508011109,0.108279672
564,1414280,367680,-0.545,2.091,0.999,408.5,143,178.4,-25.4,-1.4,17,0.85525071,0.0236823634,-0.504440443,0.116183966
565,1416522,367680,-0.486,2.181,0.972,406.6,98.1,194.4,-25.4,-1.4,17,0.855586413,0.028931547,-0.50163274,0.124332408
566,1419588,367680,-0.392,2.212,0.947,392.2,54,202.4,-25.2,-0.2,16.2,0.855342265,0.0338755455,-0.499679556,0.132419813
567,1421939,367680,-0.388,2.107,0.864,364.5,14.9,200.7,-25.2,-0.2,16.2,0.854609821,0.0384533219,-0.498489334,0.140140996
568,1424212,367690,-0.345,2.044,0.823,323.4,-14.1,189.6,-25.2,-0.2,16.2,0.853572192,0.0424512467,-0.497878964,0.147190771
569,1426100,367690,-0.251,1.965,0.797,270.5,-30.7,172.3,-25.2,-0.2,16.2,0.852412488,0.0456862087,-0.49775689,0.153294473
570,1428502,367690,-0.141,1.819,0.777,208.6,-36.9,151.7,-24.8,1,16.2,0.851283303,0.0480666524,-0.497878964,0.158360546
571,1430800,367690,0.054,1.534,0.767,141.6,-37.6,130.6,-24.8,1,16.2,0.850276193,0.0494094668,-0.498214667,0.162266915
572,1433252,367700,0.163,1.423,0.763,73.3,-38.3,111.6,-24.8,1,16.2,0.849360637,0.0497146519,-0.498794519,0.165105136
573,1436985,367700,0.249,1.261,0.756,6.9,-42.6,95.8,-24.8,1,16.2,0.848567156,0.0489516892,-0.499649037,0.166905728
574,1439159,367700,0.382,1.067,0.739,-116.8,-61.4,70.7,-24.8,1.4,16.3,0.847743156,0.0462355419,-0.501297037,0.16687521
575,1441584,367700,0.363,0.895,0.714,-116.8,-61.4,70.7,-24.8,1.4,16.3,0.846919156,0.043488876,-0.502914518,0.166844691
576,1444869,367710,0.414,0.746,0.688,-176.9,-71.3,58,-24.8,1.4,16.3,0.846095157,0.0398876919,-0.504928739,0.165898618
577,1446874,367710,0.453,0.694,0.691,-236.7,-78.9,44.1,-24.8,1.4,16.3,0.845271157,0.0353099155,-0.507278665,0.164036988
578,1449101,367710,0.399,0.324,0.597,-294.7,-84,30.5,-24.6,0.5,16.9,0.844416639,0.0297860652,-0.509903256,0.161259804
579,1451046,367710,0.38,0.121,0.54,-347.8,-87.4,19.2,-24.6,0.5,16.9,0.843592639,0.0234992523,-0.512741478,0.157689138
580,1453416,367720,0.38,0.121,0.54,-347.8,-87.4,19.2,-24.6,0.5,16.9,0.843592639,0.0234992523,-0.512741478,0.157689138
581,1457324,367720,0.435,-0.161,0.516,-425.8,-91.9,6.2,-24.6,0.5,16.9,0.841761528,0.00888088626,-0.518814661,0.148747215
582,1459657,367720,0.533,-0.321,0.634,-442.3,-93.5,1,-24.5,-0.6,18.3,0.840754418,0.00103762932,-0.521958068,0.14374218
583,1461876,367720,0.544,-0.382,0.723,-440.1,-94.8,-5,-24.5,-0.6,18.3,0.839655751,-0.00665303507,-0.525040437,0.13861507
584,1464122,367730,0.587,-0.402,0.773,-421.7,-96.7,-11.5,-24.5,-0.6,18.3,0.838496048,-0.0139469588,-0.528061769,0.133579516
585,1465878,367730,0.657,-0.337,0.815,-393.6,-101,-17,-24.5,-0.6,18.3,0.83721427,-0.0206305124,-0.531052583,0.128757591
586,1468280,367730,0.661,-0.314,0.812,-362,-107.6,-21,-24.5,-1.6,19,0.835840938,-0.0267342143,-0.534012879,0.124240852
587,1471589,367730,0.669,-0.29,0.781,-331,-114.3,-24.3,-24.5,-1.6,19,0.834345531,-0.032166509,-0.537003693,0.119998779
588,1473553,367740,0.684,-0.262,0.749,-302.1,-117.3,-28.8,-24.5,-1.6,19,0.832819605,-0.037018952,-0.53993347,0.116000855
589,1476875,367740,0.602,-0.143,0.744,-274.3,-113.2,-35.9,-24.5,-1.6,19,0.831354717,-0.0412915433,-0.542710654,0.112216559
590,1479031,367740,0.614,-0.014,0.754,-246.4,-101,-46.7,-24.6,-2.4,19.4,0.830011902,-0.0449537645,-0.545182653,0.108493301
591,1482165,367740,0.618,0.064,0.743,-218.8,-81.9,-60.7,-24.6,-2.4,19.4,0.828974273,-0.0480056154,-0.547227393,0.104922636
592,1484323,367750,0.497,0.067,0.627,-194.5,-59.6,-75.8,-24.6,-2.4,19.4,0.82821131,-0.0504776147,-0.548814356,0.101290933
593,1487112,367750,0.47,0.045,0.561,-177.9,-38.4,-89.8,-24.6,-2.4,19.4,0.827753533,-0.0525223548,-0.550004578,0.0975676748
594,1488479,367750,0.447,0.022,0.506,-170.9,-9.8,-112.9,-24.6,-4,19,0.827661977,-0.0542313913,-0.550675985,0.0934781945
595,1491442,367750,0.443,0.003,0.467,-170.9,-9.8,-112.9,-24.6,-4,19,0.827570421,-0.0559404279,-0.551316874,0.0893887143
596,1494429,367760,0.498,-0.015,0.388,-174.4,-3.4,-124.8,-24.6,-4,19,0.827539903,-0.0575884274,-0.551866207,0.0850550859
597,1496606,367760,0.565,-0.011,0.351,-178.1,-0.7,-138.1,-24.6,-4,19,0.827570421,-0.0591143529,-0.552385022,0.0804162725
598,1498844,367760,0.631,-0.012,0.307,-180.4,-0.6,-152.5,-24.6,-4.8,19.4,0.827570421,-0.0605792413,-0.552903836,0.0754722739
599,1502010,367760,0.718,-0.023,0.247,-181.9,-1.3,-167.1,-24.6,-4.8,19.4,0.827570421,-0.0617999817,-0.553453169,0.0702841273
600,1503933,367770,0.718,-0.023,0.247,-181.9,-1.3,-167.1,-24.6,-4.8,19.4,0.827570421,-0.0617999817,-0.553453169,0.0702841273
601,1507144,367770,0.784,-0.02,0.206,-185.9,-1.4,-193.9,-24.6,-4.8,19.4,0.827570421,-0.0639667959,-0.554551836,0.0590533158
602,1508540,367770,0.823,-0.043,0.17,-188.7,-0.7,-204.8,-24.4,-7,18.9,0.827539903,-0.0648823511,-0.55507065,0.053010651
603,1512011,367770,0.929,-0.06,0.141,-191.7,-0.9,-213.5,-24.4,-7,18.9,0.827478866,-0.0657673879,-0.555589465,0.0468764306
604,1514168,367780,0.98,-0.068,0.14,-194.1,-3.3,-219.3,-24.4,-7,18.9,0.82738731,-0.0666219062,-0.556169317,0.0405590991
605,1517159,367780,1.031,-0.053,0.143,-195.2,-8.4,-222.3,-24.4,-7,18.9,0.827173681,-0.0674153874,-0.556810205,0.0342112491
606,1519572,367780,1.12,-0.058,0.153,-193.9,-16.4,-222.4,-24.6,-7.8,19.1,0.826837977,-0.0682088687,-0.55754265,0.0278328806
607,1521672,367780,1.163,-0.039,0.16,-189.6,-26.4,-219.7,-24.6,-7.8,19.1,0.826349681,-0.0689413129,-0.558458205,0.0216071047
608,1523986,367790,1.222,-0.024,0.159,-182.6,-37.6,-214.3,-24.6,-7.8,19.1,0.825708792,-0.0696127201,-0.559526353,0.0155949583
609,1526020,367790,1.265,0.009,0.179,-173.3,-48.7,-206.7,-24.6,-7.8,19.1,0.824884793,-0.0701925718,-0.560777612,0.00982696005
610,1528334,367790,1.37,0.113,0.245,-162.4,-58.8,-197.2,-24.1,-9.5,19.2,0.823969237,-0.0706808679,-0.562181463,0.00436414686
611,1531354,367790,1.393,0.187,0.28,-150.5,-66.7,-186.1,-24.1,-9.5,19.2,0.82290109,-0.0711081271,-0.56367687,-0.000701925718
612,1534292,367800,1.408,0.256,0.316,-138.5,-71.4,-173.4,-24.1,-9.5,19.2,0.821802423,-0.0714438307,-0.565202795,-0.00540177618
613,1535771,367800,1.299,0.382,0.386,-127.6,-71.5,-159.5,-24.1,-9.5,19.2,0.820703757,-0.0717795343,-0.566728721,-0.00970488601
614,1538838,367800,1.248,0.434,0.399,-112.5,-58.7,-130.5,-23.9,-10.5,19.1,0.819757683,-0.0722067934,-0.567949461,-0.0133671072
615,1541997,367800,1.236,0.496,0.42,-112.5,-58.7,-130.5,-23.9,-10.5,19.1,0.818811609,-0.072603534,-0.569170202,-0.0169682913
616,1544084,367810,1.247,0.551,0.42,-108.7,-43.8,-104.8,-23.9,-10.5,19.1,0.818048647,-0.0732749413,-0.570055239,-0.0201422163
617,1547146,367810,1.244,0.63,0.402,-111.5,-41.9,-94.3,-23.9,-10.5,19.1,0.817316202,-0.074098941,-0.570909757,-0.0231635487
618,1548558,367810,1.228,0.635,0.371,-117.9,-44.3,-84.6,-24.2,-11.5,19.6,0.816522721,-0.0751670888,-0.571794794,-0.0260628071
619,1550855,367810,1.22,0.623,0.336,-127.6,-49.8,-75,-24.2,-11.5,19.6,0.815637684,-0.0765404218,-0.572710349,-0.0289010285
620,1553361,367820,1.22,0.623,0.336,-127.6,-49.8,-75,-24.2,-11.5,19.6,0.815637684,-0.0765404218,-0.572710349,-0.0289010285
621,1557911,367820,1.154,0.543,0.25,-151.7,-64.2,-55.7,-24.2,-11.5,19.6,0.813531907,-0.0802636799,-0.574877163,-0.0344553972
622,1560257,367820,1.123,0.501,0.226,-162.8,-70.5,-46.5,-23.7,-12.1,19,0.812311167,-0.0826136052,-0.576067385,-0.0372325816
623,1562332,367820,1.096,0.446,0.206,-171.9,-75.2,-38.7,-23.7,-12.1,19,0.811029389,-0.0852687155,-0.577349162,-0.0399487289
624,1564648,367830,1.042,0.357,0.202,-179,-77.8,-33.2,-23.7,-12.1,19,0.809686575,-0.0880764183,-0.57863094,-0.0426648762
625,1566960,367830,1.022,0.318,0.183,-184.2,-78.2,-30.3,-23.7,-12.1,19,0.808313242,-0.0910061953,-0.579882199,-0.0453505051
626,1569118,367830,0.999,0.283,0.183,-188,-75.9,-30,-23.4,-13,19.7,0.806939909,-0.0940275277,-0.58107242,-0.0481276894
627,1572490,367830,0.979,0.244,0.163,-191,-70.5,-31.6,-23.4,-13,19.7,0.805597095,-0.0970488601,-0.582201605,-0.0509659108
628,1574234,367840,0.917,0.163,0.136,-193.5,-62.7,-34,-23.4,-13,19.7,0.804345836,-0.100100711,-0.583147679,-0.0538956877
629,1575944,367840,0.878,0.128,0.132,-195.7,-53.3,-36.2,-23.4,-13,19.7,0.803186132,-0.103122044,-0.583910642,-0.0568865017
630,1579130,367840,0.839,0.125,0.133,-198.2,-43.8,-37.5,-23.5,-13.9,19.6,0.802117985,-0.106173894,-0.584521012,-0.0599688711
631,1581437,367840,0.765,0.059,0.129,-201.6,-35.4,-37.9,-23.5,-13.9,19.6,0.801141392,-0.109286782,-0.584948271,-0.0631427961
632,1583523,367850,0.726,0.02,0.13,-207.3,-29.4,-37.5,-23.5,-13.9,19.6,0.800225837,-0.112460707,-0.585283975,-0.0663472396
633,1585836,367850,0.703,-0.041,0.121,-215.7,-26.7,-36.3,-23.5,-13.9,19.6,0.799279763,-0.115787225,-0.585497604,-0.0696737571
634,1589682,367850,0.652,-0.123,0.114,-226.4,-27.1,-35,-23.5,-14.8,19.4,0.798303171,-0.119327372,-0.585711234,-0.0731223487
635,1591903,367850,0.652,-0.162,0.097,-238.4,-30.2,-34.3,-23.5,-14.8,19.4,0.797235023,-0.123111667,-0.585955382,-0.0766930143
636,1594073,367860,0.648,-0.213,0.093,-250.4,-35,-34.7,-23.5,-14.8,19.4,0.796044801,-0.127079073,-0.586230049,-0.080385754
637,1596938,367860,0.652,-0.299,0.072,-261.5,-40.6,-36.5,-23.5,-14.8,19.4,0.794732505,-0.131199072,-0.586565752,-0.0842616047
638,1598356,367860,0.609,-0.4,0.068,-269.9,-46.1,-39.6,-23.2,-15.7,19.4,0.793267617,-0.135471664,-0.586962493,-0.0882595294
639,1601483,367860,0.609,-0.463,0.059,-274.6,-50.7,-43.9,-23.2,-15.7,19.4,0.791711173,-0.139744255,-0.587450789,-0.0923795282
640,1604668,367870,0.609,-0.463,0.059,-274.6,-50.7,-43.9,-23.2,-15.7,19.4,0.791711173,-0.139744255,-0.587450789,-0.0923795282
641,1606804,367870,0.625,-0.522,0.078,-270.3,-57.1,-55.5,-23.2,-15.7,19.4,0.788354137,-0.148045289,-0.588549455,-0.100833155
642,1609072,367870,0.676,-0.566,0.108,-261.9,-60,-61.5,-22.8,-17.1,17.6,0.786584063,-0.151890622,-0.589190344,-0.105075228
643,1611329,367870,0.707,-0.579,0.115,-250.2,-63.3,-66.4,-22.8,-17.1,17.6,0.784783471,-0.155461287,-0.589922788,-0.109225745
644,1614319,367880,0.723,-0.579,0.122,-235.9,-67,-69.2,-22.8,-17.1,17.6,0.782921842,-0.158757286,-0.590716269,-0.11322367
645,1616564,367880,0.742,-0.56,0.154,-219.8,-71,-69.1,-22.8,-17.1,17.6,0.781060213,-0.161809137,-0.591631825,-0.116977447
646,1618648,367880,0.769,-0.537,0.157,-202.7,-75.5,-66.2,-22.9,-17.4,18.8,0.779198584,-0.164586322,-0.592608417,-0.120456557
647,1620874,367880,0.785,-0.51,0.173,-185.1,-80.5,-61.1,-22.9,-17.4,18.8,0.777336955,-0.167180395,-0.593707083,-0.123599963
648,1624039,367890,0.777,-0.479,0.201,-167.8,-85.9,-55.1,-22.9,-17.4,18.8,0.775444807,-0.16953032,-0.594927824,-0.126377148
649,1626874,367890,0.789,-0.412,0.19,-151.2,-91.4,-49.3,-22.9,-17.4,18.8,0.77355266,-0.171697134,-0.596209601,-0.128849147
650,1628358,367890,0.828,-0.365,0.186,-135.8,-96.9,-45,-22.1,-18.1,19.2,0.771660512,-0.173680837,-0.597643971,-0.131015961
651,1631333,367890,0.859,-0.326,0.174,-121.7,-101.9,-43.1,-22.1,-18.1,19.2,0.769737846,-0.175450911,-0.599169897,-0.132938627
652,1634338,367900,1.027,-0.21,0.129,-108.5,-105.7,-44,-22.1,-18.1,19.2,0.76781518,-0.176976836,-0.600787378,-0.134678182
653,1636573,367900,1.105,-0.152,0.125,-95.6,-106.7,-47.3,-22.1,-18.1,19.2,0.765892514,-0.178289132,-0.602465896,-0.136326182
654,1639554,367900,1.179,-0.106,0.124,-82.7,-103.5,-51.3,-21.8,-18.8,19.3,0.764061403,-0.179326762,-0.604174932,-0.137882626
655,1641842,367900,1.214,-0.075,0.124,-69.1,-94.7,-53.7,-21.8,-18.8,19.3,0.762382885,-0.180059206,-0.605731376,-0.139316996
656,1644058,367910,1.284,0.005,0.155,-54.7,-80.7,-53.4,-21.8,-18.8,19.3,0.760917997,-0.180486465,-0.607135228,-0.140598773
657,1646349,367910,1.249,0.029,0.175,-40,-63.1,-50.9,-21.8,-18.8,19.3,0.759758293,-0.180669576,-0.608264412,-0.141727958
658,1648418,367910,1.214,0.064,0.208,-26,-44,-48.7,-21.8,-19.3,19.5,0.758934294,-0.180608539,-0.609088412,-0.14270455
659,1650723,367910,1.252,0.173,0.255,-14.2,-25.7,-49.9,-21.8,-19.3,19.5,0.75838496,-0.180242317,-0.609668264,-0.143620106
660,1653552,367920,1.252,0.173,0.255,-14.2,-25.7,-49.9,-21.8,-19.3,19.5,0.75838496,-0.180242317,-0.609668264,-0.143620106
661,1656649,367920,1.315,0.254,0.282,-1.8,1,-66.5,-21.8,-19.3,19.5,0.757835627,-0.178777429,-0.610278634,-0.145725883
662,1659650,367920,1.315,0.278,0.255,-2.4,7.9,-78,-21.2,-19.8,17.5,0.757683035,-0.177739799,-0.610431227,-0.147068697
663,1660988,367920,1.244,0.385,0.238,-7.3,9.9,-87.3,-21.2,-19.8,17.5,0.757499924,-0.176671651,-0.610583819,-0.14865566
664,1664237,367930,1.241,0.382,0.203,-16.1,7,-92.3,-21.2,-19.8,17.5,0.757225257,-0.175695059,-0.61076693,-0.150425733
665,1667029,367930,1.245,0.449,0.18,-27.7,-0.5,-92.6,-21.2,-19.8,17.5,0.756797998,-0.174932096,-0.611041597,-0.152317881
666,1669376,367930,1.252,0.5,0.181,-41.3,-10.8,-89.2,-21,-20.1,18.9,0.756218146,-0.1744438,-0.611438337,-0.154301584
667,1671538,367930,1.237,0.562,0.217,-56.2,-21.6,-83.3,-21,-20.1,18.9,0.755424665,-0.174352245,-0.611926634,-0.156346324
668,1673663,367940,1.244,0.554,0.225,-72.5,-31.2,-76.4,-21,-20.1,18.9,0.754478591,-0.174626911,-0.612475967,-0.158421583
669,1675998,367940,1.24,0.542,0.236,-89.8,-38.9,-70,-21,-20.1,18.9,0.753349406,-0.175298318,-0.613055818,-0.160649434
670,1678266,367940,1.225,0.472,0.248,-107.5,-44.4,-65,-20.7,-20.5,18.4,0.752128666,-0.176335948,-0.613666189,-0.162999359
671,1682091,367940,1.201,0.452,0.248,-123.9,-46.9,-62.4,-20.7,-20.5,18.4,0.750785852,-0.177709281,-0.61424604,-0.165501877
672,1684432,367950,1.17,0.441,0.244,-137.8,-45.9,-62.5,-20.7,-20.5,18.4,0.749412519,-0.179296243,-0.614734336,-0.168187506
673,1686581,367950,1.159,0.43,0.225,-148.5,-41.6,-65.2,-20.7,-20.5,18.4,0.748039186,-0.18100528,-0.615100558,-0.171086764
674,1688963,367950,1.132,0.403,0.162,-156.3,-34.8,-69.2,-20.2,-21.7,18.6,0.746696371,-0.182744835,-0.615375225,-0.174169134
675,1690972,367950,1.112,0.38,0.135,-162,-26.8,-73.5,-20.2,-21.7,18.6,0.745384075,-0.184514908,-0.615466781,-0.177434614
676,1694869,367960,1.116,0.353,0.123,-166.3,-18.7,-77.6,-20.2,-21.7,18.6,0.744163335,-0.186254463,-0.615436262,-0.180852687
677,1696979,367960,1.112,0.295,0.079,-169.8,-11.1,-81.2,-20.2,-21.7,18.6,0.743003632,-0.1879635,-0.61528367,-0.184423353
678,1699153,367960,1.109,0.264,0.059,-172.6,-4.4,-84.3,-20.4,-22.2,18.1,0.741874447,-0.189642018,-0.615009003,-0.188085574
679,1701464,367960,1.101,0.245,0.051,-174.6,1.2,-87.6,-20.4,-22.2,18.1,0.740806299,-0.191290017,-0.614612262,-0.191839351
680,1703636,367970,1.101,0.245,0.051,-174.6,1.2,-87.6,-20.4,-22.2,18.1,0.740806299,-0.191290017,-0.614612262,-0.191839351
681,1705896,367970,1.105,0.139,0.046,-177.3,9.5,-96.3,-20.4,-22.2,18.1,0.73873104,-0.194402905,-0.61363567,-0.199682608
682,1709631,367970,1.105,0.139,0.046,-177.3,9.5,-96.3,-20.4,-22.2,18.1,0.73873104,-0.194402905,-0.61363567,-0.199682608
683,1711947,367970,1.078,0.064,0.042,-180.4,12.9,-107.7,-20.1,-23.4,15.3,0.736594745,-0.197271645,-0.612537004,-0.207953124
684,1714203,367980,1.144,0.028,0.036,-182.8,12.7,-114.3,-20.1,-23.4,15.3,0.735435041,-0.19861446,-0.611987671,-0.212286752
685,1716332,367980,1.16,0.009,0.036,-186.3,11.6,-121.5,-20.1,-23.4,15.3,0.734214301,-0.199926756,-0.611468856,-0.216772973
686,1719434,367980,1.164,-0.014,0.031,-191,10,-128.3,-19.9,-24.1,16.9,0.732902005,-0.201208533,-0.610950041,-0.221442305
687,1721713,367980,1.191,-0.049,0.011,-197.1,7.9,-134,-19.9,-24.1,16.9,0.731498154,-0.202551347,-0.610461745,-0.226233711
688,1723978,367990,1.293,-0.105,-0.006,-203.6,5.6,-137.9,-19.9,-24.1,16.9,0.729972228,-0.20392468,-0.609973449,-0.231177709
689,1726005,367990,1.324,-0.149,-0.023,-209.3,3.4,-139.7,-19.9,-24.1,16.9,0.728385266,-0.205389569,-0.609454634,-0.236182745
690,1728308,367990,1.324,-0.176,-0.027,-212.6,1.7,-138.7,-19.3,-25.3,16,0.726706748,-0.206915494,-0.608966338,-0.241218299
691,1731452,367990,1.356,-0.231,-0.044,-212.5,0.6,-134.3,-19.3,-25.3,16,0.725058748,-0.208471938,-0.608417005,-0.246192816
692,1735124,368000,1.36,-0.251,-0.048,-208.5,0.2,-127.2,-19.3,-25.3,16,0.723410749,-0.210089419,-0.607867672,-0.250953703
693,1736694,368000,1.336,-0.254,-0.044,-200.9,0.6,-118.1,-19.3,-25.3,16,0.721854305,-0.211676382,-0.60728782,-0.255500961
694,1739645,368000,1.254,-0.222,-0.046,-190.2,1.4,-108,-18.9,-26.6,15.4,0.720358898,-0.213232826,-0.606707968,-0.259712516
695,1741121,368000,1.258,-0.198,-0.054,-177.6,2,-98.2,-18.9,-26.6,15.4,0.719016083,-0.214728233,-0.606097598,-0.263618885
696,1743290,368010,1.262,-0.171,-0.053,-165,1.6,-90.1,-18.9,-26.6,15.4,0.717734306,-0.216101566,-0.605548265,-0.267220069
697,1746389,368010,1.258,-0.147,-0.065,-153.8,0,-84.2,-18.9,-26.6,15.4,0.716513565,-0.217413862,-0.605059969,-0.270577105
698,1749190,368010,1.254,-0.112,-0.064,-145.3,-2.2,-80.3,-18.6,-27.2,14.5,0.715323344,-0.218634602,-0.604602191,-0.273720511
699,1752068,368010,1.242,-0.088,-0.064,-139.5,-4.5,-77.2,-18.6,-27.2,14.5,0.714133122,-0.219794305,-0.604205451,-0.276772362
700,1753571,368020,1.242,-0.088,-0.064,-139.5,-4.5,-77.2,-18.6,-27.2,14.5,0.714133122,-0.219794305,-0.604205451,-0.276772362
701,1756710,368020,1.211,-0.049,-0.035,-134.4,-8.2,-72.1,-18.6,-27.2,14.5,0.711722159,-0.222174749,-0.603503525,-0.282540361
702,1758237,368020,1.18,-0.017,-0.027,-133.6,-9.6,-69.7,-18.3,-27.9,11.7,0.710531938,-0.223395489,-0.603167821,-0.285317545
703,1761139,368020,1.16,-0.001,-0.014,-133.6,-10.9,-67.4,-18.3,-27.9,11.7,0.709311197,-0.224646748,-0.602801599,-0.288094729
704,1764046,368030,1.148,0.009,-0.01,-134.2,-11.9,-65.4,-18.3,-27.9,11.7,0.708059938,-0.225928526,-0.602465896,-0.290810877
705,1767053,368030,1.117,0.029,0.009,-135,-12.5,-63.8,-18.3,-27.9,11.7,0.706839198,-0.22727134,-0.602130192,-0.293496506
706,1768531,368030,1.097,0.041,0.01,-136,-12.6,-62.6,-18.1,-28.7,13.1,0.705587939,-0.228614154,-0.60176397,-0.296182134
707,1772630,368030,1.078,0.045,0.014,-137.1,-12.1,-62,-18.1,-28.7,13.1,0.70433668,-0.229987487,-0.601367229,-0.298867763
708,1774831,368040,1.062,0.049,0.014,-138.4,-11,-62,-18.1,-28.7,13.1,0.703085421,-0.23136082,-0.60093997,-0.301583911
709,1777113,368040,1.043,0.042,0.007,-139.6,-9.4,-62.3,-18.1,-28.7,13.1,0.701834162,-0.232764672,-0.600482192,-0.304330576
710,1778555,368040,1.035,0.034,0.007,-140.6,-7.6,-62.9,-18.1,-29,12.9,0.700613422,-0.234138005,-0.599963378,-0.307107761
711,1781763,368040,1.023,0.026,0.003,-141.1,-5.6,-63.3,-18.1,-29,12.9,0.699392682,-0.235511338,-0.599444563,-0.309884945
712,1785005,368050,1.023,0.015,-0.004,-141.2,-3.4,-64,-18.1,-29,12.9,0.698171941,-0.236854152,-0.598864711,-0.312692648
713,1787222,368050,1,-0.003,-0.023,-140.5,-1,-64.7,-18.1,-29,12.9,0.696981719,-0.238135929,-0.598254341,-0.315500351
714,1789873,368050,1,-0.015,-0.031,-139.4,1.7,-65.4,-17.3,-29.5,12.2,0.695822016,-0.239387188,-0.597582934,-0.318338572
715,1792026,368050,0.992,-0.03,-0.043,-138.1,4.5,-66.3,-17.3,-29.5,12.2,0.694692831,-0.240607929,-0.596911527,-0.321146275
716,1794116,368060,0.988,-0.046,-0.059,-136.6,7.4,-67.3,-17.3,-29.5,12.2,0.693624683,-0.241737114,-0.596179083,-0.323984497
717,1796058,368060,0.985,-0.065,-0.059,-135.2,10.2,-68.7,-17.3,-29.5,12.2,0.692526017,-0.242805261,-0.595446638,-0.326853236
718,1798303,368060,0.981,-0.081,-0.055,-133.8,12.7,-69.9,-17.3,-30.2,11.7,0.691488388,-0.243842891,-0.594653157,-0.329691458
719,1801904,368060,0.988,-0.093,-0.063,-132.3,14.8,-71.2,-17.3,-30.2,11.7,0.690481277,-0.244788965,-0.593859676,-0.332560198
720,1805286,368070,0.988,-0.093,-0.063,-132.3,14.8,-71.2,-17.3,-30.2,11.7,0.690481277,-0.244788965,-0.593859676,-0.332560198
721,1807419,368070,0.992,-0.156,-0.041,-129.5,17,-73,-17.3,-30.2,11.7,0.688436537,-0.246589557,-0.592242195,-0.338297678
722,1809668,368070,1,-0.18,-0.029,-127.9,17.2,-73.2,-16.9,-30.6,8.8,0.687429426,-0.247444075,-0.591418195,-0.341166417
723,1811565,368070,1.012,-0.2,-0.014,-126.4,16.9,-73,-16.9,-30.6,8.8,0.686422315,-0.248268075,-0.590624714,-0.34397412
724,1813334,368080,1.012,-0.208,-0.01,-124.8,15.8,-72.4,-16.9,-30.6,8.8,0.685384686,-0.249092074,-0.589831233,-0.346751305
725,1817360,368080,1.016,-0.212,0.008,-123.5,14.2,-71.1,-16.9,-30.6,8.8,0.684377575,-0.249916074,-0.58906827,-0.349467452
726,1819830,368080,1.02,-0.22,0.012,-122.8,12.2,-69.1,-17,-30.9,10.5,0.683339946,-0.250770592,-0.588305307,-0.352153081
727,1822385,368080,1.031,-0.224,0.031,-123,10.1,-66.3,-17,-30.9,10.5,0.682271798,-0.251655629,-0.587572863,-0.354777673
728,1824307,368090,1.031,-0.232,0.039,-124.1,7.8,-63.2,-17,-30.9,10.5,0.68120365,-0.252632221,-0.586840419,-0.357341227
729,1826538,368090,1.031,-0.232,0.051,-125.5,5.7,-60.1,-17,-30.9,10.5,0.680104984,-0.253700369,-0.586107974,-0.359843745
730,1828492,368090,1.031,-0.217,0.059,-126.5,3.8,-57.2,-16.7,-31.7,9.9,0.679006317,-0.254799036,-0.58537553,-0.362376782
731,1832018,368090,1.027,-0.209,0.067,-126.4,2.2,-54.4,-16.7,-31.7,9.9,0.677907651,-0.255958739,-0.584643086,-0.364818262
732,1833627,368100,1.023,-0.193,0.071,-125.2,0.9,-51.5,-16.7,-31.7,9.9,0.676747948,-0.257148961,-0.583910642,-0.367168188
733,1837335,368100,1.035,-0.178,0.071,-123.1,-0.3,-48.5,-16.7,-31.7,9.9,0.675710318,-0.258339183,-0.583208716,-0.369457076
734,1839749,368100,1.035,-0.158,0.075,-120.6,-1.7,-45.4,-16.3,-32,9.4,0.6748558,-0.260994293,-0.582354198,-0.370464187
735,1841454,368100,1.035,-0.143,0.071,-118.1,-3,-42.5,-16.3,-32,9.4,0.673787652,-0.262184515,-0.581682791,-0.372569964
736,1844567,368110,1.039,-0.131,0.067,-115.7,-4,-39.8,-16.3,-32,9.4,0.672750023,-0.263466292,-0.581041902,-0.374614704
737,1846217,368110,1.043,-0.107,0.064,-113.4,-4.9,-37.4,-16.3,-32,9.4,0.671742912,-0.264687033,-0.580401013,-0.376567888
738,1849695,368110,1.043,-0.099,0.064,-110.8,-5.4,-35.1,-16.4,-32.2,8.9,0.670735801,-0.265907773,-0.579760125,-0.378460036
739,1851411,368110,1.043,-0.088,0.064,-108,-5.8,-33,-16.4,-32.2,8.9,0.669759209,-0.267128513,-0.579149754,-0.380260628
740,1853603,368120,1.043,-0.088,0.064,-108,-5.8,-33,-16.4,-32.2,8.9,0.669759209,-0.267128513,-0.579149754,-0.380260628
741,1857646,368120,1.043,-0.048,0.061,-101.6,-6.1,-29.6,-16.4,-32.2,8.9,0.66789758,-0.269478439,-0.577959532,-0.383678701
742,1859758,368120,1.039,-0.036,0.061,-98.4,-5.8,-28.4,-16,-32.5,6.3,0.666982025,-0.270577105,-0.577379681,-0.385296182
743,1862821,368120,1.039,-0.025,0.061,-95.6,-5.2,-27.7,-16,-32.5,6.3,0.666127506,-0.271675771,-0.576830348,-0.386883145
744,1865015,368130,1.039,0.002,0.065,-93.4,-4.6,-27.4,-16,-32.5,6.3,0.665272988,-0.272713401,-0.576281014,-0.388439589
745,1866757,368130,1.023,0.014,0.069,-91.6,-3.8,-27.3,-16,-32.5,6.3,0.664448988,-0.27375103,-0.575701163,-0.389965514
746,1869617,368130,1.019,0.022,0.07,-90.4,-3,-27.6,-15.3,-32.5,7.6,0.663624989,-0.274727622,-0.57515183,-0.39149144
747,1871764,368130,1.011,0.037,0.07,-89.7,-2.2,-27.9,-15.3,-32.5,7.6,0.662831507,-0.275704215,-0.574571978,-0.392986847
748,1873363,368140,0.992,0.045,0.074,-89.4,-1.5,-28.3,-15.3,-32.5,7.6,0.662038026,-0.276650288,-0.573992126,-0.394512772
749,1875945,368140,0.984,0.049,0.082,-89.4,-1.1,-28.4,-15.3,-32.5,7.6,0.661244545,-0.277596362,-0.573412275,-0.396038697
750,1878269,368140,0.972,0.061,0.079,-89.7,-0.9,-28.5,-15.6,-32.9,7.1,0.660420545,-0.278542436,-0.572832423,-0.397564623
751,1882737,368140,0.964,0.065,0.083,-90,-1.1,-28.3,-15.6,-32.9,7.1,0.659627064,-0.27948851,-0.572222053,-0.399090548
752,1885239,368150,0.96,0.077,0.083,-90.5,-1.4,-28,-15.6,-32.9,7.1,0.658803064,-0.280465102,-0.571642201,-0.400616474
753,1887319,368150,0.956,0.077,0.079,-91.2,-1.8,-27.9,-15.6,-32.9,7.1,0.657979064,-0.281441694,-0.571031831,-0.402142399
754,1889561,368150,0.945,0.085,0.08,-91.9,-1.9,-27.9,-15.3,-33.1,6.6,0.656941435,-0.282631916,-0.570696127,-0.403485214
755,1892308,368150,0.949,0.093,0.083,-92.6,-1.6,-28,-15.3,-33.1,6.6,0.656117435,-0.283639027,-0.570055239,-0.405041658
756,1894543,368160,0.941,0.093,0.084,-93.3,-1.1,-28.1,-15.3,-33.1,6.6,0.655262917,-0.284615619,-0.569444868,-0.406598102
757,1896776,368160,0.941,0.085,0.084,-93.8,-0.6,-28.2,-15.3,-33.1,6.6,0.654408399,-0.28562273,-0.568773461,-0.408154546
758,1898469,368160,0.937,0.085,0.084,-94.4,0.1,-28.6,-15.4,-33,6.2,0.653584399,-0.286629841,-0.568102054,-0.409741508
759,1902081,368160,0.937,0.077,0.072,-94.6,0.9,-29.1,-15.4,-33,6.2,0.652729881,-0.287575915,-0.567430647,-0.411328471
760,1903964,368170,0.937,0.077,0.072,-94.6,0.9,-29.1,-15.4,-33,6.2,0.652729881,-0.287575915,-0.567430647,-0.411328471
761,1907881,368170,0.937,0.066,0.076,-94,3,-30.5,-15.4,-33,6.2,0.651051363,-0.289498581,-0.566057314,-0.414532914
762,1910241,368170,0.949,0.046,0.079,-93.1,4.3,-31.3,-15.3,-33.6,4.3,0.650227363,-0.290383618,-0.565355388,-0.416150395
763,1912349,368170,0.956,0.046,0.079,-91.9,5.7,-32.4,-15.3,-33.6,4.3,0.649403363,-0.291238136,-0.564622944,-0.417798395
764,1913857,368180,0.96,0.038,0.083,-90.5,7.1,-33.6,-15.3,-33.6,4.3,0.6486404,-0.292031617,-0.563921018,-0.419446394
765,1917023,368180,0.968,0.026,0.082,-88.8,8.4,-34.9,-15.3,-33.6,4.3,0.647846919,-0.29279458,-0.563219092,-0.421063875
766,1919212,368180,0.988,0.01,0.078,-87,9.8,-36.1,-15.2,-34,5.8,0.647083956,-0.293496506,-0.562486648,-0.422711875
767,1921389,368180,0.999,-0.001,0.081,-85.1,11.1,-37.2,-15.2,-34,5.8,0.646320994,-0.294137394,-0.561784722,-0.424359874
768,1923696,368190,1.011,-0.009,0.085,-83.2,12.3,-38,-15.2,-34,5.8,0.645588549,-0.294717246,-0.561082797,-0.426007874
769,1925948,368190,1.035,-0.017,0.092,-81.4,13.2,-38.4,-15.2,-34,5.8,0.644886624,-0.295266579,-0.560380871,-0.427625355
770,1928867,368190,1.046,-0.021,0.096,-79.7,13.9,-38.6,-15.1,-34.1,5.3,0.64415418,-0.295785394,-0.559709464,-0.429212317
771,1931101,368190,1.054,-0.021,0.096,-77.9,14.2,-38.5,-15.1,-34.1,5.3,0.643482772,-0.29627369,-0.559007538,-0.43079928
772,1933576,368200,1.066,-0.033,0.103,-76.2,14.3,-38.4,-15.1,-34.1,5.3,0.642811365,-0.296761986,-0.558336131,-0.432386242
773,1937329,368200,1.078,-0.03,0.103,-74.5,14.3,-37.9,-15.1,-34.1,5.3,0.642139958,-0.297189245,-0.557695242,-0.433912168
774,1938898,368200,1.093,-0.03,0.107,-73,14,-37.1,-14.8,-34.4,4.3,0.641468551,-0.298043764,-0.557084872,-0.435071871
775,1940757,368200,1.093,-0.03,0.107,-71.8,13.6,-36.1,-14.8,-34.4,4.3,0.640827662,-0.298471023,-0.556443983,-0.43653676
776,1944911,368210,1.105,-0.03,0.111,-70.9,12.9,-35,-14.8,-34.4,4.3,0.640186773,-0.2989288,-0.555833613,-0.437971129
777,1946434,368210,1.109,-0.022,0.103,-70,12,-33.8,-14.8,-34.4,4.3,0.639545885,-0.299356059,-0.555192724,-0.439374981
778,1948491,368210,1.109,-0.022,0.103,-70,12,-33.8,-14.8,-34.4,4.3,0.639545885,-0.299356059,-0.555192724,-0.439374981
779,1952387,368210,1.128,-0.019,0.102,-68.3,10,-31,-14.6,-33.9,3.9,0.638294626,-0.300302133,-0.554002503,-0.44206061
780,1954285,368220,1.128,-0.019,0.102,-68.3,10,-31,-14.6,-33.9,3.9,0.638294626,-0.300302133,-0.554002503,-0.44206061
781,1956827,368220,1.132,-0.003,0.103,-66.7,8.3,-28.8,-14.6,-33.9,3.9,0.637043367,-0.301309244,-0.552842799,-0.444624165
782,1958853,368220,1.128,0,0.103,-66.1,7.5,-28.1,-14.6,-34.9,2.8,0.636432997,-0.301828059,-0.552293466,-0.445844905
783,1960882,368220,1.121,-0.003,0.095,-65.7,6.9,-27.3,-14.6,-34.9,2.8,0.635822626,-0.302316355,-0.551744133,-0.447065645
784,1964006,368230,1.136,0.012,0.095,-65.4,6.2,-26.9,-14.6,-34.9,2.8,0.635181738,-0.302865688,-0.5511948,-0.448255867
785,1966382,368230,1.144,0.008,0.095,-64.9,5.4,-26.7,-14.6,-34.9,2.8,0.634571368,-0.303384503,-0.550645466,-0.449446089
786,1968449,368230,1.144,0.012,0.099,-64.1,4.5,-26.7,-14.3,-34.8,3.2,0.633930479,-0.303903317,-0.550126652,-0.450636311
787,1970821,368230,1.128,0.016,0.099,-63.4,3.9,-26.5,-14.3,-34.8,3.2,0.63328959,-0.304422132,-0.549638356,-0.451796014
788,1973885,368240,1.124,0.016,0.099,-62.7,3.8,-26.2,-14.3,-34.8,3.2,0.63267922,-0.304940947,-0.549119541,-0.452925199
789,1977007,368240,1.124,0.02,0.099,-62.1,4,-26,-14.3,-34.8,3.2,0.632038331,-0.305429243,-0.548631245,-0.454054384
790,1979655,368240,1.117,0.02,0.107,-61.6,4.4,-26,-14.2,-34.8,2.9,0.631427961,-0.305948057,-0.548142949,-0.455183569
791,1981527,368240,1.109,0.02,0.103,-61.1,4.8,-26.2,-14.2,-34.8,2.9,0.630817591,-0.306405835,-0.547624134,-0.456312754
792,1983462,368250,1.105,0.02,0.111,-60.6,5.2,-26.5,-14.2,-34.8,2.9,0.630207221,-0.306863613,-0.547135838,-0.457441939
793,1985811,368250,1.097,0.016,0.115,-60,5.3,-26.7,-14.2,-34.8,2.9,0.62959685,-0.30732139,-0.546647542,-0.458540605
794,1988610,368250,1.085,0.02,0.115,-59.4,5.2,-26.8,-14.1,-35.2,2.4,0.629016999,-0.307779168,-0.546159246,-0.45966979
795,1992169,368250,1.085,0.02,0.115,-58.6,5,-27,-14.1,-35.2,2.4,0.628406629,-0.308206427,-0.545670949,-0.460768456
796,1994487,368260,1.074,0.016,0.112,-57.8,4.6,-27,-14.1,-35.2,2.4,0.627796258,-0.308633686,-0.545213172,-0.461867122
797,1996631,368260,1.058,0.016,0.12,-57,4.4,-27,-14.1,-35.2,2.4,0.627185888,-0.309030427,-0.544755394,-0.46293527
798,1998852,368260,1.046,0.016,0.124,-56.1,4.1,-27.1,-13.8,-35.3,2.3,0.626575518,-0.309457686,-0.544328135,-0.464003418
799,2000989,368260,1.042,0.013,0.12,-55.2,3.8,-27.1,-13.8,-35.3,2.3,0.625965148,-0.309854427,-0.543900876,-0.465041047
800,2004553,368270,1.042,0.013,0.12,-55.2,3.8,-27.1,-13.8,-35.3,2.3,0.625965148,-0.309854427,-0.543900876,-0.465041047
801,2006716,368270,1.015,0.021,0.128,-53,3.4,-26.6,-13.8,-35.3,2.3,0.624805445,-0.310586871,-0.543076876,-0.467116306
802,2009011,368270,1.003,0.021,0.125,-51.8,3.5,-26.3,-13.6,-35.5,1.8,0.624225593,-0.310953093,-0.542680136,-0.468092898
803,2010932,368270,0.999,0.025,0.125,-50.7,3.6,-26.1,-13.6,-35.5,1.8,0.623645741,-0.311288797,-0.542283395,-0.469069491
804,2014663,368280,0.988,0.021,0.125,-49.5,4,-25.9,-13.6,-35.5,1.8,0.623096408,-0.3116245,-0.541886654,-0.470046083
805,2016851,368280,0.972,0.025,0.121,-48.4,4.6,-25.8,-13.6,-35.5,1.8,0.622547075,-0.311929685,-0.541489914,-0.470992157
806,2018882,368280,0.968,0.021,0.125,-47.4,5.3,-25.8,-13.8,-34.9,1.9,0.62202826,-0.312204352,-0.541123692,-0.471938231
807,2023058,368280,0.96,0.021,0.125,-46.2,6.1,-25.9,-13.8,-34.9,1.9,0.621509445,-0.312479019,-0.540726951,-0.472884304
808,2023325,368290,0.952,0.018,0.126,-44.9,6.7,-26,-13.8,-34.9,1.9,0.621021149,-0.312692648,-0.540360729,-0.473830378
809,2026168,368290,0.945,0.018,0.122,-43.6,7.5,-26.1,-13.8,-34.9,1.9,0.620532853,-0.312906278,-0.539994507,-0.474745933
810,2028462,368290,0.952,0.018,0.126,-42.3,8.2,-26.3,-13.3,-34.8,1.8,0.620075076,-0.313089389,-0.539597766,-0.475661489
811,2030873,368290,0.948,0.014,0.13,-41,8.8,-26.4,-13.3,-34.8,1.8,0.619617298,-0.313241981,-0.539231544,-0.476546525
812,2033297,368300,0.945,0.014,0.126,-39.6,9.5,-26.5,-13.3,-34.8,1.8,0.619190039,-0.313364055,-0.53889584,-0.477431562
813,2037740,368300,0.941,0.018,0.13,-38.2,10.1,-26.6,-13.3,-34.8,1.8,0.61876278,-0.313455611,-0.538529618,-0.478316599
814,2040183,368300,0.948,0.022,0.13,-36.7,10.6,-26.4,-13.3,-35.3,1.2,0.618396558,-0.313821833,-0.538163396,-0.478957488
815,2042033,368300,0.948,0.022,0.13,-36.7,10.6,-26.4,-13.3,-35.3,1.2,0.618396558,-0.313821833,-0.538163396,-0.478957488
816,2043877,368310,0.948,0.021,0.134,-33.9,11,-25.8,-13.3,-35.3,1.2,0.617633595,-0.313913388,-0.537522507,-0.480636006
817,2047260,368310,0.945,0.022,0.13,-32.5,11.1,-25.4,-13.3,-35.3,1.2,0.617297891,-0.313943907,-0.537186804,-0.481429487
818,2048999,368310,0.937,0.022,0.13,-30.9,11.2,-25.1,-13.2,-35.6,1.3,0.616931669,-0.313943907,-0.536881619,-0.48219245
819,2051500,368310,0.945,0.021,0.137,-29,11.1,-24.8,-13.2,-35.6,1.3,0.616595965,-0.313913388,-0.536606952,-0.482955412
820,2054092,368320,0.937,0.025,0.138,-27.2,11,-24.7,-13.2,-35.6,1.3,0.61629078,-0.31388287,-0.536332286,-0.483687857
821,2055809,368320,0.941,0.033,0.142,-25.2,10.5,-24.6,-13.2,-35.6,1.3,0.615985595,-0.313821833,-0.536088137,-0.484389782
822,2059774,368320,0.945,0.033,0.142,-23.4,9.9,-24.3,-13.4,-35.6,0.9,0.61568041,-0.313760796,-0.535874508,-0.48506119
823,2062800,368320,0.948,0.041,0.142,-21.7,9.1,-23.8,-13.4,-35.6,0.9,0.615375225,-0.31366924,-0.535691397,-0.48567156
824,2064472,368330,0.952,0.041,0.145,-20.2,8.2,-22.9,-13.4,-35.6,0.9,0.615100558,-0.313577685,-0.535538804,-0.48628193
825,2066765,368330,0.956,0.049,0.145,-18.7,7.3,-21.9,-13.4,-35.6,0.9,0.614825892,-0.313516648,-0.535386212,-0.486861782
826,2069812,368330,0.96,0.056,0.145,-17.3,6.4,-21.3,-13.3,-35.7,0.7,0.614551225,-0.313425092,-0.535264138,-0.487380596
827,2072486,368330,0.956,0.056,0.153,-16.1,5.9,-20.9,-13.3,-35.7,0.7,0.61424604,-0.313333537,-0.535142064,-0.487899411
828,2074030,368340,0.96,0.068,0.153,-15.3,5.8,-20.7,-13.3,-35.7,0.7,0.614032411,-0.313241981,-0.535050508,-0.488387707
829,2076002,368340,0.964,0.068,0.157,-14.8,6,-20.7,-13.3,-35.7,0.7,0.613788263,-0.313119907,-0.534958953,-0.488876003
830,2079783,368340,0.964,0.072,0.161,-14.4,6.2,-20.7,-13,-35.5,0.3,0.613544115,-0.312967315,-0.534836879,-0.489364299
831,2081938,368340,0.96,0.08,0.161,-14.2,6.5,-20.7,-13,-35.5,0.3,0.613299966,-0.312875759,-0.534745323,-0.489852596
832,2084131,368350,0.956,0.084,0.158,-13.9,6.9,-20.6,-13,-35.5,0.3,0.613055818,-0.312753685,-0.534653768,-0.490340892
833,2086231,368350,0.952,0.088,0.162,-13.5,7.1,-20.3,-13,-35.5,0.3,0.61281167,-0.312631611,-0.534562212,-0.490829188
834,2088649,368350,0.933,0.084,0.158,-12.3,7,-19.6,-12.6,-35.7,0.3,0.612537004,-0.313211463,-0.534684286,-0.490676595
835,2091080,368350,0.933,0.084,0.158,-12.3,7,-19.6,-12.6,-35.7,0.3,0.612323374,-0.31305887,-0.534562212,-0.491134373
836,2093355,368360,0.878,0.081,0.151,-11.5,6.6,-19.4,-12.6,-35.7,0.3,0.612109745,-0.312936796,-0.534501175,-0.491592151
837,2097196,368360,0.921,0.092,0.147,-10.3,5.6,-19.5,-12.6,-35.7,0.3,0.611896115,-0.312784204,-0.534440138,-0.491988891
838,2098621,368360,0.956,0.107,0.154,-8.6,3.8,-19.9,-12.5,-35.5,0.1,0.611651967,-0.312631611,-0.534440138,-0.492385632
839,2100851,368360,0.96,0.107,0.15,-6.5,1,-20,-12.5,-35.5,0.1,0.611407819,-0.312479019,-0.534501175,-0.492751854
840,2103945,368370,0.983,0.119,0.161,-4.5,-1.9,-19.7,-12.5,-35.5,0.1,0.611163671,-0.312326426,-0.53459273,-0.493057039
841,2106174,368370,0.976,0.131,0.166,-2.6,-4.4,-18.5,-12.5,-35.5,0.1,0.610889004,-0.312173833,-0.534745323,-0.493301187
842,2110040,368370,0.987,0.138,0.173,-1.2,-5.9,-16.9,-12.5,-36,0.7,0.610614338,-0.312051759,-0.534928434,-0.493484298
843,2111855,368370,0.968,0.134,0.174,-0.4,-6.2,-15.5,-12.5,-36,0.7,0.610339671,-0.311960204,-0.535111545,-0.493667409
844,2113354,368380,0.94,0.131,0.17,-0.4,-5.3,-14.9,-12.5,-36,0.7,0.61015656,-0.31183813,-0.535294656,-0.49385052
845,2116081,368380,0.921,0.127,0.167,-0.7,-4,-15.3,-12.5,-36,0.7,0.60994293,-0.311716056,-0.535447249,-0.494033631
846,2120260,368380,0.925,0.135,0.174,-0.9,-3.1,-16.4,-12.8,-36.1,0.7,0.609698782,-0.311563463,-0.535569323,-0.494216742
847,2123139,368380,0.847,0.105,0.172,-0.4,-3.1,-18,-12.8,-36.1,0.7,0.609485153,-0.311410871,-0.535752434,-0.494460891
848,2123361,368390,0.862,0.108,0.175,0.9,-4.2,-20.3,-12.8,-36.1,0.7,0.609210486,-0.311197241,-0.535935545,-0.49467452
849,2125860,368390,0.878,0.12,0.171,3.4,-6.5,-23.5,-12.8,-36.1,0.7,0.608905301,-0.310953093,-0.53624073,-0.494918668
850,2129184,368390,0.936,0.154,0.19,6.6,-10,-27.6,-12.5,-36,1.1,0.608539079,-0.310647908,-0.536637471,-0.495132298
851,2132675,368390,1.03,0.196,0.189,10,-14.2,-31.4,-12.5,-36,1.1,0.608081301,-0.310312204,-0.537125767,-0.495345927
852,2134587,368400,1.057,0.208,0.189,12.3,-18.2,-32.8,-12.5,-36,1.1,0.607623524,-0.309945982,-0.537736137,-0.49549852
853,2136766,368400,0.999,0.189,0.189,12.8,-20.5,-30.3,-12.5,-36,1.1,0.607135228,-0.309640797,-0.538346507,-0.495620594
854,2139128,368400,0.983,0.193,0.194,9,-18.3,-18.7,-12.4,-36,0.9,0.606707968,-0.309518723,-0.538926359,-0.495590075
855,2141056,368400,0.979,0.189,0.19,9,-18.3,-18.7,-12.4,-36,0.9,0.606341746,-0.309396649,-0.539384136,-0.495620594
856,2143380,368410,0.983,0.201,0.206,6.3,-15.1,-14.7,-12.4,-36,0.9,0.606036561,-0.309305094,-0.539750359,-0.495651112
857,2147396,368410,0.987,0.189,0.201,4.2,-12.1,-13.3,-12.4,-36,0.9,0.605792413,-0.309213538,-0.540025025,-0.495681631
858,2149605,368410,0.983,0.208,0.213,2.9,-9.7,-13.7,-12.5,-35.9,1,0.605548265,-0.309121982,-0.540299692,-0.495773186
859,2151809,368410,0.999,0.22,0.213,2.4,-7.9,-14.3,-12.5,-35.9,1,0.605304117,-0.308999908,-0.540513321,-0.495864742
860,2154089,368420,0.987,0.216,0.21,2.4,-6.5,-14.3,-12.5,-35.9,1,0.605090487,-0.308877834,-0.540726951,-0.495986816
861,2156611,368420,0.944,0.205,0.198,2.2,-5.2,-13.4,-12.5,-35.9,1,0.604907376,-0.308725242,-0.540910062,-0.49610889
862,2158934,368420,0.944,0.201,0.198,1.8,-3.7,-12.2,-12.3,-35.9,0.7,0.604724265,-0.308603168,-0.541062654,-0.496230964
863,2160848,368420,0.948,0.201,0.198,1.3,-2.4,-11.2,-12.3,-35.9,0.7,0.604602191,-0.308481094,-0.541184729,-0.49632252
864,2164568,368430,0.944,0.197,0.194,0.8,-1.3,-10.5,-12.3,-35.9,0.7,0.604480117,-0.30835902,-0.541306803,-0.496444594
865,2166785,368430,0.948,0.201,0.198,0.8,-0.7,-10.4,-12.3,-35.9,0.7,0.604358043,-0.308236946,-0.54136784,-0.496566668
866,2168931,368430,0.948,0.201,0.198,1.1,-0.4,-10.4,-11.8,-36.1,1.1,0.604235969,-0.308114872,-0.541459395,-0.496688742
867,2171806,368430,0.952,0.197,0.194,1.8,-0.3,-10.5,-11.8,-36.1,1.1,0.604144414,-0.307962279,-0.541581469,-0.496810816
868,2173230,368440,0.96,0.205,0.19,2.6,-0.5,-10.3,-11.8,-36.1,1.1,0.604052858,-0.307809687,-0.541673025,-0.496902371
869,2176333,368440,0.96,0.205,0.19,3.3,-0.7,-10,-11.8,-36.1,1.1,0.603930784,-0.307657094,-0.541795099,-0.496993927
870,2179124,368440,0.968,0.205,0.194,3.9,-0.7,-9.8,-11.7,-36.1,0.8,0.603869747,-0.307504501,-0.541917173,-0.497085482
871,2182157,368440,0.968,0.205,0.186,4.2,-0.7,-9.7,-11.7,-36.1,0.8,0.603778191,-0.30732139,-0.542039247,-0.497146519
872,2183539,368450,0.971,0.205,0.19,4.4,-0.7,-9.5,-11.7,-36.1,0.8,0.603686636,-0.307168798,-0.542161321,-0.497207556
873,2186429,368450,0.979,0.209,0.194,4.4,-0.8,-9.2,-11.7,-36.1,0.8,0.60359508,-0.307016205,-0.542283395,-0.497268593
874,2189328,368450,0.979,0.209,0.198,4.1,-1.3,-8.8,-12,-36,0.9,0.603350932,-0.306802576,-0.542619098,-0.497360149
875,2190745,368450,0.979,0.205,0.194,4.1,-1.3,-8.8,-12,-36,0.9,0.603259377,-0.306649983,-0.542741173,-0.497421186
876,2193850,368460,0.979,0.209,0.194,3.8,-1.7,-8.6,-12,-36,0.9,0.603167821,-0.306527909,-0.542863247,-0.497482223
877,2196854,368460,0.975,0.201,0.202,3.4,-2,-8.3,-12,-36,0.9,0.603076266,-0.306405835,-0.542985321,-0.497512741
878,2199672,368460,0.975,0.201,0.198,3,-2.4,-7.9,-12,-36.2,0.5,0.60298471,-0.30631428,-0.543107395,-0.497573778
879,2200985,368460,0.983,0.205,0.198,2.7,-2.8,-7.4,-12,-36.2,0.5,0.602893155,-0.306192206,-0.54319895,-0.497634816
880,2203973,368470,0.983,0.205,0.198,2.7,-2.8,-7.4,-12,-36.2,0.5,0.602893155,-0.306192206,-0.54319895,-0.497634816
881,2207071,368470,0.979,0.209,0.194,2.4,-3.5,-6.9,-12,-36.2,0.5,0.602679525,-0.306039613,-0.543443098,-0.497695853
882,2208699,368470,0.979,0.209,0.198,2.4,-3.8,-6.6,-12.3,-36.1,0.9,0.60258797,-0.305978576,-0.543565172,-0.497726371
883,2211644,368470,0.975,0.201,0.202,2.4,-4.1,-6.4,-12.3,-36.1,0.9,0.602465896,-0.305917539,-0.543687246,-0.49775689
884,2214497,368480,0.983,0.208,0.206,2.2,-4.4,-6.2,-12.3,-36.1,0.9,0.60237434,-0.305856502,-0.54380932,-0.497787408
885,2216023,368480,0.983,0.208,0.206,2.1,-4.7,-6.1,-12.3,-36.1,0.9,0.602252266,-0.305795465,-0.543931394,-0.497817927
886,2219008,368480,0.979,0.208,0.206,1.9,-5.1,-5.8,-12.1,-36.1,0.3,0.60216071,-0.305764946,-0.544083987,-0.497848445
887,2222116,368480,0.975,0.208,0.214,1.7,-5.5,-5.5,-12.1,-36.1,0.3,0.602038636,-0.305734428,-0.544206061,-0.497848445
888,2223542,368490,0.975,0.208,0.21,1.4,-5.8,-5.2,-12.1,-36.1,0.3,0.601916562,-0.305734428,-0.544328135,-0.497848445
889,2226671,368490,0.971,0.205,0.21,1.3,-6,-4.8,-12.1,-36.1,0.3,0.601794488,-0.305703909,-0.544450209,-0.497878964
890,2229664,368490,0.975,0.208,0.206,1.1,-6.2,-4.6,-11.8,-36.2,0.5,0.601702933,-0.305703909,-0.544572283,-0.497878964
891,2231037,368490,0.975,0.208,0.21,0.8,-6.4,-4.3,-11.8,-36.2,0.5,0.601580859,-0.305734428,-0.544694357,-0.497878964
892,2233985,368500,0.979,0.216,0.206,0.6,-6.7,-4.1,-11.8,-36.2,0.5,0.601458785,-0.305734428,-0.544816431,-0.497878964
893,2237154,368500,0.971,0.212,0.21,0.3,-6.9,-3.9,-11.8,-36.2,0.5,0.601336711,-0.305764946,-0.544938505,-0.497878964
894,2238527,368500,0.979,0.216,0.21,-0.3,-6.9,-3.7,-12,-36.1,0.4,0.600848415,-0.305520798,-0.54545732,-0.498062075
895,2240791,368500,0.979,0.216,0.21,-0.3,-6.9,-3.7,-12,-36.1,0.4,0.600726341,-0.305551317,-0.545548875,-0.498062075
896,2244019,368510,0.971,0.22,0.21,-0.8,-6.8,-3.6,-12,-36.1,0.4,0.600604266,-0.305581835,-0.545670949,-0.498092593
897,2246048,368510,0.971,0.22,0.21,-0.8,-6.8,-3.6,-12,-36.1,0.4,0.600604266,-0.305581835,-0.545670949,-0.498092593
898,2248298,368510,0.971,0.22,0.214,-1.5,-6.1,-3.4,-11.3,-35.7,0.4,0.600360118,-0.305673391,-0.54585406,-0.498123112
899,2251518,368510,0.971,0.224,0.21,-1.8,-5.7,-3.3,-11.3,-35.7,0.4,0.600238044,-0.305734428,-0.545915098,-0.49815363
900,2253540,368520,0.971,0.224,0.21,-1.8,-5.7,-3.3,-11.3,-35.7,0.4,0.600238044,-0.305734428,-0.545915098,-0.49815363
901,2255900,368520,0.971,0.22,0.21,-2.5,-4.6,-3.7,-11.3,-35.7,0.4,0.599993896,-0.305795465,-0.54606769,-0.498245186
902,2259785,368520,0.971,0.216,0.21,-3,-4,-4,-12.6,-36.3,0.9,0.599902341,-0.305856502,-0.546098209,-0.498306223
903,2262133,368520,0.971,0.216,0.21,-3.3,-3.3,-4.4,-12.6,-36.3,0.9,0.599780267,-0.305856502,-0.546128727,-0.49836726
904,2264285,368530,0.967,0.216,0.218,-3.6,-2.7,-4.8,-12.6,-36.3,0.9,0.599688711,-0.30588702,-0.546159246,-0.498458815
905,2266434,368530,0.975,0.212,0.214,-3.6,-2.1,-4.9,-12.6,-36.3,0.9,0.599566637,-0.305917539,-0.546189764,-0.498519852
906,2268530,368530,0.971,0.212,0.206,-3.7,-1.7,-5.1,-11.4,-35.8,0.7,0.599475082,-0.305917539,-0.546189764,-0.498672445
907,2270864,368530,0.971,0.208,0.21,-3.8,-1.2,-5.3,-11.4,-35.8,0.7,0.599383526,-0.305917539,-0.546220283,-0.498764
908,2274370,368540,0.975,0.208,0.214,-3.9,-0.9,-5.6,-11.4,-35.8,0.7,0.599261452,-0.305917539,-0.546220283,-0.498886074
909,2276742,368540,0.975,0.204,0.21,-3.9,-0.4,-5.7,-11.4,-35.8,0.7,0.599169897,-0.30588702,-0.546220283,-0.499008148
910,2278546,368540,0.971,0.205,0.21,-4.1,0,-5.9,-11.5,-36.2,1.1,0.599078341,-0.30588702,-0.546220283,-0.499130222
911,2280809,368540,0.975,0.2,0.213,-4.3,0.2,-6.1,-11.5,-36.2,1.1,0.598986785,-0.305856502,-0.546220283,-0.499252297
912,2283279,368550,0.979,0.2,0.21,-4.5,0.4,-6.2,-11.5,-36.2,1.1,0.59889523,-0.305825983,-0.546189764,-0.499404889
913,2287098,368550,0.983,0.204,0.217,-4.7,0.6,-6.3,-11.5,-36.2,1.1,0.598803674,-0.305825983,-0.546159246,-0.499526963
914,2289538,368550,0.983,0.197,0.202,-5.1,1,-6.2,-11.3,-36.1,1,0.598467971,-0.305581835,-0.546403394,-0.499832148
915,2291585,368550,0.983,0.201,0.206,-5.1,1,-6.2,-11.3,-36.1,1,0.598376415,-0.305551317,-0.546372875,-0.499984741
916,2293714,368560,0.987,0.201,0.202,-5.3,1.4,-6.1,-11.3,-36.1,1,0.59828486,-0.305551317,-0.546342357,-0.500137333
917,2296091,368560,0.979,0.201,0.202,-5.5,1.7,-6.1,-11.3,-36.1,1,0.598223823,-0.305520798,-0.546311838,-0.500289926
918,2299940,368560,0.987,0.201,0.202,-5.7,2,-6.1,-11.3,-36,0.4,0.598132267,-0.30549028,-0.546250801,-0.500442518
919,2302516,368560,0.987,0.201,0.202,-6.1,2.2,-6.2,-11.3,-36,0.4,0.598040712,-0.30549028,-0.546189764,-0.500625629
920,2304910,368570,0.987,0.201,0.202,-6.1,2.2,-6.2,-11.3,-36,0.4,0.598040712,-0.30549028,-0.546189764,-0.500625629
921,2307650,368570,0.983,0.201,0.194,-6.7,2.6,-6.4,-11.3,-36,0.4,0.597888119,-0.305429243,-0.54606769,-0.500961333
922,2309696,368570,0.983,0.201,0.198,-7,2.8,-6.5,-13,-36.5,0.5,0.597796564,-0.305429243,-0.546006653,-0.501174963
923,2311918,368570,0.983,0.205,0.198,-7.4,2.8,-6.6,-13,-36.5,0.5,0.597705008,-0.305398724,-0.545945616,-0.501358074
924,2314313,368580,0.979,0.201,0.194,-7.7,3.1,-6.9,-13,-36.5,0.5,0.597613453,-0.305398724,-0.54585406,-0.501571703
925,2317321,368580,0.979,0.197,0.186,-8.1,3.3,-7.2,-13,-36.5,0.5,0.597521897,-0.305368206,-0.545762505,-0.501785333
926,2319608,368580,0.975,0.197,0.186,-8.4,3.7,-7.5,-11.2,-36.6,0.8,0.597430342,-0.305368206,-0.545670949,-0.501998962
927,2321765,368580,0.975,0.197,0.19,-8.7,3.9,-7.8,-11.2,-36.6,0.8,0.597338786,-0.305337687,-0.545579394,-0.50224311
928,2323836,368590,0.975,0.197,0.186,-9.1,4.1,-8,-11.2,-36.6,0.8,0.59724723,-0.305307169,-0.545487838,-0.502487259
929,2327007,368590,0.975,0.197,0.186,-9.4,4.3,-8.1,-11.2,-36.6,0.8,0.597125156,-0.305307169,-0.545365764,-0.502731407
930,2329233,368590,0.971,0.197,0.186,-9.6,4.6,-8.1,-11.1,-36,0.6,0.597033601,-0.30527665,-0.545274209,-0.502975555
931,2331523,368590,0.971,0.201,0.19,-9.7,5,-8.2,-11.1,-36,0.6,0.596942045,-0.305246132,-0.545152135,-0.503219703
932,2333301,368600,0.972,0.201,0.182,-9.7,5.3,-8.3,-11.1,-36,0.6,0.59685049,-0.305215613,-0.545030061,-0.503494369
933,2337133,368600,0.972,0.197,0.182,-9.5,5.4,-8.4,-11.1,-36,0.6,0.596758934,-0.305154576,-0.544907987,-0.503769036
934,2339569,368600,0.968,0.205,0.186,-9.1,5.5,-8.5,-11.2,-36.6,0.4,0.596392712,-0.305215613,-0.545152135,-0.50389111
935,2341144,368600,0.968,0.205,0.186,-9.1,5.5,-8.5,-11.2,-36.6,0.4,0.596301157,-0.305154576,-0.545030061,-0.504135258
936,2343464,368610,0.971,0.209,0.186,-8.9,5.7,-8.4,-11.2,-36.6,0.4,0.596209601,-0.305124058,-0.544907987,-0.504379406
937,2345794,368610,0.975,0.209,0.186,-8.7,5.8,-8.4,-11.2,-36.6,0.4,0.596148564,-0.305093539,-0.544816431,-0.504654073
938,2348272,368610,0.972,0.205,0.182,-8.4,6,-8.5,-10.9,-36.6,0.9,0.596057009,-0.305032502,-0.544694357,-0.504867702
939,2352038,368610,0.971,0.209,0.194,-8.1,6.1,-8.5,-10.9,-36.6,0.9,0.595995972,-0.304971465,-0.544572283,-0.505142369
940,2354299,368620,0.971,0.209,0.194,-8.1,6.1,-8.5,-10.9,-36.6,0.9,0.595995972,-0.304971465,-0.544572283,-0.505142369
941,2356472,368620,0.971,0.217,0.194,-7.3,6.2,-8.4,-10.9,-36.6,0.9,0.595843379,-0.304818873,-0.544358654,-0.505630665
942,2359600,368620,0.971,0.216,0.198,-6.9,6.1,-8.4,-12.6,-36.2,0.3,0.595782342,-0.304757836,-0.544267098,-0.505874813
943,2361802,368620,0.964,0.217,0.194,-6.6,6.1,-8.4,-12.6,-36.2,0.3,0.595721305,-0.30466628,-0.544175542,-0.506088443
944,2364212,368630,0.967,0.216,0.206,-6.3,6.1,-8.5,-12.6,-36.2,0.3,0.595660268,-0.304574725,-0.544083987,-0.506332591
945,2366067,368630,0.96,0.217,0.202,-6.1,6.1,-8.6,-12.6,-36.2,0.3,0.595568712,-0.304483169,-0.543992431,-0.50654622
946,2368461,368630,0.967,0.22,0.206,-5.9,6.1,-8.7,-11.1,-36.8,0,0.595507675,-0.304391614,-0.543900876,-0.50675985
947,2372330,368630,0.964,0.224,0.206,-5.8,6.1,-8.8,-11.1,-36.8,0,0.595446638,-0.304300058,-0.54380932,-0.507003998
948,2374579,368640,0.967,0.22,0.202,-5.8,6.1,-8.8,-11.1,-36.8,0,0.595385601,-0.304208502,-0.543717765,-0.507217627
949,2377026,368640,0.964,0.22,0.206,-5.8,6.1,-8.8,-11.1,-36.8,0,0.595324564,-0.304086428,-0.543626209,-0.507461776
950,2378505,368640,0.964,0.22,0.206,-5.9,6.2,-8.8,-10.6,-36.9,-0.2,0.595263527,-0.303994873,-0.543565172,-0.507675405
951,2382330,368640,0.964,0.22,0.206,-5.9,6.3,-8.7,-10.6,-36.9,-0.2,0.59520249,-0.303903317,-0.543473617,-0.507919553
952,2383965,368650,0.964,0.213,0.202,-6,6.5,-8.8,-10.6,-36.9,-0.2,0.595141453,-0.303811762,-0.543351543,-0.508133183
953,2386074,368650,0.952,0.213,0.198,-6.1,6.8,-8.9,-10.6,-36.9,-0.2,0.595080416,-0.303689688,-0.543259987,-0.508377331
954,2388387,368650,0.964,0.213,0.198,-6.2,7,-8.9,-10.8,-36.4,0,0.594622639,-0.30344554,-0.543656728,-0.508651997
955,2392280,368650,0.964,0.213,0.198,-6.2,7,-8.9,-10.8,-36.4,0,0.594561602,-0.303353984,-0.543565172,-0.508865627
956,2394514,368660,0.96,0.213,0.198,-6.2,6.8,-8.9,-10.8,-36.4,0,0.594500565,-0.303262429,-0.543443098,-0.509109775
957,2396838,368660,0.96,0.209,0.198,-6.1,6.8,-8.8,-10.8,-36.4,0,0.594439528,-0.303140355,-0.543351543,-0.509353923
958,2398967,368660,0.96,0.205,0.198,-5.9,6.8,-8.7,-11.1,-36.4,0.1,0.594378491,-0.303048799,-0.543259987,-0.509567553
959,2401102,368660,0.956,0.213,0.198,-5.8,6.8,-8.6,-11.1,-36.4,0.1,0.594347972,-0.302957244,-0.543168432,-0.509811701
960,2403390,368670,0.956,0.213,0.198,-5.8,6.8,-8.6,-11.1,-36.4,0.1,0.594347972,-0.302957244,-0.543168432,-0.509811701
961,2407366,368670,0.952,0.213,0.198,-5.6,6.5,-8.2,-11.1,-36.4,0.1,0.594225898,-0.302743614,-0.542985321,-0.51023896
962,2409616,368670,0.952,0.209,0.202,-5.6,6.3,-8,-12.7,-36.6,0.3,0.594195379,-0.302652058,-0.542893765,-0.510452589
963,2412054,368670,0.944,0.209,0.198,-5.6,6.2,-7.8,-12.7,-36.6,0.3,0.594134342,-0.302560503,-0.54280221,-0.510666219
964,2414192,368680,0.948,0.209,0.198,-5.6,6,-7.7,-12.7,-36.6,0.3,0.594073305,-0.302468947,-0.542710654,-0.510879849
965,2416001,368680,0.944,0.209,0.206,-5.7,6,-7.5,-12.7,-36.6,0.3,0.594042787,-0.30240791,-0.542619098,-0.511093478
966,2420045,368680,0.94,0.209,0.202,-5.6,6,-7.4,-10.5,-36.6,0.4,0.59398175,-0.302316355,-0.542527543,-0.511276589
967,2421843,368680,0.94,0.217,0.203,-5.5,5.8,-7.4,-10.5,-36.6,0.4,0.593920713,-0.302224799,-0.542435987,-0.511490219
968,2424179,368690,0.936,0.213,0.203,-5.3,5.7,-7.1,-10.5,-36.6,0.4,0.593890194,-0.302163762,-0.542344432,-0.51167333
969,2426091,368690,0.936,0.217,0.203,-5.2,5.4,-7,-10.5,-36.6,0.4,0.593829157,-0.302072207,-0.542252876,-0.511856441
970,2428475,368690,0.936,0.221,0.207,-5.1,5.3,-6.9,-10.6,-36.7,0.3,0.593798639,-0.30201117,-0.542191839,-0.512039552
971,2432399,368690,0.936,0.217,0.203,-5,5.2,-6.8,-10.6,-36.7,0.3,0.593737602,-0.301919614,-0.542100284,-0.512222663
972,2434566,368700,0.936,0.217,0.207,-4.7,5,-6.7,-10.6,-36.7,0.3,0.593676565,-0.301858577,-0.542039247,-0.512405774
973,2436848,368700,0.932,0.221,0.207,-4.4,5,-6.7,-10.6,-36.7,0.3,0.593646046,-0.301767022,-0.541947691,-0.512588885
974,2439166,368700,0.932,0.225,0.199,-3.8,5.1,-6.5,-10.3,-36.5,0,0.593432417,-0.301614429,-0.542100284,-0.512771996
975,2442435,368700,0.932,0.229,0.207,-3.8,5.1,-6.5,-10.3,-36.5,0,0.593401898,-0.301522874,-0.542039247,-0.512924589
976,2444917,368710,0.936,0.225,0.211,-3.5,4.9,-6.1,-10.3,-36.5,0,0.59337138,-0.301431318,-0.54197821,-0.513077181
977,2447120,368710,0.936,0.225,0.211,-3.2,4.6,-6,-10.3,-36.5,0,0.593340861,-0.301370281,-0.541917173,-0.513229774
978,2449306,368710,0.936,0.232,0.215,-3,4.3,-5.9,-10.7,-36.5,0.1,0.593279824,-0.301248207,-0.541856136,-0.513382366
979,2451463,368710,0.94,0.232,0.214,-2.8,4,-5.8,-10.7,-36.5,0.1,0.593249306,-0.301217689,-0.541825617,-0.51350444
980,2453517,368720,0.94,0.232,0.214,-2.8,4,-5.8,-10.7,-36.5,0.1,0.593249306,-0.301217689,-0.541825617,-0.51350444
981,2457279,368720,0.936,0.232,0.218,-2.2,3.9,-5.5,-10.7,-36.5,0.1,0.593188269,-0.301034577,-0.541734062,-0.513779107
982,2459603,368720,0.94,0.236,0.215,-1.9,3.7,-5.4,-12.5,-36.7,0.2,0.59315775,-0.30097354,-0.541703543,-0.513901181
983,2461716,368720,0.936,0.24,0.215,-1.8,3.5,-5.3,-12.5,-36.7,0.2,0.593127232,-0.300881985,-0.541673025,-0.513992737
984,2464285,368730,0.94,0.24,0.219,-1.6,3.4,-5.2,-12.5,-36.7,0.2,0.593096713,-0.300790429,-0.541642506,-0.514114811
985,2466501,368730,0.944,0.244,0.222,-1.4,3.2,-5,-12.5,-36.7,0.2,0.593066195,-0.300729392,-0.541611988,-0.514206366
986,2468474,368730,0.94,0.244,0.219,-1.2,3.1,-4.7,-10.6,-36.6,0.1,0.593035676,-0.300637837,-0.541581469,-0.51432844
987,2470840,368730,0.94,0.244,0.219,-1.1,3,-4.5,-10.6,-36.6,0.1,0.593035676,-0.3005768,-0.541581469,-0.514419996
988,2474662,368740,0.94,0.248,0.223,-1,2.9,-4.3,-10.6,-36.6,0.1,0.593005158,-0.300515763,-0.541550951,-0.514511551
989,2476928,368740,0.944,0.248,0.226,-0.9,2.7,-4.2,-10.6,-36.6,0.1,0.592974639,-0.300424207,-0.541520432,-0.514572588
990,2479188,368740,0.94,0.244,0.226,-0.8,2.6,-4.2,-10.7,-36.7,-0.1,0.592974639,-0.30036317,-0.541520432,-0.514664144
991,2481389,368740,0.944,0.248,0.23,-0.8,2.6,-4.1,-10.7,-36.7,-0.1,0.592944121,-0.300302133,-0.541489914,-0.514755699
992,2483376,368750,0.948,0.244,0.222,-0.7,2.6,-4,-10.7,-36.7,-0.1,0.592913602,-0.300241096,-0.541489914,-0.514816736
993,2487049,368750,0.944,0.24,0.23,-0.5,2.6,-3.9,-10.7,-36.7,-0.1,0.592913602,-0.300180059,-0.541459395,-0.514908292
994,2489286,368750,0.948,0.244,0.23,-0.1,2.2,-3.8,-10.6,-36.6,0,0.592669454,-0.299783319,-0.541673025,-0.51515244
995,2491539,368750,0.948,0.244,0.23,-0.1,2.2,-3.8,-10.6,-36.6,0,0.592638936,-0.299722282,-0.541673025,-0.515243995
996,2493590,368760,0.952,0.24,0.234,0,2.1,-3.8,-10.6,-36.6,0,0.592638936,-0.299661245,-0.541673025,-0.515305033
997,2495838,368760,0.952,0.236,0.234,0,2,-3.9,-10.6,-36.6,0,0.592608417,-0.299600208,-0.541673025,-0.51536607
998,2499021,368760,0.956,0.236,0.23,0,1.9,-3.8,-10.9,-37,0.1,0.592608417,-0.299508652,-0.541673025,-0.515427107
999,2502054,368760,0.956,0.228,0.23,0,1.9,-3.6,-10.9,-37,0.1,0.592577898,-0.299447615,-0.541673025,-0.515488144
1000,2504431,368770,0.956,0.228,0.23,0,1.9,-3.6,-10.9,-37,0.1,0.592577898,-0.299447615,-0.541673025,-0.515488144
1001,2505846,368770,0.952,0.232,0.222,-0.4,1.9,-3.2,-10.9,-37,0.1,0.59254738,-0.299295022,-0.541642506,-0.515610218
1002,2508959,368770,0.952,0.228,0.226,-0.7,1.8,-3.1,-12,-36.8,0,0.592516861,-0.299295022,-0.541642506,-0.515671255
1003,2512018,368770,0.956,0.22,0.226,-0.9,1.9,-3.1,-12,-36.8,0,0.592516861,-0.299233985,-0.541611988,-0.515732292
1004,2513330,368780,0.96,0.22,0.226,-1.1,1.8,-3.1,-12,-36.8,0,0.592486343,-0.299203467,-0.541611988,-0.515793329
1005,2516519,368780,0.952,0.22,0.222,-1.4,1.8,-3,-12,-36.8,0,0.592455824,-0.299172948,-0.541581469,-0.515854366
1006,2519515,368780,0.956,0.216,0.222,-1.6,1.9,-3,-10.7,-36.6,0,0.592455824,-0.299111911,-0.541550951,-0.515945921
1007,2520830,368780,0.956,0.212,0.218,-2.1,2,-3.1,-10.7,-36.6,0,0.592425306,-0.299081393,-0.541520432,-0.516006958
1008,2524046,368790,0.956,0.216,0.214,-2.6,2.1,-3,-10.7,-36.6,0,0.592394787,-0.299050874,-0.541489914,-0.516098514
1009,2526886,368790,0.956,0.212,0.218,-3,2,-3.1,-10.7,-36.6,0,0.592364269,-0.299050874,-0.541459395,-0.516190069
1010,2529074,368790,0.96,0.205,0.218,-3.6,1.9,-3.1,-11.1,-36.8,0.1,0.59233375,-0.299020356,-0.541398358,-0.516281625
1011,2531336,368790,0.956,0.201,0.214,-4.1,1.7,-3.1,-11.1,-36.8,0.1,0.592272713,-0.299020356,-0.54136784,-0.51637318
1012,2534901,368800,0.956,0.201,0.214,-4.8,1.6,-3.2,-11.1,-36.8,0.1,0.592242195,-0.299050874,-0.541306803,-0.516495254
1013,2537055,368800,0.956,0.197,0.214,-5.3,1.5,-3.3,-11.1,-36.8,0.1,0.592181158,-0.299050874,-0.541245766,-0.51658681
1014,2539382,368800,0.948,0.201,0.21,-6,1.3,-3.4,-10.9,-36.6,-0.1,0.591998047,-0.299295022,-0.541398358,-0.516525773
1015,2541557,368800,0.948,0.197,0.21,-6,1.3,-3.4,-10.9,-36.6,-0.1,0.59193701,-0.299295022,-0.541337321,-0.516647847
