sample_index,elapsed_us,device_time_ms,acc_x_g,acc_y_g,acc_z_g,gyro_x_dps,gyro_y_dps,gyro_z_dps,mag_x_ut,mag_y_ut,mag_z_ut,quat_w,quat_x,quat_y,quat_z
0,2514,555260,0.868,-0.211,0.383,-45.4,3,-46.4,0.6,27.6,-18.2,0.0744651631,0.525162511,-0.179509873,0.828485977
1,5351,555270,0.876,-0.203,0.379,-45.4,3,-46.4,0.6,27.6,-18.2,0.075838496,0.52519303,-0.179784539,0.828272347
2,7587,555270,0.884,-0.199,0.379,-42.3,1.4,-46.6,0.6,27.6,-18.2,0.077150792,0.525284585,-0.180028687,0.828058718
3,9883,555270,0.884,-0.199,0.379,-42.3,1.4,-46.6,0.6,27.6,-18.2,0.077150792,0.525284585,-0.180028687,0.828058718
4,13659,555270,0.896,-0.188,0.371,-32.6,0.2,-44.4,0.7,28.4,-16.3,0.0795922727,0.525528733,-0.180211798,0.827631458
5,15031,555280,0.896,-0.176,0.375,-29.3,0.1,-42.5,0.7,28.4,-16.3,0.0806604205,0.525620289,-0.180272835,0.827448347
6,18230,555280,0.892,-0.18,0.371,-29.3,0.1,-42.5,0.7,28.4,-16.3,0.0817896054,0.525742363,-0.180303354,0.827265236
7,20274,555280,0.892,-0.18,0.371,-29.3,0.1,-42.5,0.7,28.4,-16.3,0.0817896054,0.525742363,-0.180303354,0.827265236
8,22543,555280,0.884,-0.18,0.352,-23.9,-0.5,-37.8,0.3,27.7,-18.4,0.0827356792,0.525864437,-0.180303354,0.827082125
9,25736,555290,0.864,-0.172,0.34,-20.5,-2.9,-33.5,0.3,27.7,-18.4,0.0844752342,0.526139103,-0.180272835,0.826746422
10,27783,555290,0.872,-0.168,0.336,-20.5,-2.9,-33.5,0.3,27.7,-18.4,0.085299234,0.526291696,-0.180272835,0.826563311
11,30006,555290,0.872,-0.168,0.336,-20.5,-2.9,-33.5,0.3,27.7,-18.4,0.085299234,0.526291696,-0.180272835,0.826563311
12,33362,555290,0.86,-0.152,0.317,-18.1,-7.7,-30.6,0.2,27.2,-17.9,0.0860316782,0.526505325,-0.180272835,0.826349681
13,35143,555300,0.872,-0.125,0.305,-16.4,-15.8,-28.9,0.2,27.2,-17.9,0.0873744926,0.527146214,-0.180242317,0.825800348
14,38589,555300,0.884,-0.114,0.301,-16,-21.2,-29,0.2,27.2,-17.9,0.0879848628,0.52763451,-0.180242317,0.825434126
15,40075,555300,0.884,-0.114,0.301,-16,-21.2,-29,0.2,27.2,-17.9,0.0879848628,0.52763451,-0.180242317,0.825434126
16,42694,555300,0.884,-0.114,0.301,-16,-21.2,-29,0.2,27.2,-17.9,0.0879848628,0.52763451,-0.180242317,0.825434126
17,46137,555310,0.931,-0.122,0.335,-17.1,-31.7,-32.3,0.1,27.1,-18.2,0.0889309366,0.528763695,-0.179906613,0.824671163
18,48505,555310,0.919,-0.114,0.386,-18.1,-35,-35.2,0.1,27.1,-18.2,0.0896328623,0.529496139,-0.179876095,0.82412183
19,50070,555310,0.927,-0.13,0.39,-18.8,-36.2,-38.1,0.1,27.1,-18.2,0.0903958251,0.530289621,-0.179845576,0.823541978
20,52599,555310,0.927,-0.149,0.398,-19.8,-35.7,-39.9,0.1,27.1,-18.2,0.0912198248,0.531022065,-0.179815058,0.822992645
21,55982,555320,0.931,-0.184,0.394,-21.3,-34,-40.7,-0.2,27.4,-18.2,0.0920438246,0.531754509,-0.179784539,0.822412793
22,57583,555320,0.923,-0.196,0.386,-23.5,-31.7,-40.7,-0.2,27.4,-18.2,0.0929288614,0.532456435,-0.179815058,0.82186346
23,61407,555320,0.919,-0.204,0.374,-25.9,-28.9,-40.4,-0.2,27.4,-18.2,0.0938444166,0.533066805,-0.179876095,0.821344646
24,64050,555320,0.915,-0.208,0.359,-28.2,-26.1,-39.6,-0.2,27.4,-18.2,0.0947904904,0.533646657,-0.17996765,0.820856349
25,65633,555330,0.907,-0.223,0.34,-32.1,-21.9,-36.9,-0.1,29.3,-16.2,0.0957365642,0.534104434,-0.180150761,0.820398572
26,69048,555330,0.895,-0.223,0.336,-32.1,-21.9,-36.9,-0.1,29.3,-16.2,0.096682638,0.53459273,-0.180333872,0.819940794
27,70687,555330,0.888,-0.219,0.332,-33.8,-21,-35.4,-0.1,29.3,-16.2,0.0976287118,0.53501999,-0.180578021,0.819483016
28,72505,555330,0.88,-0.219,0.324,-35.1,-21.1,-34.1,-0.1,29.3,-16.2,0.0985747856,0.535477767,-0.180852687,0.819025239
29,75410,555340,0.876,-0.215,0.328,-35.8,-23,-31.7,-0.3,28.4,-17.5,0.0994598224,0.535935545,-0.181188391,0.818536943
30,78911,555340,0.872,-0.211,0.336,-35.2,-24.3,-30.4,-0.3,28.4,-17.5,0.100314341,0.536393323,-0.181493576,0.818048647
31,81505,555340,0.872,-0.211,0.336,-35.2,-24.3,-30.4,-0.3,28.4,-17.5,0.101168859,0.536881619,-0.181829279,0.81756035
32,83062,555340,0.868,-0.207,0.344,-34,-25.7,-29.1,-0.3,28.4,-17.5,0.101992859,0.537369915,-0.182134465,0.817072054
33,84962,555350,0.868,-0.207,0.344,-34,-25.7,-29.1,-0.3,28.4,-17.5,0.101992859,0.537369915,-0.182134465,0.817072054
34,88585,555350,0.88,-0.207,0.36,-28.4,-29.7,-25.4,-0.4,28.6,-17.8,0.10339671,0.5384991,-0.182714316,0.816034425
35,91236,555350,0.884,-0.203,0.379,-28.4,-29.7,-25.4,-0.4,28.6,-17.8,0.104068117,0.539048433,-0.182988983,0.81551561
36,93153,555350,0.884,-0.199,0.375,-26.5,-30.9,-24.4,-0.4,28.6,-17.8,0.104678488,0.539658803,-0.183233131,0.814966277
37,95265,555360,0.884,-0.199,0.375,-26.5,-30.9,-24.4,-0.4,28.6,-17.8,0.104678488,0.539658803,-0.183233131,0.814966277
38,97559,555360,0.884,-0.199,0.375,-26.5,-30.9,-24.4,-0.4,28.6,-17.8,0.104678488,0.539658803,-0.183233131,0.814966277
39,100790,555360,0.892,-0.199,0.371,-22.6,-32.5,-21.5,-0.7,29.2,-17.3,0.105136265,0.540116581,-0.183507797,0.814539018
40,102934,555360,0.899,-0.2,0.359,-22.2,-31.9,-19.7,-0.7,29.2,-17.3,0.106143376,0.541337321,-0.183965575,0.81347087
41,106202,555370,0.903,-0.188,0.355,-22.4,-31.6,-19.1,-0.7,29.2,-17.3,0.106601154,0.541917173,-0.184209723,0.813013092
42,108897,555370,0.903,-0.188,0.355,-22.4,-31.6,-19.1,-0.7,29.2,-17.3,0.106601154,0.541917173,-0.184209723,0.813013092
43,110654,555370,0.907,-0.196,0.336,-22.9,-31.2,-18.4,-0.9,29,-16.5,0.10708945,0.542497024,-0.18448439,0.812494278
44,113870,555370,0.907,-0.196,0.332,-23.3,-30.9,-17.7,-0.9,29,-16.5,0.107516709,0.543046358,-0.184759056,0.812005982
45,115236,555380,0.903,-0.204,0.316,-23.8,-30.8,-16.1,-0.9,29,-16.5,0.108462783,0.544175542,-0.185369427,0.810998871
46,118827,555380,0.903,-0.204,0.316,-23.8,-30.8,-16.1,-0.9,29,-16.5,0.108462783,0.544175542,-0.185369427,0.810998871
47,121006,555380,0.903,-0.212,0.316,-23.7,-31.1,-15.3,-0.7,29,-17,0.108890042,0.544724876,-0.185674612,0.810480056
48,122721,555380,0.899,-0.208,0.32,-23.2,-31.7,-14.5,-0.7,29,-17,0.109286782,0.545304727,-0.185979797,0.80999176
49,126668,555390,0.899,-0.212,0.32,-22.5,-32.3,-13.7,-0.7,29,-17,0.109653005,0.54585406,-0.186284982,0.809472945
50,128451,555390,0.899,-0.215,0.32,-21.5,-32.9,-12.9,-0.7,29,-17,0.110019227,0.546464431,-0.186590167,0.808954131
51,130406,555390,0.899,-0.212,0.328,-20.3,-33.6,-12,-0.6,29.1,-16.1,0.110324412,0.547044282,-0.186895352,0.808435316
52,132621,555390,0.899,-0.215,0.336,-18.9,-34.5,-11,-0.6,29.1,-16.1,0.110599078,0.547654653,-0.187170019,0.80794702
53,135864,555400,0.903,-0.215,0.336,-17.6,-35.1,-10.1,-0.6,29.1,-16.1,0.110873745,0.548265023,-0.187444685,0.807428205
54,139117,555400,0.899,-0.208,0.34,-16.4,-35.5,-9.3,-0.6,29.1,-16.1,0.111087374,0.548905911,-0.187719352,0.806909391
55,141277,555400,0.907,-0.208,0.339,-14.4,-35.3,-8,-1.1,29.2,-16.7,0.111239967,0.549516282,-0.1879635,0.806390576
56,142728,555400,0.915,-0.204,0.343,-14.4,-35.3,-8,-1.1,29.2,-16.7,0.111423078,0.550126652,-0.188207648,0.80590228
57,146141,555410,0.915,-0.204,0.347,-13.8,-34.8,-7.6,-1.1,29.2,-16.7,0.111575671,0.550737022,-0.188451796,0.805413984
58,148396,555410,0.923,-0.2,0.343,-13.2,-34.3,-7.1,-1.1,29.2,-16.7,0.111728263,0.551347392,-0.188665426,0.804925687
59,150330,555410,0.923,-0.2,0.343,-13.2,-34.3,-7.1,-1.1,29.2,-16.7,0.111728263,0.551347392,-0.188665426,0.804925687
60,152883,555410,0.923,-0.2,0.343,-13.2,-34.3,-7.1,-1.1,29.2,-16.7,0.111728263,0.551347392,-0.188665426,0.804925687
61,154968,555420,0.935,-0.204,0.343,-10.9,-31.8,-5.5,-1.5,29.1,-16.4,0.111758782,0.552110355,-0.189275796,0.80425428
62,157579,555420,0.935,-0.208,0.347,-10.5,-31,-4.9,-1.5,29.1,-16.4,0.111819819,0.552659688,-0.189458907,0.803827021
63,160808,555420,0.935,-0.208,0.347,-10.5,-31,-4.9,-1.5,29.1,-16.4,0.111911374,0.553178503,-0.189672536,0.803399762
64,162937,555420,0.935,-0.208,0.347,-10.5,-31,-4.9,-1.5,29.1,-16.4,0.111911374,0.553178503,-0.189672536,0.803399762
65,165095,555430,0.942,-0.2,0.351,-9.5,-29.7,-4,-1,28.4,-16.3,0.111972411,0.553697317,-0.189855647,0.802972503
66,169099,555430,0.942,-0.208,0.343,-8.3,-28.9,-3.2,-1,28.4,-16.3,0.112063967,0.554704428,-0.19022187,0.802179022
67,171473,555430,0.938,-0.208,0.343,-7.6,-28.3,-2.6,-1,28.4,-16.3,0.112094485,0.555192724,-0.190374462,0.801812799
68,173750,555430,0.938,-0.208,0.343,-7.6,-28.3,-2.6,-1,28.4,-16.3,0.112094485,0.555192724,-0.190374462,0.801812799
69,176060,555440,0.938,-0.208,0.343,-7.1,-27.5,-2,-2.2,30,-16.4,0.112094485,0.555650502,-0.190557573,0.801446577
70,177862,555440,0.938,-0.212,0.339,-6.7,-26.7,-1.4,-2.2,30,-16.4,0.112094485,0.556138798,-0.190710166,0.801080355
71,180106,555440,0.938,-0.212,0.339,-6.5,-25.9,-0.5,-2.2,30,-16.4,0.112063967,0.557023835,-0.191076388,0.80037843
72,183576,555440,0.938,-0.212,0.339,-6.5,-25.9,-0.5,-2.2,30,-16.4,0.112063967,0.557023835,-0.191076388,0.80037843
73,185209,555450,0.938,-0.208,0.335,-6.6,-25.6,0,-2.5,30,-16.6,0.112033448,0.557451094,-0.19122898,0.800042726
74,187614,555450,0.934,-0.204,0.335,-6.6,-25.3,0.6,-2.5,30,-16.6,0.11200293,0.557878353,-0.191412091,0.799707022
75,192183,555450,0.938,-0.212,0.335,-6.6,-25,1,-2.5,30,-16.6,0.111972411,0.558275094,-0.191625721,0.799371319
76,192463,555450,0.938,-0.212,0.339,-6.5,-24.6,1.4,-2.5,30,-16.6,0.111911374,0.558702353,-0.191808832,0.799066134
77,196402,555460,0.938,-0.204,0.339,-6.2,-24.4,1.8,-2.6,29.8,-16.5,0.111850337,0.559099094,-0.191991943,0.79873043
78,198256,555460,0.934,-0.204,0.335,-5.8,-24.2,2.3,-2.6,29.8,-16.5,0.1117893,0.559495834,-0.192175054,0.798425245
79,200193,555460,0.938,-0.2,0.331,-5.4,-24,2.8,-2.6,29.8,-16.5,0.111697745,0.559892575,-0.192388684,0.79812006
80,202622,555460,0.934,-0.204,0.335,-4.9,-23.8,3.4,-2.6,29.8,-16.5,0.111606189,0.560289315,-0.192571795,0.797814875
81,204895,555470,0.934,-0.204,0.335,-4.9,-23.8,3.4,-2.6,29.8,-16.5,0.111606189,0.560289315,-0.192571795,0.797814875
82,207456,555470,0.934,-0.204,0.327,-2.9,-22.9,4.4,-3.2,30.1,-16.7,0.111362041,0.560228278,-0.192785424,0.797814875
83,211599,555470,0.938,-0.2,0.327,-2.9,-22.9,4.4,-3.2,30.1,-16.7,0.111209449,0.560625019,-0.192968535,0.797540208
84,213651,555470,0.938,-0.204,0.331,-2,-22.5,4.7,-3.2,30.1,-16.7,0.111056856,0.560991241,-0.193121128,0.797265542
85,216031,555480,0.938,-0.2,0.331,-1.2,-22.3,5,-3.2,30.1,-16.7,0.110904263,0.561357463,-0.193243202,0.796990875
86,218139,555480,0.938,-0.208,0.327,0.1,-21.7,5.7,-3.2,29.7,-16.5,0.110690634,0.561693167,-0.193365276,0.796746727
87,220078,555480,0.938,-0.204,0.327,0.7,-21.5,5.9,-3.2,29.7,-16.5,0.110507523,0.562059389,-0.19348735,0.796502579
88,224083,555480,0.938,-0.208,0.319,0.7,-21.5,5.9,-3.2,29.7,-16.5,0.110293893,0.562395093,-0.193578906,0.796258431
89,225908,555490,0.938,-0.204,0.323,1.2,-21.4,6.1,-3.2,29.7,-16.5,0.110080264,0.562761315,-0.19370098,0.796014283
90,227612,555490,0.938,-0.204,0.323,1.2,-21.4,6.1,-3.2,29.7,-16.5,0.110080264,0.562761315,-0.19370098,0.796014283
91,231672,555490,0.946,-0.205,0.319,2,-20.6,6.9,-3,30,-16.5,0.109622486,0.563432722,-0.193884091,0.795525987
92,233747,555490,0.946,-0.205,0.323,2.3,-20.1,7.1,-3,30,-16.5,0.109378338,0.563768426,-0.194006165,0.795312357
93,235276,555500,0.946,-0.205,0.323,2.3,-20.1,7.1,-3,30,-16.5,0.10913419,0.564073611,-0.19409772,0.795098727
94,240063,555500,0.946,-0.205,0.323,2.3,-20.1,7.1,-3,30,-16.5,0.10913419,0.564073611,-0.19409772,0.795098727
95,240063,555500,0.946,-0.201,0.315,3.1,-19.6,7.7,-2.9,29.9,-16.3,0.108890042,0.564409314,-0.194158757,0.794885098
96,242429,555500,0.946,-0.201,0.315,3.9,-19.3,8.1,-2.9,29.9,-16.3,0.108340709,0.565019684,-0.194341868,0.794488357
97,246444,555510,0.95,-0.197,0.323,3.9,-19.3,8.1,-2.9,29.9,-16.3,0.108066042,0.56532487,-0.194402905,0.794274728
98,248751,555510,0.95,-0.197,0.323,3.9,-19.3,8.1,-2.9,29.9,-16.3,0.108066042,0.56532487,-0.194402905,0.794274728
99,250669,555510,0.95,-0.193,0.323,4.7,-18.7,8.6,-2.5,29.8,-16.5,0.107791375,0.565630055,-0.194463942,0.794091617
100,253959,555510,0.95,-0.189,0.323,5.5,-17.9,8.7,-2.5,29.8,-16.5,0.107211524,0.566209906,-0.194555498,0.793725394
101,256120,555520,0.95,-0.189,0.327,5.8,-17.4,8.8,-2.5,29.8,-16.5,0.106906339,0.566484573,-0.194647053,0.793542283
102,258305,555520,0.95,-0.189,0.327,5.8,-17.4,8.8,-2.5,29.8,-16.5,0.106906339,0.566484573,-0.194647053,0.793542283
103,259956,555520,0.95,-0.189,0.327,5.8,-17.4,8.8,-2.5,29.8,-16.5,0.106906339,0.566484573,-0.194647053,0.793542283
104,263558,555520,0.954,-0.185,0.311,6.5,-16.2,8.9,-1.9,29.1,-16.3,0.106662191,0.566148869,-0.194463942,0.793877987
105,265342,555530,0.95,-0.181,0.319,6.8,-15.5,8.9,-1.9,29.1,-16.3,0.106357006,0.566393017,-0.194494461,0.793725394
106,267614,555530,0.95,-0.185,0.311,7.1,-14.8,8.8,-1.9,29.1,-16.3,0.10605182,0.566637165,-0.194524979,0.79360332
107,271861,555530,0.95,-0.181,0.307,7.2,-14,8.7,-1.9,29.1,-16.3,0.105746635,0.566850795,-0.194524979,0.793481246
108,273912,555530,0.962,-0.181,0.307,7.3,-13.2,8.7,-2.4,29.4,-16.6,0.105471969,0.567064425,-0.194524979,0.793359172
109,276460,555540,0.958,-0.181,0.307,7.2,-12.4,8.7,-2.4,29.4,-16.6,0.105166784,0.567247536,-0.194555498,0.793267617
110,279210,555540,0.95,-0.181,0.311,7.1,-11.8,8.5,-2.4,29.4,-16.6,0.104892117,0.567430647,-0.194555498,0.793176061
111,281088,555540,0.95,-0.181,0.319,6.9,-11.2,8.4,-2.4,29.4,-16.6,0.104586932,0.567613758,-0.194555498,0.793084506
112,283561,555540,0.954,-0.181,0.315,6.6,-10.6,8,-1.6,28.9,-16.4,0.104342784,0.56776635,-0.194555498,0.79299295
113,285242,555550,0.958,-0.181,0.311,6.3,-10.1,7.9,-1.6,28.9,-16.4,0.104068117,0.567949461,-0.194555498,0.792901395
114,287622,555550,0.95,-0.181,0.315,6,-9.6,7.7,-1.6,28.9,-16.4,0.103823969,0.568071535,-0.194555498,0.792840358
115,292047,555550,0.95,-0.177,0.315,5.6,-9.3,7.6,-1.6,28.9,-16.4,0.103579821,0.568224128,-0.194616535,0.792748802
116,293991,555550,0.95,-0.173,0.319,5,-8.4,7.3,-1.8,28.9,-16.1,0.103366192,0.568346202,-0.194647053,0.792687765
117,296095,555560,0.95,-0.177,0.315,5,-8.4,7.3,-1.8,28.9,-16.1,0.103122044,0.568468276,-0.194677572,0.792626728
118,298520,555560,0.946,-0.173,0.319,4.7,-7.9,7.2,-1.8,28.9,-16.1,0.102908414,0.56859035,-0.194677572,0.792565691
119,300377,555560,0.946,-0.169,0.319,4.3,-7.4,7,-1.8,28.9,-16.1,0.102694784,0.568712424,-0.19470809,0.792504654
120,303630,555560,0.942,-0.169,0.315,3.7,-6.3,6.5,-2,29.5,-16.3,0.102511673,0.56880398,-0.194738609,0.792443617
121,305115,555570,0.946,-0.169,0.319,3.7,-6.3,6.5,-2,29.5,-16.3,0.102328562,0.568895535,-0.194769127,0.792413099
122,308361,555570,0.946,-0.173,0.319,3.5,-5.6,6.5,-2,29.5,-16.3,0.102145451,0.568956572,-0.194799646,0.792352062
123,311348,555570,0.946,-0.165,0.315,3.3,-5.1,6.4,-2,29.5,-16.3,0.10196234,0.569048128,-0.194860683,0.792321543
124,313942,555570,0.946,-0.165,0.315,3.3,-5.1,6.4,-2,29.5,-16.3,0.10196234,0.569048128,-0.194860683,0.792321543
125,316132,555580,0.946,-0.165,0.315,3.3,-5.1,6.4,-2,29.5,-16.3,0.10196234,0.569048128,-0.194860683,0.792321543
126,318292,555580,0.95,-0.166,0.319,3.5,-3.1,5.8,-2.7,29,-16.5,0.102145451,0.568620869,-0.194280831,0.792748802
127,320269,555580,0.95,-0.162,0.319,3.7,-2.2,5.6,-2.7,29,-16.5,0.101870785,0.568651387,-0.19431135,0.792748802
128,322485,555580,0.954,-0.162,0.315,3.7,-2.2,5.6,-2.7,29,-16.5,0.101718192,0.568681906,-0.19431135,0.792748802
129,324998,555590,0.954,-0.162,0.315,3.7,-2.2,5.6,-2.7,29,-16.5,0.101718192,0.568681906,-0.19431135,0.792748802
130,329615,555590,0.95,-0.158,0.307,3.5,-1.1,5.2,-1.5,29.1,-16.4,0.1015656,0.568681906,-0.19431135,0.792748802
131,329994,555590,0.95,-0.162,0.319,3.5,-0.5,5.1,-1.5,29.1,-16.4,0.101443525,0.568681906,-0.194341868,0.792779321
132,332542,555590,0.954,-0.154,0.307,3.4,0.4,4.6,-1.5,29.1,-16.4,0.101168859,0.568651387,-0.194341868,0.792840358
133,334895,555600,0.954,-0.154,0.307,3.4,0.4,4.6,-1.5,29.1,-16.4,0.101168859,0.568651387,-0.194341868,0.792840358
134,339307,555600,0.95,-0.162,0.311,3.4,0.8,4.4,-1.5,29.1,-16.3,0.101077303,0.568620869,-0.19431135,0.792870876
135,341409,555600,0.954,-0.158,0.311,3.4,1.1,4.2,-1.5,29.1,-16.3,0.100955229,0.56859035,-0.19431135,0.792901395
136,343740,555600,0.954,-0.15,0.311,3.6,1.4,4.2,-1.5,29.1,-16.3,0.1007416,0.568529313,-0.194280831,0.79299295
137,345758,555610,0.954,-0.15,0.311,3.6,1.4,4.2,-1.5,29.1,-16.3,0.1007416,0.568529313,-0.194280831,0.79299295
138,348973,555610,0.95,-0.154,0.307,3.8,1.5,4.1,-1.4,29.4,-16.2,0.100619526,0.568498795,-0.194280831,0.793023469
139,351267,555610,0.946,-0.154,0.307,3.9,1.6,4,-1.4,29.4,-16.2,0.100497452,0.568468276,-0.194250313,0.793084506
140,353247,555610,0.95,-0.15,0.307,4.1,2.1,3.8,-1.4,29.4,-16.2,0.100283822,0.56837672,-0.194189276,0.793176061
141,356342,555620,0.95,-0.15,0.307,4.1,2.1,3.8,-1.4,29.4,-16.2,0.100283822,0.56837672,-0.194189276,0.793176061
142,357651,555620,0.946,-0.146,0.307,4.1,2.4,3.6,-1.4,29.4,-16.2,0.100192267,0.568315683,-0.194158757,0.793237098
143,360836,555620,0.946,-0.146,0.303,4.1,2.5,3.4,-1.4,29.4,-16.2,0.100100711,0.568285165,-0.194128239,0.793298135
144,363368,555620,0.946,-0.142,0.299,4,2.6,3.3,-1.4,29.4,-16.2,0.099978637,0.568224128,-0.19409772,0.793359172
145,364951,555630,0.946,-0.142,0.296,3.9,2.8,3.1,-1.4,29.4,-16.2,0.0998870815,0.568163091,-0.194067202,0.793420209
146,367370,555630,0.946,-0.142,0.296,3.9,2.8,3.1,-1.4,29.4,-16.2,0.0998870815,0.568163091,-0.194067202,0.793420209
147,371578,555630,0.95,-0.146,0.299,3.7,3.6,3.1,-1.3,29,-15.9,0.100405896,0.568041017,-0.193182165,0.793664357
148,373161,555630,0.946,-0.142,0.288,3.7,3.9,3.2,-1.3,29,-15.9,0.100314341,0.567949461,-0.193151646,0.793725394
149,375072,555640,0.95,-0.142,0.292,3.8,4.2,3.1,-1.3,29,-15.9,0.100253304,0.567888424,-0.193121128,0.793786431
150,378184,555640,0.95,-0.138,0.292,3.9,4.4,3,-1.3,29,-15.9,0.100161748,0.567796869,-0.193060091,0.793877987
151,381955,555640,0.95,-0.142,0.288,4.2,4.6,2.8,-1.4,29.2,-16.2,0.100070193,0.567735832,-0.193029572,0.793939024
152,383447,555640,0.95,-0.134,0.288,4.2,4.6,2.8,-1.4,29.2,-16.2,0.100009156,0.567644276,-0.192968535,0.79403058
153,387083,555650,0.95,-0.142,0.292,4.2,4.6,2.7,-1.4,29.2,-16.2,0.0999176,0.567552721,-0.192938017,0.794122135
154,389507,555650,0.954,-0.138,0.295,4.2,4.7,2.5,-1.4,29.2,-16.2,0.0998260445,0.567461165,-0.19287698,0.794213691
155,389911,555650,0.954,-0.138,0.295,4.2,4.7,2.5,-1.4,29.2,-16.2,0.0998260445,0.567461165,-0.19287698,0.794213691
156,394387,555650,0.954,-0.138,0.299,3.4,5,2.6,-1.1,29.1,-16.5,0.0997039705,0.567278054,-0.192785424,0.794366283
157,396554,555660,0.954,-0.138,0.299,3.4,5,2.6,-1.1,29.1,-16.5,0.0996429334,0.567186499,-0.192754906,0.794457839
158,398811,555660,0.958,-0.134,0.303,3,5,2.7,-1.1,29.1,-16.5,0.0995818964,0.567094943,-0.192724387,0.794518876
159,401072,555660,0.958,-0.134,0.303,3,5,2.7,-1.1,29.1,-16.5,0.0995818964,0.567094943,-0.192724387,0.794518876
160,403050,555660,0.946,-0.138,0.299,1.2,5,2.8,-0.9,29.4,-15.7,0.0994903409,0.566911832,-0.192724387,0.794671468
161,405823,555670,0.95,-0.13,0.299,1.2,5,2.8,-0.9,29.4,-15.7,0.0994293039,0.566820276,-0.192724387,0.794763024
162,408559,555670,0.946,-0.13,0.299,0.6,5.3,3,-0.9,29.4,-15.7,0.0993987854,0.566728721,-0.192724387,0.794824061
163,409887,555670,0.946,-0.13,0.299,0.6,5.3,3,-0.9,29.4,-15.7,0.0993987854,0.566728721,-0.192724387,0.794824061
164,413076,555670,0.95,-0.134,0.307,-0.4,5.7,3.1,-1.9,29.1,-16.7,0.0993682669,0.566606647,-0.192785424,0.794915616
165,415854,555680,0.946,-0.127,0.296,-0.9,6,3,-1.9,29.1,-16.7,0.0993377483,0.566484573,-0.192815943,0.794976653
166,418591,555680,0.942,-0.134,0.3,-1.5,6.3,2.8,-1.9,29.1,-16.7,0.0993377483,0.566240425,-0.192907498,0.795129246
167,420814,555680,0.942,-0.134,0.3,-1.5,6.3,2.8,-1.9,29.1,-16.7,0.0993377483,0.566240425,-0.192907498,0.795129246
168,423689,555680,0.942,-0.134,0.3,-1.5,6.3,2.8,-1.9,29.1,-16.7,0.0993377483,0.566240425,-0.192907498,0.795129246
169,425944,555690,0.942,-0.138,0.3,-2,6.4,2.9,-1.5,29,-15.7,0.100161748,0.566179388,-0.191869869,0.795342875
170,428142,555690,0.934,-0.142,0.3,-2.1,6.5,3,-1.5,29,-15.7,0.100161748,0.566026795,-0.191930906,0.795403912
171,430216,555690,0.934,-0.138,0.3,-2.2,6.5,2.9,-1.5,29,-15.7,0.100161748,0.565904721,-0.191991943,0.795495468
172,432454,555690,0.931,-0.138,0.296,-2.3,6.6,2.8,-1.5,29,-15.7,0.100161748,0.565782647,-0.19205298,0.795587024
173,435657,555700,0.927,-0.142,0.288,-2.3,6.7,2.8,-1.5,29,-15.7,0.100161748,0.565630055,-0.192114017,0.795648061
174,437714,555700,0.923,-0.142,0.292,-2.4,6.7,2.8,-1.5,29,-15.7,0.100192267,0.565507981,-0.192175054,0.795739616
175,439992,555700,0.927,-0.146,0.288,-2.3,6.6,2.6,-1.5,29,-15.7,0.100192267,0.565355388,-0.192236091,0.795800653
176,443066,555700,0.927,-0.146,0.288,-2.2,6.4,2.6,-1.5,29,-15.7,0.100192267,0.565233314,-0.192297128,0.795892209
177,445829,555710,0.923,-0.146,0.284,-2,6,2.4,-1.6,29.1,-15.4,0.100192267,0.56511124,-0.192358165,0.795953246
178,448592,555710,0.919,-0.15,0.284,-1.9,5.7,2.3,-1.6,29.1,-15.4,0.100192267,0.565019684,-0.192388684,0.796014283
179,449945,555710,0.915,-0.149,0.288,-1.7,5.2,2.2,-1.6,29.1,-15.4,0.100192267,0.56489761,-0.192449721,0.79607532
180,453082,555710,0.919,-0.146,0.288,-1.5,4.8,2,-1.6,29.1,-15.4,0.100192267,0.564806055,-0.192480239,0.796136357
181,456101,555720,0.919,-0.146,0.288,-1.5,4.8,2,-1.6,29.1,-15.4,0.100192267,0.564806055,-0.192480239,0.796136357
182,457577,555720,0.919,-0.15,0.292,-0.8,3.4,1.8,-1.7,28.8,-15.1,0.100192267,0.564653462,-0.192541276,0.796227912
183,460665,555720,0.919,-0.15,0.292,-0.8,3.4,1.8,-1.7,28.8,-15.1,0.100192267,0.564592425,-0.192571795,0.796288949
184,462729,555720,0.923,-0.15,0.292,-0.7,3.2,1.5,-1.7,28.8,-15.1,0.100192267,0.564531388,-0.192602313,0.796319468
185,465585,555730,0.923,-0.15,0.292,-0.7,3.2,1.5,-1.7,28.8,-15.1,0.100192267,0.564531388,-0.192602313,0.796319468
186,468629,555730,0.927,-0.142,0.288,-0.3,2.7,1.1,-1.9,29.2,-17.7,0.100192267,0.564409314,-0.192602313,0.796380505
187,470064,555730,0.927,-0.142,0.296,-0.3,2.7,1.1,-1.9,29.2,-17.7,0.100192267,0.564378796,-0.19266335,0.796411023
188,473140,555730,0.931,-0.142,0.296,-0.4,2.6,1,-1.9,29.2,-17.7,0.100192267,0.564317759,-0.19266335,0.796441542
189,475941,555740,0.931,-0.142,0.296,-0.4,2.6,1,-1.9,29.2,-17.7,0.100192267,0.564317759,-0.19266335,0.796441542
190,477376,555740,0.931,-0.142,0.296,-0.4,2.6,1,-1.9,29.2,-17.7,0.100192267,0.564317759,-0.19266335,0.796441542
191,480293,555740,0.934,-0.138,0.296,-0.5,1.7,0.1,-1.9,29.2,-17.7,0.10052797,0.564378796,-0.192205573,0.79647206
192,483515,555740,0.934,-0.134,0.296,-1,1.3,-0.4,-1.9,29.2,-17.7,0.100589007,0.564317759,-0.192236091,0.796502579
193,485776,555750,0.934,-0.138,0.3,-1,1.3,-0.4,-1.9,29.2,-17.7,0.100619526,0.56428724,-0.192236091,0.796533097
194,487844,555750,0.934,-0.138,0.3,-1,1.3,-0.4,-1.9,29.2,-17.7,0.100619526,0.56428724,-0.192236091,0.796533097
195,490116,555750,0.934,-0.134,0.296,-1.7,1.2,-0.9,-1.3,29,-15.4,0.100650044,0.564256722,-0.19226661,0.796533097
196,493342,555750,0.938,-0.13,0.3,-2.2,1.1,-1.2,-1.3,29,-15.4,0.100680563,0.564256722,-0.19226661,0.796533097
197,495364,555760,0.938,-0.13,0.3,-2.7,1.1,-1.4,-1.3,29,-15.4,0.100833155,0.564195685,-0.192327647,0.796533097
198,497620,555760,0.938,-0.13,0.3,-2.7,1.1,-1.4,-1.3,29,-15.4,0.100833155,0.564195685,-0.192327647,0.796533097
199,499940,555760,0.942,-0.123,0.296,-3.5,1.1,-1.8,-1.6,28.9,-15.6,0.100924711,0.564195685,-0.192358165,0.796533097
200,502430,555760,0.946,-0.123,0.303,-3.9,1.1,-2,-1.6,28.9,-15.6,0.101016266,0.564165166,-0.192419202,0.796533097
201,507085,555770,0.942,-0.126,0.303,-4.4,0.9,-2,-1.6,28.9,-15.6,0.101107822,0.564134648,-0.192449721,0.796502579
202,509167,555770,0.946,-0.123,0.303,-4.9,0.8,-2.1,-1.6,28.9,-15.6,0.101168859,0.564134648,-0.192510758,0.796502579
203,511384,555770,0.946,-0.126,0.303,-5.3,0.5,-2.1,-1.6,29.1,-18.1,0.101321451,0.564104129,-0.192571795,0.79647206
204,513346,555770,0.942,-0.123,0.303,-5.7,0.4,-2.3,-1.6,29.1,-18.1,0.101413007,0.564104129,-0.19266335,0.796441542
205,514966,555780,0.946,-0.126,0.299,-6,0.3,-2.5,-1.6,29.1,-18.1,0.101535081,0.564104129,-0.192724387,0.796411023
206,518922,555780,0.942,-0.119,0.303,-6.3,0.1,-2.7,-1.6,29.1,-18.1,0.101657155,0.564104129,-0.192785424,0.796380505
207,520808,555780,0.938,-0.126,0.307,-6.6,0.1,-2.8,-1.9,29.2,-16.6,0.101809748,0.564073611,-0.19287698,0.796349986
208,522860,555780,0.938,-0.126,0.307,-7,0.1,-2.9,-1.9,29.2,-16.6,0.101931822,0.564073611,-0.192968535,0.796319468
209,525236,555790,0.935,-0.13,0.3,-7.4,0,-3,-1.9,29.2,-16.6,0.102084414,0.564073611,-0.193060091,0.796288949
210,527475,555790,0.935,-0.126,0.304,-7.8,0,-3.1,-1.9,29.2,-16.6,0.102237007,0.564073611,-0.193151646,0.796258431
211,530039,555790,0.935,-0.126,0.304,-7.8,0,-3.1,-1.9,29.2,-16.6,0.102237007,0.564073611,-0.193151646,0.796258431
212,534400,555790,0.935,-0.126,0.304,-7.8,0,-3.1,-1.9,29.2,-16.6,0.102237007,0.564073611,-0.193151646,0.796258431
213,537035,555800,0.923,-0.13,0.296,-8.5,-0.1,-3.6,-1.7,29.2,-16.9,0.103183081,0.564104129,-0.192541276,0.796258431
214,539828,555800,0.923,-0.126,0.292,-8.5,-0.1,-3.7,-1.7,29.2,-16.9,0.103366192,0.564104129,-0.192602313,0.796197394
215,540349,555800,0.923,-0.126,0.296,-8.4,-0.2,-3.9,-1.7,29.2,-16.9,0.103518784,0.564104129,-0.192724387,0.796136357
216,542695,555800,0.923,-0.126,0.296,-8.4,-0.2,-3.9,-1.7,29.2,-16.9,0.103518784,0.564104129,-0.192724387,0.796136357
217,544974,555810,0.919,-0.13,0.296,-7.9,-0.8,-4.3,-1.9,29.2,-17.2,0.103701895,0.564134648,-0.192815943,0.796105838
218,547606,555810,0.915,-0.122,0.292,-7.5,-1.2,-4.5,-1.9,29.2,-17.2,0.104037599,0.564195685,-0.192968535,0.795983764
219,550224,555810,0.915,-0.122,0.292,-7.3,-1.5,-4.7,-1.9,29.2,-17.2,0.104190191,0.564226203,-0.193060091,0.795922727
220,552623,555810,0.915,-0.122,0.292,-7.3,-1.5,-4.7,-1.9,29.2,-17.2,0.104190191,0.564226203,-0.193060091,0.795922727
221,554961,555820,0.915,-0.122,0.292,-6.8,-2.1,-5.1,-1.8,29.2,-17.3,0.104342784,0.564256722,-0.193121128,0.79586169
222,557612,555820,0.919,-0.122,0.3,-6.6,-2.4,-5.3,-1.8,29.2,-17.3,0.104525895,0.564317759,-0.193151646,0.795770135
223,561458,555820,0.923,-0.114,0.292,-6.3,-2.7,-5.6,-1.8,29.2,-17.3,0.104861599,0.564409314,-0.193243202,0.795648061
224,563578,555820,0.923,-0.114,0.292,-6.3,-2.7,-5.6,-1.8,29.2,-17.3,0.104861599,0.564409314,-0.193243202,0.795648061
225,565921,555830,0.923,-0.114,0.292,-5.9,-2.9,-6,-1.6,29.2,-16.5,0.105014191,0.564470351,-0.193304239,0.795556505
226,567762,555830,0.923,-0.107,0.288,-5.7,-2.9,-6.1,-1.6,29.2,-16.5,0.105166784,0.564531388,-0.193334758,0.795495468
227,570114,555830,0.931,-0.107,0.288,-5.5,-2.9,-6.2,-1.6,29.2,-16.5,0.105349895,0.564622944,-0.193334758,0.795403912
228,572451,555830,0.927,-0.103,0.288,-5.2,-3.1,-6.3,-1.6,29.2,-16.5,0.105502487,0.564683981,-0.193365276,0.795342875
229,574931,555840,0.935,-0.103,0.284,-5,-3.1,-6.5,-2,29.4,-16.1,0.10565508,0.564745018,-0.193395795,0.79525132
230,579357,555840,0.931,-0.103,0.28,-4.7,-3.1,-6.6,-2,29.4,-16.1,0.105838191,0.564836573,-0.193395795,0.795190283
231,581666,555840,0.938,-0.107,0.276,-4.7,-2.9,-6.8,-2,29.4,-16.1,0.105990783,0.56489761,-0.193395795,0.795129246
232,583521,555840,0.934,-0.103,0.28,-4.7,-2.8,-6.9,-2,29.4,-16.1,0.106173894,0.564958647,-0.193395795,0.79503769
233,585846,555850,0.934,-0.103,0.28,-4.7,-2.8,-6.9,-2,29.4,-16.1,0.106173894,0.564958647,-0.193395795,0.79503769
234,587899,555850,0.942,-0.091,0.28,-5.1,-3.1,-7.3,-2.3,29.5,-16.7,0.106967376,0.56532487,-0.192571795,0.794885098
235,591407,555850,0.95,-0.088,0.28,-5.3,-3.4,-7.3,-2.3,29.5,-16.7,0.107150487,0.565416425,-0.192602313,0.794793542
236,593851,555850,0.95,-0.091,0.28,-5.6,-3.6,-7.4,-2.3,29.5,-16.7,0.107333598,0.565477462,-0.192602313,0.794701987
237,596010,555860,0.954,-0.084,0.28,-6,-3.7,-7.6,-2.3,29.5,-16.7,0.107516709,0.565569018,-0.192602313,0.794610431
238,597594,555860,0.954,-0.084,0.28,-6,-3.7,-7.6,-2.3,29.5,-16.7,0.107516709,0.565569018,-0.192602313,0.794610431
239,600180,555860,0.958,-0.08,0.283,-7.2,-3.9,-7.8,-2,28.8,-16.4,0.107943968,0.56572161,-0.192693869,0.79442732
240,603947,555860,0.966,-0.072,0.279,-7.9,-3.9,-7.9,-2,28.8,-16.4,0.108157598,0.565813166,-0.192754906,0.794335765
241,606245,555870,0.966,-0.072,0.279,-8.7,-3.9,-8.1,-2,28.8,-16.4,0.108401746,0.565904721,-0.192815943,0.794213691
242,608338,555870,0.966,-0.072,0.279,-8.7,-3.9,-8.1,-2,28.8,-16.4,0.108401746,0.565904721,-0.192815943,0.794213691
243,610394,555870,0.974,-0.061,0.287,-10.5,-3.9,-8.2,-2,28.8,-16.4,0.108645894,0.565965758,-0.192907498,0.794122135
244,612649,555870,0.978,-0.053,0.291,-11.4,-3.8,-8.3,-2,28.8,-16.4,0.109164708,0.566118351,-0.193090609,0.793877987
245,614928,555880,0.978,-0.045,0.291,-12.4,-3.5,-8.5,-2,28.8,-16.4,0.109469893,0.566179388,-0.193212683,0.793755913
246,618418,555880,0.978,-0.045,0.291,-12.4,-3.5,-8.5,-2,28.8,-16.4,0.109469893,0.566179388,-0.193212683,0.793755913
247,620686,555880,0.986,-0.041,0.291,-14.6,-2.7,-9,-2,29,-16.8,0.109775079,0.566240425,-0.193365276,0.793633839
248,624156,555880,0.989,-0.045,0.291,-15.8,-2.1,-9.2,-2,29,-16.8,0.110141301,0.566270943,-0.193517869,0.793542283
249,626405,555890,0.982,-0.049,0.291,-16.9,-1.5,-9.4,-2,29,-16.8,0.110843226,0.566362499,-0.193853572,0.793298135
250,628660,555890,0.982,-0.049,0.291,-16.9,-1.5,-9.4,-2,29,-16.8,0.110843226,0.566362499,-0.193853572,0.793298135
251,630850,555890,0.982,-0.049,0.287,-19,-0.4,-10,-2.1,28.6,-16.7,0.111239967,0.566362499,-0.194067202,0.793176061
252,633226,555890,0.974,-0.045,0.295,-19.9,-0.1,-10.3,-2.1,28.6,-16.7,0.111667226,0.566362499,-0.194280831,0.793084506
253,635116,555900,0.97,-0.049,0.291,-20.7,0.3,-10.7,-2.1,28.6,-16.7,0.112125004,0.56633198,-0.194524979,0.792962432
254,638261,555900,0.974,-0.049,0.287,-20.7,0.3,-10.7,-2.1,28.6,-16.7,0.112552263,0.56633198,-0.194738609,0.792870876
255,640677,555900,0.974,-0.049,0.287,-20.7,0.3,-10.7,-2.1,28.6,-16.7,0.112552263,0.56633198,-0.194738609,0.792870876
256,643788,555900,0.958,-0.068,0.283,-22.9,1.7,-12.1,-1.8,28.5,-16.6,0.113681448,0.56654561,-0.194219794,0.792687765
257,645107,555910,0.954,-0.072,0.284,-23.5,2.2,-12.5,-1.8,28.5,-16.6,0.114169744,0.566484573,-0.194463942,0.792565691
258,648254,555910,0.954,-0.08,0.28,-24,2.6,-13,-1.8,28.5,-16.6,0.114719077,0.566454054,-0.19470809,0.792474136
259,650295,555910,0.954,-0.084,0.276,-24.4,2.9,-13.3,-1.8,28.5,-16.6,0.11526841,0.566393017,-0.194952239,0.79238258
260,653441,555910,0.946,-0.088,0.28,-24.7,3,-13.7,-2,28.6,-16.6,0.115817743,0.56633198,-0.195196387,0.792260506
261,654929,555920,0.938,-0.091,0.28,-25,3,-14.1,-2,28.6,-16.6,0.116397595,0.566270943,-0.195471053,0.79216895
262,657416,555920,0.938,-0.095,0.284,-25.3,2.9,-14.5,-2,28.6,-16.6,0.116977447,0.566209906,-0.195715201,0.792046876
263,661817,555920,0.938,-0.095,0.276,-25.5,2.8,-14.9,-2,28.6,-16.6,0.117557299,0.566179388,-0.195959349,0.791955321
264,664105,555920,0.938,-0.095,0.276,-25.5,2.8,-14.9,-2,28.6,-16.6,0.117557299,0.566179388,-0.195959349,0.791955321
265,666408,555930,0.934,-0.099,0.272,-25.7,2.6,-15.3,-2,30.7,-14.6,0.11813715,0.566118351,-0.196203497,0.791833247
266,668366,555930,0.931,-0.099,0.276,-26,2.4,-15.8,-2,30.7,-14.6,0.119357891,0.566057314,-0.196691794,0.791589099
267,669950,555930,0.931,-0.099,0.276,-26.1,2.2,-16.1,-2,30.7,-14.6,0.119968261,0.565996277,-0.196935942,0.791467025
268,673869,555930,0.931,-0.099,0.276,-26.1,2.2,-16.1,-2,30.7,-14.6,0.119968261,0.565996277,-0.196935942,0.791467025
269,676114,555940,0.927,-0.103,0.268,-26.7,1.9,-16.6,-2,29.6,-16,0.120578631,0.565965758,-0.197210608,0.791314432
270,678501,555940,0.934,-0.103,0.272,-27.1,1.8,-16.7,-2,29.6,-16,0.121860408,0.565904721,-0.197698904,0.791039766
271,680341,555940,0.931,-0.103,0.272,-27.5,1.8,-16.8,-2,29.6,-16,0.122501297,0.565874203,-0.197973571,0.790917692
272,682715,555940,0.931,-0.103,0.272,-27.5,1.8,-16.8,-2,29.6,-16,0.122501297,0.565874203,-0.197973571,0.790917692
273,684991,555950,0.931,-0.103,0.272,-27.9,1.4,-17,-2.2,29.9,-16.2,0.123142186,0.565843684,-0.198248238,0.790765099
274,687592,555950,0.931,-0.099,0.272,-28.1,1.2,-17,-2.2,29.9,-16.2,0.123783074,0.565813166,-0.198522904,0.790612506
275,690163,555950,0.931,-0.095,0.276,-28.1,1.2,-17,-2.2,29.9,-16.2,0.124423963,0.565813166,-0.198767052,0.790459914
276,693829,555950,0.931,-0.095,0.272,-28.2,1,-17,-2.2,29.9,-16.2,0.125064852,0.565782647,-0.199041719,0.790307321
277,696093,555960,0.931,-0.095,0.272,-28.2,1,-17,-2.2,29.9,-16.2,0.125064852,0.565782647,-0.199041719,0.790307321
278,697651,555960,0.942,-0.08,0.272,-28.5,0.7,-16.9,-2.6,29.8,-16,0.126071963,0.56593524,-0.198889126,0.790032655
279,700042,555960,0.946,-0.076,0.268,-28.7,0.5,-16.8,-2.6,29.8,-16,0.126712851,0.565904721,-0.199194311,0.789910581
280,703494,555960,0.946,-0.068,0.268,-28.8,0.4,-16.8,-2.6,29.8,-16,0.12735374,0.565904721,-0.199438459,0.789757988
281,705074,555970,0.954,-0.068,0.272,-29.2,0.4,-16.7,-2.6,29.8,-16,0.128025147,0.565874203,-0.199774163,0.789574877
282,709143,555970,0.954,-0.068,0.272,-29.6,0.4,-16.5,-2.8,30,-16,0.128666036,0.565874203,-0.200079348,0.789391766
283,711461,555970,0.958,-0.06,0.272,-30.2,0.6,-16.4,-2.8,30,-16,0.129337443,0.565843684,-0.200384533,0.789239174
284,713404,555970,0.962,-0.06,0.272,-30.9,0.8,-16.4,-2.8,30,-16,0.13000885,0.565813166,-0.200720237,0.789056063
285,715559,555980,0.966,-0.057,0.275,-31.5,0.9,-16.3,-2.8,30,-16,0.130680258,0.565782647,-0.20105594,0.78890347
286,718798,555980,0.966,-0.057,0.275,-31.5,0.9,-16.3,-2.8,30,-16,0.130680258,0.565782647,-0.20105594,0.78890347
287,720978,555980,0.97,-0.053,0.26,-32.7,1.6,-16.2,-2.4,30.8,-15.2,0.132053591,0.565691092,-0.201757866,0.788537248
288,723377,555980,0.974,-0.049,0.264,-33.4,2,-16.1,-2.4,30.8,-15.2,0.132755516,0.565630055,-0.202124088,0.788384655
289,725165,555990,0.974,-0.049,0.264,-34.1,2.2,-16,-2.4,30.8,-15.2,0.133457442,0.565538499,-0.202520829,0.788201544
290,727468,555990,0.974,-0.049,0.264,-34.1,2.2,-16,-2.4,30.8,-15.2,0.133457442,0.565538499,-0.202520829,0.788201544
291,731423,555990,0.974,-0.057,0.252,-35.5,2.9,-16,-2.4,30.9,-14.6,0.134891812,0.565385907,-0.20331431,0.787865841
292,733127,555990,0.977,-0.053,0.252,-36.1,3.4,-15.9,-2.4,30.9,-14.6,0.135624256,0.565294351,-0.203741569,0.787713248
293,736810,556000,0.977,-0.061,0.252,-36.7,4.1,-15.9,-2.4,30.9,-14.6,0.136387219,0.565202795,-0.204168828,0.787560656
294,739169,556000,0.977,-0.061,0.252,-36.7,4.1,-15.9,-2.4,30.9,-14.6,0.136387219,0.565202795,-0.204168828,0.787560656
295,741366,556000,0.985,-0.065,0.244,-37.2,4.7,-15.9,-2.7,31,-14.8,0.137150182,0.565080721,-0.204596088,0.787377544
296,743426,556000,0.981,-0.073,0.24,-38.4,5.8,-16,-2.7,31,-14.8,0.138676107,0.564806055,-0.205450606,0.787102878
297,746594,556010,0.981,-0.073,0.244,-38.9,6.1,-16.1,-2.7,31,-14.8,0.139469588,0.564653462,-0.205908383,0.786950285
298,748799,556010,0.981,-0.073,0.244,-38.9,6.1,-16.1,-2.7,31,-14.8,0.139469588,0.564653462,-0.205908383,0.786950285
299,751036,556010,0.981,-0.073,0.244,-38.9,6.1,-16.1,-2.7,31,-14.8,0.139469588,0.564653462,-0.205908383,0.786950285
300,752393,556010,0.977,-0.077,0.24,-40.3,7.1,-16.3,-2.7,31.3,-14.6,0.140751366,0.564958647,-0.205847346,0.786523026
301,755269,556020,0.973,-0.084,0.236,-40.3,7.1,-16.3,-2.7,31.3,-14.6,0.141544847,0.564775536,-0.206274606,0.786370434
302,758336,556020,0.973,-0.08,0.232,-41.4,7.4,-16.2,-2.7,31.3,-14.6,0.143192846,0.564409314,-0.207251198,0.786065249
303,761326,556020,0.973,-0.08,0.232,-41.4,7.4,-16.2,-2.7,31.3,-14.6,0.143192846,0.564409314,-0.207251198,0.786065249
304,762632,556020,0.966,-0.08,0.236,-42.1,7.5,-16,-2.3,29.8,-14.2,0.144016846,0.564226203,-0.207770013,0.785912656
305,765817,556030,0.962,-0.084,0.233,-42.6,7.5,-15.9,-2.3,29.8,-14.2,0.144840846,0.564043092,-0.208288827,0.785790582
306,768832,556030,0.962,-0.08,0.229,-42.6,7.5,-15.9,-2.3,29.8,-14.2,0.145695364,0.563859981,-0.208777123,0.785637989
307,771123,556030,0.966,-0.08,0.232,-43.1,7.4,-15.8,-2.3,29.8,-14.2,0.146519364,0.563646352,-0.209326456,0.785485397
308,772447,556030,0.966,-0.084,0.232,-43.8,7.1,-15.5,-2.6,31.5,-13.8,0.147373882,0.56346324,-0.209845271,0.785302286
309,776328,556040,0.962,-0.08,0.236,-44.2,7,-15.4,-2.6,31.5,-13.8,0.148197882,0.563280129,-0.210394604,0.785149693
310,777676,556040,0.966,-0.076,0.232,-44.6,6.8,-15.4,-2.6,31.5,-13.8,0.1490524,0.5630665,-0.210943937,0.784966582
311,780877,556040,0.966,-0.072,0.232,-44.6,6.8,-15.4,-2.6,31.5,-13.8,0.1498764,0.562883389,-0.211493271,0.784783471
312,783812,556040,0.962,-0.076,0.24,-45.7,6.3,-15,-3.6,31.8,-14,0.150730918,0.562700278,-0.212073122,0.78460036
313,785155,556050,0.966,-0.072,0.236,-46.2,6.1,-14.9,-3.6,31.8,-14,0.151585437,0.562517167,-0.212652974,0.784417249
314,788305,556050,0.962,-0.076,0.24,-46.8,5.8,-14.7,-3.6,31.8,-14,0.152439955,0.562334056,-0.213263344,0.784234138
315,791361,556050,0.962,-0.072,0.233,-46.8,5.8,-14.7,-3.6,31.8,-14,0.153294473,0.562120426,-0.213873714,0.784051027
316,793634,556050,0.97,-0.065,0.236,-47.7,5.2,-14.5,-4.1,31.6,-13.6,0.154148991,0.561967833,-0.214484085,0.783837397
317,795120,556060,0.97,-0.065,0.236,-48.2,5,-14.4,-4.1,31.6,-13.6,0.155034028,0.561784722,-0.215124973,0.783623768
318,797428,556060,0.973,-0.061,0.236,-48.5,4.9,-14.3,-4.1,31.6,-13.6,0.155888546,0.561601611,-0.215765862,0.783410138
319,801183,556060,0.973,-0.061,0.236,-48.9,4.8,-14.2,-4.1,31.6,-13.6,0.156743065,0.5614185,-0.216406751,0.78316599
320,803443,556060,0.973,-0.061,0.236,-48.9,4.8,-14.2,-4.1,31.6,-13.6,0.156743065,0.5614185,-0.216406751,0.78316599
321,805770,556070,0.973,-0.061,0.236,-48.9,4.8,-14.2,-4.1,31.6,-13.6,0.156743065,0.5614185,-0.216406751,0.78316599
322,807725,556070,0.977,-0.061,0.232,-49.9,5.2,-14,-4.3,32,-13.7,0.159245582,0.561815241,-0.21683401,0.782219916
323,810033,556070,0.973,-0.061,0.232,-50.3,5.3,-14,-4.3,32,-13.7,0.160130619,0.56163213,-0.217505417,0.782036805
324,813476,556070,0.977,-0.065,0.236,-50.8,5.5,-14,-4.3,32,-13.7,0.161015656,0.5614185,-0.218176824,0.781823176
325,815450,556080,0.977,-0.065,0.236,-50.8,5.5,-14,-4.3,32,-13.7,0.161015656,0.5614185,-0.218176824,0.781823176
326,817577,556080,0.981,-0.073,0.228,-51.1,5.8,-14.1,-2,30.6,-13.3,0.161900693,0.561204871,-0.21887875,0.781579028
327,821425,556080,0.989,-0.077,0.224,-51.8,6.1,-14.6,-2,30.6,-13.3,0.163731803,0.560747093,-0.220221564,0.781151769
328,823772,556080,0.985,-0.073,0.224,-52.2,6.2,-14.9,-2,30.6,-13.3,0.164647359,0.560533464,-0.22092349,0.78090762
329,826019,556090,0.985,-0.073,0.224,-52.2,6.2,-14.9,-2,30.6,-13.3,0.164647359,0.560533464,-0.22092349,0.78090762
330,827908,556090,0.993,-0.077,0.22,-53.1,6.8,-15.1,-3.9,32,-13.2,0.165593432,0.560289315,-0.221625416,0.780693991
331,830293,556090,0.993,-0.081,0.216,-53.1,6.8,-15.1,-3.9,32,-13.2,0.166539506,0.560075686,-0.222296823,0.780449843
332,832431,556090,0.993,-0.085,0.22,-54.9,7.4,-15.4,-3.9,32,-13.2,0.168462172,0.559556871,-0.223731193,0.779992065
333,834923,556100,0.993,-0.085,0.22,-54.9,7.4,-15.4,-3.9,32,-13.2,0.168462172,0.559556871,-0.223731193,0.779992065
334,839385,556100,0.997,-0.089,0.22,-56.6,7.8,-15.5,-4.3,32.2,-13.1,0.169469283,0.559312723,-0.224494156,0.779747917
335,841688,556100,1.001,-0.093,0.228,-56.6,7.8,-15.5,-4.3,32.2,-13.1,0.170445875,0.559038057,-0.2252266,0.779503769
336,843956,556100,1.001,-0.089,0.232,-57.3,7.8,-15.5,-4.3,32.2,-13.1,0.171452986,0.55876339,-0.225989563,0.779259621
337,846412,556110,1.001,-0.089,0.236,-57.9,7.6,-15.5,-4.3,32.2,-13.1,0.172460097,0.558488723,-0.226752525,0.779015473
338,848632,556110,0.993,-0.092,0.236,-59.2,7,-15.4,-3.4,32.2,-12.2,0.173467208,0.558214057,-0.227546007,0.778740806
339,850900,556110,0.989,-0.092,0.236,-59.9,6.8,-15.4,-3.4,32.2,-12.2,0.174504837,0.557969909,-0.228339488,0.778496658
340,852825,556110,0.985,-0.088,0.236,-59.9,6.8,-15.4,-3.4,32.2,-12.2,0.175542467,0.557695242,-0.229163488,0.778191473
341,855114,556120,0.981,-0.088,0.24,-60.7,6.7,-15.4,-3.4,32.2,-12.2,0.176580096,0.557420576,-0.229956969,0.777916807
342,859174,556120,0.981,-0.088,0.24,-60.7,6.7,-15.4,-3.4,32.2,-12.2,0.176580096,0.557420576,-0.229956969,0.777916807
343,861265,556120,0.969,-0.096,0.24,-62.1,6.2,-15.7,-3.7,32.6,-12.2,0.178044984,0.557725761,-0.23035371,0.777245399
344,863586,556120,0.966,-0.096,0.236,-62.3,5.9,-15.9,-3.7,32.6,-12.2,0.179113132,0.557481613,-0.231177709,0.776940214
345,865752,556130,0.962,-0.096,0.233,-62.4,5.5,-16.1,-3.7,32.6,-12.2,0.180150761,0.557206946,-0.232032228,0.776635029
346,867807,556130,0.958,-0.096,0.229,-62.4,5.2,-16.2,-3.7,32.6,-12.2,0.181218909,0.556962798,-0.232856227,0.776329844
347,870731,556130,0.954,-0.096,0.229,-62.3,4.9,-16.2,-3.7,32.4,-12.3,0.182287057,0.55671865,-0.233710746,0.77599414
348,873765,556130,0.95,-0.096,0.221,-62.3,4.8,-16.2,-3.7,32.4,-12.3,0.183324686,0.556474502,-0.234534745,0.775688955
349,875189,556140,0.95,-0.096,0.217,-62.3,4.5,-16.3,-3.7,32.4,-12.3,0.184392834,0.556230354,-0.235389264,0.775353252
350,878611,556140,0.954,-0.092,0.217,-62.4,4.1,-16.3,-3.7,32.4,-12.3,0.185460982,0.555986206,-0.236213263,0.775017548
351,880730,556140,0.954,-0.092,0.217,-62.4,4.1,-16.3,-3.7,32.4,-12.3,0.185460982,0.555986206,-0.236213263,0.775017548
352,883859,556140,0.958,-0.088,0.209,-62.5,3.3,-16,-2.9,32.1,-12.5,0.187536241,0.555528428,-0.2379223,0.774315622
353,885223,556150,0.958,-0.088,0.209,-62.4,2.9,-15.8,-2.9,32.1,-12.5,0.188604389,0.555314798,-0.238776818,0.7739494
354,889395,556150,0.954,-0.084,0.213,-62.2,2.5,-15.5,-2.9,32.1,-12.5,0.189611499,0.55507065,-0.239600818,0.773613697
355,891326,556150,0.954,-0.084,0.213,-62.2,2.5,-15.5,-2.9,32.1,-12.5,0.189611499,0.55507065,-0.239600818,0.773613697
356,892801,556150,0.954,-0.076,0.209,-62.1,2.1,-15.2,-2.9,32.5,-11.8,0.190649129,0.554857021,-0.240455336,0.773247475
357,895069,556160,0.958,-0.069,0.209,-61.9,1.2,-14.3,-2.9,32.5,-11.8,0.19266335,0.55446028,-0.242194891,0.772484512
358,898347,556160,0.962,-0.057,0.209,-61.9,0.9,-14,-2.9,32.5,-11.8,0.193639943,0.554246651,-0.243049409,0.77211829
359,900367,556160,0.962,-0.057,0.209,-61.9,0.9,-14,-2.9,32.5,-11.8,0.193639943,0.554246651,-0.243049409,0.77211829
360,903669,556160,0.962,-0.049,0.209,-62,0.7,-13.6,-3.3,32.4,-11.3,0.194616535,0.554033021,-0.243934446,0.771752068
361,905440,556170,0.962,-0.037,0.201,-62.2,0.4,-13.2,-3.3,32.4,-11.3,0.195593127,0.55384991,-0.244819483,0.771355327
362,908437,556170,0.969,-0.03,0.201,-63.4,0.5,-12.4,-3.3,32.4,-11.3,0.197546312,0.553422651,-0.246650594,0.770592364
363,909895,556170,0.969,-0.03,0.201,-63.4,0.5,-12.4,-3.3,32.4,-11.3,0.197546312,0.553422651,-0.246650594,0.770592364
364,912796,556170,0.969,-0.03,0.201,-63.4,0.5,-12.4,-3.3,32.4,-11.3,0.197546312,0.553422651,-0.246650594,0.770592364
365,915862,556180,0.977,-0.022,0.197,-65.8,1.7,-11.1,-4,32.6,-11,0.199102756,0.553880428,-0.246986297,0.769768365
366,917487,556180,0.977,-0.018,0.193,-65.8,1.7,-11.1,-4,32.6,-11,0.200079348,0.553605762,-0.247962889,0.769371624
367,920357,556180,0.985,-0.014,0.185,-66.5,2.3,-10.6,-4,32.6,-11,0.201086459,0.553331095,-0.248939482,0.769005402
368,923280,556180,0.989,-0.014,0.193,-67.2,3.1,-10.2,-4,32.6,-11,0.20209357,0.553056429,-0.249916074,0.768608661
369,924941,556190,0.985,-0.011,0.181,-68.8,4.9,-9.4,-3.2,32.3,-10.4,0.203100681,0.552720725,-0.250953703,0.768272958
370,928608,556190,0.993,-0.011,0.185,-69.8,5.8,-9.1,-3.2,32.3,-10.4,0.20413831,0.552354503,-0.251991333,0.767906735
371,930071,556190,0.989,-0.014,0.189,-69.8,5.8,-9.1,-3.2,32.3,-10.4,0.205145421,0.551988281,-0.252998444,0.767540513
372,932371,556190,0.989,-0.018,0.185,-70.9,6.6,-8.8,-3.2,32.3,-10.4,0.206213569,0.551622059,-0.254066591,0.76720481
373,936169,556200,0.993,-0.022,0.185,-73,8,-8.2,-3.3,32.8,-9.7,0.207251198,0.5511948,-0.255134739,0.766838588
374,938295,556200,0.993,-0.018,0.185,-74,8.6,-7.7,-3.3,32.8,-9.7,0.208319346,0.550767541,-0.256263924,0.766502884
375,941669,556200,0.993,-0.022,0.189,-75,9.2,-7.3,-3.3,32.8,-9.7,0.209418012,0.550309763,-0.257393109,0.76616718
376,943638,556200,0.993,-0.026,0.189,-75,9.2,-7.3,-3.3,32.8,-9.7,0.21048616,0.549851985,-0.258491775,0.765831477
377,945793,556210,0.993,-0.026,0.189,-75,9.2,-7.3,-3.3,32.8,-9.7,0.21048616,0.549851985,-0.258491775,0.765831477
378,948639,556210,0.997,-0.034,0.189,-78.1,10.8,-6,-2.9,33.2,-9.6,0.212683493,0.548844874,-0.2608417,0.765129551
379,951247,556210,1.001,-0.042,0.185,-79,11.1,-5.6,-2.9,33.2,-9.6,0.213782159,0.54832606,-0.262062441,0.764793847
380,953421,556210,1.008,-0.046,0.192,-80,11.3,-5.3,-2.9,33.2,-9.6,0.214880825,0.547807245,-0.263283181,0.764458144
381,955678,556220,1.008,-0.046,0.192,-80,11.3,-5.3,-2.9,33.2,-9.6,0.214880825,0.547807245,-0.263283181,0.764458144
382,957735,556220,1.02,-0.05,0.196,-80.9,11.5,-5,-3.2,33.3,-9.3,0.21601001,0.547257912,-0.264503922,0.764091922
383,960100,556220,1.02,-0.058,0.192,-81.7,11.7,-4.7,-3.2,33.3,-9.3,0.217139195,0.546708579,-0.265755181,0.7637257
384,962414,556220,1.032,-0.066,0.192,-83.3,12.7,-4.3,-3.2,33.3,-9.3,0.219397565,0.545548875,-0.268288217,0.763023774
385,966562,556230,1.032,-0.066,0.192,-83.3,12.7,-4.3,-3.2,33.3,-9.3,0.219397565,0.545548875,-0.268288217,0.763023774
386,968749,556230,1.032,-0.066,0.192,-83.3,12.7,-4.3,-3.2,33.3,-9.3,0.219397565,0.545548875,-0.268288217,0.763023774
387,970930,556230,1.051,-0.082,0.196,-85.1,13.9,-4.1,-4.5,33.6,-9.2,0.22092349,0.545579394,-0.269203772,0.762230293
388,973282,556230,1.063,-0.086,0.191,-86.2,14.5,-4,-4.5,33.6,-9.2,0.222113712,0.544938505,-0.270516068,0.761894589
389,975454,556240,1.067,-0.098,0.184,-87.4,15.3,-3.9,-4.5,33.6,-9.2,0.223334452,0.544297617,-0.271858882,0.761528367
390,977562,556240,1.078,-0.098,0.187,-88.6,16,-3.9,-4.5,33.6,-9.2,0.224524674,0.543595691,-0.273201697,0.761162145
391,979949,556240,1.082,-0.122,0.191,-89.7,17.1,-3.8,-2.9,33.8,-8.2,0.225775933,0.542893765,-0.274544511,0.760826441
392,983396,556240,1.082,-0.122,0.187,-90.9,18.2,-3.7,-2.9,33.8,-8.2,0.227027192,0.542191839,-0.275917844,0.760460219
393,984934,556250,1.082,-0.125,0.183,-92.3,19.5,-3.7,-2.9,33.8,-8.2,0.228278451,0.541428877,-0.277321696,0.760124516
394,989741,556250,1.082,-0.141,0.176,-93.7,20.7,-4,-2.9,33.8,-8.2,0.229590747,0.540635395,-0.278725547,0.759788812
395,990080,556250,1.082,-0.161,0.18,-96.7,23.2,-4.5,-2.8,34,-7.7,0.230933561,0.539780877,-0.280159917,0.759453108
396,992471,556250,1.078,-0.168,0.176,-96.7,23.2,-4.5,-2.8,34,-7.7,0.232306894,0.538926359,-0.281594287,0.759086886
397,995905,556260,1.07,-0.184,0.172,-98.3,24.5,-4.7,-2.8,34,-7.7,0.233680227,0.538071841,-0.283028657,0.758751183
398,997830,556260,1.066,-0.196,0.168,-99.8,25.8,-5.1,-2.8,34,-7.7,0.235114597,0.537156285,-0.284493545,0.758415479
399,1000192,556260,1.055,-0.223,0.168,-102.6,28.6,-5.9,-2.6,34.4,-7.2,0.236548967,0.536179693,-0.285988952,0.758079775
400,1002466,556260,1.047,-0.234,0.161,-104,30,-6.5,-2.6,34.4,-7.2,0.238105411,0.535203101,-0.287453841,0.757744072
401,1007569,556270,1.039,-0.25,0.169,-104,30,-6.5,-2.6,34.4,-7.2,0.239600818,0.53419599,-0.288949248,0.757408368
402,1007569,556270,1.027,-0.265,0.165,-105.5,31.5,-7.1,-2.6,34.4,-7.2,0.241157262,0.533158361,-0.290444655,0.757072665
403,1010114,556270,1.027,-0.265,0.165,-105.5,31.5,-7.1,-2.6,34.4,-7.2,0.241157262,0.533158361,-0.290444655,0.757072665
404,1012868,556270,0.988,-0.343,0.15,-109.2,35.9,-9.5,-2.6,34.4,-7.2,0.244422742,0.530961028,-0.293435469,0.756401257
405,1016170,556280,0.988,-0.343,0.15,-110.2,37.3,-10.4,-2.6,34.4,-7.2,0.24610126,0.529831843,-0.294930876,0.756096072
406,1018268,556280,0.96,-0.389,0.147,-110.2,37.3,-10.4,-2.6,34.4,-7.2,0.247810297,0.52867214,-0.296456801,0.755760369
407,1020137,556280,0.96,-0.389,0.147,-110.2,37.3,-10.4,-2.6,34.4,-7.2,0.247810297,0.52867214,-0.296456801,0.755760369
408,1022417,556280,0.96,-0.389,0.147,-110.2,37.3,-10.4,-2.6,34.4,-7.2,0.247810297,0.52867214,-0.296456801,0.755760369
409,1024942,556290,0.94,-0.455,0.14,-112.2,40.1,-13.6,-3.1,34.6,-6.8,0.249000519,0.527695547,-0.298715171,0.755149998
410,1029558,556290,0.921,-0.502,0.132,-112.2,41.1,-15.7,-3.1,34.6,-6.8,0.252632221,0.525315104,-0.301614429,0.754448073
411,1029882,556290,0.928,-0.526,0.132,-112,41.4,-16.7,-3.1,34.6,-6.8,0.254463332,0.524124882,-0.303048799,0.754081851
412,1033213,556290,0.928,-0.526,0.132,-112,41.4,-16.7,-3.1,34.6,-6.8,0.254463332,0.524124882,-0.303048799,0.754081851
413,1035245,556300,0.917,-0.561,0.129,-111.6,41.4,-17.6,-3.4,35,-6,0.256294443,0.52293466,-0.304452651,0.753715629
414,1037483,556300,0.905,-0.615,0.129,-109.7,40.9,-19.5,-3.4,35,-6,0.259987182,0.520615253,-0.307168798,0.752952666
415,1039920,556300,0.908,-0.631,0.121,-108.3,40.5,-20.5,-3.4,35,-6,0.261818293,0.51945555,-0.308481094,0.752586444
416,1043538,556300,0.908,-0.631,0.121,-108.3,40.5,-20.5,-3.4,35,-6,0.261818293,0.51945555,-0.308481094,0.752586444
417,1045011,556310,0.912,-0.658,0.121,-106.6,40.1,-21.3,-3.3,35.1,-5.8,0.263649403,0.518326365,-0.309762871,0.752189703
418,1047874,556310,0.916,-0.678,0.129,-104.7,39.7,-22.1,-3.3,35.1,-5.8,0.265480514,0.517227699,-0.31101413,0.751792962
419,1050362,556310,0.916,-0.694,0.121,-102.6,39.3,-22.7,-3.3,35.1,-5.8,0.267281106,0.516159551,-0.312204352,0.75142674
420,1053153,556310,0.92,-0.709,0.125,-100.2,39,-23.2,-3.3,35.1,-5.8,0.26905118,0.515091403,-0.313364055,0.75103
421,1055093,556320,0.928,-0.741,0.117,-97.7,38.7,-23.7,-3.6,35.1,-5,0.270790735,0.514023255,-0.314462722,0.750663778
422,1057509,556320,0.928,-0.756,0.117,-94.9,38.5,-24.2,-3.6,35.1,-5,0.27253029,0.513016144,-0.315530869,0.750297555
423,1060268,556320,0.935,-0.78,0.121,-92,38.6,-24.7,-3.6,35.1,-5,0.274239326,0.511978515,-0.316507462,0.749961852
424,1063944,556320,0.935,-0.799,0.113,-88.9,38.9,-25.2,-3.6,35.1,-5,0.275856807,0.511001923,-0.317453536,0.749626148
425,1065655,556330,0.947,-0.839,0.117,-82.2,39.9,-26.5,-3.9,35.2,-4.5,0.277535325,0.51002533,-0.318277535,0.749320963
426,1068612,556330,0.947,-0.858,0.125,-82.2,39.9,-26.5,-3.9,35.2,-4.5,0.279152806,0.509048738,-0.319071017,0.749046297
427,1070179,556330,0.951,-0.878,0.125,-78.7,40.5,-27.4,-3.9,35.2,-4.5,0.280770287,0.508102664,-0.319803461,0.74877163
428,1073571,556330,0.958,-0.901,0.128,-75.4,41.3,-28.5,-3.9,35.2,-4.5,0.28235725,0.50715659,-0.320474868,0.748527482
429,1075051,556340,0.958,-0.901,0.128,-75.4,41.3,-28.5,-3.9,35.2,-4.5,0.28235725,0.50715659,-0.320474868,0.748527482
430,1079151,556340,0.974,-0.964,0.132,-70.4,42.7,-30.9,-4.3,35,-3.9,0.283944212,0.506241035,-0.321024201,0.748313852
431,1080655,556340,0.985,-0.992,0.132,-68.9,43.1,-32.2,-4.3,35,-3.9,0.285531175,0.505355998,-0.321512497,0.748100223
432,1084105,556340,1.009,-1.074,0.128,-67.6,43.4,-34.7,-4.3,35,-3.9,0.288735618,0.503555406,-0.322428053,0.747672964
433,1086531,556350,1.009,-1.074,0.128,-67.6,43.4,-34.7,-4.3,35,-3.9,0.288735618,0.503555406,-0.322428053,0.747672964
434,1088248,556350,1.024,-1.102,0.124,-67.7,43.4,-36,-4.4,35.4,-2.9,0.290383618,0.50267037,-0.32288583,0.747459334
435,1090419,556350,1.02,-1.172,0.132,-68.3,43.4,-37.6,-4.4,35.4,-2.9,0.292031617,0.501785333,-0.323313089,0.747215186
436,1092829,556350,1.024,-1.199,0.124,-69.4,43.2,-39.8,-4.4,35.4,-2.9,0.293771172,0.500930815,-0.32370983,0.746940519
437,1094957,556360,1.028,-1.25,0.128,-71.3,42.7,-42.7,-4.4,35.4,-2.9,0.295541246,0.500076296,-0.324137089,0.746635334
438,1097502,556360,0.996,-1.379,0.125,-76.6,41.1,-48.6,-4.5,35.5,-2.1,0.297463912,0.499252297,-0.324594867,0.746208075
439,1100975,556360,1.004,-1.433,0.136,-76.6,41.1,-48.6,-4.5,35.5,-2.1,0.299386578,0.498428297,-0.325052644,0.745811335
440,1103508,556360,1,-1.488,0.152,-79.4,40,-50.8,-4.5,35.5,-2.1,0.301339763,0.497634816,-0.325510422,0.745353557
441,1105272,556370,0.984,-1.55,0.172,-81.3,38.6,-51.8,-4.5,35.5,-2.1,0.303353984,0.496810816,-0.326029237,0.744834742
442,1107647,556370,0.952,-1.686,0.208,-81.8,35,-49.9,-4.8,35.6,-1.4,0.305307169,0.496078372,-0.32657857,0.744315928
443,1111510,556370,0.945,-1.748,0.232,-81.3,33.2,-47.6,-4.8,35.6,-1.4,0.307199316,0.495315409,-0.327158422,0.743766594
444,1112947,556370,0.917,-1.818,0.248,-81.3,33.2,-47.6,-4.8,35.6,-1.4,0.309060945,0.494582965,-0.327738273,0.74324778
445,1115203,556380,0.886,-1.88,0.261,-80.3,31.8,-45.1,-4.8,35.6,-1.4,0.310892056,0.49385052,-0.328348643,0.742698447
446,1117583,556380,0.886,-1.88,0.261,-80.3,31.8,-45.1,-4.8,35.6,-1.4,0.310892056,0.49385052,-0.328348643,0.742698447
447,1120010,556380,0.772,-2.074,0.283,-76.7,30.7,-39.3,-4.8,35.5,-4.5,0.312570574,0.493087558,-0.328959014,0.74221015
448,1124553,556380,0.701,-2.186,0.28,-68.2,32,-29.4,-4.8,35.5,-4.5,0.315591906,0.491561632,-0.330118717,0.741416669
449,1126422,556390,0.662,-2.212,0.273,-68.2,32,-29.4,-4.8,35.5,-4.5,0.317056795,0.490798669,-0.33066805,0.741080966
450,1128637,556390,0.662,-2.212,0.273,-68.2,32,-29.4,-4.8,35.5,-4.5,0.317056795,0.490798669,-0.33066805,0.741080966
451,1131127,556390,0.56,-2.258,0.201,-40.8,33.1,-8.9,-4.7,35.5,-1.8,0.317850276,0.490035707,-0.331003754,0.741080966
452,1132643,556390,0.529,-2.261,0.17,-27.3,32.6,-2.8,-4.7,35.5,-1.8,0.318430128,0.489333781,-0.331186865,0.74120304
453,1136100,556400,0.521,-2.258,0.139,-27.3,32.6,-2.8,-4.7,35.5,-1.8,0.31900998,0.488662374,-0.331400494,0.741325114
454,1138283,556400,0.513,-2.25,0.104,-11.5,31.2,2.1,-4.7,35.5,-1.8,0.319315165,0.488052004,-0.331369976,0.74159978
455,1140266,556400,0.513,-2.25,0.104,-11.5,31.2,2.1,-4.7,35.5,-1.8,0.319315165,0.488052004,-0.331369976,0.74159978
456,1142939,556400,0.5,-2.215,0.018,27.3,25.5,10.3,-4.9,35.3,-1.7,0.319040498,0.487746818,-0.33088168,0.742149113
457,1144880,556410,0.508,-2.192,-0.013,49.8,21.4,14.7,-4.9,35.3,-1.7,0.318430128,0.487655263,-0.33005768,0.742820521
458,1149309,556410,0.516,-2.099,-0.095,97.5,10.6,25.4,-4.9,35.3,-1.7,0.316080203,0.488052004,-0.327585681,0.744651631
459,1151689,556410,0.516,-2.099,-0.095,97.5,10.6,25.4,-4.9,35.3,-1.7,0.316080203,0.488052004,-0.327585681,0.744651631
460,1153883,556410,0.531,-2.064,-0.115,121,4.2,31.1,-4.9,35.4,-2.8,0.314310129,0.488601337,-0.325907163,0.745780816
461,1156607,556420,0.574,-2.01,-0.147,143.1,-2.6,36.3,-4.9,35.4,-2.8,0.312173833,0.489364299,-0.323984497,0.747032075
462,1158773,556420,0.61,-1.999,-0.164,163.4,-10,40.6,-4.9,35.4,-2.8,0.309701834,0.490340892,-0.321817682,0.748344371
463,1161338,556420,0.645,-1.976,-0.168,181.8,-17.9,44.3,-4.9,35.4,-2.8,0.306894131,0.491561632,-0.319437239,0.749717704
464,1163356,556420,0.68,-1.922,-0.196,214.8,-32.8,51,-4.6,34.8,-5.9,0.303537095,0.493179113,-0.316690573,0.751182592
465,1165122,556430,0.703,-1.891,-0.205,214.8,-32.8,51,-4.6,34.8,-5.9,0.300149541,0.494766076,-0.313943907,0.752647481
466,1168635,556430,0.731,-1.864,-0.217,230.2,-39,55,-4.6,34.8,-5.9,0.29648732,0.496536149,-0.31101413,0.754173406
467,1170689,556430,0.75,-1.837,-0.229,245.3,-44,59.8,-4.6,34.8,-5.9,0.292550432,0.498428297,-0.307901242,0.75572985
468,1174087,556430,0.821,-1.733,-0.258,274.1,-50.9,70,-4.1,34.8,-5.2,0.288064211,0.500534074,-0.304452651,0.757438887
469,1176154,556440,0.84,-1.706,-0.266,287.2,-53.2,75,-4.1,34.8,-5.2,0.283303323,0.502731407,-0.300851466,0.759239479
470,1178638,556440,0.86,-1.687,-0.278,287.2,-53.2,75,-4.1,34.8,-5.2,0.278572954,0.504867702,-0.297250282,0.760979034
471,1180673,556440,0.879,-1.652,-0.287,299,-54.8,80,-4.1,34.8,-5.2,0.273567919,0.507065035,-0.293496506,0.762779626
472,1182968,556440,0.879,-1.652,-0.287,299,-54.8,80,-4.1,34.8,-5.2,0.273567919,0.507065035,-0.293496506,0.762779626
473,1185055,556450,0.911,-1.567,-0.303,317.3,-55.4,89.8,-3.6,34.1,-7.7,0.26822718,0.509292886,-0.289529099,0.764702292
474,1189091,556450,0.926,-1.536,-0.319,323.8,-53.8,94.8,-3.6,34.1,-7.7,0.262672811,0.511490219,-0.285500656,0.766685995
475,1191229,556450,0.962,-1.459,-0.347,328.3,-50.9,100,-3.6,34.1,-7.7,0.257026887,0.513565477,-0.281380657,0.768730735
476,1192753,556450,0.989,-1.428,-0.36,330.8,-46.7,105,-3.6,34.1,-7.7,0.251258889,0.515549181,-0.277291177,0.770805994
477,1195103,556460,1.044,-1.382,-0.384,331.5,-37.1,112.9,-3.2,34,-9.6,0.245399335,0.517288736,-0.273171178,0.772972808
478,1198799,556460,1.071,-1.363,-0.389,332.2,-33.2,115.2,-3.2,34,-9.6,0.239478744,0.518936735,-0.26905118,0.775170141
479,1200671,556460,1.095,-1.332,-0.389,332.2,-33.2,115.2,-3.2,34,-9.6,0.233588672,0.520554216,-0.264900662,0.777336955
480,1203950,556460,1.11,-1.309,-0.397,334.4,-30.4,116.6,-3.2,34,-9.6,0.227637562,0.522080142,-0.260689108,0.779503769
481,1206132,556470,1.11,-1.309,-0.397,334.4,-30.4,116.6,-3.2,34,-9.6,0.227637562,0.522080142,-0.260689108,0.779503769
482,1208476,556470,1.13,-1.243,-0.406,351.1,-25.2,121.2,-2.7,32.9,-11.6,0.215277566,0.5249794,-0.25183874,0.783959471
483,1210157,556470,1.138,-1.216,-0.418,358.1,-23.4,123.7,-2.7,32.9,-11.6,0.208929716,0.526352733,-0.247230445,0.786217841
484,1213498,556470,1.13,-1.184,-0.414,365.1,-21.5,126.7,-2.7,32.9,-11.6,0.202429273,0.527695547,-0.242500076,0.788476211
485,1214935,556480,1.13,-1.184,-0.414,365.1,-21.5,126.7,-2.7,32.9,-11.6,0.202429273,0.527695547,-0.242500076,0.788476211
486,1218974,556480,1.122,-1.165,-0.421,372.1,-19.8,130,-2.2,32.2,-11.3,0.195806757,0.528977325,-0.237678152,0.790765099
487,1220982,556480,1.099,-1.118,-0.433,379.2,-18.6,133.5,-2.2,32.2,-11.3,0.189031648,0.530198065,-0.232734153,0.793053987
488,1222671,556480,1.107,-1.075,-0.456,393,-19.3,138.9,-2.2,32.2,-11.3,0.175023652,0.532578509,-0.22257149,0.797570727
489,1226423,556490,1.107,-1.075,-0.456,393,-19.3,138.9,-2.2,32.2,-11.3,0.175023652,0.532578509,-0.22257149,0.797570727
490,1229127,556490,1.111,-1.063,-0.488,399.4,-20.7,140.5,-1.7,31.1,-13.8,0.167821284,0.533768731,-0.217322306,0.799768059
491,1232114,556490,1.122,-1.028,-0.484,405.1,-21.6,141.7,-1.7,31.1,-13.8,0.16052736,0.534928434,-0.211981567,0.801934874
492,1232488,556490,1.134,-0.982,-0.469,414.2,-19.8,147.6,-1.7,31.1,-13.8,0.14557329,0.537095248,-0.20105594,0.806146428
493,1235148,556500,1.134,-0.982,-0.469,414.2,-19.8,147.6,-1.7,31.1,-13.8,0.14557329,0.537095248,-0.20105594,0.806146428
494,1238978,556500,1.134,-0.982,-0.469,414.2,-19.8,147.6,-1.7,31.1,-13.8,0.14557329,0.537095248,-0.20105594,0.806146428
495,1241164,556500,1.229,-0.858,-0.463,421.2,-10.8,172.4,-1.2,29.8,-15.3,0.129703665,0.538651692,-0.19022187,0.810449538
496,1243500,556500,1.26,-0.808,-0.444,421.4,-6.1,182.7,-1.2,29.8,-15.3,0.121463668,0.539170507,-0.184942167,0.812585833
497,1245385,556510,1.288,-0.757,-0.445,421.4,-6.1,182.7,-1.2,29.8,-15.3,0.113254189,0.539628285,-0.179601428,0.814661092
498,1247556,556510,1.288,-0.757,-0.445,421.4,-6.1,182.7,-1.2,29.8,-15.3,0.113254189,0.539628285,-0.179601428,0.814661092
499,1251633,556510,1.327,-0.684,-0.457,418.6,8.8,205.3,-0.8,28,-16.8,0.104709006,0.539658803,-0.174565874,0.816858425
500,1253858,556510,1.424,-0.651,-0.506,413,29.1,228.1,-0.8,28,-16.8,0.0871608631,0.53889584,-0.164891507,0.821436201
501,1255271,556520,1.456,-0.608,-0.526,413,29.1,228.1,-0.8,28,-16.8,0.0783104953,0.538315989,-0.160100101,0.823664052
502,1258475,556520,1.456,-0.608,-0.526,413,29.1,228.1,-0.8,28,-16.8,0.0783104953,0.538315989,-0.160100101,0.823664052
503,1259881,556520,1.491,-0.488,-0.582,415.3,47.8,247.7,0.4,26.4,-18.3,0.0691549425,0.537247841,-0.155461287,0.826044496
504,1262703,556520,1.537,-0.466,-0.63,422.2,55,257.6,0.4,26.4,-18.3,0.0597552416,0.535996582,-0.150761437,0.828455458
505,1266080,556530,1.705,-0.364,-0.782,448.6,62.3,278.4,0.4,26.4,-18.3,0.0399487289,0.533005768,-0.141026032,0.833277383
506,1268406,556530,1.705,-0.364,-0.782,448.6,62.3,278.4,0.4,26.4,-18.3,0.0399487289,0.533005768,-0.141026032,0.833277383
507,1270329,556530,1.779,-0.291,-0.815,469.1,62.8,288.4,1.6,26.5,-18.2,0.0294198431,0.531357768,-0.135776849,0.835657826
508,1272607,556530,2.013,-0.182,-0.937,494.5,61.8,298.1,1.6,26.5,-18.2,0.0184331797,0.529618213,-0.130191961,0.837977233
509,1276562,556540,2.15,-0.114,-0.983,523.3,59.5,308,1.6,26.5,-18.2,0.00692770165,0.527817621,-0.124118778,0.840174566
510,1278828,556540,2.251,0,-1.016,553.4,56.3,318.9,1.6,26.5,-18.2,0.00509659108,-0.525955992,0.117648854,-0.842310862
511,1281086,556540,2.423,0.157,-1.145,583.1,52.3,331.2,1.6,26.5,-18.2,0.0177007355,-0.524002808,0.110721152,-0.844264046
512,1282562,556540,2.528,0.201,-1.229,609.8,47.7,345.4,1.6,26.5,-18.2,0.0309457686,-0.521988586,0.103427229,-0.846064638
513,1286579,556550,2.622,0.309,-1.262,631,42.5,360.4,1.6,26.5,-18.2,0.0447096164,-0.519913327,0.0959196753,-0.847621082
514,1288902,556550,2.627,0.473,-1.271,645.2,37,374.3,1.6,26.5,-18.2,0.0588702048,-0.517746513,0.0882595294,-0.84890286
515,1291236,556550,2.627,0.473,-1.271,645.2,37,374.3,1.6,26.5,-18.2,0.0588702048,-0.517746513,0.0882595294,-0.84890286
516,1292719,556550,2.482,0.842,-1.406,645.5,26.3,393.7,1.6,26.5,-18.2,0.0733359783,-0.515610218,0.0807519761,-0.849818415
517,1296075,556560,2.443,0.897,-1.46,624.8,22.7,401.4,1.6,26.5,-18.2,0.0878017518,-0.513412885,0.0737327189,-0.850428785
518,1298342,556560,2.416,1.015,-1.432,587.7,23.1,409.3,1.6,26.5,-18.2,0.101931822,-0.511123997,0.0674459059,-0.85073397
519,1300441,556560,2.416,1.019,-1.452,536.4,29.8,416.8,1.6,26.5,-18.2,0.115604114,-0.508713034,0.0621967223,-0.850856044
520,1302710,556560,3.218,1.103,-1.385,475.5,43.6,421.7,5.2,15.4,-25.4,0.128635517,-0.506057924,0.0581377606,-0.850825526
521,1305011,556570,2.948,1.018,-1.309,407.1,68,418.6,5.2,15.4,-25.4,0.140812403,-0.503097629,0.0553910947,-0.850856044
522,1307539,556570,2.432,0.906,-1.315,331.1,107,400.6,5.2,15.4,-25.4,0.151738029,-0.499557482,0.0539567248,-0.851130711
523,1311293,556570,2.163,0.836,-1.29,251.2,159.1,364.7,5.2,15.4,-25.4,0.161046175,-0.495315409,0.0538041322,-0.851924192
524,1313644,556570,1.631,0.852,-1.456,128.8,257.1,264.8,7.2,15,-23.9,0.167058321,-0.48976104,0.0551774651,-0.853877377
525,1315215,556580,1.298,0.893,-1.529,111.1,283.9,222.5,7.2,15,-23.9,0.172032838,-0.483779412,0.0565202795,-0.856227302
526,1318722,556580,1.264,1.105,-1.47,111.1,283.9,222.5,7.2,15,-23.9,0.176976836,-0.477767266,0.057863094,-0.858485672
527,1321017,556580,0.921,1.15,-1.455,124.6,296.5,197.4,7.2,15,-23.9,0.18161565,-0.471480453,0.0587176122,-0.860957671
528,1322917,556580,0.921,1.15,-1.455,124.6,296.5,197.4,7.2,15,-23.9,0.18161565,-0.471480453,0.0587176122,-0.860957671
529,1325251,556590,0.829,1.289,-1.211,198.4,303,212.8,8.2,13.7,-24.5,0.187261574,-0.464705344,0.0583819086,-0.86342967
530,1327429,556590,1.088,1.523,-0.461,245.8,299.2,289.6,8.2,13.7,-24.5,0.201391644,-0.450636311,0.0572832423,-0.867763298
531,1329945,556590,1.07,1.458,-0.182,238.1,290.8,329.4,8.2,13.7,-24.5,0.209631642,-0.443647572,0.0572832423,-0.869441816
532,1333517,556590,1.07,1.458,-0.182,238.1,290.8,329.4,8.2,13.7,-24.5,0.209631642,-0.443647572,0.0572832423,-0.869441816
533,1335819,556600,0.998,1.22,0.378,203.2,278.4,360.1,9.9,12.1,-23.6,0.21805475,-0.436964019,0.0581987976,-0.870693075
534,1337787,556600,0.858,1.04,0.671,141.1,263.9,377.2,9.9,12.1,-23.6,0.226233711,-0.430768761,0.0603350932,-0.871547594
535,1340048,556600,0.635,0.627,0.813,58.4,248.2,380.3,9.9,12.1,-23.6,0.23361919,-0.425244911,0.0640583514,-0.87203589
536,1343344,556600,0.438,0.118,0.786,-30,228.8,371.7,9.9,12.1,-23.6,0.240119633,-0.420484024,0.069246498,-0.872157964
537,1345250,556610,0.438,0.118,0.786,-30,228.8,371.7,9.9,12.1,-23.6,0.240119633,-0.420484024,0.069246498,-0.872157964
538,1347600,556610,0.362,-0.726,0.249,-148.6,168.1,338.9,10.8,12.1,-22.9,0.244941557,-0.417554247,0.0760521256,-0.871669668
539,1350969,556610,0.344,-0.822,0.594,-159.7,129.3,326.1,10.8,12.1,-22.9,0.249458296,-0.415387432,0.0827356792,-0.870815149
540,1353296,556610,0.833,-1.345,3.084,-114.1,48.6,331.8,10.8,12.1,-22.9,0.259285257,-0.412945952,0.0943327128,-0.867915891
541,1355246,556620,0.833,-1.345,3.084,-114.1,48.6,331.8,10.8,12.1,-22.9,0.259285257,-0.412945952,0.0943327128,-0.867915891
542,1357576,556620,4.055,-0.937,3.45,-70.2,11.8,352.4,11.8,12,-23.1,0.265297403,-0.4123661,0.0988799707,-0.865871151
543,1359913,556620,5.888,-1.087,2.323,-8.5,-19,378.7,11.8,12,-23.1,0.272408216,-0.411969359,0.102359081,-0.863460189
544,1363835,556620,6.621,0.869,-3.096,71.2,-53.6,401,11.8,12,-23.1,0.28070925,-0.411633656,0.104281747,-0.860713523
545,1366033,556630,5.764,3.135,-5.954,172.6,-116.6,402.1,11.8,12,-23.1,0.290078433,-0.411816767,0.103946043,-0.857570116
546,1368176,556630,1.452,7.903,-8.036,524.3,-408,218.2,11.7,9.5,-23.2,0.2997528,-0.415601062,0.0934781945,-0.85360271
547,1370228,556630,-1.031,7.945,-7.982,524.3,-408,218.2,11.7,9.5,-23.2,0.309366131,-0.419293802,0.0830408643,-0.849452193
548,1372528,556630,-1.695,7.952,-7.977,793.5,-609.6,-18,11.7,9.5,-23.2,0.317331462,-0.425153356,0.0640278329,-0.84521012
549,1375667,556640,-1.083,7.955,-6.192,1100.6,-779.4,-325.8,11.7,9.5,-23.2,0.322458571,-0.432172613,0.035279397,-0.841395306
550,1377755,556640,-1.083,7.955,-6.192,1100.6,-779.4,-325.8,11.7,9.5,-23.2,0.322458571,-0.432172613,0.035279397,-0.841395306
551,1380044,556640,1.185,7.948,0.022,1486.7,-720.6,-790,8.7,6.5,-24.5,0.32227546,-0.435193945,-0.0045167394,-0.840632344
552,1383106,556640,2.196,7.948,3.276,831.4,-122.7,-741.8,8.7,6.5,-24.5,0.313577685,-0.429639576,-0.062715537,-0.844447157
553,1385280,556650,1.382,7.96,2.939,831.4,-122.7,-741.8,8.7,6.5,-24.5,0.307443464,-0.425092318,-0.0857875301,-0.846980193
554,1387449,556650,1.382,7.96,2.939,831.4,-122.7,-741.8,8.7,6.5,-24.5,0.307443464,-0.425092318,-0.0857875301,-0.846980193
555,1390599,556650,0.255,6.871,1.901,-555.9,414.7,-491.1,7.6,2.8,-23.7,0.293954283,-0.42014832,-0.0772423475,-0.855006561
556,1392754,556650,-0.981,2.235,-0.22,-1106.2,514,-341.3,7.6,2.8,-23.7,0.278206732,-0.416913358,-0.056428724,-0.863460189
557,1395021,556660,-1.018,0.415,-0.177,-1492.7,342.2,-13.3,7.6,2.8,-23.7,0.248695334,-0.417859432,0.00170903653,-0.873775445
558,1398163,556660,-1.018,0.415,-0.177,-1492.7,342.2,-13.3,7.6,2.8,-23.7,0.248695334,-0.417859432,0.00170903653,-0.873775445
559,1400291,556660,-1.018,0.415,-0.177,-1492.7,342.2,-13.3,7.6,2.8,-23.7,0.248695334,-0.417859432,0.00170903653,-0.873775445
560,1402539,556660,-0.725,-2.178,0.049,-1113.6,-127,206.7,9.5,8.5,-24.1,0.234504227,-0.432691427,0.0499893185,-0.869045076
561,1405665,556670,-0.435,-2.436,0.298,-1113.6,-127,206.7,9.5,8.5,-24.1,0.227973266,-0.440443129,0.072359386,-0.865321818
562,1407783,556670,-0.205,-2.728,0.447,-984.6,-195.3,148.1,9.5,8.5,-24.1,0.221564379,-0.448683126,0.0914029359,-0.860927152
563,1409940,556670,-0.205,-2.728,0.447,-984.6,-195.3,148.1,9.5,8.5,-24.1,0.221564379,-0.448683126,0.0914029359,-0.860927152
564,1413092,556670,0.207,-3.571,0.648,-747.3,-228.7,-82.1,9.3,13.8,-23.3,0.213110752,-0.456678976,0.103518784,-0.857478561
565,1416336,556680,0.514,-3.55,1.113,-625.2,-216.7,-197.8,9.3,13.8,-23.3,0.203650014,-0.464033937,0.112216559,-0.854731895
566,1418447,556680,0.695,-3.75,1.478,-514.7,-196,-277.4,9.3,13.8,-23.3,0.193731498,-0.470625935,0.11813715,-0.852626118
567,1420650,556680,1.126,-5.189,0.395,-438.5,-173.2,-302.6,9.3,13.8,-23.3,0.184026612,-0.476424451,0.12244026,-0.8509476
568,1423890,556680,1.249,-6.214,-0.089,-410.4,-154.4,-267.5,7.3,18.9,-22.1,0.175206763,-0.481643117,0.126651814,-0.849269082
569,1426021,556690,1.322,-6.528,-0.067,-419.6,-143.2,-178.6,7.3,18.9,-22.1,0.167882321,-0.486373486,0.131992553,-0.847224342
570,1428150,556690,0.931,-5.123,0.458,-436.2,-137.1,-52.5,7.3,18.9,-22.1,0.162663656,-0.490615558,0.138981292,-0.844660787
571,1430399,556690,1.006,-5.21,0.543,-437,-129.7,82.9,7.3,18.9,-22.1,0.159886471,-0.494277779,0.147465438,-0.841608936
572,1432603,556690,1.085,-4.847,0.666,-384.9,-92.7,261.8,7,20.4,-21.4,0.160832545,-0.496475112,0.157017731,-0.838404492
573,1434904,556700,1.303,-4.565,0.904,-384.9,-92.7,261.8,7,20.4,-21.4,0.161778619,-0.498580889,0.166570025,-0.835139012
574,1437468,556700,1.512,-4.067,1.126,-339.3,-69.1,284.5,7,20.4,-21.4,0.163518174,-0.499984741,0.175603504,-0.832117679
575,1440872,556700,1.586,-3.301,1.311,-275,-50.7,279.2,7,20.4,-21.4,0.165776543,-0.500808741,0.18344676,-0.829462569
576,1443697,556700,1.586,-3.301,1.311,-275,-50.7,279.2,7,20.4,-21.4,0.165776543,-0.500808741,0.18344676,-0.829462569
577,1445093,556710,1.629,-2.048,1.206,-68.8,-35.1,239,7.3,20.3,-21.3,0.169469283,-0.500717185,0.187170019,-0.827936644
578,1448292,556710,1.644,-1.114,0.629,156.6,-27.1,193.8,7.3,20.3,-21.3,0.179418317,-0.499313334,0.187627796,-0.826593829
579,1451271,556710,1.695,-0.861,0.443,156.6,-27.1,193.8,7.3,20.3,-21.3,0.184728538,-0.49836726,0.186803797,-0.82616657
580,1452655,556710,1.695,-0.861,0.443,156.6,-27.1,193.8,7.3,20.3,-21.3,0.184728538,-0.49836726,0.186803797,-0.82616657
581,1455654,556720,1.695,-0.861,0.443,156.6,-27.1,193.8,7.3,20.3,-21.3,0.184728538,-0.49836726,0.186803797,-0.82616657
582,1458618,556720,1.94,-0.371,0.066,194.3,6.2,143.7,7.5,19.3,-22.3,0.194524979,-0.49528489,0.18243965,-0.826746422
583,1460051,556720,2.031,-0.275,0.119,166,-0.7,143.1,7.5,19.3,-22.3,0.198889126,-0.494033631,0.180974761,-0.82677694
584,1463082,556720,2.125,-0.186,0.195,166,-0.7,143.1,7.5,19.3,-22.3,0.203253273,-0.492751854,0.179509873,-0.826807459
585,1466076,556730,2.125,-0.186,0.195,166,-0.7,143.1,7.5,19.3,-22.3,0.203253273,-0.492751854,0.179509873,-0.826807459
586,1467478,556730,2.205,0.074,0.385,184.1,-42.5,143.2,9.6,17.2,-22.5,0.207983642,-0.492141484,0.177556688,-0.826410718
587,1471335,556730,2.159,0.197,0.452,235,-66.5,140.6,9.6,17.2,-22.5,0.213324381,-0.491714225,0.174504837,-0.82595294
588,1472959,556730,2.148,0.408,0.488,300.1,-82.3,137.5,9.6,17.2,-22.5,0.219306009,-0.491256447,0.170201727,-0.8255562
589,1475674,556740,2.029,0.739,0.618,363.6,-84.5,134.8,9.6,17.2,-22.5,0.225959044,-0.490524003,0.164677877,-0.82534257
590,1478626,556740,1.871,1.043,0.773,411.2,-70.2,132.1,7.8,16.5,-23.6,0.232978301,-0.489272744,0.158330027,-0.825373089
591,1480063,556740,1.582,1.248,0.802,432.8,-41.6,128.1,7.8,16.5,-23.6,0.240028077,-0.487350078,0.151676992,-0.825739311
592,1482364,556740,1.399,1.333,0.75,425.2,-5.1,121,7.8,16.5,-23.6,0.246742149,-0.484786523,0.145268105,-0.826410718
593,1485533,556750,1.204,1.468,0.711,392.1,31.7,108,7.8,16.5,-23.6,0.252723777,-0.481734672,0.139500107,-0.827356792
594,1487588,556750,0.7,1.672,0.684,278.3,89.7,61.1,8.6,14.7,-23.5,0.256477554,-0.478377636,0.135624256,-0.82882168
595,1490531,556750,0.485,1.57,0.669,278.3,89.7,61.1,8.6,14.7,-23.5,0.260200812,-0.4750206,0.131717887,-0.830195013
596,1493645,556750,0.29,1.457,0.704,210.9,103.9,30.6,8.6,14.7,-23.5,0.262642293,-0.471846675,0.128818628,-0.831720939
597,1495142,556760,0.273,1.179,0.697,144.8,102.5,-0.8,8.6,14.7,-23.5,0.263832514,-0.469161046,0.126773888,-0.833155309
598,1498017,556760,0.273,1.179,0.697,144.8,102.5,-0.8,8.6,14.7,-23.5,0.263832514,-0.469161046,0.126773888,-0.833155309
599,1501273,556760,0.65,0.547,0.633,46.8,48.9,-53.3,9.4,13.9,-23.9,0.263222144,-0.468123417,0.125644704,-0.834101382
600,1502653,556760,1.106,0.169,0.821,26.9,-19,-73.3,9.4,13.9,-23.9,0.261207923,-0.468367565,0.123142186,-0.834986419
601,1505608,556770,1.207,0.004,0.827,26.9,-19,-73.3,9.4,13.9,-23.9,0.260200812,-0.468764306,0.12182989,-0.835261086
602,1508760,556770,1.207,0.004,0.827,26.9,-19,-73.3,9.4,13.9,-23.9,0.260200812,-0.468764306,0.12182989,-0.835261086
603,1510234,556770,1.207,0.004,0.827,26.9,-19,-73.3,9.4,13.9,-23.9,0.260200812,-0.468764306,0.12182989,-0.835261086
604,1513350,556770,1.336,-0.181,0.848,48.8,-18.2,-74.1,9.7,13.9,-23.5,0.258674886,-0.469405194,0.118198187,-0.835901975
605,1516203,556780,1.32,-0.146,0.872,48.8,-18.2,-74.1,9.7,13.9,-23.5,0.257850887,-0.469649342,0.116428114,-0.836268197
606,1517741,556780,1.246,-0.172,0.823,36,-8.8,-71.5,9.7,13.9,-23.5,0.256935331,-0.469801935,0.114993744,-0.836664937
607,1520838,556780,1.246,-0.172,0.823,36,-8.8,-71.5,9.7,13.9,-23.5,0.256935331,-0.469801935,0.114993744,-0.836664937
608,1523822,556780,1.202,-0.218,0.733,-15.3,4.2,-62.6,9.1,12.9,-24,0.255623035,-0.469954527,0.11465804,-0.837000641
609,1526027,556790,1.174,-0.277,0.683,-47.5,7.6,-59.1,9.1,12.9,-24,0.254036073,-0.470229194,0.114963225,-0.837305826
610,1527651,556790,1.15,-0.371,0.613,-75.5,8.9,-52.7,9.1,12.9,-24,0.252296518,-0.470625935,0.115817743,-0.837488937
611,1529874,556790,0.994,-0.317,0.596,-93,8.9,-39.4,9.1,12.9,-24,0.250587481,-0.471083712,0.117191076,-0.837549974
612,1532861,556790,0.912,-0.253,0.586,-98,7.6,-18.4,9.2,13.8,-23.5,0.249214148,-0.471510971,0.118839076,-0.837488937
613,1535069,556800,0.866,-0.194,0.567,-94.5,5.2,6,9.2,13.8,-23.5,0.24835963,-0.471907712,0.120670186,-0.837275307
614,1539149,556800,0.893,-0.191,0.571,-89.7,0.8,27.7,9.2,13.8,-23.5,0.247932371,-0.472304453,0.122592853,-0.836878567
615,1541421,556800,0.936,-0.238,0.594,-88,-4.9,42.7,9.2,13.8,-23.5,0.247810297,-0.47276223,0.124607074,-0.836359752
616,1543691,556800,0.991,-0.294,0.643,-89.3,-16.3,53.9,9.3,14.3,-23.4,0.247932371,-0.473403119,0.126712851,-0.835657826
617,1545865,556810,0.999,-0.278,0.651,-89.3,-16.3,53.9,9.3,14.3,-23.4,0.248023927,-0.474044008,0.12878811,-0.834955901
618,1548001,556810,0.983,-0.25,0.64,-85.5,-19.9,53.6,9.3,14.3,-23.4,0.248176519,-0.474715415,0.130802332,-0.834223457
619,1550134,556810,0.948,-0.215,0.617,-76.9,-22,52.3,9.3,14.3,-23.4,0.248390149,-0.475386822,0.132633442,-0.833460494
620,1552418,556810,0.948,-0.215,0.617,-76.9,-22,52.3,9.3,14.3,-23.4,0.248390149,-0.475386822,0.132633442,-0.833460494
621,1554981,556820,0.776,-0.189,0.542,-55.3,-22,52.1,9.2,14.5,-23.4,0.248817408,-0.475936155,0.134067812,-0.832789087
622,1559510,556820,0.756,-0.204,0.518,-48.5,-20.6,54.1,9.2,14.5,-23.4,0.249366741,-0.476393933,0.135380108,-0.832148198
623,1561701,556820,0.728,-0.208,0.496,-45.9,-19.7,55.8,9.2,14.5,-23.4,0.249946593,-0.476851711,0.136692404,-0.831507309
624,1563999,556820,0.716,-0.231,0.464,-46.3,-20,55.7,9.2,14.5,-23.4,0.250556963,-0.477309488,0.1380047,-0.83086642
625,1566287,556830,0.716,-0.231,0.464,-46.3,-20,55.7,9.2,14.5,-23.4,0.250556963,-0.477309488,0.1380047,-0.83086642
626,1568347,556830,0.692,-0.325,0.379,-50.4,-23.5,49.4,8.1,14.7,-23.5,0.250984222,-0.477858821,0.139316996,-0.830195013
627,1569934,556830,0.68,-0.337,0.352,-52,-24.8,45.3,8.1,14.7,-23.5,0.251350444,-0.478438673,0.140598773,-0.829523606
628,1573919,556830,0.656,-0.348,0.297,-53,-24.9,41.5,8.1,14.7,-23.5,0.251899777,-0.479659413,0.143101291,-0.82821131
629,1576270,556840,0.656,-0.348,0.297,-53,-24.9,41.5,8.1,14.7,-23.5,0.251899777,-0.479659413,0.143101291,-0.82821131
630,1578476,556840,0.633,-0.348,0.263,-56.9,-20.6,33.9,9.8,14.7,-23.3,0.251960814,-0.480239265,0.14435255,-0.827631458
631,1580052,556840,0.645,-0.333,0.258,-61.7,-17.4,30.3,9.8,14.7,-23.3,0.251930296,-0.480819117,0.145695364,-0.827082125
632,1582595,556840,0.672,-0.267,0.246,-68.6,-14.7,27,9.8,14.7,-23.3,0.251747185,-0.48136845,0.147160253,-0.826563311
633,1587006,556850,0.7,-0.216,0.253,-77,-13,24.2,9.8,14.7,-23.3,0.251411481,-0.481948302,0.148716697,-0.826044496
634,1588944,556850,0.755,-0.123,0.252,-86.4,-12,22,9.6,15.3,-23,0.250953703,-0.482558672,0.150456252,-0.825525681
635,1591319,556850,0.751,-0.096,0.252,-96.3,-11.1,20.1,9.6,15.3,-23,0.250312815,-0.483230079,0.152317881,-0.824976348
636,1593541,556850,0.739,-0.092,0.256,-106.1,-9.6,18.2,9.6,15.3,-23,0.24958037,-0.483932005,0.154393139,-0.824396496
637,1595926,556860,0.743,-0.084,0.272,-114.6,-7.3,16,9.6,15.3,-23,0.248664815,-0.48463393,0.156559954,-0.823847163
638,1599062,556860,0.743,-0.084,0.272,-114.6,-7.3,16,9.6,15.3,-23,0.248664815,-0.48463393,0.156559954,-0.823847163
639,1601028,556860,0.755,-0.092,0.299,-122.3,-0.8,9.5,9.8,15.7,-22.9,0.24753563,-0.485274819,0.15887936,-0.823389386
640,1603396,556860,0.72,-0.091,0.323,-120,2.7,5.2,9.8,15.7,-22.9,0.245185705,-0.486434523,0.163304544,-0.822534867
641,1605237,556870,0.708,-0.083,0.316,-114.3,6.7,0,9.8,15.7,-22.9,0.243934446,-0.486922819,0.165410321,-0.822199164
642,1607723,556870,0.708,-0.083,0.316,-114.3,6.7,0,9.8,15.7,-22.9,0.243934446,-0.486922819,0.165410321,-0.822199164
643,1609894,556870,0.704,-0.099,0.323,-99.6,15.9,-11.3,9.6,16,-22.7,0.24262215,-0.487197485,0.167149876,-0.82207709
644,1613779,556870,0.708,-0.099,0.323,-93.5,20.5,-17,9.6,16,-22.7,0.241248817,-0.487380596,0.168767357,-0.822016053
645,1615657,556880,0.704,-0.099,0.32,-88.9,24.9,-22.5,9.6,16,-22.7,0.239783929,-0.487472152,0.170232246,-0.82207709
646,1617528,556880,0.712,-0.083,0.323,-85.9,28.9,-28.1,9.6,16,-22.7,0.238258003,-0.48750267,0.171636097,-0.822229682
647,1620116,556880,0.712,-0.083,0.323,-85.9,28.9,-28.1,9.6,16,-22.7,0.238258003,-0.48750267,0.171636097,-0.822229682
648,1622515,556880,0.743,-0.111,0.303,-83.2,35.3,-39.3,8.3,16.6,-22.7,0.236548967,-0.487472152,0.172887356,-0.82247383
649,1626524,556890,0.763,-0.108,0.307,-82.5,37.9,-44.6,8.3,16.6,-22.7,0.234717856,-0.487380596,0.174108097,-0.822809534
650,1629199,556890,0.79,-0.112,0.334,-81.3,40.4,-49.7,8.3,16.6,-22.7,0.230903043,-0.487136448,0.176366466,-0.823541978
651,1631086,556890,0.79,-0.112,0.334,-81.3,40.4,-49.7,8.3,16.6,-22.7,0.230903043,-0.487136448,0.176366466,-0.823541978
652,1633479,556890,0.767,-0.119,0.334,-78.1,45.1,-59.5,10,17.3,-22.2,0.228827784,-0.486953337,0.177373577,-0.824030274
653,1635193,556900,0.735,-0.135,0.315,-77.2,46.9,-64.5,10,17.3,-22.2,0.22666097,-0.486739708,0.178319651,-0.824549089
654,1638762,556900,0.727,-0.15,0.304,-76.6,48.1,-69.7,10,17.3,-22.2,0.2244026,-0.486526078,0.179174169,-0.825098422
655,1641071,556900,0.72,-0.166,0.288,-76.4,48.5,-75.1,10,17.3,-22.2,0.222052675,-0.486312449,0.179998169,-0.825678274
656,1642592,556900,0.731,-0.182,0.276,-76.1,48.3,-80.4,10,18,-21.8,0.219611194,-0.486129337,0.180761132,-0.826288644
657,1647047,556910,0.735,-0.201,0.276,-75.6,47.6,-85.5,10,18,-21.8,0.217078158,-0.485946226,0.181432539,-0.826899014
658,1649308,556910,0.727,-0.209,0.265,-74.9,47,-90.6,10,18,-21.8,0.214453566,-0.485824152,0.182042909,-0.827539903
659,1651377,556910,0.727,-0.217,0.268,-74.2,46.5,-95.4,10,18,-21.8,0.211767937,-0.485702078,0.182592242,-0.828180792
660,1653597,556910,0.727,-0.217,0.268,-74.2,46.5,-95.4,10,18,-21.8,0.211767937,-0.485702078,0.182592242,-0.828180792
661,1655664,556920,0.727,-0.24,0.253,-72.6,45.6,-104,10.3,18,-21.7,0.208929716,-0.485641041,0.183019501,-0.828852199
662,1657579,556920,0.731,-0.24,0.253,-71.6,44.4,-108.2,10.3,18,-21.7,0.206030457,-0.485580004,0.183355205,-0.829523606
663,1661595,556920,0.735,-0.24,0.264,-70.6,42.3,-112.3,10.3,18,-21.7,0.200109867,-0.485580004,0.183935057,-0.830835902
664,1664022,556920,0.735,-0.24,0.264,-70.6,42.3,-112.3,10.3,18,-21.7,0.200109867,-0.485580004,0.183935057,-0.830835902
665,1666364,556930,0.743,-0.236,0.288,-69.5,35.6,-120.3,9.4,18.8,-21.4,0.197058016,-0.485702078,0.184057131,-0.831446272
666,1668264,556930,0.751,-0.233,0.307,-70.1,31.5,-123.8,9.4,18.8,-21.4,0.193945128,-0.485946226,0.184148686,-0.832026124
667,1669946,556930,0.774,-0.233,0.311,-71.7,27.4,-126.8,9.4,18.8,-21.4,0.190771203,-0.486251411,0.184240242,-0.832575457
668,1673735,556930,0.735,-0.283,0.308,-74.4,23.7,-129.2,9.4,18.8,-21.4,0.187536241,-0.486648152,0.184301279,-0.833063753
669,1676595,556940,0.735,-0.283,0.308,-74.4,23.7,-129.2,9.4,18.8,-21.4,0.187536241,-0.486648152,0.184301279,-0.833063753
670,1678968,556940,0.727,-0.31,0.308,-80.1,17.1,-132.1,9,19,-20.8,0.184209723,-0.487197485,0.184423353,-0.833460494
671,1680906,556940,0.711,-0.314,0.296,-81.6,14.1,-133,9,19,-20.8,0.180852687,-0.487777337,0.184545427,-0.833796197
672,1682917,556940,0.684,-0.325,0.281,-81.7,11.2,-134.2,9,19,-20.8,0.177495651,-0.488448744,0.184667501,-0.834131901
673,1685236,556950,0.664,-0.325,0.258,-81,8.1,-135.9,9,19,-20.8,0.174138615,-0.48915067,0.184728538,-0.834406568
674,1687463,556950,0.629,-0.325,0.231,-79.7,4.2,-138.2,9,19.4,-21,0.170751061,-0.489944151,0.184698019,-0.834650716
675,1691352,556950,0.613,-0.313,0.228,-78.5,-0.9,-141,9,19.4,-21,0.167332987,-0.490798669,0.184636982,-0.834833827
676,1693727,556950,0.648,-0.317,0.211,-77.2,-7.9,-143.7,9,19.4,-21,0.163914914,-0.49180578,0.184453871,-0.834955901
677,1695237,556960,0.644,-0.302,0.208,-75.7,-16.6,-146.3,9,19.4,-21,0.16052736,-0.492965484,0.184209723,-0.835016938
678,1698459,556960,0.644,-0.302,0.208,-75.7,-16.6,-146.3,9,19.4,-21,0.16052736,-0.492965484,0.184209723,-0.835016938
679,1700229,556960,0.75,-0.221,0.198,-71.3,-36.6,-149.8,8.7,20.5,-19.9,0.153752251,-0.495803705,0.183416242,-0.83477279
680,1702555,556960,0.75,-0.214,0.201,-69.2,-46.5,-150.3,8.7,20.5,-19.9,0.150456252,-0.497482223,0.182897427,-0.834467605
681,1705022,556970,0.75,-0.214,0.201,-68,-54.9,-149.9,8.7,20.5,-19.9,0.14722129,-0.499313334,0.182317576,-0.834101382
682,1708654,556970,0.75,-0.214,0.201,-68,-54.9,-149.9,8.7,20.5,-19.9,0.14722129,-0.499313334,0.182317576,-0.834101382
683,1711131,556970,0.774,-0.183,0.197,-68.7,-65.6,-149,8.4,20.6,-19.5,0.144016846,-0.501327555,0.181737724,-0.833582568
684,1713156,556970,0.844,-0.113,0.227,-69.1,-69.1,-149.2,8.4,20.6,-19.5,0.140812403,-0.503372295,0.181157872,-0.833002716
685,1715161,556980,0.927,-0.044,0.249,-69.2,-72.4,-149.9,8.4,20.6,-19.5,0.137607959,-0.505508591,0.180547502,-0.832392346
686,1717533,556980,0.88,-0.063,0.269,-69.2,-72.4,-149.9,8.4,20.6,-19.5,0.134403516,-0.507614368,0.179906613,-0.831781976
687,1721140,556980,0.887,-0.126,0.203,-76.3,-77.1,-150.4,7.2,21.5,-22.5,0.131138035,-0.509811701,0.179418317,-0.831049532
688,1723621,556980,0.879,-0.165,0.191,-85,-78,-150,7.2,21.5,-22.5,0.127780999,-0.51207007,0.179052095,-0.830286569
689,1725813,556990,0.926,-0.127,0.225,-94.9,-77.9,-150.5,7.2,21.5,-22.5,0.124301889,-0.51432844,0.178868984,-0.829432051
690,1727788,556990,0.965,-0.127,0.24,-104.3,-75.8,-153.1,7.2,21.5,-22.5,0.120639668,-0.516556291,0.178838466,-0.828577532
691,1730065,556990,0.965,-0.127,0.24,-104.3,-75.8,-153.1,7.2,21.5,-22.5,0.120639668,-0.516556291,0.178838466,-0.828577532
692,1733441,556990,0.965,-0.127,0.24,-104.3,-75.8,-153.1,7.2,21.5,-22.5,0.120639668,-0.516556291,0.178838466,-0.828577532
693,1735275,557000,1.048,-0.113,0.243,-130.5,-57.1,-170.3,6.9,21.9,-20.1,0.111423078,-0.521591845,0.178380688,-0.826837977
694,1737714,557000,1.106,-0.122,0.206,-137.5,-49.3,-177.6,6.9,21.9,-20.1,0.106845302,-0.523514512,0.178716391,-0.82616657
695,1739992,557000,1.106,-0.122,0.206,-144.3,-42,-184.1,6.9,21.9,-20.1,0.102023377,-0.525315104,0.179113132,-0.825525681
696,1742906,557000,1.106,-0.122,0.206,-144.3,-42,-184.1,6.9,21.9,-20.1,0.102023377,-0.525315104,0.179113132,-0.825525681
697,1745049,557010,1.148,-0.224,0.147,-161.6,-26.8,-192.2,5.9,23.5,-19.4,0.0968352306,-0.526902066,0.179784539,-0.825006867
698,1748203,557010,1.179,-0.233,0.143,-161.6,-26.8,-192.2,5.9,23.5,-19.4,0.0916165654,-0.52845851,0.180425428,-0.824457533
699,1751110,557010,1.218,-0.296,0.13,-178.2,-7.9,-196.2,5.9,23.5,-19.4,0.0806604205,-0.53111362,0.182103946,-0.82351146
700,1752582,557010,1.218,-0.296,0.13,-178.2,-7.9,-196.2,5.9,23.5,-19.4,0.0806604205,-0.53111362,0.182103946,-0.82351146
701,1755901,557020,1.257,-0.363,0.13,-190.9,12.4,-195.8,5.2,24.4,-18.6,0.0748619037,-0.531998657,0.183294168,-0.823236793
702,1757865,557020,1.245,-0.406,0.122,-196.8,22.3,-193.6,5.2,24.4,-18.6,0.0690023499,-0.532700583,0.184606464,-0.823023164
703,1760053,557020,1.225,-0.445,0.115,-201.9,31,-190.9,5.2,24.4,-18.6,0.0630817591,-0.533188879,0.186071352,-0.822840052
704,1763128,557020,1.194,-0.483,0.108,-201.9,31,-190.9,5.2,24.4,-18.6,0.0572222053,-0.533677175,0.187505722,-0.822626423
705,1765269,557030,1.108,-0.572,0.098,-204.8,42.8,-183.2,4.5,25.4,-20.6,0.0513626514,-0.533921323,0.189092685,-0.822504349
706,1767629,557030,1.065,-0.61,0.091,-201.2,45.7,-177,4.5,25.4,-20.6,0.0456556902,-0.534043397,0.190710166,-0.822382275
707,1769930,557030,1.037,-0.625,0.091,-194.1,47.1,-169,4.5,25.4,-20.6,0.0401623585,-0.534073916,0.19226661,-0.822290719
708,1773679,557030,0.987,-0.57,0.112,-184.2,47.7,-160.4,4.5,25.4,-20.6,0.0349436934,-0.534043397,0.193731498,-0.822199164
709,1776156,557040,0.987,-0.57,0.112,-184.2,47.7,-160.4,4.5,25.4,-20.6,0.0349436934,-0.534043397,0.193731498,-0.822199164
710,1778466,557040,0.877,-0.58,0.106,-162.1,48.3,-144,4.5,25.9,-18.1,0.0252693258,-0.533799249,0.19635609,-0.82207709
711,1780592,557040,0.869,-0.568,0.102,-152.7,48.7,-137.4,4.5,25.9,-18.1,0.020844142,-0.53358562,0.197485275,-0.822046571
712,1782681,557040,0.862,-0.556,0.102,-144.6,49,-132.9,4.5,25.9,-18.1,0.0165715506,-0.533341472,0.198583941,-0.822046571
713,1784829,557050,0.862,-0.556,0.102,-144.6,49,-132.9,4.5,25.9,-18.1,0.0165715506,-0.533341472,0.198583941,-0.822046571
714,1788735,557050,0.905,-0.553,0.101,-131.1,48.8,-133.4,4.1,26.3,-18.6,0.0124515519,-0.533097324,0.199407941,-0.822107608
715,1790038,557050,0.924,-0.545,0.101,-125.5,48.3,-137.7,4.1,26.3,-18.6,0.00830103458,-0.532853175,0.200079348,-0.822138127
716,1794008,557050,0.952,-0.546,0.112,-120.7,47.2,-143.8,4.1,26.3,-18.6,0.00411999878,-0.532639546,0.200567644,-0.822199164
717,1796314,557060,0.979,-0.538,0.127,-116.6,45.6,-150.4,4.1,26.3,-18.6,0.000122074038,0.532486953,-0.200903348,0.822229682
718,1798465,557060,1.03,-0.531,0.154,-113.5,43.3,-156.7,4,27.1,-18.5,0.00442518387,0.532395398,-0.201116977,0.822199164
719,1800719,557060,1.046,-0.547,0.161,-112.1,39.7,-161.8,4,27.1,-18.5,0.00881984924,0.532364879,-0.20126957,0.822168645
720,1803809,557060,1.069,-0.551,0.169,-112.5,35,-165.5,4,27.1,-18.5,0.0132450331,0.532456435,-0.201330607,0.822016053
721,1805950,557070,1.077,-0.551,0.173,-114.2,29.6,-167.5,4,27.1,-18.5,0.0177007355,0.532609027,-0.201391644,0.821802423
722,1807330,557070,1.077,-0.551,0.173,-114.2,29.6,-167.5,4,27.1,-18.5,0.0177007355,0.532609027,-0.201391644,0.821802423
723,1810643,557070,1.108,-0.556,0.192,-116.3,24.4,-167.8,3.4,27.6,-18.5,0.0221869564,0.532853175,-0.201544237,0.821527757
724,1812582,557070,1.108,-0.544,0.207,-119.3,16.7,-163.4,3.4,27.6,-18.5,0.0310068056,0.533524583,-0.201940977,0.820703757
725,1815983,557080,1.097,-0.524,0.215,-119.3,15.1,-159.4,3.4,27.6,-18.5,0.0353099155,0.533860286,-0.202215644,0.820245979
726,1818118,557080,1.097,-0.524,0.215,-119.3,15.1,-159.4,3.4,27.6,-18.5,0.0353099155,0.533860286,-0.202215644,0.820245979
727,1820220,557080,1.058,-0.492,0.231,-116.4,16,-150.6,2.6,28.1,-16.1,0.0394299142,0.534165471,-0.202551347,0.819788202
728,1823546,557080,1.07,-0.43,0.239,-113.8,16.9,-146.7,2.6,28.1,-16.1,0.0475783563,0.534653768,-0.203161718,0.818872646
729,1825698,557090,1.097,-0.415,0.242,-111.2,17.1,-143.7,2.6,28.1,-16.1,0.051515244,0.534867397,-0.203436384,0.818414869
730,1828527,557090,1.097,-0.415,0.242,-111.2,17.1,-143.7,2.6,28.1,-16.1,0.051515244,0.534867397,-0.203436384,0.818414869
731,1830305,557090,1.129,-0.392,0.242,-109.6,16.4,-139.4,2.3,28.5,-16.9,0.0553605762,0.535081027,-0.203772088,0.817957091
732,1832365,557090,1.137,-0.372,0.253,-110.8,16.6,-137.2,2.3,28.5,-16.9,0.0591753899,0.535233619,-0.204107791,0.817499313
733,1836344,557100,1.141,-0.357,0.265,-113.2,17.8,-134.6,2.3,28.5,-16.9,0.0668050172,0.535538804,-0.204870754,0.816522721
734,1838655,557100,1.141,-0.357,0.265,-113.2,17.8,-134.6,2.3,28.5,-16.9,0.0668050172,0.535538804,-0.204870754,0.816522721
735,1840809,557100,1.141,-0.357,0.265,-113.2,17.8,-134.6,2.3,28.5,-16.9,0.0668050172,0.535538804,-0.204870754,0.816522721
736,1842785,557100,1.133,-0.36,0.281,-125,23.4,-125.8,1.5,28.8,-16.3,0.0744041261,0.535508286,-0.206213569,0.815546129
737,1845934,557110,1.117,-0.384,0.269,-130.1,24.8,-123,1.5,28.8,-16.3,0.0782189398,0.535386212,-0.207037568,0.815057833
738,1847516,557110,1.105,-0.411,0.262,-135,26,-120.6,1.5,28.8,-16.3,0.082064272,0.535233619,-0.207983642,0.814539018
739,1849872,557110,1.105,-0.411,0.262,-135,26,-120.6,1.5,28.8,-16.3,0.082064272,0.535233619,-0.207983642,0.814539018
740,1853587,557110,1.082,-0.457,0.247,-138.9,27.3,-118.8,1.1,29,-16.3,0.0859401227,0.535050508,-0.209021271,0.814020203
741,1855894,557120,1.074,-0.469,0.247,-140.7,28.8,-117.7,1.1,29,-16.3,0.0897854549,0.53480636,-0.210089419,0.81347087
742,1857801,557120,1.066,-0.492,0.235,-138.1,32.2,-116.7,1.1,29,-16.3,0.0974761193,0.53419599,-0.212134159,0.812433241
743,1860140,557120,1.066,-0.492,0.235,-138.1,32.2,-116.7,1.1,29,-16.3,0.0974761193,0.53419599,-0.212134159,0.812433241
744,1863455,557120,1.046,-0.512,0.224,-133,34.5,-114.5,0.9,29.3,-15.7,0.101229896,0.533829768,-0.213110752,0.811975463
745,1865306,557130,1.038,-0.523,0.22,-133,34.5,-114.5,0.9,29.3,-15.7,0.104953154,0.533433027,-0.214056825,0.811517685
746,1868646,557130,1.003,-0.542,0.197,-129.5,36.3,-110.4,0.9,29.3,-15.7,0.112277596,0.532609027,-0.215918455,0.81060213
747,1870634,557130,1.003,-0.542,0.197,-129.5,36.3,-110.4,0.9,29.3,-15.7,0.112277596,0.532609027,-0.215918455,0.81060213
748,1873752,557130,0.96,-0.557,0.19,-124.8,39.4,-107.5,0.5,31.2,-13.2,0.115817743,0.532090213,-0.216772973,0.81020539
749,1875883,557140,0.936,-0.572,0.175,-124.8,39.4,-107.5,0.5,31.2,-13.2,0.119357891,0.531601917,-0.217627491,0.80977813
750,1877473,557140,0.846,-0.626,0.142,-115.1,43.1,-106,0.5,31.2,-13.2,0.126255074,0.53050325,-0.21909238,0.809076205
751,1881141,557140,0.846,-0.626,0.142,-115.1,43.1,-106,0.5,31.2,-13.2,0.126255074,0.53050325,-0.21909238,0.809076205
752,1882498,557140,0.834,-0.684,0.115,-97.9,45.3,-103.9,0.5,31.2,-13.2,0.129428999,0.529923399,-0.219519639,0.808832057
753,1886320,557150,0.807,-0.625,0.123,-85.6,45.1,-102.8,0.5,31.2,-13.2,0.132450331,0.529374065,-0.21970275,0.808648946
754,1887752,557150,0.811,-0.551,0.127,-85.6,45.1,-102.8,0.5,31.2,-13.2,0.135471664,0.528794214,-0.219885861,0.808465835
755,1890789,557150,0.835,-0.493,0.142,-72.2,43.4,-101.7,0.5,31.2,-13.2,0.138309885,0.528305918,-0.219855342,0.808313242
756,1892312,557150,0.835,-0.493,0.142,-72.2,43.4,-101.7,0.5,31.2,-13.2,0.138309885,0.528305918,-0.219855342,0.808313242
757,1896253,557160,0.871,-0.415,0.2,-57.3,24.9,-101.9,0.5,31.2,-13.2,0.140415662,0.528366955,-0.220374157,0.807763909
758,1898664,557160,0.87,-0.45,0.188,-63.7,18.3,-104.1,0.5,31.2,-13.2,0.143070772,0.528305918,-0.220221564,0.807367168
759,1900884,557160,0.866,-0.481,0.172,-71.3,14,-106.6,0.5,31.2,-13.2,0.145847957,0.528397473,-0.220221564,0.806848354
760,1902809,557160,0.843,-0.501,0.149,-71.3,14,-106.6,0.5,31.2,-13.2,0.148594623,0.528427992,-0.220191046,0.806329539
761,1905754,557170,0.843,-0.501,0.149,-71.3,14,-106.6,0.5,31.2,-13.2,0.148594623,0.528427992,-0.220191046,0.806329539
762,1907426,557170,0.831,-0.512,0.165,-75,13.7,-108.5,-0.7,30.3,-14.2,0.154332102,0.528489029,-0.220282601,0.805169836
763,1911317,557170,0.815,-0.52,0.166,-69.9,14.2,-106.3,-0.7,30.3,-14.2,0.157078768,0.528519547,-0.220221564,0.804651021
764,1913341,557170,0.804,-0.512,0.174,-64.8,14,-103.2,-0.7,30.3,-14.2,0.15970336,0.528550066,-0.220130009,0.804132206
765,1916364,557180,0.804,-0.512,0.174,-64.8,14,-103.2,-0.7,30.3,-14.2,0.15970336,0.528550066,-0.220130009,0.804132206
766,1917875,557180,0.835,-0.461,0.196,-59.9,9,-97.7,-1.6,32.6,-12.1,0.164677877,0.528702658,-0.219916379,0.803094577
767,1920070,557180,0.863,-0.458,0.208,-59.9,3.7,-95.8,-1.6,32.6,-12.1,0.167058321,0.528855251,-0.219824824,0.802514725
768,1923802,557180,0.863,-0.458,0.208,-60.7,-2.8,-94,-1.6,32.6,-12.1,0.169377728,0.529160436,-0.219824824,0.801843318
769,1925372,557190,0.863,-0.458,0.208,-60.7,-2.8,-94,-1.6,32.6,-12.1,0.169377728,0.529160436,-0.219824824,0.801843318
770,1927593,557190,0.902,-0.411,0.23,-61.2,-9.4,-92,-1.6,31.2,-13.3,0.171666616,0.529526658,-0.219855342,0.801080355
771,1931438,557190,0.914,-0.372,0.242,-60.6,-19.2,-86.2,-1.6,31.2,-13.3,0.175969726,0.53050325,-0.22009949,0.799432356
772,1933600,557190,0.918,-0.337,0.242,-59.8,-21.6,-82.2,-1.6,31.2,-13.3,0.177953429,0.531052583,-0.220252083,0.798577837
773,1934964,557200,0.918,-0.337,0.242,-59.8,-21.6,-82.2,-1.6,31.2,-13.3,0.177953429,0.531052583,-0.220252083,0.798577837
774,1938132,557200,0.934,-0.295,0.233,-59.2,-22.6,-77.5,-1.9,31.9,-13.3,0.179906613,0.531571398,-0.220496231,0.797723319
775,1941024,557200,0.941,-0.279,0.229,-59.1,-22.9,-72.7,-1.9,31.9,-13.3,0.181768242,0.532090213,-0.220770898,0.796899319
776,1942465,557200,0.949,-0.232,0.233,-61.6,-21.9,-63.8,-1.9,31.9,-13.3,0.185247353,0.533036287,-0.22153386,0.79525132
777,1945532,557210,0.949,-0.232,0.233,-61.6,-21.9,-63.8,-1.9,31.9,-13.3,0.185247353,0.533036287,-0.22153386,0.79525132
778,1948768,557210,0.949,-0.232,0.233,-61.6,-21.9,-63.8,-1.9,31.9,-13.3,0.185247353,0.533036287,-0.22153386,0.79525132
779,1950844,557210,0.957,-0.205,0.233,-71.7,-16.2,-52.9,-2.4,32.2,-13.1,0.186254463,0.533768731,-0.223242897,0.794061098
780,1953602,557210,0.973,-0.202,0.233,-75.2,-13.7,-49.9,-2.4,32.2,-13.1,0.187932981,0.533921323,-0.224036378,0.793328654
781,1955197,557220,0.973,-0.202,0.233,-75.2,-13.7,-49.9,-2.4,32.2,-13.1,0.189611499,0.534104434,-0.224799341,0.79259621
782,1959116,557220,0.981,-0.202,0.232,-78,-11.5,-47.6,-2.4,32.2,-13.1,0.191290017,0.534226508,-0.225653859,0.791863765
783,1960925,557220,0.993,-0.21,0.244,-80.2,-10.1,-44.6,-2.6,32.3,-12.6,0.192938017,0.534287545,-0.226538896,0.79116184
784,1962756,557220,0.996,-0.214,0.24,-80.1,-10.4,-43.4,-2.6,32.3,-12.6,0.194555498,0.534318064,-0.22748497,0.790459914
785,1965238,557230,0.992,-0.225,0.232,-79.7,-10.9,-41.8,-2.6,32.3,-12.6,0.196172979,0.534379101,-0.228400525,0.789757988
786,1967434,557230,0.989,-0.221,0.236,-79.7,-10.9,-41.8,-2.6,32.3,-12.6,0.197759941,0.534440138,-0.229346599,0.789056063
787,1971159,557230,0.977,-0.233,0.233,-79,-11.4,-38.2,-3,32.7,-11.4,0.199285867,0.534501175,-0.230292673,0.788354137
788,1972638,557230,0.957,-0.236,0.229,-79.1,-11.2,-36.3,-3,32.7,-11.4,0.200781274,0.534531693,-0.231299783,0.78768273
789,1975208,557240,0.957,-0.236,0.229,-79.5,-10.8,-34.4,-3,32.7,-11.4,0.202246162,0.534531693,-0.232306894,0.786980804
790,1978740,557240,0.949,-0.24,0.217,-80,-10.5,-32.5,-3,32.7,-11.4,0.203680532,0.534531693,-0.233344523,0.786309397
791,1981342,557240,0.949,-0.24,0.217,-80,-10.5,-32.5,-3,32.7,-11.4,0.203680532,0.534531693,-0.233344523,0.786309397
792,1982888,557240,0.941,-0.236,0.214,-80.9,-10.5,-29.3,-3.2,32.4,-11.4,0.206488235,0.534470656,-0.235511338,0.784966582
793,1985242,557250,0.942,-0.236,0.218,-81.3,-10.7,-28.2,-3.2,32.4,-11.4,0.207861568,0.534440138,-0.236610004,0.784295175
794,1987538,557250,0.942,-0.236,0.225,-81.4,-10.9,-27.2,-3.2,32.4,-11.4,0.209204382,0.534379101,-0.237739189,0.783623768
795,1990831,557250,0.942,-0.236,0.225,-81.4,-10.9,-27.2,-3.2,32.4,-11.4,0.209204382,0.534379101,-0.237739189,0.783623768
796,1992750,557250,0.938,-0.248,0.237,-81.3,-10.9,-26.2,-3.4,32.8,-10.7,0.210577715,0.534348582,-0.238868374,0.782952361
797,1995403,557260,0.93,-0.259,0.245,-80.2,-10.7,-24.4,-3.4,32.8,-10.7,0.213171789,0.534226508,-0.241157262,0.781640065
798,1998411,557260,0.93,-0.271,0.249,-79.3,-10.4,-23.5,-3.4,32.8,-10.7,0.214453566,0.534165471,-0.242286447,0.780999176
799,2000107,557260,0.93,-0.271,0.249,-79.3,-10.4,-23.5,-3.4,32.8,-10.7,0.214453566,0.534165471,-0.242286447,0.780999176
800,2002429,557260,0.93,-0.271,0.249,-79.3,-10.4,-23.5,-3.4,32.8,-10.7,0.214453566,0.534165471,-0.242286447,0.780999176
801,2006203,557270,0.918,-0.29,0.249,-77.4,-10,-21.5,-3.8,33.2,-10.5,0.215033418,0.534226508,-0.244300668,0.780144658
802,2008980,557270,0.91,-0.31,0.253,-76.5,-10,-20.3,-3.8,33.2,-10.5,0.21622364,0.534165471,-0.245399335,0.779503769
803,2011194,557270,0.902,-0.321,0.254,-75.6,-9.9,-18.8,-3.8,33.2,-10.5,0.217383343,0.534073916,-0.24652852,0.778893399
804,2013391,557270,0.902,-0.329,0.25,-74.7,-9.9,-17.1,-3.8,33.2,-10.5,0.218482009,0.53398236,-0.247627186,0.778313547
805,2015170,557280,0.898,-0.337,0.25,-73.2,-9.8,-13.6,-3.4,33.2,-10.3,0.219519639,0.533860286,-0.248756371,0.777733695
806,2017584,557280,0.898,-0.345,0.246,-73.2,-9.8,-13.6,-3.4,33.2,-10.3,0.220557268,0.533768731,-0.249885556,0.777153844
807,2020465,557280,0.898,-0.349,0.25,-72.6,-9.8,-11.8,-3.4,33.2,-10.3,0.22153386,0.533646657,-0.251045259,0.776573992
808,2022796,557280,0.891,-0.349,0.242,-72.1,-9.6,-10,-3.4,33.2,-10.3,0.222510453,0.533494064,-0.252174444,0.776024659
809,2025152,557290,0.898,-0.364,0.25,-71,-9.3,-6.4,-4.1,33.5,-9.5,0.223395489,0.53337199,-0.253364666,0.775475326
810,2028233,557290,0.894,-0.368,0.246,-70.3,-9.4,-4.6,-4.1,33.5,-9.5,0.224219489,0.533188879,-0.254554888,0.774956511
811,2030244,557290,0.898,-0.364,0.25,-70.3,-9.4,-4.6,-4.1,33.5,-9.5,0.225074007,0.533036287,-0.255714591,0.774407178
812,2032432,557290,0.898,-0.372,0.246,-69.3,-9.4,-2.7,-4.1,33.5,-9.5,0.225867489,0.532883694,-0.256904813,0.773918882
813,2036638,557300,0.898,-0.372,0.246,-67,-9.6,0.7,-4.2,34.2,-9.3,0.226599933,0.532700583,-0.258095035,0.773461104
814,2038542,557300,0.898,-0.372,0.246,-65.7,-9.8,2.4,-4.2,34.2,-9.3,0.227240822,0.532517472,-0.259285257,0.772972808
815,2040854,557300,0.906,-0.372,0.254,-65.7,-9.8,2.4,-4.2,34.2,-9.3,0.227912229,0.532364879,-0.260475478,0.772484512
816,2042811,557300,0.902,-0.372,0.25,-64.4,-10,4,-4.2,34.2,-9.3,0.228553117,0.532181768,-0.2616657,0.772026734
817,2045113,557310,0.902,-0.372,0.25,-64.4,-10,4,-4.2,34.2,-9.3,0.228553117,0.532181768,-0.2616657,0.772026734
818,2047395,557310,0.914,-0.372,0.254,-60.3,-10.1,8.5,-5,34.3,-9.4,0.229590747,0.531815546,-0.263985107,0.771172216
819,2050283,557310,0.914,-0.372,0.25,-58.6,-10.2,10,-5,34.3,-9.4,0.230018006,0.531632435,-0.26514481,0.770775475
820,2052634,557310,0.914,-0.368,0.246,-56.9,-10.3,11.3,-5,34.3,-9.4,0.230445265,0.531449324,-0.266304514,0.770378735
821,2055001,557320,0.914,-0.368,0.246,-56.9,-10.3,11.3,-5,34.3,-9.4,0.230445265,0.531449324,-0.266304514,0.770378735
822,2058303,557320,0.914,-0.368,0.246,-56.9,-10.3,11.3,-5,34.3,-9.4,0.230445265,0.531449324,-0.266304514,0.770378735
823,2061451,557320,0.922,-0.357,0.253,-53.2,-11.2,14.1,-4.8,34.4,-8.4,0.229071932,0.530747398,-0.269631031,0.770104068
824,2063611,557320,0.941,-0.349,0.261,-49.4,-12.1,16.9,-4.8,34.4,-8.4,0.229560228,0.530472732,-0.271797845,0.769402142
825,2065815,557330,0.941,-0.345,0.261,-47.5,-12.4,18.1,-4.8,34.4,-8.4,0.229712821,0.530320139,-0.272865993,0.769066439
826,2068763,557330,0.941,-0.345,0.261,-47.5,-12.4,18.1,-4.8,34.4,-8.4,0.229712821,0.530320139,-0.272865993,0.769066439
827,2070129,557330,0.945,-0.334,0.265,-45.3,-12.8,19.3,-3.1,33.3,-8.4,0.229834895,0.530198065,-0.273903623,0.768730735
828,2073288,557330,0.957,-0.326,0.264,-43,-13.2,20.4,-3.1,33.3,-8.4,0.22992645,0.530075991,-0.274941252,0.76842555
829,2076264,557340,0.961,-0.311,0.26,-38.6,-14.4,22.5,-3.1,33.3,-8.4,0.22992645,0.52989288,-0.276924955,0.767845698
830,2077666,557340,0.961,-0.311,0.26,-38.6,-14.4,22.5,-3.1,33.3,-8.4,0.22992645,0.52989288,-0.276924955,0.767845698
831,2081084,557340,0.965,-0.291,0.268,-36.4,-14.8,23.4,-4.5,34.7,-8.6,0.229865413,0.529831843,-0.277901547,0.767571032
832,2082567,557340,0.969,-0.291,0.264,-34.3,-14.9,24.6,-4.5,34.7,-8.6,0.229773858,0.529740287,-0.278817103,0.767326884
833,2085859,557350,0.973,-0.287,0.264,-32.2,-14.9,25.6,-4.5,34.7,-8.6,0.229621265,0.52967925,-0.279732658,0.767082736
834,2087493,557350,0.977,-0.287,0.264,-30,-14.6,26.5,-4.5,34.7,-8.6,0.229438154,0.529618213,-0.280617695,0.766869106
835,2091221,557350,0.981,-0.268,0.264,-25.7,-13.9,28.3,-4.9,34.7,-8.1,0.229163488,0.529526658,-0.281441694,0.766685995
836,2092583,557350,0.981,-0.264,0.268,-25.7,-13.9,28.3,-4.9,34.7,-8.1,0.22891934,0.529465621,-0.282265694,0.766502884
837,2095773,557360,0.973,-0.256,0.272,-23.6,-13.6,29,-4.9,34.7,-8.1,0.228614154,0.529404584,-0.283059175,0.766350291
838,2097750,557360,0.981,-0.252,0.268,-21.7,-13.4,29.6,-4.9,34.7,-8.1,0.228278451,0.529343547,-0.283852657,0.766197699
839,2100132,557360,0.965,-0.244,0.28,-18.6,-13.2,30.4,-4.4,34.8,-8.2,0.227912229,0.52928251,-0.284585101,0.766075625
840,2102416,557360,0.973,-0.236,0.276,-17.6,-12.9,30.5,-4.4,34.8,-8.2,0.227515488,0.529221473,-0.285287027,0.765984069
841,2105321,557370,0.977,-0.237,0.283,-17.6,-12.9,30.5,-4.4,34.8,-8.2,0.227149266,0.529160436,-0.285988952,0.765861995
842,2107630,557370,0.969,-0.232,0.284,-17,-12.2,30.4,-4.4,34.8,-8.2,0.226752525,0.52906888,-0.286690878,0.76577044
843,2111054,557370,0.969,-0.232,0.284,-17,-12.2,30.4,-4.4,34.8,-8.2,0.226752525,0.52906888,-0.286690878,0.76577044
844,2113097,557370,0.969,-0.232,0.284,-17,-12.2,30.4,-4.4,34.8,-8.2,0.226752525,0.52906888,-0.286690878,0.76577044
845,2115230,557380,0.954,-0.236,0.276,-19.2,-8.3,30.3,-4,34.9,-7.9,0.225867489,0.528763695,-0.288369396,0.765617847
846,2117565,557380,0.95,-0.224,0.28,-20.3,-7.5,30.4,-4,34.9,-7.9,0.225531785,0.528580584,-0.28910184,0.76555681
847,2121481,557380,0.942,-0.22,0.284,-20.3,-7.5,30.4,-4,34.9,-7.9,0.2252266,0.528427992,-0.289834284,0.765495773
848,2123704,557380,0.942,-0.22,0.284,-20.3,-7.5,30.4,-4,34.9,-7.9,0.2252266,0.528427992,-0.289834284,0.765495773
849,2125995,557390,0.934,-0.236,0.276,-23,-5.9,30.2,-2.8,34,-7.7,0.224951933,0.528214362,-0.290597247,0.765434736
850,2128307,557390,0.922,-0.24,0.281,-26.1,-3.9,29.8,-2.8,34,-7.7,0.224463637,0.527756584,-0.29218421,0.765312662
851,2130283,557390,0.918,-0.247,0.277,-27,-2.8,29.4,-2.8,34,-7.7,0.224280526,0.527481918,-0.292977691,0.765251625
852,2132624,557390,0.918,-0.247,0.277,-27,-2.8,29.4,-2.8,34,-7.7,0.224280526,0.527481918,-0.292977691,0.765251625
853,2136515,557400,0.914,-0.243,0.277,-27.3,-1.9,28.8,-3,34.5,-6.5,0.224097415,0.527176733,-0.293771172,0.765190588
854,2138823,557400,0.926,-0.232,0.28,-27.1,-1,28.2,-3,34.5,-6.5,0.223944823,0.526902066,-0.294564653,0.765129551
855,2141481,557400,0.942,-0.228,0.28,-26.2,0.8,27,-3,34.5,-6.5,0.223639637,0.526261177,-0.29606006,0.765068514
856,2143649,557400,0.942,-0.228,0.28,-26.2,0.8,27,-3,34.5,-6.5,0.223639637,0.526261177,-0.29606006,0.765068514
857,2145251,557410,0.942,-0.236,0.28,-26.4,1.9,26.8,-2.6,34.4,-7,0.223487045,0.525925474,-0.296792505,0.765037996
858,2147607,557410,0.934,-0.236,0.276,-27.4,3.2,26.9,-2.6,34.4,-7,0.223395489,0.525559252,-0.297555467,0.765037996
859,2149930,557410,0.938,-0.232,0.265,-28.9,4.7,27.4,-2.6,34.4,-7,0.223273415,0.525162511,-0.29831843,0.765037996
860,2152414,557410,0.934,-0.236,0.272,-30.5,6,28.1,-2.6,34.4,-7,0.223212378,0.524735252,-0.29914243,0.765037996
861,2156897,557420,0.938,-0.244,0.269,-31.8,7,28.9,-2.4,34.5,-6.8,0.223120823,0.524277474,-0.29996643,0.765068514
862,2159207,557420,0.93,-0.244,0.265,-32.5,7.7,29.6,-2.4,34.5,-6.8,0.223059786,0.523789178,-0.300790429,0.765068514
863,2161297,557420,0.922,-0.259,0.261,-32.5,8.1,30.4,-2.4,34.5,-6.8,0.22296823,0.523300882,-0.301644948,0.765099033
864,2163602,557420,0.914,-0.247,0.269,-32,8.3,31.3,-2.4,34.5,-6.8,0.222876675,0.522782067,-0.302499466,0.765129551
865,2165966,557430,0.914,-0.247,0.269,-32,8.3,31.3,-2.4,34.5,-6.8,0.222876675,0.522782067,-0.302499466,0.765129551
866,2167778,557430,0.942,-0.244,0.28,-28.2,7.7,32.7,-2.4,34.5,-6.8,0.222602008,0.522293771,-0.30344554,0.765190588
867,2170131,557430,0.942,-0.248,0.284,-27.6,8,32.6,-2.4,34.5,-6.8,0.222449416,0.521805475,-0.304239021,0.765251625
868,2174190,557430,0.942,-0.248,0.28,-27.6,8,32.6,-2.4,34.5,-6.8,0.222266305,0.521317179,-0.305032502,0.765312662
869,2176393,557440,0.938,-0.255,0.288,-27.9,9.1,32.5,-2.4,34.5,-6.8,0.222083193,0.520828883,-0.305825983,0.765404218
870,2178368,557440,0.938,-0.255,0.288,-27.9,9.1,32.5,-2.4,34.5,-6.8,0.222083193,0.520828883,-0.305825983,0.765404218
871,2180725,557440,0.938,-0.263,0.288,-31.8,13.7,31.9,-2.1,34.7,-6.2,0.221900082,0.519638661,-0.307473983,0.765587329
872,2182428,557440,0.926,-0.267,0.288,-33,14.8,31.4,-2.1,34.7,-6.2,0.221869564,0.519028291,-0.308297983,0.765678884
873,2185776,557450,0.93,-0.279,0.284,-33,14.8,31.4,-2.1,34.7,-6.2,0.221808527,0.51841792,-0.309121982,0.765800958
874,2188300,557450,0.93,-0.279,0.284,-33,14.8,31.4,-2.1,34.7,-6.2,0.221808527,0.51841792,-0.309121982,0.765800958
875,2190146,557450,0.903,-0.306,0.289,-33.5,15,30.5,-2,35,-6.6,0.221778008,0.51780755,-0.309976501,0.765892514
876,2192542,557450,0.875,-0.317,0.289,-31,12.6,30.5,-2,35,-6.6,0.221655934,0.51658681,-0.311593982,0.766045106
877,2195709,557460,0.891,-0.313,0.289,-31,12.6,30.5,-2,35,-6.6,0.221564379,0.516037477,-0.312387463,0.766136662
878,2197685,557460,0.891,-0.313,0.289,-31,12.6,30.5,-2,35,-6.6,0.221564379,0.516037477,-0.312387463,0.766136662
879,2200019,557460,0.91,-0.313,0.297,-27.8,8,29.8,-1.7,34.6,-5.9,0.221442305,0.515579699,-0.313150426,0.76616718
880,2203249,557460,0.907,-0.313,0.301,-26.9,5.7,28.8,-1.7,34.6,-5.9,0.221320231,0.51515244,-0.313913388,0.766197699
881,2205166,557470,0.926,-0.306,0.296,-26.9,2.9,26.8,-1.7,34.6,-5.9,0.221045564,0.514419996,-0.315378277,0.76616718
882,2207915,557470,0.926,-0.306,0.296,-26.9,2.9,26.8,-1.7,34.6,-5.9,0.221045564,0.514419996,-0.315378277,0.76616718
883,2210066,557470,0.95,-0.306,0.304,-27.2,2.8,26.3,-1.5,34.8,-5.8,0.22092349,0.514053774,-0.316110721,0.766136662
884,2213312,557470,0.93,-0.314,0.3,-27.5,3.5,26.2,-1.5,34.8,-5.8,0.220831935,0.513687551,-0.316843165,0.766106143
885,2215823,557480,0.938,-0.31,0.3,-27.9,5.1,26.5,-1.5,34.8,-5.8,0.220740379,0.513260292,-0.317606128,0.766106143
886,2217721,557480,0.953,-0.306,0.3,-28.5,7.3,27,-1.5,34.8,-5.8,0.220648824,0.512833033,-0.318338572,0.766106143
887,2220061,557480,0.953,-0.306,0.3,-28.5,7.3,27,-1.5,34.8,-5.8,0.220648824,0.512833033,-0.318338572,0.766106143
888,2222372,557480,0.926,-0.337,0.296,-29.6,16,27.1,-2.8,34.9,-6.2,0.220496231,0.511978515,-0.319193091,0.766350291
889,2226245,557490,0.922,-0.341,0.3,-29.6,16,27.1,-2.8,34.9,-6.2,0.220465712,0.511398663,-0.319925535,0.766472365
890,2228403,557490,0.918,-0.349,0.296,-29.5,18.8,26.7,-2.8,34.9,-6.2,0.220496231,0.510757775,-0.320627461,0.76659444
891,2230722,557490,0.906,-0.356,0.293,-29.2,21.5,26,-2.8,34.9,-6.2,0.220526749,0.510055849,-0.321298868,0.766747032
892,2232666,557490,0.891,-0.38,0.297,-27.6,25.7,24.5,-0.7,34.8,-5.2,0.220587786,0.509323405,-0.321909238,0.766960662
893,2234922,557500,0.883,-0.379,0.293,-26.1,26.9,23.7,-0.7,34.8,-5.2,0.220679342,0.50859096,-0.32248909,0.76720481
894,2238336,557500,0.887,-0.391,0.297,-26.1,26.9,23.7,-0.7,34.8,-5.2,0.220770898,0.507827998,-0.323068941,0.767418439
895,2240211,557500,0.875,-0.399,0.301,-24.2,27.5,22.9,-0.7,34.8,-5.2,0.220831935,0.507095553,-0.323587756,0.767662587
896,2243693,557500,0.875,-0.399,0.301,-24.2,27.5,22.9,-0.7,34.8,-5.2,0.220831935,0.507095553,-0.323587756,0.767662587
897,2245933,557510,0.844,-0.418,0.306,-19.6,26.1,19.4,-0.4,34.6,-5.5,0.220984527,0.505722221,-0.324442274,0.768181402
898,2247430,557510,0.836,-0.429,0.306,-18.9,24.6,18.4,-0.4,34.6,-5.5,0.221076083,0.505081332,-0.324839015,0.768395032
899,2250747,557510,0.836,-0.429,0.306,-18.9,24.6,18.4,-0.4,34.6,-5.5,0.22113712,0.504440443,-0.325266274,0.768608661
900,2252738,557510,0.836,-0.429,0.306,-18.9,24.6,18.4,-0.4,34.6,-5.5,0.22113712,0.504440443,-0.325266274,0.768608661
901,2255031,557520,0.883,-0.43,0.325,-17.3,19.3,18.8,-0.4,34.6,-5.5,0.221167638,0.503921628,-0.325663015,0.768791772
902,2258304,557520,0.922,-0.427,0.336,-15.5,11.9,22.3,-0.4,34.6,-5.5,0.220984527,0.502975555,-0.326517533,0.769096957
903,2260288,557520,0.926,-0.423,0.343,-15.5,9.4,23.7,-0.4,34.6,-5.5,0.220831935,0.502578814,-0.327005829,0.769188513
904,2262564,557520,0.926,-0.423,0.343,-15.5,9.4,23.7,-0.4,34.6,-5.5,0.220831935,0.502578814,-0.327005829,0.769188513
905,2265694,557530,0.93,-0.423,0.343,-16.4,8.2,24.4,-0.4,34.6,-5.5,0.220648824,0.502182073,-0.327524644,0.769280068
906,2267806,557530,0.918,-0.431,0.348,-17.6,8.1,24.7,-0.4,34.6,-5.5,0.220496231,0.501785333,-0.328043458,0.769371624
907,2270114,557530,0.91,-0.438,0.34,-18.2,8.3,25.9,-0.4,34.6,-5.5,0.220160527,0.500961333,-0.329142125,0.769524216
908,2272780,557530,0.91,-0.438,0.34,-18.2,8.3,25.9,-0.4,34.6,-5.5,0.220160527,0.500961333,-0.329142125,0.769524216
909,2275819,557540,0.91,-0.438,0.34,-18.2,8.3,25.9,-0.4,34.6,-5.5,0.220160527,0.500961333,-0.329142125,0.769524216
910,2277353,557540,0.934,-0.423,0.355,-14,6.2,29.9,-0.8,35.2,-5.7,0.21948912,0.500106815,-0.33005768,0.769890439
911,2280155,557540,0.95,-0.411,0.363,-11.1,5,32.2,-0.8,35.2,-5.7,0.21909238,0.499740593,-0.330545976,0.770012513
912,2283284,557540,0.961,-0.4,0.366,-8.6,4.8,34,-0.8,35.2,-5.7,0.21866512,0.499374371,-0.331064791,0.770165105
913,2286408,557550,0.957,-0.392,0.366,-6.8,5.6,35.2,-0.8,35.2,-5.7,0.218176824,0.49897763,-0.331522568,0.770348216
914,2287844,557550,0.938,-0.392,0.363,-5.5,7.5,35.9,-0.3,35.2,-5.1,0.217688528,0.498580889,-0.331980346,0.770561846
915,2291201,557550,0.946,-0.38,0.363,-4.5,10,36.1,-0.3,35.2,-5.1,0.217200232,0.498123112,-0.332407605,0.770805994
916,2293463,557550,0.946,-0.372,0.359,-3.5,12.5,36,-0.3,35.2,-5.1,0.216711936,0.497634816,-0.332773827,0.771111179
917,2294884,557560,0.95,-0.369,0.362,-2.4,15,35.6,-0.3,35.2,-5.1,0.216254158,0.497116001,-0.333140049,0.771416364
918,2297795,557560,0.954,-0.357,0.351,-0.8,20.3,33.9,-0.4,35.3,-5,0.215857418,0.496505631,-0.333445235,0.771782586
919,2300112,557560,0.958,-0.349,0.347,-0.8,20.3,33.9,-0.4,35.3,-5,0.215430158,0.495925779,-0.333719901,0.772148808
920,2303300,557560,0.954,-0.345,0.339,-0.1,23.3,32.3,-0.4,35.3,-5,0.215063936,0.49528489,-0.333964049,0.772576067
921,2305348,557570,0.938,-0.337,0.335,0.5,26.7,30.9,-0.4,35.3,-5,0.214728233,0.494613483,-0.33414716,0.773003327
922,2307618,557570,0.903,-0.325,0.316,3.7,33.3,29.6,-0.6,35.4,-5.6,0.214423048,0.49385052,-0.334269234,0.773522141
923,2309975,557570,0.903,-0.317,0.316,6.3,35.5,29.9,-0.6,35.4,-5.6,0.214087344,0.493057039,-0.334299753,0.774101993
924,2313317,557570,0.903,-0.317,0.316,6.3,35.5,29.9,-0.6,35.4,-5.6,0.213782159,0.492263558,-0.33436079,0.774651326
925,2315431,557580,0.891,-0.301,0.309,9.2,36.7,30.5,-0.6,35.4,-5.6,0.213446455,0.491470077,-0.33436079,0.775261696
926,2318294,557580,0.891,-0.301,0.309,9.2,36.7,30.5,-0.6,35.4,-5.6,0.213446455,0.491470077,-0.33436079,0.775261696
927,2320651,557580,0.883,-0.297,0.289,16.6,36.7,31.8,-0.4,35.1,-5.6,0.212561419,0.489913633,-0.334177679,0.776573992
928,2322692,557580,0.864,-0.293,0.293,17.9,36.4,31.4,-0.4,35.1,-5.6,0.212103641,0.48915067,-0.334025086,0.777245399
929,2325003,557590,0.852,-0.297,0.286,17.9,36.4,31.4,-0.4,35.1,-5.6,0.211645863,0.488387707,-0.333903012,0.777916807
930,2328251,557590,0.852,-0.297,0.286,17.9,36.4,31.4,-0.4,35.1,-5.6,0.211645863,0.488387707,-0.333903012,0.777916807
931,2330226,557590,0.852,-0.297,0.286,17.9,36.4,31.4,-0.4,35.1,-5.6,0.211645863,0.488387707,-0.333903012,0.777916807
932,2332533,557590,0.813,-0.308,0.283,19.9,34.6,27.7,-0.1,34.9,-4.8,0.211249123,0.4877163,-0.333658864,0.778527177
933,2335048,557600,0.828,-0.3,0.278,20.1,33.1,26.3,-0.1,34.9,-4.8,0.210821863,0.487044893,-0.333445235,0.779168065
934,2337511,557600,0.821,-0.32,0.29,20.1,29.3,23.6,-0.1,34.9,-4.8,0.210028382,0.485854671,-0.332987457,0.780327769
935,2340726,557600,0.821,-0.32,0.29,20.1,29.3,23.6,-0.1,34.9,-4.8,0.210028382,0.485854671,-0.332987457,0.780327769
936,2342677,557600,0.848,-0.32,0.29,19.3,27.8,22.1,-0.1,35.3,-5.1,0.209631642,0.485305338,-0.332773827,0.780846583
937,2345047,557610,0.848,-0.328,0.302,17.7,26.7,20.5,-0.1,35.3,-5.1,0.209295938,0.484786523,-0.332560198,0.781365398
938,2347873,557610,0.852,-0.336,0.298,12.7,25.3,17.1,-0.1,35.3,-5.1,0.208746605,0.483779412,-0.332224494,0.782280953
939,2350208,557610,0.852,-0.336,0.298,12.7,25.3,17.1,-0.1,35.3,-5.1,0.208746605,0.483779412,-0.332224494,0.782280953
940,2352554,557610,0.863,-0.356,0.301,9.7,24.9,15.9,0.1,35,-4.6,0.208563494,0.483291116,-0.33210242,0.782677694
941,2355707,557620,0.871,-0.364,0.309,6.6,24.3,15.1,0.1,35,-4.6,0.208410901,0.482772301,-0.332041383,0.783043916
942,2357725,557620,0.871,-0.375,0.309,3.8,23.7,15,0.1,35,-4.6,0.208288827,0.482284005,-0.332041383,0.783410138
943,2361636,557620,0.867,-0.391,0.313,1.4,22.9,15.3,0.1,35,-4.6,0.208166753,0.481795709,-0.332071902,0.783715323
944,2363448,557620,0.867,-0.399,0.325,-1.4,21.2,17.3,0,35,-4.4,0.208044679,0.481307413,-0.332163457,0.784020508
945,2365923,557630,0.84,-0.402,0.322,-1.4,21.2,17.3,0,35,-4.4,0.207922605,0.480788598,-0.332285531,0.784295175
946,2368264,557630,0.821,-0.409,0.33,-1.4,20.2,19,0,35,-4.4,0.207739494,0.480300302,-0.332407605,0.78460036
947,2370193,557630,0.801,-0.409,0.334,-0.8,18.9,21,0,35,-4.4,0.207525864,0.479842524,-0.332560198,0.784875027
948,2373945,557630,0.821,-0.409,0.353,1.7,14.3,25.2,0,35.2,-7.1,0.207190161,0.479415265,-0.332743309,0.785149693
949,2376219,557640,0.832,-0.406,0.357,1.7,14.3,25.2,0,35.2,-7.1,0.206823939,0.478988006,-0.332895901,0.78542436
950,2378457,557640,0.856,-0.39,0.36,3,11.3,26.4,0,35.2,-7.1,0.206427198,0.478621784,-0.333079012,0.785699026
951,2380792,557640,0.864,-0.383,0.368,3.7,8.5,26.6,0,35.2,-7.1,0.205999939,0.478286081,-0.333262123,0.785943175
952,2382737,557640,0.864,-0.383,0.368,3.7,8.5,26.6,0,35.2,-7.1,0.205999939,0.478286081,-0.333262123,0.785943175
953,2384972,557650,0.864,-0.383,0.368,3.7,8.5,26.6,0,35.2,-7.1,0.205999939,0.478286081,-0.333262123,0.785943175
954,2387830,557650,0.899,-0.375,0.363,2.1,4.1,20.6,0.1,35,-4.9,0.205053865,0.477492599,-0.333780938,0.786461989
955,2390123,557650,0.911,-0.364,0.375,2.6,3.7,19.8,0.1,35,-4.9,0.204718162,0.47727897,-0.333903012,0.786584063
956,2392420,557650,0.915,-0.364,0.371,2.6,3.7,19.8,0.1,35,-4.9,0.204382458,0.477095859,-0.334055605,0.786736656
957,2395339,557660,0.915,-0.364,0.371,2.6,3.7,19.8,0.1,35,-4.9,0.204382458,0.477095859,-0.334055605,0.786736656
958,2398489,557660,0.938,-0.36,0.367,5.9,2.9,19.6,0.4,34.9,-4.8,0.204016236,0.476912748,-0.33414716,0.786889248
959,2399870,557660,0.954,-0.333,0.37,11.1,3.6,21.7,0.4,34.9,-4.8,0.203131199,0.476577044,-0.334208197,0.787316507
960,2403065,557660,0.966,-0.326,0.37,13.9,4.5,23.2,0.4,34.9,-4.8,0.202612384,0.476393933,-0.334208197,0.787560656
961,2406124,557670,0.966,-0.326,0.37,13.9,4.5,23.2,0.4,34.9,-4.8,0.202612384,0.476393933,-0.334208197,0.787560656
962,2408304,557670,0.966,-0.302,0.37,16.2,5.8,24.4,0.3,35,-5.2,0.202063051,0.476180303,-0.33414716,0.787835322
963,2411010,557670,0.958,-0.294,0.366,17.5,7.6,24.7,0.3,35,-5.2,0.201513718,0.475966674,-0.334086123,0.788171026
964,2412506,557670,0.911,-0.301,0.355,16.5,12.2,22.1,0.3,35,-5.2,0.200537126,0.475386822,-0.333872494,0.788842433
965,2415674,557680,0.911,-0.301,0.355,16.5,12.2,22.1,0.3,35,-5.2,0.200537126,0.475386822,-0.333872494,0.788842433
966,2418930,557680,0.88,-0.305,0.344,15.3,13.9,19.9,0.4,34.9,-7.6,0.200140385,0.475081637,-0.33375042,0.789178137
967,2421132,557680,0.876,-0.309,0.336,14.3,14.3,18,0.4,34.9,-7.6,0.199774163,0.474745933,-0.333628346,0.78951384
968,2423444,557680,0.868,-0.313,0.337,13.9,13.5,16.3,0.4,34.9,-7.6,0.199438459,0.474471267,-0.333506272,0.789819025
969,2425629,557690,0.864,-0.312,0.34,13.8,11.9,15.1,0.4,34.9,-7.6,0.199133274,0.4741966,-0.333353679,0.79012421
970,2427807,557690,0.856,-0.32,0.333,14,10.3,14.1,0.4,35,-5.3,0.198828089,0.473982971,-0.333231605,0.790398877
971,2430077,557690,0.852,-0.328,0.333,14.2,9.1,13.2,0.4,35,-5.3,0.198522904,0.47379986,-0.333079012,0.790643025
972,2433303,557690,0.848,-0.332,0.333,14.3,8.3,12.5,0.4,35,-5.3,0.198217719,0.473616749,-0.33292642,0.790887173
973,2436647,557700,0.84,-0.336,0.329,14.2,7.9,11.7,0.4,35,-5.3,0.197912534,0.473464156,-0.332773827,0.791131321
974,2438829,557700,0.84,-0.336,0.329,14.2,7.9,11.7,0.4,35,-5.3,0.197912534,0.473464156,-0.332773827,0.791131321
975,2441105,557700,0.836,-0.355,0.325,12.9,7.5,10.3,0.2,34.7,-6.6,0.197668386,0.473311563,-0.332560198,0.791375469
976,2443347,557700,0.832,-0.367,0.318,12.4,7.2,10,0.2,34.7,-6.6,0.197424238,0.473128452,-0.332438124,0.79155858
977,2445336,557710,0.828,-0.371,0.318,12.4,7.2,10,0.2,34.7,-6.6,0.19718009,0.473006378,-0.332285531,0.79177221
978,2447564,557710,0.824,-0.374,0.314,12,6.7,9.6,0.2,34.7,-6.6,0.196935942,0.472884304,-0.332163457,0.791985839
979,2450800,557710,0.824,-0.374,0.314,12,6.7,9.6,0.2,34.7,-6.6,0.196935942,0.472884304,-0.332163457,0.791985839
980,2452814,557710,0.824,-0.39,0.314,11.4,4.8,7.9,0.8,34.7,-6.6,0.196508683,0.472670675,-0.331888791,0.792321543
981,2455099,557720,0.824,-0.39,0.314,11.4,4.8,7.9,0.8,34.7,-6.6,0.196264534,0.472579119,-0.331736198,0.792474136
982,2457342,557720,0.828,-0.394,0.318,11.5,4.1,7.5,0.8,34.7,-6.6,0.196050905,0.472518082,-0.331614124,0.792657247
983,2460538,557720,0.828,-0.394,0.318,11.5,4.1,7.5,0.8,34.7,-6.6,0.196050905,0.472518082,-0.331614124,0.792657247
984,2462633,557720,0.824,-0.402,0.318,11.9,2.7,7,0.6,34.7,-7.3,0.195837275,0.472457045,-0.331461531,0.792779321
985,2464831,557730,0.824,-0.398,0.318,12.1,2,6.7,0.6,34.7,-7.3,0.195593127,0.472426527,-0.331308939,0.792931913
986,2467775,557730,0.84,-0.398,0.322,12.1,0.5,6.4,0.6,34.7,-7.3,0.19513535,0.472396008,-0.331003754,0.793176061
987,2470133,557730,0.84,-0.398,0.322,12.1,0.5,6.4,0.6,34.7,-7.3,0.19513535,0.472396008,-0.331003754,0.793176061
988,2472405,557730,0.84,-0.39,0.318,11.8,-0.2,6.2,0.9,34.9,-6.3,0.19492172,0.472426527,-0.33088168,0.793298135
989,2475332,557740,0.84,-0.382,0.321,11.6,-0.9,6.1,0.9,34.9,-6.3,0.194677572,0.472426527,-0.330729087,0.793389691
990,2477634,557740,0.848,-0.375,0.329,11.2,-2,5.9,0.9,34.9,-6.3,0.194219794,0.472518082,-0.330484939,0.793572802
991,2479907,557740,0.848,-0.375,0.329,11.2,-2,5.9,0.9,34.9,-6.3,0.194219794,0.472518082,-0.330484939,0.793572802
992,2482813,557740,0.856,-0.363,0.333,11,-2.6,5.8,1.1,34.9,-6.6,0.193975646,0.472548601,-0.330362865,0.793633839
993,2485042,557750,0.856,-0.359,0.341,10.7,-3.1,5.5,1.1,34.9,-6.6,0.193731498,0.472609638,-0.330240791,0.793725394
994,2488985,557750,0.856,-0.355,0.337,10.3,-3.6,5.4,1.1,34.9,-6.6,0.193517869,0.472670675,-0.330149236,0.793786431
995,2490243,557750,0.856,-0.34,0.345,9.9,-4,5.2,1.1,34.9,-6.6,0.193304239,0.47276223,-0.330027161,0.79381695
996,2493254,557750,0.856,-0.34,0.345,9.9,-4,5.2,1.1,34.9,-6.6,0.193304239,0.47276223,-0.330027161,0.79381695
997,2495329,557760,0.856,-0.32,0.348,9.5,-5.1,4.7,1.2,35,-7.3,0.192968535,0.472670675,-0.33005768,0.793939024
998,2497551,557760,0.86,-0.324,0.352,9.5,-5.1,4.7,1.2,35,-7.3,0.192724387,0.47276223,-0.329966124,0.794000061
999,2500754,557760,0.86,-0.32,0.352,9.5,-5.5,4.5,1.2,35,-7.3,0.192510758,0.472884304,-0.329874569,0.79403058
1000,2502808,557760,0.856,-0.312,0.352,9.5,-5.9,4.4,1.2,35,-7.3,0.192297128,0.47297586,-0.329783013,0.79403058
1001,2505057,557770,0.856,-0.312,0.352,9.5,-5.9,4.4,1.2,35,-7.3,0.192297128,0.47297586,-0.329783013,0.79403058
1002,2508215,557770,0.848,-0.293,0.356,9.2,-6.5,4.1,1.1,34.7,-6.8,0.191869869,0.473220008,-0.329599902,0.794091617
1003,2511000,557770,0.848,-0.293,0.356,9.2,-6.5,4.1,1.1,34.7,-6.8,0.191625721,0.473342082,-0.329508347,0.794091617
1004,2513240,557770,0.848,-0.293,0.356,9.1,-6.9,3.7,1.1,34.7,-6.8,0.19144261,0.473464156,-0.329416791,0.794091617
1005,2515353,557780,0.848,-0.293,0.356,9.1,-6.9,3.7,1.1,34.7,-6.8,0.19144261,0.473464156,-0.329416791,0.794091617
1006,2517553,557780,0.845,-0.281,0.356,9.5,-8,2.9,1.1,34.7,-6.8,0.191045869,0.473769341,-0.329203162,0.794091617
1007,2520691,557780,0.848,-0.281,0.352,9.8,-8.2,2.7,1.1,34.7,-6.8,0.19083224,0.473952452,-0.329111606,0.794091617
1008,2523802,557780,0.845,-0.277,0.353,9.8,-8.2,2.7,1.1,34.7,-6.8,0.19061861,0.474105045,-0.328989532,0.794091617
1009,2525957,557790,0.845,-0.277,0.353,9.8,-8.2,2.7,1.1,34.7,-6.8,0.19061861,0.474105045,-0.328989532,0.794091617
1010,2528254,557790,0.848,-0.273,0.349,10.2,-8.6,2.2,1.2,34.1,-7.6,0.190404981,0.474288156,-0.328867458,0.794091617
1011,2531018,557790,0.848,-0.277,0.349,10.4,-8.9,2,1.2,34.1,-7.6,0.190191351,0.474471267,-0.328745384,0.794091617
1012,2533236,557790,0.845,-0.277,0.353,10.3,-9.2,1.2,1.2,34.1,-7.6,0.18979461,0.474868007,-0.328501236,0.794061098
1013,2536223,557800,0.845,-0.277,0.353,10.3,-9.2,1.2,1.2,34.1,-7.6,0.18979461,0.474868007,-0.328501236,0.794061098
1014,2537530,557800,0.848,-0.281,0.349,10.1,-9.5,0.7,0.8,34,-7.2,0.189611499,0.475051119,-0.328379162,0.79403058
1015,2540528,557800,0.841,-0.281,0.345,9.8,-9.9,0.3,0.8,34,-7.2,0.189428388,0.475264748,-0.328226569,0.794000061
1016,2542592,557800,0.844,-0.289,0.345,9.4,-10.7,-0.5,0.8,34,-7.2,0.189092685,0.475722526,-0.327982421,0.793908506
1017,2545760,557810,0.844,-0.289,0.345,9.4,-10.7,-0.5,0.8,34,-7.2,0.189092685,0.475722526,-0.327982421,0.793908506
1018,2548506,557810,0.844,-0.289,0.345,9.4,-10.7,-0.5,0.8,34,-7.2,0.189092685,0.475722526,-0.327982421,0.793908506
1019,2550023,557810,0.844,-0.293,0.349,9,-11.9,-1.4,0.9,34.1,-7.7,0.189245277,0.475966674,-0.32740257,0.793939024
1020,2553755,557810,0.844,-0.293,0.349,8.7,-12.4,-1.7,0.9,34.1,-7.7,0.189092685,0.47624134,-0.327280496,0.793908506
1021,2555075,557820,0.84,-0.3,0.345,8.3,-12.9,-1.9,0.9,34.1,-7.7,0.188970611,0.476516007,-0.327158422,0.79381695
1022,2558247,557820,0.837,-0.304,0.345,8,-13.2,-2.2,0.9,34.1,-7.7,0.188818018,0.476790674,-0.327066866,0.793725394
1023,2561237,557820,0.84,-0.316,0.345,7.6,-13.5,-2.6,0.8,33.6,-7.4,0.188695944,0.477034822,-0.326944792,0.793633839
1024,2562630,557820,0.84,-0.32,0.345,7.6,-13.5,-2.6,0.8,33.6,-7.4,0.18857387,0.477340007,-0.326853236,0.793542283
1025,2565704,557830,0.844,-0.316,0.345,7.4,-13.7,-2.8,0.8,33.6,-7.4,0.188451796,0.477645192,-0.326731162,0.793420209
1026,2568600,557830,0.84,-0.32,0.345,7.4,-14,-3.1,0.8,33.6,-7.4,0.188299203,0.477950377,-0.326639607,0.793328654
1027,2570872,557830,0.84,-0.32,0.345,7.4,-14,-3.1,0.8,33.6,-7.4,0.188299203,0.477950377,-0.326639607,0.793328654
1028,2573835,557830,0.852,-0.336,0.341,7.1,-14.7,-4.1,1,35.9,-6,0.188085574,0.478560747,-0.326425977,0.793084506
1029,2575218,557840,0.852,-0.336,0.341,7.1,-14.7,-4.1,1,35.9,-6,0.187994018,0.478865932,-0.326334422,0.792962432
