sample_index,elapsed_us,device_time_ms,acc_x_g,acc_y_g,acc_z_g,gyro_x_dps,gyro_y_dps,gyro_z_dps,mag_x_ut,mag_y_ut,mag_z_ut,quat_w,quat_x,quat_y,quat_z
0,5528,1293290,0.962,-0.088,0.233,-3.5,0.3,-0.4,-4,23.7,-19.6,0.128635517,-0.601672414,-0.0617389447,-0.785851619
1,7721,1293290,0.958,-0.088,0.24,-3.1,0.2,-0.1,-4.5,23.9,-20.1,0.128757591,-0.602130192,-0.0610675375,-0.785546434
2,11859,1293290,0.958,-0.088,0.24,-3.1,0.2,-0.1,-4.5,23.9,-20.1,0.128757591,-0.602130192,-0.0610675375,-0.785546434
3,14240,1293300,0.958,-0.088,0.24,-3.1,0.2,-0.1,-4.5,23.9,-20.1,0.128757591,-0.602130192,-0.0610675375,-0.785546434
4,16188,1293300,0.958,-0.088,0.24,-3.1,0.2,-0.1,-4.5,23.9,-20.1,0.128757591,-0.602130192,-0.0610675375,-0.785546434
5,17593,1293300,0.958,-0.088,0.24,-3.1,0.2,-0.1,-4.5,23.9,-20.1,0.128757591,-0.602130192,-0.0610675375,-0.785546434
6,20447,1293300,0.958,-0.088,0.24,-3.1,0.2,-0.1,-4.5,23.9,-20.1,0.128757591,-0.602130192,-0.0610675375,-0.785546434
7,23639,1293310,0.958,-0.088,0.24,-3.1,0.2,-0.1,-4.5,23.9,-20.1,0.128757591,-0.602130192,-0.0610675375,-0.785546434
8,25018,1293310,0.958,-0.088,0.24,-3.1,0.2,-0.1,-4.5,23.9,-20.1,0.128757591,-0.602130192,-0.0610675375,-0.785546434
9,27913,1293310,0.958,-0.088,0.24,-3.1,0.2,-0.1,-4.5,23.9,-20.1,0.128757591,-0.602130192,-0.0610675375,-0.785546434
10,31040,1293310,0.958,-0.088,0.24,-3.1,0.2,-0.1,-4.5,23.9,-20.1,0.128757591,-0.602130192,-0.0610675375,-0.785546434
11,32429,1293320,0.958,-0.088,0.24,-3.1,0.2,-0.1,-4.5,23.9,-20.1,0.128757591,-0.602130192,-0.0610675375,-0.785546434
12,35498,1293320,0.958,-0.088,0.24,-3.1,0.2,-0.1,-4.5,23.9,-20.1,0.128757591,-0.602130192,-0.0610675375,-0.785546434
13,38506,1293320,0.958,-0.088,0.24,-3.1,0.2,-0.1,-4.5,23.9,-20.1,0.128757591,-0.602130192,-0.0610675375,-0.785546434
14,39733,1293320,0.958,-0.088,0.24,-3.1,0.2,-0.1,-4.5,23.9,-20.1,0.128757591,-0.602130192,-0.0610675375,-0.785546434
15,42877,1293330,0.958,-0.088,0.24,-3.1,0.2,-0.1,-4.5,23.9,-20.1,0.128757591,-0.602130192,-0.0610675375,-0.785546434
16,46006,1293330,0.966,-0.08,0.24,-3.2,0,0.2,-4.4,23.8,-20.5,0.128208258,-0.602221747,-0.0602435377,-0.785637989
17,47497,1293330,0.966,-0.08,0.24,-3.2,0,0.2,-4.4,23.8,-20.5,0.128147221,-0.602252266,-0.0601825007,-0.785637989
18,49928,1293330,0.966,-0.08,0.24,-3.2,0,0.2,-4.4,23.8,-20.5,0.128147221,-0.602252266,-0.0601825007,-0.785637989
19,52293,1293340,0.966,-0.08,0.24,-3.2,0,0.2,-4.4,23.8,-20.5,0.128147221,-0.602252266,-0.0601825007,-0.785637989
20,55477,1293340,0.966,-0.08,0.244,-2.9,0,0.2,-4.6,23.5,-19.6,0.128299814,-0.602649007,-0.0598467971,-0.785332804
21,57709,1293340,0.966,-0.08,0.244,-2.9,0,0.2,-4.6,23.5,-19.6,0.128299814,-0.602649007,-0.0598467971,-0.785332804
22,61713,1293340,0.966,-0.08,0.244,-2.9,0,0.2,-4.6,23.5,-19.6,0.128299814,-0.602649007,-0.0598467971,-0.785332804
23,63895,1293350,0.966,-0.088,0.236,-2.9,0.3,0.1,-4.6,23.5,-19.6,0.128208258,-0.602649007,-0.059724723,-0.785332804
24,66394,1293350,0.962,-0.084,0.233,-2.6,0.4,0,-4.2,23.7,-18.6,0.128147221,-0.602649007,-0.059663686,-0.785363323
25,68195,1293350,0.962,-0.084,0.233,-2.6,0.4,0,-4.2,23.7,-18.6,0.128147221,-0.602649007,-0.059663686,-0.785363323
26,70129,1293350,0.962,-0.084,0.233,-2.6,0.4,0,-4.2,23.7,-18.6,0.128147221,-0.602649007,-0.059663686,-0.785363323
27,74220,1293360,0.962,-0.084,0.233,-2.6,0.4,0,-4.2,23.7,-18.6,0.128147221,-0.602649007,-0.059663686,-0.785363323
28,76492,1293360,0.966,-0.088,0.236,-2.7,0.1,0,-4.2,23.5,-18.2,0.128025147,-0.602649007,-0.059480575,-0.785363323
29,78758,1293360,0.966,-0.088,0.24,-2.7,0.1,-0.1,-4.2,23.5,-18.2,0.127994629,-0.602679525,-0.0594500565,-0.785393841
30,81000,1293360,0.966,-0.096,0.236,-2.7,0.2,-0.2,-4.2,23.5,-18.2,0.127933592,-0.602679525,-0.0593585009,-0.785393841
31,82986,1293370,0.966,-0.092,0.24,-2.8,0.3,-0.2,-4.2,23.5,-18.2,0.127903073,-0.602679525,-0.0593585009,-0.785393841
32,85243,1293370,0.966,-0.092,0.24,-2.8,0.3,-0.2,-4.2,23.5,-18.2,0.127903073,-0.602679525,-0.0593585009,-0.785393841
33,87790,1293370,0.966,-0.092,0.24,-3,0.3,-0.2,-4.2,23.9,-18.3,0.127811518,-0.602679525,-0.0592669454,-0.78542436
34,89710,1293370,0.966,-0.092,0.24,-3,0.3,-0.2,-4.2,23.9,-18.3,0.127811518,-0.602679525,-0.0592669454,-0.78542436
35,92195,1293380,0.966,-0.092,0.24,-3,0.3,-0.2,-4.2,23.9,-18.3,0.127811518,-0.602679525,-0.0592669454,-0.78542436
36,96704,1293380,0.966,-0.092,0.24,-3,0.3,-0.2,-4.2,23.9,-18.3,0.127811518,-0.602679525,-0.0592669454,-0.78542436
37,98840,1293380,0.966,-0.092,0.24,-3,0.3,-0.2,-4.2,23.9,-18.3,0.127811518,-0.602679525,-0.0592669454,-0.78542436
38,100112,1293380,0.966,-0.092,0.24,-3,0.3,-0.2,-4.2,23.9,-18.3,0.127811518,-0.602679525,-0.0592669454,-0.78542436
39,103240,1293390,0.966,-0.092,0.24,-3.7,0,-0.3,-4.7,23.9,-21.4,0.127506333,-0.602740562,-0.0588702048,-0.785454878
40,104955,1293390,0.966,-0.092,0.24,-3.7,0,-0.3,-4.7,23.9,-21.4,0.127506333,-0.602740562,-0.0588702048,-0.785454878
41,108403,1293390,0.966,-0.092,0.24,-3.7,0,-0.3,-4.7,23.9,-21.4,0.127506333,-0.602740562,-0.0588702048,-0.785454878
42,109959,1293390,0.966,-0.092,0.24,-3.7,0,-0.3,-4.7,23.9,-21.4,0.127506333,-0.602740562,-0.0588702048,-0.785454878
43,112175,1293400,0.966,-0.092,0.24,-3.7,0,-0.3,-4.7,23.9,-21.4,0.127506333,-0.602740562,-0.0588702048,-0.785454878
44,116151,1293400,0.966,-0.092,0.24,-3.7,0,-0.3,-4.7,23.9,-21.4,0.127506333,-0.602740562,-0.0588702048,-0.785454878
45,118086,1293400,0.966,-0.092,0.24,-3.7,0,-0.3,-4.7,23.9,-21.4,0.127506333,-0.602740562,-0.0588702048,-0.785454878
46,121406,1293400,0.966,-0.092,0.24,-3.7,0,-0.3,-4.7,23.9,-21.4,0.127506333,-0.602740562,-0.0588702048,-0.785454878
47,123380,1293410,0.966,-0.092,0.24,-3.7,0,-0.3,-4.7,23.9,-21.4,0.127506333,-0.602740562,-0.0588702048,-0.785454878
48,125017,1293410,0.966,-0.092,0.24,-3.7,0,-0.3,-4.7,23.9,-21.4,0.127506333,-0.602740562,-0.0588702048,-0.785454878
49,128097,1293410,0.966,-0.092,0.24,-3.7,0,-0.3,-4.7,23.9,-21.4,0.127506333,-0.602740562,-0.0588702048,-0.785454878
50,129765,1293410,0.966,-0.092,0.24,-3.7,0,-0.3,-4.7,23.9,-21.4,0.127506333,-0.602740562,-0.0588702048,-0.785454878
51,133085,1293420,0.966,-0.092,0.24,-3.7,0,-0.3,-4.7,23.9,-21.4,0.127506333,-0.602740562,-0.0588702048,-0.785454878
52,135559,1293420,0.966,-0.092,0.24,-3.7,0,-0.3,-4.7,23.9,-21.4,0.127506333,-0.602740562,-0.0588702048,-0.785454878
53,137375,1293420,0.966,-0.092,0.24,-3.7,0,-0.3,-4.7,23.9,-21.4,0.127506333,-0.602740562,-0.0588702048,-0.785454878
54,139898,1293420,0.966,-0.092,0.24,-3.7,0,-0.3,-4.7,23.9,-21.4,0.127506333,-0.602740562,-0.0588702048,-0.785454878
55,143379,1293430,0.966,-0.092,0.24,-3.7,0,-0.3,-4.7,23.9,-21.4,0.127506333,-0.602740562,-0.0588702048,-0.785454878
56,145561,1293430,0.966,-0.092,0.24,-3.7,0,-0.3,-4.7,23.9,-21.4,0.127506333,-0.602740562,-0.0588702048,-0.785454878
57,147820,1293430,0.966,-0.092,0.24,-3.7,0,-0.3,-4.7,23.9,-21.4,0.127506333,-0.602740562,-0.0588702048,-0.785454878
58,150275,1293430,0.966,-0.092,0.24,-3.7,0,-0.3,-4.7,23.9,-21.4,0.127506333,-0.602740562,-0.0588702048,-0.785454878
59,152498,1293440,0.966,-0.092,0.24,-3.7,0,-0.3,-4.7,23.9,-21.4,0.127506333,-0.602740562,-0.0588702048,-0.785454878
60,154686,1293440,0.969,-0.088,0.24,-2.8,0.1,-0.6,-4.6,23.9,-20.1,0.126712851,-0.603320414,-0.0574663533,-0.785241249
61,159326,1293440,0.969,-0.088,0.24,-2.8,0.1,-0.6,-4.6,23.9,-20.1,0.126712851,-0.603320414,-0.0574663533,-0.785241249
62,159697,1293440,0.969,-0.088,0.24,-2.8,0.1,-0.6,-4.6,23.9,-20.1,0.126712851,-0.603320414,-0.0574663533,-0.785241249
63,162325,1293450,0.969,-0.088,0.24,-2.8,0.1,-0.6,-4.6,23.9,-20.1,0.126712851,-0.603320414,-0.0574663533,-0.785241249
64,164706,1293450,0.969,-0.088,0.24,-2.8,0.1,-0.6,-4.6,23.9,-20.1,0.126712851,-0.603320414,-0.0574663533,-0.785241249
65,169002,1293450,0.969,-0.088,0.24,-2.8,0.1,-0.6,-4.6,23.9,-20.1,0.126712851,-0.603320414,-0.0574663533,-0.785241249
66,171314,1293450,0.969,-0.088,0.24,-2.8,0.1,-0.6,-4.6,23.9,-20.1,0.126712851,-0.603320414,-0.0574663533,-0.785241249
67,173408,1293460,0.969,-0.088,0.24,-2.8,0.1,-0.6,-4.6,23.9,-20.1,0.126712851,-0.603320414,-0.0574663533,-0.785241249
68,175525,1293460,0.966,-0.096,0.236,-3.1,0.2,-0.9,-4.6,23.7,-20.2,0.126621296,-0.603778191,-0.0568559832,-0.784936064
69,177766,1293460,0.966,-0.096,0.236,-3.1,0.1,-1.1,-4.6,23.7,-20.2,0.126560259,-0.603778191,-0.0568254646,-0.784966582
70,181415,1293460,0.966,-0.096,0.236,-3.1,0.1,-1.1,-4.6,23.7,-20.2,0.126560259,-0.603778191,-0.0568254646,-0.784966582
71,183861,1293470,0.966,-0.1,0.244,-3.3,0.3,-1.2,-4.5,24,-20.3,0.126438185,-0.603778191,-0.0567339091,-0.784966582
72,186220,1293470,0.966,-0.1,0.244,-3.3,0.3,-1.2,-4.5,24,-20.3,0.126438185,-0.603778191,-0.0567339091,-0.784966582
73,188405,1293470,0.966,-0.1,0.244,-3.3,0.3,-1.2,-4.5,24,-20.3,0.126438185,-0.603778191,-0.0567339091,-0.784966582
74,190467,1293470,0.966,-0.1,0.244,-3.3,0.3,-1.2,-4.5,24,-20.3,0.126438185,-0.603778191,-0.0567339091,-0.784966582
75,192817,1293480,0.966,-0.1,0.244,-3.3,0.3,-1.2,-4.5,24,-20.3,0.126438185,-0.603778191,-0.0567339091,-0.784966582
76,195098,1293480,0.966,-0.1,0.244,-3.3,0.3,-1.2,-4.5,24,-20.3,0.126438185,-0.603778191,-0.0567339091,-0.784966582
77,197395,1293480,0.966,-0.1,0.24,-3.4,0.5,-0.9,-4.4,24,-18.6,0.126071963,-0.603778191,-0.056428724,-0.785058138
78,199667,1293480,0.966,-0.1,0.24,-3.4,0.5,-0.9,-4.4,24,-18.6,0.126071963,-0.603778191,-0.056428724,-0.785058138
79,203424,1293490,0.966,-0.1,0.24,-3.4,0.5,-0.9,-4.4,24,-18.6,0.126071963,-0.603778191,-0.056428724,-0.785058138
80,205483,1293490,0.966,-0.1,0.24,-3.4,0.5,-0.9,-4.4,24,-18.6,0.126071963,-0.603778191,-0.056428724,-0.785058138
81,207748,1293490,0.962,-0.096,0.233,-3.2,0.1,-1,-4.7,23.5,-20.2,0.125827815,-0.60380871,-0.05630665,-0.785088656
82,210178,1293490,0.962,-0.096,0.233,-3.2,0.1,-1,-4.7,23.5,-20.2,0.125827815,-0.60380871,-0.05630665,-0.785088656
83,212456,1293500,0.962,-0.096,0.233,-3.2,0.1,-1,-4.7,23.5,-20.2,0.125827815,-0.60380871,-0.05630665,-0.785088656
84,214719,1293500,0.962,-0.096,0.233,-3.2,0.1,-1,-4.7,23.5,-20.2,0.125827815,-0.60380871,-0.05630665,-0.785088656
85,218400,1293500,0.962,-0.096,0.233,-3.2,0.1,-1,-4.7,23.5,-20.2,0.125827815,-0.60380871,-0.05630665,-0.785088656
86,220501,1293500,0.962,-0.096,0.233,-3.2,0.1,-1,-4.7,23.5,-20.2,0.125827815,-0.60380871,-0.05630665,-0.785088656
87,222750,1293510,0.962,-0.096,0.233,-3.2,0.1,-1,-4.7,23.5,-20.2,0.125827815,-0.60380871,-0.05630665,-0.785088656
88,225218,1293510,0.962,-0.096,0.233,-3.2,0.1,-1,-4.7,23.5,-20.2,0.125827815,-0.60380871,-0.05630665,-0.785088656
89,227486,1293510,0.962,-0.096,0.233,-3.2,0.1,-1,-4.7,23.5,-20.2,0.125827815,-0.60380871,-0.05630665,-0.785088656
90,229697,1293510,0.962,-0.096,0.233,-3.2,0.1,-1,-4.7,23.5,-20.2,0.125827815,-0.60380871,-0.05630665,-0.785088656
91,233379,1293520,0.962,-0.096,0.233,-3.2,0.1,-1,-4.7,23.5,-20.2,0.125827815,-0.60380871,-0.05630665,-0.785088656
92,235507,1293520,0.973,-0.088,0.24,-2.5,0.2,-0.6,-4.7,23,-19.9,0.125675222,-0.604266488,-0.0554521317,-0.78481399
93,237777,1293520,0.969,-0.088,0.236,-2.5,0.2,-0.7,-4,23.1,-19.9,0.125614185,-0.604266488,-0.0554521317,-0.78481399
94,240236,1293520,0.969,-0.088,0.236,-2.5,0.2,-0.7,-4,23.1,-19.9,0.125614185,-0.604266488,-0.0554521317,-0.78481399
95,242438,1293530,0.969,-0.088,0.236,-2.5,0.2,-0.7,-4,23.1,-19.9,0.125614185,-0.604266488,-0.0554521317,-0.78481399
96,244755,1293530,0.969,-0.088,0.236,-2.5,0.2,-0.7,-4,23.1,-19.9,0.125614185,-0.604266488,-0.0554521317,-0.78481399
97,249233,1293530,0.969,-0.088,0.236,-2.5,0.2,-0.7,-4,23.1,-19.9,0.125614185,-0.604266488,-0.0554521317,-0.78481399
98,251479,1293530,0.969,-0.088,0.236,-2.5,0.2,-0.7,-4,23.1,-19.9,0.125614185,-0.604266488,-0.0554521317,-0.78481399
99,253699,1293540,0.969,-0.088,0.236,-2.5,0.2,-0.7,-4,23.1,-19.9,0.125614185,-0.604266488,-0.0554521317,-0.78481399
100,255996,1293540,0.969,-0.088,0.236,-2.5,0.2,-0.7,-4,23.1,-19.9,0.125614185,-0.604266488,-0.0554521317,-0.78481399
101,257998,1293540,0.969,-0.088,0.236,-2.5,0.2,-0.7,-4,23.1,-19.9,0.125614185,-0.604266488,-0.0554521317,-0.78481399
102,260282,1293540,0.969,-0.088,0.236,-2.5,0.2,-0.7,-4,23.1,-19.9,0.125614185,-0.604266488,-0.0554521317,-0.78481399
103,262834,1293550,0.966,-0.092,0.236,-2.3,0.8,-0.1,-4.7,24.9,-18.4,0.125217444,-0.604235969,-0.0550248726,-0.784936064
104,265555,1293550,0.966,-0.092,0.236,-2.3,0.8,-0.1,-4.7,24.9,-18.4,0.125217444,-0.604235969,-0.0550248726,-0.784936064
105,267699,1293550,0.966,-0.092,0.236,-2.3,0.8,-0.1,-4.7,24.9,-18.4,0.125217444,-0.604235969,-0.0550248726,-0.784936064
106,270114,1293550,0.966,-0.092,0.236,-2.3,0.8,-0.1,-4.7,24.9,-18.4,0.125217444,-0.604235969,-0.0550248726,-0.784936064
107,272465,1293560,0.966,-0.092,0.236,-2.3,0.8,-0.1,-4.7,24.9,-18.4,0.125217444,-0.604235969,-0.0550248726,-0.784936064
108,274725,1293560,0.962,-0.092,0.236,-1.8,0.9,-0.1,-4.4,23.4,-20.5,0.125278481,-0.604541154,-0.054628132,-0.784752953
109,279157,1293560,0.962,-0.092,0.236,-1.8,0.9,-0.1,-4.4,23.4,-20.5,0.125278481,-0.604541154,-0.054628132,-0.784752953
110,281320,1293560,0.962,-0.092,0.236,-1.8,0.9,-0.1,-4.4,23.4,-20.5,0.125278481,-0.604541154,-0.054628132,-0.784752953
111,283640,1293570,0.962,-0.092,0.24,-1.7,1,-0.1,-4.8,24.2,-20.6,0.125217444,-0.604480117,-0.0545365764,-0.784783471
112,285750,1293570,0.962,-0.096,0.236,-1.7,1.2,-0.3,-4.8,24.2,-20.6,0.125186926,-0.604480117,-0.0544755394,-0.78481399
113,287990,1293570,0.962,-0.096,0.236,-1.7,1.2,-0.3,-4.8,24.2,-20.6,0.125186926,-0.604480117,-0.0544755394,-0.78481399
114,290222,1293570,0.962,-0.096,0.236,-1.7,1.2,-0.3,-4.8,24.2,-20.6,0.125186926,-0.604480117,-0.0544755394,-0.78481399
115,292712,1293580,0.962,-0.096,0.236,-1.7,1.2,-0.3,-4.8,24.2,-20.6,0.125186926,-0.604480117,-0.0544755394,-0.78481399
116,294846,1293580,0.962,-0.096,0.236,-1.7,1.2,-0.3,-4.8,24.2,-20.6,0.125186926,-0.604480117,-0.0544755394,-0.78481399
117,297227,1293580,0.962,-0.096,0.236,-1.7,1.2,-0.3,-4.8,24.2,-20.6,0.125186926,-0.604480117,-0.0544755394,-0.78481399
118,301145,1293580,0.954,-0.096,0.244,-1.8,0.7,-0.3,-4.4,24.8,-19.4,0.125034333,-0.60441908,-0.0543839839,-0.784875027
119,303424,1293590,0.954,-0.1,0.244,-2,0.4,-0.3,-4.4,24.3,-19.3,0.125003815,-0.60441908,-0.0543534654,-0.784905545
120,305509,1293590,0.958,-0.1,0.24,-2,0.4,-0.3,-4.4,24.3,-19.3,0.124942778,-0.604388562,-0.0542924284,-0.784905545
121,307751,1293590,0.958,-0.096,0.244,-2,0.5,-0.3,-4.4,24.3,-19.3,0.124912259,-0.604388562,-0.0542313913,-0.784936064
122,310015,1293590,0.958,-0.096,0.244,-2,0.5,-0.3,-4.4,24.3,-19.3,0.124912259,-0.604388562,-0.0542313913,-0.784936064
123,313466,1293600,0.962,-0.1,0.24,-2.3,0.6,-0.3,-4.6,25,-19.4,0.124881741,-0.604388562,-0.0542008728,-0.784936064
124,315524,1293600,0.958,-0.096,0.24,-2.3,0.6,-0.3,-4.6,25,-19.4,0.124851222,-0.604388562,-0.0541703543,-0.784936064
125,317805,1293600,0.962,-0.096,0.233,-2.3,0.6,-0.4,-4.6,25,-19.4,0.124759667,-0.604388562,-0.0541093173,-0.784966582
126,320220,1293600,0.962,-0.096,0.233,-2.3,0.6,-0.4,-4.6,25,-19.4,0.124759667,-0.604388562,-0.0541093173,-0.784966582
127,322247,1293610,0.962,-0.096,0.233,-2.3,0.6,-0.4,-4.6,25,-19.4,0.124759667,-0.604388562,-0.0541093173,-0.784966582
128,326427,1293610,0.966,-0.092,0.244,-2,0.6,-0.5,-4.7,24.9,-19.7,0.124973296,-0.604663228,-0.0537125767,-0.784752953
129,328728,1293610,0.973,-0.096,0.244,-1.9,0.4,-0.6,-4.7,24.9,-19.7,0.124942778,-0.604663228,-0.0536820582,-0.784752953
130,330900,1293610,0.973,-0.096,0.244,-1.9,0.4,-0.6,-4.7,24.9,-19.7,0.124942778,-0.604663228,-0.0536820582,-0.784752953
131,333033,1293620,0.973,-0.096,0.244,-1.9,0.4,-0.6,-4.7,24.9,-19.7,0.124942778,-0.604663228,-0.0536820582,-0.784752953
132,335296,1293620,0.966,-0.096,0.244,-2,0.3,-0.6,-4.7,24.9,-19.4,0.124851222,-0.604663228,-0.0536210211,-0.784783471
133,337774,1293620,0.969,-0.096,0.244,-2,0.3,-0.5,-4.7,24.9,-19.4,0.124820704,-0.604663228,-0.0535905026,-0.784783471
134,340006,1293620,0.973,-0.088,0.244,-2,0.3,-0.5,-4.7,24.9,-19.4,0.124729148,-0.604663228,-0.0534989471,-0.78481399
135,344034,1293630,0.973,-0.088,0.244,-2,0.3,-0.5,-4.7,24.9,-19.4,0.124729148,-0.604663228,-0.0534989471,-0.78481399
136,346174,1293630,0.973,-0.088,0.244,-2,0.3,-0.5,-4.7,24.9,-19.4,0.124729148,-0.604663228,-0.0534989471,-0.78481399
137,348491,1293630,0.969,-0.088,0.244,-2.1,-0.1,-0.4,-4.6,23.9,-19.5,0.124668111,-0.604663228,-0.0534684286,-0.78481399
138,350497,1293630,0.966,-0.088,0.24,-2.1,-0.1,-0.4,-4.6,23.9,-19.5,0.124607074,-0.604693747,-0.0534379101,-0.78481399
139,352477,1293640,0.969,-0.088,0.24,-2.3,-0.3,-0.3,-4.6,23.9,-19.5,0.124576556,-0.604693747,-0.0534073916,-0.78481399
140,355575,1293640,0.962,-0.088,0.248,-2.3,-0.6,-0.4,-4.6,24.8,-19.3,0.124546037,-0.604724265,-0.0533768731,-0.78481399
141,357743,1293640,0.966,-0.084,0.244,-2.3,-0.6,-0.3,-4.6,24.8,-19.3,0.124515519,-0.604724265,-0.0533463546,-0.784783471
142,361740,1293640,0.966,-0.084,0.244,-2.3,-0.6,-0.3,-4.6,24.8,-19.3,0.124515519,-0.604724265,-0.0533463546,-0.784783471
143,364137,1293650,0.966,-0.088,0.244,-2.2,-0.7,-0.2,-4.6,24.8,-19.3,0.124423963,-0.604754784,-0.053254799,-0.784783471
144,366298,1293650,0.962,-0.084,0.236,-2.1,-0.7,-0.2,-4.9,24.4,-19.6,0.124393445,-0.604785302,-0.0532242805,-0.784783471
145,368561,1293650,0.958,-0.088,0.237,-2.1,-0.6,-0.2,-4.9,24.4,-19.6,0.124362926,-0.604785302,-0.053193762,-0.784783471
146,370481,1293650,0.958,-0.088,0.237,-2.1,-0.6,-0.2,-4.9,24.4,-19.6,0.124362926,-0.604785302,-0.053193762,-0.784783471
147,372401,1293660,0.962,-0.088,0.236,-2.1,-0.3,-0.1,-4.9,24.4,-19.6,0.124301889,-0.604815821,-0.053132725,-0.784783471
148,375264,1293660,0.962,-0.088,0.236,-2.1,-0.3,-0.1,-4.9,24.4,-19.6,0.124301889,-0.604815821,-0.053132725,-0.784783471
149,379391,1293660,0.958,-0.092,0.24,-2,0,-0.2,-5.1,24.7,-19.7,0.124393445,-0.60502945,-0.0529190954,-0.78460036
150,379688,1293660,0.958,-0.096,0.237,-1.9,0,-0.4,-5.1,24.7,-19.7,0.124362926,-0.60502945,-0.0528885769,-0.78460036
151,382745,1293670,0.958,-0.1,0.24,-1.8,0,-0.7,-5.1,24.7,-19.7,0.124332408,-0.60502945,-0.0528885769,-0.78460036
152,385574,1293670,0.962,-0.096,0.244,-1.8,0,-0.7,-5.1,24.7,-19.7,0.124301889,-0.605059969,-0.0528580584,-0.784630879
153,387910,1293670,0.962,-0.096,0.244,-1.8,0,-0.7,-5.1,24.7,-19.7,0.124301889,-0.605059969,-0.0528580584,-0.784630879
154,390206,1293670,0.962,-0.096,0.244,-1.8,0,-0.7,-5.1,24.7,-19.7,0.124301889,-0.605059969,-0.0528580584,-0.784630879
155,392950,1293680,0.958,-0.096,0.24,-1.7,0.3,-0.5,-5.6,24.3,-19.3,0.124210334,-0.605059969,-0.0527665029,-0.784630879
156,396635,1293680,0.962,-0.104,0.24,-1.7,0.3,-0.5,-5.6,24.3,-19.3,0.124179815,-0.605059969,-0.0527665029,-0.784661397
157,398544,1293680,0.958,-0.1,0.244,-1.8,0.1,-0.6,-3.9,23.5,-19.1,0.124118778,-0.605059969,-0.0527359844,-0.784661397
158,400455,1293680,0.958,-0.1,0.244,-1.8,0.1,-0.6,-3.9,23.5,-19.1,0.124118778,-0.605059969,-0.0527359844,-0.784661397
159,402320,1293690,0.962,-0.096,0.244,-2,0,-0.7,-3.9,23.5,-19.1,0.124057741,-0.605059969,-0.0526749474,-0.784661397
160,404990,1293690,0.966,-0.1,0.24,-2,0,-0.7,-3.9,23.5,-19.1,0.123996704,-0.605059969,-0.0526749474,-0.784661397
161,408090,1293690,0.966,-0.1,0.24,-2,0,-0.7,-3.9,23.5,-19.1,0.123996704,-0.605059969,-0.0526749474,-0.784661397
162,410506,1293690,0.966,-0.1,0.24,-2,0,-0.7,-3.9,23.5,-19.1,0.123996704,-0.605059969,-0.0526749474,-0.784661397
163,412398,1293700,0.966,-0.1,0.24,-2,0,-0.7,-3.9,23.5,-19.1,0.123996704,-0.605059969,-0.0526749474,-0.784661397
164,415189,1293700,0.962,-0.096,0.248,-2.2,-0.1,-0.3,-3.9,23.5,-19.1,0.12387463,-0.605090487,-0.0525223548,-0.784661397
165,417310,1293700,0.962,-0.096,0.248,-2.2,-0.1,-0.3,-3.9,23.5,-19.1,0.12387463,-0.605090487,-0.0525223548,-0.784661397
166,420141,1293700,0.962,-0.096,0.248,-2.2,-0.1,-0.3,-3.9,23.5,-19.1,0.12387463,-0.605090487,-0.0525223548,-0.784661397
167,423969,1293710,0.962,-0.092,0.244,-2.2,-0.1,0,-3.9,23.5,-19.1,0.123783074,-0.605121006,-0.0524307993,-0.784691916
168,426023,1293710,0.962,-0.092,0.244,-2.2,-0.1,0,-3.9,23.5,-19.1,0.123783074,-0.605121006,-0.0524307993,-0.784691916
169,427591,1293710,0.958,-0.092,0.24,-2.1,-0.3,-0.2,-3.9,23.5,-19.1,0.123752556,-0.605121006,-0.0524002808,-0.784691916
170,431580,1293710,0.958,-0.092,0.24,-2.1,-0.3,-0.2,-3.9,23.5,-19.1,0.123752556,-0.605121006,-0.0524002808,-0.784691916
171,433514,1293720,0.962,-0.092,0.244,-1.9,-0.3,-0.3,-3.9,23.5,-19.1,0.123905148,-0.605395672,-0.0520035401,-0.784478286
172,435113,1293720,0.962,-0.092,0.248,-1.8,-0.2,-0.3,-3.9,23.5,-19.1,0.12387463,-0.605395672,-0.0519730216,-0.784478286
173,437800,1293720,0.962,-0.092,0.24,-1.7,-0.1,-0.1,-3.9,23.5,-19.1,0.12387463,-0.605395672,-0.0519425031,-0.784478286
174,440225,1293720,0.962,-0.092,0.24,-1.7,-0.1,-0.1,-3.9,23.5,-19.1,0.12387463,-0.605395672,-0.0519425031,-0.784478286
175,443365,1293730,0.962,-0.092,0.24,-1.7,-0.1,-0.1,-3.9,23.5,-19.1,0.12387463,-0.605395672,-0.0519425031,-0.784478286
176,445403,1293730,0.966,-0.088,0.24,-1.2,-0.2,0,-3.7,23.8,-19.2,0.123813593,-0.605426191,-0.0518814661,-0.784478286
177,447779,1293730,0.966,-0.088,0.24,-1.1,-0.2,0,-3.7,23.8,-19.2,0.123783074,-0.605426191,-0.0518509476,-0.784478286
178,451757,1293730,0.966,-0.088,0.24,-1.1,-0.2,0,-3.7,23.8,-19.2,0.123783074,-0.605426191,-0.0518509476,-0.784478286
179,453547,1293740,0.958,-0.088,0.24,-1.1,-0.1,-0.1,-5.1,24.8,-19.5,0.123783074,-0.605456709,-0.0518509476,-0.784478286
180,455337,1293740,0.962,-0.088,0.244,-0.8,0,-0.1,-5.1,24.8,-19.5,0.123752556,-0.605456709,-0.0517899106,-0.784478286
181,457219,1293740,0.966,-0.088,0.236,-0.7,0,-0.1,-5.1,24.8,-19.5,0.123722037,-0.605456709,-0.0517899106,-0.784478286
182,459716,1293740,0.966,-0.088,0.236,-0.7,0,-0.1,-5.1,24.8,-19.5,0.123722037,-0.605456709,-0.0517899106,-0.784478286
183,463596,1293750,0.969,-0.088,0.244,-0.7,0,0,-5.3,24.8,-19.5,0.123722037,-0.605456709,-0.0517899106,-0.784478286
184,465986,1293750,0.958,-0.088,0.24,-0.8,0,0,-5.3,24.8,-19.5,0.123691519,-0.605456709,-0.0517899106,-0.784478286
185,467989,1293750,0.962,-0.084,0.24,-0.9,0.1,0,-5.3,24.8,-19.5,0.123691519,-0.605456709,-0.0517288736,-0.784478286
186,470125,1293750,0.962,-0.084,0.24,-0.9,0.1,0,-5.3,24.8,-19.5,0.123691519,-0.605456709,-0.0517288736,-0.784478286
187,474185,1293760,0.962,-0.088,0.24,-0.9,0.2,0,-4.7,24.3,-19.5,0.123630482,-0.605456709,-0.0517288736,-0.784478286
188,476357,1293760,0.962,-0.088,0.236,-1,0.3,0.1,-4.7,24.3,-19.5,0.123630482,-0.605456709,-0.0516983551,-0.784478286
189,478759,1293760,0.962,-0.088,0.24,-1.3,0.1,0,-4.7,24.3,-19.5,0.123630482,-0.605456709,-0.0516678365,-0.784478286
190,480350,1293760,0.962,-0.088,0.24,-1.3,0.1,0,-4.7,24.3,-19.5,0.123630482,-0.605456709,-0.0516678365,-0.784478286
191,482676,1293770,0.962,-0.088,0.24,-1.3,0.1,0,-4.7,24.3,-19.5,0.123630482,-0.605456709,-0.0516678365,-0.784478286
192,484746,1293770,0.958,-0.096,0.24,-1.5,0,-0.1,-4.8,24.4,-19.7,0.123813593,-0.605761895,-0.0513016144,-0.784234138
193,487864,1293770,0.962,-0.088,0.24,-1.5,0,-0.1,-4.8,24.4,-19.7,0.123783074,-0.605761895,-0.0513016144,-0.784234138
194,490405,1293770,0.962,-0.088,0.24,-1.5,0,-0.1,-4.8,24.4,-19.7,0.123783074,-0.605761895,-0.0513016144,-0.784234138
195,492787,1293780,0.962,-0.088,0.24,-1.5,0,-0.1,-4.8,24.4,-19.7,0.123783074,-0.605761895,-0.0513016144,-0.784234138
196,495180,1293780,0.966,-0.096,0.236,-1.4,0,0,-4.5,24.2,-19.3,0.123722037,-0.605761895,-0.0512405774,-0.784264657
197,498781,1293780,0.962,-0.092,0.24,-1.4,-0.1,0,-4.5,24.2,-19.3,0.123691519,-0.605792413,-0.0512405774,-0.784264657
198,500970,1293780,0.962,-0.088,0.244,-1.4,-0.1,0,-4.5,24.2,-19.3,0.123691519,-0.605792413,-0.0512100589,-0.784264657
199,502971,1293790,0.962,-0.088,0.24,-1.4,-0.1,-0.2,-4.5,24.2,-19.3,0.123630482,-0.605792413,-0.0511795404,-0.784264657
200,505387,1293790,0.962,-0.088,0.24,-1.4,-0.1,-0.2,-4.5,24.2,-19.3,0.123630482,-0.605792413,-0.0511795404,-0.784264657
201,508741,1293790,0.962,-0.088,0.24,-1.4,-0.1,-0.2,-4.5,24.2,-19.3,0.123630482,-0.605792413,-0.0511795404,-0.784264657
202,510640,1293790,0.962,-0.088,0.24,-1.4,-0.1,-0.2,-4.5,24.2,-19.3,0.123630482,-0.605792413,-0.0511795404,-0.784264657
203,512902,1293800,0.962,-0.088,0.24,-1.4,-0.1,-0.2,-4.5,24.2,-19.3,0.123630482,-0.605792413,-0.0511795404,-0.784264657
204,515628,1293800,0.966,-0.088,0.24,-1.4,-0.1,-0.4,-4.3,24.5,-19.3,0.123538926,-0.605822932,-0.0510574664,-0.784264657
205,517681,1293800,0.969,-0.088,0.236,-1.5,0,-0.5,-4.3,24.5,-19.3,0.123508408,-0.60585345,-0.0510574664,-0.784264657
206,519813,1293800,0.969,-0.088,0.236,-1.5,0,-0.5,-4.3,24.5,-19.3,0.123508408,-0.60585345,-0.0510574664,-0.784264657
207,524266,1293810,0.966,-0.084,0.244,-1.5,0,-0.6,-4.3,24.5,-19.3,0.123447371,-0.60585345,-0.0510269478,-0.784264657
208,526644,1293810,0.966,-0.088,0.244,-1.4,0,-0.7,-4.7,24.1,-19.3,0.123416852,-0.60585345,-0.0510269478,-0.784264657
209,528992,1293810,0.966,-0.084,0.248,-1.4,0,-0.7,-4.7,24.1,-19.3,0.123386334,-0.60585345,-0.0509964293,-0.784264657
210,530838,1293810,0.966,-0.084,0.248,-1.4,0,-0.7,-4.7,24.1,-19.3,0.123386334,-0.60585345,-0.0509964293,-0.784264657
211,533172,1293820,0.966,-0.084,0.248,-1.4,0,-0.7,-4.7,24.1,-19.3,0.123386334,-0.60585345,-0.0509964293,-0.784264657
212,536524,1293820,0.966,-0.084,0.248,-1.4,0,-0.7,-4.7,24.1,-19.3,0.123386334,-0.60585345,-0.0509964293,-0.784264657
213,538780,1293820,0.966,-0.084,0.248,-1.4,0,-0.7,-4.7,24.1,-19.3,0.123386334,-0.60585345,-0.0509964293,-0.784264657
214,541018,1293820,0.966,-0.084,0.248,-1.4,0,-0.7,-4.7,24.1,-19.3,0.123386334,-0.60585345,-0.0509964293,-0.784264657
215,542956,1293830,0.973,-0.084,0.252,-2.2,-0.3,-0.6,-4.6,24.3,-19.1,0.123325297,-0.606036561,-0.0506912442,-0.784142582
216,545280,1293830,0.973,-0.084,0.252,-2.2,-0.3,-0.6,-4.6,24.3,-19.1,0.123325297,-0.606036561,-0.0506912442,-0.784142582
217,547761,1293830,0.973,-0.084,0.252,-2.2,-0.3,-0.6,-4.6,24.3,-19.1,0.123325297,-0.606036561,-0.0506912442,-0.784142582
218,550633,1293830,0.973,-0.084,0.252,-2.2,-0.3,-0.6,-4.6,24.3,-19.1,0.123325297,-0.606036561,-0.0506912442,-0.784142582
219,552848,1293840,0.973,-0.084,0.252,-2.2,-0.3,-0.6,-4.6,24.3,-19.1,0.123325297,-0.606036561,-0.0506912442,-0.784142582
220,556027,1293840,0.966,-0.084,0.248,-2.5,-0.2,-0.8,-5.4,24.3,-19.4,0.123111667,-0.606097598,-0.0505386517,-0.784142582
221,558163,1293840,0.966,-0.084,0.248,-2.5,-0.2,-0.8,-5.4,24.3,-19.4,0.123111667,-0.606097598,-0.0505386517,-0.784142582
222,560389,1293840,0.966,-0.084,0.244,-2.5,-0.2,-0.7,-5.4,24.3,-19.4,0.12305063,-0.606097598,-0.0505081332,-0.784142582
223,563558,1293850,0.962,-0.08,0.24,-2.3,-0.3,-0.8,-5.4,24.3,-19.4,0.122959075,-0.606128117,-0.0504470962,-0.784142582
224,565579,1293850,0.966,-0.084,0.236,-2.3,-0.3,-1,-5.4,24.3,-19.4,0.122928556,-0.606128117,-0.0504165777,-0.784142582
225,567781,1293850,0.966,-0.084,0.236,-2.3,-0.3,-1,-5.4,24.3,-19.4,0.122928556,-0.606128117,-0.0504165777,-0.784142582
226,570978,1293850,0.962,-0.084,0.24,-2.2,-0.3,-1,-5.4,24.3,-19.4,0.122867519,-0.606158635,-0.0504165777,-0.784142582
227,573020,1293860,0.962,-0.084,0.24,-2.2,-0.3,-1,-5.4,24.3,-19.4,0.122867519,-0.606158635,-0.0504165777,-0.784142582
228,575209,1293860,0.962,-0.088,0.24,-2,-0.2,-1,-5.4,24.3,-19.4,0.122714927,-0.606189154,-0.0503250221,-0.784142582
229,578384,1293860,0.962,-0.088,0.24,-2,-0.2,-1,-5.4,24.3,-19.4,0.122714927,-0.606189154,-0.0503250221,-0.784142582
230,579901,1293860,0.958,-0.088,0.24,-1.9,-0.3,-1.2,-5.4,24.3,-19.4,0.12265389,-0.606189154,-0.0503250221,-0.784142582
231,583520,1293870,0.958,-0.088,0.233,-1.9,-0.4,-1.5,-5.4,24.3,-19.4,0.122592853,-0.606219672,-0.0502945036,-0.784142582
232,584914,1293870,0.958,-0.092,0.233,-2,-0.4,-1.5,-5.4,24.3,-19.4,0.122531816,-0.606219672,-0.0502945036,-0.784142582
233,587754,1293870,0.958,-0.092,0.233,-2,-0.4,-1.5,-5.4,24.3,-19.4,0.122531816,-0.606219672,-0.0502945036,-0.784142582
234,591106,1293870,0.958,-0.092,0.233,-2,-0.4,-1.5,-5.4,24.3,-19.4,0.122531816,-0.606219672,-0.0502945036,-0.784142582
235,593284,1293880,0.958,-0.092,0.233,-2,-0.4,-1.5,-5.4,24.3,-19.4,0.122531816,-0.606219672,-0.0502945036,-0.784142582
236,594713,1293880,0.954,-0.088,0.229,-2.2,-0.3,-1.8,-5.4,24.3,-19.4,0.122531816,-0.606402783,-0.0500808741,-0.784020508
237,597581,1293880,0.962,-0.096,0.233,-2.3,0,-2.1,-5.4,24.3,-19.4,0.122409742,-0.606433302,-0.0500503555,-0.784051027
238,600670,1293880,0.962,-0.096,0.233,-2.3,0,-2.1,-5.4,24.3,-19.4,0.122409742,-0.606433302,-0.0500503555,-0.784051027
239,602993,1293890,0.966,-0.092,0.236,-2.3,0,-2.2,-4,24.2,-19.2,0.122318186,-0.606433302,-0.0500503555,-0.784051027
240,604705,1293890,0.962,-0.096,0.236,-2.2,0,-2.3,-4,24.2,-19.2,0.122257149,-0.606433302,-0.0500503555,-0.784051027
241,608467,1293890,0.966,-0.096,0.236,-2.2,0.1,-2.4,-4,24.2,-19.2,0.122104556,-0.606433302,-0.050019837,-0.784081545
242,609914,1293890,0.966,-0.096,0.236,-2.2,0.1,-2.4,-4,24.2,-19.2,0.122104556,-0.606433302,-0.050019837,-0.784081545
243,612781,1293900,0.969,-0.092,0.236,-2.2,0,-2.4,-3.7,24.3,-19.3,0.122043519,-0.606433302,-0.050019837,-0.784081545
244,614920,1293900,0.969,-0.092,0.236,-2.2,0,-2.4,-3.7,24.3,-19.3,0.122043519,-0.606433302,-0.050019837,-0.784081545
245,617752,1293900,0.969,-0.088,0.24,-2.5,-0.1,-2.2,-3.7,24.3,-19.3,0.121890927,-0.606433302,-0.0499893185,-0.784112064
246,621027,1293900,0.966,-0.088,0.244,-2.7,-0.3,-2.2,-3.7,24.3,-19.3,0.12182989,-0.606433302,-0.0499893185,-0.784112064
247,623016,1293910,0.966,-0.088,0.248,-3.4,-0.4,-2.4,-4.2,24.2,-19.4,0.121738334,-0.606433302,-0.0499588,-0.784112064
248,625260,1293910,0.969,-0.088,0.24,-3.4,-0.4,-2.4,-4.2,24.2,-19.4,0.121646779,-0.606494339,-0.0499282815,-0.784112064
249,628533,1293910,0.966,-0.076,0.24,-3.8,-0.3,-2.4,-4.2,24.2,-19.4,0.121555223,-0.606494339,-0.049897763,-0.784112064
250,630582,1293910,0.966,-0.076,0.24,-3.8,-0.3,-2.4,-4.2,24.2,-19.4,0.121555223,-0.606494339,-0.049897763,-0.784112064
251,632823,1293920,0.966,-0.076,0.24,-3.8,-0.3,-2.4,-4.2,24.2,-19.4,0.121555223,-0.606494339,-0.049897763,-0.784112064
252,634961,1293920,0.962,-0.076,0.24,-4.3,-0.6,-2.3,-3.8,24.1,-19,0.121250038,-0.606555376,-0.049775689,-0.784142582
253,638063,1293920,0.958,-0.072,0.24,-4.5,-0.6,-2.4,-3.8,24.1,-19,0.121158483,-0.606585894,-0.0497451704,-0.784142582
254,640480,1293920,0.962,-0.08,0.244,-4.5,-0.5,-2.4,-3.8,24.1,-19,0.121066927,-0.606585894,-0.0496841334,-0.784142582
255,642242,1293930,0.962,-0.08,0.244,-4.5,-0.5,-2.4,-3.8,24.1,-19,0.121066927,-0.606585894,-0.0496841334,-0.784142582
256,645457,1293930,0.962,-0.08,0.244,-4.5,-0.5,-2.4,-3.8,24.1,-19,0.121066927,-0.606585894,-0.0496841334,-0.784142582
257,647709,1293930,0.962,-0.08,0.244,-4.5,-0.5,-2.4,-3.8,24.1,-19,0.121066927,-0.606585894,-0.0496841334,-0.784142582
258,650107,1293930,0.962,-0.08,0.244,-4.5,-0.5,-2.4,-3.8,24.1,-19,0.121066927,-0.606585894,-0.0496841334,-0.784142582
259,653468,1293940,0.962,-0.08,0.244,-4.5,-0.5,-2.4,-3.8,24.1,-19,0.121066927,-0.606585894,-0.0496841334,-0.784142582
260,655480,1293940,0.966,-0.084,0.24,-3.6,0,-2.7,-4.2,24.3,-18.9,0.120639668,-0.606769005,-0.0494399854,-0.784081545
261,657608,1293940,0.966,-0.084,0.24,-3.6,0.2,-2.8,-4.2,24.3,-18.9,0.120548112,-0.606769005,-0.0494094668,-0.784081545
262,660928,1293940,0.966,-0.084,0.24,-3.6,0.2,-2.8,-4.2,24.3,-18.9,0.120548112,-0.606769005,-0.0494094668,-0.784081545
263,662913,1293950,0.962,-0.084,0.233,-3.5,0.5,-2.9,-4.2,24.3,-18.9,0.120365001,-0.606769005,-0.0493484298,-0.784112064
264,665099,1293950,0.962,-0.084,0.233,-3.5,0.5,-2.9,-4.2,24.3,-18.9,0.120365001,-0.606769005,-0.0493484298,-0.784112064
265,668127,1293950,0.962,-0.084,0.233,-3.5,0.5,-2.9,-4.2,24.3,-18.9,0.120365001,-0.606769005,-0.0493484298,-0.784112064
266,671077,1293950,0.962,-0.084,0.236,-3.9,0.7,-3,-4.4,24.4,-19.1,0.120059816,-0.606769005,-0.0492873928,-0.784173101
267,672510,1293960,0.962,-0.084,0.236,-3.9,0.7,-3,-4.4,24.4,-19.1,0.120059816,-0.606769005,-0.0492873928,-0.784173101
268,675517,1293960,0.962,-0.084,0.236,-3.9,0.7,-3,-4.4,24.4,-19.1,0.120059816,-0.606769005,-0.0492873928,-0.784173101
269,678644,1293960,0.962,-0.084,0.236,-3.9,0.7,-3,-4.4,24.4,-19.1,0.120059816,-0.606769005,-0.0492873928,-0.784173101
270,679980,1293960,0.962,-0.084,0.236,-3.9,0.7,-3,-4.4,24.4,-19.1,0.120059816,-0.606769005,-0.0492873928,-0.784173101
271,683490,1293970,0.966,-0.088,0.232,-4,0.7,-2.7,-4.3,24.5,-19.1,0.119541002,-0.606738487,-0.0491042817,-0.784295175
272,684883,1293970,0.966,-0.088,0.232,-4,0.7,-2.7,-4.3,24.5,-19.1,0.119541002,-0.606738487,-0.0491042817,-0.784295175
273,687841,1293970,0.966,-0.088,0.232,-4.2,0.7,-2.9,-4.3,24.4,-19.2,0.119449446,-0.606738487,-0.0490737632,-0.784325694
274,690939,1293970,0.966,-0.088,0.232,-4.2,0.7,-2.9,-4.3,24.4,-19.2,0.119449446,-0.606738487,-0.0490737632,-0.784325694
275,692405,1293980,0.966,-0.088,0.232,-4.2,0.7,-2.9,-4.3,24.4,-19.2,0.119449446,-0.606738487,-0.0490737632,-0.784325694
276,695374,1293980,0.969,-0.084,0.236,-4.5,0.5,-2.7,-4.3,24.4,-19.2,0.119113742,-0.606707968,-0.0489516892,-0.784386731
277,698609,1293980,0.969,-0.084,0.236,-4.5,0.5,-2.7,-4.3,24.4,-19.2,0.119113742,-0.606707968,-0.0489516892,-0.784386731
278,699980,1293980,0.966,-0.084,0.232,-4.6,0.4,-2.6,-4.6,24.5,-19,0.119205298,-0.607043672,-0.0486770226,-0.784142582
279,703020,1293990,0.965,-0.084,0.229,-4.7,0.2,-2.5,-4.6,24.5,-19,0.118991668,-0.607043672,-0.0485854671,-0.784173101
280,705275,1293990,0.965,-0.084,0.229,-4.7,0.2,-2.5,-4.6,24.5,-19,0.118991668,-0.607043672,-0.0485854671,-0.784173101
281,707650,1293990,0.962,-0.08,0.236,-4.9,0.2,-2.5,-4.6,24.5,-19,0.118869594,-0.607043672,-0.0485244301,-0.784203619
282,709916,1293990,0.962,-0.08,0.236,-4.9,0.2,-2.5,-4.6,24.5,-19,0.118869594,-0.607043672,-0.0485244301,-0.784203619
283,712378,1294000,0.965,-0.088,0.229,-5,0.2,-2.5,-4.4,24,-17.8,0.118655965,-0.60707419,-0.0483718375,-0.784234138
284,716165,1294000,0.966,-0.08,0.232,-4.9,0.2,-2.5,-4.4,24,-17.8,0.118533891,-0.60707419,-0.0483718375,-0.784234138
285,718024,1294000,0.969,-0.073,0.232,-4.9,0.1,-2.4,-4.4,24,-17.8,0.118442335,-0.60707419,-0.0483108005,-0.784264657
286,720329,1294000,0.966,-0.072,0.236,-4.9,0,-2.3,-4.3,24.1,-17.5,0.118320261,-0.60707419,-0.0482497635,-0.784264657
287,724389,1294010,0.966,-0.072,0.236,-4.9,0,-2.3,-4.3,24.1,-17.5,0.118320261,-0.60707419,-0.0482497635,-0.784264657
288,726646,1294010,0.966,-0.072,0.236,-4.9,0,-2.3,-4.3,24.1,-17.5,0.118320261,-0.60707419,-0.0482497635,-0.784264657
289,729376,1294010,0.966,-0.072,0.236,-4.9,0,-2.3,-4.3,24.1,-17.5,0.118320261,-0.60707419,-0.0482497635,-0.784264657
290,731249,1294010,0.966,-0.072,0.236,-4.9,0,-2.3,-4.3,24.1,-17.5,0.118320261,-0.60707419,-0.0482497635,-0.784264657
291,733582,1294020,0.966,-0.072,0.236,-4.9,0,-2.3,-4.3,24.1,-17.5,0.118320261,-0.60707419,-0.0482497635,-0.784264657
292,735880,1294020,0.966,-0.065,0.232,-5.6,-0.4,-2,-4.7,24.2,-17.2,0.117679373,-0.607196265,-0.0478835414,-0.784295175
293,738032,1294020,0.966,-0.061,0.232,-5.9,-0.4,-1.9,-4.7,24.2,-17.2,0.117587817,-0.607226783,-0.0478225043,-0.784295175
294,740217,1294020,0.966,-0.061,0.232,-5.9,-0.4,-1.9,-4.7,24.2,-17.2,0.117587817,-0.607226783,-0.0478225043,-0.784295175
295,744134,1294030,0.966,-0.061,0.232,-5.9,-0.4,-1.9,-4.7,24.2,-17.2,0.117587817,-0.607226783,-0.0478225043,-0.784295175
296,746487,1294030,0.966,-0.061,0.232,-5.9,-0.4,-1.9,-4.7,24.2,-17.2,0.117587817,-0.607226783,-0.0478225043,-0.784295175
297,748715,1294030,0.966,-0.061,0.232,-5.9,-0.4,-1.9,-4.7,24.2,-17.2,0.117587817,-0.607226783,-0.0478225043,-0.784295175
298,750802,1294030,0.966,-0.065,0.221,-6.4,0,-2,-4.7,24.2,-17.2,0.117099521,-0.60728782,-0.0474868007,-0.784325694
299,753080,1294040,0.966,-0.065,0.221,-6.4,0,-2,-4.7,24.2,-17.2,0.117099521,-0.60728782,-0.0474868007,-0.784325694
300,754850,1294040,0.966,-0.065,0.221,-6.4,0,-2,-4.7,24.2,-17.2,0.117099521,-0.60728782,-0.0474868007,-0.784325694
301,758001,1294040,0.966,-0.065,0.221,-6.4,0,-2,-4.7,24.2,-17.2,0.117099521,-0.60728782,-0.0474868007,-0.784325694
302,760191,1294040,0.966,-0.065,0.221,-6.4,0,-2,-4.7,24.2,-17.2,0.117099521,-0.60728782,-0.0474868007,-0.784325694
303,762266,1294050,0.966,-0.065,0.221,-6.4,0,-2,-4.7,24.2,-17.2,0.117099521,-0.60728782,-0.0474868007,-0.784325694
304,765895,1294050,0.966,-0.065,0.221,-6.4,0,-2,-4.7,24.2,-17.2,0.117099521,-0.60728782,-0.0474868007,-0.784325694
305,768183,1294050,0.966,-0.065,0.221,-6.4,0,-2,-4.7,24.2,-17.2,0.117099521,-0.60728782,-0.0474868007,-0.784325694
306,770342,1294050,0.966,-0.065,0.221,-6.4,0,-2,-4.7,24.2,-17.2,0.117099521,-0.60728782,-0.0474868007,-0.784325694
307,774656,1294060,0.966,-0.065,0.221,-6.4,0,-2,-4.7,24.2,-17.2,0.117099521,-0.60728782,-0.0474868007,-0.784325694
308,774930,1294060,0.966,-0.065,0.221,-6.4,0,-2,-4.7,24.2,-17.2,0.117099521,-0.60728782,-0.0474868007,-0.784325694
309,777285,1294060,0.966,-0.065,0.221,-6.4,0,-2,-4.7,24.2,-17.2,0.117099521,-0.60728782,-0.0474868007,-0.784325694
310,779815,1294060,0.965,-0.088,0.217,-7.4,1.1,-3.4,-4.6,24.7,-18.4,0.115329447,-0.607593005,-0.0464796899,-0.784417249
311,783454,1294070,0.965,-0.088,0.217,-7.4,1.1,-3.4,-4.6,24.7,-18.4,0.115329447,-0.607593005,-0.0464796899,-0.784417249
312,785416,1294070,0.965,-0.088,0.217,-7.4,1.1,-3.4,-4.6,24.7,-18.4,0.115329447,-0.607593005,-0.0464796899,-0.784417249
313,787808,1294070,0.965,-0.088,0.217,-7.4,1.1,-3.4,-4.6,24.7,-18.4,0.115329447,-0.607593005,-0.0464796899,-0.784417249
314,790271,1294070,0.965,-0.092,0.217,-8.1,0.8,-3.2,-4.9,24.4,-18.2,0.114688559,-0.607593005,-0.0461134678,-0.784539323
315,792443,1294080,0.965,-0.092,0.217,-8.1,0.8,-3.2,-4.9,24.4,-18.2,0.114688559,-0.607593005,-0.0461134678,-0.784539323
316,794736,1294080,0.969,-0.088,0.221,-8.7,0.5,-2.8,-4.6,24.8,-20.2,0.114505448,-0.607593005,-0.0459913938,-0.784569842
317,799333,1294080,0.962,-0.084,0.225,-8.9,0.1,-2.7,-4.6,24.8,-20.2,0.114352855,-0.607623524,-0.0458693197,-0.784569842
318,799818,1294080,0.962,-0.084,0.225,-8.9,0.1,-2.7,-4.6,24.8,-20.2,0.114352855,-0.607623524,-0.0458693197,-0.784569842
319,802269,1294090,0.962,-0.084,0.225,-8.9,0.1,-2.7,-4.6,24.8,-20.2,0.114352855,-0.607623524,-0.0458693197,-0.784569842
320,806684,1294090,0.962,-0.084,0.225,-8.9,0.1,-2.7,-4.6,24.8,-20.2,0.114352855,-0.607623524,-0.0458693197,-0.784569842
321,808931,1294090,0.962,-0.084,0.225,-8.9,0.1,-2.7,-4.6,24.8,-20.2,0.114352855,-0.607623524,-0.0458693197,-0.784569842
322,811112,1294090,0.962,-0.084,0.225,-8.9,0.1,-2.7,-4.6,24.8,-20.2,0.114352855,-0.607623524,-0.0458693197,-0.784569842
323,813130,1294100,0.962,-0.084,0.225,-8.9,0.1,-2.7,-4.6,24.8,-20.2,0.114352855,-0.607623524,-0.0458693197,-0.784569842
324,815281,1294100,0.958,-0.065,0.217,-9.6,-1.9,-1.8,-4.6,24.2,-19,0.113528855,-0.608294931,-0.0448622089,-0.784234138
325,818576,1294100,0.962,-0.057,0.221,-9.5,-2,-1.5,-4.6,24.3,-19.3,0.113345744,-0.608355968,-0.0447096164,-0.784234138
326,821043,1294100,0.958,-0.053,0.217,-9.5,-2,-1.5,-4.6,24.3,-19.3,0.113193152,-0.608386486,-0.0445875423,-0.784203619
327,823002,1294110,0.958,-0.049,0.217,-9.3,-2.1,-1.4,-4.6,24.3,-19.3,0.113040559,-0.608447523,-0.0444654683,-0.784203619
328,825246,1294110,0.958,-0.049,0.217,-9.3,-2.1,-1.4,-4.6,24.3,-19.3,0.113040559,-0.608447523,-0.0444654683,-0.784203619
329,827698,1294110,0.969,-0.045,0.213,-8.9,-2.2,-1.7,-4.7,24.4,-20.4,0.112735374,-0.608569597,-0.0441908017,-0.784173101
330,830080,1294110,0.969,-0.045,0.213,-8.9,-2.2,-1.7,-4.7,24.4,-20.4,0.112735374,-0.608569597,-0.0441908017,-0.784173101
331,832252,1294120,0.966,-0.041,0.209,-8.7,-2.2,-1.9,-4.7,24.4,-20.4,0.112460707,-0.608691671,-0.0439466536,-0.784142582
332,835956,1294120,0.962,-0.041,0.213,-8.6,-2.2,-2.1,-4.7,24.4,-20.4,0.112308115,-0.608752709,-0.0438550981,-0.784112064
333,838054,1294120,0.966,-0.037,0.205,-8.6,-2.2,-2.5,-4.2,24.6,-20.1,0.112125004,-0.608813746,-0.0437330241,-0.784112064
334,840230,1294120,0.966,-0.037,0.205,-8.6,-2.2,-2.5,-4.2,24.6,-20.1,0.111972411,-0.608874783,-0.04361095,-0.784081545
335,843367,1294130,0.966,-0.037,0.205,-8.6,-2.2,-2.5,-4.2,24.6,-20.1,0.111972411,-0.608874783,-0.04361095,-0.784081545
336,844834,1294130,0.966,-0.037,0.205,-8.6,-2.1,-3,-4.2,24.6,-20.1,0.111636708,-0.608966338,-0.043427839,-0.784051027
337,847900,1294130,0.969,-0.038,0.201,-8.5,-2.1,-3.3,-4.8,24.5,-18.1,0.111423078,-0.609027375,-0.0433362835,-0.784051027
338,851285,1294130,0.969,-0.038,0.201,-8.5,-2.1,-3.3,-4.8,24.5,-18.1,0.111423078,-0.609027375,-0.0433362835,-0.784051027
339,852650,1294140,0.969,-0.038,0.201,-8.5,-2.1,-3.3,-4.8,24.5,-18.1,0.111423078,-0.609027375,-0.0433362835,-0.784051027
340,855603,1294140,0.969,-0.038,0.201,-8.5,-2.1,-3.3,-4.8,24.5,-18.1,0.111423078,-0.609027375,-0.0433362835,-0.784051027
341,857253,1294140,0.969,-0.03,0.209,-8.8,-2.4,-3.7,-4.8,24.5,-18.1,0.110934782,-0.609210486,-0.0430005799,-0.784020508
342,860192,1294140,0.969,-0.03,0.209,-8.8,-2.4,-3.7,-4.8,24.5,-18.1,0.110934782,-0.609210486,-0.0430005799,-0.784020508
343,863436,1294150,0.969,-0.03,0.209,-8.8,-2.4,-3.7,-4.8,24.5,-18.1,0.110934782,-0.609210486,-0.0430005799,-0.784020508
344,865406,1294150,0.969,-0.03,0.209,-8.8,-2.4,-3.7,-4.8,24.5,-18.1,0.110934782,-0.609210486,-0.0430005799,-0.784020508
345,867263,1294150,0.969,-0.03,0.209,-8.8,-2.4,-3.7,-4.8,24.5,-18.1,0.110934782,-0.609210486,-0.0430005799,-0.784020508
346,870529,1294150,0.969,-0.03,0.209,-8.8,-2.4,-3.7,-4.8,24.5,-18.1,0.110934782,-0.609210486,-0.0430005799,-0.784020508
347,872301,1294160,0.969,-0.03,0.209,-8.8,-2.4,-3.7,-4.8,24.5,-18.1,0.110934782,-0.609210486,-0.0430005799,-0.784020508
348,876052,1294160,0.965,-0.03,0.197,-14.4,-2.9,-3.8,-4.7,24.7,-19.1,0.109073153,-0.61015656,-0.0422681356,-0.783562731
349,877432,1294160,0.965,-0.03,0.197,-14.4,-2.9,-3.8,-4.7,24.7,-19.1,0.108798486,-0.610248115,-0.0421155431,-0.783532212
350,880477,1294160,0.965,-0.03,0.197,-14.4,-2.9,-3.8,-4.7,24.7,-19.1,0.108798486,-0.610248115,-0.0421155431,-0.783532212
351,882577,1294170,0.969,-0.03,0.197,-15.5,-2.6,-3.8,-4.7,23.6,-18.5,0.108493301,-0.610309153,-0.0419019135,-0.783532212
352,885924,1294170,0.969,-0.03,0.197,-15.5,-2.6,-3.8,-4.7,23.6,-18.5,0.108493301,-0.610309153,-0.0419019135,-0.783532212
353,887906,1294170,0.969,-0.03,0.197,-15.5,-2.6,-3.8,-4.7,23.6,-18.5,0.108493301,-0.610309153,-0.0419019135,-0.783532212
354,890216,1294170,0.969,-0.03,0.197,-15.5,-2.6,-3.8,-4.7,23.6,-18.5,0.108493301,-0.610309153,-0.0419019135,-0.783532212
355,893368,1294180,0.969,-0.03,0.197,-15.5,-2.6,-3.8,-4.7,23.6,-18.5,0.108493301,-0.610309153,-0.0419019135,-0.783532212
356,895429,1294180,0.973,-0.049,0.189,-16.5,-2.2,-5.5,-4.7,23.6,-18.5,0.106753746,-0.61076693,-0.0406506546,-0.783501694
357,897557,1294180,0.973,-0.049,0.189,-16.5,-2.2,-5.5,-4.7,23.6,-18.5,0.106753746,-0.61076693,-0.0406506546,-0.783501694
358,900606,1294180,0.977,-0.057,0.185,-16.5,-2.3,-6,-4.7,23.6,-18.5,0.106418043,-0.610827967,-0.0404675436,-0.783501694
359,902929,1294190,0.977,-0.057,0.185,-16.5,-2.3,-6,-4.7,23.6,-18.5,0.106418043,-0.610827967,-0.0404675436,-0.783501694
360,905096,1294190,0.977,-0.057,0.185,-16.5,-2.3,-6,-4.7,23.6,-18.5,0.106418043,-0.610827967,-0.0404675436,-0.783501694
361,908042,1294190,0.977,-0.057,0.185,-16.5,-2.3,-6,-4.7,23.6,-18.5,0.106418043,-0.610827967,-0.0404675436,-0.783501694
362,910428,1294190,0.989,-0.073,0.193,-17.9,-2.1,-7.9,-5,24.4,-19.6,0.104983673,-0.611133152,-0.0396740623,-0.783501694
363,912562,1294200,0.989,-0.073,0.193,-17.9,-2.1,-7.9,-5,24.4,-19.6,0.104983673,-0.611133152,-0.0396740623,-0.783501694
364,915647,1294200,0.989,-0.073,0.193,-17.9,-2.1,-7.9,-5,24.4,-19.6,0.104983673,-0.611133152,-0.0396740623,-0.783501694
365,917384,1294200,0.997,-0.077,0.201,-19.4,-2.4,-9,-5.1,24.1,-19.4,0.104098636,-0.611743522,-0.0393078402,-0.78316599
366,920461,1294200,0.997,-0.077,0.201,-19.4,-2.4,-9,-5.1,24.1,-19.4,0.104098636,-0.611743522,-0.0393078402,-0.78316599
367,922251,1294210,0.997,-0.077,0.201,-19.4,-2.4,-9,-5.1,24.1,-19.4,0.104098636,-0.611743522,-0.0393078402,-0.78316599
368,925329,1294210,0.997,-0.077,0.201,-19.4,-2.4,-9,-5.1,24.1,-19.4,0.104098636,-0.611743522,-0.0393078402,-0.78316599
369,928575,1294210,1.001,-0.073,0.204,-22.7,-3.8,-9.7,-5.1,24.5,-19.1,0.102298044,-0.612109745,-0.0383617664,-0.783135472
370,929967,1294210,1.001,-0.073,0.204,-22.7,-3.8,-9.7,-5.1,24.5,-19.1,0.102298044,-0.612109745,-0.0383617664,-0.783135472
371,932952,1294220,1.001,-0.073,0.204,-22.7,-3.8,-9.7,-5.1,24.5,-19.1,0.102298044,-0.612109745,-0.0383617664,-0.783135472
372,935340,1294220,1.001,-0.073,0.204,-22.7,-3.8,-9.7,-5.1,24.5,-19.1,0.102298044,-0.612109745,-0.0383617664,-0.783135472
373,938308,1294220,1.001,-0.073,0.204,-22.7,-3.8,-9.7,-5.1,24.5,-19.1,0.102298044,-0.612109745,-0.0383617664,-0.783135472
374,941350,1294220,0.997,-0.05,0.216,-25.1,-5.4,-9.5,-5.4,24.9,-19,0.0998260445,-0.612750633,-0.0369884335,-0.783043916
375,943470,1294230,0.997,-0.053,0.224,-25.4,-5.8,-9.2,-5.4,24.9,-19,0.0993072298,-0.612903226,-0.0367137669,-0.782982879
376,944846,1294230,0.993,-0.038,0.22,-25.9,-6.3,-8.6,-5.1,26.1,-17.7,0.0988189337,-0.613055818,-0.0363780633,-0.782952361
377,947808,1294230,0.993,-0.03,0.22,-25.9,-6.3,-8.6,-5.1,26.1,-17.7,0.0983306375,-0.613238929,-0.0360728782,-0.782891324
378,950896,1294230,0.993,-0.03,0.22,-25.9,-6.3,-8.6,-5.1,26.1,-17.7,0.0983306375,-0.613238929,-0.0360728782,-0.782891324
379,952200,1294240,0.989,-0.022,0.224,-26.2,-6.5,-7.6,-5.1,26.1,-17.7,0.0973235267,-0.613544115,-0.0354319895,-0.782799768
380,955205,1294240,0.985,-0.003,0.22,-25.7,-6.3,-6.6,-5.3,24.2,-18.4,0.0968657491,-0.613696707,-0.0350657674,-0.782738731
381,958335,1294240,0.981,0.004,0.22,-25.5,-6.1,-6.1,-5.3,24.2,-18.4,0.0964079714,-0.6138493,-0.0346995453,-0.782708213
382,959883,1294240,0.981,0.004,0.22,-25.5,-6.1,-6.1,-5.3,24.2,-18.4,0.0964079714,-0.6138493,-0.0346995453,-0.782708213
383,962921,1294250,0.97,0.012,0.22,-25.4,-5.8,-5.7,-5.3,24.2,-18.4,0.0955229347,-0.614154485,-0.0340586566,-0.782616657
384,964997,1294250,0.97,0.012,0.22,-25.4,-5.8,-5.7,-5.3,24.2,-18.4,0.0955229347,-0.614154485,-0.0340586566,-0.782616657
385,969038,1294250,0.97,0.012,0.22,-25.4,-5.8,-5.7,-5.3,24.2,-18.4,0.0955229347,-0.614154485,-0.0340586566,-0.782616657
386,971178,1294250,0.97,0.012,0.22,-25.4,-5.8,-5.7,-5.3,24.2,-18.4,0.0955229347,-0.614154485,-0.0340586566,-0.782616657
387,972496,1294260,0.97,0.012,0.22,-25.4,-5.8,-5.7,-5.3,24.2,-18.4,0.0955229347,-0.614154485,-0.0340586566,-0.782616657
388,976733,1294260,0.97,0.012,0.22,-25.4,-5.8,-5.7,-5.3,24.2,-18.4,0.0955229347,-0.614154485,-0.0340586566,-0.782616657
389,978884,1294260,0.962,0.02,0.209,-25.7,-4.1,-5.2,-5.4,25.2,-17.9,0.0934781945,-0.614764855,-0.0329905087,-0.782403027
390,981190,1294260,0.966,0.028,0.205,-25.7,-3.5,-5.1,-5.4,25.6,-18,0.0930204169,-0.614886929,-0.0326548051,-0.782403027
391,983505,1294270,0.962,0.032,0.201,-26,-3.1,-5,-5.4,25.6,-18,0.0921658986,-0.615100558,-0.0319223609,-0.782372509
392,985108,1294270,0.962,0.032,0.201,-26,-3.1,-5,-5.4,25.6,-18,0.0921658986,-0.615100558,-0.0319223609,-0.782372509
393,987755,1294270,0.962,0.032,0.201,-26,-3.1,-5,-5.4,25.6,-18,0.0921658986,-0.615100558,-0.0319223609,-0.782372509
394,990008,1294270,0.962,0.032,0.201,-26,-3.1,-5,-5.4,25.6,-18,0.0921658986,-0.615100558,-0.0319223609,-0.782372509
395,992282,1294280,0.962,0.032,0.201,-26,-3.1,-5,-5.4,25.6,-18,0.0921658986,-0.615100558,-0.0319223609,-0.782372509
396,994727,1294280,0.966,0.028,0.181,-28.3,-0.9,-4.8,-5.1,25.7,-18.1,0.0899075289,-0.615527818,-0.0299081393,-0.782372509
397,999094,1294280,0.966,0.028,0.181,-28.3,-0.9,-4.8,-5.1,25.7,-18.1,0.0899075289,-0.615527818,-0.0299081393,-0.782372509
398,1001070,1294280,0.966,0.028,0.181,-28.3,-0.9,-4.8,-5.1,25.7,-18.1,0.0899075289,-0.615527818,-0.0299081393,-0.782372509
399,1003377,1294290,0.966,0.028,0.181,-28.3,-0.9,-4.8,-5.1,25.7,-18.1,0.0899075289,-0.615527818,-0.0299081393,-0.782372509
400,1004803,1294290,0.969,0.02,0.173,-29.9,0.3,-4.6,-5.6,25,-17.5,0.088473159,-0.61568041,-0.0285653249,-0.782464064
401,1008580,1294290,0.969,0.02,0.173,-30.5,0.8,-4.6,-5.6,25,-17.5,0.0879848628,-0.615741447,-0.0281380657,-0.782494583
402,1010042,1294290,0.969,0.02,0.173,-30.5,0.8,-4.6,-5.6,25,-17.5,0.0879848628,-0.615741447,-0.0281380657,-0.782494583
403,1012985,1294300,0.969,0.02,0.173,-30.5,0.8,-4.6,-5.6,25,-17.5,0.0879848628,-0.615741447,-0.0281380657,-0.782494583
404,1016175,1294300,0.969,0.02,0.173,-30.5,0.8,-4.6,-5.6,25,-17.5,0.0879848628,-0.615741447,-0.0281380657,-0.782494583
405,1017472,1294300,0.977,0.012,0.169,-34.3,2.1,-4,-5.6,26,-17.6,0.0859401227,-0.615863521,-0.0261238441,-0.782708213
406,1021423,1294300,0.977,0.012,0.169,-34.3,2.1,-4,-5.6,26,-17.6,0.0859401227,-0.615863521,-0.0261238441,-0.782708213
407,1022770,1294310,0.993,0.008,0.165,-36.6,2.9,-4,-5.5,26.2,-17.3,0.0849940489,-0.616260262,-0.0260017701,-0.782464064
408,1025959,1294310,0.993,0.008,0.165,-36.6,2.9,-4,-5.5,26.2,-17.3,0.0849940489,-0.616260262,-0.0260017701,-0.782464064
409,1028056,1294310,0.993,0.008,0.165,-36.6,2.9,-4,-5.5,26.2,-17.3,0.0849940489,-0.616260262,-0.0260017701,-0.782464064
410,1030236,1294310,0.993,0.008,0.165,-36.6,2.9,-4,-5.5,26.2,-17.3,0.0849940489,-0.616260262,-0.0260017701,-0.782464064
411,1033506,1294320,0.993,0.008,0.165,-36.6,2.9,-4,-5.5,26.2,-17.3,0.0849940489,-0.616260262,-0.0260017701,-0.782464064
412,1035420,1294320,1.004,-0.023,0.165,-42.8,4.7,-5,-6.7,26.3,-16.9,0.0818811609,-0.61629078,-0.0228278451,-0.782891324
413,1038484,1294320,1.012,-0.027,0.173,-43.9,5,-5.3,-6.7,26.3,-16.9,0.0811487167,-0.616260262,-0.0220954009,-0.783013398
414,1039783,1294320,1.012,-0.027,0.173,-43.9,5,-5.3,-6.7,26.3,-16.9,0.0811487167,-0.616260262,-0.0220954009,-0.783013398
415,1043115,1294330,1.012,-0.027,0.173,-43.9,5,-5.3,-6.7,26.3,-16.9,0.0811487167,-0.616260262,-0.0220954009,-0.783013398
416,1046359,1294330,1.012,-0.027,0.173,-43.9,5,-5.3,-6.7,26.3,-16.9,0.0811487167,-0.616260262,-0.0220954009,-0.783013398
417,1047632,1294330,1.012,-0.027,0.173,-43.9,5,-5.3,-6.7,26.3,-16.9,0.0811487167,-0.616260262,-0.0220954009,-0.783013398
418,1050769,1294330,1.012,-0.027,0.173,-43.9,5,-5.3,-6.7,26.3,-16.9,0.0811487167,-0.616260262,-0.0220954009,-0.783013398
419,1053683,1294340,1.012,-0.027,0.173,-43.9,5,-5.3,-6.7,26.3,-16.9,0.0811487167,-0.616260262,-0.0220954009,-0.783013398
420,1055115,1294340,1.012,-0.027,0.173,-43.9,5,-5.3,-6.7,26.3,-16.9,0.0811487167,-0.616260262,-0.0220954009,-0.783013398
421,1058137,1294340,1.012,-0.027,0.173,-43.9,5,-5.3,-6.7,26.3,-16.9,0.0811487167,-0.616260262,-0.0220954009,-0.783013398
422,1061358,1294340,1.02,-0.12,0.2,-51.9,7.6,-11.8,-6.7,26.6,-16.8,0.073976867,-0.615985595,-0.0156254769,-0.784081545
423,1063645,1294350,1.02,-0.12,0.2,-51.9,7.6,-11.8,-6.7,26.6,-16.8,0.073976867,-0.615985595,-0.0156254769,-0.784081545
424,1065963,1294350,1.02,-0.12,0.2,-51.9,7.6,-11.8,-6.7,26.6,-16.8,0.073976867,-0.615985595,-0.0156254769,-0.784081545
425,1068016,1294350,1.02,-0.12,0.2,-51.9,7.6,-11.8,-6.7,26.6,-16.8,0.073976867,-0.615985595,-0.0156254769,-0.784081545
426,1069766,1294350,1.02,-0.167,0.216,-56.3,9.8,-15.5,-6.5,26.9,-16.3,0.0700399792,-0.615710929,-0.0125736259,-0.784722434
427,1072235,1294360,1.02,-0.167,0.216,-56.3,9.8,-15.5,-6.5,26.9,-16.3,0.0700399792,-0.615710929,-0.0125736259,-0.784722434
428,1076717,1294360,1.02,-0.167,0.216,-56.3,9.8,-15.5,-6.5,26.9,-16.3,0.0700399792,-0.615710929,-0.0125736259,-0.784722434
429,1078998,1294360,1.02,-0.226,0.224,-61.4,11.3,-18.8,-6.8,27.1,-16.2,0.0679647206,-0.615619373,-0.0106814783,-0.784997101
430,1081178,1294360,1.02,-0.249,0.224,-61.4,11.3,-18.8,-6.8,27.1,-16.2,0.0668355358,-0.615497299,-0.00985747856,-0.78521073
431,1083523,1294370,1.02,-0.261,0.224,-62.8,11.6,-19.4,-6.8,27.1,-16.2,0.0656453139,-0.615375225,-0.0090334788,-0.785393841
432,1085693,1294370,1.019,-0.284,0.22,-64.7,12.1,-20.8,-6.5,27.4,-16.3,0.0644245735,-0.61528367,-0.00817896054,-0.785607471
433,1087901,1294370,1.012,-0.3,0.22,-64.7,12.1,-20.8,-6.5,27.4,-16.3,0.0632038331,-0.615161596,-0.00732444227,-0.7858211
434,1089826,1294370,1.012,-0.308,0.22,-65.2,12.6,-21.3,-6.5,27.4,-16.3,0.0619830927,-0.615009003,-0.00650044252,-0.78603473
435,1093841,1294380,1.008,-0.327,0.216,-65.4,13,-21.9,-6.5,27.4,-16.3,0.0607318339,-0.614886929,-0.00564592425,-0.78624836
436,1096110,1294380,1.004,-0.355,0.217,-64.9,13.6,-23,-5.1,26.3,-15.7,0.0594500565,-0.614734336,-0.0048219245,-0.786461989
437,1098446,1294380,1.003,-0.374,0.205,-64.9,13.6,-23,-5.1,26.3,-15.7,0.0581987976,-0.614581744,-0.00399792474,-0.786675619
438,1100021,1294380,1,-0.39,0.209,-64.3,13.7,-23.4,-5.1,26.3,-15.7,0.0569170202,-0.614429151,-0.00320444349,-0.786889248
439,1102625,1294390,1.003,-0.401,0.205,-63.5,14.2,-24,-5.1,26.3,-15.7,0.0556657613,-0.61424604,-0.00241096225,-0.787102878
440,1104800,1294390,0.995,-0.433,0.201,-61.2,15.5,-25.1,-6.9,26.5,-15.3,0.0544145024,-0.614062929,-0.00167851802,-0.787347026
441,1109409,1294390,0.995,-0.448,0.205,-61.2,15.5,-25.1,-6.9,26.5,-15.3,0.0531632435,-0.6138493,-0.000946073794,-0.787591174
442,1109681,1294390,0.995,-0.448,0.205,-61.2,15.5,-25.1,-6.9,26.5,-15.3,0.0531632435,-0.6138493,-0.000946073794,-0.787591174
443,1113755,1294400,0.995,-0.448,0.205,-61.2,15.5,-25.1,-6.9,26.5,-15.3,0.0531632435,-0.6138493,-0.000946073794,-0.787591174
444,1116137,1294400,0.984,-0.487,0.202,-54.3,17.4,-27.4,-6.3,26.8,-15,0.0495010224,-0.613177892,0.000976592303,-0.788354137
445,1118330,1294400,0.987,-0.503,0.202,-54.3,17.4,-27.4,-6.3,26.8,-15,0.048280282,-0.612964263,0.00155644398,-0.788598285
446,1121139,1294400,0.991,-0.519,0.201,-52.5,18,-27.9,-6.3,26.8,-15,0.0471205786,-0.612689596,0.00210577715,-0.788872951
447,1122630,1294410,0.991,-0.519,0.201,-52.5,18,-27.9,-6.3,26.8,-15,0.0471205786,-0.612689596,0.00210577715,-0.788872951
448,1127090,1294410,0.991,-0.519,0.201,-52.5,18,-27.9,-6.3,26.8,-15,0.0471205786,-0.612689596,0.00210577715,-0.788872951
449,1127498,1294410,1.007,-0.566,0.197,-48,20.2,-30,-5.9,26.7,-15,0.0447706534,-0.612140263,0.00308236946,-0.789452803
450,1129983,1294410,1.007,-0.566,0.197,-48,20.2,-30,-5.9,26.7,-15,0.0447706534,-0.612140263,0.00308236946,-0.789452803
451,1134554,1294420,1.007,-0.566,0.197,-48,20.2,-30,-5.9,26.7,-15,0.0447706534,-0.612140263,0.00308236946,-0.789452803
452,1134981,1294420,1.022,-0.605,0.185,-43.5,22.6,-32.6,-5.9,26.7,-15,0.0412915433,-0.611133152,0.00421155431,-0.790398877
453,1137361,1294420,1.034,-0.625,0.193,-41.8,23.1,-33.4,-5.8,26.9,-14.7,0.040192877,-0.61076693,0.00448622089,-0.790734581
454,1142082,1294420,1.034,-0.625,0.193,-41.8,23.1,-33.4,-5.8,26.9,-14.7,0.040192877,-0.61076693,0.00448622089,-0.790734581
455,1142529,1294430,1.061,-0.684,0.208,-38.4,23.6,-34.6,-5.8,26.9,-14.7,0.0368358409,-0.609668264,0.00518814661,-0.79177221
456,1144868,1294430,1.061,-0.684,0.208,-38.4,23.6,-34.6,-5.8,26.9,-14.7,0.0368358409,-0.609668264,0.00518814661,-0.79177221
457,1147231,1294430,1.061,-0.684,0.208,-38.4,23.6,-34.6,-5.8,26.9,-14.7,0.0368358409,-0.609668264,0.00518814661,-0.79177221
458,1151512,1294430,1.061,-0.684,0.208,-38.4,23.6,-34.6,-5.8,26.9,-14.7,0.0368358409,-0.609668264,0.00518814661,-0.79177221
459,1153636,1294440,1.081,-0.77,0.247,-33.3,25,-36.6,-6.6,26.9,-15.1,0.0325022126,-0.608081301,0.00570696127,-0.793176061
460,1155708,1294440,1.081,-0.77,0.247,-33.3,25,-36.6,-6.6,26.9,-15.1,0.0325022126,-0.608081301,0.00570696127,-0.793176061
461,1157893,1294440,1.081,-0.77,0.247,-33.3,25,-36.6,-6.6,26.9,-15.1,0.0325022126,-0.608081301,0.00570696127,-0.793176061
462,1160148,1294440,1.081,-0.77,0.247,-33.3,25,-36.6,-6.6,26.9,-15.1,0.0325022126,-0.608081301,0.00570696127,-0.793176061
463,1163156,1294450,1.081,-0.77,0.247,-33.3,25,-36.6,-6.6,26.9,-15.1,0.0325022126,-0.608081301,0.00570696127,-0.793176061
464,1165426,1294450,1.077,-0.879,0.283,-31.2,27.2,-38.4,-5.9,26.4,-14.8,0.0281685842,-0.606341746,0.00595110935,-0.794671468
465,1168463,1294450,1.077,-0.879,0.283,-31.2,27.2,-38.4,-5.9,26.4,-14.8,0.0281685842,-0.606341746,0.00595110935,-0.794671468
466,1169829,1294450,1.077,-0.879,0.283,-31.2,27.2,-38.4,-5.9,26.4,-14.8,0.0281685842,-0.606341746,0.00595110935,-0.794671468
467,1172833,1294460,1.077,-0.879,0.283,-31.2,27.2,-38.4,-5.9,26.4,-14.8,0.0281685842,-0.606341746,0.00595110935,-0.794671468
468,1175070,1294460,1.077,-0.879,0.283,-31.2,27.2,-38.4,-5.9,26.4,-14.8,0.0281685842,-0.606341746,0.00595110935,-0.794671468
469,1178103,1294460,1.077,-0.879,0.283,-31.2,27.2,-38.4,-5.9,26.4,-14.8,0.0281685842,-0.606341746,0.00595110935,-0.794671468
470,1180408,1294460,1.077,-0.879,0.283,-31.2,27.2,-38.4,-5.9,26.4,-14.8,0.0281685842,-0.606341746,0.00595110935,-0.794671468
471,1183503,1294470,0.963,-1.127,0.34,-26,33.3,-36.4,-6.4,26.8,-14.7,0.0208746605,-0.602740562,0.00616473891,-0.797601245
472,1184948,1294470,0.963,-1.127,0.34,-26,33.3,-36.4,-6.4,26.8,-14.7,0.0208746605,-0.602740562,0.00616473891,-0.797601245
473,1188779,1294470,0.92,-1.189,0.341,-19.9,35.1,-35,-6.4,27,-14.6,0.0190435499,-0.60155034,0.00601214637,-0.798547319
474,1191072,1294470,0.92,-1.189,0.341,-19.9,35.1,-35,-6.4,27,-14.6,0.0190435499,-0.60155034,0.00601214637,-0.798547319
475,1193183,1294480,0.92,-1.189,0.341,-19.9,35.1,-35,-6.4,27,-14.6,0.0190435499,-0.60155034,0.00601214637,-0.798547319
476,1195495,1294480,0.896,-1.251,0.342,-6.3,36.9,-31.5,-6.4,27,-14.6,0.0168462172,-0.599688711,0.00537125767,-0.800012207
477,1197624,1294480,0.868,-1.278,0.323,-0.6,37.3,-29.9,-8,26.4,-14.7,0.0163579211,-0.599017304,0.00500503555,-0.800531022
478,1200627,1294480,0.857,-1.285,0.315,6,37.8,-27.7,-8,26.4,-14.7,0.0159306619,-0.598376415,0.00454725791,-0.801019318
479,1202913,1294490,0.857,-1.285,0.315,6,37.8,-27.7,-8,26.4,-14.7,0.0159306619,-0.598376415,0.00454725791,-0.801019318
480,1205096,1294490,0.857,-1.285,0.315,6,37.8,-27.7,-8,26.4,-14.7,0.0159306619,-0.598376415,0.00454725791,-0.801019318
481,1208119,1294490,0.857,-1.285,0.315,6,37.8,-27.7,-8,26.4,-14.7,0.0159306619,-0.598376415,0.00454725791,-0.801019318
482,1210457,1294490,0.857,-1.285,0.315,6,37.8,-27.7,-8,26.4,-14.7,0.0159306619,-0.598376415,0.00454725791,-0.801019318
483,1212651,1294500,0.857,-1.285,0.315,6,37.8,-27.7,-8,26.4,-14.7,0.0159306619,-0.598376415,0.00454725791,-0.801019318
484,1215618,1294500,0.857,-1.285,0.315,6,37.8,-27.7,-8,26.4,-14.7,0.0159306619,-0.598376415,0.00454725791,-0.801019318
485,1217936,1294500,0.844,-1.262,0.202,73.4,40,-5.8,-5.9,26.4,-15,0.017670217,-0.593432417,-0.00189214759,-0.804651021
486,1220127,1294500,0.856,-1.243,0.194,86.8,40,-1.7,-5.9,26.4,-15,0.0187688833,-0.592699973,-0.00341807306,-0.805169836
487,1223123,1294510,0.872,-1.228,0.181,100.3,39.8,2,-5.9,26.4,-15,0.0201116977,-0.591967528,-0.0051576281,-0.805658132
488,1225387,1294510,0.872,-1.228,0.181,100.3,39.8,2,-5.9,26.4,-15,0.0201116977,-0.591967528,-0.0051576281,-0.805658132
489,1227648,1294510,0.872,-1.228,0.181,100.3,39.8,2,-5.9,26.4,-15,0.0201116977,-0.591967528,-0.0051576281,-0.805658132
490,1230612,1294510,0.872,-1.228,0.181,100.3,39.8,2,-5.9,26.4,-15,0.0201116977,-0.591967528,-0.0051576281,-0.805658132
491,1232951,1294520,0.872,-1.228,0.181,100.3,39.8,2,-5.9,26.4,-15,0.0201116977,-0.591967528,-0.0051576281,-0.805658132
492,1235099,1294520,0.872,-1.228,0.181,100.3,39.8,2,-5.9,26.4,-15,0.0201116977,-0.591967528,-0.0051576281,-0.805658132
493,1238126,1294520,0.872,-1.228,0.181,100.3,39.8,2,-5.9,26.4,-15,0.0201116977,-0.591967528,-0.0051576281,-0.805658132
494,1240413,1294520,0.872,-1.228,0.181,100.3,39.8,2,-5.9,26.4,-15,0.0201116977,-0.591967528,-0.0051576281,-0.805658132
495,1242745,1294530,0.872,-1.228,0.181,100.3,39.8,2,-5.9,26.4,-15,0.0201116977,-0.591967528,-0.0051576281,-0.805658132
496,1245139,1294530,0.872,-1.228,0.181,100.3,39.8,2,-5.9,26.4,-15,0.0201116977,-0.591967528,-0.0051576281,-0.805658132
497,1247369,1294530,0.872,-1.228,0.181,100.3,39.8,2,-5.9,26.4,-15,0.0201116977,-0.591967528,-0.0051576281,-0.805658132
498,1251059,1294530,0.872,-1.228,0.181,100.3,39.8,2,-5.9,26.4,-15,0.0201116977,-0.591967528,-0.0051576281,-0.805658132
499,1253223,1294540,0.872,-1.228,0.181,100.3,39.8,2,-5.9,26.4,-15,0.0201116977,-0.591967528,-0.0051576281,-0.805658132
500,1255418,1294540,0.872,-1.228,0.181,100.3,39.8,2,-5.9,26.4,-15,0.0201116977,-0.591967528,-0.0051576281,-0.805658132
501,1257622,1294540,0.872,-1.228,0.181,100.3,39.8,2,-5.9,26.4,-15,0.0201116977,-0.591967528,-0.0051576281,-0.805658132
502,1260668,1294540,1.013,-0.902,0.182,191.6,38.6,47.7,-5.7,25.2,-17.7,0.0575579089,-0.579729606,-0.0409558397,-0.811700797
503,1262890,1294550,1.006,-0.878,0.198,189.5,34.7,47.3,-5.7,25.2,-17.7,0.0640583514,-0.578081606,-0.0463576159,-0.812097537
504,1265201,1294550,1.006,-0.878,0.198,189.5,34.7,47.3,-5.7,25.2,-17.7,0.0640583514,-0.578081606,-0.0463576159,-0.812097537
505,1268116,1294550,1.01,-0.851,0.198,185.8,30.7,46.9,-5.7,25.2,-17.7,0.0672933134,-0.577318644,-0.0490127262,-0.812219611
506,1270385,1294550,1.01,-0.851,0.198,185.8,30.7,46.9,-5.7,25.2,-17.7,0.0672933134,-0.577318644,-0.0490127262,-0.812219611
507,1272606,1294560,1.01,-0.851,0.198,185.8,30.7,46.9,-5.7,25.2,-17.7,0.0672933134,-0.577318644,-0.0490127262,-0.812219611
508,1275963,1294560,1.01,-0.851,0.198,185.8,30.7,46.9,-5.7,25.2,-17.7,0.0672933134,-0.577318644,-0.0490127262,-0.812219611
509,1277958,1294560,1.01,-0.851,0.198,185.8,30.7,46.9,-5.7,25.2,-17.7,0.0672933134,-0.577318644,-0.0490127262,-0.812219611
510,1280128,1294560,1.01,-0.851,0.198,185.8,30.7,46.9,-5.7,25.2,-17.7,0.0672933134,-0.577318644,-0.0490127262,-0.812219611
511,1284208,1294570,1.01,-0.851,0.198,185.8,30.7,46.9,-5.7,25.2,-17.7,0.0672933134,-0.577318644,-0.0490127262,-0.812219611
512,1286112,1294570,1.01,-0.851,0.198,185.8,30.7,46.9,-5.7,25.2,-17.7,0.0672933134,-0.577318644,-0.0490127262,-0.812219611
513,1288193,1294570,1.01,-0.851,0.198,185.8,30.7,46.9,-5.7,25.2,-17.7,0.0672933134,-0.577318644,-0.0490127262,-0.812219611
514,1290421,1294570,1.01,-0.851,0.198,185.8,30.7,46.9,-5.7,25.2,-17.7,0.0672933134,-0.577318644,-0.0490127262,-0.812219611
515,1292703,1294580,1.01,-0.851,0.198,185.8,30.7,46.9,-5.7,25.2,-17.7,0.0672933134,-0.577318644,-0.0490127262,-0.812219611
516,1295183,1294580,1.01,-0.851,0.198,185.8,30.7,46.9,-5.7,25.2,-17.7,0.0672933134,-0.577318644,-0.0490127262,-0.812219611
517,1297535,1294580,1.01,-0.851,0.198,185.8,30.7,46.9,-5.7,25.2,-17.7,0.0672933134,-0.577318644,-0.0490127262,-0.812219611
518,1299721,1294580,1.01,-0.851,0.198,185.8,30.7,46.9,-5.7,25.2,-17.7,0.0672933134,-0.577318644,-0.0490127262,-0.812219611
519,1304242,1294590,1.01,-0.851,0.198,185.8,30.7,46.9,-5.7,25.2,-17.7,0.0672933134,-0.577318644,-0.0490127262,-0.812219611
520,1306419,1294590,1.01,-0.851,0.198,185.8,30.7,46.9,-5.7,25.2,-17.7,0.0672933134,-0.577318644,-0.0490127262,-0.812219611
521,1308797,1294590,1.01,-0.851,0.198,185.8,30.7,46.9,-5.7,25.2,-17.7,0.0672933134,-0.577318644,-0.0490127262,-0.812219611
522,1310635,1294590,1.01,-0.851,0.198,185.8,30.7,46.9,-5.7,25.2,-17.7,0.0672933134,-0.577318644,-0.0490127262,-0.812219611
523,1312965,1294600,0.954,-0.454,-0.239,191.6,76.3,155.8,-3.3,23.1,-20,0.137730033,-0.560502945,-0.0789819025,-0.812768944
524,1315185,1294600,0.954,-0.454,-0.239,191.6,76.3,155.8,-3.3,23.1,-20,0.137730033,-0.560502945,-0.0789819025,-0.812768944
525,1318434,1294600,0.954,-0.454,-0.239,191.6,76.3,155.8,-3.3,23.1,-20,0.137730033,-0.560502945,-0.0789819025,-0.812768944
526,1320354,1294600,0.954,-0.454,-0.239,191.6,76.3,155.8,-3.3,23.1,-20,0.137730033,-0.560502945,-0.0789819025,-0.812768944
527,1322675,1294610,0.954,-0.454,-0.239,191.6,76.3,155.8,-3.3,23.1,-20,0.137730033,-0.560502945,-0.0789819025,-0.812768944
528,1325623,1294610,0.981,-0.392,-0.228,165,51.8,186.2,-2.6,22.4,-20.1,0.164342174,-0.553666799,-0.0830103458,-0.812097537
529,1327930,1294610,0.982,-0.372,-0.217,161,46.8,195.2,-2.6,22.4,-20.1,0.169835505,-0.552598651,-0.0833460494,-0.811670278
530,1330205,1294610,0.982,-0.372,-0.217,161,46.8,195.2,-2.6,22.4,-20.1,0.169835505,-0.552598651,-0.0833460494,-0.811670278
531,1333363,1294620,1.037,-0.275,-0.159,158.5,34.3,218.8,-1.6,22,-20.3,0.175664541,-0.55180517,-0.0833765679,-0.810968352
532,1335404,1294620,1.037,-0.212,-0.136,160.3,27.1,230.6,-1.6,22,-20.3,0.181737724,-0.551103244,-0.0833460494,-0.810083316
533,1337627,1294620,1.041,-0.154,-0.108,162.7,19.8,239.8,-1.6,22,-20.3,0.1879635,-0.550523392,-0.0832544939,-0.809076205
534,1340551,1294620,1.053,-0.115,-0.089,163.7,13,245.7,-1.6,22,-20.3,0.194280831,-0.550065615,-0.0831019013,-0.807916501
535,1342910,1294630,1.077,-0.084,-0.058,162.1,6.6,249,-1.6,22,-20.3,0.200628681,-0.549699393,-0.0829798273,-0.806634724
536,1345197,1294630,1.105,-0.076,-0.047,158,0.6,251.3,-1.6,22,-20.3,0.206946013,-0.549455245,-0.0827356792,-0.805230873
537,1348317,1294630,1.124,-0.08,-0.04,152.8,-4.7,254,-1.6,22,-20.3,0.213232826,-0.549272134,-0.0823999756,-0.803735466
538,1350359,1294630,1.124,-0.08,-0.04,152.8,-4.7,254,-1.6,22,-20.3,0.213232826,-0.549272134,-0.0823999756,-0.803735466
539,1353557,1294640,1.124,-0.08,-0.04,152.8,-4.7,254,-1.6,22,-20.3,0.213232826,-0.549272134,-0.0823999756,-0.803735466
540,1355845,1294640,1.202,-0.047,-0.045,150.9,-16.3,269.8,1.2,20.3,-22.5,0.232337413,-0.549211097,-0.0809350871,-0.798608356
541,1357911,1294640,1.23,-0.02,-0.061,157.6,-18,277.8,1.2,20.3,-22.5,0.239051485,-0.549211097,-0.080446791,-0.79668569
542,1360169,1294640,1.265,0.002,-0.066,166.8,-18.6,287.4,1.2,20.3,-22.5,0.246009705,-0.54915006,-0.0799890133,-0.794671468
543,1363355,1294650,1.316,0.06,-0.079,176.8,-17.9,298.1,2.1,19.7,-23,0.253242592,-0.548997467,-0.0795922727,-0.792504654
544,1365418,1294650,1.351,0.071,-0.091,186,-16.6,309.4,2.1,19.7,-23,0.260780663,-0.548783837,-0.0791955321,-0.790246284
545,1367670,1294650,1.402,0.086,-0.092,193.4,-15,320.4,2.1,19.7,-23,0.268593402,-0.548478652,-0.078768273,-0.787896359
546,1370631,1294650,1.402,0.086,-0.092,193.4,-15,320.4,2.1,19.7,-23,0.268593402,-0.548478652,-0.078768273,-0.787896359
547,1372964,1294660,1.402,0.086,-0.092,193.4,-15,320.4,2.1,19.7,-23,0.268593402,-0.548478652,-0.078768273,-0.787896359
548,1375272,1294660,1.515,0.263,-0.138,207.1,-12.9,343.7,3.5,19,-23.2,0.293130284,-0.547166356,-0.077333903,-0.780175176
549,1377692,1294660,1.5,0.361,-0.145,209.2,-13.1,347.5,3.5,19,-23.2,0.301522874,-0.546617023,-0.0768456069,-0.777397992
550,1380102,1294660,1.496,0.443,-0.145,207.6,-14.6,351.1,3.5,19,-23.2,0.309915464,-0.54606769,-0.0762657552,-0.774529252
551,1382367,1294670,1.496,0.443,-0.145,207.6,-14.6,351.1,3.5,19,-23.2,0.309915464,-0.54606769,-0.0762657552,-0.774529252
552,1385990,1294670,1.469,0.529,-0.192,181.4,-21.1,361.4,4.1,17.7,-23.7,0.318124943,-0.545762505,-0.0751670888,-0.77150792
553,1387798,1294670,1.469,0.529,-0.192,181.4,-21.1,361.4,4.1,17.7,-23.7,0.318124943,-0.545762505,-0.0751670888,-0.77150792
554,1389966,1294670,1.429,0.467,-0.281,122.1,-20.4,378,4.1,17.7,-23.7,0.333872494,-0.545701468,-0.0712302011,-0.765251625
555,1392532,1294680,1.402,0.444,-0.316,88,-15.5,386.5,4.1,17.7,-23.7,0.341349528,-0.545915098,-0.0682088687,-0.7620777
556,1394684,1294680,1.402,0.444,-0.316,88,-15.5,386.5,4.1,17.7,-23.7,0.341349528,-0.545915098,-0.0682088687,-0.7620777
557,1398572,1294680,1.382,0.425,-0.323,37.6,-5.7,391.5,5,17.6,-26.4,0.35544908,-0.546555986,-0.0605792413,-0.755790887
558,1400932,1294680,1.281,0.477,-0.286,29.7,-5.3,383.8,5,17.6,-26.4,0.362102115,-0.54689169,-0.0565202795,-0.752677999
559,1403019,1294690,1.281,0.477,-0.286,29.7,-5.3,383.8,5,17.6,-26.4,0.362102115,-0.54689169,-0.0565202795,-0.752677999
560,1405271,1294690,1.258,0.572,-0.239,34.8,-9.8,369.5,5,17.6,-26.4,0.368572039,-0.547227393,-0.0527665029,-0.74959563
561,1407643,1294690,1.267,0.662,-0.138,66.1,-30.5,333.6,5.8,17.2,-24.7,0.374767296,-0.547563097,-0.0500808741,-0.746452223
562,1409927,1294690,1.267,0.662,-0.138,66.1,-30.5,333.6,5.8,17.2,-24.7,0.374767296,-0.547563097,-0.0500808741,-0.746452223
563,1412184,1294700,1.267,0.662,-0.138,66.1,-30.5,333.6,5.8,17.2,-24.7,0.374767296,-0.547563097,-0.0500808741,-0.746452223
564,1416064,1294700,1.2,0.355,0,81.9,-52.2,314.7,5.8,17.2,-24.7,0.393047884,-0.548661763,-0.0432142094,-0.736594745
565,1417482,1294700,1.2,0.355,0,81.9,-52.2,314.7,5.8,17.2,-24.7,0.393047884,-0.548661763,-0.0432142094,-0.736594745
566,1420475,1294700,1.192,0.18,0.079,36.5,-55.9,295,6.5,16.7,-25.2,0.403698843,-0.550218207,-0.0385448775,-0.729911191
567,1422713,1294710,1.14,-0.069,0.029,36.5,-55.9,295,6.5,16.7,-25.2,0.408764916,-0.551011689,-0.0361033967,-0.726584674
568,1426252,1294710,1.077,-0.326,-0.019,9.8,-49,281.6,6.5,16.7,-25.2,0.413312174,-0.551927244,-0.0332956938,-0.723471786
569,1428197,1294710,1.055,-0.74,-0.123,-39.7,-33,256.7,7.1,16.8,-25.5,0.416852321,-0.552964873,-0.0298776208,-0.720755638
570,1429939,1294710,1.055,-0.74,-0.123,-39.7,-33,256.7,7.1,16.8,-25.5,0.416852321,-0.552964873,-0.0298776208,-0.720755638
571,1432295,1294720,1.055,-0.74,-0.123,-39.7,-33,256.7,7.1,16.8,-25.5,0.416852321,-0.552964873,-0.0298776208,-0.720755638
572,1436225,1294720,0.913,-0.988,-0.245,-52.9,-24.7,231.3,7.1,16.8,-25.5,0.425977355,-0.556016724,-0.0195318461,-0.713431196
573,1438513,1294720,0.913,-0.988,-0.245,-52.9,-24.7,231.3,7.1,16.8,-25.5,0.425977355,-0.556016724,-0.0195318461,-0.713431196
574,1440720,1294720,0.913,-0.988,-0.245,-52.9,-24.7,231.3,7.1,16.8,-25.5,0.425977355,-0.556016724,-0.0195318461,-0.713431196
575,1443062,1294730,1.241,-0.994,-0.263,-73.4,-70.4,240.4,7.7,16.4,-26.3,0.431531724,-0.559251686,-0.0129093295,-0.707663198
576,1444844,1294730,1.292,-0.874,-0.214,-73.4,-70.4,240.4,7.7,16.4,-26.3,0.434339427,-0.561113315,-0.00949125645,-0.70455031
577,1449112,1294730,1.292,-0.874,-0.214,-73.4,-70.4,240.4,7.7,16.4,-26.3,0.434339427,-0.561113315,-0.00949125645,-0.70455031
578,1451117,1294730,1.292,-0.874,-0.214,-73.4,-70.4,240.4,7.7,16.4,-26.3,0.434339427,-0.561113315,-0.00949125645,-0.70455031
579,1452692,1294740,1.292,-0.874,-0.214,-73.4,-70.4,240.4,7.7,16.4,-26.3,0.434339427,-0.561113315,-0.00949125645,-0.70455031
580,1455194,1294740,1.387,-0.75,-0.102,-68.5,-122.1,248.9,7.8,16,-25.2,0.445783868,-0.571398053,0.00372325816,-0.689016388
581,1457425,1294740,1.606,-0.442,0.393,-68.5,-122.1,248.9,7.8,16,-25.2,0.448652608,-0.573870052,0.00668355358,-0.685048982
582,1459785,1294740,2.685,-0.121,1.833,-20.5,-123.6,237.3,8.2,16.2,-25.1,0.451948607,-0.575884274,0.00872829371,-0.681142613
583,1463041,1294750,3.876,-0.103,2.402,-8.8,-130.6,243.1,8.2,16.2,-25.1,0.455488754,-0.577837458,0.0106509598,-0.67711417
584,1464850,1294750,3.876,-0.103,2.402,-8.8,-130.6,243.1,8.2,16.2,-25.1,0.455488754,-0.577837458,0.0106509598,-0.67711417
585,1468230,1294750,6.647,-0.33,2.28,-22.2,-146,283.4,8.2,16.2,-25.1,0.463057344,-0.582262642,0.0151371807,-0.668050172
586,1469895,1294750,6.647,-0.33,2.28,-22.2,-146,283.4,8.2,16.2,-25.1,0.463057344,-0.582262642,0.0151371807,-0.668050172
587,1472520,1294760,5.17,0.345,-0.993,28.9,-120.5,352.1,8.1,15.8,-25.3,0.473006378,-0.585650197,0.020844142,-0.657887509
588,1476930,1294760,3.613,1.071,-2.555,137.6,-85.4,370.2,8.1,15.8,-25.3,0.480086673,-0.585253456,0.0227057711,-0.653004547
589,1478732,1294760,2.474,2.351,-3.664,324.8,-44.2,347.3,8.1,15.8,-25.3,0.489181188,-0.582293161,0.0220343638,-0.648915067
590,1480937,1294760,2.474,2.351,-3.664,324.8,-44.2,347.3,8.1,15.8,-25.3,0.489181188,-0.582293161,0.0220343638,-0.648915067
591,1482353,1294770,2.474,2.351,-3.664,324.8,-44.2,347.3,8.1,15.8,-25.3,0.489181188,-0.582293161,0.0220343638,-0.648915067
592,1484679,1294770,0.183,7.841,-4.457,1210.2,-11.8,-30.5,8.7,14.7,-25.9,0.527787103,-0.552659688,-0.0115970336,-0.644856105
593,1487435,1294770,-1.634,7.974,-4.22,1492.6,13.5,-201.1,8.7,14.7,-25.9,0.542680136,-0.534928434,-0.0348521378,-0.64659566
594,1492239,1294770,-1.634,7.974,-4.22,1492.6,13.5,-201.1,8.7,14.7,-25.9,0.542680136,-0.534928434,-0.0348521378,-0.64659566
595,1492239,1294780,-1.634,7.974,-4.22,1492.6,13.5,-201.1,8.7,14.7,-25.9,0.542680136,-0.534928434,-0.0348521378,-0.64659566
596,1494794,1294780,-1.634,7.974,-4.22,1492.6,13.5,-201.1,8.7,14.7,-25.9,0.542680136,-0.534928434,-0.0348521378,-0.64659566
597,1498106,1294780,-1.634,7.974,-4.22,1492.6,13.5,-201.1,8.7,14.7,-25.9,0.542680136,-0.534928434,-0.0348521378,-0.64659566
598,1500603,1294780,-0.878,5.398,1.85,859.9,395.9,-565,8.1,9,-27.8,0.575457015,-0.437086093,-0.128879666,-0.679067354
599,1502266,1294790,-0.878,5.398,1.85,859.9,395.9,-565,8.1,9,-27.8,0.575457015,-0.437086093,-0.128879666,-0.679067354
600,1505246,1294790,-0.53,2.035,-0.373,-519.2,153.2,-289.4,9.9,4.6,-28.5,0.562334056,-0.433179724,-0.124240852,-0.69328898
601,1507588,1294790,-0.53,2.035,-0.373,-519.2,153.2,-289.4,9.9,4.6,-28.5,0.562334056,-0.433179724,-0.124240852,-0.69328898
602,1511763,1294790,-0.53,2.035,-0.373,-519.2,153.2,-289.4,9.9,4.6,-28.5,0.562334056,-0.433179724,-0.124240852,-0.69328898
603,1513396,1294800,-0.53,2.035,-0.373,-519.2,153.2,-289.4,9.9,4.6,-28.5,0.562334056,-0.433179724,-0.124240852,-0.69328898
604,1515792,1294800,0.213,0.054,-0.254,-1163.3,-92,-153.9,9.3,9.2,-28.2,0.522293771,-0.472487564,-0.0804773095,-0.705282754
605,1517676,1294800,0.416,-0.163,-0.163,-1078.4,-108.2,-185.3,9.3,9.2,-28.2,0.50798059,-0.485976745,-0.0669881283,-0.707998901
606,1521192,1294800,0.416,-0.163,-0.163,-1078.4,-108.2,-185.3,9.3,9.2,-28.2,0.50798059,-0.485976745,-0.0669881283,-0.707998901
607,1522739,1294810,0.416,-0.163,-0.163,-1078.4,-108.2,-185.3,9.3,9.2,-28.2,0.50798059,-0.485976745,-0.0669881283,-0.707998901
608,1524784,1294810,1.262,-0.787,0.487,-876.9,-224,-296.6,8.5,13.2,-27,0.465224158,-0.521897031,-0.0382091739,-0.713919492
609,1527215,1294810,1.262,-0.787,0.487,-876.9,-224,-296.6,8.5,13.2,-27,0.465224158,-0.521897031,-0.0382091739,-0.713919492
610,1529679,1294810,1.262,-0.787,0.487,-876.9,-224,-296.6,8.5,13.2,-27,0.465224158,-0.521897031,-0.0382091739,-0.713919492
611,1533310,1294820,1.262,-0.787,0.487,-876.9,-224,-296.6,8.5,13.2,-27,0.465224158,-0.521897031,-0.0382091739,-0.713919492
612,1535442,1294820,6.03,-7.367,-2.71,-1168.7,-333.7,-208.3,6.8,18.6,-24.6,0.399090548,-0.577684866,0.000640888699,-0.711996826
613,1537698,1294820,6.03,-7.367,-2.71,-1168.7,-333.7,-208.3,6.8,18.6,-24.6,0.399090548,-0.577684866,0.000640888699,-0.711996826
614,1540949,1294820,6.03,-7.367,-2.71,-1168.7,-333.7,-208.3,6.8,18.6,-24.6,0.399090548,-0.577684866,0.000640888699,-0.711996826
615,1543103,1294830,6.03,-7.367,-2.71,-1168.7,-333.7,-208.3,6.8,18.6,-24.6,0.399090548,-0.577684866,0.000640888699,-0.711996826
616,1545168,1294830,6.03,-7.367,-2.71,-1168.7,-333.7,-208.3,6.8,18.6,-24.6,0.399090548,-0.577684866,0.000640888699,-0.711996826
617,1547243,1294830,6.03,-7.367,-2.71,-1168.7,-333.7,-208.3,6.8,18.6,-24.6,0.399090548,-0.577684866,0.000640888699,-0.711996826
618,1551657,1294830,6.03,-7.367,-2.71,-1168.7,-333.7,-208.3,6.8,18.6,-24.6,0.399090548,-0.577684866,0.000640888699,-0.711996826
619,1553897,1294840,6.03,-7.367,-2.71,-1168.7,-333.7,-208.3,6.8,18.6,-24.6,0.399090548,-0.577684866,0.000640888699,-0.711996826
620,1555888,1294840,6.03,-7.367,-2.71,-1168.7,-333.7,-208.3,6.8,18.6,-24.6,0.399090548,-0.577684866,0.000640888699,-0.711996826
621,1557418,1294840,6.03,-7.367,-2.71,-1168.7,-333.7,-208.3,6.8,18.6,-24.6,0.399090548,-0.577684866,0.000640888699,-0.711996826
622,1560731,1294840,6.03,-7.367,-2.71,-1168.7,-333.7,-208.3,6.8,18.6,-24.6,0.399090548,-0.577684866,0.000640888699,-0.711996826
623,1562674,1294850,6.03,-7.367,-2.71,-1168.7,-333.7,-208.3,6.8,18.6,-24.6,0.399090548,-0.577684866,0.000640888699,-0.711996826
624,1564938,1294850,6.03,-7.367,-2.71,-1168.7,-333.7,-208.3,6.8,18.6,-24.6,0.399090548,-0.577684866,0.000640888699,-0.711996826
625,1567719,1294850,6.03,-7.367,-2.71,-1168.7,-333.7,-208.3,6.8,18.6,-24.6,0.399090548,-0.577684866,0.000640888699,-0.711996826
626,1571238,1294850,6.03,-7.367,-2.71,-1168.7,-333.7,-208.3,6.8,18.6,-24.6,0.399090548,-0.577684866,0.000640888699,-0.711996826
627,1573142,1294860,6.03,-7.367,-2.71,-1168.7,-333.7,-208.3,6.8,18.6,-24.6,0.399090548,-0.577684866,0.000640888699,-0.711996826
628,1575433,1294860,6.03,-7.367,-2.71,-1168.7,-333.7,-208.3,6.8,18.6,-24.6,0.399090548,-0.577684866,0.000640888699,-0.711996826
629,1577530,1294860,6.03,-7.367,-2.71,-1168.7,-333.7,-208.3,6.8,18.6,-24.6,0.399090548,-0.577684866,0.000640888699,-0.711996826
630,1580269,1294860,1.398,0.117,-0.014,399.8,45,204,9.5,18.8,-24.4,0.422681356,-0.598956267,0.064455092,-0.677022614
631,1582402,1294870,1.384,0.325,0.122,401.7,18.8,197,9.5,18.8,-24.4,0.43079928,-0.594683676,0.0612506485,-0.675984985
632,1585369,1294870,1.408,0.286,0.161,395.3,6.4,193.6,9.5,18.8,-24.4,0.438764611,-0.590594195,0.0580156865,-0.674764245
633,1587389,1294870,1.408,0.286,0.161,395.3,6.4,193.6,9.5,18.8,-24.4,0.438764611,-0.590594195,0.0580156865,-0.674764245
634,1590377,1294870,1.408,0.286,0.161,395.3,6.4,193.6,9.5,18.8,-24.4,0.438764611,-0.590594195,0.0580156865,-0.674764245
635,1592546,1294880,1.408,0.286,0.161,395.3,6.4,193.6,9.5,18.8,-24.4,0.438764611,-0.590594195,0.0580156865,-0.674764245
636,1595811,1294880,1.01,1.115,0.507,365.4,40.8,188.9,9.8,16.8,-25.5,0.469008454,-0.573534349,0.046784875,-0.669972839
637,1597294,1294880,1.01,1.115,0.507,365.4,40.8,188.9,9.8,16.8,-25.5,0.469008454,-0.573534349,0.046784875,-0.669972839
638,1600415,1294880,0.776,1.128,0.641,336.3,62.1,168.2,10.4,15.4,-24.9,0.475600452,-0.568987091,0.0446180609,-0.66933195
639,1602376,1294890,0.624,1.193,0.655,311.2,67.8,149.8,10.4,15.4,-24.9,0.481551561,-0.564622944,0.0426343577,-0.668904691
640,1605867,1294890,0.624,1.193,0.655,311.2,67.8,149.8,10.4,15.4,-24.9,0.481551561,-0.564622944,0.0426343577,-0.668904691
641,1607477,1294890,0.468,1.242,0.646,241.4,63.4,92.2,10.4,15.4,-24.9,0.49098178,-0.556962798,0.0390636921,-0.668691061
642,1609661,1294890,0.468,1.242,0.646,241.4,63.4,92.2,10.4,15.4,-24.9,0.49098178,-0.556962798,0.0390636921,-0.668691061
643,1613406,1294900,0.468,1.242,0.646,241.4,63.4,92.2,10.4,15.4,-24.9,0.49098178,-0.556962798,0.0390636921,-0.668691061
644,1615743,1294900,0.592,0.254,0.309,60.1,48.2,3.1,10.8,14.3,-25.2,0.496810816,-0.550462355,0.0362254707,-0.66994232
645,1617369,1294900,0.654,0.1,0.316,-7.1,46.4,-15,10.8,14.3,-25.2,0.496475112,-0.549851985,0.0366527299,-0.670644246
646,1621028,1294900,0.654,0.1,0.316,-7.1,46.4,-15,10.8,14.3,-25.2,0.496475112,-0.549851985,0.0366527299,-0.670644246
647,1622466,1294910,0.685,-0.016,0.367,-51.7,45.9,-28.4,10.9,14.2,-25.4,0.495376446,-0.549790948,0.0375682852,-0.671468245
648,1624849,1294910,0.685,-0.016,0.367,-51.7,45.9,-28.4,10.9,14.2,-25.4,0.495376446,-0.549790948,0.0375682852,-0.671468245
649,1628774,1294910,0.685,-0.016,0.367,-51.7,45.9,-28.4,10.9,14.2,-25.4,0.495376446,-0.549790948,0.0375682852,-0.671468245
650,1630708,1294910,0.685,-0.016,0.367,-51.7,45.9,-28.4,10.9,14.2,-25.4,0.495376446,-0.549790948,0.0375682852,-0.671468245
651,1632825,1294920,0.685,-0.016,0.367,-51.7,45.9,-28.4,10.9,14.2,-25.4,0.495376446,-0.549790948,0.0375682852,-0.671468245
652,1635047,1294920,0.685,-0.016,0.367,-51.7,45.9,-28.4,10.9,14.2,-25.4,0.495376446,-0.549790948,0.0375682852,-0.671468245
653,1638166,1294920,0.732,-0.353,0.464,-30.9,10.1,-68.4,11.1,14.8,-25.1,0.487350078,-0.549913022,0.0390026551,-0.677144688
654,1640626,1294920,0.732,-0.353,0.464,-30.9,10.1,-68.4,11.1,14.8,-25.1,0.487350078,-0.549913022,0.0390026551,-0.677144688
655,1642984,1294930,0.732,-0.353,0.464,-30.9,10.1,-68.4,11.1,14.8,-25.1,0.487350078,-0.549913022,0.0390026551,-0.677144688
656,1645058,1294930,0.844,-0.597,0.467,-72.8,-23.5,-81.5,11.3,14.8,-24.6,0.481795709,-0.55262917,0.0383007294,-0.678914762
657,1649072,1294930,0.879,-0.652,0.474,-72.8,-23.5,-81.5,11.3,14.8,-24.6,0.479750969,-0.553819391,0.0381176183,-0.679433576
658,1650885,1294930,0.879,-0.652,0.474,-72.8,-23.5,-81.5,11.3,14.8,-24.6,0.479750969,-0.553819391,0.0381176183,-0.679433576
659,1652327,1294940,0.879,-0.652,0.474,-72.8,-23.5,-81.5,11.3,14.8,-24.6,0.479750969,-0.553819391,0.0381176183,-0.679433576
660,1656381,1294940,0.999,-0.905,0.398,-82.7,-14.7,-64.1,10.7,14,-24.9,0.475661489,-0.556199835,0.0384228034,-0.680318613
661,1658777,1294940,1.041,-1.019,0.35,-82.7,-9.2,-50.2,10.7,14,-24.9,0.473921934,-0.557237465,0.0389416181,-0.680654317
662,1660580,1294940,1.033,-1.066,0.339,-83.5,-4.1,-32.9,10.7,14,-24.9,0.472426527,-0.558183538,0.0397656178,-0.680898465
663,1663076,1294950,0.983,-1.033,0.347,-83.6,0,-12.7,10.7,14,-24.9,0.471175268,-0.559068575,0.0408032472,-0.680959502
664,1664957,1294950,0.94,-0.927,0.328,-77,2.9,31.9,10.5,15.7,-24.6,0.470748009,-0.559770501,0.0423902097,-0.68059328
665,1669032,1294950,0.94,-0.927,0.328,-77,2.9,31.9,10.5,15.7,-24.6,0.470748009,-0.559770501,0.0423902097,-0.68059328
666,1671155,1294950,0.94,-0.927,0.328,-77,2.9,31.9,10.5,15.7,-24.6,0.470748009,-0.559770501,0.0423902097,-0.68059328
667,1673449,1294960,0.94,-0.927,0.328,-77,2.9,31.9,10.5,15.7,-24.6,0.470748009,-0.559770501,0.0423902097,-0.68059328
668,1675584,1294960,0.78,-0.749,0.323,-90.6,-14.1,73.7,9.8,15.7,-24.6,0.470442824,-0.563035981,0.049836726,-0.677602466
669,1677378,1294960,0.761,-0.713,0.347,-96.7,-17.6,73.3,9.8,15.7,-24.6,0.470351268,-0.564195685,0.0520035401,-0.676534318
670,1680761,1294960,0.761,-0.713,0.347,-96.7,-17.6,73.3,9.8,15.7,-24.6,0.470351268,-0.564195685,0.0520035401,-0.676534318
671,1682547,1294970,0.761,-0.713,0.347,-96.7,-17.6,73.3,9.8,15.7,-24.6,0.470351268,-0.564195685,0.0520035401,-0.676534318
672,1686799,1294970,0.761,-0.713,0.347,-96.7,-17.6,73.3,9.8,15.7,-24.6,0.470351268,-0.564195685,0.0520035401,-0.676534318
673,1688863,1294970,0.761,-0.713,0.347,-96.7,-17.6,73.3,9.8,15.7,-24.6,0.470351268,-0.564195685,0.0520035401,-0.676534318
674,1691267,1294970,0.761,-0.713,0.347,-96.7,-17.6,73.3,9.8,15.7,-24.6,0.470351268,-0.564195685,0.0520035401,-0.676534318
675,1693395,1294980,0.761,-0.713,0.347,-96.7,-17.6,73.3,9.8,15.7,-24.6,0.470351268,-0.564195685,0.0520035401,-0.676534318
676,1695392,1294980,0.632,-0.75,0.287,-65.7,-6.9,50.9,9.8,16.2,-24.7,0.469710379,-0.570268868,0.0631733146,-0.670918912
677,1697698,1294980,0.632,-0.75,0.287,-65.7,-6.9,50.9,9.8,16.2,-24.7,0.469710379,-0.570268868,0.0631733146,-0.670918912
678,1699669,1294980,0.632,-0.75,0.287,-65.7,-6.9,50.9,9.8,16.2,-24.7,0.469710379,-0.570268868,0.0631733146,-0.670918912
679,1702716,1294990,0.632,-0.75,0.287,-65.7,-6.9,50.9,9.8,16.2,-24.7,0.469710379,-0.570268868,0.0631733146,-0.670918912
680,1704827,1294990,0.632,-0.75,0.287,-65.7,-6.9,50.9,9.8,16.2,-24.7,0.469710379,-0.570268868,0.0631733146,-0.670918912
681,1709037,1294990,0.632,-0.75,0.287,-65.7,-6.9,50.9,9.8,16.2,-24.7,0.469710379,-0.570268868,0.0631733146,-0.670918912
682,1711088,1294990,0.793,-0.393,0.322,-27.7,19.3,26.2,10,16.3,-24.3,0.469954527,-0.571642201,0.0687887204,-0.668996246
683,1713559,1295000,0.793,-0.393,0.322,-27.7,19.3,26.2,10,16.3,-24.3,0.469954527,-0.571642201,0.0687887204,-0.668996246
684,1715417,1295000,0.75,-0.334,0.288,-36.8,45.1,6.8,10,16.3,-24.3,0.469130528,-0.571031831,0.0718405713,-0.669789727
685,1717172,1295000,0.75,-0.334,0.288,-36.8,45.1,6.8,10,16.3,-24.3,0.469130528,-0.571031831,0.0718405713,-0.669789727
686,1721154,1295000,0.707,-0.302,0.249,-38.9,54.6,1.6,9.9,16.3,-24.4,0.468581194,-0.57063509,0.0729697562,-0.670400098
687,1723704,1295010,0.664,-0.306,0.235,-38,63,-1.7,9.9,16.3,-24.4,0.467970824,-0.570116276,0.074159978,-0.671132542
688,1725381,1295010,0.641,-0.27,0.223,-33.4,69.3,-2.5,9.9,16.3,-24.4,0.467421491,-0.569444868,0.0752891629,-0.671956542
689,1727757,1295010,0.641,-0.27,0.223,-33.4,69.3,-2.5,9.9,16.3,-24.4,0.467421491,-0.569444868,0.0752891629,-0.671956542
690,1731000,1295010,0.641,-0.27,0.223,-33.4,69.3,-2.5,9.9,16.3,-24.4,0.467421491,-0.569444868,0.0752891629,-0.671956542
691,1733129,1295020,0.641,-0.27,0.223,-33.4,69.3,-2.5,9.9,16.3,-24.4,0.467421491,-0.569444868,0.0752891629,-0.671956542
692,1735263,1295020,0.641,-0.27,0.223,-33.4,69.3,-2.5,9.9,16.3,-24.4,0.467421491,-0.569444868,0.0752891629,-0.671956542
693,1737416,1295020,0.641,-0.27,0.223,-33.4,69.3,-2.5,9.9,16.3,-24.4,0.467421491,-0.569444868,0.0752891629,-0.671956542
694,1740466,1295020,0.309,-0.167,0.19,13.3,58.4,2,10.4,16.6,-23.6,0.466658528,-0.56346324,0.0805383465,-0.67690054
695,1742517,1295030,0.348,-0.125,0.209,19.4,50.6,-5.5,10.4,16.6,-23.6,0.466719565,-0.562517167,0.0806604205,-0.677632984
696,1744786,1295030,0.348,-0.125,0.209,19.4,50.6,-5.5,10.4,16.6,-23.6,0.466719565,-0.562517167,0.0806604205,-0.677632984
697,1747792,1295030,0.301,-0.116,0.182,27.8,42.4,-16.4,10.4,16.6,-23.6,0.466811121,-0.560686056,0.0806604205,-0.679067354
698,1749941,1295030,0.301,-0.116,0.182,27.8,42.4,-16.4,10.4,16.6,-23.6,0.466811121,-0.560686056,0.0806604205,-0.679067354
699,1753131,1295040,0.301,-0.116,0.182,27.8,42.4,-16.4,10.4,16.6,-23.6,0.466811121,-0.560686056,0.0806604205,-0.679067354
700,1754807,1295040,0.736,0.247,0.24,69.4,13,-82.7,12.4,15.7,-23.6,0.465987121,-0.558336131,0.0763573107,-0.682058168
701,1757828,1295040,0.854,0.296,0.265,69.4,13,-82.7,12.4,15.7,-23.6,0.465590381,-0.557573168,0.0744346446,-0.683187353
702,1761241,1295040,0.854,0.296,0.265,69.4,13,-82.7,12.4,15.7,-23.6,0.465590381,-0.557573168,0.0744346446,-0.683187353
703,1763500,1295050,1.054,0.406,0.343,75.4,9.3,-161.9,10.6,16.6,-23.7,0.464064455,-0.556932279,0.0714438307,-0.685048982
704,1765697,1295050,1.054,0.406,0.343,75.4,9.3,-161.9,10.6,16.6,-23.7,0.464064455,-0.556932279,0.0714438307,-0.685048982
705,1767814,1295050,1.054,0.406,0.343,75.4,9.3,-161.9,10.6,16.6,-23.7,0.464064455,-0.556932279,0.0714438307,-0.685048982
706,1770020,1295050,0.9,0.295,0.253,45.7,33.7,-230,10.6,16.6,-23.7,0.457350383,-0.554979095,0.0621356853,-0.692037721
707,1772452,1295060,0.9,0.295,0.253,45.7,33.7,-230,10.6,16.6,-23.7,0.457350383,-0.554979095,0.0621356853,-0.692037721
708,1774809,1295060,0.779,0.207,0.149,3.4,51.2,-258.1,10.6,16.5,-23.6,0.453413495,-0.554521317,0.059480575,-0.695211646
709,1778830,1295060,0.461,0.004,0.026,-27.5,32.7,-246.1,10.6,16.5,-23.6,0.445173498,-0.554338206,0.0548417615,-0.701040681
710,1780950,1295060,0.461,0.004,0.026,-27.5,32.7,-246.1,10.6,16.5,-23.6,0.445173498,-0.554338206,0.0548417615,-0.701040681
711,1782415,1295070,0.461,0.004,0.026,-27.5,32.7,-246.1,10.6,16.5,-23.6,0.445173498,-0.554338206,0.0548417615,-0.701040681
712,1784676,1295070,0.461,0.004,0.026,-27.5,32.7,-246.1,10.6,16.5,-23.6,0.445173498,-0.554338206,0.0548417615,-0.701040681
713,1788106,1295070,0.461,0.004,0.026,-27.5,32.7,-246.1,10.6,16.5,-23.6,0.445173498,-0.554338206,0.0548417615,-0.701040681
714,1790335,1295070,0.461,0.004,0.026,-27.5,32.7,-246.1,10.6,16.5,-23.6,0.445173498,-0.554338206,0.0548417615,-0.701040681
715,1793968,1295080,0.461,0.004,0.026,-27.5,32.7,-246.1,10.6,16.5,-23.6,0.445173498,-0.554338206,0.0548417615,-0.701040681
716,1796305,1295080,0.461,0.004,0.026,-27.5,32.7,-246.1,10.6,16.5,-23.6,0.445173498,-0.554338206,0.0548417615,-0.701040681
717,1797848,1295080,0.461,0.004,0.026,-27.5,32.7,-246.1,10.6,16.5,-23.6,0.445173498,-0.554338206,0.0548417615,-0.701040681
718,1800256,1295080,0.461,0.004,0.026,-27.5,32.7,-246.1,10.6,16.5,-23.6,0.445173498,-0.554338206,0.0548417615,-0.701040681
719,1804249,1295090,0.461,0.004,0.026,-27.5,32.7,-246.1,10.6,16.5,-23.6,0.445173498,-0.554338206,0.0548417615,-0.701040681
720,1806521,1295090,1.181,-0.014,0.24,-138.9,-194.4,-229.5,8.2,18.6,-23.5,0.402447584,-0.580187384,0.030487991,-0.70741905
721,1808802,1295090,1.181,-0.014,0.24,-138.9,-194.4,-229.5,8.2,18.6,-23.5,0.402447584,-0.580187384,0.030487991,-0.70741905
722,1810599,1295090,1.181,-0.014,0.24,-138.9,-194.4,-229.5,8.2,18.6,-23.5,0.402447584,-0.580187384,0.030487991,-0.70741905
723,1812508,1295100,1.181,-0.014,0.24,-138.9,-194.4,-229.5,8.2,18.6,-23.5,0.402447584,-0.580187384,0.030487991,-0.70741905
724,1814891,1295100,1.181,-0.014,0.24,-138.9,-194.4,-229.5,8.2,18.6,-23.5,0.402447584,-0.580187384,0.030487991,-0.70741905
725,1818800,1295100,1.181,-0.014,0.24,-138.9,-194.4,-229.5,8.2,18.6,-23.5,0.402447584,-0.580187384,0.030487991,-0.70741905
726,1820378,1295100,1.503,-0.274,0.054,-248,-145.3,-225.3,7,19.4,-23.3,0.371990112,-0.602618488,0.0233161412,-0.705587939
727,1822578,1295110,1.503,-0.274,0.054,-248,-145.3,-225.3,7,19.4,-23.3,0.371990112,-0.602618488,0.0233161412,-0.705587939
728,1826637,1295110,1.503,-0.274,0.054,-248,-145.3,-225.3,7,19.4,-23.3,0.371990112,-0.602618488,0.0233161412,-0.705587939
729,1828845,1295110,1.503,-0.274,0.054,-248,-145.3,-225.3,7,19.4,-23.3,0.371990112,-0.602618488,0.0233161412,-0.705587939
730,1830956,1295110,1.503,-0.274,0.054,-248,-145.3,-225.3,7,19.4,-23.3,0.371990112,-0.602618488,0.0233161412,-0.705587939
731,1832525,1295120,1.503,-0.274,0.054,-248,-145.3,-225.3,7,19.4,-23.3,0.371990112,-0.602618488,0.0233161412,-0.705587939
732,1835020,1295120,1.402,-0.793,-0.169,-321.9,-25,-160.1,6.2,21,-22.4,0.330607013,-0.624134037,0.0326548051,-0.707113865
733,1837439,1295120,1.402,-0.793,-0.169,-321.9,-25,-160.1,6.2,21,-22.4,0.330607013,-0.624134037,0.0326548051,-0.707113865
734,1841339,1295120,1.249,-0.959,-0.181,-297.3,42,-138.4,5.2,22.2,-21,0.317911313,-0.627704703,0.0386669515,-0.709494308
735,1842961,1295130,1.191,-0.981,-0.172,-276.9,62,-136,5.2,22.2,-21,0.311929685,-0.628772851,0.0415051729,-0.711050752
736,1845779,1295130,1.191,-0.981,-0.172,-276.9,62,-136,5.2,22.2,-21,0.311929685,-0.628772851,0.0415051729,-0.711050752
737,1848756,1295130,1.136,-0.964,-0.152,-276.9,62,-136,5.2,22.2,-21,0.305978576,-0.629779962,0.0443739128,-0.712546159
738,1850409,1295130,1.136,-0.964,-0.152,-276.9,62,-136,5.2,22.2,-21,0.305978576,-0.629779962,0.0443739128,-0.712546159
739,1852962,1295140,1.136,-0.964,-0.152,-276.9,62,-136,5.2,22.2,-21,0.305978576,-0.629779962,0.0443739128,-0.712546159
740,1854930,1295140,0.841,-0.83,0.017,-143.9,135.4,-127.6,3.9,23.2,-20.8,0.287240211,-0.627796258,0.0513626514,-0.721579638
741,1857958,1295140,0.841,-0.83,0.017,-143.9,135.4,-127.6,3.9,23.2,-20.8,0.287240211,-0.627796258,0.0513626514,-0.721579638
742,1860119,1295140,0.79,-0.77,0.049,-123,145.6,-122.6,5.5,23.8,-19.9,0.283455916,-0.626392407,0.0525223548,-0.72420423
743,1863804,1295150,0.721,-0.698,0.093,-99.3,150.1,-119.6,5.5,23.8,-19.9,0.280037843,-0.624774926,0.0534073916,-0.72685934
744,1865691,1295150,0.721,-0.698,0.093,-99.3,150.1,-119.6,5.5,23.8,-19.9,0.280037843,-0.624774926,0.0534073916,-0.72685934
745,1867893,1295150,0.721,-0.698,0.093,-99.3,150.1,-119.6,5.5,23.8,-19.9,0.280037843,-0.624774926,0.0534073916,-0.72685934
746,1870135,1295150,0.674,-0.576,0.137,-40.3,137.6,-123.4,5.5,23.8,-19.9,0.274300363,-0.62120426,0.0535905026,-0.732078005
747,1873595,1295160,0.664,-0.388,0.215,21.5,105.3,-141.8,5.4,23.6,-20.1,0.272194586,-0.619556261,0.0519730216,-0.734366894
748,1875995,1295160,0.687,-0.314,0.23,47,87,-154.9,5.4,23.6,-20.1,0.270241401,-0.618060854,0.0495925779,-0.736533708
749,1877414,1295160,0.75,-0.194,0.248,77.8,53.9,-180.9,5.4,23.6,-20.1,0.266426588,-0.615558336,0.0433362835,-0.74037904
750,1880805,1295160,0.75,-0.194,0.248,77.8,53.9,-180.9,5.4,23.6,-20.1,0.266426588,-0.615558336,0.0433362835,-0.74037904
751,1882350,1295170,0.75,-0.194,0.248,77.8,53.9,-180.9,5.4,23.6,-20.1,0.266426588,-0.615558336,0.0433362835,-0.74037904
752,1886194,1295170,0.75,-0.194,0.248,77.8,53.9,-180.9,5.4,23.6,-20.1,0.266426588,-0.615558336,0.0433362835,-0.74037904
753,1888391,1295170,0.958,-0.037,0.205,65.8,21.9,-202.2,4.9,23.9,-20.3,0.259773553,-0.613269448,0.0322580645,-0.745200964
754,1890779,1295170,0.958,-0.037,0.205,65.8,21.9,-202.2,4.9,23.9,-20.3,0.259773553,-0.613269448,0.0322580645,-0.745200964
755,1893811,1295180,1.11,-0.013,0.132,26.6,13.2,-202.9,4,23.8,-20.4,0.254127628,-0.612628559,0.025757622,-0.747917112
756,1895941,1295180,1.11,-0.013,0.132,26.6,13.2,-202.9,4,23.8,-20.4,0.254127628,-0.612628559,0.025757622,-0.747917112
757,1898064,1295180,1.11,-0.013,0.132,26.6,13.2,-202.9,4,23.8,-20.4,0.254127628,-0.612628559,0.025757622,-0.747917112
758,1901409,1295180,1.246,-0.094,0.047,-53.2,17.5,-197.6,4,23.8,-20.4,0.243293558,-0.612598041,0.019287698,-0.751731925
759,1903672,1295190,1.241,-0.215,-0.002,-103.7,27.4,-195.1,1.9,24,-20,0.238685263,-0.612781152,0.0185552538,-0.75307474
760,1905644,1295190,1.237,-0.278,-0.022,-124.4,33.4,-194.3,1.9,24,-20,0.233802301,-0.612933744,0.0181890316,-0.754478591
761,1908236,1295190,1.237,-0.278,-0.022,-124.4,33.4,-194.3,1.9,24,-20,0.233802301,-0.612933744,0.0181890316,-0.754478591
762,1910654,1295190,1.237,-0.278,-0.022,-124.4,33.4,-194.3,1.9,24,-20,0.233802301,-0.612933744,0.0181890316,-0.754478591
763,1912747,1295200,1.237,-0.278,-0.022,-124.4,33.4,-194.3,1.9,24,-20,0.233802301,-0.612933744,0.0181890316,-0.754478591
764,1915010,1295200,1.143,-0.409,-0.039,-152.6,50.1,-194.3,3.2,24.1,-19.7,0.218573565,-0.613208411,0.0178838466,-0.758842738
765,1919289,1295200,1.084,-0.443,-0.038,-146.9,54.5,-188,3.2,24.1,-19.7,0.20822779,-0.612933744,0.0182500687,-0.761955626
766,1919741,1295200,1.084,-0.443,-0.038,-146.9,54.5,-188,3.2,24.1,-19.7,0.20822779,-0.612933744,0.0182500687,-0.761955626
767,1922254,1295210,1.084,-0.443,-0.038,-146.9,54.5,-188,3.2,24.1,-19.7,0.20822779,-0.612933744,0.0182500687,-0.761955626
768,1926697,1295210,1.084,-0.443,-0.038,-146.9,54.5,-188,3.2,24.1,-19.7,0.20822779,-0.612933744,0.0182500687,-0.761955626
769,1928787,1295210,1.084,-0.443,-0.038,-146.9,54.5,-188,3.2,24.1,-19.7,0.20822779,-0.612933744,0.0182500687,-0.761955626
770,1930567,1295210,1.084,-0.443,-0.038,-146.9,54.5,-188,3.2,24.1,-19.7,0.20822779,-0.612933744,0.0182500687,-0.761955626
771,1932913,1295220,1.084,-0.443,-0.038,-146.9,54.5,-188,3.2,24.1,-19.7,0.20822779,-0.612933744,0.0182500687,-0.761955626
772,1935088,1295220,1.084,-0.443,-0.038,-146.9,54.5,-188,3.2,24.1,-19.7,0.20822779,-0.612933744,0.0182500687,-0.761955626
773,1939139,1295220,0.834,-0.423,0.028,-117,35.3,-135.6,1.3,25.7,-18.2,0.182531205,-0.611774041,0.0203253273,-0.769371624
774,1941356,1295220,0.834,-0.423,0.028,-117,35.3,-135.6,1.3,25.7,-18.2,0.182531205,-0.611774041,0.0203253273,-0.769371624
775,1943641,1295230,0.834,-0.423,0.028,-117,35.3,-135.6,1.3,25.7,-18.2,0.182531205,-0.611774041,0.0203253273,-0.769371624
776,1945631,1295230,0.834,-0.423,0.028,-117,35.3,-135.6,1.3,25.7,-18.2,0.182531205,-0.611774041,0.0203253273,-0.769371624
777,1948507,1295230,0.834,-0.423,0.028,-117,35.3,-135.6,1.3,25.7,-18.2,0.182531205,-0.611774041,0.0203253273,-0.769371624
778,1950625,1295230,0.834,-0.423,0.028,-117,35.3,-135.6,1.3,25.7,-18.2,0.182531205,-0.611774041,0.0203253273,-0.769371624
779,1952905,1295240,0.834,-0.423,0.028,-117,35.3,-135.6,1.3,25.7,-18.2,0.182531205,-0.611774041,0.0203253273,-0.769371624
780,1955060,1295240,0.834,-0.423,0.028,-117,35.3,-135.6,1.3,25.7,-18.2,0.182531205,-0.611774041,0.0203253273,-0.769371624
781,1958017,1295240,0.834,-0.423,0.028,-117,35.3,-135.6,1.3,25.7,-18.2,0.182531205,-0.611774041,0.0203253273,-0.769371624
782,1960312,1295240,0.834,-0.423,0.028,-117,35.3,-135.6,1.3,25.7,-18.2,0.182531205,-0.611774041,0.0203253273,-0.769371624
783,1963353,1295250,0.834,-0.423,0.028,-117,35.3,-135.6,1.3,25.7,-18.2,0.182531205,-0.611774041,0.0203253273,-0.769371624
784,1964732,1295250,1.264,-0.617,0.212,-129.1,24.5,-189.7,-1.1,25.8,-17.6,0.133213294,-0.611835078,0.0180364391,-0.779442732
785,1967795,1295250,1.264,-0.617,0.212,-129.1,24.5,-189.7,-1.1,25.8,-17.6,0.133213294,-0.611835078,0.0180364391,-0.779442732
786,1971184,1295250,1.264,-0.617,0.212,-129.1,24.5,-189.7,-1.1,25.8,-17.6,0.133213294,-0.611835078,0.0180364391,-0.779442732
787,1972580,1295260,1.264,-0.617,0.212,-129.1,24.5,-189.7,-1.1,25.8,-17.6,0.133213294,-0.611835078,0.0180364391,-0.779442732
788,1975902,1295260,1.253,-0.605,0.255,-109.5,19.1,-161.5,-2,26.2,-17.3,0.115543077,-0.611865596,0.0170598468,-0.782219916
789,1977277,1295260,1.253,-0.605,0.255,-109.5,19.1,-161.5,-2,26.2,-17.3,0.115543077,-0.611865596,0.0170598468,-0.782219916
790,1980051,1295260,1.253,-0.605,0.255,-109.5,19.1,-161.5,-2,26.2,-17.3,0.115543077,-0.611865596,0.0170598468,-0.782219916
791,1983232,1295270,1.253,-0.605,0.255,-109.5,19.1,-161.5,-2,26.2,-17.3,0.115543077,-0.611865596,0.0170598468,-0.782219916
792,1984752,1295270,1.253,-0.605,0.255,-109.5,19.1,-161.5,-2,26.2,-17.3,0.115543077,-0.611865596,0.0170598468,-0.782219916
793,1987638,1295270,1.253,-0.605,0.255,-109.5,19.1,-161.5,-2,26.2,-17.3,0.115543077,-0.611865596,0.0170598468,-0.782219916
794,1990680,1295270,1.253,-0.605,0.255,-109.5,19.1,-161.5,-2,26.2,-17.3,0.115543077,-0.611865596,0.0170598468,-0.782219916
795,1992330,1295280,1.253,-0.605,0.255,-109.5,19.1,-161.5,-2,26.2,-17.3,0.115543077,-0.611865596,0.0170598468,-0.782219916
796,1995200,1295280,1.207,-0.237,0.224,-95.1,-22.7,-122.6,-2.9,26.2,-15.5,0.0921658986,-0.615009003,0.0150151067,-0.782952361
797,1998149,1295280,1.211,-0.221,0.228,-95.1,-22.7,-122.6,-2.9,26.2,-15.5,0.0888088626,-0.615619373,0.0149540696,-0.782860805
798,1999808,1295280,1.211,-0.221,0.228,-95.1,-22.7,-122.6,-2.9,26.2,-15.5,0.0888088626,-0.615619373,0.0149540696,-0.782860805
799,2002276,1295290,1.211,-0.221,0.228,-95.1,-22.7,-122.6,-2.9,26.2,-15.5,0.0888088626,-0.615619373,0.0149540696,-0.782860805
800,2006583,1295290,1.211,-0.221,0.228,-95.1,-22.7,-122.6,-2.9,26.2,-15.5,0.0888088626,-0.615619373,0.0149540696,-0.782860805
801,2008932,1295290,1.211,-0.221,0.228,-95.1,-22.7,-122.6,-2.9,26.2,-15.5,0.0888088626,-0.615619373,0.0149540696,-0.782860805
802,2011182,1295290,1.211,-0.221,0.228,-95.1,-22.7,-122.6,-2.9,26.2,-15.5,0.0888088626,-0.615619373,0.0149540696,-0.782860805
803,2013533,1295300,1.211,-0.221,0.228,-95.1,-22.7,-122.6,-2.9,26.2,-15.5,0.0888088626,-0.615619373,0.0149540696,-0.782860805
804,2015600,1295300,1.211,-0.221,0.228,-95.1,-22.7,-122.6,-2.9,26.2,-15.5,0.0888088626,-0.615619373,0.0149540696,-0.782860805
805,2017891,1295300,1.211,-0.221,0.228,-95.1,-22.7,-122.6,-2.9,26.2,-15.5,0.0888088626,-0.615619373,0.0149540696,-0.782860805
806,2019714,1295300,1.211,-0.221,0.228,-95.1,-22.7,-122.6,-2.9,26.2,-15.5,0.0888088626,-0.615619373,0.0149540696,-0.782860805
807,2022831,1295310,1.211,-0.221,0.228,-95.1,-22.7,-122.6,-2.9,26.2,-15.5,0.0888088626,-0.615619373,0.0149540696,-0.782860805
808,2024760,1295310,1.211,-0.221,0.228,-95.1,-22.7,-122.6,-2.9,26.2,-15.5,0.0888088626,-0.615619373,0.0149540696,-0.782860805
809,2029304,1295310,1.211,-0.221,0.228,-95.1,-22.7,-122.6,-2.9,26.2,-15.5,0.0888088626,-0.615619373,0.0149540696,-0.782860805
810,2031636,1295310,1.211,-0.221,0.228,-95.1,-22.7,-122.6,-2.9,26.2,-15.5,0.0888088626,-0.615619373,0.0149540696,-0.782860805
811,2033710,1295320,1.211,-0.221,0.228,-95.1,-22.7,-122.6,-2.9,26.2,-15.5,0.0888088626,-0.615619373,0.0149540696,-0.782860805
812,2036212,1295320,1.211,-0.221,0.228,-95.1,-22.7,-122.6,-2.9,26.2,-15.5,0.0888088626,-0.615619373,0.0149540696,-0.782860805
813,2038165,1295320,1.211,-0.221,0.228,-95.1,-22.7,-122.6,-2.9,26.2,-15.5,0.0888088626,-0.615619373,0.0149540696,-0.782860805
814,2039983,1295320,1.211,-0.221,0.228,-95.1,-22.7,-122.6,-2.9,26.2,-15.5,0.0888088626,-0.615619373,0.0149540696,-0.782860805
815,2044079,1295330,1.211,-0.221,0.228,-95.1,-22.7,-122.6,-2.9,26.2,-15.5,0.0888088626,-0.615619373,0.0149540696,-0.782860805
816,2046221,1295330,1.211,-0.221,0.228,-95.1,-22.7,-122.6,-2.9,26.2,-15.5,0.0888088626,-0.615619373,0.0149540696,-0.782860805
817,2048524,1295330,1.211,-0.221,0.228,-95.1,-22.7,-122.6,-2.9,26.2,-15.5,0.0888088626,-0.615619373,0.0149540696,-0.782860805
818,2050486,1295330,1.211,-0.221,0.228,-95.1,-22.7,-122.6,-2.9,26.2,-15.5,0.0888088626,-0.615619373,0.0149540696,-0.782860805
819,2052744,1295340,1.211,-0.221,0.228,-95.1,-22.7,-122.6,-2.9,26.2,-15.5,0.0888088626,-0.615619373,0.0149540696,-0.782860805
820,2055016,1295340,1.211,-0.221,0.228,-95.1,-22.7,-122.6,-2.9,26.2,-15.5,0.0888088626,-0.615619373,0.0149540696,-0.782860805
821,2057587,1295340,1.211,-0.221,0.228,-95.1,-22.7,-122.6,-2.9,26.2,-15.5,0.0888088626,-0.615619373,0.0149540696,-0.782860805
822,2059731,1295340,1.211,-0.221,0.228,-95.1,-22.7,-122.6,-2.9,26.2,-15.5,0.0888088626,-0.615619373,0.0149540696,-0.782860805
823,2062276,1295350,1.211,-0.221,0.228,-95.1,-22.7,-122.6,-2.9,26.2,-15.5,0.0888088626,-0.615619373,0.0149540696,-0.782860805
824,2066566,1295350,1.211,-0.221,0.228,-95.1,-22.7,-122.6,-2.9,26.2,-15.5,0.0888088626,-0.615619373,0.0149540696,-0.782860805
825,2068800,1295350,1.211,-0.221,0.228,-95.1,-22.7,-122.6,-2.9,26.2,-15.5,0.0888088626,-0.615619373,0.0149540696,-0.782860805
826,2071036,1295350,1.211,-0.221,0.228,-95.1,-22.7,-122.6,-2.9,26.2,-15.5,0.0888088626,-0.615619373,0.0149540696,-0.782860805
827,2073013,1295360,1.211,-0.221,0.228,-95.1,-22.7,-122.6,-2.9,26.2,-15.5,0.0888088626,-0.615619373,0.0149540696,-0.782860805
828,2075387,1295360,1.211,-0.221,0.228,-95.1,-22.7,-122.6,-2.9,26.2,-15.5,0.0888088626,-0.615619373,0.0149540696,-0.782860805
829,2078358,1295360,1.211,-0.221,0.228,-95.1,-22.7,-122.6,-2.9,26.2,-15.5,0.0888088626,-0.615619373,0.0149540696,-0.782860805
830,2079848,1295360,1.211,-0.221,0.228,-95.1,-22.7,-122.6,-2.9,26.2,-15.5,0.0888088626,-0.615619373,0.0149540696,-0.782860805
831,2082875,1295370,1.211,-0.221,0.228,-95.1,-22.7,-122.6,-2.9,26.2,-15.5,0.0888088626,-0.615619373,0.0149540696,-0.782860805
832,2085886,1295370,1.211,-0.221,0.228,-95.1,-22.7,-122.6,-2.9,26.2,-15.5,0.0888088626,-0.615619373,0.0149540696,-0.782860805
833,2087366,1295370,1.211,-0.221,0.228,-95.1,-22.7,-122.6,-2.9,26.2,-15.5,0.0888088626,-0.615619373,0.0149540696,-0.782860805
834,2090223,1295370,1.211,-0.221,0.228,-95.1,-22.7,-122.6,-2.9,26.2,-15.5,0.0888088626,-0.615619373,0.0149540696,-0.782860805
835,2092471,1295380,1.211,-0.221,0.228,-95.1,-22.7,-122.6,-2.9,26.2,-15.5,0.0888088626,-0.615619373,0.0149540696,-0.782860805
836,2096334,1295380,0.906,-0.341,0.164,-67.9,-16.9,-40.6,-7.5,26.3,-14.4,0.00167851802,-0.620777001,0.019348735,-0.783715323
837,2097731,1295380,0.89,-0.349,0.16,-68.3,-15.8,-37.9,-7.6,26.8,-13.2,0.000122074038,-0.621051668,0.0199896237,-0.783471175
838,2100506,1295380,0.878,-0.353,0.16,-68.4,-14.8,-35.2,-7.6,26.8,-13.2,0.00137333293,0.621326334,-0.0206915494,0.783257546
839,2103313,1295390,0.886,-0.376,0.156,-68,-14,-32.2,-7.6,26.8,-13.2,0.00283822138,0.621570482,-0.0214239937,0.783043916
840,2105144,1295390,0.886,-0.376,0.156,-68,-14,-32.2,-7.6,26.8,-13.2,0.00283822138,0.621570482,-0.0214239937,0.783043916
841,2107234,1295390,0.886,-0.376,0.156,-68,-14,-32.2,-7.6,26.8,-13.2,0.00283822138,0.621570482,-0.0214239937,0.783043916
842,2110203,1295390,0.886,-0.376,0.156,-68,-14,-32.2,-7.6,26.8,-13.2,0.00283822138,0.621570482,-0.0214239937,0.783043916
843,2112206,1295400,0.886,-0.376,0.156,-68,-14,-32.2,-7.6,26.8,-13.2,0.00283822138,0.621570482,-0.0214239937,0.783043916
844,2115767,1295400,0.886,-0.376,0.156,-68,-14,-32.2,-7.6,26.8,-13.2,0.00283822138,0.621570482,-0.0214239937,0.783043916
845,2117850,1295400,0.875,-0.337,0.176,-57,-17.5,-14.5,-8.3,27,-12.9,0.0100405896,0.623126926,-0.0260933256,0.781579028
846,2120045,1295400,0.875,-0.337,0.176,-57,-17.5,-14.5,-8.3,27,-12.9,0.0100405896,0.623126926,-0.0260933256,0.781579028
847,2122834,1295410,0.875,-0.337,0.176,-57,-17.5,-14.5,-8.3,27,-12.9,0.0100405896,0.623126926,-0.0260933256,0.781579028
848,2126434,1295410,0.875,-0.337,0.176,-57,-17.5,-14.5,-8.3,27,-12.9,0.0100405896,0.623126926,-0.0260933256,0.781579028
849,2128432,1295410,0.875,-0.337,0.176,-57,-17.5,-14.5,-8.3,27,-12.9,0.0100405896,0.623126926,-0.0260933256,0.781579028
850,2130775,1295410,0.875,-0.337,0.176,-57,-17.5,-14.5,-8.3,27,-12.9,0.0100405896,0.623126926,-0.0260933256,0.781579028
851,2132833,1295420,0.875,-0.337,0.176,-57,-17.5,-14.5,-8.3,27,-12.9,0.0100405896,0.623126926,-0.0260933256,0.781579028
852,2134978,1295420,0.875,-0.337,0.176,-57,-17.5,-14.5,-8.3,27,-12.9,0.0100405896,0.623126926,-0.0260933256,0.781579028
853,2137979,1295420,0.925,-0.318,0.191,-42.8,-19.4,-4.2,-8.5,27,-13,0.0158085879,0.625476852,-0.0309762871,0.779442732
854,2140538,1295420,0.925,-0.318,0.191,-42.8,-19.4,-4.2,-8.5,27,-13,0.0158085879,0.625476852,-0.0309762871,0.779442732
855,2142798,1295430,0.925,-0.318,0.191,-42.8,-19.4,-4.2,-8.5,27,-13,0.0158085879,0.625476852,-0.0309762871,0.779442732
856,2144793,1295430,0.925,-0.318,0.191,-42.8,-19.4,-4.2,-8.5,27,-13,0.0158085879,0.625476852,-0.0309762871,0.779442732
857,2149026,1295430,0.925,-0.318,0.191,-42.8,-19.4,-4.2,-8.5,27,-13,0.0158085879,0.625476852,-0.0309762871,0.779442732
858,2151186,1295430,0.801,-0.168,0.189,-22.2,-9.8,22.9,-8,27.7,-10.8,0.016052736,0.626728111,-0.0366222114,0.778191473
859,2153082,1295440,0.801,-0.168,0.189,-22.2,-9.8,22.9,-8,27.7,-10.8,0.016052736,0.626728111,-0.0366222114,0.778191473
860,2155329,1295440,0.89,-0.251,0.128,-24.1,-11.7,21.8,-8,27.7,-10.8,0.0159611805,0.627094333,-0.0380260628,0.777825251
861,2157596,1295440,0.902,-0.279,0.124,-32.6,-18.9,14.6,-8.3,26.7,-12.4,0.016113773,0.627368999,-0.0387890255,0.777550584
862,2160225,1295440,0.902,-0.279,0.124,-32.6,-18.9,14.6,-8.3,26.7,-12.4,0.016113773,0.627368999,-0.0387890255,0.777550584
863,2162554,1295450,0.902,-0.279,0.124,-32.6,-18.9,14.6,-8.3,26.7,-12.4,0.016113773,0.627368999,-0.0387890255,0.777550584
864,2164697,1295450,0.902,-0.279,0.124,-32.6,-18.9,14.6,-8.3,26.7,-12.4,0.016113773,0.627368999,-0.0387890255,0.777550584
865,2169092,1295450,0.902,-0.279,0.124,-32.6,-18.9,14.6,-8.3,26.7,-12.4,0.016113773,0.627368999,-0.0387890255,0.777550584
866,2171433,1295450,0.902,-0.279,0.124,-32.6,-18.9,14.6,-8.3,26.7,-12.4,0.016113773,0.627368999,-0.0387890255,0.777550584
867,2173583,1295460,0.902,-0.279,0.124,-32.6,-18.9,14.6,-8.3,26.7,-12.4,0.016113773,0.627368999,-0.0387890255,0.777550584
868,2175787,1295460,0.902,-0.279,0.124,-32.6,-18.9,14.6,-8.3,26.7,-12.4,0.016113773,0.627368999,-0.0387890255,0.777550584
869,2178002,1295460,0.902,-0.279,0.124,-32.6,-18.9,14.6,-8.3,26.7,-12.4,0.016113773,0.627368999,-0.0387890255,0.777550584
870,2180299,1295460,0.902,-0.279,0.124,-32.6,-18.9,14.6,-8.3,26.7,-12.4,0.016113773,0.627368999,-0.0387890255,0.777550584
871,2182494,1295470,0.902,-0.279,0.124,-32.6,-18.9,14.6,-8.3,26.7,-12.4,0.016113773,0.627368999,-0.0387890255,0.777550584
872,2184924,1295470,0.902,-0.279,0.124,-32.6,-18.9,14.6,-8.3,26.7,-12.4,0.016113773,0.627368999,-0.0387890255,0.777550584
873,2187292,1295470,0.902,-0.279,0.124,-32.6,-18.9,14.6,-8.3,26.7,-12.4,0.016113773,0.627368999,-0.0387890255,0.777550584
874,2191159,1295470,1.004,-0.222,0.193,-18,-28.3,24.2,-8.1,26.6,-12.6,0.0158696249,0.632404553,-0.0467543565,0.773033845
875,2193534,1295480,1.004,-0.222,0.193,-18,-28.3,24.2,-8.1,26.6,-12.6,0.0158696249,0.632404553,-0.0467543565,0.773033845
876,2195624,1295480,1.004,-0.222,0.193,-18,-28.3,24.2,-8.1,26.6,-12.6,0.0158696249,0.632404553,-0.0467543565,0.773033845
877,2197770,1295480,1.004,-0.222,0.193,-18,-28.3,24.2,-8.1,26.6,-12.6,0.0158696249,0.632404553,-0.0467543565,0.773033845
878,2200990,1295480,1.024,-0.21,0.204,-18,-25.7,29,-8,28.7,-10.4,0.0149235511,0.634083071,-0.0495315409,0.77150792
879,2203058,1295490,1.031,-0.21,0.216,-16.8,-24,31.4,-8,28.7,-10.4,0.0143131809,0.634815516,-0.0509964293,0.770805994
880,2205308,1295490,1.031,-0.21,0.216,-16.8,-24,31.4,-8,28.7,-10.4,0.0143131809,0.634815516,-0.0509964293,0.770805994
881,2207721,1295490,1.031,-0.21,0.216,-16.8,-24,31.4,-8,28.7,-10.4,0.0143131809,0.634815516,-0.0509964293,0.770805994
882,2209987,1295490,1.031,-0.21,0.216,-16.8,-24,31.4,-8,28.7,-10.4,0.0143131809,0.634815516,-0.0509964293,0.770805994
883,2212207,1295500,1.031,-0.21,0.216,-16.8,-24,31.4,-8,28.7,-10.4,0.0143131809,0.634815516,-0.0509964293,0.770805994
884,2216699,1295500,1.031,-0.21,0.216,-16.8,-24,31.4,-8,28.7,-10.4,0.0143131809,0.634815516,-0.0509964293,0.770805994
885,2218919,1295500,1.031,-0.21,0.216,-16.8,-24,31.4,-8,28.7,-10.4,0.0143131809,0.634815516,-0.0509964293,0.770805994
886,2221218,1295500,1.031,-0.21,0.216,-16.8,-24,31.4,-8,28.7,-10.4,0.0143131809,0.634815516,-0.0509964293,0.770805994
887,2223399,1295510,1.008,-0.187,0.204,-9.3,-16.6,38.1,-7.7,27.6,-12,0.0107730338,0.637104404,-0.0566423536,0.768608661
888,2225430,1295510,1.012,-0.191,0.2,-8,-16.4,38.9,-7.7,27.6,-12,0.0102237007,0.637318033,-0.0573442793,0.768364513
889,2227671,1295510,1.008,-0.195,0.193,-5.6,-16,40,-7.5,28.1,-12,0.00961333048,0.637531663,-0.057985168,0.768150884
890,2230860,1295510,1.008,-0.195,0.193,-5.6,-16,40,-7.5,28.1,-12,0.00961333048,0.637531663,-0.057985168,0.768150884
891,2232864,1295520,1.008,-0.195,0.193,-5.6,-16,40,-7.5,28.1,-12,0.00961333048,0.637531663,-0.057985168,0.768150884
892,2235276,1295520,1.008,-0.195,0.193,-3,-15.2,40.6,-7.5,28.1,-12,0.00769066439,0.638172552,-0.0599078341,0.767509995
893,2238403,1295520,1.008,-0.195,0.193,-3,-15.2,40.6,-7.5,28.1,-12,0.00769066439,0.638172552,-0.0599078341,0.767509995
894,2240504,1295520,1.008,-0.195,0.193,-3,-15.2,40.6,-7.5,28.1,-12,0.00769066439,0.638172552,-0.0599078341,0.767509995
895,2242774,1295530,1.008,-0.195,0.193,-3,-15.2,40.6,-7.5,28.1,-12,0.00769066439,0.638172552,-0.0599078341,0.767509995
896,2245823,1295530,1.008,-0.195,0.193,-3,-15.2,40.6,-7.5,28.1,-12,0.00769066439,0.638172552,-0.0599078341,0.767509995
897,2247255,1295530,1.008,-0.195,0.193,-3,-15.2,40.6,-7.5,28.1,-12,0.00769066439,0.638172552,-0.0599078341,0.767509995
898,2251036,1295530,1.008,-0.195,0.193,-3,-15.2,40.6,-7.5,28.1,-12,0.00769066439,0.638172552,-0.0599078341,0.767509995
899,2252358,1295540,1.008,-0.195,0.193,-3,-15.2,40.6,-7.5,28.1,-12,0.00769066439,0.638172552,-0.0599078341,0.767509995
900,2255418,1295540,1.028,-0.156,0.196,7.7,-13.4,39.4,-7,28.4,-11.2,0.00180059206,0.639362774,-0.0638447218,0.766228217
901,2257743,1295540,1.028,-0.156,0.196,7.7,-13.4,39.4,-7,28.4,-11.2,0.00180059206,0.639362774,-0.0638447218,0.766228217
902,2260894,1295540,1.028,-0.156,0.196,7.7,-13.4,39.4,-7,28.4,-11.2,0.00180059206,0.639362774,-0.0638447218,0.766228217
903,2263000,1295550,1.028,-0.156,0.196,7.7,-13.4,39.4,-7,28.4,-11.2,0.00180059206,0.639362774,-0.0638447218,0.766228217
904,2265281,1295550,1.028,-0.156,0.196,7.7,-13.4,39.4,-7,28.4,-11.2,0.00180059206,0.639362774,-0.0638447218,0.766228217
905,2268366,1295550,1.028,-0.156,0.196,7.7,-13.4,39.4,-7,28.4,-11.2,0.00180059206,0.639362774,-0.0638447218,0.766228217
906,2269751,1295550,1.024,-0.164,0.173,11.4,-7.4,38.5,-7,28,-11.3,0.00222785119,-0.63985107,0.0657063509,-0.765648366
907,2273639,1295560,1.024,-0.164,0.173,11.4,-7.4,38.5,-7,28,-11.3,0.00222785119,-0.63985107,0.0657063509,-0.765648366
908,2274872,1295560,1.024,-0.164,0.173,11.4,-7.4,38.5,-7,28,-11.3,0.00222785119,-0.63985107,0.0657063509,-0.765648366
909,2278065,1295560,1.024,-0.164,0.173,11.4,-7.4,38.5,-7,28,-11.3,0.00222785119,-0.63985107,0.0657063509,-0.765648366
910,2280182,1295560,1.02,-0.164,0.157,13,-6.3,34.8,-7.2,28.7,-11.5,0.00537125767,-0.640064699,0.0668965728,-0.765343181
911,2283369,1295570,1.02,-0.164,0.157,13,-6.3,34.8,-7.2,28.7,-11.5,0.00537125767,-0.640064699,0.0668965728,-0.765343181
912,2284682,1295570,1.027,-0.14,0.165,19.3,-7.7,27.9,-7,28.6,-11.5,0.00686666463,-0.640217292,0.0671102023,-0.765190588
913,2287674,1295570,1.027,-0.14,0.165,19.3,-7.7,27.9,-7,28.6,-11.5,0.00686666463,-0.640217292,0.0671102023,-0.765190588
914,2291236,1295570,1.027,-0.14,0.165,19.3,-7.7,27.9,-7,28.6,-11.5,0.00686666463,-0.640217292,0.0671102023,-0.765190588
915,2292929,1295580,1.027,-0.14,0.165,19.3,-7.7,27.9,-7,28.6,-11.5,0.00686666463,-0.640217292,0.0671102023,-0.765190588
916,2295004,1295580,1.051,-0.098,0.184,21.4,-9.3,18,-6.8,28.1,-11.4,0.0090334788,-0.640614032,0.0670796838,-0.764824366
917,2297989,1295580,1.051,-0.098,0.184,21.4,-9.3,18,-6.8,28.1,-11.4,0.0090334788,-0.640614032,0.0670796838,-0.764824366
918,2300351,1295580,1.051,-0.098,0.184,21.4,-9.3,18,-6.8,28.1,-11.4,0.0090334788,-0.640614032,0.0670796838,-0.764824366
919,2303297,1295590,1.051,-0.098,0.184,21.4,-9.3,18,-6.8,28.1,-11.4,0.0090334788,-0.640614032,0.0670796838,-0.764824366
920,2304736,1295590,1.051,-0.098,0.184,21.4,-9.3,18,-6.8,28.1,-11.4,0.0090334788,-0.640614032,0.0670796838,-0.764824366
921,2307805,1295590,1.051,-0.098,0.184,21.4,-9.3,18,-6.8,28.1,-11.4,0.0090334788,-0.640614032,0.0670796838,-0.764824366
922,2309704,1295590,1.051,-0.098,0.184,21.4,-9.3,18,-6.8,28.1,-11.4,0.0090334788,-0.640614032,0.0670796838,-0.764824366
923,2312990,1295600,1.051,-0.098,0.184,21.4,-9.3,18,-6.8,28.1,-11.4,0.0090334788,-0.640614032,0.0670796838,-0.764824366
924,2314659,1295600,0.996,-0.144,0.177,-5.7,1.8,24.7,-6.6,28.7,-11.1,0.0126956999,-0.640736106,0.0689107944,-0.764519181
925,2317607,1295600,0.996,-0.144,0.177,-5.7,1.8,24.7,-6.6,28.7,-11.1,0.0126956999,-0.640736106,0.0689107944,-0.764519181
926,2320736,1295600,0.988,-0.155,0.173,-4.9,1.9,21.9,-6.6,28.7,-11.1,0.0132755516,-0.640614032,0.0697347942,-0.764549699
927,2322638,1295610,0.988,-0.155,0.173,-4.9,1.9,21.9,-6.6,28.7,-11.1,0.0132755516,-0.640614032,0.0697347942,-0.764549699
928,2325795,1295610,0.988,-0.155,0.173,-4.9,1.9,21.9,-6.6,28.7,-11.1,0.0132755516,-0.640614032,0.0697347942,-0.764549699
929,2327323,1295610,0.988,-0.155,0.173,-4.9,1.9,21.9,-6.6,28.7,-11.1,0.0132755516,-0.640614032,0.0697347942,-0.764549699
930,2331193,1295610,0.988,-0.155,0.173,-4.9,1.9,21.9,-6.6,28.7,-11.1,0.0132755516,-0.640614032,0.0697347942,-0.764549699
931,2332894,1295620,0.988,-0.155,0.173,-4.9,1.9,21.9,-6.6,28.7,-11.1,0.0132755516,-0.640614032,0.0697347942,-0.764549699
932,2334646,1295620,0.988,-0.155,0.173,-4.9,1.9,21.9,-6.6,28.7,-11.1,0.0132755516,-0.640614032,0.0697347942,-0.764549699
933,2338347,1295620,0.988,-0.155,0.173,-4.9,1.9,21.9,-6.6,28.7,-11.1,0.0132755516,-0.640614032,0.0697347942,-0.764549699
934,2339777,1295620,0.988,-0.155,0.173,-4.9,1.9,21.9,-6.6,28.7,-11.1,0.0132755516,-0.640614032,0.0697347942,-0.764549699
935,2342835,1295630,0.988,-0.155,0.173,-4.9,1.9,21.9,-6.6,28.7,-11.1,0.0132755516,-0.640614032,0.0697347942,-0.764549699
936,2345215,1295630,0.988,-0.155,0.173,-4.9,1.9,21.9,-6.6,28.7,-11.1,0.0132755516,-0.640614032,0.0697347942,-0.764549699
937,2347487,1295630,0.988,-0.155,0.173,-4.9,1.9,21.9,-6.6,28.7,-11.1,0.0132755516,-0.640614032,0.0697347942,-0.764549699
938,2349637,1295630,0.953,-0.162,0.166,3.5,2.9,11.4,-6.6,28.7,-11.1,0.0160832545,-0.63985107,0.0722373119,-0.764885403
939,2353663,1295640,0.949,-0.162,0.166,3.7,2.9,10.6,-6.6,28.7,-11.1,0.0165410321,-0.639728996,0.072420423,-0.764976959
940,2355598,1295640,0.945,-0.158,0.166,3.8,2.9,9.9,-6.6,28.7,-11.1,0.0167241432,-0.63963744,0.07248146,-0.765037996
941,2357800,1295640,0.945,-0.158,0.166,3.8,2.9,9.9,-6.6,28.7,-11.1,0.0167241432,-0.63963744,0.07248146,-0.765037996
942,2360852,1295640,0.949,-0.162,0.162,3.7,2.8,8.7,-6.9,29,-11.3,0.0169377728,-0.639576403,0.072542497,-0.765068514
943,2362229,1295650,0.949,-0.162,0.162,3.7,2.8,8.2,-6.9,29,-11.3,0.0171514023,-0.639515366,0.072603534,-0.765099033
944,2365171,1295650,0.945,-0.158,0.155,3.8,2.9,7.6,-6.9,29,-11.3,0.0174565874,-0.639393292,0.0726950896,-0.765190588
945,2368363,1295650,0.945,-0.158,0.155,3.8,2.9,7.6,-6.9,29,-11.3,0.0174565874,-0.639393292,0.0726950896,-0.765190588
946,2369927,1295650,0.945,-0.162,0.155,4.5,3.4,6.7,-7.2,29.4,-11.5,0.017670217,-0.639332255,0.0727256081,-0.765251625
947,2372141,1295660,0.941,-0.162,0.151,4.9,3.6,6.1,-7.2,29.4,-11.5,0.0178228095,-0.639271218,0.0727256081,-0.765312662
948,2376021,1295660,0.949,-0.155,0.151,5.4,3.8,5.6,-7.2,29.4,-11.5,0.0181585131,-0.639118625,0.0726950896,-0.765434736
949,2377447,1295660,0.949,-0.155,0.151,5.4,3.8,5.6,-7.2,29.4,-11.5,0.0181585131,-0.639118625,0.0726950896,-0.765434736
950,2380519,1295660,0.945,-0.158,0.155,6.1,4.1,4.6,-7.1,28.9,-11.6,0.0183111057,-0.63902707,0.0726645711,-0.765495773
951,2382741,1295670,0.945,-0.151,0.151,6.3,4.1,4.1,-7.1,28.9,-11.6,0.0184331797,-0.638935514,0.072603534,-0.76555681
952,2386021,1295670,0.945,-0.147,0.147,6.6,4,3.6,-7.1,28.9,-11.6,0.0187688833,-0.638782922,0.0725119785,-0.765709403
953,2387564,1295670,0.945,-0.147,0.147,6.6,4,3.6,-7.1,28.9,-11.6,0.0187688833,-0.638782922,0.0725119785,-0.765709403
954,2391368,1295670,0.945,-0.147,0.147,6.6,4,3.6,-7.1,28.9,-11.6,0.0187688833,-0.638782922,0.0725119785,-0.765709403
955,2392648,1295680,0.945,-0.147,0.155,7.3,3.6,2,-6.1,29.1,-11.4,0.0190130314,-0.638660848,0.0723288675,-0.765831477
956,2395961,1295680,0.957,-0.143,0.154,7.6,3.3,1.5,-6.1,29.1,-11.4,0.019287698,-0.638538774,0.0721457564,-0.765953551
957,2397950,1295680,0.957,-0.143,0.154,7.6,3.3,1.5,-6.1,29.1,-11.4,0.019287698,-0.638538774,0.0721457564,-0.765953551
958,2401168,1295680,0.957,-0.143,0.154,7.6,3.3,1.5,-6.1,29.1,-11.4,0.019287698,-0.638538774,0.0721457564,-0.765953551
959,2402466,1295690,0.949,-0.147,0.162,7.8,2.9,0.3,-5.7,28.4,-11.6,0.0195318461,-0.638538774,0.0721762749,-0.765923032
960,2405677,1295690,0.949,-0.147,0.158,7.7,2.9,0.1,-5.7,28.4,-11.6,0.0196234016,-0.638508255,0.0720542009,-0.765953551
961,2407911,1295690,0.949,-0.143,0.166,7.5,2.7,0,-5.7,28.4,-11.6,0.0198370312,-0.638386181,0.0718100528,-0.766075625
962,2411142,1295690,0.949,-0.143,0.166,7.5,2.7,0,-5.7,28.4,-11.6,0.0198370312,-0.638386181,0.0718100528,-0.766075625
963,2412601,1295700,0.949,-0.143,0.166,7.5,2.7,0,-5.7,28.4,-11.6,0.0198370312,-0.638386181,0.0718100528,-0.766075625
964,2414858,1295700,0.945,-0.154,0.17,6.6,2.6,-0.9,-6.2,28,-11.6,0.0199896237,-0.638294626,0.0715353862,-0.76616718
965,2417180,1295700,0.957,-0.159,0.17,6.3,2.6,-1.1,-6.2,28,-11.6,0.0200201422,-0.638264107,0.0713827937,-0.766197699
966,2420992,1295700,0.953,-0.162,0.17,6.3,2.6,-1.1,-6.2,28,-11.6,0.0201116977,-0.63820307,0.0712912381,-0.766258736
967,2422382,1295710,0.957,-0.166,0.174,6.1,2.5,-1.1,-6,28.2,-11.7,0.0201422163,-0.638172552,0.0711996826,-0.766289254
968,2425326,1295710,0.961,-0.178,0.174,6,2.4,-1,-6,28.2,-11.7,0.0202337718,-0.638142033,0.0710776086,-0.766350291
969,2428823,1295710,0.953,-0.166,0.182,6,2.3,-0.6,-6,28.2,-11.7,0.0203253273,-0.638080996,0.0709555345,-0.76638081
970,2431184,1295710,0.965,-0.194,0.182,6,2.3,-0.6,-6,28.2,-11.7,0.0203863643,-0.638050478,0.070863979,-0.766441847
971,2432878,1295720,0.981,-0.186,0.181,5.7,2.1,0.6,-5.5,28,-11.9,0.0204779199,-0.638019959,0.0707724235,-0.766472365
972,2435165,1295720,0.953,-0.151,0.19,5.4,2.4,1.7,-5.5,28,-11.9,0.0205694754,-0.637958922,0.0707113865,-0.766502884
973,2437624,1295720,0.946,-0.139,0.194,5.2,3,2.8,-5.5,28,-11.9,0.0206915494,-0.637897885,0.0706503494,-0.766563921
974,2440000,1295720,0.946,-0.139,0.194,5.2,3,2.8,-5.5,28,-11.9,0.0206915494,-0.637897885,0.0706503494,-0.766563921
975,2442278,1295730,0.957,-0.143,0.166,3.4,3,3.2,-5.6,27.9,-11.3,0.0208746605,-0.637775811,0.0705893124,-0.766655477
976,2445880,1295730,0.973,-0.147,0.17,2.1,2.2,1.6,-5.6,27.9,-11.3,0.020966216,-0.637745293,0.0705893124,-0.766685995
977,2447865,1295730,0.973,-0.151,0.17,1.3,1.1,-0.4,-5.6,27.9,-11.3,0.020966216,-0.637684256,0.0705587939,-0.766716514
978,2450116,1295730,0.973,-0.151,0.17,1.3,1.1,-0.4,-5.6,27.9,-11.3,0.020966216,-0.637684256,0.0705587939,-0.766716514
979,2454074,1295740,0.969,-0.155,0.174,1.3,1.1,-0.4,-5.6,27.9,-11.3,0.020966216,-0.637684256,0.0705282754,-0.766716514
980,2456545,1295740,0.973,-0.159,0.174,3.8,-1.7,-3.2,-6.3,28.5,-11.8,0.0211188086,-0.637745293,0.0705893124,-0.766685995
981,2459019,1295740,0.973,-0.159,0.174,3.8,-1.7,-3.2,-6.3,28.5,-11.8,0.0211188086,-0.637745293,0.0705893124,-0.766685995
982,2460769,1295740,0.981,-0.159,0.185,5.7,-2.4,-2.8,-6.3,28.5,-11.8,0.0211798456,-0.637836848,0.0703146458,-0.76659444
983,2462945,1295750,0.977,-0.151,0.181,6.1,-2.7,-2.5,-6.3,28.5,-11.8,0.0212103641,-0.637867367,0.0701925718,-0.76659444
984,2465622,1295750,0.977,-0.151,0.181,6.1,-2.7,-2.5,-6.3,28.5,-11.8,0.0212103641,-0.637867367,0.0701925718,-0.76659444
985,2467776,1295750,0.977,-0.151,0.181,6.1,-2.7,-2.5,-6.3,28.5,-11.8,0.0212103641,-0.637867367,0.0701925718,-0.76659444
986,2469966,1295750,0.977,-0.147,0.178,5.8,-3,-1.6,-5.5,28.3,-11.7,0.0213629566,-0.638019959,0.0697958312,-0.766502884
987,2474012,1295760,0.981,-0.143,0.177,5.4,-3.1,-1.6,-5.5,28.3,-11.7,0.0214545122,-0.638080996,0.0696737571,-0.766472365
988,2476684,1295760,0.981,-0.143,0.177,5.2,-3.3,-1.8,-5.2,28.6,-12,0.0214850307,-0.638142033,0.0695516831,-0.766441847
989,2478961,1295760,0.985,-0.143,0.181,5.4,-3.5,-2,-5.2,28.6,-12,0.0215460677,-0.63820307,0.0694296091,-0.766411328
990,2480768,1295760,0.981,-0.143,0.177,5.7,-3.7,-2.1,-5.2,28.6,-12,0.0215765862,-0.638264107,0.069307535,-0.766350291
991,2483039,1295770,0.988,-0.143,0.177,6,-3.9,-2.1,-5.2,28.6,-12,0.0216071047,-0.638325144,0.069185461,-0.766319773
992,2485070,1295770,0.985,-0.147,0.173,6.2,-4.2,-2.1,-5.3,28.2,-11.7,0.0216986602,-0.638386181,0.0690328684,-0.766258736
993,2488716,1295770,0.981,-0.147,0.177,6.2,-4.3,-1.9,-5.3,28.2,-11.7,0.0217291787,-0.638477737,0.0689107944,-0.766228217
994,2490207,1295770,0.981,-0.147,0.177,6.2,-4.3,-1.9,-5.3,28.2,-11.7,0.0217291787,-0.638477737,0.0689107944,-0.766228217
995,2493511,1295780,0.981,-0.147,0.177,6.2,-4.3,-1.9,-5.3,28.2,-11.7,0.0217291787,-0.638477737,0.0689107944,-0.766228217
996,2495614,1295780,0.985,-0.151,0.185,6.2,-4.8,-1.2,-5.6,28.3,-11.9,0.0219733268,-0.638691366,0.0685140538,-0.766045106
997,2497585,1295780,0.981,-0.159,0.178,6.1,-4.9,-0.8,-5.6,28.3,-11.9,0.0220343638,-0.638782922,0.0684224982,-0.765984069
