sample_index,elapsed_us,device_time_ms,acc_x_g,acc_y_g,acc_z_g,gyro_x_dps,gyro_y_dps,gyro_z_dps,mag_x_ut,mag_y_ut,mag_z_ut,quat_w,quat_x,quat_y,quat_z
0,2643,1227950,0.956,0.289,0.086,-4.4,1.8,-5.4,-9.5,-35.2,7.8,0.622486038,-0.158513138,-0.66072573,-0.388286996
1,6933,1227960,0.948,0.293,0.09,-3.6,1.7,-5.2,-9.5,-35.2,7.8,0.622455519,-0.158421583,-0.660695212,-0.38840907
2,8564,1227960,0.944,0.293,0.086,-2.7,1.3,-4.7,-9.3,-35.4,7.9,0.622425001,-0.158421583,-0.660664693,-0.388531144
3,10643,1227960,0.948,0.301,0.086,-1.8,0.9,-4.4,-9.3,-35.4,7.9,0.622394482,-0.158360546,-0.660634175,-0.3886227
4,12767,1227960,0.952,0.309,0.09,-0.8,0.5,-4,-9.3,-35.4,7.9,0.622363964,-0.158330027,-0.660634175,-0.388683737
5,15494,1227970,0.952,0.312,0.09,0,0.1,-4,-9.3,-35.4,7.9,0.622333445,-0.15826899,-0.660664693,-0.388744774
6,18088,1227970,0.956,0.309,0.086,0.6,0,-4,-9.9,-35.5,8.1,0.622302927,-0.158177435,-0.660664693,-0.388805811
7,20254,1227970,0.96,0.32,0.082,0.9,-0.2,-4,-9.9,-35.5,8.1,0.622272408,-0.158116398,-0.660695212,-0.388836329
8,23255,1227970,0.956,0.313,0.082,0.8,-0.2,-3.7,-9.9,-35.5,8.1,0.62224189,-0.158055361,-0.66072573,-0.388866848
9,25569,1227980,0.956,0.324,0.082,0.3,0,-3.3,-9.9,-35.5,8.1,0.622211371,-0.157994324,-0.660756249,-0.388897366
10,27745,1227980,0.96,0.324,0.094,0,0,-2.8,-8.8,-35.5,8,0.622180853,-0.157963805,-0.660756249,-0.388958403
11,30687,1227980,0.96,0.324,0.094,0,0.3,-2.5,-8.8,-35.5,8,0.622180853,-0.157933287,-0.660756249,-0.388988922
12,33031,1227980,0.96,0.336,0.094,0.1,0.4,-2.4,-8.8,-35.5,8,0.622150334,-0.15787225,-0.660756249,-0.38901944
13,36106,1227990,0.96,0.336,0.09,0.4,0.3,-2.4,-8.8,-35.5,8,0.622150334,-0.157841731,-0.660756249,-0.389049959
14,37710,1227990,0.952,0.34,0.094,0.6,0.2,-2.3,-9.7,-35.6,8.1,0.622119816,-0.157780694,-0.660786767,-0.389080477
15,40215,1227990,0.956,0.34,0.082,0.8,0,-2.3,-9.7,-35.6,8.1,0.622119816,-0.157750175,-0.660786767,-0.389080477
16,44608,1227990,0.952,0.34,0.09,0.8,-0.3,-2.1,-9.7,-35.6,8.1,0.622058779,-0.157719657,-0.660817286,-0.389110996
17,46809,1228000,0.956,0.34,0.09,0.8,-0.6,-2,-9.7,-35.6,8.1,0.622058779,-0.15765862,-0.660847804,-0.389110996
18,48956,1228000,0.952,0.34,0.09,0.8,-0.8,-2,-9.6,-35.4,7.7,0.622058779,-0.157506027,-0.660817286,-0.389263588
19,51190,1228000,0.952,0.34,0.09,0.8,-0.8,-2,-9.6,-35.4,7.7,0.62202826,-0.15744499,-0.660817286,-0.389263588
20,53526,1228000,0.952,0.34,0.09,0.9,-0.7,-2.1,-9.6,-35.4,7.7,0.621997742,-0.15744499,-0.660847804,-0.389294107
21,55551,1228010,0.948,0.348,0.091,1,-0.4,-2.1,-9.6,-35.4,7.7,0.621967223,-0.157414472,-0.660878323,-0.389294107
22,57837,1228010,0.944,0.344,0.087,1.1,-0.2,-2,-10,-35.3,8.1,0.621967223,-0.157353435,-0.660908841,-0.389294107
23,61053,1228010,0.952,0.348,0.087,1.2,0,-2,-10,-35.3,8.1,0.621936705,-0.157322916,-0.660908841,-0.389324625
24,63266,1228010,0.948,0.348,0.079,1.4,0.1,-2,-10,-35.3,8.1,0.621936705,-0.157261879,-0.66093936,-0.389324625
25,65465,1228020,0.948,0.344,0.083,1.5,0.1,-2.2,-10,-35.3,8.1,0.621936705,-0.157200842,-0.66093936,-0.389324625
26,67986,1228020,0.948,0.344,0.087,1.5,0.2,-2.5,-9.6,-35.2,8.1,0.621906186,-0.157139805,-0.660969878,-0.389355144
27,70170,1228020,0.948,0.336,0.086,1.5,0.3,-2.7,-9.6,-35.2,8.1,0.621906186,-0.157078768,-0.661000397,-0.389355144
28,74348,1228020,0.952,0.34,0.086,1.7,0.5,-2.9,-9.6,-35.2,8.1,0.621875668,-0.157017731,-0.661000397,-0.389385662
29,76766,1228030,0.952,0.344,0.086,1.8,0.6,-3,-9.6,-35.2,8.1,0.621875668,-0.156926176,-0.661030915,-0.389385662
30,78775,1228030,0.952,0.34,0.086,2,0.8,-3.2,-8.4,-35.5,7.7,0.621875668,-0.156865139,-0.661030915,-0.389416181
31,80892,1228030,0.956,0.336,0.09,2,1,-3.3,-8.4,-35.5,7.7,0.621875668,-0.156773583,-0.661061434,-0.389446699
32,83029,1228030,0.952,0.332,0.094,2,1,-3.4,-8.4,-35.5,7.7,0.621845149,-0.156682028,-0.661061434,-0.389446699
33,86475,1228040,0.952,0.332,0.094,1.7,0.9,-3.4,-8.4,-35.5,7.7,0.621845149,-0.156590472,-0.661091952,-0.389477218
34,88735,1228040,0.956,0.332,0.094,1.4,0.7,-3.4,-9.6,-35.5,7.8,0.621845149,-0.156529435,-0.661091952,-0.389507736
35,90696,1228040,0.952,0.328,0.094,1.1,0.5,-3.2,-9.6,-35.5,7.8,0.621814631,-0.156468398,-0.661122471,-0.389538255
36,92873,1228040,0.956,0.324,0.094,0.8,0.6,-3,-9.6,-35.5,7.8,0.621814631,-0.156407361,-0.661122471,-0.389568773
37,96945,1228050,0.952,0.324,0.086,0.5,0.6,-2.9,-9.6,-35.5,7.8,0.621784112,-0.156346324,-0.661122471,-0.389599292
38,99191,1228050,0.956,0.328,0.086,-0.2,0.5,-2.7,-10.1,-35.4,7.8,0.621906186,-0.15622425,-0.66093936,-0.389782403
39,101524,1228050,0.956,0.324,0.09,-0.2,0.5,-2.7,-10.1,-35.4,7.8,0.621906186,-0.156193731,-0.66093936,-0.389812922
40,103309,1228050,0.952,0.324,0.09,-0.5,0.5,-2.5,-10.1,-35.4,7.8,0.621875668,-0.156163213,-0.66093936,-0.38984344
41,105744,1228060,0.952,0.32,0.09,-1,0.4,-2.3,-10.1,-35.4,7.8,0.621875668,-0.156132694,-0.66093936,-0.389904477
42,107851,1228060,0.952,0.316,0.09,-1.6,0.3,-2.1,-10,-35.9,7.6,0.621845149,-0.156102176,-0.660908841,-0.389965514
43,110519,1228060,0.952,0.32,0.09,-2,0.1,-2,-10,-35.9,7.6,0.621814631,-0.156102176,-0.660908841,-0.390026551
44,113089,1228060,0.956,0.316,0.086,-2.4,0.1,-1.8,-10,-35.9,7.6,0.621814631,-0.156132694,-0.660878323,-0.390087588
45,115377,1228070,0.952,0.316,0.09,-2.9,0,-1.6,-10,-35.9,7.6,0.621784112,-0.156132694,-0.660878323,-0.390148625
46,117862,1228070,0.956,0.32,0.086,-3.2,0,-1.4,-10.3,-35.9,7.5,0.621753594,-0.156163213,-0.660847804,-0.390209662
47,121276,1228070,0.956,0.312,0.09,-3.5,-0.1,-1.1,-10.3,-35.9,7.5,0.621723075,-0.156193731,-0.660817286,-0.390270699
48,123194,1228070,0.956,0.316,0.09,-3.6,-0.2,-0.8,-10.3,-35.9,7.5,0.621692557,-0.15622425,-0.660786767,-0.390331736
49,125470,1228080,0.952,0.316,0.09,-3.6,-0.3,-0.7,-10.3,-35.9,7.5,0.621692557,-0.156254769,-0.660786767,-0.390392773
50,127633,1228080,0.952,0.312,0.09,-3.5,-0.2,-0.6,-8.1,-35.6,7.8,0.621662038,-0.156315806,-0.660756249,-0.39045381
51,131968,1228080,0.956,0.32,0.086,-3.2,-0.2,-0.5,-8.1,-35.6,7.8,0.62163152,-0.156346324,-0.66072573,-0.390514847
52,134091,1228080,0.952,0.316,0.09,-2.9,-0.2,-0.4,-8.1,-35.6,7.8,0.62163152,-0.156376843,-0.660695212,-0.390545366
53,136289,1228090,0.956,0.32,0.094,-2.5,-0.1,-0.4,-8.1,-35.6,7.8,0.621601001,-0.156407361,-0.660695212,-0.390606403
54,138338,1228090,0.956,0.32,0.086,-2.2,0,-0.4,-9.7,-35.5,7.8,0.621601001,-0.15643788,-0.660664693,-0.390636921
55,141609,1228090,0.956,0.328,0.09,-2,0,-0.3,-9.7,-35.5,7.8,0.621601001,-0.156468398,-0.660664693,-0.39066744
56,143257,1228090,0.956,0.324,0.094,-1.8,0.1,-0.2,-9.7,-35.5,7.8,0.621570482,-0.156468398,-0.660634175,-0.390697958
57,145470,1228100,0.956,0.324,0.094,-1.8,0.1,-0.2,-9.7,-35.5,7.8,0.621570482,-0.156468398,-0.660634175,-0.390697958
58,147789,1228100,0.952,0.328,0.086,-1.2,0.4,-0.3,-9.6,-35.3,8,0.621692557,-0.156468398,-0.660451064,-0.390820032
59,151361,1228100,0.952,0.328,0.086,-1.2,0.4,-0.3,-9.6,-35.3,8,0.621692557,-0.156468398,-0.660451064,-0.390850551
60,153020,1228100,0.952,0.328,0.09,-0.9,0.5,-0.2,-9.6,-35.3,8,0.621692557,-0.156468398,-0.660420545,-0.390881069
61,155821,1228110,0.956,0.332,0.09,-0.6,0.5,-0.2,-9.6,-35.3,8,0.621692557,-0.156468398,-0.660420545,-0.390881069
62,157973,1228110,0.956,0.332,0.09,-0.3,0.6,-0.3,-10.1,-35.5,7.9,0.621723075,-0.156468398,-0.660420545,-0.390911588
63,161285,1228110,0.956,0.332,0.086,0,0.9,-0.5,-10.1,-35.5,7.9,0.621723075,-0.156468398,-0.660390027,-0.390911588
64,162976,1228110,0.952,0.328,0.086,0.1,1.1,-0.7,-10.1,-35.5,7.9,0.621723075,-0.15643788,-0.660390027,-0.390911588
65,166377,1228120,0.956,0.332,0.086,0.4,1.3,-0.9,-10.1,-35.5,7.9,0.621753594,-0.156407361,-0.660359508,-0.390942106
66,168367,1228120,0.956,0.332,0.086,0.7,1.5,-0.9,-9.9,-35.2,7.6,0.621753594,-0.156376843,-0.660359508,-0.390942106
67,170627,1228120,0.952,0.332,0.082,0.9,1.6,-1,-9.9,-35.2,7.6,0.621784112,-0.156315806,-0.660359508,-0.390942106
68,172879,1228120,0.96,0.328,0.082,1.2,1.7,-1,-9.9,-35.2,7.6,0.621784112,-0.156285287,-0.66032899,-0.390942106
69,175445,1228130,0.956,0.328,0.078,1.2,1.7,-1.1,-9.9,-35.2,7.6,0.621814631,-0.15622425,-0.66032899,-0.390942106
70,177662,1228130,0.956,0.328,0.082,1.1,1.9,-1.3,-8.4,-35.6,8.1,0.621845149,-0.156193731,-0.66032899,-0.390972625
71,182149,1228130,0.956,0.332,0.086,0.9,2,-1.4,-8.4,-35.6,8.1,0.621845149,-0.156132694,-0.660298471,-0.390972625
72,184231,1228130,0.964,0.332,0.082,0.6,2.2,-1.5,-8.4,-35.6,8.1,0.621875668,-0.156071657,-0.660298471,-0.391003143
73,186465,1228140,0.964,0.332,0.082,0.3,2.1,-1.4,-8.4,-35.6,8.1,0.621906186,-0.156041139,-0.660267953,-0.391003143
74,188732,1228140,0.96,0.324,0.074,-0.1,2,-1.5,-10,-35,8.2,0.621906186,-0.15601062,-0.660237434,-0.391033662
75,190827,1228140,0.964,0.324,0.082,-0.5,2,-1.5,-10,-35,8.2,0.621936705,-0.155980102,-0.660206915,-0.391094699
76,193000,1228140,0.964,0.328,0.082,-1,1.9,-1.5,-10,-35,8.2,0.621936705,-0.155949583,-0.660176397,-0.391094699
77,197069,1228150,0.964,0.328,0.07,-1.5,1.8,-1.6,-10,-35,8.2,0.621936705,-0.155919065,-0.660145878,-0.391186254
78,199302,1228150,0.96,0.324,0.078,-2.2,1.7,-1.8,-9.6,-35.1,7.9,0.621936705,-0.155949583,-0.660145878,-0.391186254
79,201695,1228150,0.964,0.32,0.082,-2.2,1.7,-1.8,-9.6,-35.1,7.9,0.621936705,-0.155949583,-0.660084841,-0.391247291
80,203773,1228150,0.964,0.32,0.078,-2.6,1.5,-1.7,-9.6,-35.1,7.9,0.621936705,-0.155949583,-0.660054323,-0.391338847
81,205853,1228160,0.968,0.32,0.082,-3,1.4,-1.6,-9.6,-35.1,7.9,0.621936705,-0.155949583,-0.660023804,-0.391399884
82,208144,1228160,0.96,0.316,0.082,-3.5,1.2,-1.5,-9.8,-35.4,8.6,0.621936705,-0.155949583,-0.659962767,-0.391460921
83,210300,1228160,0.96,0.316,0.086,-4,1.2,-1.3,-9.8,-35.4,8.6,0.621936705,-0.155980102,-0.659932249,-0.391552477
84,213636,1228160,0.96,0.316,0.082,-4.4,1,-1.2,-9.8,-35.4,8.6,0.621906186,-0.15601062,-0.659871212,-0.391644032
85,215795,1228170,0.96,0.32,0.082,-4.8,0.9,-1,-9.8,-35.4,8.6,0.621906186,-0.156071657,-0.659840693,-0.391735588
86,217985,1228170,0.96,0.32,0.082,-5,0.9,-0.9,-9.8,-35.1,7.9,0.621906186,-0.156102176,-0.659779656,-0.391827143
87,220348,1228170,0.956,0.316,0.09,-5.3,0.8,-0.8,-9.8,-35.1,7.9,0.621875668,-0.156163213,-0.659718619,-0.391918699
88,222672,1228170,0.96,0.316,0.086,-5.5,0.7,-0.7,-9.8,-35.1,7.9,0.621875668,-0.15622425,-0.659657582,-0.392010254
89,226802,1228180,0.952,0.313,0.086,-5.6,0.5,-0.5,-9.8,-35.1,7.9,0.621845149,-0.156285287,-0.659596545,-0.39210181
90,228964,1228180,0.952,0.316,0.086,-5.7,0.5,-0.4,-8.5,-36.2,7.5,0.621845149,-0.156346324,-0.659566027,-0.392193365
91,231169,1228180,0.956,0.316,0.09,-5.7,0.4,-0.3,-8.5,-36.2,7.5,0.621814631,-0.156407361,-0.65950499,-0.392254402
92,233270,1228180,0.952,0.32,0.086,-5.5,0.2,-0.2,-8.5,-36.2,7.5,0.621814631,-0.156468398,-0.659443953,-0.392345958
93,235472,1228190,0.948,0.32,0.086,-5.2,0.2,-0.2,-8.5,-36.2,7.5,0.621784112,-0.156559954,-0.659413434,-0.392437513
94,239414,1228190,0.952,0.32,0.086,-4.9,0.3,-0.1,-9.6,-35,7.9,0.621784112,-0.156620991,-0.659352397,-0.39249855
95,241623,1228190,0.948,0.32,0.086,-4.6,0.4,0,-9.6,-35,7.9,0.621753594,-0.156682028,-0.659321879,-0.392590106
96,243933,1228190,0.952,0.313,0.082,-4.3,0.5,0,-9.6,-35,7.9,0.621753594,-0.156743065,-0.659260842,-0.392651143
97,246193,1228200,0.948,0.317,0.086,-3.9,0.5,-0.1,-9.6,-35,7.9,0.621753594,-0.156773583,-0.659230323,-0.39271218
98,248206,1228200,0.948,0.313,0.082,-3.2,0.7,-0.2,-9.8,-35.2,7.7,0.621814631,-0.156865139,-0.659138768,-0.39271218
99,250476,1228200,0.948,0.317,0.082,-3.2,0.7,-0.2,-9.8,-35.2,7.7,0.621814631,-0.156895657,-0.659108249,-0.392773217
100,252735,1228200,0.944,0.317,0.086,-2.9,0.8,-0.3,-9.8,-35.2,7.7,0.621784112,-0.156926176,-0.659077731,-0.392834254
101,255738,1228210,0.948,0.324,0.078,-2.4,0.8,-0.3,-9.8,-35.2,7.7,0.621814631,-0.156956694,-0.659047212,-0.392864772
102,257687,1228210,0.948,0.313,0.086,-2.1,0.8,-0.3,-9.7,-35.1,8.1,0.621814631,-0.156956694,-0.659016694,-0.392895291
103,261659,1228210,0.948,0.32,0.086,-1.8,0.9,-0.1,-9.7,-35.1,8.1,0.621814631,-0.156987213,-0.658986175,-0.39292581
104,263705,1228210,0.948,0.32,0.09,-1.5,1,0,-9.7,-35.1,8.1,0.621814631,-0.156987213,-0.658955657,-0.392956328
105,266046,1228220,0.948,0.32,0.086,-1.2,1.2,0,-9.7,-35.1,8.1,0.621845149,-0.156987213,-0.658925138,-0.392986847
106,267952,1228220,0.948,0.32,0.082,-0.8,1.3,-0.2,-9.4,-35.1,8.2,0.621845149,-0.156987213,-0.65889462,-0.393017365
107,271216,1228220,0.948,0.32,0.082,-0.4,1.5,-0.4,-9.4,-35.1,8.2,0.621875668,-0.156987213,-0.658864101,-0.393017365
108,273447,1228220,0.952,0.313,0.082,-0.1,1.6,-0.5,-9.4,-35.1,8.2,0.621875668,-0.156956694,-0.658864101,-0.393047884
109,276188,1228230,0.952,0.317,0.082,0,1.7,-0.7,-9.4,-35.1,8.2,0.621906186,-0.156926176,-0.658833583,-0.393047884
110,277577,1228230,0.952,0.32,0.082,0,1.9,-0.7,-8.2,-36,7.7,0.621906186,-0.156895657,-0.658803064,-0.393047884
111,281225,1228230,0.952,0.317,0.082,0,2,-0.8,-8.2,-36,7.7,0.621936705,-0.156865139,-0.658772546,-0.393108921
112,283601,1228230,0.952,0.313,0.082,0,2,-0.8,-8.2,-36,7.7,0.621967223,-0.15683462,-0.658772546,-0.393108921
113,285631,1228240,0.956,0.316,0.086,-0.1,1.9,-0.8,-8.2,-36,7.7,0.621997742,-0.156804102,-0.658742027,-0.393139439
114,287776,1228240,0.952,0.316,0.09,-0.3,1.7,-0.7,-9.9,-35.1,8.2,0.621997742,-0.156804102,-0.658711509,-0.393169958
115,291178,1228240,0.952,0.316,0.086,-0.6,1.5,-0.6,-9.9,-35.1,8.2,0.62202826,-0.156773583,-0.65868099,-0.393169958
116,293175,1228240,0.952,0.316,0.09,-0.9,1.3,-0.6,-9.9,-35.1,8.2,0.62202826,-0.156773583,-0.658650472,-0.393200476
117,295310,1228250,0.952,0.313,0.086,-1.2,1.2,-0.7,-9.9,-35.1,8.2,0.62202826,-0.156773583,-0.658650472,-0.393230995
118,298262,1228250,0.952,0.32,0.09,-1.8,1.1,-0.8,-9.8,-35.4,7.6,0.622150334,-0.156865139,-0.658497879,-0.393200476
119,300611,1228250,0.952,0.32,0.09,-1.8,1.1,-0.8,-9.8,-35.4,7.6,0.622150334,-0.156895657,-0.658497879,-0.393261513
120,302813,1228250,0.952,0.316,0.086,-2.2,1,-0.6,-9.8,-35.4,7.6,0.622150334,-0.156895657,-0.65846736,-0.393292032
121,305714,1228260,0.948,0.32,0.09,-2.4,0.9,-0.5,-9.8,-35.4,7.6,0.622150334,-0.156926176,-0.658436842,-0.393353069
122,308916,1228260,0.948,0.32,0.086,-2.7,0.8,-0.3,-10,-35.1,7.9,0.622150334,-0.156926176,-0.658375805,-0.393383587
123,310258,1228260,0.948,0.32,0.086,-3,0.8,-0.2,-10,-35.1,7.9,0.622150334,-0.156956694,-0.658345286,-0.393444624
124,313558,1228260,0.948,0.32,0.094,-3.4,0.8,-0.1,-10,-35.1,7.9,0.622150334,-0.157017731,-0.658314768,-0.393505661
125,315556,1228270,0.948,0.32,0.09,-3.7,0.7,-0.1,-10,-35.1,7.9,0.622150334,-0.15704825,-0.658253731,-0.393566698
126,317928,1228270,0.948,0.32,0.09,-3.8,0.7,-0.1,-9.3,-35.3,7.8,0.622150334,-0.157078768,-0.658223212,-0.393627735
127,321048,1228270,0.952,0.316,0.09,-4,0.6,-0.2,-9.3,-35.3,7.8,0.622150334,-0.157139805,-0.658192694,-0.393688772
128,323181,1228270,0.948,0.316,0.094,-4.1,0.5,-0.3,-9.3,-35.3,7.8,0.622119816,-0.157170324,-0.658131657,-0.393749809
129,326596,1228280,0.948,0.324,0.098,-4.3,0.4,-0.1,-9.3,-35.3,7.8,0.622119816,-0.157231361,-0.658101138,-0.393810846
130,327957,1228280,0.948,0.317,0.086,-4.4,0.3,0,-8.3,-36.2,7.4,0.622119816,-0.157292398,-0.65807062,-0.393871883
131,331933,1228280,0.944,0.316,0.09,-4.4,0.3,0,-8.3,-36.2,7.4,0.622058779,-0.157353435,-0.658009583,-0.39393292
132,334052,1228280,0.948,0.316,0.09,-4.4,0.3,0,-8.3,-36.2,7.4,0.622058779,-0.157414472,-0.657979064,-0.394024476
133,336395,1228290,0.948,0.32,0.086,-4.2,0.4,0,-8.3,-36.2,7.4,0.622058779,-0.15744499,-0.657918027,-0.394085513
134,338687,1228290,0.948,0.308,0.098,-4.1,0.4,0,-9.5,-35.2,8.2,0.622058779,-0.157506027,-0.657887509,-0.39414655
135,340661,1228290,0.952,0.316,0.094,-4,0.5,0,-9.5,-35.2,8.2,0.622058779,-0.157567064,-0.65785699,-0.394207587
136,342916,1228290,0.948,0.316,0.094,-3.8,0.5,0,-9.5,-35.2,8.2,0.622058779,-0.157597583,-0.657795953,-0.394268624
137,346167,1228300,0.952,0.312,0.09,-3.7,0.7,0,-9.5,-35.2,8.2,0.622058779,-0.15765862,-0.657765435,-0.394299142
138,348244,1228300,0.952,0.316,0.098,-3.2,0.8,-0.1,-9.2,-35.3,7.5,0.622211371,-0.157811213,-0.657582324,-0.394299142
139,350355,1228300,0.952,0.312,0.094,-3.2,0.8,-0.1,-9.2,-35.3,7.5,0.622211371,-0.157841731,-0.657521287,-0.394360179
140,353641,1228300,0.952,0.312,0.094,-2.9,1,-0.2,-9.2,-35.3,7.5,0.622211371,-0.15787225,-0.657490768,-0.394421216
141,355138,1228310,0.956,0.312,0.098,-2.6,1.2,-0.3,-9.2,-35.3,7.5,0.62224189,-0.15787225,-0.65746025,-0.394451735
142,357747,1228310,0.956,0.312,0.102,-2.3,1.3,-0.4,-9.3,-34.8,8,0.62224189,-0.157902768,-0.657429731,-0.394512772
143,360093,1228310,0.952,0.312,0.098,-2.1,1.4,-0.6,-9.3,-34.8,8,0.62224189,-0.157902768,-0.657368694,-0.394543291
144,363586,1228310,0.956,0.312,0.098,-1.8,1.3,-0.8,-9.3,-34.8,8,0.62224189,-0.157902768,-0.657338176,-0.394604328
145,365020,1228320,0.952,0.312,0.094,-1.6,1.3,-0.9,-9.3,-34.8,8,0.622272408,-0.157902768,-0.657307657,-0.394634846
146,368018,1228320,0.956,0.316,0.098,-1.4,1.4,-1,-9.4,-35.4,7.8,0.622272408,-0.157902768,-0.657277139,-0.394665365
147,370346,1228320,0.948,0.316,0.094,-1.3,1.4,-0.9,-9.4,-35.4,7.8,0.622272408,-0.15787225,-0.657277139,-0.394695883
148,372520,1228320,0.948,0.32,0.098,-1.1,1.3,-0.9,-9.4,-35.4,7.8,0.622272408,-0.15787225,-0.657216102,-0.39475692
149,376264,1228330,0.956,0.32,0.098,-0.9,1.3,-1,-9.4,-35.4,7.8,0.622302927,-0.15787225,-0.657216102,-0.394787439
150,377719,1228330,0.952,0.32,0.098,-0.8,1.2,-1.1,-8.4,-36.4,7.5,0.622302927,-0.157841731,-0.657185583,-0.394817957
151,381575,1228330,0.952,0.32,0.098,-0.7,1.1,-1.1,-8.4,-36.4,7.5,0.622302927,-0.157841731,-0.657185583,-0.394848476
152,383664,1228330,0.948,0.328,0.098,-0.7,1,-1.1,-8.4,-36.4,7.5,0.622302927,-0.157811213,-0.657155065,-0.394878994
153,385197,1228340,0.952,0.324,0.098,-0.5,1,-0.9,-8.4,-36.4,7.5,0.622302927,-0.157811213,-0.657155065,-0.394878994
154,388096,1228340,0.948,0.328,0.102,-0.5,0.9,-0.6,-9.6,-34.7,7.5,0.622302927,-0.157780694,-0.657124546,-0.394909513
155,390362,1228340,0.944,0.332,0.102,-0.6,0.8,-0.5,-9.6,-34.7,7.5,0.622302927,-0.157780694,-0.657124546,-0.394940031
156,393626,1228340,0.94,0.328,0.102,-0.9,0.7,-0.4,-9.6,-34.7,7.5,0.622333445,-0.157780694,-0.657094028,-0.39497055
157,395784,1228350,0.944,0.332,0.102,-1,0.7,-0.4,-9.6,-34.7,7.5,0.622333445,-0.157780694,-0.657094028,-0.39497055
158,397997,1228350,0.944,0.344,0.102,-1.5,0.5,0,-9.4,-35.1,7.6,0.622425001,-0.157689138,-0.656880398,-0.395153661
159,401230,1228350,0.944,0.344,0.102,-1.5,0.5,0,-9.4,-35.1,7.6,0.622455519,-0.157719657,-0.656880398,-0.395184179
160,403522,1228350,0.94,0.344,0.098,-1.7,0.4,0,-9.4,-35.1,7.6,0.622455519,-0.157719657,-0.656849879,-0.395214698
161,405508,1228360,0.94,0.344,0.102,-1.9,0.2,0.1,-9.4,-35.1,7.6,0.622425001,-0.157750175,-0.656819361,-0.395245216
162,408720,1228360,0.937,0.348,0.106,-2.1,0.2,0,-8.9,-35,7.2,0.622425001,-0.157780694,-0.656819361,-0.395245216
163,411051,1228360,0.937,0.352,0.103,-2.1,0.1,0,-8.9,-35,7.2,0.622425001,-0.157811213,-0.656788842,-0.395306253
164,412575,1228360,0.94,0.352,0.102,-2.1,0,-0.1,-8.9,-35,7.2,0.622425001,-0.157841731,-0.656758324,-0.395336772
165,416303,1228370,0.937,0.352,0.106,-2.3,0.1,-0.2,-8.9,-35,7.2,0.622425001,-0.15787225,-0.656758324,-0.39536729
166,417726,1228370,0.937,0.36,0.107,-2.6,0.1,-0.2,-8.7,-34.8,7.5,0.622394482,-0.157902768,-0.656727805,-0.395397809
167,420689,1228370,0.937,0.352,0.103,-2.9,0,-0.2,-8.7,-34.8,7.5,0.622394482,-0.157933287,-0.656697287,-0.395458846
168,423113,1228370,0.937,0.352,0.106,-3.2,0,-0.1,-8.7,-34.8,7.5,0.622363964,-0.157963805,-0.656666768,-0.395489364
169,425266,1228380,0.933,0.352,0.106,-3.5,-0.2,-0.3,-8.7,-34.8,7.5,0.622363964,-0.158024842,-0.65663625,-0.395550401
170,429418,1228380,0.94,0.352,0.11,-3.8,-0.2,-0.5,-8.5,-36.2,7.4,0.622333445,-0.158055361,-0.656605731,-0.395611438
171,431537,1228380,0.937,0.356,0.106,-4.1,-0.2,-0.7,-8.5,-36.2,7.4,0.622302927,-0.158116398,-0.656575213,-0.395672475
172,433834,1228380,0.933,0.356,0.103,-4.4,-0.2,-0.7,-8.5,-36.2,7.4,0.622302927,-0.158177435,-0.656544694,-0.395764031
173,436163,1228390,0.937,0.348,0.106,-4.8,-0.3,-0.8,-8.5,-36.2,7.4,0.622272408,-0.158207953,-0.656514176,-0.395825068
174,438176,1228390,0.937,0.352,0.103,-5.2,-0.4,-0.9,-9.2,-34.9,7.8,0.62224189,-0.15826899,-0.656483657,-0.395916623
175,440364,1228390,0.94,0.352,0.106,-5.6,-0.4,-1,-9.2,-34.9,7.8,0.622180853,-0.158360546,-0.656453139,-0.396008179
176,443839,1228390,0.937,0.348,0.11,-5.8,-0.3,-1,-9.2,-34.9,7.8,0.622150334,-0.158421583,-0.656392102,-0.396099734
177,445776,1228400,0.94,0.344,0.098,-6.2,-0.2,-1,-9.2,-34.9,7.8,0.622119816,-0.15848262,-0.656361583,-0.396221809
178,448107,1228400,0.94,0.34,0.106,-6.9,-0.1,-1.3,-8.9,-35,7.6,0.622058779,-0.158177435,-0.656147954,-0.396710105
179,450261,1228400,0.94,0.34,0.106,-6.9,-0.1,-1.3,-8.9,-35,7.6,0.622058779,-0.15826899,-0.656117435,-0.396832179
180,453241,1228400,0.94,0.34,0.106,-7.1,-0.1,-1.7,-8.9,-35,7.6,0.62202826,-0.158330027,-0.656056398,-0.396954253
181,455548,1228410,0.94,0.332,0.11,-7.4,-0.2,-2,-8.9,-35,7.6,0.621967223,-0.158421583,-0.655995361,-0.397076327
182,457688,1228410,0.94,0.336,0.11,-7.6,-0.3,-2.3,-8.7,-34.9,7.7,0.621906186,-0.15848262,-0.655934324,-0.397228919
183,460758,1228410,0.937,0.332,0.11,-7.8,-0.6,-2.4,-8.7,-34.9,7.7,0.621845149,-0.158574175,-0.655903806,-0.397350993
184,463007,1228410,0.933,0.328,0.118,-8,-0.9,-2.6,-8.7,-34.9,7.7,0.621784112,-0.158635212,-0.655842769,-0.397503586
185,466186,1228420,0.929,0.324,0.118,-8.3,-1.3,-2.8,-8.7,-34.9,7.7,0.621723075,-0.158726768,-0.65581225,-0.397656178
186,468499,1228420,0.925,0.328,0.118,-8.7,-1.6,-2.9,-9.1,-35.3,7.3,0.62163152,-0.158818323,-0.655751213,-0.397808771
187,470517,1228420,0.925,0.316,0.118,-9.1,-1.9,-3.1,-9.1,-35.3,7.3,0.621570482,-0.158909879,-0.655720695,-0.397991882
188,472758,1228420,0.921,0.316,0.114,-9.5,-2.1,-3.2,-9.1,-35.3,7.3,0.621478927,-0.159001434,-0.655659658,-0.398174993
189,475729,1228430,0.921,0.316,0.118,-10,-2.5,-3.4,-9.1,-35.3,7.3,0.621356853,-0.159123508,-0.655629139,-0.398358104
190,478030,1228430,0.921,0.312,0.118,-10.5,-2.9,-3.4,-9,-36,7.3,0.621265297,-0.159245582,-0.655598621,-0.398541215
191,480252,1228430,0.921,0.312,0.122,-10.9,-3.3,-3.6,-9,-36,7.3,0.621143223,-0.159367656,-0.655568102,-0.398724326
192,483239,1228430,0.917,0.308,0.126,-11.2,-3.6,-3.9,-9,-36,7.3,0.621021149,-0.159489731,-0.655507065,-0.398907437
193,485442,1228440,0.913,0.309,0.122,-11.5,-3.8,-3.9,-9,-36,7.3,0.620868557,-0.159642323,-0.655476547,-0.399151585
194,488736,1228440,0.909,0.301,0.118,-11.7,-4,-4.1,-8.6,-35.6,7,0.620746483,-0.159764397,-0.655446028,-0.399334696
195,490729,1228440,0.913,0.301,0.122,-11.9,-4.2,-4.1,-8.6,-35.6,7,0.62059389,-0.15991699,-0.65541551,-0.399548326
196,493074,1228440,0.913,0.301,0.126,-12.1,-4.4,-4.1,-8.6,-35.6,7,0.620471816,-0.160039064,-0.655384991,-0.399761956
197,495260,1228450,0.913,0.301,0.126,-12.2,-4.5,-3.9,-8.6,-35.6,7,0.620319224,-0.160191656,-0.655354472,-0.399975585
198,498477,1228450,0.921,0.308,0.122,-11.9,-4.6,-3.8,-8.7,-35.1,7.6,0.620319224,-0.160374767,-0.655171361,-0.400219733
199,500554,1228450,0.925,0.304,0.13,-11.9,-4.6,-3.8,-8.7,-35.1,7.6,0.62019715,-0.16052736,-0.655140843,-0.400433363
200,502761,1228450,0.925,0.308,0.13,-11.4,-4.7,-3.9,-8.7,-35.1,7.6,0.620044557,-0.160649434,-0.655110324,-0.400616474
201,505740,1228460,0.929,0.316,0.126,-11,-4.8,-4,-8.7,-35.1,7.6,0.619891964,-0.160802026,-0.655079806,-0.400830103
202,507993,1228460,0.925,0.316,0.13,-10.6,-4.8,-4.1,-8.2,-35.3,7.2,0.61976989,-0.1609241,-0.655079806,-0.401013215
203,511124,1228460,0.933,0.32,0.126,-10,-4.9,-4.1,-8.2,-35.3,7.2,0.619617298,-0.161046175,-0.655079806,-0.401196326
204,514033,1228460,0.933,0.324,0.126,-9.4,-4.9,-4.1,-8.2,-35.3,7.2,0.619495224,-0.16113773,-0.655079806,-0.401379437
205,516429,1228470,0.929,0.332,0.13,-8.6,-5,-4.3,-8.2,-35.3,7.2,0.619342631,-0.161229286,-0.655079806,-0.401532029
206,518679,1228470,0.936,0.34,0.126,-7.9,-5,-4.6,-8.7,-35.3,7,0.619190039,-0.161320841,-0.655110324,-0.401684622
207,520725,1228470,0.929,0.348,0.126,-7.2,-5.2,-4.8,-8.7,-35.3,7,0.619067965,-0.161412397,-0.655110324,-0.401837214
208,523040,1228470,0.933,0.359,0.122,-6.5,-5.3,-5,-8.7,-35.3,7,0.618915372,-0.161473434,-0.655140843,-0.401989807
209,525273,1228480,0.929,0.359,0.126,-5.8,-5.5,-5.1,-8.7,-35.3,7,0.61876278,-0.161534471,-0.65520188,-0.402111881
210,528256,1228480,0.933,0.363,0.122,-5.2,-5.6,-5.2,-8.8,-36,7.3,0.618610187,-0.161564989,-0.655232398,-0.402233955
211,530474,1228480,0.929,0.375,0.122,-4.4,-5.7,-5.2,-8.8,-36,7.3,0.618488113,-0.161595508,-0.655293435,-0.402356029
212,533617,1228480,0.933,0.387,0.115,-3.9,-5.9,-5.3,-8.8,-36,7.3,0.61833552,-0.161626026,-0.655354472,-0.402478103
213,535791,1228490,0.925,0.383,0.115,-3.6,-6.1,-5.4,-8.8,-36,7.3,0.618152409,-0.161656545,-0.655446028,-0.402569658
214,538004,1228490,0.925,0.387,0.123,-3.4,-6.3,-5.6,-8.5,-35.4,7.4,0.618030335,-0.161687063,-0.655507065,-0.402691733
215,541179,1228490,0.921,0.391,0.123,-3.3,-6.6,-6,-8.5,-35.4,7.4,0.617877743,-0.161687063,-0.655598621,-0.402783288
216,543466,1228490,0.917,0.395,0.123,-3.3,-7,-6.2,-8.5,-35.4,7.4,0.617694632,-0.161717582,-0.655690176,-0.402874844
217,545497,1228500,0.917,0.399,0.123,-3.4,-7.4,-6.4,-8.5,-35.4,7.4,0.617511521,-0.161717582,-0.655781732,-0.402996918
218,548648,1228500,0.909,0.395,0.127,-4.2,-8.4,-6.9,-8.1,-35.4,7.6,0.61732841,-0.161473434,-0.655781732,-0.403393658
219,550795,1228500,0.909,0.399,0.127,-4.2,-8.4,-6.9,-8.1,-35.4,7.6,0.61711478,-0.161534471,-0.655903806,-0.403515732
220,553032,1228500,0.901,0.399,0.131,-4.7,-9,-7.4,-8.1,-35.4,7.6,0.616901151,-0.161564989,-0.655995361,-0.403637806
221,555267,1228510,0.905,0.391,0.131,-5.3,-9.6,-7.8,-8.1,-35.4,7.6,0.616687521,-0.161595508,-0.656117435,-0.403790399
222,559213,1228510,0.901,0.395,0.131,-5.9,-10.2,-8.3,-8.4,-35.5,7.5,0.616443373,-0.161656545,-0.656208991,-0.40397351
223,561442,1228510,0.901,0.391,0.131,-6.6,-10.9,-8.7,-8.4,-35.5,7.5,0.616199225,-0.161717582,-0.656331065,-0.404126102
224,563672,1228510,0.897,0.391,0.131,-7.3,-11.5,-9,-8.4,-35.5,7.5,0.615924558,-0.161778619,-0.656453139,-0.404309214
225,565811,1228520,0.901,0.387,0.135,-7.9,-12,-9.3,-8.4,-35.5,7.5,0.615619373,-0.161870174,-0.656575213,-0.404522843
226,568003,1228520,0.901,0.379,0.135,-8.4,-12.3,-9.2,-8.1,-35.5,7.7,0.615344707,-0.16196173,-0.656727805,-0.404705954
227,571151,1228520,0.901,0.379,0.135,-8.8,-12.3,-9.1,-8.1,-35.5,7.7,0.615039521,-0.162053285,-0.656819361,-0.404919584
228,573288,1228520,0.905,0.383,0.135,-9.1,-12.3,-9,-8.1,-35.5,7.7,0.614764855,-0.162144841,-0.656941435,-0.405133213
229,575515,1228530,0.905,0.375,0.135,-9.4,-12.3,-9.1,-8.1,-35.5,7.7,0.61445967,-0.162266915,-0.657063509,-0.405346843
230,579670,1228530,0.913,0.379,0.131,-9.5,-12.4,-9.3,-8.5,-36.2,6.8,0.614185003,-0.162327952,-0.657185583,-0.405560472
231,581998,1228530,0.913,0.379,0.131,-9.5,-12.6,-9.4,-8.5,-36.2,6.8,0.613879818,-0.162450026,-0.657307657,-0.405774102
232,584269,1228530,0.917,0.379,0.134,-9.3,-12.7,-9.5,-8.5,-36.2,6.8,0.613574633,-0.1625721,-0.657429731,-0.405987732
233,586301,1228540,0.917,0.383,0.135,-9.3,-12.9,-9.4,-8.5,-36.2,6.8,0.613269448,-0.162663656,-0.657551805,-0.40623188
234,588319,1228540,0.921,0.387,0.131,-9.3,-13,-9.3,-7.9,-36.1,7.1,0.612964263,-0.162755211,-0.657673879,-0.406414991
235,590502,1228540,0.925,0.387,0.131,-9.3,-13.2,-9.1,-7.9,-36.1,7.1,0.612659078,-0.162877285,-0.657795953,-0.40662862
236,592890,1228540,0.925,0.391,0.131,-9.5,-13.4,-8.8,-7.9,-36.1,7.1,0.612353893,-0.162999359,-0.657918027,-0.40684225
237,595160,1228550,0.929,0.395,0.131,-9.6,-13.7,-8.6,-7.9,-36.1,7.1,0.612048708,-0.163121433,-0.658040101,-0.407055879
238,598924,1228550,0.932,0.395,0.127,-10.1,-14.1,-8.7,-8.3,-35.9,7.5,0.611804559,-0.162907804,-0.657979064,-0.407635731
239,601175,1228550,0.932,0.395,0.127,-10.1,-14.1,-8.7,-8.3,-35.9,7.5,0.611499374,-0.163029878,-0.658101138,-0.407849361
240,603287,1228550,0.932,0.406,0.131,-10.6,-14.3,-8.8,-8.3,-35.9,7.5,0.611163671,-0.16318247,-0.658223212,-0.408093509
241,605454,1228560,0.932,0.402,0.127,-11.2,-14.5,-9,-8.3,-35.9,7.5,0.610827967,-0.163304544,-0.658345286,-0.408307138
242,608867,1228560,0.936,0.406,0.123,-11.6,-14.8,-9,-8,-36,7.3,0.610492264,-0.163487655,-0.65846736,-0.408551286
243,611088,1228560,0.932,0.41,0.127,-12,-15.1,-9,-8,-36,7.3,0.61015656,-0.163640248,-0.658619953,-0.408795434
244,613167,1228560,0.932,0.418,0.123,-12.3,-15.4,-9,-8,-36,7.3,0.609820856,-0.163823359,-0.658742027,-0.409039583
245,616322,1228570,0.936,0.418,0.127,-12.6,-15.6,-9.3,-8,-36,7.3,0.609454634,-0.16400647,-0.658864101,-0.409283731
246,617793,1228570,0.932,0.418,0.123,-12.7,-15.9,-9.4,-8,-36.3,6.5,0.609088412,-0.164159062,-0.658986175,-0.409527879
247,621467,1228570,0.936,0.422,0.119,-13,-16,-9.6,-8,-36.3,6.5,0.608752709,-0.164342174,-0.659138768,-0.409772027
248,623654,1228570,0.936,0.426,0.119,-13.3,-16.1,-9.6,-8,-36.3,6.5,0.608386486,-0.164525285,-0.659260842,-0.410046693
249,625202,1228580,0.94,0.43,0.123,-13.8,-16.1,-9.3,-8,-36.3,6.5,0.608020264,-0.164738914,-0.659382916,-0.41032136
250,628172,1228580,0.944,0.438,0.119,-14.3,-15.9,-9.2,-7.9,-36.1,6.8,0.607654042,-0.164922025,-0.65950499,-0.410596026
251,630374,1228580,0.968,0.445,0.111,-14.7,-15.6,-9,-7.9,-36.1,6.8,0.60728782,-0.165135655,-0.659596545,-0.410870693
252,633832,1228580,0.983,0.445,0.099,-15.2,-15.2,-8.8,-7.9,-36.1,6.8,0.606921598,-0.165349284,-0.659688101,-0.41114536
253,635447,1228590,1.069,0.468,0.082,-15.7,-14.8,-8.4,-7.9,-36.1,6.8,0.606585894,-0.165562914,-0.659779656,-0.411420026
254,638544,1228590,1.136,0.503,0.069,-16.1,-13.8,-7.6,-8,-35.8,6.7,0.606250191,-0.165807062,-0.659840693,-0.411725211
255,640150,1228590,1.151,0.503,0.061,-16.2,-11.4,-4.9,-8,-35.8,6.7,0.605975524,-0.16605121,-0.659871212,-0.411969359
256,644726,1228590,1.124,0.507,0.078,-16,-6.7,0.2,-8,-35.8,6.7,0.605822932,-0.166325877,-0.659810175,-0.412182989
257,647197,1228600,1.042,0.488,0.094,-15.7,0.6,8.7,-8,-35.8,6.7,0.60585345,-0.166631062,-0.659627064,-0.412274545
258,649403,1228600,0.964,0.465,0.123,-16.6,18.5,29.9,-7.8,-36.4,6.4,0.606341746,-0.167119358,-0.659138768,-0.412182989
259,651524,1228600,0.878,0.431,0.124,-16.6,18.5,29.9,-7.8,-36.4,6.4,0.606830042,-0.167607654,-0.658619953,-0.412121952
260,653018,1228600,0.893,0.431,0.116,-18.8,25.5,37.7,-7.8,-36.4,6.4,0.607440413,-0.168156987,-0.657979064,-0.411969359
261,656454,1228610,0.901,0.411,0.12,-22.4,29.3,40.5,-7.8,-36.4,6.4,0.608142338,-0.168797876,-0.657216102,-0.411877804
262,657906,1228610,0.905,0.411,0.119,-26.9,30.6,38.1,-7.7,-36,6.6,0.608844264,-0.169408246,-0.656453139,-0.411847285
263,661289,1228610,0.843,0.38,0.136,-31.3,30,31.7,-7.7,-36,6.6,0.609424116,-0.170018616,-0.655659658,-0.411999878
264,663318,1228610,0.753,0.353,0.145,-34.9,28.6,24,-7.7,-36,6.6,0.60994293,-0.170567949,-0.654866176,-0.412274545
265,665415,1228620,0.694,0.334,0.154,-37.8,26.7,16.5,-7.7,-36,6.6,0.610309153,-0.171056246,-0.654103214,-0.412701804
266,669509,1228620,0.745,0.338,0.137,-40,23.3,8.6,-8.2,-36,6.5,0.610583819,-0.171514023,-0.653401288,-0.413251137
267,671838,1228620,0.862,0.364,0.127,-42.1,9.3,-12.2,-8.2,-36,6.5,0.610461745,-0.171819208,-0.65294351,-0.414044618
268,673897,1228620,0.929,0.367,0.115,-42.1,9.3,-12.2,-8.2,-36,6.5,0.610309153,-0.172093875,-0.652485733,-0.414838099
269,676243,1228630,0.893,0.36,0.131,-40.8,0,-22.2,-8.2,-36,6.5,0.609973449,-0.172338023,-0.652211066,-0.415723136
270,678326,1228630,0.905,0.367,0.131,-37.1,-8.1,-27.4,-7.9,-36.2,6,0.609454634,-0.172521134,-0.652088992,-0.416577654
271,680413,1228630,0.94,0.375,0.122,-25.5,-18.8,-20.5,-7.9,-36.2,6,0.608905301,-0.172734764,-0.652180548,-0.417157506
272,682837,1228630,0.956,0.39,0.122,-25.5,-18.8,-20.5,-7.9,-36.2,6,0.608355968,-0.172948393,-0.652272103,-0.417706839
273,685215,1228640,0.968,0.414,0.126,-20.2,-21.9,-13.2,-7.9,-36.2,6,0.607837153,-0.173253578,-0.652424696,-0.41810358
274,689624,1228640,0.968,0.426,0.13,-16.6,-23.6,-6.7,-7.7,-36.2,6.5,0.607379376,-0.173589282,-0.652607807,-0.418317209
275,692215,1228640,0.975,0.437,0.122,-16,-23.3,-0.1,-7.7,-36.2,6.5,0.606982635,-0.174016541,-0.652760399,-0.418439283
276,693977,1228640,0.968,0.441,0.115,-16,-23.3,-0.1,-7.7,-36.2,6.5,0.606585894,-0.1744438,-0.65294351,-0.418622394
277,696252,1228650,0.968,0.445,0.111,-19,-22.2,0.1,-7.7,-36.2,6.5,0.606189154,-0.174901578,-0.653065584,-0.418805506
278,697697,1228650,0.956,0.454,0.099,-28.1,-19.8,-2.6,-8.2,-36,5.9,0.605792413,-0.175389874,-0.653065584,-0.419171728
279,702158,1228650,0.948,0.45,0.1,-28.1,-19.8,-2.6,-8.2,-36,5.9,0.605365154,-0.175908689,-0.653096103,-0.419507431
280,704551,1228650,0.948,0.45,0.092,-32.5,-18.6,-4.5,-8.2,-36,5.9,0.604937895,-0.176458022,-0.653065584,-0.419965209
281,706351,1228660,0.944,0.442,0.088,-36,-17.4,-6.2,-8.2,-36,5.9,0.604480117,-0.176976836,-0.652974029,-0.420484024
282,707954,1228660,0.948,0.434,0.092,-38.3,-16.3,-7.5,-7.6,-35.9,6.3,0.604052858,-0.177556688,-0.652882473,-0.421094394
283,710258,1228660,0.948,0.43,0.088,-39.5,-15.4,-8.3,-7.6,-35.9,6.3,0.60359508,-0.178075503,-0.652760399,-0.421704764
284,713262,1228660,0.948,0.426,0.091,-39.3,-14.9,-8.5,-7.6,-35.9,6.3,0.603137303,-0.178624836,-0.652607807,-0.422315134
285,715437,1228670,0.952,0.43,0.091,-38.4,-14.6,-8.3,-7.6,-35.9,6.3,0.602710044,-0.179143651,-0.652485733,-0.422894986
286,717750,1228670,0.944,0.419,0.091,-36.9,-14.4,-7.9,-8.1,-36.6,5.7,0.602282785,-0.179662465,-0.652363659,-0.423474837
287,721699,1228670,0.948,0.422,0.091,-35.1,-14.4,-7.3,-8.1,-36.6,5.7,0.601886044,-0.180150761,-0.652272103,-0.424024171
288,724018,1228670,0.964,0.422,0.087,-33.3,-14.3,-6.5,-8.1,-36.6,5.7,0.601489303,-0.180608539,-0.652180548,-0.424542985
289,726180,1228680,0.968,0.422,0.087,-31.7,-14.2,-5.6,-8.1,-36.6,5.7,0.601092563,-0.181096835,-0.652088992,-0.425000763
290,727850,1228680,0.968,0.422,0.075,-30.5,-13.9,-4.9,-7.4,-36.3,5.5,0.600726341,-0.181554613,-0.651997436,-0.425428022
291,730446,1228680,0.976,0.422,0.079,-29.7,-12.8,-4.5,-7.4,-36.3,5.5,0.600390637,-0.181981872,-0.651905881,-0.4258858
292,734179,1228680,0.98,0.422,0.079,-29.7,-12.8,-4.5,-7.4,-36.3,5.5,0.600054933,-0.18243965,-0.651814325,-0.426313059
293,736493,1228690,0.983,0.426,0.075,-30.1,-11.9,-4.8,-7.4,-36.3,5.5,0.59971923,-0.18283639,-0.65172277,-0.426740318
294,738373,1228690,0.991,0.418,0.067,-30.7,-11.1,-5.2,-7.7,-36.4,5.2,0.599383526,-0.183294168,-0.651600696,-0.427198096
295,740662,1228690,0.987,0.422,0.067,-32,-9.9,-5.9,-7.7,-36.4,5.2,0.599047823,-0.183721427,-0.651448103,-0.42771691
296,742864,1228690,0.991,0.414,0.059,-32.3,-9.8,-6.1,-7.7,-36.4,5.2,0.598712119,-0.184148686,-0.651295511,-0.428205206
297,745204,1228700,0.995,0.414,0.067,-32.3,-10,-6.1,-7.7,-36.4,5.2,0.598406934,-0.184575945,-0.651142918,-0.428693503
298,747644,1228700,0.987,0.418,0.067,-32.1,-10.4,-6.2,-7.9,-36.8,4.9,0.597888119,-0.184789575,-0.651142918,-0.429334391
299,750017,1228700,0.987,0.418,0.067,-32,-10.8,-6,-7.9,-36.8,4.9,0.597552416,-0.185247353,-0.651020844,-0.429822687
300,754349,1228700,0.976,0.415,0.063,-31.9,-11.1,-5.8,-7.9,-36.8,4.9,0.597186193,-0.18570513,-0.650868252,-0.430310984
301,756585,1228710,0.976,0.415,0.063,-32,-11.4,-5.5,-7.9,-36.8,4.9,0.59685049,-0.186132389,-0.650746178,-0.43079928
302,758900,1228710,0.976,0.407,0.059,-32.3,-11.8,-5.3,-7.8,-37.5,5.1,0.596514786,-0.186590167,-0.650624104,-0.431257057
303,760710,1228710,0.964,0.411,0.06,-32.7,-12.3,-5.1,-7.8,-37.5,5.1,0.596148564,-0.187047945,-0.650502029,-0.431745354
304,764022,1228710,0.956,0.399,0.052,-33.1,-13.1,-4.9,-7.8,-37.5,5.1,0.595782342,-0.187536241,-0.650379955,-0.43223365
305,766131,1228720,0.956,0.403,0.052,-33.4,-14.1,-4.5,-7.8,-37.5,5.1,0.595385601,-0.188055055,-0.650257881,-0.432721946
306,769009,1228720,0.968,0.399,0.04,-33.4,-15.5,-3.9,-7.6,-37.1,4.6,0.594988861,-0.18857387,-0.650166326,-0.433179724
307,770678,1228720,0.937,0.384,0.044,-32.9,-17.1,-3.1,-7.6,-37.1,4.6,0.59459212,-0.189123203,-0.650105289,-0.433606983
308,772902,1228720,0.945,0.38,0.036,-31.9,-19.1,-1.7,-7.6,-37.1,4.6,0.594164861,-0.189672536,-0.650044252,-0.434003723
309,775041,1228730,0.937,0.384,0.04,-30.4,-21.2,0,-7.6,-37.1,4.6,0.593737602,-0.190282907,-0.650044252,-0.434339427
310,778016,1228730,0.948,0.38,0.052,-28.9,-23.5,1.9,-7.4,-36.1,4.7,0.593310343,-0.190923795,-0.650044252,-0.434644612
311,780145,1228730,0.972,0.383,0.075,-27.7,-25.7,3.6,-7.4,-36.1,4.7,0.592852565,-0.191564684,-0.650105289,-0.43488876
312,784764,1228730,0.956,0.375,0.083,-27.1,-27.5,5.2,-7.4,-36.1,4.7,0.592394787,-0.19226661,-0.650196844,-0.435071871
313,786377,1228740,0.96,0.367,0.098,-27.1,-28.8,7,-7.4,-36.1,4.7,0.59193701,-0.192968535,-0.650257881,-0.435254982
314,788025,1228740,1.03,0.394,0.113,-27.4,-29.3,8.6,-7.1,-37,4.5,0.591509751,-0.193731498,-0.650349437,-0.435407575
315,790222,1228740,1.073,0.397,0.116,-28.3,-28.8,10,-7.1,-37,4.5,0.591051973,-0.194524979,-0.650410474,-0.435560167
316,793315,1228740,1.065,0.389,0.128,-29.7,-26.8,11.9,-7.1,-37,4.5,0.590685751,-0.195318461,-0.650410474,-0.43571276
317,796452,1228750,1.081,0.381,0.124,-31.4,-23,14.8,-7.1,-37,4.5,0.590350047,-0.196172979,-0.650349437,-0.435865352
318,798688,1228750,1.069,0.377,0.128,-33.4,-17.3,19.1,-6.9,-37.2,4.1,0.590136418,-0.197027497,-0.650196844,-0.436017945
319,800997,1228750,1.026,0.358,0.132,-35.6,-10.4,23.9,-6.9,-37.2,4.1,0.590075381,-0.197943052,-0.649861141,-0.436170537
320,802569,1228750,0.991,0.335,0.125,-38,-3.2,28.1,-6.9,-37.2,4.1,0.590136418,-0.198858608,-0.649403363,-0.43632313
321,806685,1228760,0.878,0.309,0.123,-40.2,2.9,30.5,-6.9,-37.2,4.1,0.59028901,-0.199774163,-0.648884548,-0.43653676
322,809142,1228760,0.862,0.302,0.103,-41.7,7.8,29.6,-6.9,-37.1,3.8,0.59050264,-0.2006592,-0.64824366,-0.436780908
323,811046,1228760,0.819,0.298,0.104,-42,10.6,24.6,-6.9,-37.1,3.8,0.590685751,-0.201452681,-0.647602771,-0.437086093
324,812660,1228760,0.827,0.314,0.092,-40.9,11.6,15.8,-6.9,-37.1,3.8,0.590807825,-0.20209357,-0.646992401,-0.437513352
325,816559,1228770,0.859,0.334,0.045,-39,10.6,4.5,-6.9,-37.1,3.8,0.590807825,-0.202551347,-0.646473586,-0.438062685
326,818557,1228770,0.867,0.338,0.025,-36.1,8.6,-6.7,-7.5,-37,3.9,0.590746788,-0.202826014,-0.646046327,-0.438703574
327,820099,1228770,0.867,0.338,0.01,-32.2,6.2,-15.1,-7.5,-37,3.9,0.590563677,-0.202978607,-0.645710623,-0.439374981
328,822543,1228770,0.855,0.331,0.006,-27.2,3.9,-18.8,-7.5,-37,3.9,0.59028901,-0.203039644,-0.645496994,-0.44001587
329,826176,1228780,0.859,0.319,-0.005,-21.2,1.9,-18.2,-7.5,-37,3.9,0.590075381,-0.203039644,-0.645344401,-0.440565203
330,827678,1228780,0.871,0.315,-0.017,-14.8,0.2,-14.7,-7.3,-35.8,4.1,0.589861751,-0.203009125,-0.645252846,-0.440961943
331,830902,1228780,0.89,0.315,-0.017,-8.9,-1,-10.6,-7.3,-35.8,4.1,0.589709159,-0.202978607,-0.645222327,-0.441206091
332,833126,1228780,0.906,0.299,-0.018,-4.7,-1.9,-7.2,-7.3,-35.8,4.1,0.589587085,-0.202948088,-0.645252846,-0.441358684
333,835222,1228790,0.922,0.287,-0.018,-2.8,-2,-5.4,-7.3,-35.8,4.1,0.589495529,-0.202948088,-0.645252846,-0.441480758
334,838540,1228790,0.937,0.275,-0.019,-3.6,-1.4,-5.3,-7.3,-37.3,3.4,0.589403974,-0.20291757,-0.645283364,-0.441572314
335,840018,1228790,0.945,0.259,-0.011,-6.5,-0.2,-6.4,-7.3,-37.3,3.4,0.589312418,-0.20291757,-0.645252846,-0.441755425
336,843548,1228790,0.984,0.251,0.003,-10.8,1.1,-8,-7.3,-37.3,3.4,0.589190344,-0.202948088,-0.64516129,-0.442030091
337,845028,1228800,1.023,0.25,0.014,-15.7,2.5,-9,-7.3,-37.3,3.4,0.58906827,-0.202978607,-0.645008698,-0.442365795
338,848803,1228800,1.109,0.264,0.044,-20.9,3.9,-8.5,-7.3,-37.6,3.9,0.588976714,-0.203192236,-0.644825587,-0.442701498
339,851199,1228800,1.101,0.248,0.067,-26.6,5.7,-5.4,-7.3,-37.6,3.9,0.588885159,-0.203405866,-0.644520402,-0.443159276
340,853289,1228800,1.155,0.302,0.106,-33,8.1,0.8,-7.3,-37.6,3.9,0.58885464,-0.203772088,-0.644093142,-0.443647572
341,855535,1228810,1.124,0.248,0.094,-40.2,11.5,10,-7.3,-37.6,3.9,0.588915677,-0.204321421,-0.643513291,-0.444135868
342,857654,1228810,1.109,0.228,0.082,-47.3,15.5,20.7,-7.5,-36.9,3.6,0.589129307,-0.205053865,-0.642750328,-0.444593646
343,861747,1228810,1.038,0.209,0.134,-53.7,19.6,31.4,-7.5,-36.9,3.6,0.589465011,-0.205999939,-0.641834773,-0.445051424
344,863786,1228810,0.929,0.101,0.1,-58.4,23,40.6,-7.5,-36.9,3.6,0.589922788,-0.207098605,-0.640797143,-0.445448164
345,865199,1228820,0.914,0.086,0.064,-60.6,24.4,46,-7.5,-36.9,3.6,0.590441603,-0.208288827,-0.639667959,-0.445783868
346,868698,1228820,0.996,0.07,-0.018,-58.8,23.5,45.9,-7.3,-37.6,3,0.590960417,-0.209448531,-0.638599811,-0.44615009
347,870212,1228820,1.023,0.094,-0.023,-51.7,21.8,39.9,-7.3,-37.6,3,0.591418195,-0.21048616,-0.637623218,-0.446455275
348,872735,1228820,0.969,0.063,-0.038,-39.7,21.3,30.6,-7.3,-37.6,3,0.591814936,-0.211218604,-0.636829737,-0.446699423
349,876457,1228830,0.902,0.033,-0.06,-24.7,22.8,21,-7.3,-37.6,3,0.592242195,-0.211584826,-0.636188849,-0.446882534
350,879217,1228830,0.871,0.053,-0.11,-8.3,24.8,12.5,-7.9,-36.4,4,0.592669454,-0.211645863,-0.635731071,-0.446943571
351,882145,1228830,0.907,0.073,-0.13,8.4,25.5,5,-7.9,-36.4,4,0.593096713,-0.211340678,-0.635456404,-0.446882534
352,882529,1228830,0.907,0.093,-0.142,24.7,23.9,-1.6,-7.9,-36.4,4,0.593523972,-0.210760826,-0.635395367,-0.446668905
353,886512,1228840,0.875,0.101,-0.141,39.3,21,-7.2,-7.9,-36.4,4,0.593920713,-0.209967345,-0.63554796,-0.446302683
354,888534,1228840,0.871,0.105,-0.145,50.8,17.3,-10.9,-7.5,-37.1,3,0.594286935,-0.208960234,-0.635853145,-0.445844905
355,891576,1228840,0.879,0.097,-0.153,58.3,13.2,-13.4,-7.5,-37.1,3,0.594622639,-0.207892087,-0.636310923,-0.445265053
356,893712,1228840,0.907,0.085,-0.165,61.2,8.8,-15.7,-7.5,-37.1,3,0.594866787,-0.20679342,-0.636860256,-0.444654683
357,895731,1228850,0.997,0.065,-0.171,60.2,4.5,-18.8,-7.5,-37.1,3,0.595019379,-0.205725272,-0.637470626,-0.444074831
358,897721,1228850,1.059,0.075,-0.125,56.3,1.1,-22.4,-7.8,-37.4,2.6,0.595019379,-0.20496231,-0.638264107,-0.44328135
359,901771,1228850,1.059,0.075,-0.125,50.8,-0.7,-25.8,-7.8,-37.4,2.6,0.594988861,-0.203955199,-0.638904996,-0.442915128
360,903115,1228850,1.125,0.077,-0.079,43.8,-1.2,-27.2,-7.8,-37.4,2.6,0.594897305,-0.203009125,-0.639454329,-0.442640461
361,906104,1228860,1.137,0.05,-0.064,34.1,-1.2,-25.4,-7.8,-37.4,2.6,0.594775231,-0.202215644,-0.639912107,-0.442487869
362,907780,1228860,1.145,0.018,-0.073,20.8,-1.7,-19.8,-7.5,-36.9,3.2,0.594653157,-0.201696829,-0.640217292,-0.44245735
363,911687,1228860,1.152,-0.008,-0.073,4.2,-3.1,-11.4,-7.5,-36.9,3.2,0.594531083,-0.201513718,-0.640369884,-0.442518387
364,913246,1228860,1.172,-0.103,-0.086,-13.4,-5.4,-1.7,-7.5,-36.9,3.2,0.594378491,-0.201696829,-0.640308847,-0.442732017
365,915161,1228870,1.231,-0.1,-0.076,-29.6,-8.1,7.5,-7.5,-36.9,3.2,0.594195379,-0.202276681,-0.640095218,-0.443006684
366,918484,1228870,1.262,-0.104,-0.06,-42.4,-10.6,15.6,-7.5,-37,2.7,0.594012268,-0.203161718,-0.639759514,-0.443342387
367,920028,1228870,1.247,-0.241,-0.101,-51.4,-12.9,23.2,-7.5,-37,2.7,0.593829157,-0.204260384,-0.639301737,-0.443708609
368,923587,1228870,1.243,-0.307,-0.145,-56.9,-14.8,30.9,-7.5,-37,2.7,0.593676565,-0.20557268,-0.63881344,-0.444013794
369,926749,1228880,1.274,-0.295,-0.149,-58,-16.1,38.4,-7.5,-37,2.7,0.593554491,-0.20700705,-0.638294626,-0.444257942
370,928377,1228880,1.263,-0.365,-0.169,-53.5,-16.3,44.4,-7.6,-36.1,4.1,0.593493454,-0.208502457,-0.637775811,-0.444349498
371,930201,1228880,1.294,-0.397,-0.198,-43,-15,48,-7.6,-36.1,4.1,0.593554491,-0.20987579,-0.637348552,-0.444257942
372,934270,1228880,1.29,-0.436,-0.214,-26.9,-12.3,49,-7.6,-36.1,4.1,0.593737602,-0.211004975,-0.637012848,-0.443952757
373,936818,1228890,1.267,-0.467,-0.233,-6.7,-8.2,47.7,-7.6,-36.1,4.1,0.594073305,-0.211859493,-0.636829737,-0.443403424
374,938939,1228890,1.236,-0.458,-0.225,16.5,-3.2,44.2,-7.3,-37.8,2.3,0.594531083,-0.212286752,-0.636829737,-0.442579424
375,940401,1228890,1.282,-0.299,-0.177,41.2,2,38.3,-7.3,-37.8,2.3,0.595110935,-0.212256233,-0.637012848,-0.441511277
376,944519,1228890,1.286,-0.264,-0.172,64.4,6.4,31.4,-7.3,-37.8,2.3,0.59581286,-0.211798456,-0.637409589,-0.440229499
377,946777,1228900,1.266,-0.24,-0.18,82.9,9.6,25.4,-7.3,-37.8,2.3,0.596575823,-0.210974456,-0.637958922,-0.438795129
378,949508,1228900,1.235,-0.192,-0.202,94.9,11.1,22.6,-7.2,-37.5,2.8,0.597369304,-0.209936827,-0.638630329,-0.437238685
379,951158,1228900,1.224,-0.176,-0.209,101.6,11.4,23.1,-7.2,-37.5,2.8,0.598223823,-0.20883816,-0.639332255,-0.435560167
380,952604,1228900,1.212,-0.16,-0.209,105.2,11,25.5,-7.2,-37.5,2.8,0.599078341,-0.207708975,-0.640064699,-0.433820612
381,955047,1228910,1.2,-0.144,-0.22,107.8,10.4,28.1,-7.2,-37.5,2.8,0.599993896,-0.206610309,-0.640827662,-0.431989502
382,958847,1228910,1.177,-0.124,-0.22,110.4,10.1,30,-7.9,-37.2,3.4,0.600909452,-0.205481124,-0.641590625,-0.430097354
383,960294,1228910,1.165,-0.116,-0.227,113.4,10.3,31.2,-7.9,-37.2,3.4,0.601855525,-0.204321421,-0.642384106,-0.428144169
384,963624,1228910,1.153,-0.116,-0.227,116.5,11,31.6,-7.9,-37.2,3.4,0.602832118,-0.203131199,-0.643177587,-0.426129948
385,965350,1228920,1.126,-0.112,-0.238,119.4,12.1,31.9,-7.9,-37.2,3.4,0.60380871,-0.201910459,-0.644001587,-0.424085208
386,967534,1228920,1.114,-0.107,-0.242,121.9,13.7,31.9,-7.9,-37.4,3.8,0.604846339,-0.200628681,-0.644795068,-0.422009949
387,970199,1228920,1.095,-0.115,-0.253,123.9,15.6,32.1,-7.9,-37.4,3.8,0.605883969,-0.199285867,-0.645588549,-0.419904172
388,973528,1228920,1.083,-0.107,-0.253,125.5,17.4,32.5,-7.9,-37.4,3.8,0.606982635,-0.197912534,-0.646382031,-0.417798395
389,975093,1228930,1.064,-0.114,-0.28,126.8,19.1,33.2,-7.9,-37.4,3.8,0.60811182,-0.196508683,-0.647114475,-0.415631581
390,979142,1228930,1.052,-0.114,-0.288,127.9,20.4,34,-8.9,-35.4,6.3,0.609241005,-0.19513535,-0.647877438,-0.413464766
391,980640,1228930,1.044,-0.106,-0.295,129.1,21.5,34.9,-8.9,-35.4,6.3,0.610400708,-0.193731498,-0.648579363,-0.411267434
392,982774,1228930,1.044,-0.109,-0.315,130.5,22.3,35.6,-8.9,-35.4,6.3,0.61159093,-0.192297128,-0.649311808,-0.409039583
393,987256,1228940,1.037,-0.113,-0.331,132.3,22.7,36.5,-8.9,-35.4,6.3,0.61281167,-0.19083224,-0.650044252,-0.406781213
394,987580,1228940,1.029,-0.121,-0.338,134.3,22.8,37.6,-8.7,-36,5.7,0.614001892,-0.189367351,-0.650746178,-0.404461806
395,991066,1228940,1.033,-0.117,-0.358,136.9,22.8,38.9,-8.7,-36,5.7,0.615253151,-0.187871944,-0.65150914,-0.402081362
396,993855,1228940,1.021,-0.124,-0.377,140,22.8,40.1,-8.7,-36,5.7,0.61650441,-0.186376537,-0.652241585,-0.399639882
397,995892,1228950,1.029,-0.112,-0.389,143.7,22.9,41.1,-8.7,-36,5.7,0.617755669,-0.184789575,-0.653035066,-0.397137364
398,998080,1228950,1.025,-0.116,-0.413,147.9,23.1,42.1,-8.8,-35.5,6,0.618945891,-0.183690909,-0.654072695,-0.394085513
399,1000363,1228950,1.033,-0.108,-0.42,152.3,23.6,43,-8.8,-35.5,6,0.620258187,-0.182042909,-0.654896695,-0.391399884
400,1002988,1228950,1.029,-0.1,-0.432,156.9,24.2,43.5,-8.8,-35.5,6,0.621601001,-0.180333872,-0.655720695,-0.388683737
401,1005043,1228960,1.025,-0.092,-0.436,161.5,24.9,44,-8.8,-35.5,6,0.622974334,-0.178563799,-0.656575213,-0.385845515
402,1008815,1228960,1.029,-0.088,-0.448,166.1,25.8,44.6,-8.9,-35.6,6.8,0.624347667,-0.176732688,-0.657429731,-0.382976775
403,1010220,1228960,1.041,-0.064,-0.459,170.5,26.7,45.4,-8.9,-35.6,6.8,0.625782037,-0.174840541,-0.658314768,-0.38001648
404,1013504,1228960,1.037,-0.064,-0.471,174.8,27.8,46.1,-8.9,-35.6,6.8,0.627216407,-0.172887356,-0.659199805,-0.376964629
405,1016585,1228970,1.053,-0.048,-0.475,178.9,29,46.9,-8.9,-35.6,6.8,0.628681295,-0.170873135,-0.66011536,-0.373851741
406,1018744,1228970,1.068,-0.033,-0.483,182.8,30.3,47.8,-9.9,-34.7,7.4,0.630207221,-0.168797876,-0.661000397,-0.370677816
407,1020673,1228970,1.08,-0.021,-0.487,186.8,31.8,48.8,-9.9,-34.7,7.4,0.631733146,-0.16666158,-0.661885434,-0.367412336
408,1022894,1228970,1.084,-0.009,-0.495,190.9,33.3,49.8,-9.9,-34.7,7.4,0.63328959,-0.164494766,-0.66277047,-0.364085818
409,1025992,1228980,1.088,0.001,-0.491,195.3,34.9,50.8,-9.9,-34.7,7.4,0.634907071,-0.162236396,-0.663655507,-0.360698263
410,1027720,1228980,1.119,0.021,-0.491,199.7,36.5,51.5,-10.5,-33.4,10.7,0.636555071,-0.159947508,-0.664510025,-0.357219153
411,1031027,1228980,1.123,0.017,-0.495,203.9,37.9,52,-10.5,-33.4,10.7,0.63820307,-0.157567064,-0.665395062,-0.353648488
412,1033024,1228980,1.139,0.029,-0.503,207.4,39.1,52.3,-10.5,-33.4,10.7,0.639881588,-0.155125584,-0.66624958,-0.350047304
413,1035314,1228990,1.162,0.048,-0.503,210.4,40.2,52.4,-10.5,-33.4,10.7,0.641560106,-0.152653584,-0.667104099,-0.346385083
414,1038543,1228990,1.158,0.044,-0.499,212.8,41.5,52.3,-10.6,-34.2,9.2,0.643269143,-0.150120548,-0.667958617,-0.342692343
415,1040285,1228990,1.174,0.052,-0.515,214.9,43.1,52.3,-10.6,-34.2,9.2,0.644978179,-0.147526475,-0.668782617,-0.338969085
416,1043508,1228990,1.182,0.056,-0.523,216.6,44.7,52.3,-10.6,-34.2,9.2,0.646717734,-0.144901883,-0.669576098,-0.335215308
417,1045618,1229000,1.197,0.067,-0.519,218.2,46.4,52.4,-10.6,-34.2,9.2,0.648457289,-0.142246773,-0.670339061,-0.331431013
418,1047795,1229000,1.193,0.079,-0.519,219.6,48.4,52.5,-10.9,-33.6,10.2,0.650227363,-0.139561144,-0.671071505,-0.327616199
419,1050874,1229000,1.19,0.067,-0.527,220.7,50.8,52.4,-10.9,-33.6,10.2,0.651997436,-0.136844996,-0.671773431,-0.323770867
420,1053790,1229000,1.193,0.075,-0.531,221,53.4,52.1,-10.9,-33.6,10.2,0.653798029,-0.134067812,-0.672414319,-0.319956053
421,1055176,1229010,1.193,0.076,-0.542,220.7,55.8,51.8,-10.9,-33.6,10.2,0.655629139,-0.131290628,-0.672994171,-0.31614124
422,1058390,1229010,1.193,0.083,-0.542,220.1,57.8,51.7,-11.5,-32.6,11.2,0.65746025,-0.128513443,-0.673512986,-0.312326426
423,1061301,1229010,1.182,0.084,-0.542,219.7,59.4,52.1,-11.5,-32.6,11.2,0.65929136,-0.125705741,-0.674001282,-0.308511612
424,1062654,1229010,1.186,0.099,-0.55,219.7,60.4,53.4,-11.5,-32.6,11.2,0.661122471,-0.122928556,-0.674459059,-0.30466628
425,1065896,1229020,1.178,0.1,-0.561,219.8,61.1,55.3,-11.5,-32.6,11.2,0.6629841,-0.12018189,-0.674886319,-0.300790429
426,1069204,1229020,1.182,0.111,-0.565,220.1,61.3,57.7,-11.6,-31.7,12.3,0.664845729,-0.117435224,-0.675283059,-0.29688406
427,1071100,1229020,1.17,0.108,-0.573,220.6,61.3,60.6,-11.6,-31.7,12.3,0.66667684,-0.114719077,-0.675649281,-0.292916654
428,1072662,1229020,1.182,0.131,-0.585,221.6,61.2,63.5,-11.6,-31.7,12.3,0.668538469,-0.112033448,-0.676015503,-0.288857692
429,1075778,1229030,1.174,0.135,-0.58,223,61.1,66.4,-11.6,-31.7,12.3,0.670400098,-0.109378338,-0.676351207,-0.284737693
430,1077575,1229030,1.174,0.155,-0.584,225.1,61.2,69.2,-12.2,-30.6,15,0.672261727,-0.106723228,-0.676686911,-0.280556658
431,1080337,1229030,1.182,0.178,-0.576,227.6,61.2,72,-12.2,-30.6,15,0.674123356,-0.104068117,-0.676992096,-0.276284066
432,1082603,1229030,1.186,0.194,-0.576,230.8,61.3,74.7,-12.2,-30.6,15,0.676015503,-0.101413007,-0.677327799,-0.271889401
433,1085631,1229040,1.178,0.206,-0.572,234.4,61.2,77,-12.2,-30.6,15,0.677877132,-0.0987273782,-0.677632984,-0.267433699
434,1087862,1229040,1.182,0.221,-0.572,238.4,61.2,78.9,-13.3,-30.3,14.3,0.679738762,-0.0960112308,-0.677938169,-0.262855922
435,1091269,1229040,1.178,0.245,-0.567,242.4,61.1,80.3,-13.3,-30.3,14.3,0.681600391,-0.093264565,-0.678212836,-0.258217109
436,1093175,1229040,1.178,0.264,-0.563,246.6,61.1,80.8,-13.3,-30.3,14.3,0.68346202,-0.0904263436,-0.678518021,-0.25348674
437,1095690,1229050,1.182,0.284,-0.555,251.1,61.1,80.6,-13.3,-30.3,14.3,0.68529313,-0.0875576037,-0.678853725,-0.248664815
438,1097614,1229050,1.166,0.315,-0.547,255.5,61.2,80,-13.8,-29.1,14.9,0.687093722,-0.0845667898,-0.67915891,-0.243812372
439,1100099,1229050,1.158,0.327,-0.543,259.9,61.6,78.9,-13.8,-29.1,14.9,0.688894314,-0.0815149388,-0.679433576,-0.238898892
440,1103528,1229050,1.154,0.343,-0.535,263.9,62.1,77.3,-13.8,-29.1,14.9,0.690694906,-0.0783715323,-0.679738762,-0.233924375
441,1104997,1229060,1.142,0.358,-0.522,267.4,62.7,75.3,-13.8,-29.1,14.9,0.692434462,-0.0751365703,-0.680013428,-0.22891934
442,1107916,1229060,1.131,0.374,-0.518,270.6,63.4,72.7,-14.1,-27.8,16.2,0.694174017,-0.0718100528,-0.680288095,-0.223914304
443,1111224,1229060,1.134,0.39,-0.506,273.5,64.3,69.9,-14.1,-27.8,16.2,0.695883053,-0.0683919797,-0.680501724,-0.21887875
444,1113599,1229060,1.134,0.409,-0.498,276.1,65.2,67.1,-14.1,-27.8,16.2,0.69759209,-0.0648823511,-0.680715354,-0.213843196
445,1115565,1229070,1.15,0.44,-0.482,278.8,66.2,64.9,-14.1,-27.8,16.2,0.699240089,-0.061281167,-0.680898465,-0.208807642
446,1117756,1229070,1.177,0.463,-0.479,281.8,67.1,64,-14.5,-26.7,16.7,0.700888089,-0.0576494644,-0.681081576,-0.203741569
447,1121814,1229070,1.193,0.487,-0.471,284.7,68.3,64.8,-14.5,-26.7,16.7,0.702536088,-0.0539567248,-0.68120365,-0.198583941
448,1123950,1229070,1.208,0.502,-0.463,287.4,69.8,67.8,-14.5,-26.7,16.7,0.704214606,-0.0502334666,-0.681264687,-0.193365276
449,1126437,1229080,1.157,0.518,-0.439,289.2,71.9,72.6,-14.5,-26.7,16.7,0.705893124,-0.0465712455,-0.681295206,-0.188024537
450,1127928,1229080,1.11,0.522,-0.422,289.7,75.1,78.3,-15,-25.3,20,0.707602161,-0.0429700613,-0.681234169,-0.182592242
451,1131404,1229080,1.079,0.538,-0.386,288.9,78.8,82.9,-15,-25.3,20,0.709341716,-0.0394299142,-0.681081576,-0.177068392
452,1132796,1229080,1.29,0.622,-0.416,286.9,81.9,84.6,-15,-25.3,20,0.711142308,-0.0359202857,-0.680837428,-0.17157506
453,1136961,1229090,1.204,0.603,-0.391,283.5,84.2,83.5,-15,-25.3,20,0.712912381,-0.0324411756,-0.680501724,-0.166112247
454,1139305,1229090,1.094,0.596,-0.35,278.8,86.5,82.1,-15.7,-24.8,18.7,0.714651936,-0.0290231025,-0.680104984,-0.160771508
455,1141355,1229090,1.122,0.623,-0.354,273.5,89,82.2,-15.7,-24.8,18.7,0.71642201,-0.025635548,-0.679586169,-0.155461287
456,1142711,1229090,1.317,0.657,-0.424,268,91.4,83.8,-15.7,-24.8,18.7,0.718222602,-0.022400586,-0.679006317,-0.150242622
457,1146915,1229100,1.235,0.634,-0.403,262.9,93.8,86.8,-15.7,-24.8,18.7,0.719992676,-0.0192571795,-0.67833491,-0.145023957
458,1149105,1229100,1.274,0.657,-0.38,259.2,98.1,91.7,-15.7,-23.5,19.4,0.721823786,-0.016235847,-0.677571947,-0.139774773
459,1151469,1229100,1.247,0.649,-0.372,257.7,105.4,98.8,-15.7,-23.5,19.4,0.723776971,-0.0133060701,-0.676656392,-0.134464553
460,1153715,1229100,1.27,0.653,-0.38,258.3,115.4,107.1,-15.7,-23.5,19.4,0.725852229,-0.0104678488,-0.675527207,-0.128971221
461,1155538,1229110,1.239,0.657,-0.348,260,127,115.5,-15.7,-23.5,19.4,0.728080081,-0.0077211829,-0.674214911,-0.123325297
462,1157824,1229110,1.137,0.646,-0.311,261.7,139.6,123.3,-16.9,-22,19.9,0.730491043,-0.00497451704,-0.672658467,-0.117557299
463,1160551,1229110,1.125,0.63,-0.3,262.8,152.1,129.8,-16.9,-22,19.9,0.733085116,-0.00231940672,-0.670888394,-0.111636708
464,1163257,1229110,1.008,0.603,-0.255,263.4,163.7,134.4,-16.9,-22,19.9,0.735801263,0.000305185095,-0.668874172,-0.105624561
465,1165485,1229120,1.039,0.611,-0.247,264.1,173.3,136.1,-16.9,-22,19.9,0.738608966,0.00296029542,-0.66667684,-0.0995818964
466,1167952,1229120,0.91,0.619,-0.151,265.7,180.3,134.3,-17.6,-20.6,20.2,0.741477706,0.00567644276,-0.664357433,-0.0935392315
467,1172023,1229120,1.035,0.645,-0.173,268.4,184.1,129.4,-17.6,-20.6,20.2,0.744376965,0.00851466414,-0.661915952,-0.0874965667
468,1172641,1229120,1.035,0.649,-0.169,272.2,185,122.4,-17.6,-20.6,20.2,0.747215186,0.0115054781,-0.659443953,-0.0815759758
469,1175287,1229130,0.949,0.653,-0.112,276.8,184.1,115.5,-17.6,-20.6,20.2,0.749961852,0.0147099216,-0.656941435,-0.075655385
470,1177903,1229130,0.847,0.696,-0.032,282.3,182.5,110.3,-18.9,-18.4,22.3,0.752647481,0.0180364391,-0.654438917,-0.0697347942
471,1180144,1229130,0.87,0.684,-0.017,288,180.6,107.1,-18.9,-18.4,22.3,0.755272073,0.0214850307,-0.651936399,-0.0638142033
472,1184637,1229130,0.886,0.715,-0.005,293,177.2,104.8,-18.9,-18.4,22.3,0.75777459,0.0250862148,-0.649403363,-0.0578325755
473,1187382,1229140,0.8,0.708,0.031,296.5,172.1,102.9,-18.9,-18.4,22.3,0.760155034,0.0287484359,-0.646992401,-0.0517899106
474,1187749,1229140,0.811,0.719,0.047,298.4,165.6,101.5,-18.8,-17.2,21.1,0.762382885,0.0324716941,-0.644642476,-0.0458082827
475,1191357,1229140,0.804,0.699,0.054,299,159,100.4,-18.8,-17.2,21.1,0.764488662,0.0361644337,-0.642353587,-0.0398266549
476,1193750,1229140,0.933,0.691,0.009,298.6,153,98.9,-18.8,-17.2,21.1,0.766472365,0.0399182104,-0.640125736,-0.0338755455
477,1195680,1229150,0.936,0.694,0.079,298.3,149,96.5,-18.8,-17.2,21.1,0.768333995,0.0436414686,-0.637897885,-0.0279549547
478,1197932,1229150,0.823,0.635,0.116,298.5,148.4,94.4,-19.9,-16.2,21,0.770165105,0.0473952452,-0.635670034,-0.0220648824
479,1200230,1229150,0.862,0.627,0.123,298.9,151.1,93.2,-19.9,-16.2,21,0.771965697,0.0512405774,-0.633350627,-0.0162053285
480,1204328,1229150,0.944,0.626,0.121,298.4,155.1,91.8,-19.9,-16.2,21,0.773796808,0.0550553911,-0.630939665,-0.0103762932
481,1206548,1229160,0.94,0.613,0.184,296.6,158.5,88.5,-19.9,-16.2,21,0.7755974,0.0588702048,-0.628406629,-0.00460829493
482,1209077,1229160,0.998,0.601,0.198,293.2,160.4,82.4,-20.2,-14,21.4,0.77742851,0.062715537,-0.625812555,0.00100711081
483,1210728,1229160,0.975,0.569,0.261,288.3,161.8,75.1,-20.2,-14,21.4,0.779198584,0.0665608692,-0.623157445,0.0064394055
484,1212620,1229160,0.783,0.475,0.392,281.8,163.2,68,-20.2,-14,21.4,0.780999176,0.0704062014,-0.620410779,0.0116580706
485,1215640,1229170,0.845,0.47,0.43,274,164.8,61.6,-20.2,-14,21.4,0.78276925,0.0741904965,-0.617603076,0.0166631062
486,1217887,1229170,0.927,0.476,0.484,265.1,165.5,55,-20.8,-12.6,21,0.784539323,0.0779442732,-0.614764855,0.0214545122
487,1221130,1229170,1.028,0.462,0.513,255.2,164.5,47.6,-20.8,-12.6,21,0.78624836,0.0815759758,-0.611896115,0.0259712516
488,1223221,1229170,0.864,0.329,0.62,244.8,162.9,41.1,-20.8,-12.6,21,0.787957396,0.0851466414,-0.609027375,0.0302133244
489,1225383,1229180,1.024,0.374,0.661,235.3,162.4,37.6,-20.8,-12.6,21,0.789635914,0.0885647145,-0.606128117,0.0343028047
490,1228594,1229180,1.039,0.373,0.7,229,163.8,37.4,-21.9,-11.6,21.9,0.791314432,0.091891232,-0.60319834,0.0383007294
491,1230074,1229180,0.922,0.33,0.799,226.8,167.6,39.5,-21.9,-11.6,21.9,0.793023469,0.0951567125,-0.600177007,0.0422681356
492,1233052,1229180,0.98,0.337,0.79,229.4,173.7,43.1,-21.9,-11.6,21.9,0.794763024,0.0983916746,-0.597033601,0.0464186529
493,1235309,1229190,0.926,0.353,0.807,236.6,182.4,47.7,-21.9,-11.6,21.9,0.796563616,0.101657155,-0.593737602,0.0507217627
494,1238233,1229190,0.773,0.351,0.841,248.6,193.2,53.2,-22.6,-10.9,20.6,0.798455763,0.105075228,-0.590197455,0.0552995392
495,1241473,1229190,0.789,0.437,0.854,265.9,205.5,59.2,-22.6,-10.9,20.6,0.80037843,0.108737449,-0.58641316,0.0602130192
496,1242847,1229190,0.761,0.5,0.863,288.6,218.9,66,-22.6,-10.9,20.6,0.802392651,0.1126133,-0.582354198,0.0655842769
497,1246147,1229200,0.73,0.559,0.888,316.5,232,73.5,-22.6,-10.9,20.6,0.804437391,0.116885891,-0.577990051,0.0714438307
498,1247594,1229200,0.71,0.754,0.941,349.1,243.7,82.1,-22.9,-9.3,20.4,0.806451613,0.12161626,-0.573351238,0.0779137547
499,1250593,1229200,0.522,0.877,0.997,384.7,252.5,91.9,-22.9,-9.3,20.4,0.808374279,0.126773888,-0.568468276,0.0850245674
500,1252849,1229200,0.487,1.039,0.992,421.9,257.1,102.4,-22.9,-9.3,20.4,0.810174871,0.13248085,-0.563402203,0.0927457503
501,1256002,1229210,0.49,1.195,1.009,458.3,256.4,113.2,-22.9,-9.3,20.4,0.811700797,0.138645589,-0.558244575,0.10113834
502,1259298,1229210,0.299,1.543,1.029,491.5,250.3,124,-23.9,-7.3,19.6,0.812952055,0.145298624,-0.553056429,0.110049745
503,1261571,1229210,0.193,1.697,1.028,518.8,240,134.5,-23.9,-7.3,19.6,0.813806574,0.152287362,-0.547929319,0.119449446
504,1263807,1229210,0.275,1.85,0.966,537.7,227.2,143.5,-23.9,-7.3,19.6,0.81429487,0.159489731,-0.542924284,0.129184851
505,1265264,1229220,0.064,2.116,0.914,546.1,214.2,149.6,-23.9,-7.3,19.6,0.814416944,0.166814173,-0.538041322,0.139042329
506,1268616,1229220,-0.138,2.198,0.876,541.7,202.2,151.1,-24.1,-4.7,18.7,0.81429487,0.17404706,-0.533310953,0.148808252
507,1270150,1229220,-0.294,2.306,0.853,523.7,192.2,146.1,-24.1,-4.7,18.7,0.814020203,0.18100528,-0.528702658,0.158207953
508,1274056,1229220,-0.173,2.33,0.722,491.6,182.4,134.2,-24.1,-4.7,18.7,0.813653981,0.187536241,-0.524277474,0.166997284
509,1276250,1229230,-0.27,2.246,0.667,445.4,169.7,116.2,-24.1,-4.7,18.7,0.813318278,0.19348735,-0.52006592,0.174840541
510,1278577,1229230,-0.27,2.246,0.667,445.4,169.7,116.2,-24.1,-4.7,18.7,0.813318278,0.19348735,-0.52006592,0.174840541
511,1280648,1229230,-0.332,2.012,0.584,317.7,135.3,74.5,-24.7,-2.8,18.5,0.8128605,0.20291757,-0.51289407,0.187047945
512,1282791,1229230,-0.179,1.729,0.534,242.5,114.8,55.5,-24.7,-2.8,18.5,0.812829981,0.206122013,-0.510116886,0.19122898
513,1286058,1229240,-0.065,1.567,0.523,165.3,92,38.3,-24.7,-2.8,18.5,0.812921537,0.20822779,-0.507950072,0.194158757
514,1288047,1229240,0.016,1.397,0.527,90.7,68.4,22.8,-25.2,-1.6,17.8,0.813165685,0.209326456,-0.506454665,0.195898312
515,1290405,1229240,0.106,1.203,0.527,21.5,46.6,10,-25.2,-1.6,17.8,0.813562426,0.209387494,-0.505600146,0.196508683
516,1293650,1229240,0.246,1,0.596,-40.1,29.2,0.4,-25.2,-1.6,17.8,0.814050722,0.208532975,-0.505233924,0.196234016
517,1295712,1229250,0.305,0.905,0.633,-94.1,17,-5.3,-25.2,-1.6,17.8,0.81469161,0.206854457,-0.50532548,0.195165868
518,1297919,1229250,0.305,0.81,0.679,-142.1,9,-7.4,-24.9,-1.9,17.5,0.815454573,0.204382458,-0.505722221,0.193517869
519,1301084,1229250,0.266,0.653,0.744,-186.8,2.9,-5.7,-24.9,-1.9,17.5,0.81633961,0.201116977,-0.506424146,0.191351054
520,1302533,1229250,0.254,0.59,0.748,-230.6,-4.3,-0.4,-24.9,-1.9,17.5,0.817285684,0.197027497,-0.507461776,0.1887875
521,1305578,1229260,0.254,0.527,0.751,-273.5,-15.5,6.5,-24.9,-1.9,17.5,0.818262276,0.192114017,-0.508896146,0.185766167
522,1307902,1229260,0.219,0.441,0.735,-312.6,-32.3,12.9,-25.1,-2.5,18,0.819147313,0.18652913,-0.510757775,0.182409131
523,1310348,1229260,0.247,0.32,0.682,-344.4,-54.3,16.4,-25.1,-2.5,18,0.819849239,0.18039491,-0.513168737,0.178655354
524,1312551,1229260,0.29,0.257,0.649,-365.1,-79.4,15.9,-25.1,-2.5,18,0.820307016,0.173986023,-0.516067995,0.174504837
525,1316154,1229270,0.325,0.202,0.628,-372.7,-104,11,-25.1,-2.5,18,0.820490127,0.167577136,-0.519363994,0.170110172
526,1317523,1229270,0.392,0.163,0.607,-367.3,-123.8,1.8,-24.9,-3.2,18.4,0.820398572,0.161442915,-0.52293466,0.165532395
527,1320525,1229270,0.536,0.18,0.62,-350.5,-135.6,-10.6,-24.9,-3.2,18.4,0.820093387,0.155766472,-0.526566362,0.160863063
528,1323768,1229270,0.61,0.183,0.627,-325.5,-138.2,-24.2,-24.9,-3.2,18.4,0.819666128,0.1507004,-0.530075991,0.15622425
529,1326032,1229280,0.665,0.198,0.614,-296.1,-132.3,-36.5,-24.9,-3.2,18.4,0.81920835,0.146275216,-0.533341472,0.151676992
530,1328098,1229280,0.708,0.229,0.598,-266.5,-120,-45.4,-24.5,-4.7,19,0.818781091,0.142429884,-0.536210211,0.147404401
531,1330336,1229280,0.692,0.261,0.575,-239.2,-103.6,-50.6,-24.5,-4.7,19,0.818475906,0.139103366,-0.538651692,0.143375958
532,1333589,1229280,0.677,0.293,0.553,-214.9,-85,-53.8,-24.5,-4.7,19,0.818292795,0.136143071,-0.540665914,0.139622181
533,1336457,1229290,0.661,0.322,0.518,-193.2,-65.9,-56.8,-24.5,-4.7,19,0.818231758,0.133579516,-0.542252876,0.136112552
534,1337805,1229290,0.63,0.366,0.445,-173.7,-47.3,-61.3,-24.2,-5.1,18.6,0.818353832,0.131321146,-0.543443098,0.132847072
535,1341088,1229290,0.603,0.383,0.406,-156.7,-29.9,-67.6,-24.2,-5.1,18.6,0.818659017,0.129428999,-0.544236579,0.129673147
536,1343195,1229290,0.564,0.384,0.376,-142.6,-14.4,-76,-24.2,-5.1,18.6,0.819086276,0.127811518,-0.544694357,0.126590777
537,1346346,1229300,0.533,0.369,0.325,-131.5,-1.5,-86,-24.2,-5.1,18.6,0.819666128,0.126499222,-0.544816431,0.123477889
538,1347676,1229300,0.506,0.354,0.294,-123.1,7.9,-96.8,-24.1,-5.8,19.1,0.820368053,0.125431074,-0.544755394,0.120303964
539,1350775,1229300,0.495,0.331,0.255,-116.6,13.4,-107.2,-24.1,-5.8,19.1,0.821131016,0.124576556,-0.544511246,0.117038484
540,1352937,1229300,0.502,0.343,0.239,-110.9,14.4,-116.8,-24.1,-5.8,19.1,0.821893979,0.123935667,-0.544206061,0.113650929
541,1357248,1229310,0.534,0.402,0.255,-105.3,11.2,-124.8,-24.1,-5.8,19.1,0.822595904,0.123508408,-0.543931394,0.110202338
542,1359769,1229310,0.573,0.421,0.262,-99.7,5.3,-131.4,-24.4,-6.8,19.2,0.823267312,0.12326426,-0.543717765,0.106662191
543,1360264,1229310,0.596,0.452,0.27,-95.3,-2,-136.7,-24.4,-6.8,19.2,0.823786126,0.123142186,-0.543626209,0.103091525
544,1363797,1229310,0.627,0.486,0.298,-93.4,-9.4,-141.4,-24.4,-6.8,19.2,0.824243904,0.123142186,-0.543595691,0.0993987854
545,1365354,1229320,0.65,0.49,0.297,-94.6,-16.1,-146,-24.4,-6.8,19.2,0.824610126,0.12326426,-0.543717765,0.0956144902
546,1369107,1229320,0.674,0.493,0.312,-98.9,-22.4,-150.8,-24.4,-7.8,19.2,0.82494583,0.123294778,-0.543900876,0.091647084
547,1371602,1229320,0.685,0.493,0.32,-105.6,-28.7,-155.7,-24.4,-7.8,19.2,0.825189978,0.123294778,-0.544206061,0.0874965667
548,1373795,1229320,0.728,0.5,0.343,-114,-35.9,-159.8,-24.4,-7.8,19.2,0.82534257,0.123233741,-0.54463332,0.0831934568
549,1375763,1229330,0.756,0.507,0.362,-123.3,-44.2,-163.1,-24.4,-7.8,19.2,0.825434126,0.123020112,-0.545213172,0.0786767174
550,1377950,1229330,0.791,0.514,0.373,-132.9,-54,-164.7,-24.2,-9.4,18.8,0.825434126,0.12265389,-0.545976135,0.073976867
551,1382081,1229330,0.888,0.493,0.391,-142.8,-64.9,-164.8,-24.2,-9.4,18.8,0.825312052,0.122165593,-0.546922208,0.069124424
552,1384231,1229330,0.955,0.492,0.394,-152.7,-76.4,-163.3,-24.2,-9.4,18.8,0.825037385,0.121494186,-0.548081912,0.0641804254
553,1386577,1229340,0.955,0.52,0.41,-162.2,-87.5,-160.2,-24.2,-9.4,18.8,0.824640645,0.120609149,-0.549455245,0.0591143529
554,1388819,1229340,0.986,0.531,0.429,-170.7,-97.6,-155.9,-24.4,-10.6,19.5,0.824091311,0.119510483,-0.551011689,0.0539872433
555,1390807,1229340,1.107,0.533,0.427,-178.6,-106,-151.2,-24.4,-10.6,19.5,0.823450423,0.118259224,-0.552720725,0.0488601337
556,1393091,1229340,1.154,0.537,0.422,-186.1,-112.6,-146.5,-24.4,-10.6,19.5,0.822717978,0.116794336,-0.554551836,0.0436719871
557,1395325,1229350,1.177,0.552,0.422,-193.6,-117.1,-142.3,-24.4,-10.6,19.5,0.821924497,0.115146336,-0.556474502,0.0384838404
558,1397938,1229350,1.236,0.548,0.405,-200.9,-119.3,-138.5,-23.8,-12.2,19.4,0.821069979,0.113315226,-0.558427686,0.0332346568
559,1401439,1229350,1.248,0.548,0.385,-208,-119.3,-135.3,-23.8,-12.2,19.4,0.820215461,0.111331523,-0.560380871,0.0280159917
560,1403866,1229350,1.275,0.556,0.369,-215,-117.6,-133.2,-23.8,-12.2,19.4,0.819360942,0.109195227,-0.562273019,0.0227057711
561,1405671,1229360,1.295,0.556,0.341,-222.1,-115,-132.2,-23.8,-12.2,19.4,0.818536943,0.10687582,-0.564134648,0.0173345134
562,1407999,1229360,1.311,0.545,0.286,-229.4,-111.8,-132.4,-23.6,-13,19.8,0.817712943,0.104464858,-0.565874203,0.0119022187
563,1410268,1229360,1.315,0.545,0.263,-236.5,-108.1,-133.5,-23.6,-13,19.8,0.81694998,0.101931822,-0.567552721,0.00634784997
564,1412753,1229360,1.311,0.522,0.235,-242.8,-104,-134.8,-23.6,-13,19.8,0.816187017,0.0992767113,-0.569139683,0.000701925718
565,1415055,1229370,1.291,0.495,0.184,-247.9,-99.3,-135.6,-23.6,-13,19.8,0.815485092,0.0965300455,-0.570604572,-0.00497451704
566,1419514,1229370,1.292,0.476,0.156,-251.6,-94.3,-135.7,-22.9,-14.8,19.9,0.814813684,0.0937528611,-0.571947386,-0.0107119968
567,1421732,1229370,1.272,0.445,0.133,-254.2,-89.7,-135.1,-22.9,-14.8,19.9,0.814172796,0.0908841212,-0.573198645,-0.0164799951
568,1423902,1229370,1.264,0.418,0.125,-255.5,-85.9,-133.9,-22.9,-14.8,19.9,0.813531907,0.0879848628,-0.574358348,-0.0222174749
569,1425343,1229380,1.241,0.387,0.121,-255.9,-82.9,-131.8,-22.9,-14.8,19.9,0.812891018,0.0850550859,-0.575457015,-0.0279244362
570,1428854,1229380,1.218,0.364,0.117,-255.2,-80.2,-129,-22.1,-15.9,19,0.812280648,0.0820947905,-0.576464125,-0.0335703604
571,1431169,1229380,1.194,0.337,0.113,-254,-77.9,-125.4,-22.1,-15.9,19,0.81163976,0.0791039766,-0.577410199,-0.0390942106
572,1433250,1229380,1.14,0.302,0.11,-253,-75.6,-121.1,-22.1,-15.9,19,0.810998871,0.0760826441,-0.578325755,-0.0445875423
573,1435079,1229390,1.112,0.275,0.122,-252.5,-73.4,-116,-22.1,-15.9,19,0.810357982,0.0730002747,-0.579180273,-0.0499588
574,1439106,1229390,1.085,0.251,0.126,-252.4,-71.5,-110.3,-22.3,-17,19.2,0.809717093,0.0698568682,-0.579973754,-0.0552079836
575,1441300,1229390,1.073,0.228,0.122,-252.5,-69.9,-104.1,-22.3,-17,19.2,0.809076205,0.0666219062,-0.580736717,-0.0603350932
576,1443181,1229390,1.015,0.186,0.13,-252.2,-69.1,-97.6,-22.3,-17,19.2,0.808435316,0.0633259072,-0.581469161,-0.0653706473
577,1445554,1229400,1.003,0.166,0.134,-250.9,-69,-91.1,-22.3,-17,19.2,0.807763909,0.0599688711,-0.582201605,-0.0702536088
578,1447722,1229400,0.98,0.143,0.134,-248,-69.3,-84.8,-21.8,-18.1,18.9,0.807061983,0.0565507981,-0.582903531,-0.0749839778
579,1450681,1229400,0.956,0.127,0.146,-243.4,-69.4,-79,-21.8,-18.1,18.9,0.806329539,0.0531632435,-0.583635975,-0.0795617542
580,1453133,1229400,0.929,0.111,0.17,-237.3,-68.8,-74.3,-21.8,-18.1,18.9,0.805597095,0.0498062075,-0.584337901,-0.0839564196
581,1455354,1229410,0.913,0.104,0.186,-230,-67.3,-71,-21.8,-18.1,18.9,0.804834132,0.046540727,-0.585009308,-0.0882290109
582,1457824,1229410,0.905,0.103,0.206,-221.7,-64.8,-68.7,-21.6,-19.4,18.5,0.804101688,0.0433973205,-0.585650197,-0.0923184912
583,1461385,1229410,0.87,0.127,0.25,-212.7,-61.7,-67.1,-21.6,-19.4,18.5,0.803369243,0.0404065065,-0.586230049,-0.0962858974
584,1463814,1229410,0.842,0.139,0.258,-203.5,-58.3,-65.7,-21.6,-19.4,18.5,0.802636799,0.0375682852,-0.586748863,-0.100070193
585,1465580,1229420,0.819,0.151,0.27,-194.7,-55.1,-63.8,-21.6,-19.4,18.5,0.801965392,0.0348521378,-0.587237159,-0.103732414
586,1467983,1229420,0.799,0.155,0.275,-187.3,-52.7,-61.2,-21.2,-20.4,18.7,0.801263466,0.032227546,-0.587694937,-0.107242042
587,1470176,1229420,0.772,0.163,0.268,-181.4,-51.6,-57.9,-21.2,-20.4,18.7,0.800592059,0.0296639912,-0.588122196,-0.110629597
588,1472712,1229420,0.764,0.163,0.26,-177.4,-52,-54.4,-21.2,-20.4,18.7,0.799890133,0.0271614734,-0.588549455,-0.113864559
589,1475025,1229430,0.752,0.179,0.252,-174.1,-53.4,-51.5,-21.2,-20.4,18.7,0.799188208,0.0246284371,-0.589007233,-0.117038484
590,1479449,1229430,0.772,0.191,0.209,-170.7,-55.3,-49.3,-20.8,-21.6,16.4,0.798425245,0.0221564379,-0.589526048,-0.120151372
591,1481676,1229430,0.792,0.215,0.193,-166.2,-57,-48.3,-20.8,-21.6,16.4,0.797631764,0.0197454756,-0.590044862,-0.123142186
592,1483892,1229430,0.788,0.211,0.17,-160.5,-57.9,-48.7,-20.8,-21.6,16.4,0.796838282,0.0173955504,-0.590594195,-0.126071963
593,1486115,1229440,0.804,0.235,0.15,-153.6,-57.4,-50.1,-20.8,-21.6,16.4,0.796014283,0.0152287362,-0.591143529,-0.128971221
594,1488233,1229440,0.8,0.243,0.131,-145.7,-55.4,-52.4,-20,-22,17.6,0.795190283,0.0132145146,-0.591692862,-0.131778924
595,1490499,1229440,0.819,0.259,0.131,-137.3,-52.5,-55.1,-20,-22,17.6,0.794396802,0.011383404,-0.592181158,-0.134495071
596,1492737,1229440,0.827,0.286,0.123,-128.8,-49.8,-58.3,-20,-22,17.6,0.79360332,0.00976592303,-0.592638936,-0.137211219
597,1495155,1229450,0.855,0.314,0.092,-121.3,-48,-62.3,-20,-22,17.6,0.792809839,0.00833155309,-0.593096713,-0.139866329
598,1497504,1229450,0.894,0.341,0.064,-115.5,-47.7,-67.1,-20.1,-22.7,17.4,0.792016358,0.00704977569,-0.593554491,-0.142521439
599,1501954,1229450,0.925,0.368,0.04,-111.8,-48.8,-72,-20.1,-22.7,17.4,0.79116184,0.00589007233,-0.594042787,-0.145207068
600,1504185,1229450,0.937,0.384,0.032,-110.2,-51.1,-76.7,-20.1,-22.7,17.4,0.790276803,0.0048219245,-0.594561602,-0.147984252
601,1506238,1229460,0.968,0.407,0.024,-110.9,-54,-80.5,-20.1,-22.7,17.4,0.789330729,0.00378429518,-0.595110935,-0.150822474
602,1508700,1229460,1.007,0.427,0.02,-113.7,-57,-83.1,-19.6,-23.6,17.3,0.7882931,0.00271614734,-0.595721305,-0.153721732
603,1510706,1229460,1.011,0.431,0.016,-118.4,-60,-84.2,-19.6,-23.6,17.3,0.78725547,0.00158696249,-0.596362194,-0.156712546
604,1512807,1229460,1.015,0.418,0.035,-124.7,-62.7,-84,-19.6,-23.6,17.3,0.786126286,0.000305185095,-0.597003082,-0.159794916
605,1516670,1229470,1.007,0.403,0.043,-132.4,-65,-82.8,-19.6,-23.6,17.3,0.784997101,-0.00106814783,-0.597643971,-0.162938322
606,1518172,1229470,0.991,0.379,0.051,-140.8,-66.7,-80.9,-19.1,-23.9,17.3,0.783837397,-0.00265511032,-0.59828486,-0.166142766
607,1520350,1229470,0.987,0.371,0.071,-149.1,-68.3,-78.7,-19.1,-23.9,17.3,0.782647176,-0.00442518387,-0.598925748,-0.169438765
608,1523420,1229470,0.976,0.348,0.078,-156.1,-69.6,-76.5,-19.1,-23.9,17.3,0.781426435,-0.00637836848,-0.599536119,-0.172765282
609,1524964,1229480,0.968,0.34,0.094,-161.3,-70.8,-74.5,-19.1,-23.9,17.3,0.780175176,-0.00839259011,-0.600146489,-0.176152837
610,1528009,1229480,0.987,0.339,0.098,-164.5,-71.4,-72.7,-19.1,-25.1,14.8,0.778923917,-0.0105288858,-0.600726341,-0.179540391
611,1530316,1229480,0.987,0.316,0.109,-165.9,-71,-70.9,-19.1,-25.1,14.8,0.777672658,-0.0126956999,-0.601306192,-0.182897427
612,1532448,1229480,0.96,0.312,0.113,-166,-69.2,-68.8,-19.1,-25.1,14.8,0.776451918,-0.0148930326,-0.601825007,-0.186223945
613,1535513,1229490,0.952,0.312,0.121,-165.3,-66.4,-66.2,-19.1,-25.1,14.8,0.775231178,-0.0170903653,-0.602282785,-0.189489425
614,1537967,1229490,0.964,0.308,0.121,-164.5,-62.8,-63.6,-18.2,-25.7,16.5,0.774101993,-0.019287698,-0.602679525,-0.192693869
615,1541268,1229490,0.979,0.316,0.117,-164,-59.5,-61.6,-18.2,-25.7,16.5,0.772972808,-0.0214850307,-0.603015229,-0.195867794
616,1542749,1229490,0.987,0.316,0.121,-164.3,-57.3,-60.2,-18.2,-25.7,16.5,0.771874142,-0.0237434004,-0.603320414,-0.1990112
617,1546959,1229500,0.987,0.319,0.129,-165.4,-56.7,-59.3,-18.2,-25.7,16.5,0.770775475,-0.0259712516,-0.603564562,-0.202154607
618,1549049,1229500,0.96,0.316,0.129,-169.2,-58.8,-57.3,-18,-25.9,16.3,0.769554735,-0.0283211768,-0.603991821,-0.205298013
619,1551282,1229500,0.976,0.316,0.129,-169.2,-58.8,-57.3,-18,-25.9,16.3,0.768395032,-0.0306405835,-0.604235969,-0.208471938
620,1553381,1229500,0.983,0.312,0.121,-171.5,-61.1,-56.7,-18,-25.9,16.3,0.76720481,-0.0330820643,-0.604541154,-0.211645863
621,1556375,1229510,0.983,0.304,0.117,-173.6,-63.8,-56.9,-18,-25.9,16.3,0.765984069,-0.035523545,-0.604815821,-0.214819788
622,1557911,1229510,1.015,0.3,0.089,-175.3,-66.5,-57.8,-18,-27.2,15.9,0.764671773,-0.0379955443,-0.605151524,-0.21805475
623,1560054,1229510,1.038,0.296,0.069,-176.4,-68.5,-58.9,-18,-27.2,15.9,0.763328959,-0.0404980621,-0.605517747,-0.221320231
624,1562521,1229510,1.042,0.288,0.057,-176.7,-69.2,-59.9,-18,-27.2,15.9,0.761986145,-0.0429700613,-0.60585345,-0.224585711
625,1565990,1229520,1.046,0.292,0.045,-176.2,-68.7,-60.4,-18,-27.2,15.9,0.760582293,-0.0454420606,-0.606189154,-0.227851192
626,1567527,1229520,1.058,0.281,0.021,-174.7,-67,-60.4,-17.2,-27.8,15.6,0.759239479,-0.0478835414,-0.606494339,-0.231086154
627,1570609,1229520,1.062,0.269,0.021,-172.5,-64.2,-60,-17.2,-27.8,15.6,0.757896664,-0.0502639851,-0.606738487,-0.234290597
628,1572477,1229520,1.054,0.261,0.021,-169.6,-61,-59.6,-17.2,-27.8,15.6,0.756584368,-0.0525833918,-0.606952116,-0.237464522
629,1576736,1229530,1.042,0.242,0.025,-166.4,-57.8,-59.4,-17.2,-27.8,15.6,0.755302591,-0.0548417615,-0.607104709,-0.24057741
630,1578687,1229530,1.023,0.238,0.025,-163.4,-54.9,-59.8,-16.7,-28.4,12.2,0.754081851,-0.0570390942,-0.607196265,-0.24365978
631,1579974,1229530,1.015,0.222,0.029,-160.8,-52.9,-60.9,-16.7,-28.4,12.2,0.752830592,-0.0591143529,-0.60728782,-0.246742149
632,1582900,1229530,1.019,0.214,0.029,-159.1,-52.1,-62.7,-16.7,-28.4,12.2,0.751609851,-0.06122013,-0.607379376,-0.249794
633,1586799,1229540,1.015,0.191,0.021,-158.2,-53,-65,-16.7,-28.4,12.2,0.750328074,-0.0632343516,-0.607470931,-0.252906888
634,1588145,1229540,1.023,0.187,0.021,-158.1,-55.3,-67.7,-16.1,-29.1,14.1,0.74898526,-0.0652485733,-0.607593005,-0.256019776
635,1591258,1229540,1.039,0.175,0.009,-158.4,-58.3,-70.3,-16.1,-29.1,14.1,0.747581408,-0.0672322764,-0.607745598,-0.259193701
636,1592775,1229540,1.062,0.155,0.008,-158.8,-61.4,-72.4,-16.1,-29.1,14.1,0.74611652,-0.069185461,-0.607959227,-0.262367626
637,1595071,1229550,1.082,0.155,0.004,-158.9,-64.1,-73.9,-16.1,-29.1,14.1,0.744621113,-0.0711691641,-0.608203375,-0.265602588
638,1598012,1229550,1.105,0.147,-0.004,-157.9,-66.9,-73.8,-16.1,-29.8,13.3,0.742362743,-0.0735496078,-0.609454634,-0.268318735
639,1601518,1229550,1.105,0.147,-0.004,-157.9,-66.9,-73.8,-16.1,-29.8,13.3,0.740806299,-0.0755027924,-0.609729301,-0.27149266
640,1603012,1229550,1.148,0.147,-0.02,-157.1,-67.6,-72.8,-16.1,-29.8,13.3,0.739188818,-0.0774864956,-0.610003967,-0.274636067
641,1605224,1229560,1.176,0.147,-0.028,-156.3,-68.1,-71.5,-16.1,-29.8,13.3,0.737601856,-0.0794701987,-0.610278634,-0.277779473
642,1608239,1229560,1.183,0.139,-0.029,-155.6,-68.3,-69.9,-15.3,-30,12.9,0.735984375,-0.0814539018,-0.610553301,-0.280831324
643,1610493,1229560,1.215,0.143,-0.045,-154.5,-67.9,-67.5,-15.3,-30,12.9,0.734397412,-0.0834376049,-0.610797449,-0.283852657
644,1612741,1229560,1.215,0.15,-0.045,-152.6,-66.4,-64.5,-15.3,-30,12.9,0.73281045,-0.0854518265,-0.611041597,-0.286812952
645,1616272,1229570,1.226,0.142,-0.049,-150,-64.2,-60.9,-15.3,-30,12.9,0.731284524,-0.0874355296,-0.611224708,-0.289651173
646,1618092,1229570,1.234,0.146,-0.053,-146.5,-61.1,-57.2,-15.5,-31,12.4,0.729819636,-0.0893887143,-0.6113773,-0.292397839
647,1621061,1229570,1.156,0.159,-0.04,-142.7,-57.6,-53.7,-15.5,-31,12.4,0.728446303,-0.0913113804,-0.611499374,-0.29505295
648,1622480,1229570,1.148,0.163,-0.04,-138.7,-54,-50.7,-15.5,-31,12.4,0.727103488,-0.0932035279,-0.611560411,-0.297616504
649,1625466,1229580,1.148,0.163,-0.036,-135.2,-51.1,-48.6,-15.5,-31,12.4,0.725821711,-0.0950346385,-0.61159093,-0.300088504
650,1628793,1229580,1.14,0.163,-0.028,-132.1,-49.6,-47.3,-14.4,-31.4,9.6,0.724570452,-0.0967741935,-0.611621448,-0.302468947
651,1630627,1229580,1.136,0.159,-0.016,-129.9,-49.3,-46.5,-14.4,-31.4,9.6,0.723349712,-0.0985747856,-0.611621448,-0.304849391
652,1633096,1229580,1.133,0.167,-0.008,-128.2,-49.6,-46,-14.4,-31.4,9.6,0.722098453,-0.100314341,-0.611651967,-0.307168798
653,1635437,1229590,1.132,0.163,-0.004,-126.8,-49.8,-45.5,-14.4,-31.4,9.6,0.720847194,-0.102023377,-0.611682485,-0.309488205
654,1637594,1229590,1.125,0.162,0.007,-125.2,-49.5,-45,-14,-31.6,11.1,0.719595935,-0.103732414,-0.611713004,-0.311746574
655,1640422,1229590,1.117,0.158,0.019,-123.9,-49.1,-44.4,-14,-31.6,11.1,0.718344676,-0.105410932,-0.611743522,-0.313974425
656,1643992,1229590,1.105,0.163,0.015,-122.6,-48.5,-44,-14,-31.6,11.1,0.717123936,-0.10708945,-0.611743522,-0.316202277
657,1645556,1229600,1.093,0.155,0.027,-121.5,-47.9,-43.7,-14,-31.6,11.1,0.715872677,-0.108737449,-0.611774041,-0.318399609
658,1648789,1229600,1.082,0.159,0.031,-119.7,-46.7,-43.1,-13.5,-32.2,11,0.714682455,-0.11035493,-0.611774041,-0.320535905
659,1650291,1229600,1.07,0.151,0.031,-119.7,-46.7,-43.1,-13.5,-32.2,11,0.713461715,-0.111972411,-0.611774041,-0.322702719
660,1652993,1229600,1.062,0.143,0.035,-119.1,-46.2,-42.9,-13.5,-32.2,11,0.712240974,-0.113589892,-0.611743522,-0.324839015
661,1656140,1229610,1.046,0.14,0.031,-118.5,-45.6,-42.8,-13.5,-32.2,11,0.711020234,-0.115176855,-0.611713004,-0.326975311
662,1657602,1229610,1.046,0.14,0.031,-118.1,-45.1,-42.8,-13.8,-32.4,10.4,0.709830012,-0.116763817,-0.611682485,-0.329111606
663,1660599,1229610,1.039,0.136,0.032,-118,-44.7,-42.5,-13.8,-32.4,10.4,0.708609272,-0.118320261,-0.611621448,-0.331217383
664,1663572,1229610,1.031,0.124,0.032,-118,-44.5,-42.1,-13.8,-32.4,10.4,0.70741905,-0.119907224,-0.611560411,-0.333353679
665,1665067,1229620,1.023,0.12,0.036,-118.1,-44.5,-41.5,-13.8,-32.4,10.4,0.706198309,-0.121494186,-0.611499374,-0.335428938
666,1668591,1229620,1.019,0.116,0.032,-118.1,-44.4,-41,-13.1,-33,9.9,0.704977569,-0.123111667,-0.611438337,-0.337534715
667,1670584,1229620,1.011,0.113,0.028,-118.1,-44.4,-40.6,-13.1,-33,9.9,0.703787347,-0.12469863,-0.611346782,-0.339609973
668,1672674,1229620,1.015,0.12,0.036,-118.2,-44.5,-40.2,-13.1,-33,9.9,0.702566607,-0.126316111,-0.611285745,-0.341685232
669,1676375,1229630,1.023,0.112,0.035,-118.3,-44.5,-39.8,-13.1,-33,9.9,0.701345866,-0.127933592,-0.611194189,-0.343760491
670,1677950,1229630,1.023,0.108,0.035,-118.3,-44.5,-39.4,-12.9,-33.7,7.3,0.700125126,-0.129551073,-0.611072115,-0.345805231
671,1680360,1229630,1.027,0.104,0.035,-118.1,-44.6,-39.1,-12.9,-33.7,7.3,0.698904386,-0.131168554,-0.61098056,-0.347849971
672,1683950,1229630,1.023,0.101,0.031,-117.8,-44.7,-38.5,-12.9,-33.7,7.3,0.697653127,-0.132786035,-0.610889004,-0.349864193
673,1685337,1229640,1.039,0.104,0.035,-117.1,-44.9,-37.6,-12.9,-33.7,7.3,0.696432386,-0.134403516,-0.61076693,-0.351878414
674,1688316,1229640,1.046,0.096,0.031,-115.8,-45.1,-36.5,-12.8,-33.8,9.5,0.695211646,-0.136020997,-0.610675375,-0.353831599
675,1689974,1229640,1.05,0.1,0.035,-114.2,-45.3,-35,-12.8,-33.8,9.5,0.693990905,-0.137638478,-0.610583819,-0.355754265
676,1692830,1229640,1.066,0.104,0.042,-112.2,-45.5,-33.3,-12.8,-33.8,9.5,0.692800684,-0.139255959,-0.610492264,-0.357615894
677,1696671,1229650,1.078,0.108,0.042,-110,-45.7,-31.2,-12.8,-33.8,9.5,0.691610462,-0.140842921,-0.610431227,-0.359416486
678,1698093,1229650,1.089,0.111,0.058,-105.7,-46,-27.8,-12.7,-34.1,8,0.690237129,-0.143040254,-0.61076693,-0.360576189
679,1701312,1229650,1.093,0.123,0.066,-105.7,-46,-27.8,-12.7,-34.1,8,0.689077425,-0.144627216,-0.610705893,-0.362254707
680,1703422,1229650,1.097,0.126,0.073,-103.9,-45.8,-27.1,-12.7,-34.1,8,0.687917722,-0.14618366,-0.610644856,-0.363902707
681,1706515,1229660,1.093,0.126,0.077,-102.6,-45.2,-26.6,-12.7,-34.1,8,0.686788537,-0.147679067,-0.610614338,-0.365520188
682,1708855,1229660,1.089,0.134,0.085,-101.8,-44.3,-26.5,-12.2,-34.6,8,0.685659352,-0.149235511,-0.610553301,-0.367137669
683,1710994,1229660,1.093,0.13,0.085,-101.5,-43.3,-26.6,-12.2,-34.6,8,0.684530168,-0.150761437,-0.610461745,-0.36875515
684,1713096,1229660,1.089,0.13,0.089,-101.3,-42.4,-26.9,-12.2,-34.6,8,0.683400983,-0.152256844,-0.610339671,-0.370342112
685,1715546,1229670,1.085,0.126,0.097,-101.1,-41.8,-27.1,-12.2,-34.6,8,0.682302316,-0.153752251,-0.610278634,-0.371959593
686,1717583,1229670,1.073,0.138,0.097,-100.7,-41.3,-26.8,-12.2,-34.6,6.9,0.681173132,-0.155217139,-0.61015656,-0.373577074
687,1720735,1229670,1.07,0.138,0.098,-100,-40.8,-26,-12.2,-34.6,6.9,0.680104984,-0.156682028,-0.610034486,-0.375133518
688,1722925,1229670,1.07,0.138,0.098,-99,-40.6,-25.2,-12.2,-34.6,6.9,0.679006317,-0.158146916,-0.609912412,-0.376689962
689,1725284,1229680,1.062,0.139,0.086,-98,-40.4,-24.5,-12.2,-34.6,6.9,0.677907651,-0.159611805,-0.609790338,-0.378215888
690,1727620,1229680,1.058,0.143,0.082,-97.1,-40.1,-24.1,-11.4,-34.9,5.9,0.676839503,-0.161046175,-0.609668264,-0.379741813
691,1732085,1229680,1.054,0.147,0.078,-96.2,-39.7,-23.9,-11.4,-34.9,5.9,0.675771355,-0.162480544,-0.609515671,-0.38123722
692,1734319,1229680,1.046,0.139,0.071,-95.4,-38.9,-23.8,-11.4,-34.9,5.9,0.674733726,-0.163914914,-0.609393597,-0.382702109
693,1736672,1229690,1.042,0.143,0.051,-94.3,-37.8,-23.7,-11.4,-34.9,5.9,0.673696097,-0.165257729,-0.609241005,-0.384166997
694,1738333,1229690,1.046,0.135,0.039,-93.2,-36.4,-23.9,-10.9,-35.3,6.6,0.672658467,-0.16666158,-0.609088412,-0.385631886
695,1740735,1229690,1.035,0.136,0.036,-92.5,-35.3,-24.2,-10.9,-35.3,6.6,0.671651357,-0.167973876,-0.608905301,-0.387096774
696,1742919,1229690,1.043,0.128,0.031,-92,-34.5,-24.7,-10.9,-35.3,6.6,0.670644246,-0.169286172,-0.60872219,-0.388561663
697,1746202,1229700,1.046,0.116,0.023,-91.7,-33.8,-25.6,-10.9,-35.3,6.6,0.669637135,-0.170567949,-0.608539079,-0.390026551
698,1748199,1229700,1.043,0.1,0.019,-91.2,-32.1,-28.1,-10.8,-34.9,6.3,0.668324839,-0.17261269,-0.608905301,-0.390758995
699,1751519,1229700,1.043,0.1,0.019,-91.2,-32.1,-28.1,-10.8,-34.9,6.3,0.667317728,-0.173863948,-0.60872219,-0.392254402
700,1753861,1229700,1.043,0.085,0.007,-91,-31.2,-29.2,-10.8,-34.9,6.3,0.666310617,-0.175023652,-0.60850856,-0.393780328
701,1756517,1229710,1.043,0.077,0.011,-91,-30.2,-30.2,-10.8,-34.9,6.3,0.665303507,-0.176244392,-0.608264412,-0.395306253
702,1759458,1229710,1.043,0.061,0.011,-91.3,-29.4,-31,-10.8,-35.4,5.5,0.664296396,-0.177404096,-0.608020264,-0.396862697
703,1761721,1229710,1.047,0.042,0.011,-92,-28.7,-31.6,-10.8,-35.4,5.5,0.663258766,-0.178563799,-0.607776116,-0.398419141
704,1763730,1229710,1.043,0.03,0.018,-92.9,-28,-32.1,-10.8,-35.4,5.5,0.662251656,-0.179723502,-0.60750145,-0.400006104
705,1765654,1229720,1.043,0.018,0.018,-94,-27.4,-32.4,-10.8,-35.4,5.5,0.661244545,-0.180883206,-0.607196265,-0.401623585
706,1767909,1229720,1.035,0.01,0.034,-94.9,-26.9,-32.5,-10.2,-35.1,5.3,0.660206915,-0.182073428,-0.606860561,-0.403241066
707,1771590,1229720,1.058,-0.009,0.029,-95.7,-26.6,-32.6,-10.2,-35.1,5.3,0.659199805,-0.183263649,-0.606555376,-0.404889065
708,1773177,1229720,1.058,-0.005,0.037,-96.2,-26.4,-32.6,-10.2,-35.1,5.3,0.658162175,-0.184423353,-0.606189154,-0.406506546
709,1775592,1229730,1.058,-0.017,0.045,-96.3,-26.3,-32.4,-10.2,-35.1,5.3,0.657155065,-0.185613575,-0.60585345,-0.408154546
710,1777790,1229730,1.058,-0.025,0.064,-96,-26.3,-32,-10.4,-36,4.1,0.656117435,-0.186803797,-0.605517747,-0.409772027
711,1780381,1229730,1.054,-0.017,0.069,-95.1,-26,-31.2,-10.4,-36,4.1,0.655110324,-0.187994018,-0.605151524,-0.411358989
712,1782552,1229730,1.054,-0.013,0.072,-93.7,-25.5,-30.1,-10.4,-36,4.1,0.654103214,-0.189153722,-0.604785302,-0.412915433
713,1786150,1229740,1.05,-0.013,0.069,-92.1,-25,-28.8,-10.4,-36,4.1,0.65315714,-0.190313425,-0.604449599,-0.414441359
714,1788465,1229740,1.035,-0.001,0.085,-90.2,-24.6,-27,-10.3,-36.2,4.4,0.652211066,-0.191473128,-0.604083377,-0.415936766
715,1790521,1229740,1.038,0.001,0.093,-88.2,-24.6,-25.2,-10.3,-36.2,4.4,0.651264992,-0.192602313,-0.603747673,-0.417340617
716,1792683,1229740,1.042,0.005,0.089,-86.2,-24.9,-23.4,-10.3,-36.2,4.4,0.650379955,-0.193762017,-0.603411969,-0.41871395
717,1795636,1229750,1.031,0.025,0.097,-84.1,-25.2,-21.8,-10.3,-36.2,4.4,0.6494644,-0.194891202,-0.603106784,-0.420026246
718,1797529,1229750,1.023,0.037,0.105,-79.3,-25.3,-19,-10,-36.1,3.7,0.64906766,-0.198980682,-0.603015229,-0.418805506
719,1801127,1229750,1.023,0.037,0.105,-76.7,-25,-17.7,-10,-36.1,3.7,0.64824366,-0.200079348,-0.602771081,-0.419965209
720,1803269,1229750,1.019,0.041,0.113,-76.7,-25,-17.7,-10,-36.1,3.7,0.64741966,-0.201147496,-0.602496414,-0.421124912
721,1805434,1229760,1.019,0.06,0.109,-73.9,-24.4,-16.6,-10,-36.1,3.7,0.646626179,-0.202185125,-0.602221747,-0.422223579
722,1808687,1229760,1.015,0.064,0.113,-71.1,-23.7,-15.7,-9.8,-36.5,3.6,0.645863216,-0.203222755,-0.601977599,-0.423261208
723,1810764,1229760,1.011,0.072,0.11,-68.2,-23.1,-15,-9.8,-36.5,3.6,0.645100253,-0.204199347,-0.601733451,-0.424268319
724,1813818,1229760,1.019,0.084,0.113,-65.5,-22.5,-14.5,-9.8,-36.5,3.6,0.644367809,-0.205114902,-0.601519822,-0.425244911
725,1815223,1229770,1.011,0.099,0.118,-62.5,-21.9,-14.1,-9.8,-36.5,3.6,0.643665883,-0.206030457,-0.601306192,-0.426160466
726,1818973,1229770,1.011,0.107,0.118,-59.6,-21.3,-13.6,-9.8,-36.9,2.9,0.642994476,-0.206884976,-0.601123081,-0.427045503
727,1821299,1229770,1.003,0.107,0.118,-56.8,-20.6,-13.1,-9.8,-36.9,2.9,0.642353587,-0.207708975,-0.60093997,-0.427869503
728,1823394,1229770,1.019,0.119,0.118,-54.3,-19.8,-12.9,-9.8,-36.9,2.9,0.641712699,-0.208471938,-0.600756859,-0.428662984
729,1826331,1229780,1.03,0.131,0.114,-52.3,-19.1,-13.1,-9.8,-36.9,2.9,0.641102329,-0.209204382,-0.600604266,-0.429456465
730,1827767,1229780,1.027,0.127,0.118,-50.8,-18.5,-13.5,-9.5,-36.5,2.6,0.640522477,-0.209906308,-0.600451674,-0.430219428
731,1830828,1229780,1.027,0.135,0.11,-48.1,-17,-13.6,-9.5,-36.5,2.6,0.639942625,-0.210577715,-0.600299081,-0.430982391
732,1832584,1229780,1.027,0.142,0.114,-48.1,-17,-13.6,-9.5,-36.5,2.6,0.639362774,-0.211218604,-0.600146489,-0.431714835
733,1835460,1229790,1.023,0.146,0.114,-46.7,-16.1,-13.3,-9.5,-36.5,2.6,0.63881344,-0.211859493,-0.599993896,-0.432447279
734,1838801,1229790,1.019,0.143,0.11,-45.2,-15.2,-12.9,-10.1,-36.8,2.1,0.638294626,-0.212469863,-0.599810785,-0.433149205
735,1840942,1229790,1.019,0.139,0.114,-44,-14.2,-12.6,-10.1,-36.8,2.1,0.637775811,-0.213049715,-0.599658193,-0.433820612
736,1844279,1229790,1.011,0.131,0.114,-43.2,-13.2,-12.8,-10.1,-36.8,2.1,0.637287515,-0.213599048,-0.5995056,-0.434522538
737,1846121,1229800,0.987,0.119,0.118,-42.7,-12.4,-13.3,-10.1,-36.8,2.1,0.636799219,-0.214148381,-0.599322489,-0.435193945
738,1849169,1229800,1.03,0.123,0.118,-42.1,-11.2,-15.1,-10,-36.9,2.5,0.636341441,-0.215948973,-0.599414045,-0.434797205
739,1850643,1229800,1.034,0.127,0.114,-41.5,-11,-15.7,-10,-36.9,2.5,0.635853145,-0.216437269,-0.599261452,-0.43549913
740,1852745,1229800,1.03,0.131,0.122,-41.5,-11,-15.7,-10,-36.9,2.5,0.635364849,-0.216925565,-0.59910886,-0.436201056
741,1855652,1229810,1.027,0.127,0.118,-40.5,-10.9,-15.7,-10,-36.9,2.5,0.634876553,-0.217383343,-0.598925748,-0.436902982
742,1858917,1229810,1.027,0.123,0.126,-39.3,-10.5,-15.1,-9.7,-37.1,2,0.634418775,-0.217810602,-0.598773156,-0.437574389
743,1860268,1229810,1.023,0.123,0.126,-38,-10.1,-13.7,-9.7,-37.1,2,0.633960997,-0.21826838,-0.598620563,-0.438215278
744,1863644,1229810,1.023,0.127,0.126,-36.7,-9.7,-12.2,-9.7,-37.1,2,0.633564257,-0.218695639,-0.598467971,-0.438825648
745,1865830,1229820,1.023,0.131,0.126,-35.4,-9.6,-10.6,-9.7,-37.1,2,0.633167516,-0.219153417,-0.598315378,-0.439374981
746,1868069,1229820,1.019,0.142,0.126,-33.9,-9.7,-9.2,-9.7,-36.5,2,0.632770775,-0.219580676,-0.598162786,-0.439893796
747,1870282,1229820,1.011,0.146,0.13,-30.7,-10.1,-6.9,-9.7,-36.5,2,0.632435072,-0.220007935,-0.598040712,-0.440351573
748,1873285,1229820,1.011,0.15,0.13,-29.1,-10.2,-6.1,-9.7,-36.5,2,0.632099368,-0.220435194,-0.597918638,-0.440778832
749,1875605,1229830,0.964,0.116,0.127,-27.4,-10.4,-5.5,-9.7,-36.5,2,0.631794183,-0.220831935,-0.597827082,-0.441145054
750,1877518,1229830,0.956,0.112,0.127,-25.5,-10.9,-5.2,-9.1,-36.8,1.8,0.63145848,-0.221228675,-0.597766045,-0.441511277
751,1881473,1229830,0.956,0.12,0.131,-23,-12.3,-5.1,-9.1,-36.8,1.8,0.631153294,-0.221594897,-0.597735527,-0.441816462
752,1883675,1229830,0.991,0.158,0.127,-19.6,-14.9,-4.7,-9.1,-36.8,1.8,0.630817591,-0.221961119,-0.597766045,-0.44206061
753,1885768,1229840,1.015,0.193,0.131,-15.6,-18,-3.7,-9.1,-36.8,1.8,0.630451369,-0.222296823,-0.597888119,-0.442243721
754,1888058,1229840,1.042,0.197,0.13,-11.8,-20.8,-1.7,-9.5,-36.9,2,0.630115665,-0.222632527,-0.59807123,-0.442304758
755,1890233,1229840,1.046,0.213,0.13,-9.3,-22.2,0.8,-9.5,-36.9,2,0.629779962,-0.222998749,-0.59828486,-0.442304758
756,1893206,1229840,1.046,0.232,0.138,-8.4,-22,3.7,-9.5,-36.9,2,0.629474776,-0.223364971,-0.598498489,-0.442274239
757,1895687,1229850,1.038,0.244,0.146,-9,-20.3,6.1,-9.5,-36.9,2,0.629230628,-0.223761711,-0.598620563,-0.442213202
758,1897803,1229850,1.038,0.244,0.142,-10.6,-17.8,7.3,-9.5,-36.9,1.4,0.62898648,-0.224433119,-0.59889523,-0.441938536
759,1900748,1229850,1.038,0.244,0.142,-12.6,-14.9,7,-9.5,-36.9,1.4,0.628772851,-0.224829859,-0.598925748,-0.441877499
760,1903000,1229850,1.038,0.248,0.135,-14.7,-12.2,5.3,-9.5,-36.9,1.4,0.62858974,-0.2252266,-0.598925748,-0.441969054
761,1905316,1229860,1.034,0.252,0.135,-16.4,-9.8,3.1,-9.5,-36.9,1.4,0.628437147,-0.225592822,-0.59889523,-0.442091128
762,1907548,1229860,1.026,0.24,0.139,-17.4,-7.8,0.9,-9.1,-37.1,1.4,0.628254036,-0.225928526,-0.598834193,-0.442274239
763,1911410,1229860,1.015,0.233,0.131,-17.7,-6.3,-0.6,-9.1,-37.1,1.4,0.628070925,-0.226233711,-0.598742637,-0.442487869
764,1913751,1229860,1.011,0.229,0.131,-17.3,-5.4,-1.4,-9.1,-37.1,1.4,0.627887814,-0.226508377,-0.598620563,-0.442701498
765,1916246,1229870,1.015,0.233,0.131,-16.5,-4.9,-1.4,-9.1,-37.1,1.4,0.627735221,-0.226752525,-0.598590045,-0.442915128
766,1918138,1229870,1.011,0.233,0.127,-15.5,-4.7,-1.1,-9.3,-36.7,1.7,0.627582629,-0.226996673,-0.598498489,-0.443098239
767,1920390,1229870,1.019,0.24,0.131,-14.4,-4.4,-0.6,-9.3,-36.7,1.7,0.627460555,-0.227240822,-0.598437452,-0.44328135
768,1922569,1229870,1.019,0.244,0.127,-13.5,-4.2,-0.2,-9.3,-36.7,1.7,0.627307962,-0.227454451,-0.598345897,-0.443433943
769,1926658,1229880,1.019,0.24,0.127,-13,-4,0.2,-9.3,-36.7,1.7,0.627216407,-0.227668081,-0.59828486,-0.443586535
770,1928727,1229880,1.019,0.244,0.127,-12.6,-3.8,0.5,-9.3,-36.8,1.7,0.627094333,-0.22788171,-0.598223823,-0.443739128
771,1930373,1229880,1.019,0.252,0.131,-12.3,-3.7,0.7,-9.3,-36.8,1.7,0.627002777,-0.22809534,-0.598132267,-0.443830683
772,1934151,1229880,1.019,0.248,0.131,-11.7,-3.4,0.9,-9.3,-36.8,1.7,0.626911222,-0.228308969,-0.59807123,-0.443983276
773,1936656,1229890,1.019,0.26,0.131,-11.2,-3.1,0.9,-9.3,-36.8,1.7,0.626819666,-0.228522599,-0.598010193,-0.44410535
774,1938647,1229890,1.022,0.256,0.127,-10.6,-2.8,1,-9.6,-36.8,1.7,0.626728111,-0.22870571,-0.597918638,-0.444227424
775,1941816,1229890,1.026,0.252,0.127,-10.2,-2.6,1.1,-9.6,-36.8,1.7,0.626667074,-0.228888821,-0.597857601,-0.444318979
776,1943444,1229890,1.03,0.256,0.127,-9.9,-2.3,1.2,-9.6,-36.8,1.7,0.626606037,-0.229041414,-0.597796564,-0.444410535
777,1945119,1229900,1.022,0.256,0.127,-9.8,-2,1.3,-9.6,-36.8,1.7,0.626514481,-0.229224525,-0.597705008,-0.444532609
778,1947502,1229900,1.019,0.252,0.127,-9.8,-1.8,1.1,-9.1,-36.9,2.4,0.626178777,-0.229621265,-0.598040712,-0.444349498
779,1951462,1229900,1.019,0.252,0.127,-10,-1.6,0.8,-9.1,-36.9,2.4,0.62611774,-0.229773858,-0.597949156,-0.444471572
780,1952876,1229900,1.019,0.248,0.131,-10.5,-1.5,0.7,-9.1,-36.9,2.4,0.626056703,-0.229956969,-0.597857601,-0.444593646
781,1956220,1229910,1.019,0.24,0.131,-11.1,-1.3,0.6,-9.1,-36.9,2.4,0.625965148,-0.230109561,-0.597766045,-0.44471572
782,1958806,1229910,1.011,0.241,0.131,-11.6,-1.2,0.5,-9.5,-37.1,1.7,0.625934629,-0.230292673,-0.59767449,-0.444868313
783,1960833,1229910,1.011,0.237,0.131,-12.2,-1,0.4,-9.5,-37.1,1.7,0.625843074,-0.230475784,-0.597582934,-0.445020905
784,1963080,1229910,1.011,0.233,0.131,-12.8,-0.8,0.3,-9.5,-37.1,1.7,0.625782037,-0.230689413,-0.59746086,-0.445173498
785,1965340,1229920,1.003,0.229,0.127,-13.4,-0.7,0.4,-9.5,-37.1,1.7,0.625690481,-0.230872524,-0.597338786,-0.44532609
786,1968385,1229920,1.003,0.221,0.127,-13.8,-0.6,0.4,-9.2,-37,1.8,0.625629444,-0.231086154,-0.597216712,-0.445509201
787,1970629,1229920,1.003,0.221,0.127,-14.2,-0.7,0.3,-9.2,-37,1.8,0.625568407,-0.231269265,-0.597064119,-0.445692312
788,1972817,1229920,0.999,0.213,0.131,-14.6,-0.9,0.3,-9.2,-37,1.8,0.625476852,-0.231482894,-0.596942045,-0.445875423
789,1976301,1229930,0.999,0.209,0.131,-14.8,-1,0.4,-9.2,-37,1.8,0.625385296,-0.231666005,-0.596819971,-0.446058535
790,1978738,1229930,0.991,0.209,0.131,-15,-0.9,0.3,-9.4,-36.9,1.3,0.625293741,-0.231940672,-0.596667379,-0.446241646
791,1980367,1229930,0.987,0.205,0.131,-15,-1,0.4,-9.4,-36.9,1.3,0.625202185,-0.232154302,-0.596545305,-0.446424757
792,1982659,1229930,0.987,0.205,0.131,-14.9,-0.9,0.2,-9.4,-36.9,1.3,0.625141148,-0.232367931,-0.596423231,-0.446607868
793,1985209,1229940,0.987,0.206,0.127,-14.7,-1,0.2,-9.4,-36.9,1.3,0.625049593,-0.232581561,-0.596270638,-0.446790979
794,1988777,1229940,0.987,0.202,0.131,-14.2,-0.8,0.2,-8.8,-36.9,1.1,0.624958037,-0.23279519,-0.596148564,-0.44697409
795,1990467,1229940,0.983,0.202,0.131,-13.7,-0.8,0.3,-8.8,-36.9,1.1,0.624897,-0.232978301,-0.59602649,-0.447126682
796,1992562,1229940,0.976,0.206,0.131,-13.3,-0.5,0.3,-8.8,-36.9,1.1,0.624805445,-0.233191931,-0.595904416,-0.447309793
797,1996773,1229950,0.968,0.206,0.128,-12.7,-0.4,0.3,-8.8,-36.9,1.1,0.624744407,-0.233375042,-0.595782342,-0.447462386
798,1999315,1229950,0.972,0.206,0.128,-12.2,-0.2,0.2,-9.1,-37.1,1,0.624622333,-0.233802301,-0.595782342,-0.44737083
799,2001498,1229950,0.968,0.21,0.132,-11.4,0,0,-9.1,-37.1,1,0.624561296,-0.233954894,-0.595690786,-0.447523423
800,2003766,1229950,0.964,0.21,0.132,-10.5,0,-0.2,-9.1,-37.1,1,0.624530778,-0.234107486,-0.595568712,-0.447645497
801,2005467,1229960,0.956,0.21,0.128,-9.7,0.2,-0.5,-9.1,-37.1,1,0.624469741,-0.23422956,-0.595477157,-0.44779809
802,2007898,1229960,0.956,0.214,0.132,-8.8,0.4,-0.7,-9.1,-37.2,1.2,0.624408704,-0.234321116,-0.595385601,-0.447920164
803,2011722,1229960,0.96,0.218,0.128,-7.8,0.5,-1.1,-9.1,-37.2,1.2,0.624378185,-0.234412671,-0.595324564,-0.448042238
804,2013166,1229960,0.956,0.21,0.128,-6.8,0.6,-1.4,-9.1,-37.2,1.2,0.624347667,-0.234504227,-0.595263527,-0.448164312
805,2015785,1229970,0.956,0.218,0.128,-5.7,0.6,-1.8,-9.1,-37.2,1.2,0.62428663,-0.234534745,-0.59520249,-0.448255867
806,2017766,1229970,0.94,0.214,0.124,-4.6,0.6,-2.2,-9.3,-37.1,0.8,0.624256111,-0.234565264,-0.595141453,-0.448347423
807,2020574,1229970,0.898,0.187,0.113,-3.4,0.5,-2.5,-9.3,-37.1,0.8,0.624225593,-0.234565264,-0.595110935,-0.448438978
808,2024308,1229970,0.894,0.187,0.113,-1.9,0.1,-2.5,-9.3,-37.1,0.8,0.624195074,-0.234565264,-0.595110935,-0.448500015
809,2026125,1229980,0.898,0.203,0.109,0.3,-1.3,-1.7,-9.3,-37.1,0.8,0.624164556,-0.234565264,-0.595141453,-0.448500015
810,2027753,1229980,0.898,0.207,0.109,3.4,-4.2,0,-9.3,-36.9,1.1,0.624134037,-0.234534745,-0.595233009,-0.448438978
811,2030681,1229980,0.913,0.218,0.113,7.1,-8.3,2.7,-9.3,-36.9,1.1,0.624073,-0.234565264,-0.59541612,-0.448255867
812,2033111,1229980,0.925,0.234,0.121,10.8,-12.8,5.4,-9.3,-36.9,1.1,0.624011963,-0.234595782,-0.595660268,-0.447981201
813,2035382,1229990,0.964,0.261,0.128,13.7,-16.6,7,-9.3,-36.9,1.1,0.623950926,-0.234687338,-0.595995972,-0.447614978
814,2037601,1229990,0.972,0.276,0.132,15.4,-19,7.3,-9.2,-36.7,1.1,0.623859371,-0.234748375,-0.596362194,-0.447218238
815,2040526,1229990,0.979,0.284,0.132,15.7,-19.5,6.7,-9.2,-36.7,1.1,0.623737297,-0.234809412,-0.596728416,-0.446821497
816,2042796,1229990,0.976,0.288,0.14,14.8,-18.3,5.7,-9.2,-36.7,1.1,0.623615223,-0.234870449,-0.597094638,-0.446455275
817,2045915,1230000,0.991,0.296,0.144,13,-15.8,4.4,-9.2,-36.7,1.1,0.623523667,-0.234900967,-0.597430342,-0.44615009
818,2048754,1230000,1.007,0.311,0.144,10.7,-12.7,2.3,-9.2,-36.6,1.7,0.623310038,-0.234870449,-0.597827082,-0.44593646
819,2050924,1230000,1.007,0.311,0.144,8.2,-9.3,-0.2,-9.2,-36.6,1.7,0.623218482,-0.23483993,-0.598040712,-0.445783868
820,2053684,1230000,0.999,0.303,0.148,5.8,-5.7,-2.8,-9.2,-36.6,1.7,0.623157445,-0.234778893,-0.598193304,-0.445692312
821,2055051,1230010,0.975,0.296,0.148,3.6,-2,-5.1,-9.2,-36.6,1.7,0.623096408,-0.234687338,-0.59828486,-0.445722831
822,2059290,1230010,0.944,0.296,0.145,1.4,1.4,-6.7,-9.1,-37.1,1.4,0.623065889,-0.234565264,-0.598315378,-0.445783868
823,2061352,1230010,0.933,0.277,0.137,-0.2,4.3,-7.9,-9.1,-37.1,1.4,0.623035371,-0.234412671,-0.59828486,-0.44593646
824,2062696,1230010,0.933,0.269,0.133,-1.1,6,-8.3,-9.1,-37.1,1.4,0.623035371,-0.234260079,-0.598254341,-0.446089053
825,2066014,1230020,0.933,0.269,0.133,-0.8,6.5,-8.3,-9.1,-37.1,1.4,0.623035371,-0.234107486,-0.598193304,-0.446241646
826,2067611,1230020,0.933,0.273,0.133,0.2,6,-8,-8.8,-36.7,1.3,0.623035371,-0.233924375,-0.598162786,-0.446394238
827,2070839,1230020,0.929,0.273,0.133,1.3,5.3,-7.9,-8.8,-36.7,1.3,0.623035371,-0.233771783,-0.598132267,-0.446516312
828,2074266,1230020,0.929,0.269,0.133,1.9,4.8,-8,-8.8,-36.7,1.3,0.623035371,-0.233588672,-0.598132267,-0.446607868
829,2076352,1230030,0.929,0.269,0.133,2,4.6,-8,-8.8,-36.7,1.3,0.623004852,-0.23340556,-0.598132267,-0.446729942
830,2077679,1230030,0.929,0.273,0.133,1.9,4.6,-8.1,-9.5,-37,1.3,0.623004852,-0.233222449,-0.598132267,-0.446821497
831,2080692,1230030,0.933,0.273,0.137,1.7,4.8,-8.3,-9.5,-37,1.3,0.623004852,-0.233039338,-0.598132267,-0.446943571
832,2082962,1230030,0.929,0.273,0.141,1.7,4.9,-8.5,-9.5,-37,1.3,0.622974334,-0.232856227,-0.598101749,-0.447065645
833,2086383,1230040,0.929,0.273,0.133,1.6,5.2,-8.8,-9.5,-37,1.3,0.622974334,-0.232642598,-0.598101749,-0.447187719
834,2088935,1230040,0.929,0.269,0.137,1.5,5.4,-9,-8.9,-36.4,1.2,0.622974334,-0.232490005,-0.598101749,-0.447309793
835,2090520,1230040,0.933,0.269,0.141,1.4,5.5,-9.5,-8.9,-36.4,1.2,0.622943815,-0.232276376,-0.59807123,-0.447462386
836,2092854,1230040,0.929,0.269,0.137,1.3,5.7,-10,-8.9,-36.4,1.2,0.622943815,-0.232093265,-0.59807123,-0.447614978
837,2096211,1230050,0.929,0.269,0.137,0.9,6,-10.6,-8.9,-36.4,1.2,0.622913297,-0.231879635,-0.598040712,-0.447737053
838,2098237,1230050,0.913,0.253,0.133,0.5,6.3,-11.1,-9.1,-37,1.1,0.622791223,-0.231635487,-0.598132267,-0.447950682
839,2100232,1230050,0.921,0.249,0.133,0.2,6.6,-11.8,-9.1,-37,1.1,0.622760704,-0.231391339,-0.598132267,-0.448133793
840,2102544,1230050,0.925,0.257,0.133,0.2,6.5,-12.7,-9.1,-37,1.1,0.622730186,-0.231177709,-0.598101749,-0.448347423
841,2105743,1230060,0.929,0.245,0.133,0.4,6.3,-13.8,-9.1,-37,1.1,0.622669149,-0.230933561,-0.59807123,-0.448561052
842,2108685,1230060,0.933,0.253,0.133,0.7,6,-14.8,-8.7,-36.8,1.2,0.622608112,-0.230658895,-0.59807123,-0.448774682
843,2110605,1230060,0.937,0.253,0.133,1,5.7,-15.6,-8.7,-36.8,1.2,0.622547075,-0.230384228,-0.598101749,-0.448988311
844,2112945,1230060,0.94,0.257,0.133,1.2,5.3,-15.9,-8.7,-36.8,1.2,0.622455519,-0.230109561,-0.598101749,-0.449232459
845,2115347,1230070,0.956,0.257,0.14,1.2,4.9,-15.9,-8.7,-36.8,1.2,0.622363964,-0.229834895,-0.598132267,-0.449446089
846,2117574,1230070,0.956,0.257,0.14,1,4.4,-15.5,-8.8,-36.9,1.1,0.622272408,-0.229560228,-0.598162786,-0.449659719
847,2121697,1230070,0.964,0.264,0.14,0.8,4.2,-14.7,-8.8,-36.9,1.1,0.622180853,-0.22931608,-0.598193304,-0.449873348
848,2123692,1230070,0.94,0.253,0.133,0.4,4.2,-14,-8.8,-36.9,1.1,0.622119816,-0.229102451,-0.598193304,-0.450086978
849,2125870,1230080,0.937,0.245,0.133,0,4.6,-13.5,-8.8,-36.9,1.1,0.62202826,-0.228858303,-0.598223823,-0.450300607
850,2128053,1230080,0.913,0.238,0.133,-0.6,5.4,-13.8,-9.2,-37.4,1.1,0.621967223,-0.228644673,-0.598193304,-0.450514237
851,2130203,1230080,0.913,0.238,0.137,-1,6.2,-14.6,-9.2,-37.4,1.1,0.621906186,-0.228400525,-0.598193304,-0.450758385
852,2134279,1230080,0.929,0.242,0.129,-1,6.5,-15.7,-9.2,-37.4,1.1,0.621814631,-0.228156377,-0.598162786,-0.451033052
853,2136856,1230090,0.925,0.238,0.129,-0.3,5.7,-16.5,-9.2,-37.4,1.1,0.621753594,-0.22788171,-0.598162786,-0.4512772
854,2138851,1230090,0.929,0.245,0.133,0.7,4.2,-16.7,-8.4,-37.4,1.3,0.62163152,-0.227607044,-0.598193304,-0.451521348
855,2141118,1230090,0.933,0.257,0.133,2.2,2.1,-16.6,-8.4,-37.4,1.3,0.621509445,-0.227332377,-0.598254341,-0.451734977
856,2143066,1230090,0.964,0.272,0.132,4,0,-16.1,-8.4,-37.4,1.3,0.621356853,-0.227088229,-0.598376415,-0.45188757
857,2145455,1230100,0.976,0.28,0.132,5.5,-2.1,-15.7,-8.4,-37.4,1.3,0.62120426,-0.226783044,-0.598559526,-0.452009644
858,2147728,1230100,0.987,0.288,0.144,6.4,-3.1,-15.3,-8.4,-37.8,1.4,0.620868557,-0.22666097,-0.599017304,-0.452009644
859,2150082,1230100,0.999,0.299,0.148,6.6,-2.9,-15,-8.4,-37.8,1.4,0.620715964,-0.226386303,-0.599169897,-0.452101199
860,2154214,1230100,0.999,0.299,0.148,5.8,-1.5,-14.6,-8.4,-37.8,1.4,0.620563372,-0.226142155,-0.599322489,-0.452223273
861,2155483,1230110,1.003,0.303,0.148,4.4,0.6,-14.2,-8.4,-37.8,1.4,0.620441298,-0.225898007,-0.599444563,-0.452345347
862,2159350,1230110,0.991,0.299,0.148,2.4,3,-13.7,-8.4,-37.7,1.1,0.620380261,-0.225653859,-0.5995056,-0.452528459
863,2160901,1230110,0.979,0.296,0.148,0.3,5.4,-13.2,-8.4,-37.7,1.1,0.620319224,-0.225409711,-0.599475082,-0.45271157
864,2163732,1230110,0.975,0.292,0.148,-1.7,7.6,-12.8,-8.4,-37.7,1.1,0.620288705,-0.225196081,-0.599414045,-0.452955718
865,2165441,1230120,0.972,0.28,0.152,-3.3,9.2,-12.3,-8.4,-37.7,1.1,0.620258187,-0.224982452,-0.599322489,-0.453199866
866,2167608,1230120,0.944,0.273,0.144,-4.4,10.2,-11.9,-8.4,-37.6,1.3,0.620258187,-0.224799341,-0.599200415,-0.453474532
867,2170057,1230120,0.948,0.272,0.144,-4.6,10.6,-11.9,-8.4,-37.6,1.3,0.620258187,-0.224585711,-0.599078341,-0.453749199
868,2172499,1230120,0.96,0.272,0.14,-4.1,10.6,-12.2,-8.4,-37.6,1.3,0.620258187,-0.224372082,-0.598956267,-0.454023865
869,2175737,1230130,0.96,0.268,0.14,-3.3,10.2,-12.8,-8.4,-37.6,1.3,0.620227668,-0.224158452,-0.598834193,-0.454298532
870,2178540,1230130,0.964,0.268,0.144,-2.4,9.8,-13.4,-9.3,-37.2,1.1,0.620227668,-0.223914304,-0.598742637,-0.454573199
871,2180542,1230130,0.96,0.268,0.14,-1.7,9.8,-13.9,-9.3,-37.2,1.1,0.62019715,-0.223670156,-0.5986816,-0.454817347
872,2182877,1230130,0.964,0.265,0.136,-1.1,9.9,-14.1,-9.3,-37.2,1.1,0.62019715,-0.223395489,-0.598590045,-0.455061495
873,2186208,1230140,0.976,0.272,0.14,-0.7,10,-14.1,-9.3,-37.2,1.1,0.620166631,-0.223120823,-0.598529008,-0.455336161
874,2188215,1230140,0.979,0.268,0.148,-0.2,10.2,-13.7,-7.7,-37.3,1.4,0.620166631,-0.222846156,-0.598437452,-0.455549791
875,2190297,1230140,0.972,0.272,0.14,0,10.2,-13,-7.7,-37.3,1.4,0.620166631,-0.22257149,-0.598376415,-0.455793939
876,2194454,1230140,0.975,0.268,0.148,0.5,10.2,-12.2,-7.7,-37.3,1.4,0.62019715,-0.222296823,-0.59828486,-0.456007569
877,2196236,1230150,0.968,0.268,0.152,0.8,10.2,-11.3,-7.7,-37.3,1.4,0.620227668,-0.222022156,-0.598223823,-0.45619068
878,2198436,1230150,0.964,0.264,0.148,1.2,10.1,-10.6,-7.4,-37.3,0.6,0.620136113,-0.221900082,-0.598315378,-0.456221198
879,2200447,1230150,0.964,0.264,0.148,1.5,10,-10,-7.4,-37.3,0.6,0.62019715,-0.221655934,-0.598223823,-0.456404309
880,2202595,1230150,0.972,0.268,0.148,1.9,9.9,-9.4,-7.4,-37.3,0.6,0.620227668,-0.221411786,-0.598162786,-0.456556902
881,2205704,1230160,0.968,0.272,0.152,2.3,9.7,-8.9,-7.4,-37.3,0.6,0.620288705,-0.22113712,-0.598101749,-0.456678976
882,2207939,1230160,0.968,0.276,0.152,2.8,9.5,-8.4,-7.3,-37.4,1.3,0.620349742,-0.220892972,-0.598040712,-0.45680105
883,2211090,1230160,0.96,0.268,0.156,3.2,9.4,-7.9,-7.3,-37.4,1.3,0.620410779,-0.220679342,-0.597979675,-0.456923124
884,2212618,1230160,0.96,0.276,0.156,3.6,9.2,-7.3,-7.3,-37.4,1.3,0.620471816,-0.220435194,-0.597918638,-0.457014679
885,2216807,1230170,0.956,0.272,0.148,4.2,9.1,-6.8,-7.3,-37.4,1.3,0.620532853,-0.220191046,-0.597888119,-0.457106235
886,2218610,1230170,0.952,0.272,0.152,4.8,9,-6.4,-7.5,-37.4,0.9,0.620624409,-0.219946898,-0.597827082,-0.457167272
887,2220615,1230170,0.96,0.276,0.156,5.6,8.9,-6,-7.5,-37.4,0.9,0.620685446,-0.21970275,-0.597796564,-0.457228309
888,2223272,1230170,0.96,0.276,0.16,6.2,8.9,-5.7,-7.5,-37.4,0.9,0.620777001,-0.219458602,-0.597766045,-0.457258827
889,2226990,1230180,0.96,0.28,0.156,7,8.8,-5.6,-7.5,-37.4,0.9,0.620868557,-0.219183935,-0.597735527,-0.457289346
890,2228938,1230180,0.96,0.284,0.156,7.7,8.8,-5.4,-9,-37.2,1.2,0.620960112,-0.218939787,-0.597735527,-0.457289346
891,2231103,1230180,0.96,0.284,0.152,8.3,8.8,-5.2,-9,-37.2,1.2,0.621082186,-0.21866512,-0.597705008,-0.457319864
892,2232950,1230180,0.964,0.288,0.156,8.9,8.8,-5,-9,-37.2,1.2,0.621173742,-0.218390454,-0.597705008,-0.457289346
893,2236152,1230190,0.96,0.288,0.16,9.5,8.6,-4.6,-9,-37.2,1.2,0.621295816,-0.218115787,-0.597705008,-0.457289346
894,2237958,1230190,0.956,0.296,0.156,10,8.6,-4.2,-7.4,-37.1,1.1,0.62141789,-0.217841121,-0.597705008,-0.457258827
895,2240212,1230190,0.956,0.292,0.16,10.5,8.5,-3.8,-7.4,-37.1,1.1,0.621539964,-0.217566454,-0.597705008,-0.45719779
896,2243738,1230190,0.956,0.296,0.16,11,8.4,-3.2,-7.4,-37.1,1.1,0.621662038,-0.217291787,-0.597735527,-0.457136753
897,2245796,1230200,0.948,0.292,0.16,11.4,8.2,-2.7,-7.4,-37.1,1.1,0.621814631,-0.217017121,-0.597735527,-0.457075716
898,2247759,1230200,0.944,0.292,0.153,11.8,8,-2.1,-7.2,-37.3,1.1,0.621570482,-0.216742454,-0.598223823,-0.456892605
899,2251883,1230200,0.944,0.296,0.156,12.1,7.7,-1.7,-7.2,-37.3,1.1,0.621723075,-0.216467788,-0.598254341,-0.456770531
900,2254245,1230200,0.948,0.3,0.149,12.4,7.5,-1.4,-7.2,-37.3,1.1,0.621875668,-0.216193121,-0.59828486,-0.456678976
901,2255741,1230210,0.948,0.296,0.164,12.7,7.4,-1.2,-7.2,-37.3,1.1,0.621997742,-0.215948973,-0.598315378,-0.456556902
902,2258076,1230210,0.948,0.3,0.156,12.9,7.2,-1.1,-7.2,-36.7,1,0.622150334,-0.215674306,-0.598345897,-0.456434828
903,2260512,1230210,0.948,0.304,0.157,13.3,7.1,-1,-7.2,-36.7,1,0.622302927,-0.215430158,-0.598376415,-0.456312754
904,2262702,1230210,0.944,0.304,0.157,13.6,7.1,-1,-7.2,-36.7,1,0.622455519,-0.215155492,-0.598437452,-0.45619068
905,2265217,1230220,0.952,0.3,0.16,13.9,7.1,-1,-7.2,-36.7,1,0.622577593,-0.214880825,-0.598467971,-0.456038087
906,2268760,1230220,0.952,0.304,0.16,14.3,6.9,-0.9,-7.2,-36.9,1.2,0.622730186,-0.214606159,-0.598529008,-0.455916013
907,2270911,1230220,0.948,0.3,0.16,14.6,6.6,-0.7,-7.2,-36.9,1.2,0.622882778,-0.214331492,-0.598590045,-0.455763421
908,2272524,1230220,0.94,0.292,0.16,14.9,6.2,-0.4,-7.2,-36.9,1.2,0.623035371,-0.214056825,-0.598620563,-0.455610828
909,2276540,1230230,0.948,0.296,0.156,15.3,6.1,-0.2,-7.2,-36.9,1.2,0.623187963,-0.213782159,-0.598712119,-0.455427717
910,2278692,1230230,0.952,0.296,0.168,15.7,6,-0.1,-9.6,-37.3,1.6,0.623340556,-0.213507492,-0.598803674,-0.455244606
911,2281083,1230230,0.944,0.296,0.164,16.1,6,0,-9.6,-37.3,1.6,0.623493149,-0.213232826,-0.598864711,-0.455061495
912,2282533,1230230,0.944,0.3,0.16,16.5,5.9,0,-9.6,-37.3,1.6,0.623645741,-0.212927641,-0.598956267,-0.454878384
913,2285588,1230240,0.944,0.3,0.164,16.7,5.8,0.3,-9.6,-37.3,1.6,0.623798334,-0.212652974,-0.599047823,-0.454695273
914,2287721,1230240,0.94,0.296,0.16,16.9,5.5,0.4,-7.6,-37.3,1.1,0.623950926,-0.212378307,-0.599139378,-0.454481643
915,2291124,1230240,0.936,0.292,0.16,17,5.3,0.5,-7.6,-37.3,1.1,0.624103519,-0.212103641,-0.599230934,-0.454268014
916,2293107,1230240,0.94,0.296,0.16,17.1,5.1,0.6,-7.6,-37.3,1.1,0.624256111,-0.211828974,-0.599322489,-0.454084902
917,2295541,1230250,0.936,0.292,0.16,17.1,4.9,0.8,-7.6,-37.3,1.1,0.624408704,-0.211554308,-0.599414045,-0.453871273
918,2297902,1230250,0.936,0.292,0.164,17.5,4.7,1.3,-7.5,-37.2,1.5,0.624256111,-0.211249123,-0.599932859,-0.453566088
919,2301583,1230250,0.936,0.296,0.161,17.5,4.7,1.3,-7.5,-37.2,1.5,0.624408704,-0.210974456,-0.600024415,-0.45332194
920,2303582,1230250,0.94,0.296,0.157,17.7,4.6,1.5,-7.5,-37.2,1.5,0.624561296,-0.210730308,-0.60011597,-0.45310831
921,2305565,1230260,0.936,0.288,0.157,17.8,4.5,1.4,-7.5,-37.2,1.5,0.624713889,-0.210455641,-0.600238044,-0.452864162
922,2307514,1230260,0.932,0.292,0.161,18,4.3,1.3,-7.3,-37.2,1.8,0.624866482,-0.210180975,-0.600360118,-0.452620014
923,2311635,1230260,0.932,0.292,0.153,18.2,4.3,1.1,-7.3,-37.2,1.8,0.625019074,-0.209906308,-0.600482192,-0.452406384
924,2313769,1230260,0.936,0.288,0.16,18.4,4.2,1.2,-7.3,-37.2,1.8,0.625171667,-0.209631642,-0.600573748,-0.452162236
925,2316049,1230270,0.932,0.292,0.157,18.6,4.3,1.3,-7.3,-37.2,1.8,0.625324259,-0.209356975,-0.600695822,-0.451918088
926,2318272,1230270,0.932,0.292,0.161,18.8,4.3,1.4,-7.6,-37.2,1.6,0.625476852,-0.20905179,-0.600817896,-0.451643422
927,2320225,1230270,0.932,0.292,0.157,18.9,4.3,1.4,-7.6,-37.2,1.6,0.625659963,-0.208777123,-0.60093997,-0.451429792
928,2323579,1230270,0.936,0.288,0.153,19,4.1,1.4,-7.6,-37.2,1.6,0.625812555,-0.208502457,-0.601062044,-0.451185644
929,2325620,1230280,0.936,0.288,0.16,19.1,4,1.3,-7.6,-37.2,1.6,0.625965148,-0.20822779,-0.601184118,-0.450910978
930,2327950,1230280,0.932,0.288,0.161,19.2,3.8,1.3,-9.2,-37.1,2.1,0.62611774,-0.207922605,-0.601336711,-0.450666829
931,2330090,1230280,0.936,0.288,0.16,19.2,3.7,1.3,-9.2,-37.1,2.1,0.626270333,-0.207647938,-0.601458785,-0.450422681
932,2332734,1230280,0.932,0.284,0.164,19.4,3.8,1.3,-9.2,-37.1,2.1,0.626422926,-0.207373272,-0.601580859,-0.450148015
933,2335003,1230290,0.932,0.292,0.172,19.5,3.7,1.3,-9.2,-37.1,2.1,0.626575518,-0.207068087,-0.601733451,-0.449903867
934,2338421,1230290,0.932,0.284,0.164,19.8,3.6,1.3,-7.4,-37,1.8,0.626697592,-0.20679342,-0.601855525,-0.4496292
935,2341065,1230290,0.932,0.288,0.172,20,3.5,1.4,-7.4,-37,1.8,0.626850185,-0.206488235,-0.602008118,-0.449354534
936,2342797,1230290,0.932,0.284,0.164,20.3,3.5,1.4,-7.4,-37,1.8,0.627002777,-0.206213569,-0.60216071,-0.449110385
937,2346132,1230300,0.932,0.292,0.172,20.5,3.5,1.5,-7.4,-37,1.8,0.62715537,-0.205908383,-0.602282785,-0.448835719
938,2348243,1230300,0.928,0.292,0.172,20.8,3.4,1.6,-7.6,-37.5,1.8,0.627094333,-0.205633717,-0.602740562,-0.448469497
939,2350181,1230300,0.928,0.292,0.172,20.8,3.4,1.6,-7.6,-37.5,1.8,0.627246925,-0.205298013,-0.602893155,-0.44819483
940,2354088,1230300,0.929,0.288,0.164,20.9,3.2,1.6,-7.6,-37.5,1.8,0.627399518,-0.205023347,-0.603045747,-0.447889645
941,2356573,1230310,0.928,0.296,0.172,21.1,3,1.7,-7.6,-37.5,1.8,0.62755211,-0.204718162,-0.60319834,-0.447614978
942,2358636,1230310,0.925,0.296,0.169,21.2,2.9,1.7,-7.4,-37,1.9,0.627704703,-0.204443495,-0.603381451,-0.447309793
943,2360032,1230310,0.928,0.3,0.176,21.4,2.8,1.9,-7.4,-37,1.9,0.627857295,-0.20413831,-0.603534043,-0.447035127
944,2363636,1230310,0.928,0.3,0.176,21.6,2.8,1.8,-7.4,-37,1.9,0.628009888,-0.203833125,-0.603686636,-0.446729942
945,2365566,1230320,0.928,0.3,0.172,21.6,2.7,1.7,-7.4,-37,1.9,0.628162481,-0.20352794,-0.603869747,-0.446424757
946,2367863,1230320,0.932,0.3,0.172,21.5,2.7,1.6,-7.5,-37.2,2.1,0.628315073,-0.203222755,-0.60402234,-0.446119572
947,2371557,1230320,0.936,0.304,0.172,21.6,2.7,1.7,-7.5,-37.2,2.1,0.628437147,-0.202948088,-0.604174932,-0.445844905
948,2373495,1230320,0.936,0.308,0.172,21.7,2.7,1.8,-7.5,-37.2,2.1,0.62858974,-0.202642903,-0.604358043,-0.44553972
949,2375618,1230330,0.936,0.308,0.172,21.7,2.7,1.9,-7.5,-37.2,2.1,0.628742332,-0.202337718,-0.604510636,-0.445234535
950,2377979,1230330,0.936,0.311,0.172,21.6,2.7,1.7,-9.2,-36.7,2.4,0.628894925,-0.202032533,-0.604693747,-0.44492935
951,2380217,1230330,0.944,0.315,0.176,21.4,2.7,1.7,-9.2,-36.7,2.4,0.629047517,-0.201727348,-0.604846339,-0.444654683
952,2384104,1230330,0.944,0.311,0.176,21.3,2.7,1.6,-9.2,-36.7,2.4,0.62920011,-0.201452681,-0.604998932,-0.444349498
953,2386278,1230340,0.94,0.319,0.176,21.2,2.6,1.6,-9.2,-36.7,2.4,0.629352702,-0.201147496,-0.605182043,-0.444044313
954,2387664,1230340,0.94,0.315,0.176,21.2,2.5,1.5,-7.6,-37,2.5,0.629474776,-0.200842311,-0.605334635,-0.443769646
955,2390671,1230340,0.944,0.323,0.172,21.1,2.4,1.3,-7.6,-37,2.5,0.629627369,-0.200537126,-0.605487228,-0.44349498
956,2393085,1230340,0.944,0.319,0.172,20.9,2.5,1.1,-7.6,-37,2.5,0.629749443,-0.200262459,-0.605670339,-0.443189795
957,2397121,1230350,0.948,0.315,0.18,20.8,2.5,0.9,-7.6,-37,2.5,0.629871517,-0.199957274,-0.605822932,-0.442915128
958,2397487,1230350,0.944,0.323,0.18,20.5,2.5,0.5,-7.7,-37.4,3.1,0.629840999,-0.199438459,-0.606128117,-0.442762535
959,2401069,1230350,0.944,0.319,0.184,20.5,2.5,0.5,-7.7,-37.4,3.1,0.629993591,-0.199163793,-0.606311228,-0.442487869
960,2403530,1230350,0.948,0.327,0.18,20.3,2.5,0.4,-7.7,-37.4,3.1,0.630115665,-0.198889126,-0.606433302,-0.442213202
961,2406995,1230360,0.952,0.327,0.184,20,2.6,0.2,-7.7,-37.4,3.1,0.630237739,-0.198583941,-0.606616413,-0.441969054
962,2408892,1230360,0.944,0.327,0.18,19.7,2.7,0,-7.8,-36.9,2.5,0.630359813,-0.198278756,-0.606769005,-0.441724906
963,2411484,1230360,0.94,0.327,0.18,19.4,2.7,0,-7.8,-36.9,2.5,0.630481887,-0.197973571,-0.606921598,-0.441480758
964,2413519,1230360,0.94,0.331,0.188,19.1,2.6,0,-7.8,-36.9,2.5,0.630603961,-0.197698904,-0.60707419,-0.44123661
965,2415536,1230370,0.944,0.331,0.188,18.6,2.5,-0.1,-7.8,-36.9,2.5,0.630695517,-0.197424238,-0.607226783,-0.440992462
966,2417919,1230370,0.94,0.331,0.188,18.3,2.5,-0.3,-8,-36.9,3,0.630817591,-0.197119053,-0.607348857,-0.440778832
967,2420465,1230370,0.94,0.331,0.188,18,2.5,-0.5,-8,-36.9,3,0.630909146,-0.196844386,-0.60750145,-0.440534684
968,2423981,1230370,0.94,0.331,0.192,17.9,2.5,-0.8,-8,-36.9,3,0.63103122,-0.19656972,-0.607623524,-0.440321055
969,2426049,1230380,0.936,0.331,0.188,17.7,2.5,-1.1,-8,-36.9,3,0.631122776,-0.196295053,-0.607776116,-0.440137944
970,2427649,1230380,0.936,0.331,0.192,17.5,2.6,-1.4,-9,-36.8,2.8,0.631214331,-0.195989868,-0.607928709,-0.439924314
971,2430635,1230380,0.94,0.327,0.192,17.2,2.7,-1.5,-9,-36.8,2.8,0.631305887,-0.195715201,-0.608050783,-0.439741203
972,2432962,1230380,0.936,0.331,0.192,16.9,2.8,-1.6,-9,-36.8,2.8,0.631397443,-0.195440535,-0.608172857,-0.439527573
973,2435277,1230390,0.936,0.335,0.2,16.4,2.9,-1.5,-9,-36.8,2.8,0.631488998,-0.195165868,-0.608294931,-0.439344462
974,2439259,1230390,0.936,0.327,0.196,16,3.1,-1.6,-8.4,-36.9,2.6,0.631580554,-0.194891202,-0.608417005,-0.439161351
975,2441843,1230390,0.928,0.335,0.189,15.7,3.2,-1.7,-8.4,-36.9,2.6,0.631672109,-0.194616535,-0.608539079,-0.439008759
976,2442476,1230390,0.932,0.335,0.2,15.3,3.2,-1.7,-8.4,-36.9,2.6,0.631763665,-0.194341868,-0.608661153,-0.438825648
977,2446654,1230400,0.928,0.331,0.196,14.9,3.3,-1.9,-8.4,-36.9,2.6,0.63185522,-0.194067202,-0.608752709,-0.438673055
978,2448945,1230400,0.932,0.335,0.188,14.1,3.5,-2,-8.6,-36.6,3.1,0.631794183,-0.193243202,-0.608874783,-0.439008759
979,2451166,1230400,0.928,0.335,0.192,14.1,3.5,-2,-8.6,-36.6,3.1,0.631885739,-0.192968535,-0.608966338,-0.438856166
980,2453147,1230400,0.928,0.331,0.192,13.5,3.5,-1.9,-8.6,-36.6,3.1,0.631946776,-0.192724387,-0.609057894,-0.438703574
981,2455411,1230410,0.928,0.335,0.192,13.1,3.6,-2,-8.6,-36.6,3.1,0.632038331,-0.192480239,-0.609149449,-0.4385815
982,2457552,1230410,0.928,0.339,0.193,12.8,3.7,-2.2,-8.7,-36.8,3.6,0.632129887,-0.192236091,-0.609241005,-0.438459426
983,2460176,1230410,0.924,0.335,0.196,12.6,3.8,-2.3,-8.7,-36.8,3.6,0.632190924,-0.191991943,-0.609302042,-0.438337352
984,2462518,1230410,0.928,0.335,0.196,12.3,3.9,-2.4,-8.7,-36.8,3.6,0.632282479,-0.191747795,-0.609363079,-0.438215278
985,2466123,1230420,0.928,0.335,0.189,11.9,3.9,-2.4,-8.7,-36.8,3.6,0.632374035,-0.191534165,-0.609454634,-0.438123722
986,2468141,1230420,0.924,0.331,0.185,11.5,4,-2.5,-8.4,-36.7,3.1,0.632435072,-0.191290017,-0.609515671,-0.438032167
987,2470401,1230420,0.924,0.335,0.189,11.2,4.1,-2.6,-8.4,-36.7,3.1,0.632526627,-0.191076388,-0.609576708,-0.437910092
988,2472596,1230420,0.924,0.335,0.185,10.8,4.2,-2.6,-8.4,-36.7,3.1,0.632587664,-0.19083224,-0.609637745,-0.437849055
989,2475230,1230430,0.924,0.335,0.189,10.4,4.3,-2.7,-8.4,-36.7,3.1,0.63267922,-0.19061861,-0.609668264,-0.4377575
990,2478823,1230430,0.928,0.335,0.192,9.9,4.4,-2.7,-8.9,-36.8,3.1,0.632740257,-0.190404981,-0.609729301,-0.437665944
991,2481043,1230430,0.928,0.335,0.181,9.5,4.6,-2.7,-8.9,-36.8,3.1,0.632831812,-0.190191351,-0.609759819,-0.437604907
992,2483125,1230430,0.928,0.331,0.189,9.1,4.8,-2.7,-8.9,-36.8,3.1,0.63289285,-0.189977721,-0.609790338,-0.43754387
993,2485420,1230440,0.928,0.335,0.192,8.8,4.9,-2.5,-8.9,-36.8,3.1,0.632984405,-0.189764092,-0.609820856,-0.437482833
994,2487821,1230440,0.928,0.343,0.185,8.4,4.9,-2.5,-8.2,-36.8,3,0.633045442,-0.189580981,-0.609851375,-0.437421796
995,2490144,1230440,0.928,0.339,0.181,8,4.9,-2.5,-8.2,-36.8,3,0.633136998,-0.18939787,-0.609851375,-0.437360759
996,2494642,1230440,0.928,0.339,0.185,7.7,4.9,-2.5,-8.2,-36.8,3,0.633198035,-0.18918424,-0.609881893,-0.437330241
997,2496768,1230450,0.928,0.339,0.181,7.4,4.9,-2.5,-8.2,-36.8,3,0.633259072,-0.189001129,-0.609881893,-0.437269204
998,2499058,1230450,0.928,0.339,0.189,6.8,5,-2.5,-8.5,-36.5,3.6,0.633014924,-0.188207648,-0.610126041,-0.437696463
999,2501357,1230450,0.928,0.339,0.189,6.8,5,-2.5,-8.5,-36.5,3.6,0.633075961,-0.188024537,-0.610126041,-0.437665944
1000,2503562,1230450,0.924,0.339,0.185,6.7,5,-2.5,-8.5,-36.5,3.6,0.633136998,-0.187841426,-0.610126041,-0.437635426
1001,2505617,1230460,0.924,0.339,0.185,6.5,5,-2.5,-8.5,-36.5,3.6,0.633228553,-0.187658315,-0.610126041,-0.437604907
1002,2507930,1230460,0.924,0.343,0.189,6.2,4.9,-2.4,-8.4,-36.3,3.4,0.63328959,-0.187505722,-0.610126041,-0.437574389
1003,2510291,1230460,0.932,0.339,0.185,5.9,4.8,-2.3,-8.4,-36.3,3.4,0.633350627,-0.18735313,-0.610126041,-0.43754387
1004,2512576,1230460,0.932,0.339,0.181,5.6,4.8,-2.3,-8.4,-36.3,3.4,0.633411664,-0.187200537,-0.610126041,-0.437513352
1005,2516992,1230470,0.928,0.339,0.181,5.4,4.7,-2.3,-8.4,-36.3,3.4,0.633472701,-0.187047945,-0.610126041,-0.437482833
1006,2519226,1230470,0.924,0.339,0.185,5.2,4.6,-2.3,-8.4,-36.5,3.1,0.633533738,-0.186895352,-0.610126041,-0.437482833
1007,2521596,1230470,0.932,0.343,0.185,5.1,4.5,-2.3,-8.4,-36.5,3.1,0.633594775,-0.186742759,-0.610126041,-0.437452315
1008,2523746,1230470,0.928,0.343,0.185,5.1,4.5,-2.3,-8.4,-36.5,3.1,0.633655812,-0.186590167,-0.610126041,-0.437452315
1009,2526082,1230480,0.932,0.339,0.185,5.1,4.5,-2.3,-8.4,-36.5,3.1,0.633716849,-0.186468093,-0.610126041,-0.437421796
1010,2528149,1230480,0.932,0.339,0.185,5.1,4.5,-2.3,-8.8,-36.9,3.2,0.633777886,-0.1863155,-0.610095523,-0.437421796
1011,2530332,1230480,0.936,0.339,0.188,4.9,4.4,-2.2,-8.8,-36.9,3.2,0.633838923,-0.186162908,-0.610095523,-0.437391278
1012,2532861,1230480,0.936,0.339,0.192,4.7,4.5,-2.2,-8.8,-36.9,3.2,0.63389996,-0.186040834,-0.610095523,-0.437391278
1013,2535056,1230490,0.936,0.339,0.188,4.5,4.4,-2.1,-8.8,-36.9,3.2,0.633960997,-0.185888241,-0.610095523,-0.437360759
1014,2539568,1230490,0.932,0.339,0.192,4.3,4.4,-2,-8.9,-36.8,3.5,0.634022034,-0.185766167,-0.610065004,-0.437360759
1015,2541765,1230490,0.94,0.343,0.185,4.2,4.2,-1.8,-8.9,-36.8,3.5,0.634052553,-0.185644093,-0.610065004,-0.437330241
