sample_index,elapsed_us,device_time_ms,acc_x_g,acc_y_g,acc_z_g,gyro_x_dps,gyro_y_dps,gyro_z_dps,mag_x_ut,mag_y_ut,mag_z_ut,quat_w,quat_x,quat_y,quat_z
0,3949,883970,0.985,0.04,-0.022,0,0.2,0,-35,6.2,27.4,0.168248543,0.701803644,-0.144413587,0.676961577
1,6164,883970,0.985,0.036,-0.026,0,0.1,0,-35,6.2,27.4,0.168248543,0.701773125,-0.144413587,0.676961577
2,8450,883970,0.981,0.04,-0.026,0,0.1,0,-35,6.2,27.4,0.168248543,0.701773125,-0.144413587,0.676961577
3,11396,883980,0.985,0.04,-0.03,0,0.1,0,-35,5.6,25.7,0.168248543,0.701773125,-0.144413587,0.676961577
4,13633,883980,0.985,0.04,-0.026,0,0.1,0,-35,5.6,25.7,0.168248543,0.701773125,-0.144413587,0.676961577
5,16629,883980,0.985,0.036,-0.022,0,0,0,-35,5.6,25.7,0.168248543,0.701773125,-0.144413587,0.676961577
6,18142,883980,0.985,0.044,-0.026,0,0,0,-35,5.6,25.7,0.168248543,0.701773125,-0.144413587,0.676961577
7,20381,883990,0.988,0.036,-0.022,0,0,0.1,-34.9,5.5,25.9,0.168279061,0.701773125,-0.144383068,0.676961577
8,24133,883990,0.988,0.04,-0.026,0,-0.1,0,-34.9,5.5,25.9,0.168248543,0.701773125,-0.144413587,0.676961577
9,25657,883990,0.988,0.036,-0.03,0,-0.1,0,-34.9,5.5,25.9,0.168248543,0.701803644,-0.144413587,0.676961577
10,27881,883990,0.985,0.04,-0.022,0,-0.1,0,-34.9,5.5,25.9,0.168248543,0.701803644,-0.144413587,0.676961577
11,30882,884000,0.988,0.044,-0.026,0,0,0,-35.2,4.6,26.4,0.168248543,0.701803644,-0.144413587,0.676961577
12,33885,884000,0.988,0.044,-0.026,0.1,0,-0.1,-35.2,4.6,26.4,0.168248543,0.701803644,-0.144383068,0.676961577
13,36771,884000,0.985,0.04,-0.03,0,-0.1,0,-35.2,4.6,26.4,0.168248543,0.701803644,-0.144383068,0.676961577
14,38314,884000,0.985,0.04,-0.022,0,-0.1,0,-35.2,4.6,26.4,0.168248543,0.701803644,-0.144383068,0.676961577
15,40513,884010,0.981,0.036,-0.026,0,0,0,-34.7,3.7,26.1,0.168248543,0.701803644,-0.144383068,0.676961577
16,43363,884010,0.985,0.04,-0.03,-0.1,0,0,-34.7,3.7,26.1,0.168248543,0.701803644,-0.144413587,0.676961577
17,46418,884010,0.985,0.04,-0.022,0,0,0,-34.7,3.7,26.1,0.168279061,0.701803644,-0.144413587,0.676961577
18,47981,884010,0.981,0.04,-0.026,0,0.1,-0.1,-34.7,3.7,26.1,0.168279061,0.701803644,-0.144383068,0.676961577
19,51147,884020,0.985,0.04,-0.03,0,0.1,0,-35,7.6,27.8,0.168279061,0.701803644,-0.144383068,0.676961577
20,53003,884020,0.988,0.04,-0.026,0,0.2,0,-35,7.6,27.8,0.168279061,0.701773125,-0.144383068,0.676961577
21,57085,884020,0.988,0.036,-0.026,0,0.1,0,-35,7.6,27.8,0.168279061,0.701773125,-0.144383068,0.676961577
22,59366,884020,0.985,0.04,-0.022,0,0.1,0,-35,7.6,27.8,0.168279061,0.701773125,-0.144383068,0.676961577
23,60881,884030,0.988,0.04,-0.026,0,0,0,-34.9,4.9,26,0.168279061,0.701773125,-0.144383068,0.676961577
24,63125,884030,0.985,0.036,-0.026,0,0,0,-34.9,4.9,26,0.168279061,0.701773125,-0.144383068,0.676961577
25,66123,884030,0.988,0.044,-0.026,-0.1,-0.1,0,-34.9,4.9,26,0.168279061,0.701773125,-0.144383068,0.676961577
26,69223,884030,0.985,0.04,-0.022,0,0,0,-34.9,4.9,26,0.168279061,0.701773125,-0.144383068,0.676961577
27,71510,884040,0.981,0.04,-0.026,0,0,0,-35.2,4.9,26,0.168279061,0.701773125,-0.144383068,0.676961577
28,73037,884040,0.981,0.04,-0.026,0.1,0.1,0,-35.2,4.9,26,0.168279061,0.701773125,-0.144383068,0.676961577
29,76450,884040,0.985,0.036,-0.022,0,0,0,-35.2,4.9,26,0.168279061,0.701773125,-0.144383068,0.676961577
30,78589,884040,0.985,0.04,-0.022,0,0,0,-35.2,4.9,26,0.168279061,0.701773125,-0.144383068,0.676961577
31,80151,884050,0.988,0.04,-0.03,0,-0.1,0,-35.2,5.5,25.8,0.168279061,0.701773125,-0.144383068,0.676961577
32,82852,884050,0.988,0.04,-0.03,0,-0.1,0,-35.2,5.5,25.8,0.168279061,0.701773125,-0.144383068,0.676961577
33,86736,884050,0.988,0.04,-0.022,0,0,-0.1,-35.2,5.5,25.8,0.168279061,0.701773125,-0.144383068,0.676961577
34,88368,884050,0.985,0.044,-0.022,0,0,0,-35.2,5.5,25.8,0.168279061,0.701773125,-0.144383068,0.676961577
35,90613,884060,0.985,0.044,-0.022,0,0.1,0,-35.1,6,26,0.168279061,0.701773125,-0.144383068,0.676961577
36,93317,884060,0.985,0.04,-0.026,0,0.1,0.2,-35.1,6,26,0.168279061,0.701773125,-0.144383068,0.676961577
37,95467,884060,0.985,0.04,-0.022,0,0,0.2,-35.1,6,26,0.168279061,0.701773125,-0.144383068,0.676961577
38,99126,884060,0.988,0.04,-0.022,0,0,0.1,-35.1,6,26,0.168279061,0.701773125,-0.144383068,0.676961577
39,101018,884070,0.985,0.036,-0.026,0,0,0,-34.8,6.8,26.7,0.168279061,0.701773125,-0.144383068,0.676961577
40,102753,884070,0.985,0.04,-0.026,0,0.1,0,-34.8,6.8,26.7,0.168279061,0.701773125,-0.144383068,0.676961577
41,105549,884070,0.981,0.036,-0.026,0,0.1,0,-34.8,6.8,26.7,0.168279061,0.701773125,-0.144383068,0.676992096
42,108538,884070,0.985,0.04,-0.022,0,0,0,-34.8,6.8,26.7,0.168279061,0.701773125,-0.144383068,0.676992096
43,110747,884080,0.988,0.04,-0.018,0,0,0,-35.3,5.7,26.6,0.168279061,0.701773125,-0.144383068,0.676992096
44,114170,884080,0.985,0.04,-0.018,0,0,0,-35.3,5.7,26.6,0.168279061,0.701773125,-0.144383068,0.676992096
45,116164,884080,0.988,0.036,-0.026,0,0.1,0,-35.3,5.7,26.6,0.168279061,0.701773125,-0.144383068,0.676992096
46,118445,884080,0.981,0.04,-0.026,0,0.2,-0.1,-35.3,5.7,26.6,0.168279061,0.701773125,-0.144383068,0.676992096
47,120553,884090,0.988,0.04,-0.022,0,0.3,-0.1,-35.2,6.6,26.5,0.168279061,0.701712088,-0.144383068,0.677022614
48,123788,884090,0.985,0.04,-0.022,0,0.2,-0.1,-35.2,6.6,26.5,0.168279061,0.701712088,-0.144383068,0.677022614
49,126042,884090,0.985,0.036,-0.026,0,0,0,-35.2,6.6,26.5,0.168279061,0.701712088,-0.14435255,0.677022614
50,128201,884090,0.985,0.04,-0.026,0,-0.1,0,-35.2,6.6,26.5,0.168279061,0.701712088,-0.14435255,0.677022614
51,130874,884100,0.985,0.036,-0.03,0,-0.3,0,-35.2,6.7,26.6,0.168279061,0.701742607,-0.144383068,0.677022614
52,133213,884100,0.985,0.036,-0.03,0,-0.3,0,-35.2,6.7,26.6,0.168279061,0.701742607,-0.144383068,0.677022614
53,135294,884100,0.988,0.04,-0.022,0,-0.2,0,-35.2,6.7,26.6,0.168279061,0.701742607,-0.144383068,0.677022614
54,138298,884100,0.988,0.04,-0.03,0,-0.1,0,-35.2,6.7,26.6,0.168279061,0.701742607,-0.144383068,0.677022614
55,141468,884110,0.988,0.04,-0.018,0,-0.1,0,-34.9,6.6,27,0.168279061,0.701742607,-0.144383068,0.677022614
56,143657,884110,0.985,0.036,-0.026,0.1,-0.1,0,-34.9,6.6,27,0.168279061,0.701742607,-0.144383068,0.677022614
57,146879,884110,0.985,0.044,-0.018,0,-0.1,0,-34.9,6.6,27,0.168279061,0.701742607,-0.144383068,0.676992096
58,148633,884110,0.985,0.04,-0.022,0,0,0,-34.9,6.6,27,0.168279061,0.701742607,-0.144383068,0.676992096
59,150887,884120,0.988,0.04,-0.026,0,0,0,-35,5.8,26.7,0.168279061,0.701742607,-0.144383068,0.676992096
60,152988,884120,0.985,0.04,-0.026,0,0.1,-0.1,-35,5.8,26.7,0.168279061,0.701742607,-0.144383068,0.677022614
61,157032,884120,0.981,0.04,-0.022,0,0,0,-35,5.8,26.7,0.168279061,0.701742607,-0.14435255,0.677022614
62,159030,884120,0.985,0.04,-0.018,0,0,0,-35,5.8,26.7,0.168279061,0.701742607,-0.14435255,0.677022614
63,161505,884130,0.981,0.04,-0.022,0,0,0,-35,6.7,27,0.168279061,0.701742607,-0.144383068,0.676992096
64,163556,884130,0.985,0.04,-0.03,0,0,0.1,-35,6.7,27,0.168279061,0.701742607,-0.144383068,0.676992096
65,165431,884130,0.988,0.036,-0.022,0,0,0,-35,6.7,27,0.168279061,0.701742607,-0.144383068,0.677022614
66,168611,884130,0.985,0.04,-0.022,0,0.1,0,-35,6.7,27,0.168279061,0.701742607,-0.144383068,0.677022614
67,170509,884140,0.985,0.036,-0.026,0,0,0,-35,6.6,26.5,0.168279061,0.701712088,-0.144383068,0.677022614
68,173681,884140,0.985,0.04,-0.03,0,0,0,-35,6.6,26.5,0.168279061,0.701712088,-0.144383068,0.677022614
69,175753,884140,0.985,0.048,-0.026,0,0,0,-35,6.6,26.5,0.168279061,0.701712088,-0.144383068,0.677022614
70,177852,884140,0.988,0.04,-0.018,0,0,0,-35,6.6,26.5,0.168279061,0.701712088,-0.144383068,0.677022614
71,180346,884150,0.985,0.036,-0.034,0,0,0,-35.8,6.4,26.4,0.168279061,0.701712088,-0.144383068,0.677022614
72,184231,884150,0.981,0.04,-0.026,0,0,0,-35.8,6.4,26.4,0.168279061,0.701742607,-0.144383068,0.677022614
73,187279,884150,0.981,0.04,-0.022,0,0,0,-35.8,6.4,26.4,0.168279061,0.701742607,-0.144383068,0.677022614
74,189370,884150,0.981,0.04,-0.026,0,0,0,-35.8,6.4,26.4,0.168279061,0.701742607,-0.144383068,0.677022614
75,191618,884160,0.985,0.048,-0.022,0,0,0,-36.4,6.2,26.5,0.168279061,0.701742607,-0.144383068,0.677022614
76,193965,884160,0.985,0.04,-0.026,0,0,0,-36.4,6.2,26.5,0.168279061,0.701742607,-0.144383068,0.677022614
77,196069,884160,0.988,0.036,-0.026,0,0,0.1,-36.4,6.2,26.5,0.168279061,0.701742607,-0.144383068,0.677022614
78,199550,884160,0.985,0.04,-0.026,0,0,0,-36.4,6.2,26.5,0.168279061,0.701742607,-0.144383068,0.677022614
79,201741,884170,0.985,0.04,-0.026,0,-0.1,0,-34.1,4.9,26.7,0.168279061,0.701742607,-0.144383068,0.677022614
80,203307,884170,0.988,0.04,-0.026,0,-0.1,-0.1,-34.1,4.9,26.7,0.168279061,0.701742607,-0.144383068,0.677022614
81,205455,884170,0.985,0.032,-0.03,0,-0.1,-0.1,-34.1,4.9,26.7,0.168279061,0.701742607,-0.144383068,0.677022614
82,208643,884170,0.985,0.036,-0.026,0,-0.1,-0.1,-34.1,4.9,26.7,0.168279061,0.701742607,-0.144383068,0.677022614
83,210878,884180,0.981,0.036,-0.026,0,-0.1,-0.1,-36.9,7.3,26.6,0.168279061,0.701742607,-0.14435255,0.677022614
84,213089,884180,0.981,0.044,-0.026,0,-0.1,-0.1,-36.9,7.3,26.6,0.168279061,0.701742607,-0.14435255,0.676992096
85,215210,884180,0.985,0.036,-0.03,0,-0.1,0,-36.9,7.3,26.6,0.168279061,0.701742607,-0.14435255,0.676992096
86,219000,884180,0.988,0.04,-0.026,0,0,0,-36.9,7.3,26.6,0.168279061,0.701742607,-0.14435255,0.676992096
87,221219,884190,0.985,0.036,-0.03,0,0,0,-36.5,7.6,26.7,0.168279061,0.701773125,-0.144383068,0.676992096
88,223618,884190,0.985,0.036,-0.03,0,0,0,-36.5,7.6,26.7,0.168279061,0.701773125,-0.144383068,0.676992096
89,226434,884190,0.988,0.04,-0.022,0,-0.1,0,-36.5,7.6,26.7,0.168279061,0.701773125,-0.144383068,0.676992096
90,228059,884190,0.985,0.036,-0.018,0,-0.1,0,-36.5,7.6,26.7,0.168279061,0.701773125,-0.144383068,0.676992096
91,230965,884200,0.981,0.044,-0.026,0,0,0,-36.8,7.2,27,0.168279061,0.701773125,-0.144383068,0.676992096
92,232889,884200,0.981,0.04,-0.026,0,0,0,-36.8,7.2,27,0.168279061,0.701773125,-0.144383068,0.676992096
93,235309,884200,0.981,0.04,-0.026,0,0,0,-36.8,7.2,27,0.168279061,0.701773125,-0.144383068,0.676992096
94,238970,884200,0.985,0.044,-0.022,0,0.1,0,-36.8,7.2,27,0.168279061,0.701773125,-0.144383068,0.676992096
95,241329,884210,0.988,0.04,-0.022,0.1,0.1,0,-36.3,7.1,26.9,0.168279061,0.701773125,-0.144383068,0.676992096
96,242934,884210,0.988,0.04,-0.026,0.1,0,0,-36.3,7.1,26.9,0.168279061,0.701773125,-0.144383068,0.676992096
97,245866,884210,0.985,0.04,-0.03,0,0,0,-36.3,7.1,26.9,0.168279061,0.701773125,-0.144383068,0.676992096
98,248196,884210,0.981,0.04,-0.022,0,0,0,-36.3,7.1,26.9,0.168279061,0.701773125,-0.144383068,0.676992096
99,250465,884220,0.985,0.032,-0.022,0,0.1,0.1,-34.1,6,26.7,0.168279061,0.701773125,-0.144383068,0.676992096
100,253342,884220,0.985,0.036,-0.026,0,0,0,-34.1,6,26.7,0.168279061,0.701742607,-0.144383068,0.676992096
101,256550,884220,0.985,0.04,-0.026,0.1,0,0,-34.1,6,26.7,0.168279061,0.701742607,-0.144383068,0.676992096
102,258895,884220,0.988,0.04,-0.022,0.1,0,0,-34.1,6,26.7,0.168279061,0.701742607,-0.144383068,0.676992096
103,260451,884230,0.988,0.04,-0.026,0,0,0,-35.6,6.2,26.7,0.168279061,0.701742607,-0.144383068,0.676992096
104,263455,884230,0.985,0.036,-0.022,0,0,0,-35.6,6.2,26.7,0.168279061,0.701742607,-0.144383068,0.676992096
105,266721,884230,0.985,0.04,-0.026,0,0,0,-35.6,6.2,26.7,0.168279061,0.701742607,-0.144383068,0.676992096
106,269065,884230,0.981,0.04,-0.022,0,0,0,-35.6,6.2,26.7,0.168279061,0.701742607,-0.144383068,0.676992096
107,271262,884240,0.985,0.036,-0.03,-0.1,0.1,0,-35.2,6.3,26.6,0.168279061,0.701742607,-0.144383068,0.677022614
108,273525,884240,0.981,0.04,-0.026,0,0,0,-35.2,6.3,26.6,0.168279061,0.701742607,-0.144383068,0.677022614
109,276129,884240,0.985,0.036,-0.026,0,0,0,-35.2,6.3,26.6,0.168279061,0.701742607,-0.144383068,0.677022614
110,278095,884240,0.985,0.04,-0.03,0,0,0,-35.2,6.3,26.6,0.168279061,0.701742607,-0.144383068,0.677022614
111,281703,884250,0.988,0.036,-0.022,0,0,0,-34.6,6.7,26.8,0.168279061,0.701742607,-0.144383068,0.677022614
112,284026,884250,0.985,0.048,-0.022,0,0.1,-0.1,-34.6,6.7,26.8,0.168279061,0.701742607,-0.14435255,0.677022614
113,285578,884250,0.988,0.044,-0.026,0,0.3,0,-34.6,6.7,26.8,0.168279061,0.701712088,-0.14435255,0.677022614
114,288325,884250,0.992,0.04,-0.018,0,0.1,0,-34.6,6.7,26.8,0.168279061,0.701712088,-0.14435255,0.677022614
115,290409,884260,0.988,0.044,-0.026,0,0,0,-34.6,6.4,26.7,0.168279061,0.701712088,-0.14435255,0.677022614
116,293793,884260,0.988,0.044,-0.026,0,0,0,-34.6,6.4,26.7,0.168279061,0.701712088,-0.14435255,0.677022614
117,296080,884260,0.985,0.036,-0.026,0,-0.1,0,-34.6,6.4,26.7,0.168279061,0.701742607,-0.14435255,0.677022614
118,298314,884260,0.988,0.044,-0.026,0,-0.1,0,-34.6,6.4,26.7,0.168279061,0.701742607,-0.14435255,0.677022614
119,300823,884270,0.985,0.036,-0.022,0,0,-0.1,-35,5.9,26.7,0.168279061,0.701742607,-0.14435255,0.677022614
120,302735,884270,0.985,0.04,-0.022,0,-0.1,0,-35,5.9,26.7,0.168279061,0.701742607,-0.14435255,0.677022614
121,307080,884270,0.988,0.04,-0.026,0,-0.1,0,-35,5.9,26.7,0.168279061,0.701742607,-0.14435255,0.677022614
122,309307,884270,0.988,0.044,-0.022,0,-0.1,0,-35,5.9,26.7,0.168279061,0.701742607,-0.14435255,0.677022614
123,311043,884280,0.981,0.04,-0.03,0,0,0,-35.2,6.2,26.7,0.168279061,0.701742607,-0.14435255,0.677022614
124,313102,884280,0.985,0.036,-0.022,0,0,0,-35.2,6.2,26.7,0.168279061,0.701742607,-0.14435255,0.677022614
125,316902,884280,0.985,0.04,-0.026,0,0,0,-35.2,6.2,26.7,0.168279061,0.701742607,-0.14435255,0.677022614
126,318332,884280,0.981,0.036,-0.026,0,0,0.1,-35.2,6.2,26.7,0.168279061,0.701742607,-0.14435255,0.677022614
127,320676,884290,0.985,0.036,-0.03,0,0,0.1,-35,6.1,26.6,0.168279061,0.701742607,-0.144383068,0.677022614
128,323324,884290,0.985,0.036,-0.022,0,0,0,-35,6.1,26.6,0.168279061,0.701742607,-0.144383068,0.677022614
129,325308,884290,0.988,0.044,-0.026,0,-0.1,0,-35,6.1,26.6,0.168279061,0.701742607,-0.144383068,0.676992096
130,329559,884290,0.988,0.036,-0.026,0,0,0,-35,6.1,26.6,0.168279061,0.701742607,-0.144383068,0.676992096
131,330366,884300,0.988,0.04,-0.026,0,0,0,-35.1,6.2,27.1,0.168279061,0.701742607,-0.144383068,0.676992096
132,333361,884300,0.981,0.04,-0.022,0,0.1,0.1,-35.1,6.2,27.1,0.168279061,0.701742607,-0.144383068,0.677022614
133,335653,884300,0.988,0.04,-0.026,0,0.1,0.1,-35.1,6.2,27.1,0.168279061,0.701742607,-0.144383068,0.677022614
134,338444,884300,0.985,0.036,-0.03,0,0.2,0.1,-35.1,6.2,27.1,0.168279061,0.701742607,-0.144383068,0.677022614
135,341381,884310,0.985,0.036,-0.026,0,0.2,0,-35.2,6.5,26.6,0.168279061,0.701742607,-0.144383068,0.677022614
136,343140,884310,0.988,0.04,-0.018,-0.1,0.2,0,-35.2,6.5,26.6,0.168279061,0.701742607,-0.144383068,0.677022614
137,346001,884310,0.988,0.04,-0.026,-0.1,0.3,-0.1,-35.2,6.5,26.6,0.168279061,0.701712088,-0.144383068,0.677022614
138,348232,884310,0.985,0.04,-0.026,0,0.2,0,-35.2,6.5,26.6,0.168279061,0.701712088,-0.144383068,0.677022614
139,351621,884320,0.988,0.04,-0.026,0,0.1,0,-36.2,6,26.8,0.168279061,0.701712088,-0.144383068,0.677022614
140,353698,884320,0.988,0.036,-0.022,0.1,0.1,0,-36.2,6,26.8,0.168279061,0.701712088,-0.144383068,0.677022614
141,356972,884320,0.981,0.036,-0.026,0.1,0,0,-36.2,6,26.8,0.168279061,0.701712088,-0.144383068,0.677022614
142,357653,884320,0.985,0.04,-0.018,0,-0.1,0,-36.2,6,26.8,0.168279061,0.701712088,-0.144383068,0.677022614
143,360552,884330,0.985,0.036,-0.026,0,-0.2,0,-33.5,5.8,26.9,0.168279061,0.701712088,-0.144383068,0.677022614
144,363471,884330,0.988,0.04,-0.026,0,-0.3,0,-33.5,5.8,26.9,0.168279061,0.701742607,-0.144383068,0.677022614
145,365268,884330,0.988,0.044,-0.026,0,-0.2,0,-33.5,5.8,26.9,0.168279061,0.701742607,-0.144383068,0.677022614
146,369646,884330,0.985,0.04,-0.03,0,-0.1,0,-33.5,5.8,26.9,0.168279061,0.701742607,-0.144383068,0.677022614
147,371800,884340,0.981,0.036,-0.026,0,0,-0.1,-33.5,6.1,26.5,0.168279061,0.701742607,-0.14435255,0.676992096
148,374236,884340,0.981,0.036,-0.026,0,0.1,0,-33.5,6.1,26.5,0.168279061,0.701742607,-0.14435255,0.676992096
149,376384,884340,0.985,0.04,-0.026,0,0.1,0,-33.5,6.1,26.5,0.168279061,0.701742607,-0.14435255,0.677022614
150,378131,884340,0.985,0.036,-0.022,-0.1,0.1,0,-33.5,6.1,26.5,0.168279061,0.701742607,-0.144383068,0.677022614
151,380835,884350,0.981,0.04,-0.022,-0.1,0.1,0,-33.4,6,26.6,0.168279061,0.701742607,-0.144383068,0.677022614
152,383925,884350,0.985,0.036,-0.022,-0.1,0.1,0,-33.4,6,26.6,0.168279061,0.701742607,-0.144383068,0.677022614
153,385592,884350,0.985,0.036,-0.022,-0.1,0.1,0,-33.4,6,26.6,0.168279061,0.701742607,-0.144383068,0.677022614
154,389594,884350,0.985,0.04,-0.022,0,0,0,-33.4,6,26.6,0.168279061,0.701742607,-0.144383068,0.677022614
155,390341,884360,0.985,0.04,-0.026,0,0,0,-33.6,6.2,27,0.168279061,0.701742607,-0.144383068,0.677022614
156,393293,884360,0.988,0.044,-0.022,0,0,0,-33.6,6.2,27,0.168279061,0.701742607,-0.144383068,0.677022614
157,395440,884360,0.988,0.036,-0.026,0,0,0,-33.6,6.2,27,0.168279061,0.701742607,-0.144383068,0.677022614
158,398172,884360,0.985,0.04,-0.026,0,0,0,-33.6,6.2,27,0.168279061,0.701742607,-0.144383068,0.677022614
159,400438,884370,0.988,0.036,-0.022,0,0,0,-35.7,5.8,26.8,0.168279061,0.701742607,-0.144383068,0.677022614
160,403126,884370,0.988,0.04,-0.022,0,-0.1,0,-35.7,5.8,26.8,0.168279061,0.701742607,-0.144383068,0.677022614
161,407260,884370,0.985,0.036,-0.022,0.1,0,0,-35.7,5.8,26.8,0.168279061,0.701742607,-0.144383068,0.677022614
162,407999,884370,0.985,0.04,-0.034,0.1,0,0,-35.7,5.8,26.8,0.168279061,0.701742607,-0.144383068,0.677022614
163,410603,884380,0.985,0.04,-0.026,0.1,0,0,-34.6,5.7,26.7,0.168279061,0.701742607,-0.144383068,0.677022614
164,413934,884380,0.985,0.036,-0.03,0.1,0,0,-34.6,5.7,26.7,0.168279061,0.701742607,-0.144383068,0.677022614
165,416859,884380,0.985,0.04,-0.026,0,0,0,-34.6,5.7,26.7,0.168279061,0.701742607,-0.144383068,0.677022614
166,418401,884380,0.988,0.04,-0.022,0,0,0,-34.6,5.7,26.7,0.168279061,0.701742607,-0.14435255,0.677022614
167,420853,884390,0.985,0.04,-0.026,0,0,0,-34.7,6,26.6,0.168279061,0.701742607,-0.144383068,0.677022614
168,422975,884390,0.988,0.04,-0.026,0,-0.2,0.1,-34.7,6,26.6,0.168279061,0.701742607,-0.144383068,0.677022614
169,425255,884390,0.985,0.04,-0.026,0,-0.3,0.1,-34.7,6,26.6,0.168279061,0.701742607,-0.144383068,0.676992096
170,429005,884390,0.985,0.04,-0.026,0,-0.3,0,-34.7,6,26.6,0.168279061,0.701742607,-0.144383068,0.676992096
171,431235,884400,0.985,0.04,-0.034,0,-0.3,0,-34.5,6.1,26.5,0.168279061,0.701773125,-0.144383068,0.676992096
172,433393,884400,0.988,0.04,-0.03,0,-0.2,-0.1,-34.5,6.1,26.5,0.168279061,0.701773125,-0.144383068,0.676992096
173,435655,884400,0.981,0.04,-0.03,0,-0.1,0,-34.5,6.1,26.5,0.168279061,0.701773125,-0.144383068,0.676992096
174,438449,884400,0.985,0.04,-0.026,0.1,-0.1,0,-34.5,6.1,26.5,0.168279061,0.701773125,-0.144383068,0.676992096
175,441374,884410,0.988,0.04,-0.03,0.1,-0.1,0,-34.6,6,26.6,0.168279061,0.701773125,-0.144383068,0.676992096
176,442894,884410,0.985,0.036,-0.03,0,-0.2,0,-34.6,6,26.6,0.168279061,0.701773125,-0.144383068,0.676992096
177,445665,884410,0.985,0.04,-0.022,0,-0.1,0,-34.6,6,26.6,0.168279061,0.701773125,-0.144383068,0.676992096
178,449048,884410,0.985,0.04,-0.03,0,0,0,-34.6,6,26.6,0.168279061,0.701773125,-0.144383068,0.676992096
179,450718,884420,0.988,0.036,-0.026,0,0.1,0,-34.8,6.2,26.7,0.168279061,0.701773125,-0.144383068,0.676992096
180,452873,884420,0.988,0.036,-0.03,0,0,0,-34.8,6.2,26.7,0.168279061,0.701773125,-0.144383068,0.676992096
181,455931,884420,0.985,0.04,-0.026,0,0,0,-34.8,6.2,26.7,0.168279061,0.701773125,-0.144383068,0.676992096
182,458007,884420,0.985,0.04,-0.026,0,0,0,-34.8,6.2,26.7,0.168279061,0.701773125,-0.144383068,0.676992096
183,460863,884430,0.985,0.04,-0.03,0,0,0,-35.5,5.8,27.1,0.168279061,0.701773125,-0.144383068,0.676992096
184,464129,884430,0.985,0.04,-0.026,0,0,0,-35.5,5.8,27.1,0.168279061,0.701773125,-0.144383068,0.676992096
185,465611,884430,0.985,0.036,-0.026,0,0,-0.1,-35.5,5.8,27.1,0.168279061,0.701773125,-0.144383068,0.676992096
186,468538,884430,0.985,0.04,-0.026,0,0,0,-35.5,5.8,27.1,0.168279061,0.701773125,-0.144383068,0.676992096
187,470131,884440,0.985,0.04,-0.022,0,0.1,0,-35,5.9,27.2,0.168279061,0.701773125,-0.144383068,0.676961577
188,472957,884440,0.988,0.04,-0.03,0,0.1,0,-35,5.9,27.2,0.168279061,0.701773125,-0.144383068,0.676961577
189,476101,884440,0.985,0.04,-0.026,0,0.1,-0.1,-35,5.9,27.2,0.168279061,0.701773125,-0.144383068,0.676961577
190,477677,884440,0.988,0.04,-0.03,0,0,0,-35,5.9,27.2,0.168279061,0.701773125,-0.144383068,0.676961577
191,480605,884450,0.985,0.044,-0.026,0,0,0,-35.4,6,28,0.168279061,0.701773125,-0.144383068,0.676961577
192,483606,884450,0.992,0.04,-0.022,0,0,0,-35.4,6,28,0.168279061,0.701773125,-0.144383068,0.676961577
193,485860,884450,0.985,0.04,-0.026,0.1,0,-0.1,-35.4,6,28,0.168279061,0.701773125,-0.14435255,0.676961577
194,488008,884450,0.985,0.04,-0.022,0,0.1,-0.1,-35.4,6,28,0.168279061,0.701773125,-0.14435255,0.676992096
195,490475,884460,0.988,0.04,-0.026,0,0.1,-0.1,-34.9,6.2,28.4,0.168279061,0.701773125,-0.14435255,0.676992096
196,492817,884460,0.981,0.036,-0.026,-0.1,0.1,0,-34.9,6.2,28.4,0.168279061,0.701773125,-0.14435255,0.676992096
197,497116,884460,0.981,0.04,-0.026,-0.1,0,0,-34.9,6.2,28.4,0.168279061,0.701773125,-0.14435255,0.676992096
198,499378,884460,0.988,0.04,-0.026,0,0,0,-34.9,6.2,28.4,0.168279061,0.701773125,-0.14435255,0.676992096
199,501655,884470,0.981,0.04,-0.022,0,0,-0.1,-35,6.1,25.1,0.16830958,0.701773125,-0.14435255,0.676992096
200,503881,884470,0.985,0.036,-0.022,0,0.1,-0.2,-35,6.1,25.1,0.16830958,0.701773125,-0.14435255,0.676992096
201,506146,884470,0.985,0.036,-0.03,0,0.1,-0.2,-35,6.1,25.1,0.16830958,0.701773125,-0.14435255,0.676992096
202,508404,884470,0.988,0.04,-0.022,0,0.1,-0.2,-35,6.1,25.1,0.16830958,0.701773125,-0.14435255,0.676992096
203,510943,884480,0.985,0.036,-0.026,0,0.1,0,-34.6,6.5,27.2,0.16830958,0.701773125,-0.14435255,0.676992096
204,512839,884480,0.992,0.04,-0.026,0,0,0,-34.6,6.5,27.2,0.16830958,0.701773125,-0.14435255,0.676992096
205,516610,884480,0.988,0.04,-0.022,0.1,0,0,-34.6,6.5,27.2,0.16830958,0.701773125,-0.14435255,0.676992096
206,518888,884480,0.988,0.04,-0.03,0.1,0,0,-34.6,6.5,27.2,0.16830958,0.701773125,-0.14435255,0.676992096
207,521445,884490,0.985,0.04,-0.03,0,-0.2,-0.2,-35,6.4,27.2,0.16830958,0.701773125,-0.14435255,0.676992096
208,523785,884490,0.985,0.04,-0.03,0,-0.2,-0.2,-35,6.4,27.2,0.16830958,0.701773125,-0.14435255,0.676992096
209,525712,884490,0.981,0.044,-0.034,0,-0.1,-0.1,-35,6.4,27.2,0.16830958,0.701773125,-0.14435255,0.676992096
210,528391,884490,0.985,0.044,-0.026,0,0.1,0,-35,6.4,27.2,0.16830958,0.701773125,-0.14435255,0.676992096
211,531029,884500,0.981,0.04,-0.026,0,0.1,0,-34.7,6.4,27.2,0.16830958,0.701773125,-0.14435255,0.676992096
212,533310,884500,0.985,0.036,-0.03,0,0.1,0,-34.7,6.4,27.2,0.16830958,0.701773125,-0.14435255,0.676992096
213,535437,884500,0.988,0.04,-0.03,0,0.1,-0.1,-34.7,6.4,27.2,0.16830958,0.701773125,-0.14435255,0.676992096
214,538071,884500,0.981,0.04,-0.026,0,0.1,0,-34.7,6.4,27.2,0.16830958,0.701773125,-0.14435255,0.676992096
215,542209,884510,0.985,0.04,-0.026,0,0,0,-34.8,6.1,26.8,0.16830958,0.701773125,-0.14435255,0.676992096
216,542889,884510,0.985,0.032,-0.026,0,0,0,-34.8,6.1,26.8,0.16830958,0.701773125,-0.14435255,0.676992096
217,545803,884510,0.988,0.036,-0.022,0,0,0,-34.8,6.1,26.8,0.16830958,0.701773125,-0.14435255,0.676992096
218,548076,884510,0.985,0.04,-0.034,0,0,0,-34.8,6.1,26.8,0.16830958,0.701773125,-0.14435255,0.676992096
219,550416,884520,0.985,0.04,-0.022,0,-0.1,0,-34.8,6.2,25.7,0.16830958,0.701773125,-0.14435255,0.676992096
220,554639,884520,0.985,0.04,-0.018,0,-0.1,0,-34.8,6.2,25.7,0.16830958,0.701773125,-0.14435255,0.676992096
221,555348,884520,0.988,0.036,-0.03,0,-0.1,0,-34.8,6.2,25.7,0.16830958,0.701773125,-0.14435255,0.676992096
222,558480,884520,0.988,0.036,-0.026,0,0,0,-34.8,6.2,25.7,0.16830958,0.701773125,-0.14435255,0.676992096
223,560738,884530,0.985,0.044,-0.026,0,0.1,0,-35.3,5.9,26,0.16830958,0.701773125,-0.14435255,0.676992096
224,563120,884530,0.985,0.036,-0.026,0,0.3,0,-35.3,5.9,26,0.16830958,0.701773125,-0.14435255,0.676992096
225,565447,884530,0.985,0.044,-0.026,0,0.3,0,-35.3,5.9,26,0.16830958,0.701773125,-0.14435255,0.676992096
226,568023,884530,0.985,0.04,-0.026,0.1,0.4,0,-35.3,5.9,26,0.16830958,0.701742607,-0.14435255,0.676992096
227,572170,884540,0.985,0.04,-0.026,0.1,0.2,0.1,-34.9,6.2,25.7,0.16830958,0.701742607,-0.144322031,0.676992096
228,574492,884540,0.985,0.04,-0.022,0.1,0.2,0.1,-34.9,6.2,25.7,0.16830958,0.701742607,-0.144322031,0.676992096
229,576151,884540,0.985,0.04,-0.026,0.1,0.1,0,-34.9,6.2,25.7,0.16830958,0.701742607,-0.144322031,0.676992096
230,578291,884540,0.985,0.04,-0.026,0,0,0,-34.9,6.2,25.7,0.16830958,0.701742607,-0.144322031,0.676992096
231,580575,884550,0.988,0.04,-0.026,0,0.1,0,-34.6,6,25.3,0.16830958,0.701742607,-0.144322031,0.677022614
232,583847,884550,0.988,0.04,-0.022,0,0.1,0,-34.6,6,25.3,0.16830958,0.701742607,-0.144322031,0.677022614
233,585374,884550,0.988,0.044,-0.026,0,0,0,-34.6,6,25.3,0.16830958,0.701742607,-0.144322031,0.677022614
234,589102,884550,0.985,0.04,-0.026,0.1,0,0,-34.6,6,25.3,0.16830958,0.701742607,-0.144322031,0.677022614
235,591320,884560,0.985,0.04,-0.026,0,-0.1,0,-34.9,6.2,25.6,0.16830958,0.701742607,-0.144322031,0.677022614
236,593606,884560,0.985,0.04,-0.03,0,-0.1,0,-34.9,6.2,25.6,0.16830958,0.701742607,-0.144322031,0.677022614
237,595945,884560,0.988,0.04,-0.026,-0.1,0,0,-34.9,6.2,25.6,0.16830958,0.701742607,-0.144322031,0.676992096
238,598317,884560,0.985,0.036,-0.026,-0.1,0,0,-34.9,6.2,25.6,0.16830958,0.701742607,-0.144322031,0.676992096
239,600287,884570,0.985,0.044,-0.026,-0.1,0,0,-35,6.2,26.8,0.16830958,0.701742607,-0.144322031,0.676992096
240,602843,884570,0.988,0.036,-0.026,0,0,0,-35,6.2,26.8,0.16830958,0.701742607,-0.144322031,0.676992096
241,606279,884570,0.981,0.036,-0.026,0,0.1,0,-35,6.2,26.8,0.16830958,0.701742607,-0.144322031,0.676992096
242,607857,884570,0.985,0.036,-0.026,0.1,0.1,0,-35,6.2,26.8,0.16830958,0.701742607,-0.144322031,0.677022614
243,611611,884580,0.985,0.04,-0.026,0.1,0.1,0,-34.8,6.1,26.8,0.16830958,0.701742607,-0.144322031,0.677022614
244,613038,884580,0.985,0.036,-0.026,0,0.1,0,-34.8,6.1,26.8,0.16830958,0.701742607,-0.144322031,0.677022614
245,615880,884580,0.988,0.04,-0.03,0,0.1,0,-34.8,6.1,26.8,0.16830958,0.701742607,-0.144322031,0.677022614
246,618896,884580,0.985,0.036,-0.026,0,0.1,-0.1,-34.8,6.1,26.8,0.16830958,0.701742607,-0.144322031,0.677022614
247,620554,884590,0.988,0.04,-0.026,0,0,0,-35,5.7,26.5,0.16830958,0.701742607,-0.14435255,0.677022614
248,624296,884590,0.988,0.036,-0.026,0,0,0,-35,5.7,26.5,0.16830958,0.701742607,-0.14435255,0.677022614
249,625810,884590,0.988,0.044,-0.03,0,0,0.1,-35,5.7,26.5,0.16830958,0.701742607,-0.14435255,0.677022614
250,628002,884590,0.988,0.04,-0.022,0,0,0.2,-35,5.7,26.5,0.168279061,0.701742607,-0.14435255,0.677022614
251,631029,884600,0.988,0.036,-0.022,0,0,0,-34.9,5.6,26.4,0.168279061,0.701742607,-0.14435255,0.677022614
252,633229,884600,0.985,0.036,-0.018,0,-0.1,0,-34.9,5.6,26.4,0.168279061,0.701742607,-0.14435255,0.677022614
253,636296,884600,0.981,0.036,-0.03,0,-0.1,-0.1,-34.9,5.6,26.4,0.16830958,0.701742607,-0.14435255,0.676992096
254,639063,884600,0.981,0.04,-0.018,0,-0.1,0,-34.9,5.6,26.4,0.16830958,0.701742607,-0.14435255,0.676992096
255,640626,884610,0.988,0.036,-0.022,0,0,0,-35.1,4.6,26.5,0.16830958,0.701742607,-0.14435255,0.676992096
256,643758,884610,0.985,0.04,-0.022,0,0.1,0,-35.1,4.6,26.5,0.16830958,0.701742607,-0.14435255,0.676992096
257,645905,884610,0.985,0.04,-0.026,0,0,0,-35.1,4.6,26.5,0.16830958,0.701742607,-0.14435255,0.676992096
258,648173,884610,0.988,0.044,-0.026,0,-0.1,0,-35.1,4.6,26.5,0.16830958,0.701742607,-0.14435255,0.676992096
259,650492,884620,0.988,0.04,-0.022,0,-0.1,0,-34.9,7.2,28,0.16830958,0.701742607,-0.14435255,0.676992096
260,654204,884620,0.985,0.036,-0.026,0.1,-0.1,0,-34.9,7.2,28,0.168279061,0.701742607,-0.14435255,0.676992096
261,655719,884620,0.985,0.04,-0.026,0.1,0,0,-34.9,7.2,28,0.168279061,0.701773125,-0.14435255,0.676992096
262,657795,884620,0.988,0.036,-0.026,0,0,0,-34.9,7.2,28,0.168279061,0.701773125,-0.14435255,0.676992096
263,661031,884630,0.992,0.044,-0.03,0,0,0,-34.7,5,25.7,0.168279061,0.701773125,-0.144322031,0.676992096
264,663777,884630,0.985,0.04,-0.03,0.1,0,0,-34.7,5,25.7,0.168279061,0.701773125,-0.144322031,0.676992096
265,666865,884630,0.988,0.044,-0.022,0.1,0.1,0,-34.7,5,25.7,0.168279061,0.701773125,-0.144322031,0.676992096
266,668316,884630,0.988,0.04,-0.022,0,0.1,0,-34.7,5,25.7,0.168279061,0.701742607,-0.144322031,0.676992096
267,671447,884640,0.985,0.032,-0.022,-0.1,0.1,0,-35,4.6,25.8,0.16830958,0.701773125,-0.144322031,0.676992096
268,672896,884640,0.985,0.032,-0.022,-0.1,0.1,0,-35,4.6,25.8,0.16830958,0.701773125,-0.144322031,0.676992096
269,675242,884640,0.985,0.04,-0.026,-0.1,0.1,0,-35,4.6,25.8,0.16830958,0.701742607,-0.144322031,0.676992096
270,678927,884640,0.985,0.036,-0.03,-0.1,0.1,0,-35,4.6,25.8,0.16830958,0.701742607,-0.144322031,0.676992096
271,680372,884650,0.985,0.04,-0.026,0,0.1,0,-34.8,5,25.8,0.168340098,0.701742607,-0.144322031,0.676992096
272,684241,884650,0.988,0.04,-0.026,0,0.1,-0.1,-34.8,5,25.8,0.168340098,0.701742607,-0.144322031,0.676992096
273,686413,884650,0.985,0.04,-0.026,0.1,0.2,-0.1,-34.8,5,25.8,0.168340098,0.701742607,-0.144322031,0.677022614
274,687986,884650,0.981,0.036,-0.026,0.1,0.2,-0.1,-34.8,5,25.8,0.168340098,0.701742607,-0.144291513,0.677022614
275,691733,884660,0.988,0.036,-0.022,0,0.1,-0.1,-35,5.3,25.6,0.168340098,0.701742607,-0.144291513,0.677022614
276,693209,884660,0.988,0.04,-0.026,0,0,-0.1,-35,5.3,25.6,0.168340098,0.701742607,-0.144291513,0.677022614
277,695451,884660,0.985,0.048,-0.03,0,-0.1,0,-35,5.3,25.6,0.168340098,0.701742607,-0.144291513,0.677022614
278,697745,884660,0.988,0.04,-0.026,0,-0.1,0,-35,5.3,25.6,0.168340098,0.701742607,-0.144291513,0.677022614
279,701444,884670,0.985,0.036,-0.03,0,0,0,-35.1,7,26.7,0.168340098,0.701742607,-0.144291513,0.676992096
280,702966,884670,0.985,0.04,-0.026,0,0,0,-35.1,7,26.7,0.168340098,0.701742607,-0.144291513,0.677022614
281,705428,884670,0.985,0.036,-0.026,0,0.1,0,-35.1,7,26.7,0.168340098,0.701742607,-0.144291513,0.677022614
282,708823,884670,0.988,0.04,-0.022,0,0.1,0,-35.1,7,26.7,0.168340098,0.701742607,-0.144291513,0.677022614
283,710403,884680,0.985,0.04,-0.026,0,0.1,0,-35,5.9,26.6,0.168340098,0.701742607,-0.144291513,0.677022614
284,714180,884680,0.985,0.04,-0.022,0,0.1,0,-35,5.9,26.6,0.168340098,0.701742607,-0.144291513,0.677022614
285,716353,884680,0.988,0.04,-0.022,0,0.1,0,-35,5.9,26.6,0.168340098,0.701742607,-0.144291513,0.677022614
286,717863,884680,0.988,0.04,-0.022,0,0.1,0,-35,5.9,26.6,0.168340098,0.701742607,-0.144291513,0.677022614
287,720352,884690,0.988,0.044,-0.026,0,-0.1,0,-34.7,6.8,26.7,0.168370617,0.701712088,-0.144291513,0.677053133
288,722627,884690,0.985,0.04,-0.022,0,-0.1,0,-34.7,6.8,26.7,0.168370617,0.701712088,-0.144291513,0.677053133
289,726084,884690,0.985,0.04,-0.022,0,-0.1,0,-34.7,6.8,26.7,0.168370617,0.701712088,-0.144291513,0.677022614
290,727716,884690,0.988,0.036,-0.026,0,0,0,-34.7,6.8,26.7,0.168340098,0.701712088,-0.144291513,0.677022614
291,730197,884700,0.985,0.044,-0.022,0,0,0,-34.8,7.4,26.4,0.168340098,0.701712088,-0.144291513,0.677022614
292,734428,884700,0.985,0.044,-0.03,0.1,0.3,0,-34.8,7.4,26.4,0.168340098,0.701712088,-0.144291513,0.677053133
293,735956,884700,0.988,0.04,-0.026,0,0.4,0.2,-34.8,7.4,26.4,0.168340098,0.701712088,-0.144291513,0.677053133
294,737665,884700,0.985,0.036,-0.026,0,0.5,0.2,-34.8,7.4,26.4,0.168340098,0.701712088,-0.144291513,0.677053133
295,740299,884710,0.988,0.044,-0.026,0,0.3,0,-34.9,7.3,26.8,0.168340098,0.70168157,-0.144291513,0.677053133
296,743341,884710,0.985,0.04,-0.022,0,0.1,0,-34.9,7.3,26.8,0.168340098,0.70168157,-0.144291513,0.677053133
297,746445,884710,0.985,0.044,-0.03,0,0,0,-34.9,7.3,26.8,0.168340098,0.70168157,-0.144291513,0.677053133
298,748682,884710,0.985,0.044,-0.022,0,0,0,-34.9,7.3,26.8,0.168340098,0.70168157,-0.144291513,0.677053133
299,750182,884720,0.981,0.04,-0.03,0,0,0,-35,6,26.8,0.168340098,0.70168157,-0.144291513,0.677053133
300,752841,884720,0.988,0.04,-0.026,0,0,0.1,-35,6,26.8,0.168340098,0.70168157,-0.144291513,0.677053133
301,756141,884720,0.988,0.04,-0.022,0,0,0,-35,6,26.8,0.168340098,0.70168157,-0.144291513,0.677053133
302,758962,884720,0.985,0.036,-0.022,0,0,0,-35,6,26.8,0.168340098,0.70168157,-0.144291513,0.677053133
303,760860,884730,0.988,0.04,-0.026,0.1,0,0,-34.9,6.4,26.7,0.168340098,0.70168157,-0.144291513,0.677053133
304,762785,884730,0.985,0.04,-0.03,0,0,0,-34.9,6.4,26.7,0.168340098,0.70168157,-0.144291513,0.677053133
305,765086,884730,0.981,0.04,-0.026,0,0,0,-34.9,6.4,26.7,0.168340098,0.70168157,-0.144291513,0.677053133
306,768151,884730,0.985,0.044,-0.026,0,0.1,0,-34.9,6.4,26.7,0.168340098,0.70168157,-0.144291513,0.677083651
307,770352,884740,0.985,0.044,-0.03,0,0.1,0,-35,6.3,26.6,0.168370617,0.701712088,-0.144260994,0.677053133
308,773458,884740,0.985,0.04,-0.026,0,0.1,0,-35,6.3,26.6,0.168370617,0.701712088,-0.144260994,0.677053133
309,776456,884740,0.988,0.044,-0.03,0,0.1,0,-35,6.3,26.6,0.168370617,0.701712088,-0.144260994,0.677053133
310,778370,884740,0.985,0.04,-0.022,0,0.2,0,-35,6.3,26.6,0.168370617,0.701712088,-0.144260994,0.677053133
311,780380,884750,0.985,0.04,-0.026,0,0.2,0,-35,6.6,26.9,0.168370617,0.70168157,-0.144260994,0.677053133
312,782697,884750,0.985,0.04,-0.026,0,0.2,0,-35,6.6,26.9,0.168370617,0.70168157,-0.144260994,0.677053133
313,785767,884750,0.981,0.036,-0.026,0,0.1,0,-35,6.6,26.9,0.168370617,0.70168157,-0.144260994,0.677053133
314,788769,884750,0.985,0.04,-0.03,0,0,0.1,-35,6.6,26.9,0.168370617,0.70168157,-0.144260994,0.677083651
315,790778,884760,0.985,0.036,-0.03,0,0,0.1,-35.7,6.2,26.9,0.168370617,0.70168157,-0.144260994,0.677083651
316,792637,884760,0.985,0.04,-0.022,0,0,0,-35.7,6.2,26.9,0.168370617,0.70168157,-0.144260994,0.677083651
317,796147,884760,0.985,0.04,-0.022,0,0,0,-35.7,6.2,26.9,0.168370617,0.70168157,-0.144260994,0.677083651
318,798332,884760,0.985,0.04,-0.03,0,0,0,-35.7,6.2,26.9,0.168370617,0.70168157,-0.144260994,0.677083651
319,801323,884770,0.985,0.04,-0.022,0,0,0,-35.7,6.2,26.9,0.168370617,0.70168157,-0.144260994,0.677083651
320,802894,884770,0.985,0.04,-0.026,0,0,0,-35.7,6.2,26.9,0.168370617,0.70168157,-0.144260994,0.677083651
321,805934,884770,0.988,0.04,-0.026,0,0,0,-35.7,6.2,26.9,0.168370617,0.70168157,-0.144260994,0.677053133
322,808956,884770,0.985,0.044,-0.026,-0.1,0,0,-35.7,6.2,26.9,0.168370617,0.70168157,-0.144291513,0.677053133
323,810410,884780,0.985,0.04,-0.026,-0.1,0,0,-36.6,6.1,26.7,0.168370617,0.70168157,-0.144291513,0.677053133
324,813673,884780,0.985,0.036,-0.03,-0.1,0.1,0,-36.6,6.1,26.7,0.168370617,0.70168157,-0.144291513,0.677053133
325,815748,884780,0.981,0.036,-0.03,0,0.1,0,-36.6,6.1,26.7,0.168370617,0.70168157,-0.144291513,0.677083651
326,818720,884780,0.988,0.036,-0.026,0,0.2,0,-36.6,6.1,26.7,0.168370617,0.70168157,-0.144291513,0.677083651
327,820373,884790,0.985,0.036,-0.03,0.1,0.1,0,-36.8,6.2,26.8,0.168340098,0.701712088,-0.144322031,0.677053133
328,823148,884790,0.985,0.036,-0.03,0.1,0.1,0,-36.8,6.2,26.8,0.168340098,0.70168157,-0.144291513,0.677053133
329,826148,884790,0.988,0.04,-0.022,0.1,0,0,-36.8,6.2,26.8,0.168340098,0.701712088,-0.144291513,0.677053133
330,828431,884790,0.988,0.036,-0.022,0.1,0,0,-36.8,6.2,26.8,0.168340098,0.701712088,-0.144291513,0.677053133
331,830619,884800,0.985,0.04,-0.022,0,-0.1,0,-37,5.9,27,0.168340098,0.701712088,-0.144291513,0.677053133
332,834506,884800,0.988,0.044,-0.03,0,-0.1,0,-37,5.9,27,0.168340098,0.701712088,-0.144291513,0.677053133
333,836773,884800,0.985,0.04,-0.03,0,-0.1,0,-37,5.9,27,0.168340098,0.701712088,-0.144291513,0.677053133
334,839019,884800,0.988,0.04,-0.022,0,0,0,-37,5.9,27,0.168340098,0.701712088,-0.144291513,0.677053133
335,841266,884810,0.985,0.032,-0.026,0.1,0,0,-36.9,6.1,26.9,0.168340098,0.701712088,-0.144291513,0.677053133
336,843469,884810,0.985,0.044,-0.03,0.1,0,0,-36.9,6.1,26.9,0.168340098,0.701712088,-0.144291513,0.677053133
337,845645,884810,0.985,0.04,-0.026,0,0,0,-36.9,6.1,26.9,0.168340098,0.701712088,-0.144291513,0.677053133
338,847992,884810,0.985,0.036,-0.022,0,0,0,-36.9,6.1,26.9,0.168340098,0.701712088,-0.144291513,0.677053133
339,850541,884820,0.985,0.04,-0.03,0,0,0.2,-36.9,6.1,26.9,0.168340098,0.701712088,-0.144291513,0.677053133
340,853452,884820,0.988,0.04,-0.026,0,0,0.1,-36.9,6.1,26.9,0.16830958,0.701712088,-0.144322031,0.677053133
341,855744,884820,0.988,0.04,-0.026,0,0,0,-36.9,6.1,26.9,0.16830958,0.701712088,-0.144322031,0.677053133
342,858041,884820,0.988,0.044,-0.014,-0.1,0,0,-36.9,6.1,26.9,0.168340098,0.701712088,-0.144322031,0.677053133
343,861438,884830,0.985,0.04,-0.03,0,0,0,-36.2,6.6,26.5,0.168340098,0.701712088,-0.144322031,0.677053133
344,863782,884830,0.985,0.04,-0.026,0,0,0,-36.2,6.6,26.5,0.168340098,0.701712088,-0.144322031,0.677053133
345,865924,884830,0.985,0.04,-0.026,0,-0.1,0,-36.2,6.6,26.5,0.168340098,0.701712088,-0.144322031,0.677053133
346,868112,884830,0.988,0.04,-0.026,0,-0.1,0,-36.2,6.6,26.5,0.168340098,0.701712088,-0.144322031,0.677053133
347,870467,884840,0.985,0.044,-0.026,0,0,0,-35.5,6.2,26.8,0.168340098,0.701742607,-0.144291513,0.677022614
348,873067,884840,0.985,0.044,-0.026,0,0,0,-35.5,6.2,26.8,0.168340098,0.701742607,-0.144322031,0.677022614
349,876598,884840,0.988,0.04,-0.026,-0.1,0,0,-35.5,6.2,26.8,0.168340098,0.701742607,-0.144322031,0.677022614
350,878958,884840,0.985,0.04,-0.026,0,0.1,0,-35.5,6.2,26.8,0.168340098,0.701742607,-0.144322031,0.677022614
351,881458,884850,0.985,0.04,-0.026,0,0,0,-35.1,6.2,26.8,0.168340098,0.701742607,-0.144322031,0.677022614
352,883548,884850,0.985,0.04,-0.022,0,0,0,-35.1,6.2,26.8,0.168340098,0.701742607,-0.144322031,0.677022614
353,885575,884850,0.985,0.04,-0.03,0,0,0,-35.1,6.2,26.8,0.168340098,0.701742607,-0.144322031,0.677022614
354,888136,884850,0.985,0.04,-0.022,0,0,0,-35.1,6.2,26.8,0.168340098,0.701742607,-0.144322031,0.677022614
355,890293,884860,0.985,0.04,-0.022,0,-0.1,0,-34.6,6.4,26.5,0.168340098,0.701742607,-0.144322031,0.677022614
356,893341,884860,0.985,0.04,-0.022,0,-0.1,0,-34.6,6.4,26.5,0.168340098,0.701742607,-0.144322031,0.677022614
357,895744,884860,0.988,0.04,-0.03,0,0,0,-34.6,6.4,26.5,0.168340098,0.701742607,-0.144322031,0.677022614
358,898149,884860,0.988,0.04,-0.022,0.1,0,0.1,-34.6,6.4,26.5,0.168340098,0.701742607,-0.144322031,0.677022614
359,900340,884870,0.988,0.04,-0.022,0,0.1,0,-34.6,6.4,26.5,0.168340098,0.701742607,-0.144322031,0.677022614
360,904874,884870,0.985,0.04,-0.026,0,0.2,0.1,-34.6,6.4,26.5,0.168340098,0.701712088,-0.144322031,0.677022614
361,905889,884870,0.985,0.04,-0.026,0,0.2,0.2,-34.6,6.4,26.5,0.168340098,0.701712088,-0.144322031,0.677022614
362,907909,884870,0.981,0.036,-0.026,0,0.1,0.2,-34.6,6.4,26.5,0.168340098,0.701712088,-0.144322031,0.677022614
363,911456,884880,0.988,0.036,-0.022,0,0,0.2,-35.1,6.2,26.6,0.168340098,0.701712088,-0.144322031,0.677022614
364,913715,884880,0.985,0.044,-0.022,0,0,0.1,-35.1,6.2,26.6,0.16830958,0.701712088,-0.144322031,0.677022614
365,916065,884880,0.985,0.04,-0.022,0,0,0,-35.1,6.2,26.6,0.16830958,0.701712088,-0.144322031,0.677022614
366,917936,884880,0.988,0.04,-0.022,0,0.1,0,-35.1,6.2,26.6,0.168340098,0.701712088,-0.144322031,0.677053133
367,920777,884890,0.985,0.036,-0.03,0,0.1,-0.1,-35.2,6,26.7,0.168340098,0.70168157,-0.144322031,0.677083651
368,922780,884890,0.988,0.04,-0.022,0,0.1,-0.1,-35.2,6,26.7,0.168340098,0.70168157,-0.144322031,0.677083651
369,925651,884890,0.988,0.04,-0.026,0,0,-0.1,-35.2,6,26.7,0.168340098,0.70168157,-0.144322031,0.677083651
370,928692,884890,0.985,0.036,-0.026,0,0,0,-35.2,6,26.7,0.168340098,0.70168157,-0.144322031,0.677083651
371,931308,884900,0.985,0.04,-0.026,0,0,0.1,-35.2,6,27.1,0.168340098,0.70168157,-0.144322031,0.677083651
372,932929,884900,0.985,0.04,-0.026,0,0,0.2,-35.2,6,27.1,0.168340098,0.70168157,-0.144322031,0.677083651
373,935427,884900,0.988,0.04,-0.03,0,0.1,0.1,-35.2,6,27.1,0.168340098,0.70168157,-0.144322031,0.677083651
374,938888,884900,0.985,0.044,-0.022,0,0.1,0,-35.2,6,27.1,0.168340098,0.701651051,-0.144322031,0.677083651
375,940416,884910,0.985,0.04,-0.026,0,0.2,0,-35,6.2,27,0.168340098,0.701651051,-0.144322031,0.677083651
376,942934,884910,0.981,0.04,-0.026,0,0.1,0,-35,6.2,27,0.168340098,0.701651051,-0.144322031,0.677083651
377,945615,884910,0.985,0.04,-0.022,0,0.1,0,-35,6.2,27,0.168340098,0.701651051,-0.144322031,0.677083651
378,949437,884910,0.985,0.04,-0.022,0,0,0,-35,6.2,27,0.168340098,0.701651051,-0.144322031,0.677083651
379,951795,884920,0.985,0.036,-0.026,0,0,0,-35,6.2,27,0.168340098,0.701651051,-0.144322031,0.677083651
380,953671,884920,0.985,0.036,-0.022,0,0,0,-35,6.2,27,0.168340098,0.701651051,-0.144322031,0.677083651
381,955352,884920,0.988,0.036,-0.026,-0.1,0,0,-35,6.2,27,0.168340098,0.701651051,-0.144322031,0.677083651
382,958546,884920,0.988,0.04,-0.026,0,0.1,0,-35,6.2,27,0.168340098,0.701651051,-0.144322031,0.677083651
383,960828,884930,0.988,0.04,-0.022,0,0,0,-34.2,6.1,27.1,0.168340098,0.701651051,-0.144322031,0.677083651
384,962995,884930,0.988,0.04,-0.03,0,0,0,-34.2,6.1,27.1,0.168340098,0.701651051,-0.144322031,0.677083651
385,965266,884930,0.988,0.036,-0.026,0,0,0,-34.2,6.1,27.1,0.168340098,0.701651051,-0.144322031,0.677083651
386,968526,884930,0.981,0.04,-0.026,0,0,0,-34.2,6.1,27.1,0.168340098,0.701651051,-0.144322031,0.677083651
387,971369,884940,0.985,0.044,-0.026,0,-0.1,0,-34,6,26.9,0.168340098,0.701651051,-0.144322031,0.677083651
388,972871,884940,0.988,0.044,-0.026,0,-0.1,-0.1,-34,6,26.9,0.168340098,0.701651051,-0.144322031,0.677083651
389,976314,884940,0.985,0.036,-0.03,0,-0.1,-0.2,-34,6,26.9,0.168340098,0.70168157,-0.144322031,0.677083651
390,977955,884940,0.985,0.036,-0.026,0,-0.1,-0.2,-34,6,26.9,0.168340098,0.70168157,-0.144322031,0.677083651
391,981796,884950,0.981,0.036,-0.022,0,0,-0.1,-34,6.1,27.2,0.168370617,0.70168157,-0.144322031,0.677083651
392,984007,884950,0.985,0.04,-0.03,0,0,0,-34,6.1,27.2,0.168370617,0.70168157,-0.144322031,0.677083651
393,986155,884950,0.988,0.04,-0.026,0,0,0,-34,6.1,27.2,0.168370617,0.70168157,-0.144322031,0.677083651
394,988440,884950,0.985,0.036,-0.026,0.1,0,0.1,-34,6.1,27.2,0.168340098,0.70168157,-0.144322031,0.677083651
395,991206,884960,0.985,0.04,-0.03,0.1,0.1,0.1,-34.1,6.3,26.6,0.168340098,0.70168157,-0.144322031,0.677083651
396,993875,884960,0.985,0.04,-0.03,0,0.1,0,-34.1,6.3,26.6,0.168340098,0.701651051,-0.144322031,0.677083651
397,996790,884960,0.988,0.04,-0.034,0,0.1,0,-34.1,6.3,26.6,0.168340098,0.701651051,-0.144322031,0.677083651
398,999030,884960,0.988,0.04,-0.026,-0.1,0.1,0,-34.1,6.3,26.6,0.168340098,0.701651051,-0.144322031,0.677083651
399,1000611,884970,0.981,0.044,-0.022,-0.1,0.2,0,-34.1,6.3,26.6,0.168370617,0.701651051,-0.144322031,0.677083651
400,1002797,884970,0.988,0.04,-0.022,-0.1,0.2,0,-34.1,6.3,26.6,0.168370617,0.701651051,-0.144322031,0.677083651
401,1005437,884970,0.985,0.04,-0.018,-0.1,0.2,0,-34.1,6.3,26.6,0.168370617,0.701651051,-0.144322031,0.67711417
402,1007959,884970,0.985,0.04,-0.022,0,0.1,0,-34.1,6.3,26.6,0.168370617,0.701651051,-0.144322031,0.67711417
403,1010883,884980,0.985,0.04,-0.026,0,0,0,-33.7,6.3,27.2,0.168370617,0.701651051,-0.144322031,0.67711417
404,1012981,884980,0.981,0.036,-0.022,0,-0.1,0,-33.7,6.3,27.2,0.168370617,0.701651051,-0.144322031,0.67711417
405,1015266,884980,0.981,0.036,-0.026,0,-0.1,0,-33.7,6.3,27.2,0.168370617,0.701651051,-0.144322031,0.67711417
406,1018963,884980,0.985,0.044,-0.03,0,0,0,-33.7,6.3,27.2,0.168370617,0.701651051,-0.144322031,0.677083651
407,1020462,884990,0.985,0.048,-0.026,0,0,-0.1,-34,6.4,27,0.168370617,0.701651051,-0.144322031,0.677083651
408,1023426,884990,0.985,0.048,-0.026,0,0.1,0,-34,6.4,27,0.168370617,0.701651051,-0.144322031,0.677083651
409,1026117,884990,0.988,0.044,-0.026,0,0.1,0,-34,6.4,27,0.168370617,0.701651051,-0.144322031,0.677083651
410,1029194,884990,0.988,0.04,-0.03,0,0.1,0,-34,6.4,27,0.168370617,0.701651051,-0.144322031,0.677083651
411,1031402,885000,0.985,0.036,-0.03,0,0,0,-33.7,6.3,27,0.168370617,0.701651051,-0.144322031,0.677083651
412,1033643,885000,0.988,0.04,-0.026,0,0,0,-33.7,6.3,27,0.168370617,0.701651051,-0.144322031,0.67711417
413,1036561,885000,0.985,0.04,-0.022,0,0.1,0,-33.7,6.3,27,0.168370617,0.701651051,-0.144322031,0.67711417
414,1038193,885000,0.988,0.04,-0.026,0,0.1,0,-33.7,6.3,27,0.168370617,0.701651051,-0.144322031,0.67711417
415,1040413,885010,0.988,0.04,-0.022,0,0.2,0,-33.8,6.3,27,0.168370617,0.701651051,-0.144322031,0.67711417
416,1043290,885010,0.985,0.04,-0.026,0,0.1,0,-33.8,6.3,27,0.168370617,0.701651051,-0.144322031,0.67711417
417,1046317,885010,0.985,0.036,-0.03,0,0.2,0,-33.8,6.3,27,0.168370617,0.701620533,-0.144322031,0.67711417
418,1047932,885010,0.981,0.04,-0.026,0,0.2,0,-33.8,6.3,27,0.168370617,0.701620533,-0.144322031,0.67711417
419,1050916,885020,0.985,0.044,-0.03,0.1,0.2,0,-33.8,6.3,27,0.168370617,0.701620533,-0.144322031,0.67711417
420,1052993,885020,0.985,0.036,-0.026,0.1,0.1,0,-33.8,6.3,27,0.168370617,0.701620533,-0.144291513,0.67711417
421,1056140,885020,0.985,0.04,-0.022,0.1,0,0,-33.8,6.3,27,0.168370617,0.701620533,-0.144291513,0.67711417
422,1058245,885020,0.988,0.04,-0.026,0,0.1,0,-33.8,6.3,27,0.168370617,0.701620533,-0.144291513,0.67711417
423,1061487,885030,0.985,0.036,-0.022,0,0,0,-34.7,6.2,26.7,0.168370617,0.701620533,-0.144291513,0.67711417
424,1063153,885030,0.985,0.04,-0.022,0,0,-0.1,-34.7,6.2,26.7,0.168370617,0.701620533,-0.144291513,0.67711417
425,1065468,885030,0.985,0.04,-0.018,0,-0.1,-0.1,-34.7,6.2,26.7,0.168370617,0.701620533,-0.144291513,0.67711417
426,1068738,885030,0.985,0.036,-0.03,0,-0.1,0,-34.7,6.2,26.7,0.168370617,0.701620533,-0.144291513,0.67711417
427,1070468,885040,0.988,0.044,-0.022,0.1,-0.1,0,-34.9,6.4,26.6,0.168370617,0.701620533,-0.144291513,0.677144688
428,1073123,885040,0.992,0.036,-0.026,0.1,-0.1,0,-34.9,6.4,26.6,0.168370617,0.701620533,-0.144291513,0.677144688
429,1076426,885040,0.992,0.04,-0.026,0,0,0,-34.9,6.4,26.6,0.168370617,0.701620533,-0.144291513,0.677144688
430,1078458,885040,0.988,0.04,-0.026,0,0,0,-34.9,6.4,26.6,0.168370617,0.701620533,-0.144291513,0.677144688
431,1081621,885050,0.985,0.04,-0.026,0,0,0,-34.7,6.4,27.2,0.168370617,0.701620533,-0.144291513,0.677144688
432,1083926,885050,0.981,0.036,-0.026,0,0,0,-34.7,6.4,27.2,0.168370617,0.701620533,-0.144291513,0.677144688
433,1085727,885050,0.981,0.04,-0.03,0,0.1,0,-34.7,6.4,27.2,0.168370617,0.701620533,-0.144291513,0.677144688
434,1088885,885050,0.981,0.04,-0.022,0,0.1,-0.1,-34.7,6.4,27.2,0.168370617,0.701620533,-0.144291513,0.677144688
435,1091177,885060,0.981,0.036,-0.022,0,0.2,-0.1,-34.4,6.1,27.1,0.168370617,0.701590014,-0.144291513,0.677144688
436,1093473,885060,0.981,0.04,-0.03,0,0.1,-0.1,-34.4,6.1,27.1,0.168370617,0.701590014,-0.144291513,0.677144688
437,1095412,885060,0.988,0.04,-0.03,0,0,-0.1,-34.4,6.1,27.1,0.168370617,0.701590014,-0.144291513,0.677144688
438,1098703,885060,0.985,0.04,-0.03,0,-0.1,0,-34.4,6.1,27.1,0.168370617,0.701590014,-0.144291513,0.677144688
439,1100958,885070,0.988,0.04,-0.026,0,-0.2,0,-34.4,6.1,27.1,0.168370617,0.701620533,-0.144291513,0.677144688
440,1102778,885070,0.988,0.036,-0.026,0,-0.1,0,-34.4,6.1,27.1,0.168370617,0.701620533,-0.144291513,0.677144688
441,1105714,885070,0.985,0.04,-0.026,0,-0.1,-0.1,-34.4,6.1,27.1,0.168401135,0.701620533,-0.144291513,0.677144688
442,1108903,885070,0.988,0.036,-0.022,0,-0.1,0,-34.4,6.1,27.1,0.168401135,0.701620533,-0.144291513,0.677144688
443,1111131,885080,0.988,0.04,-0.018,0,0,0,-34.7,5.8,27.2,0.168401135,0.701620533,-0.144291513,0.677144688
444,1113224,885080,0.985,0.044,-0.026,0,0,0,-34.7,5.8,27.2,0.168401135,0.701620533,-0.144291513,0.677144688
445,1116286,885080,0.985,0.044,-0.026,-0.1,0,0,-34.7,5.8,27.2,0.168401135,0.701620533,-0.144291513,0.677144688
446,1118530,885080,0.985,0.04,-0.03,-0.1,0.1,0,-34.7,5.8,27.2,0.168401135,0.701620533,-0.144291513,0.677144688
447,1120577,885090,0.985,0.036,-0.026,-0.1,0.2,0,-34.7,6,27.7,0.168401135,0.701620533,-0.144260994,0.677144688
448,1123508,885090,0.985,0.036,-0.022,0,0.2,0,-34.7,6,27.7,0.168401135,0.701620533,-0.144260994,0.677144688
449,1126784,885090,0.981,0.036,-0.022,0,0.1,0,-34.7,6,27.7,0.168431654,0.701590014,-0.144260994,0.677144688
450,1128915,885090,0.981,0.04,-0.026,0,0.1,0,-34.7,6,27.7,0.168431654,0.701590014,-0.144260994,0.677144688
451,1130414,885100,0.985,0.04,-0.022,0,0,0,-34.6,6.2,27.8,0.168401135,0.701590014,-0.144260994,0.677144688
452,1134003,885100,0.985,0.04,-0.026,0,0,0,-34.6,6.2,27.8,0.168401135,0.701590014,-0.144260994,0.677144688
453,1135633,885100,0.985,0.04,-0.022,0,0,0,-34.6,6.2,27.8,0.168401135,0.701590014,-0.144260994,0.677144688
454,1138652,885100,0.988,0.04,-0.03,0,0.1,0,-34.6,6.2,27.8,0.168401135,0.701590014,-0.144260994,0.677144688
455,1140829,885110,0.988,0.04,-0.022,0.1,0,-0.2,-34.8,5.7,27.6,0.168401135,0.701590014,-0.144260994,0.677144688
456,1143179,885110,0.988,0.04,-0.026,0,0,-0.2,-34.8,5.7,27.6,0.168431654,0.701590014,-0.144260994,0.677144688
457,1145429,885110,0.988,0.04,-0.026,0,0,0,-34.8,5.7,27.6,0.168431654,0.701590014,-0.144260994,0.677144688
458,1147905,885110,0.988,0.044,-0.022,0,0,0,-34.8,5.7,27.6,0.168431654,0.701590014,-0.144260994,0.677144688
459,1151646,885120,0.985,0.036,-0.022,0,0,0,-34.8,5.7,27.6,0.168431654,0.701590014,-0.144260994,0.677144688
460,1153955,885120,0.981,0.044,-0.026,0,0,0,-34.8,5.7,27.6,0.168431654,0.701590014,-0.144260994,0.677144688
461,1156033,885120,0.985,0.044,-0.026,0,0,0,-34.8,5.7,27.6,0.168431654,0.701590014,-0.144260994,0.677144688
462,1158363,885120,0.985,0.036,-0.026,0,0,0,-34.8,5.7,27.6,0.168431654,0.701590014,-0.144260994,0.677144688
463,1160645,885130,0.985,0.04,-0.026,0,-0.1,-0.1,-34.8,6.3,27.1,0.168431654,0.701590014,-0.144260994,0.677144688
464,1162990,885130,0.988,0.04,-0.03,0,-0.1,-0.1,-34.8,6.3,27.1,0.168431654,0.701620533,-0.144260994,0.677144688
465,1167008,885130,0.985,0.04,-0.022,0,0,0,-34.8,6.3,27.1,0.168431654,0.701620533,-0.144260994,0.677144688
466,1168524,885130,0.988,0.04,-0.034,0,0,0,-34.8,6.3,27.1,0.168431654,0.701620533,-0.144260994,0.677144688
467,1170657,885140,0.985,0.044,-0.022,0,0,0,-34.7,6,26.1,0.168431654,0.701620533,-0.144260994,0.67711417
468,1174526,885140,0.985,0.044,-0.022,0,0,0,-34.7,6,26.1,0.168431654,0.701620533,-0.144260994,0.67711417
469,1176039,885140,0.985,0.04,-0.026,0,0,0,-34.7,6,26.1,0.168431654,0.701620533,-0.144260994,0.67711417
470,1178265,885140,0.988,0.04,-0.03,0,0,0,-34.7,6,26.1,0.168431654,0.701620533,-0.144260994,0.67711417
471,1180441,885150,0.985,0.04,-0.026,0,0,0,-35.1,5.9,25.9,0.168431654,0.701620533,-0.144260994,0.67711417
472,1183216,885150,0.985,0.036,-0.022,0,0,0,-35.1,5.9,25.9,0.168431654,0.701620533,-0.144260994,0.67711417
473,1186314,885150,0.985,0.04,-0.03,0,0,0,-35.1,5.9,25.9,0.168431654,0.701620533,-0.144260994,0.67711417
474,1188520,885150,0.988,0.04,-0.03,0,0,0,-35.1,5.9,25.9,0.168431654,0.701620533,-0.144260994,0.67711417
475,1190659,885160,0.985,0.036,-0.026,0,0,0,-34.9,5.9,25.2,0.168431654,0.701620533,-0.144260994,0.67711417
476,1192852,885160,0.985,0.036,-0.026,0,0.1,0,-34.9,5.9,25.2,0.168431654,0.701620533,-0.144260994,0.67711417
477,1195945,885160,0.981,0.036,-0.026,0,0.2,0,-34.9,5.9,25.2,0.168431654,0.701620533,-0.144260994,0.67711417
478,1198318,885160,0.985,0.036,-0.026,0,0.2,0,-34.9,5.9,25.2,0.168431654,0.701620533,-0.144260994,0.67711417
479,1200636,885170,0.988,0.044,-0.03,0,0.2,0,-34.9,5.9,25.2,0.168431654,0.701620533,-0.144260994,0.67711417
480,1202886,885170,0.985,0.04,-0.022,0,0.2,0,-34.9,5.9,25.2,0.168431654,0.701620533,-0.144260994,0.677144688
481,1205400,885170,0.988,0.04,-0.026,0,0.1,0,-34.9,5.9,25.2,0.168431654,0.701620533,-0.144260994,0.677144688
482,1208768,885170,0.985,0.04,-0.026,0,0,0,-34.9,5.9,25.2,0.168431654,0.701620533,-0.144260994,0.677144688
483,1211051,885180,0.988,0.036,-0.022,0,0,0,-34.7,5.7,26.7,0.168431654,0.701620533,-0.144260994,0.677144688
484,1213390,885180,0.985,0.036,-0.026,0,0,0.1,-34.7,5.7,26.7,0.168431654,0.701620533,-0.144260994,0.677144688
485,1215620,885180,0.985,0.04,-0.022,0,0,0,-34.7,5.7,26.7,0.168431654,0.701620533,-0.144260994,0.677144688
486,1219219,885180,0.981,0.04,-0.026,0,0.1,0,-34.7,5.7,26.7,0.168431654,0.701620533,-0.144260994,0.677144688
487,1221562,885190,0.988,0.04,-0.026,0,0.1,0.1,-35.1,5.5,26.5,0.168401135,0.701590014,-0.144260994,0.677144688
488,1224531,885190,0.985,0.04,-0.026,0.1,0.2,0.1,-35.1,5.5,26.5,0.168401135,0.701590014,-0.144260994,0.677175207
489,1226756,885190,0.988,0.036,-0.026,0.1,0.1,0,-35.1,5.5,26.5,0.168401135,0.701590014,-0.144260994,0.677175207
490,1228233,885190,0.988,0.04,-0.026,0.1,0.1,0,-35.1,5.5,26.5,0.168401135,0.701590014,-0.144260994,0.677175207
491,1230383,885200,0.985,0.044,-0.026,0,0.1,0,-35,5.5,26.4,0.168401135,0.701590014,-0.144260994,0.677175207
492,1233192,885200,0.985,0.044,-0.026,0,0.1,0,-35,5.5,26.4,0.168401135,0.701590014,-0.144260994,0.677175207
493,1235276,885200,0.988,0.04,-0.022,-0.1,0.2,0,-35,5.5,26.4,0.168401135,0.701559496,-0.144260994,0.677175207
494,1239559,885200,0.988,0.032,-0.03,-0.1,0.1,0,-35,5.5,26.4,0.168401135,0.701559496,-0.144260994,0.677175207
495,1241769,885210,0.988,0.04,-0.026,0,0.1,0,-35,5.4,26.6,0.168401135,0.701559496,-0.144260994,0.677175207
496,1244047,885210,0.988,0.04,-0.026,0,0.1,0,-35,5.4,26.6,0.168401135,0.701559496,-0.144260994,0.677175207
497,1245625,885210,0.985,0.036,-0.026,0,0,0,-35,5.4,26.6,0.168401135,0.701559496,-0.144260994,0.677175207
498,1248039,885210,0.985,0.04,-0.026,0,0,0,-35,5.4,26.6,0.168401135,0.701559496,-0.144260994,0.677175207
499,1250282,885220,0.985,0.036,-0.022,0,-0.1,0,-35,5.4,26.6,0.168401135,0.701559496,-0.144260994,0.677175207
500,1253538,885220,0.985,0.044,-0.026,0,-0.3,0,-35,5.4,26.6,0.168401135,0.701559496,-0.144260994,0.677175207
501,1255872,885220,0.988,0.036,-0.026,0,-0.3,0,-35,5.4,26.6,0.168401135,0.701590014,-0.144260994,0.677175207
502,1258209,885220,0.985,0.036,-0.03,0,-0.2,0,-35,5.4,26.6,0.168401135,0.701590014,-0.144260994,0.677175207
503,1261033,885230,0.985,0.04,-0.026,0,0,0,-35,5.1,25.4,0.168401135,0.701590014,-0.144260994,0.677175207
504,1263228,885230,0.992,0.04,-0.03,0,0,0,-35,5.1,25.4,0.168401135,0.701590014,-0.144291513,0.677175207
505,1266320,885230,0.985,0.036,-0.022,-0.1,0.1,0,-35,5.1,25.4,0.168401135,0.701590014,-0.144291513,0.677175207
506,1267864,885230,0.981,0.036,-0.026,0,0.2,0,-35,5.1,25.4,0.168401135,0.701559496,-0.144291513,0.677175207
507,1271404,885240,0.985,0.036,-0.03,0,0.2,0,-35,4.6,25.6,0.168401135,0.701559496,-0.144291513,0.677175207
508,1273109,885240,0.981,0.036,-0.03,0,0.2,0,-35,4.6,25.6,0.168401135,0.701559496,-0.144291513,0.677175207
509,1275369,885240,0.988,0.04,-0.026,0,0.1,0,-35,4.6,25.6,0.168401135,0.701559496,-0.144291513,0.677175207
510,1278091,885240,0.985,0.04,-0.026,0,0.1,0,-35,4.6,25.6,0.168401135,0.701559496,-0.144291513,0.677175207
511,1281564,885250,0.988,0.04,-0.026,0,0,0,-35.3,4.1,25.5,0.168401135,0.701559496,-0.144291513,0.677175207
512,1283805,885250,0.985,0.04,-0.03,0,-0.1,0,-35.3,4.1,25.5,0.168401135,0.701559496,-0.144291513,0.677175207
513,1285907,885250,0.981,0.04,-0.026,0,-0.1,0,-35.3,4.1,25.5,0.168401135,0.701559496,-0.144291513,0.677175207
514,1288369,885250,0.981,0.032,-0.026,0,-0.2,0,-35.3,4.1,25.5,0.168401135,0.701559496,-0.144291513,0.677175207
515,1291162,885260,0.985,0.036,-0.022,0,-0.2,0,-35.1,4.2,25.6,0.168401135,0.701590014,-0.144291513,0.677175207
516,1292886,885260,0.985,0.04,-0.026,0,-0.2,0,-35.1,4.2,25.6,0.168401135,0.701590014,-0.144291513,0.677175207
517,1295341,885260,0.988,0.036,-0.022,0,-0.1,0,-35.1,4.2,25.6,0.168401135,0.701590014,-0.144291513,0.677175207
518,1297854,885260,0.985,0.04,-0.026,0,-0.1,0,-35.1,4.2,25.6,0.168401135,0.701590014,-0.144291513,0.677175207
519,1300961,885270,0.988,0.044,-0.022,0,-0.1,0,-35.1,4.2,25.6,0.168401135,0.701590014,-0.144291513,0.677144688
520,1302792,885270,0.988,0.04,-0.03,0,-0.1,0,-35.1,4.2,25.6,0.168401135,0.701590014,-0.144291513,0.677144688
521,1306283,885270,0.981,0.04,-0.03,0,-0.1,0,-35.1,4.2,25.6,0.168401135,0.701590014,-0.144291513,0.677144688
522,1308666,885270,0.985,0.04,-0.022,0,-0.1,0.1,-35.1,4.2,25.6,0.168401135,0.701590014,-0.144291513,0.677144688
523,1311531,885280,0.985,0.04,-0.026,0,0,0.1,-34.9,7.7,27.2,0.168401135,0.701590014,-0.144291513,0.677144688
524,1313661,885280,0.985,0.04,-0.026,0,0,0.1,-34.9,7.7,27.2,0.168401135,0.701590014,-0.144291513,0.677144688
525,1315523,885280,0.988,0.044,-0.022,-0.1,0.1,0,-34.9,7.7,27.2,0.168401135,0.701590014,-0.144322031,0.677144688
526,1318167,885280,0.985,0.04,-0.026,0,0.1,0,-34.9,7.7,27.2,0.168401135,0.701590014,-0.144322031,0.677144688
527,1320306,885290,0.985,0.036,-0.03,0,0,-0.1,-34.9,7.7,27.2,0.168401135,0.701590014,-0.144291513,0.677144688
528,1323826,885290,0.985,0.036,-0.03,0,0,-0.1,-34.9,7.7,27.2,0.168401135,0.701590014,-0.144291513,0.677144688
529,1326046,885290,0.985,0.036,-0.03,0,0,-0.1,-34.9,7.7,27.2,0.168401135,0.701590014,-0.144291513,0.677144688
530,1328169,885290,0.985,0.036,-0.03,0,0,-0.1,-34.9,7.7,27.2,0.168401135,0.701590014,-0.144291513,0.677144688
531,1331312,885300,0.985,0.036,-0.03,0,0,-0.1,-34.9,7.7,27.2,0.168401135,0.701590014,-0.144291513,0.677144688
532,1334308,885300,0.985,0.036,-0.03,0,0,-0.1,-34.9,7.7,27.2,0.168401135,0.701590014,-0.144291513,0.677144688
533,1336032,885300,0.988,0.04,-0.022,0,-0.2,0,-34.9,7.7,27.2,0.168431654,0.701590014,-0.144291513,0.677144688
534,1338141,885300,0.985,0.036,-0.03,0,0,0,-34.9,7.7,27.2,0.168431654,0.701620533,-0.144291513,0.677144688
535,1340549,885310,0.988,0.04,-0.03,0,0.1,0,-35,7.8,26.3,0.168431654,0.701590014,-0.144291513,0.677144688
536,1343765,885310,0.988,0.044,-0.026,0,0.2,0,-35,7.8,26.3,0.168431654,0.701590014,-0.144291513,0.677144688
537,1345534,885310,0.985,0.04,-0.022,0,0.2,0,-35,7.8,26.3,0.168431654,0.701590014,-0.144291513,0.677144688
538,1347809,885310,0.988,0.04,-0.022,0,0.2,0,-35,7.8,26.3,0.168431654,0.701590014,-0.144291513,0.677144688
539,1350344,885320,0.992,0.036,-0.018,0,0.1,0,-35,7.8,26.3,0.168431654,0.701590014,-0.144291513,0.677144688
540,1353841,885320,0.985,0.04,-0.026,0,0.1,0,-35,7.8,26.3,0.168431654,0.701590014,-0.144291513,0.677144688
541,1355959,885320,0.985,0.04,-0.018,0,0.1,0,-35,7.8,26.3,0.168431654,0.701590014,-0.144291513,0.677144688
542,1357817,885320,-0.186,-0.011,0.014,0,0.3,0,-35,7.8,26.3,0.168431654,0.701590014,-0.144291513,0.677175207
543,1361322,885330,0.926,-2.18,-8.007,-6.4,47.3,2.6,-35,6.2,26.6,0.168614765,0.70085757,-0.144260994,0.677877132
544,1363451,885330,7.612,-0.243,-8.223,-21.7,190.1,3.6,-35,6.2,26.6,0.169499802,0.697927793,-0.143925291,0.680715354
545,1365967,885330,4.572,1.212,-8.119,2.6,279.9,-6,-35,6.2,26.6,0.170415357,0.693807794,-0.142765587,0.684957427
546,1367919,885330,7.651,6.068,-8.242,88.4,215.5,-25.2,-35,6.2,26.6,0.17014069,0.690969573,-0.140232551,0.688406018
547,1370503,885340,-0.247,7.077,8.048,173.2,40.2,-40.1,-35,6.2,26.6,0.168248543,0.691122166,-0.136875515,0.689382611
548,1373950,885340,-0.541,-7.942,7.695,98.3,-37.2,-34.6,-35,6.2,26.6,0.167180395,0.692159795,-0.134983367,0.68898587
549,1376204,885340,-4.786,-7.591,1.681,-74.2,36.3,-4.9,-35,6.2,26.6,0.168492691,0.691335795,-0.135929441,0.689291055
550,1378439,885340,-6.749,5.752,8.257,-156.3,137.7,16.2,-35,6.2,26.6,0.170995209,0.688650166,-0.138035218,0.690969573
551,1380709,885350,1.838,-1.196,-4.344,-93.9,123.2,15.7,-35,6.2,26.6,0.172551653,0.686391797,-0.13922544,0.692587054
552,1383974,885350,2.157,-7.043,-4.875,-28.1,0.1,-3.6,-35,6.2,26.6,0.17300943,0.686300241,-0.139591662,0.692495499
553,1386235,885350,2.157,-7.043,-4.875,-28.1,0.1,-3.6,-35,6.2,26.6,0.17300943,0.686300241,-0.139591662,0.692495499
554,1388697,885350,2.157,-7.043,-4.875,-28.1,0.1,-3.6,-35,6.2,26.6,0.17300943,0.686300241,-0.139591662,0.692495499
555,1390900,885360,2.157,-7.043,-4.875,-28.1,0.1,-3.6,-35,6.2,26.6,0.17300943,0.686300241,-0.139591662,0.692495499
556,1393272,885360,2.157,-7.043,-4.875,-28.1,0.1,-3.6,-35,6.2,26.6,0.17300943,0.686300241,-0.139591662,0.692495499
557,1395563,885360,2.157,-7.043,-4.875,-28.1,0.1,-3.6,-35,6.2,26.6,0.17300943,0.686300241,-0.139591662,0.692495499
558,1397896,885360,2.157,-7.043,-4.875,-28.1,0.1,-3.6,-35,6.2,26.6,0.17300943,0.686300241,-0.139591662,0.692495499
559,1400342,885370,2.157,-7.043,-4.875,-28.1,0.1,-3.6,-35,6.2,26.6,0.17300943,0.686300241,-0.139591662,0.692495499
560,1404470,885370,-0.359,1.63,-0.47,38.8,-51.7,-3.4,-36.2,7,26.7,0.171758171,0.691183203,-0.140537736,0.687734611
561,1406672,885370,1.463,0.283,-0.379,37.5,-5.3,-9.1,-36.2,7,26.7,0.171330912,0.691427351,-0.13983581,0.687734611
562,1408930,885370,1.463,0.283,-0.379,37.5,-5.3,-9.1,-36.2,7,26.7,0.171330912,0.691427351,-0.13983581,0.687734611
563,1411191,885380,1.934,0.107,-0.111,12.9,3.8,-6.6,-36.2,6.5,26.6,0.170995209,0.691335795,-0.138889737,0.688100833
564,1413310,885380,1.041,0.187,-1.055,-0.4,-7.2,-2.3,-36.2,6.5,26.6,0.170995209,0.691457869,-0.138889737,0.687978759
565,1415531,885380,0.363,-0.208,-1.479,-4.6,-2,1,-36.2,6.5,26.6,0.171056246,0.691457869,-0.138981292,0.687917722
566,1418559,885380,0.656,-0.147,-0.869,-6,5,3.3,-36.2,6.5,26.6,0.171117283,0.691366314,-0.139103366,0.688009278
567,1421476,885390,0.919,-0.838,-0.656,-8.7,1.2,4.8,-36.7,6.5,27.1,0.17117832,0.691274758,-0.139316996,0.688009278
568,1422875,885390,0.729,-0.674,-0.694,-10.5,-7.2,5.4,-36.7,6.5,27.1,0.171239357,0.691335795,-0.139591662,0.687887204
569,1426144,885390,0.878,-0.234,-0.508,-7.6,-8.9,4.9,-36.7,6.5,27.1,0.171239357,0.691427351,-0.139805292,0.68776513
570,1429074,885390,1.179,-0.012,-0.294,0.4,-4.8,3.6,-36.7,6.5,27.1,0.17117832,0.691488388,-0.139866329,0.687704093
571,1430442,885400,1.513,0.098,-0.395,9.8,-1.6,2.1,-37,6.5,27.2,0.170995209,0.691549425,-0.139744255,0.687704093
572,1434294,885400,1.196,0.597,-0.101,9.8,-1.6,2.1,-37,6.5,27.2,0.170781579,0.691610462,-0.139652699,0.687734611
573,1436003,885400,1.039,0.401,-0.385,15.3,0.4,1,-37,6.5,27.2,0.170537431,0.69164098,-0.13943907,0.68776513
574,1437788,885400,1.051,0.405,-0.487,14.4,4.8,0.5,-37,6.5,27.2,0.170323801,0.69164098,-0.139194922,0.687887204
575,1441237,885410,1.154,0.72,0.162,9.1,10.3,0.5,-37.5,6.6,27.2,0.170232246,0.691518906,-0.139042329,0.688070315
576,1442806,885410,1.235,0.448,0.113,2.5,11.4,0.6,-37.5,6.6,27.2,0.170201727,0.691335795,-0.138950774,0.688253426
577,1445946,885410,1.203,0.377,0.106,-2.8,6.3,0.4,-37.5,6.6,27.2,0.170262764,0.69124424,-0.138981292,0.688344981
578,1448938,885410,1.107,0.564,0.508,-5.8,-0.2,0,-37.5,6.6,27.2,0.17035432,0.691213721,-0.139072848,0.688344981
579,1450509,885420,1.27,0.011,0.528,-6.3,-3.7,-0.8,-38.2,6.5,27.5,0.170445875,0.69124424,-0.139164403,0.688253426
580,1452796,885420,1.137,-0.12,0.529,-4.9,-4.2,-1.4,-38.2,6.5,27.5,0.170537431,0.691305277,-0.139255959,0.68816187
581,1455749,885420,0.9,0,0.556,-3.7,-3.3,-1.5,-38.2,6.5,27.5,0.170598468,0.691335795,-0.139286477,0.688100833
582,1457987,885420,0.759,0.077,-0.156,-3.2,-1.2,-1.2,-38.2,6.5,27.5,0.170659505,0.691366314,-0.139316996,0.688070315
583,1461165,885430,0.767,0.089,-0.109,-2.5,2.2,-1.1,-35,5.7,26.9,0.170720542,0.691305277,-0.139347514,0.688100833
584,1463130,885430,0.93,0.08,-0.146,-1.4,5.1,-1.3,-35,5.7,26.9,0.170781579,0.69124424,-0.139316996,0.68816187
585,1466308,885430,1.109,0.039,-0.081,-1.1,4.5,-1.3,-35,5.7,26.9,0.170842616,0.691183203,-0.139286477,0.688222907
586,1467796,885430,1.156,-0.034,0.215,-2,0.7,-1.2,-35,5.7,26.9,0.170873135,0.691152684,-0.139316996,0.688222907
587,1470568,885440,1.105,0.043,0.071,-4.5,-5.7,-0.2,-37.4,7.2,27,0.170934172,0.691213721,-0.139378033,0.688131352
588,1473578,885440,1.004,0.032,0.063,-4.5,-5.7,-0.2,-37.4,7.2,27,0.170995209,0.691305277,-0.139469588,0.688009278
589,1476381,885440,0.968,-0.128,-0.244,-4.5,-4.3,0,-37.4,7.2,27,0.171056246,0.691335795,-0.139561144,0.687948241
590,1477943,885440,0.953,-0.077,-0.127,-3.6,-1.4,0.1,-37.4,7.2,27,0.171086764,0.691335795,-0.139622181,0.687917722
591,1480551,885450,0.957,-0.069,0.053,-2.3,0.5,0.2,-37.2,7.3,27,0.171117283,0.691335795,-0.139652699,0.687917722
592,1483313,885450,0.965,-0.041,0.205,-0.8,0.2,0.3,-37.2,7.3,27,0.171117283,0.691335795,-0.139683218,0.687917722
593,1486364,885450,1.032,0.218,0.355,0.9,-1.4,0.6,-37.2,7.3,27,0.171117283,0.691335795,-0.139683218,0.687887204
594,1487940,885450,1.028,0.19,0.375,2.5,-3.3,0.9,-37.2,7.3,27,0.171056246,0.691396832,-0.139683218,0.687856685
595,1490565,885460,1.024,0.088,0.332,3.5,-4.3,1.1,-37,7.1,27.2,0.17096469,0.691488388,-0.139652699,0.687795648
596,1493235,885460,1.035,0.032,0.14,3.3,-4.3,1.2,-37,7.1,27.2,0.170873135,0.691549425,-0.139622181,0.68776513
597,1496245,885460,1.024,0.028,0.062,2.1,-4,1.3,-37,7.1,27.2,0.170812098,0.691610462,-0.139622181,0.687704093
598,1497710,885460,1.027,0.02,-0.008,0.5,-4,1.6,-37,7.1,27.2,0.170781579,0.691671499,-0.139652699,0.687643056
599,1500720,885470,1.031,0.024,-0.035,-0.5,-4.2,1.8,-36,7.3,27,0.170751061,0.691732536,-0.139713736,0.687582018
600,1503787,885470,0.981,0.009,-0.061,-1,-4.7,2,-36,7.3,27,0.170720542,0.691793573,-0.139774773,0.687520981
601,1505308,885470,0.988,-0.014,-0.14,-1.3,-5.4,2.1,-36,7.3,27,0.170690023,0.69185461,-0.139866329,0.687459944
602,1508171,885470,0.984,-0.022,-0.175,-1.4,-6,2.4,-36,7.3,27,0.170659505,0.691946165,-0.139927366,0.687368389
603,1511288,885480,1.008,-0.018,-0.089,-1.6,-6.7,2.6,-35.7,6.4,27.3,0.170628986,0.692037721,-0.140018921,0.687276833
604,1512915,885480,1.012,-0.057,-0.078,-1.8,-7.7,2.9,-35.7,6.4,27.3,0.170567949,0.692129276,-0.140140996,0.687154759
605,1515394,885480,1,-0.089,-0.085,-2.4,-9.2,3.3,-35.7,6.4,27.3,0.170537431,0.69225135,-0.14026307,0.687032685
606,1518579,885480,1.008,-0.089,-0.109,-3.6,-11,3.8,-35.7,6.4,27.3,0.170506912,0.692373424,-0.140415662,0.686849574
607,1520955,885490,0.961,-0.112,-0.099,-6.3,-13.6,4.9,-36.3,6.4,27.4,0.170079653,0.692770165,-0.141026032,0.686452834
608,1522789,885490,0.922,-0.167,-0.09,-6.3,-13.6,4.9,-36.3,6.4,27.4,0.170049135,0.692953276,-0.141239662,0.686239204
609,1525960,885490,0.863,-0.174,-0.088,-6.9,-13.3,5.3,-36.3,6.4,27.4,0.170049135,0.693105869,-0.14148381,0.686025575
610,1528314,885490,0.868,-0.139,0.024,-7.2,-12.3,5.5,-36.3,6.4,27.4,0.170018616,0.693227943,-0.141727958,0.685842463
611,1530387,885500,0.903,-0.147,0.035,-7.2,-11.7,5.8,-35.9,6.1,27.4,0.170018616,0.693380535,-0.141972106,0.685659352
612,1533064,885500,0.91,-0.135,0.035,-6.9,-12.6,6.1,-35.9,6.1,27.4,0.169988098,0.693502609,-0.142216254,0.685476241
613,1536462,885500,0.922,-0.092,0.073,-6.3,-15.3,6.2,-35.9,6.1,27.4,0.169927061,0.69368572,-0.142460402,0.685232093
614,1538047,885500,0.915,0.014,0.167,-5.2,-18.3,6.1,-35.9,6.1,27.4,0.169866024,0.693929868,-0.142674032,0.684957427
615,1540881,885510,0.931,0.053,0.186,-3.5,-19.7,5.6,-35.7,5.8,27.5,0.169774468,0.694204535,-0.142887661,0.68468276
616,1543919,885510,0.931,0.053,0.186,-3.5,-19.7,5.6,-35.7,5.8,27.5,0.169774468,0.694204535,-0.142887661,0.68468276
617,1545478,885510,0.931,0.053,0.186,-3.5,-19.7,5.6,-35.7,5.8,27.5,0.169774468,0.694204535,-0.142887661,0.68468276
618,1549500,885510,0.931,0.053,0.186,-3.5,-19.7,5.6,-35.7,5.8,27.5,0.169774468,0.694204535,-0.142887661,0.68468276
619,1551589,885520,0.931,0.053,0.186,-3.5,-19.7,5.6,-35.7,5.8,27.5,0.169774468,0.694204535,-0.142887661,0.68468276
620,1553275,885520,0.966,0.214,0.224,2.4,-8.4,0.9,-35.1,6,27.7,0.169286172,0.695181127,-0.143284402,0.683736686
621,1556266,885520,0.955,0.38,0.196,2.4,-6.4,0.7,-35.1,6,27.7,0.169225135,0.695272683,-0.143284402,0.683645131
622,1558505,885520,0.978,0.411,0.199,2.3,-4.8,0.4,-35.1,6,27.7,0.169164098,0.695364238,-0.143284402,0.683584094
623,1560749,885530,0.927,0.325,0.103,2.9,-4.4,-0.3,-35.5,6.4,27.4,0.169103061,0.695425275,-0.143253883,0.683523057
624,1562989,885530,0.845,0.227,0.047,3.5,-4.9,-1.3,-35.5,6.4,27.4,0.169072542,0.695516831,-0.143192846,0.68346202
625,1565307,885530,0.814,0.278,0.127,3.2,-5.4,-1.8,-35.5,6.4,27.4,0.169011505,0.695638905,-0.143131809,0.683370464
626,1568206,885530,0.806,0.243,0.096,1.8,-5.8,-1.6,-35.5,6.4,27.4,0.169011505,0.695730461,-0.143101291,0.683278909
627,1571234,885540,0.794,0.078,0.042,-0.1,-9.3,0,-35.3,6.1,27.5,0.168980987,0.695852535,-0.143131809,0.683156835
628,1574208,885540,0.802,0.062,0.057,-0.1,-9.3,0,-35.3,6.1,27.5,0.168950468,0.696005127,-0.143162328,0.683004242
629,1576523,885540,0.817,0.05,0.045,-1.1,-12.8,0.7,-35.3,6.1,27.5,0.16891995,0.696188238,-0.143253883,0.682821131
630,1578768,885540,0.833,0.018,0.025,-2.2,-16.5,1.1,-35.3,6.1,27.5,0.168889431,0.696432386,-0.143345439,0.682546464
631,1581050,885550,0.864,-0.009,0.028,-2.7,-19.7,1.3,-35.4,6.1,27.1,0.168828394,0.696707053,-0.143498032,0.682241279
632,1583253,885550,0.946,-0.025,0.014,-2.8,-22.3,1.3,-35.4,6.1,27.1,0.168797876,0.697012238,-0.143650624,0.681905576
633,1586281,885550,0.996,-0.022,-0.022,-3,-24.4,1.2,-35.4,6.1,27.1,0.168736839,0.69737846,-0.143772698,0.681539354
634,1588351,885550,1.039,-0.026,-0.039,-3.1,-26.3,1,-35.4,6.1,27.1,0.168675802,0.697744682,-0.143955809,0.681112094
635,1591333,885560,1.128,-0.027,-0.077,-3.2,-28.1,0.9,-35.4,6.2,27,0.168645283,0.698141423,-0.144108402,0.680654317
636,1593731,885560,1.152,-0.027,-0.125,-3.2,-29.1,0.7,-35.4,6.2,27,0.168584246,0.698568682,-0.144291513,0.680227058
637,1595938,885560,1.175,-0.012,-0.161,-3.1,-29,0.5,-35.4,6.2,27,0.168523209,0.698995941,-0.144444105,0.67976928
638,1598528,885560,1.167,-0.004,-0.161,-2.7,-27.5,0.4,-35.4,6.2,27,0.168462172,0.699392682,-0.144596698,0.679342021
639,1600483,885570,1.12,-0.023,-0.195,-1.8,-24.7,0.2,-35,6.3,26.9,0.168431654,0.699728385,-0.144718772,0.678975799
640,1603027,885570,1.109,-0.027,-0.226,-0.8,-21.1,0,-35,6.3,26.9,0.168370617,0.70003357,-0.144810327,0.678640095
641,1606302,885570,1.081,-0.011,-0.233,0.1,-17.1,0,-35,6.3,26.9,0.16830958,0.700308237,-0.144871364,0.678395947
642,1608625,885570,1.031,0.016,-0.251,1.1,-13.7,-0.1,-35,6.3,26.9,0.168248543,0.700521867,-0.144901883,0.678182318
643,1610894,885580,1.007,0.012,-0.277,2.2,-10.7,-0.1,-36,6,26.9,0.168187506,0.700674459,-0.144901883,0.678029725
644,1613254,885580,1,0.012,-0.308,3.3,-8.5,-0.1,-36,6,26.9,0.16809595,0.700827052,-0.144871364,0.677907651
645,1615331,885580,0.996,0.016,-0.312,4.1,-7,-0.2,-36,6,26.9,0.168034913,0.700949126,-0.144840846,0.677816095
646,1619236,885580,0.988,0.048,-0.296,4.5,-6.2,-0.2,-36,6,26.9,0.167943358,0.701040681,-0.144810327,0.67772454
647,1621466,885590,1,0.051,-0.301,4.6,-5.8,-0.1,-33.8,6.1,26.9,0.167851802,0.701162755,-0.14474929,0.677663503
648,1623160,885590,1.007,0.059,-0.297,4.6,-5.8,-0.1,-33.8,6.1,26.9,0.167760247,0.701254311,-0.144688253,0.677571947
649,1626791,885590,1.023,0.079,-0.274,4.4,-6,-0.1,-33.8,6.1,26.9,0.167668691,0.701376385,-0.144657735,0.677480392
650,1628787,885590,1.031,0.087,-0.247,4.1,-6,-0.1,-33.8,6.1,26.9,0.167607654,0.70146794,-0.144596698,0.677419355
651,1631146,885600,1.039,0.098,-0.232,3.8,-5.7,-0.2,-33.8,6.2,27,0.167516099,0.701559496,-0.144566179,0.677327799
652,1633448,885600,1.043,0.098,-0.224,3.4,-5,-0.2,-33.8,6.2,27,0.167455061,0.701651051,-0.144535661,0.677266762
653,1635684,885600,1.051,0.106,-0.177,2.9,-3.9,-0.1,-33.8,6.2,27,0.167394024,0.701712088,-0.144505142,0.677205725
654,1637851,885600,1.058,0.102,-0.158,2.3,-2.6,0,-33.8,6.2,27,0.167363506,0.701773125,-0.144474624,0.677175207
655,1640473,885610,1.058,0.102,-0.142,1.6,-1.3,0,-34.1,6,26.9,0.167332987,0.701803644,-0.144474624,0.677175207
656,1643924,885610,1.039,0.087,-0.102,0.8,-0.1,0.2,-34.1,6,26.9,0.167302469,0.701803644,-0.144444105,0.677175207
657,1645436,885610,1.02,0.075,-0.078,0,1,0.2,-34.1,6,26.9,0.167302469,0.701773125,-0.144444105,0.677175207
658,1647923,885610,1.004,0.06,-0.07,-0.7,2.3,0.3,-34.1,6,26.9,0.167332987,0.701742607,-0.144444105,0.677236244
659,1651312,885620,0.981,0.052,-0.057,-1.5,3.5,0.3,-33.7,6.1,27.3,0.167363506,0.70168157,-0.144474624,0.677266762
660,1652990,885620,0.953,0.037,-0.021,-2.1,4.3,0.2,-33.7,6.1,27.3,0.167394024,0.701620533,-0.144505142,0.677327799
661,1655442,885620,0.942,0.029,-0.005,-2.4,4.7,0.1,-33.7,6.1,27.3,0.167455061,0.701528977,-0.144505142,0.677388836
662,1657757,885620,0.938,0.021,-0.001,-2.6,4.8,0,-33.7,6.1,27.3,0.167516099,0.70146794,-0.144535661,0.677449873
663,1661902,885630,0.938,0.017,0.022,-2.7,4.6,0,-35,6.2,27,0.167577136,0.701376385,-0.144566179,0.677541429
664,1663410,885630,0.946,0.017,0.025,-2.6,4,0,-35,6.2,27,0.167607654,0.701315348,-0.144596698,0.677571947
665,1665699,885630,0.953,0.017,0.025,-2.4,3.3,0.2,-35,6.2,27,0.167668691,0.701254311,-0.144627216,0.677632984
666,1668014,885630,0.969,0.017,0.028,-2.2,2.4,0.3,-35,6.2,27,0.16769921,0.701193274,-0.144627216,0.677663503
667,1670263,885640,0.992,0.021,0.039,-1.6,1,0.2,-34.7,6.2,26.8,0.16769921,0.701101718,-0.144688253,0.67772454
668,1674005,885640,1,0.025,0.043,-1.6,1,0.2,-34.7,6.2,26.8,0.167729728,0.701101718,-0.144718772,0.677755058
669,1676063,885640,1.004,0.021,0.043,-1.2,0.6,0.1,-34.7,6.2,26.8,0.167760247,0.7010712,-0.144718772,0.677755058
670,1678466,885640,1.008,0.025,0.043,-0.9,0.4,0,-34.7,6.2,26.8,0.167760247,0.7010712,-0.14474929,0.677755058
671,1680705,885650,1.004,0.029,0.047,-0.4,0.4,0,-34.6,5.9,27,0.167790765,0.7010712,-0.14474929,0.677755058
672,1682948,885650,0.989,0.033,0.047,-0.1,0.8,0,-34.6,5.9,27,0.167790765,0.701040681,-0.14474929,0.677785577
673,1685459,885650,0.981,0.041,0.048,0.2,1.2,0,-34.6,5.9,27,0.167790765,0.701040681,-0.144718772,0.677785577
674,1687783,885650,0.95,0.045,0.041,0.4,1.6,0,-34.6,5.9,27,0.167790765,0.701010163,-0.144718772,0.677816095
675,1691985,885660,0.946,0.041,0.033,0.5,1.7,0,-34.8,5.9,27.5,0.167790765,0.700979644,-0.144718772,0.677846614
676,1694149,885660,0.934,0.041,0.029,0.7,1.6,-0.1,-34.8,5.9,27.5,0.167790765,0.700949126,-0.144688253,0.677877132
677,1695695,885660,0.926,0.045,0.026,0.7,1.2,-0.1,-34.8,5.9,27.5,0.167760247,0.700949126,-0.144657735,0.677907651
678,1697971,885660,0.934,0.041,0.022,0.7,0.5,0,-34.8,5.9,27.5,0.167760247,0.700949126,-0.144657735,0.677907651
679,1700445,885670,0.946,0.041,0.017,0.5,-0.3,0,-35,5.9,27.4,0.167760247,0.700949126,-0.144657735,0.677907651
680,1703974,885670,0.95,0.037,0.005,0.4,-1.2,0,-35,5.9,27.4,0.167729728,0.700949126,-0.144657735,0.677877132
681,1706189,885670,0.977,0.037,-0.002,0.3,-2.2,0.1,-35,5.9,27.4,0.167729728,0.701010163,-0.144657735,0.677846614
682,1708478,885670,0.992,0.04,-0.014,0.3,-3.2,0.1,-35,5.9,27.4,0.16769921,0.701040681,-0.144657735,0.677816095
683,1710694,885680,1,0.036,-0.023,0.2,-4,0.1,-34.7,6.2,26.2,0.16769921,0.701101718,-0.144657735,0.677755058
684,1712922,885680,1.02,0.048,-0.035,0.4,-4.4,0,-34.7,6.2,26.2,0.167668691,0.701162755,-0.144688253,0.677694021
685,1715481,885680,1.023,0.044,-0.039,0.4,-4.6,0,-34.7,6.2,26.2,0.167638173,0.701254311,-0.144688253,0.677602466
686,1719737,885680,1.023,0.048,-0.047,0.6,-4.4,0,-34.7,6.2,26.2,0.167638173,0.701315348,-0.144688253,0.677541429
687,1721831,885690,1.02,0.044,-0.062,0.6,-3.1,0,-35,5.8,28.1,0.167607654,0.701376385,-0.144688253,0.677480392
688,1723438,885690,1.012,0.044,-0.058,0.6,-3.1,0,-35,5.8,28.1,0.167577136,0.701437422,-0.144688253,0.677419355
689,1725706,885690,1,0.044,-0.066,0.4,-2.3,0,-35,5.8,28.1,0.167577136,0.70146794,-0.144718772,0.677388836
690,1727957,885690,0.988,0.04,-0.073,0.3,-1.6,0,-35,5.8,28.1,0.167577136,0.701498459,-0.144718772,0.677358318
691,1730400,885700,0.973,0.036,-0.084,0.2,-1.2,0,-35.2,5.8,27.9,0.167546617,0.701528977,-0.144718772,0.677358318
692,1734694,885700,0.973,0.036,-0.069,0.2,-0.9,0,-35.2,5.8,27.9,0.167546617,0.701528977,-0.144718772,0.677327799
693,1736993,885700,0.973,0.032,-0.073,0.2,-0.9,0,-35.2,5.8,27.9,0.167546617,0.701559496,-0.144718772,0.677327799
694,1739190,885700,0.973,0.032,-0.077,0.2,-0.9,0,-35.2,5.8,27.9,0.167546617,0.701559496,-0.144718772,0.677327799
695,1741458,885710,0.988,0.036,-0.073,0.2,-1.2,0,-34.7,6.1,28.6,0.167516099,0.701590014,-0.144718772,0.677297281
696,1743666,885710,0.992,0.036,-0.073,0.2,-1.3,0,-34.7,6.1,28.6,0.167516099,0.701590014,-0.144718772,0.677266762
697,1745960,885710,1.004,0.04,-0.07,0.2,-1.5,0,-34.7,6.1,28.6,0.167516099,0.701620533,-0.144718772,0.677266762
698,1748189,885710,1.012,0.044,-0.058,0.2,-1.6,0,-34.7,6.1,28.6,0.16748558,0.701651051,-0.144718772,0.677236244
699,1750459,885720,1.016,0.056,-0.051,0.3,-1.5,0,-34.7,6,28.3,0.16748558,0.70168157,-0.144718772,0.677205725
700,1752855,885720,1.016,0.048,-0.054,0.3,-1.1,0,-34.7,6,28.3,0.16748558,0.70168157,-0.144718772,0.677175207
701,1756454,885720,1.016,0.048,-0.047,0.4,-0.7,0,-34.7,6,28.3,0.16748558,0.701712088,-0.144718772,0.677175207
702,1758704,885720,1,0.048,-0.038,0.3,-0.1,-0.1,-34.7,6,28.3,0.167455061,0.701712088,-0.144688253,0.677175207
703,1760938,885730,0.992,0.048,-0.038,0.2,0.3,-0.1,-35,6.1,25.1,0.167455061,0.701712088,-0.144688253,0.677175207
704,1763074,885730,0.981,0.04,-0.034,0.1,0.8,-0.1,-35,6.1,25.1,0.16748558,0.70168157,-0.144688253,0.677205725
705,1765480,885730,0.973,0.044,-0.03,0,1.2,0,-35,6.1,25.1,0.16748558,0.70168157,-0.144688253,0.677205725
706,1767966,885730,0.961,0.037,-0.025,-0.2,1.3,0,-35,6.1,25.1,0.16748558,0.701651051,-0.144688253,0.677236244
707,1772198,885740,0.961,0.037,-0.021,-0.3,1.3,0,-34.9,5.8,26.7,0.167516099,0.701651051,-0.144657735,0.677236244
708,1774418,885740,0.961,0.037,-0.021,-0.3,1.3,0,-34.9,5.8,26.7,0.167516099,0.701651051,-0.144657735,0.677236244
709,1776451,885740,0.969,0.033,-0.018,-0.3,0.9,0.1,-34.9,5.8,26.7,0.167516099,0.701620533,-0.144657735,0.677266762
710,1778864,885740,0.981,0.033,-0.01,-0.2,0.4,0,-34.9,5.8,26.7,0.167516099,0.701620533,-0.144688253,0.677266762
711,1781232,885750,0.981,0.036,-0.01,-0.1,0,0,-35,5.7,26.2,0.167516099,0.701620533,-0.144688253,0.677266762
712,1783507,885750,0.992,0.032,-0.011,-0.1,-0.4,0,-35,5.7,26.2,0.167516099,0.701620533,-0.144688253,0.677266762
713,1785776,885750,0.996,0.04,-0.011,-0.1,-0.7,0,-35,5.7,26.2,0.167516099,0.701620533,-0.144688253,0.677236244
714,1788086,885750,1,0.036,-0.007,-0.1,-0.8,0,-35,5.7,26.2,0.167516099,0.701651051,-0.144688253,0.677236244
715,1790531,885760,1,0.04,-0.011,0,-0.6,0,-35.2,6.2,26,0.167516099,0.701651051,-0.144688253,0.677236244
716,1792774,885760,0.992,0.036,-0.011,0,-0.3,0,-35.2,6.2,26,0.167516099,0.701651051,-0.144688253,0.677205725
717,1796480,885760,0.988,0.036,-0.007,0,0,0.1,-35.2,6.2,26,0.167516099,0.701651051,-0.144688253,0.677205725
718,1798841,885760,0.985,0.04,-0.006,0.1,0.1,0.2,-35.2,6.2,26,0.167516099,0.701651051,-0.144688253,0.677236244
719,1801285,885770,0.981,0.04,-0.01,0.1,0.3,0.1,-35,6,25.3,0.167516099,0.701651051,-0.144688253,0.677236244
720,1803468,885770,0.973,0.04,-0.01,0.1,0.4,0,-35,6,25.3,0.167516099,0.701651051,-0.144688253,0.677236244
721,1805725,885770,0.977,0.036,-0.018,0,0.5,0,-35,6,25.3,0.167516099,0.701620533,-0.144688253,0.677236244
722,1807927,885770,0.973,0.037,-0.01,0,0.4,0,-35,6,25.3,0.167516099,0.701620533,-0.144688253,0.677236244
723,1810383,885780,0.973,0.04,-0.018,0,0.1,0,-35,6.3,26.8,0.167516099,0.701620533,-0.144688253,0.677266762
724,1812932,885780,0.981,0.036,-0.022,0,-0.1,0,-35,6.3,26.8,0.167516099,0.701620533,-0.144688253,0.677236244
725,1816392,885780,0.981,0.033,-0.022,0,-0.3,0,-35,6.3,26.8,0.167516099,0.701620533,-0.144688253,0.677236244
726,1818458,885780,0.981,0.036,-0.018,0,-0.4,0,-35,6.3,26.8,0.167516099,0.701651051,-0.144688253,0.677236244
727,1820878,885790,0.992,0.04,-0.022,0.1,-0.7,0,-35,6.3,26.7,0.167516099,0.701620533,-0.144688253,0.677266762
728,1823126,885790,0.996,0.04,-0.022,0.1,-0.7,0,-35,6.3,26.7,0.16748558,0.701620533,-0.144688253,0.677236244
729,1825307,885790,0.996,0.04,-0.022,0.1,-0.9,0,-35,6.3,26.7,0.16748558,0.701651051,-0.144688253,0.677236244
730,1827805,885790,0.992,0.04,-0.034,0.1,-0.9,0,-35,6.3,26.7,0.16748558,0.701651051,-0.144688253,0.677236244
731,1831197,885800,0.992,0.044,-0.03,0.1,-0.9,0,-35.5,6.2,26.9,0.16748558,0.70168157,-0.144688253,0.677205725
732,1832645,885800,0.988,0.04,-0.026,0.1,-0.7,0,-35.5,6.2,26.9,0.16748558,0.70168157,-0.144688253,0.677205725
733,1836797,885800,0.988,0.036,-0.03,0.1,-0.6,0,-35.5,6.2,26.9,0.16748558,0.701712088,-0.144688253,0.677175207
734,1838914,885800,0.981,0.04,-0.042,0,-0.4,-0.1,-35.5,6.2,26.9,0.16748558,0.701712088,-0.144688253,0.677175207
735,1841196,885810,0.981,0.04,-0.038,0.1,-0.3,-0.1,-35.1,6.1,26.8,0.16748558,0.701712088,-0.144688253,0.677175207
736,1842832,885810,0.985,0.036,-0.038,0.1,-0.3,0,-35.1,6.1,26.8,0.167455061,0.701712088,-0.144688253,0.677175207
737,1845589,885810,0.985,0.036,-0.03,0.1,-0.4,0,-35.1,6.1,26.8,0.167455061,0.701712088,-0.144688253,0.677175207
738,1849434,885810,0.988,0.036,-0.034,0.1,-0.4,0,-35.1,6.1,26.8,0.167455061,0.701742607,-0.144688253,0.677144688
739,1851618,885820,0.985,0.04,-0.034,0,-0.4,0,-35.1,6,27,0.167455061,0.701742607,-0.144688253,0.677144688
740,1853342,885820,0.988,0.04,-0.026,0,-0.4,0,-35.1,6,27,0.167455061,0.701742607,-0.144688253,0.677144688
741,1855433,885820,0.988,0.036,-0.034,0,-0.3,0,-35.1,6,27,0.167455061,0.701742607,-0.144718772,0.677144688
742,1858165,885820,0.988,0.04,-0.038,0.1,-0.3,0,-35.1,6,27,0.167455061,0.701742607,-0.144718772,0.677144688
743,1861560,885830,0.992,0.04,-0.026,0.1,-0.1,0.1,-34.7,6.5,27.7,0.167455061,0.701742607,-0.144718772,0.677144688
744,1863683,885830,0.988,0.044,-0.034,0.2,-0.1,0,-34.7,6.5,27.7,0.167424543,0.701742607,-0.144718772,0.677144688
745,1866820,885830,0.985,0.04,-0.03,0.1,0,0,-34.7,6.5,27.7,0.167424543,0.701742607,-0.144688253,0.677144688
746,1869107,885830,0.985,0.04,-0.03,0.1,0.1,0,-34.7,6.5,27.7,0.167424543,0.701742607,-0.144688253,0.677144688
747,1871100,885840,0.985,0.032,-0.034,0,0.1,0,-34.8,5.3,26.1,0.167455061,0.701803644,-0.144688253,0.67711417
748,1873298,885840,0.981,0.04,-0.034,0,0.1,0,-34.8,5.3,26.1,0.167455061,0.701803644,-0.144688253,0.67711417
749,1875645,885840,0.985,0.036,-0.038,0.1,0,0,-34.8,5.3,26.1,0.167455061,0.701773125,-0.144688253,0.67711417
750,1878779,885840,0.988,0.04,-0.026,0.1,-0.1,0,-34.8,5.3,26.1,0.167455061,0.701803644,-0.144688253,0.67711417
751,1880373,885850,0.988,0.04,-0.022,0,-0.3,0,-35.1,4.4,25.8,0.167455061,0.701803644,-0.144688253,0.67711417
752,1883221,885850,0.992,0.044,-0.026,0,-0.4,0,-35.1,4.4,25.8,0.167455061,0.701803644,-0.144688253,0.677083651
753,1887042,885850,0.988,0.044,-0.026,0,-0.3,0,-35.1,4.4,25.8,0.167455061,0.701803644,-0.144688253,0.677083651
754,1889629,885850,0.988,0.044,-0.018,0,-0.3,0,-35.1,4.4,25.8,0.167424543,0.701803644,-0.144688253,0.677083651
755,1890368,885860,0.992,0.04,-0.018,0,-0.2,0,-34.8,4.3,26.2,0.167424543,0.701803644,-0.144688253,0.677083651
756,1893828,885860,0.992,0.04,-0.022,0,-0.1,0,-34.8,4.3,26.2,0.167424543,0.701803644,-0.144688253,0.677083651
757,1895424,885860,0.985,0.04,-0.018,0,-0.1,0,-34.8,4.3,26.2,0.167424543,0.701803644,-0.144688253,0.677083651
758,1897792,885860,0.981,0.04,-0.022,-0.1,0,0,-34.8,4.3,26.2,0.167424543,0.701803644,-0.144688253,0.677083651
759,1900269,885870,0.981,0.036,-0.026,0,0.1,0,-34.7,3.4,26,0.167424543,0.701803644,-0.144688253,0.677083651
760,1904430,885870,0.981,0.04,-0.022,0,0.1,0.2,-34.7,3.4,26,0.167424543,0.701803644,-0.144688253,0.677083651
761,1906486,885870,0.981,0.036,-0.026,0,0.1,0.2,-34.7,3.4,26,0.167424543,0.701803644,-0.144688253,0.677083651
762,1907974,885870,0.981,0.04,-0.03,0,0,0.2,-34.7,3.4,26,0.167424543,0.701803644,-0.144718772,0.677083651
763,1911156,885880,0.985,0.036,-0.018,0,-0.3,0.1,-34.9,7.8,27.6,0.167424543,0.701803644,-0.144718772,0.677083651
764,1913337,885880,0.985,0.04,-0.026,0,-0.4,0,-34.9,7.8,27.6,0.167424543,0.701834162,-0.144718772,0.677083651
765,1915788,885880,0.985,0.036,-0.022,0,-0.7,0,-34.9,7.8,27.6,0.167424543,0.701834162,-0.144718772,0.677053133
766,1917875,885880,0.988,0.04,-0.022,0,-0.7,0,-34.9,7.8,27.6,0.167424543,0.701834162,-0.144718772,0.677053133
767,1921024,885890,0.988,0.044,-0.03,0.1,-0.6,0,-34.7,5.2,26,0.167424543,0.701803644,-0.144688253,0.677083651
768,1923242,885890,0.988,0.044,-0.03,0.1,-0.6,0,-34.7,5.2,26,0.167424543,0.701834162,-0.144688253,0.677083651
769,1925363,885890,0.988,0.036,-0.026,0,-0.4,0,-34.7,5.2,26,0.167424543,0.701834162,-0.144718772,0.677053133
770,1928510,885890,0.988,0.04,-0.022,0.1,-0.2,0.1,-34.7,5.2,26,0.167424543,0.701834162,-0.144718772,0.677053133
771,1931046,885900,0.985,0.044,-0.026,0,0,0.1,-35,5.6,25.6,0.167394024,0.701834162,-0.144718772,0.677053133
772,1933051,885900,0.981,0.04,-0.026,0,0,0.1,-35,5.6,25.6,0.167394024,0.701834162,-0.144718772,0.677053133
773,1935426,885900,0.981,0.04,-0.034,0,0,0.1,-35,5.6,25.6,0.167394024,0.701834162,-0.144718772,0.677053133
774,1938808,885900,0.977,0.036,-0.026,0,0,0,-35,5.6,25.6,0.167394024,0.701834162,-0.144718772,0.677053133
775,1940505,885910,0.981,0.04,-0.022,0,-0.1,0,-35.3,6.7,26.1,0.167394024,0.701834162,-0.144718772,0.677053133
776,1942933,885910,0.981,0.036,-0.022,0,-0.1,0,-35.3,6.7,26.1,0.167394024,0.701834162,-0.144718772,0.677053133
777,1945296,885910,0.985,0.04,-0.022,0,-0.1,0,-35.3,6.7,26.1,0.167394024,0.701834162,-0.144718772,0.677053133
778,1948545,885910,0.988,0.04,-0.03,0,-0.1,0,-35.3,6.7,26.1,0.167394024,0.701834162,-0.144718772,0.677053133
779,1950784,885920,0.988,0.036,-0.026,0,-0.2,0,-34.8,7.3,25.7,0.167394024,0.701834162,-0.144718772,0.677053133
780,1953289,885920,0.992,0.04,-0.026,0.1,-0.3,0,-34.8,7.3,25.7,0.167394024,0.701864681,-0.144718772,0.677053133
781,1955566,885920,0.996,0.04,-0.026,0.1,-0.3,-0.1,-34.8,7.3,25.7,0.167394024,0.701864681,-0.144718772,0.677053133
782,1958048,885920,0.992,0.04,-0.026,0.1,-0.3,-0.1,-34.8,7.3,25.7,0.167394024,0.701864681,-0.144718772,0.677022614
783,1960442,885930,0.985,0.036,-0.026,0,-0.3,0,-35,6.2,26.7,0.167394024,0.701864681,-0.144718772,0.677022614
784,1963495,885930,0.985,0.04,-0.026,0.1,-0.2,0,-35,6.2,26.7,0.167394024,0.701864681,-0.144688253,0.677022614
785,1965766,885930,0.985,0.04,-0.026,0.1,-0.1,0,-35,6.2,26.7,0.167394024,0.701864681,-0.144688253,0.677022614
786,1967953,885930,0.981,0.04,-0.026,0,0,0,-35,6.2,26.7,0.167394024,0.701864681,-0.144688253,0.677022614
787,1970272,885940,0.981,0.04,-0.03,0,0,0,-34.8,6.6,27.2,0.167424543,0.701864681,-0.144688253,0.677022614
788,1974137,885940,0.981,0.04,-0.034,-0.1,0,0,-34.8,6.6,27.2,0.167424543,0.701864681,-0.144688253,0.677022614
789,1975387,885940,0.977,0.044,-0.026,0,0,0,-34.8,6.6,27.2,0.167424543,0.701864681,-0.144688253,0.677022614
790,1978285,885940,0.981,0.04,-0.03,0,0,0,-34.8,6.6,27.2,0.167424543,0.701864681,-0.144688253,0.677022614
791,1980340,885950,0.985,0.04,-0.03,0.1,-0.1,0,-34.8,6.8,27.4,0.167424543,0.701864681,-0.144688253,0.677022614
792,1983519,885950,0.985,0.036,-0.026,0.1,-0.1,0,-34.8,6.8,27.4,0.167424543,0.701864681,-0.144688253,0.677022614
793,1986685,885950,0.992,0.044,-0.022,0,-0.3,0,-34.8,6.8,27.4,0.167424543,0.701895199,-0.144688253,0.677022614
794,1988516,885950,0.992,0.04,-0.018,0,-0.4,0,-34.8,6.8,27.4,0.167394024,0.701895199,-0.144688253,0.676992096
795,1990522,885960,0.992,0.044,-0.026,0,-0.4,0,-34.7,6.4,27,0.167394024,0.701895199,-0.144688253,0.676992096
796,1993023,885960,0.996,0.04,-0.022,0.1,-0.3,0,-34.7,6.4,27,0.167394024,0.701895199,-0.144688253,0.676992096
797,1996130,885960,0.992,0.04,-0.018,0.1,0,0.1,-34.7,6.4,27,0.167394024,0.701895199,-0.144688253,0.676992096
798,1997962,885960,0.988,0.036,-0.018,0.1,0.1,0.2,-34.7,6.4,27,0.167394024,0.701895199,-0.144688253,0.676992096
799,2000960,885970,0.988,0.044,-0.026,0.1,0.2,0.2,-35,6.4,27.3,0.167394024,0.701895199,-0.144688253,0.676992096
800,2004554,885970,0.985,0.04,-0.026,0.1,0.3,0.2,-35,6.4,27.3,0.167394024,0.701895199,-0.144688253,0.677022614
801,2006337,885970,0.977,0.04,-0.026,0,0.4,0,-35,6.4,27.3,0.167394024,0.701895199,-0.144688253,0.677022614
802,2007758,885970,0.981,0.04,-0.022,0,0.4,0,-35,6.4,27.3,0.167394024,0.701864681,-0.144688253,0.677022614
803,2010270,885980,0.977,0.033,-0.026,0,0.2,0,-34.9,5,26.8,0.167394024,0.701864681,-0.144688253,0.677022614
804,2014525,885980,0.981,0.044,-0.026,-0.1,0.1,0,-34.9,5,26.8,0.167394024,0.701864681,-0.144688253,0.677022614
805,2016187,885980,0.981,0.036,-0.03,-0.1,-0.1,0,-34.9,5,26.8,0.167394024,0.701864681,-0.144688253,0.677022614
806,2018609,885980,0.985,0.032,-0.026,-0.1,-0.3,0,-34.9,5,26.8,0.167394024,0.701864681,-0.144688253,0.677022614
807,2020761,885990,0.988,0.036,-0.026,-0.1,-0.4,0,-35.4,7.1,26.5,0.167394024,0.701895199,-0.144718772,0.677022614
808,2023249,885990,0.992,0.032,-0.03,0,-0.5,0,-35.4,7.1,26.5,0.167394024,0.701895199,-0.144718772,0.676992096
809,2025594,885990,0.988,0.04,-0.03,0,-0.4,0,-35.4,7.1,26.5,0.167394024,0.701895199,-0.144718772,0.676992096
810,2029555,885990,0.988,0.036,-0.026,0,-0.3,0,-35.4,7.1,26.5,0.167394024,0.701895199,-0.144718772,0.676992096
811,2031959,886000,0.981,0.036,-0.03,0,-0.2,0,-36.2,6.8,26.5,0.167394024,0.701925718,-0.144718772,0.676992096
812,2033396,886000,0.985,0.052,-0.034,0,-0.2,0,-36.2,6.8,26.5,0.167394024,0.701925718,-0.144718772,0.676992096
813,2035304,886000,0.981,0.048,-0.03,0,-0.2,0,-36.2,6.8,26.5,0.167394024,0.701925718,-0.144718772,0.676961577
814,2038203,886000,0.981,0.04,-0.034,0,-0.1,0,-36.2,6.8,26.5,0.167394024,0.701925718,-0.144718772,0.676961577
815,2040618,886010,0.988,0.044,-0.03,0,-0.1,0,-36.2,7.1,26.5,0.167363506,0.701925718,-0.144718772,0.676961577
816,2043980,886010,0.985,0.044,-0.026,0,0,-0.1,-36.2,7.1,26.5,0.167394024,0.701925718,-0.144718772,0.676961577
817,2046226,886010,0.985,0.04,-0.03,0,0,0,-36.2,7.1,26.5,0.167394024,0.701925718,-0.144718772,0.676961577
818,2048690,886010,0.985,0.032,-0.03,0,0,0,-36.2,7.1,26.5,0.167394024,0.701925718,-0.144718772,0.676961577
819,2050788,886020,0.988,0.036,-0.022,0,0,0,-36.8,6.8,26.6,0.167394024,0.701925718,-0.144718772,0.676961577
820,2053026,886020,0.988,0.04,-0.026,0,-0.1,0,-36.8,6.8,26.6,0.167363506,0.701925718,-0.144718772,0.676961577
821,2055284,886020,0.992,0.036,-0.026,0,-0.2,0,-36.8,6.8,26.6,0.167363506,0.701925718,-0.144718772,0.676961577
822,2057883,886020,0.992,0.044,-0.022,0,-0.3,0,-36.8,6.8,26.6,0.167363506,0.701925718,-0.144718772,0.676961577
823,2061216,886030,0.996,0.044,-0.019,0,-0.3,0,-33.8,5.2,26.8,0.167363506,0.701956236,-0.144718772,0.676961577
824,2062992,886030,0.988,0.04,-0.018,0,-0.1,0,-33.8,5.2,26.8,0.167363506,0.701956236,-0.144718772,0.676961577
825,2065344,886030,0.985,0.036,-0.018,0,0,0,-33.8,5.2,26.8,0.167363506,0.701956236,-0.144718772,0.676961577
826,2068678,886030,0.985,0.036,-0.026,0,0,0,-33.8,5.2,26.8,0.167363506,0.701956236,-0.144718772,0.676961577
827,2070392,886040,0.977,0.044,-0.022,-0.1,0.1,0,-36,7.3,26.9,0.167394024,0.701895199,-0.144718772,0.676992096
828,2072986,886040,0.977,0.044,-0.022,0,0.2,0,-36,7.3,26.9,0.167394024,0.701895199,-0.144718772,0.676992096
829,2075254,886040,0.981,0.036,-0.018,0,0.2,0,-36,7.3,26.9,0.167394024,0.701895199,-0.144718772,0.677022614
830,2078186,886040,0.977,0.04,-0.026,0,0.1,0,-36,7.3,26.9,0.167424543,0.701895199,-0.144718772,0.677022614
831,2081251,886050,0.977,0.036,-0.026,0,0,0,-36,7.4,27.1,0.167424543,0.701895199,-0.144718772,0.677022614
832,2082875,886050,0.988,0.032,-0.034,0,-0.3,0,-36,7.4,27.1,0.167394024,0.701895199,-0.144718772,0.676992096
833,2085761,886050,0.988,0.036,-0.026,0,-0.4,0,-36,7.4,27.1,0.167394024,0.701895199,-0.144718772,0.676992096
834,2087791,886050,0.988,0.04,-0.022,0,-0.5,0,-36,7.4,27.1,0.167394024,0.701895199,-0.144718772,0.676992096
835,2091119,886060,0.992,0.044,-0.026,0,-0.4,0.1,-35.3,7.5,27.1,0.167394024,0.701895199,-0.144718772,0.676992096
836,2092913,886060,0.992,0.032,-0.034,0.1,-0.4,0,-35.3,7.5,27.1,0.167394024,0.701925718,-0.144718772,0.676992096
837,2096288,886060,0.992,0.036,-0.03,0.1,-0.4,0,-35.3,7.5,27.1,0.167394024,0.701925718,-0.144718772,0.676961577
838,2097823,886060,0.988,0.04,-0.03,0.1,-0.3,0,-35.3,7.5,27.1,0.167394024,0.701925718,-0.144718772,0.676961577
839,2100999,886070,0.985,0.044,-0.03,0.1,-0.1,0,-34.7,7.5,27.2,0.167394024,0.701925718,-0.144718772,0.676961577
840,2103846,886070,0.985,0.04,-0.034,0.1,0,0,-34.7,7.5,27.2,0.167394024,0.701925718,-0.144718772,0.676961577
841,2105420,886070,0.985,0.044,-0.034,0.1,0,0,-34.7,7.5,27.2,0.167394024,0.701925718,-0.144718772,0.676961577
842,2108461,886070,0.985,0.04,-0.03,0,0,0,-34.7,7.5,27.2,0.167394024,0.701925718,-0.144718772,0.676961577
843,2111406,886080,0.985,0.044,-0.03,0,0,0,-34.7,6.1,26.9,0.167363506,0.701925718,-0.144718772,0.676961577
844,2113139,886080,0.988,0.04,-0.022,0,-0.1,0,-34.7,6.1,26.9,0.167363506,0.701925718,-0.144718772,0.676961577
845,2115609,886080,0.992,0.04,-0.026,0,-0.1,0,-34.7,6.1,26.9,0.167363506,0.701925718,-0.144718772,0.676961577
846,2117731,886080,0.988,0.04,-0.018,0,-0.1,0,-34.7,6.1,26.9,0.167363506,0.701925718,-0.144718772,0.676961577
847,2121036,886090,0.985,0.032,-0.026,0,-0.1,0,-34.6,6.5,26.5,0.167394024,0.701925718,-0.144688253,0.676961577
848,2122887,886090,0.985,0.032,-0.026,-0.1,0,0,-34.6,6.5,26.5,0.167394024,0.701925718,-0.144688253,0.676961577
849,2126306,886090,0.981,0.04,-0.026,-0.1,0,0,-34.6,6.5,26.5,0.167394024,0.701925718,-0.144688253,0.676961577
850,2127975,886090,0.985,0.04,-0.03,0,0.1,0,-34.6,6.5,26.5,0.167394024,0.701925718,-0.144688253,0.676961577
851,2130504,886100,0.981,0.032,-0.03,0,0.2,0,-35,6.2,26.5,0.167394024,0.701925718,-0.144688253,0.676961577
852,2132946,886100,0.981,0.033,-0.022,0,0.1,0,-35,6.2,26.5,0.167394024,0.701925718,-0.144688253,0.676992096
853,2136460,886100,0.985,0.044,-0.03,0.1,0.1,0,-35,6.2,26.5,0.167394024,0.701925718,-0.144688253,0.676992096
854,2138434,886100,0.981,0.048,-0.018,0.1,0,0,-35,6.2,26.5,0.167394024,0.701925718,-0.144688253,0.676992096
855,2140529,886110,0.988,0.044,-0.026,0.1,0,0,-34.7,6.3,26.9,0.167394024,0.701925718,-0.144688253,0.676992096
856,2142961,886110,0.988,0.04,-0.022,0.1,0,0,-34.7,6.3,26.9,0.167394024,0.701925718,-0.144688253,0.676992096
857,2146540,886110,0.992,0.048,-0.026,0,-0.1,0,-34.7,6.3,26.9,0.167394024,0.701925718,-0.144688253,0.676992096
858,2148862,886110,0.992,0.044,-0.026,-0.1,-0.1,0,-34.7,6.3,26.9,0.167394024,0.701925718,-0.144688253,0.676992096
859,2150864,886120,0.988,0.044,-0.026,-0.1,-0.1,0,-34.5,6.2,26.3,0.167394024,0.701925718,-0.144688253,0.676992096
860,2153235,886120,0.977,0.033,-0.026,-0.1,0,0,-34.5,6.2,26.3,0.167394024,0.701925718,-0.144688253,0.676992096
861,2155579,886120,0.977,0.036,-0.026,-0.1,0.1,0,-34.5,6.2,26.3,0.167394024,0.701925718,-0.144688253,0.676992096
862,2157991,886120,0.977,0.033,-0.034,0,0.1,0,-34.5,6.2,26.3,0.167394024,0.701925718,-0.144688253,0.676992096
863,2162143,886130,0.977,0.033,-0.03,0,0,0,-35.5,6.2,26.9,0.167394024,0.701925718,-0.144688253,0.676992096
864,2162973,886130,0.985,0.04,-0.03,0,0,0,-35.5,6.2,26.9,0.167394024,0.701925718,-0.144688253,0.676992096
865,2165746,886130,0.988,0.04,-0.03,0,-0.3,0,-35.5,6.2,26.9,0.167394024,0.701925718,-0.144688253,0.676992096
866,2167896,886130,0.992,0.044,-0.03,0.1,-0.4,0,-35.5,6.2,26.9,0.167394024,0.701925718,-0.144688253,0.676961577
867,2170493,886140,0.996,0.04,-0.022,0.1,-0.3,0,-34.1,6,26.7,0.167394024,0.701956236,-0.144688253,0.676931059
868,2172763,886140,0.996,0.044,-0.022,0.1,-0.1,0,-34.1,6,26.7,0.167394024,0.701956236,-0.144688253,0.676931059
869,2176436,886140,0.996,0.048,-0.022,0,0,0,-34.1,6,26.7,0.167394024,0.701956236,-0.144688253,0.676931059
870,2177990,886140,0.988,0.044,-0.026,0,0,0,-34.1,6,26.7,0.167394024,0.701956236,-0.144688253,0.676931059
871,2180539,886150,0.981,0.032,-0.026,-0.1,0.2,0,-34,6.1,26.9,0.167394024,0.701956236,-0.144688253,0.676931059
872,2183923,886150,0.977,0.033,-0.026,-0.1,0.4,0,-34,6.1,26.9,0.167394024,0.701956236,-0.144688253,0.676931059
873,2185435,886150,0.973,0.033,-0.022,-0.1,0.5,0,-34,6.1,26.9,0.167394024,0.701956236,-0.144688253,0.676961577
874,2189152,886150,0.969,0.033,-0.029,0,0.5,0,-34,6.1,26.9,0.167394024,0.701925718,-0.144688253,0.676961577
875,2190844,886160,0.981,0.032,-0.034,0,0.3,0.1,-34.1,6,26.7,0.167394024,0.701925718,-0.144688253,0.676961577
876,2193349,886160,0.977,0.033,-0.026,0.1,0,0.1,-34.1,6,26.7,0.167394024,0.701925718,-0.144688253,0.676961577
877,2195266,886160,0.985,0.036,-0.022,0.1,-0.3,0,-34.1,6,26.7,0.167394024,0.701925718,-0.144688253,0.676961577
878,2198310,886160,1,0.044,-0.019,0.1,-0.5,0,-34.1,6,26.7,0.167394024,0.701956236,-0.144688253,0.676961577
879,2200417,886170,1,0.044,-0.023,0.1,-0.6,0,-34.3,6.2,26.7,0.167394024,0.701956236,-0.144688253,0.676931059
880,2203430,886170,1,0.044,-0.027,0.1,-0.4,0,-34.3,6.2,26.7,0.167394024,0.701956236,-0.144688253,0.676931059
881,2205690,886170,0.988,0.04,-0.022,0,-0.3,0,-34.3,6.2,26.7,0.167394024,0.701956236,-0.144688253,0.676931059
882,2208885,886170,0.985,0.04,-0.018,0,-0.1,0,-34.3,6.2,26.7,0.167363506,0.701956236,-0.144688253,0.676931059
883,2210319,886180,0.985,0.04,-0.022,0,0,0,-36.5,6,26.8,0.167363506,0.701956236,-0.144688253,0.676931059
884,2213996,886180,0.981,0.036,-0.034,0,0,0,-36.5,6,26.8,0.167363506,0.701956236,-0.144688253,0.676931059
885,2215430,886180,0.977,0.036,-0.022,0,0,0,-36.5,6,26.8,0.167363506,0.701956236,-0.144688253,0.676931059
886,2219485,886180,0.977,0.036,-0.026,0,0,0,-36.5,6,26.8,0.167363506,0.701956236,-0.144688253,0.676931059
887,2220248,886190,0.981,0.036,-0.022,0,0,0,-33.6,6.2,26.6,0.167363506,0.701956236,-0.144688253,0.676931059
888,2222764,886190,0.981,0.036,-0.022,0,0,0,-33.6,6.2,26.6,0.167363506,0.701956236,-0.144688253,0.676931059
889,2225857,886190,0.988,0.036,-0.022,0,0,0,-33.6,6.2,26.6,0.167363506,0.701956236,-0.144688253,0.676931059
890,2227974,886190,0.992,0.04,-0.03,0,-0.1,0,-33.6,6.2,26.6,0.167363506,0.701956236,-0.144688253,0.676931059
891,2231229,886200,0.992,0.04,-0.026,0,-0.2,0,-33.5,5.7,26.6,0.167363506,0.701986755,-0.144718772,0.676931059
892,2232782,886200,0.992,0.044,-0.03,0,-0.2,0,-33.5,5.7,26.6,0.167363506,0.701986755,-0.144718772,0.676931059
893,2235375,886200,0.988,0.044,-0.022,0,-0.1,0,-33.5,5.7,26.6,0.167363506,0.701986755,-0.144718772,0.676931059
894,2238023,886200,0.988,0.036,-0.022,0,0,0,-33.5,5.7,26.6,0.167363506,0.701986755,-0.144718772,0.676931059
895,2240348,886210,0.985,0.04,-0.03,0,0,0.1,-33.9,6.2,26.4,0.167363506,0.701986755,-0.144718772,0.676931059
896,2244258,886210,0.981,0.036,-0.022,0,0,0,-33.9,6.2,26.4,0.167363506,0.701986755,-0.144718772,0.676931059
897,2246373,886210,0.988,0.036,-0.022,0,0,0,-33.9,6.2,26.4,0.167363506,0.701986755,-0.144718772,0.676931059
898,2248614,886210,0.985,0.032,-0.026,0,0,0,-33.9,6.2,26.4,0.167363506,0.701986755,-0.144718772,0.676931059
899,2250694,886220,0.981,0.036,-0.03,0,0,0,-34.1,6.1,26.5,0.167363506,0.701986755,-0.144718772,0.676931059
900,2252960,886220,0.981,0.036,-0.026,0,0,0,-34.1,6.1,26.5,0.167363506,0.701986755,-0.144718772,0.676931059
901,2256230,886220,0.977,0.044,-0.03,0,-0.1,0,-34.1,6.1,26.5,0.167363506,0.701986755,-0.144718772,0.67690054
902,2258067,886220,0.981,0.036,-0.042,0,-0.1,0,-34.1,6.1,26.5,0.167363506,0.701986755,-0.144718772,0.67690054
903,2261166,886230,0.981,0.04,-0.038,0,-0.1,0,-35,6.3,26.8,0.167363506,0.701986755,-0.144718772,0.67690054
904,2263562,886230,0.981,0.04,-0.03,0,-0.1,0,-35,6.3,26.8,0.167363506,0.701986755,-0.144718772,0.67690054
905,2265889,886230,0.985,0.044,-0.034,0,0,0,-35,6.3,26.8,0.167363506,0.701986755,-0.144718772,0.67690054
906,2268240,886230,0.988,0.044,-0.034,0,-0.1,0,-35,6.3,26.8,0.167363506,0.701986755,-0.144718772,0.67690054
907,2270410,886240,0.992,0.04,-0.026,0,-0.2,0,-34.8,5.9,27.2,0.167394024,0.70207831,-0.144688253,0.676839503
908,2273285,886240,0.992,0.04,-0.026,0,-0.2,0,-34.8,5.9,27.2,0.167394024,0.70207831,-0.144688253,0.676808985
909,2277118,886240,0.992,0.04,-0.03,0.1,-0.2,0,-34.8,5.9,27.2,0.167394024,0.70207831,-0.144688253,0.676808985
910,2278707,886240,1,0.044,-0.023,0,-0.1,0.1,-34.8,5.9,27.2,0.167363506,0.70207831,-0.144688253,0.676808985
911,2280899,886250,0.992,0.04,-0.018,0,0,0,-34.5,5.7,26.9,0.167363506,0.70207831,-0.144688253,0.676808985
912,2283269,886250,0.988,0.04,-0.014,0,0,0,-34.5,5.7,26.9,0.167363506,0.70207831,-0.144688253,0.676808985
913,2285443,886250,0.985,0.04,-0.014,0,0.1,0,-34.5,5.7,26.9,0.167363506,0.70207831,-0.144688253,0.676808985
914,2288213,886250,0.981,0.036,-0.03,0,0.2,-0.1,-34.5,5.7,26.9,0.167394024,0.70207831,-0.144688253,0.676808985
915,2290404,886260,0.973,0.037,-0.022,-0.1,0.3,-0.1,-34.7,5.7,26.9,0.167394024,0.70207831,-0.144688253,0.676839503
916,2292964,886260,0.977,0.033,-0.022,-0.1,0.4,0,-34.7,5.7,26.9,0.167394024,0.70207831,-0.144688253,0.676839503
917,2296151,886260,0.977,0.04,-0.022,-0.1,0.3,0,-34.7,5.7,26.9,0.167394024,0.702047792,-0.144688253,0.676839503
918,2298365,886260,0.973,0.033,-0.026,0,0.2,0,-34.7,5.7,26.9,0.167394024,0.702047792,-0.144688253,0.676839503
919,2300674,886270,0.973,0.033,-0.026,0,0,0,-34.4,6.2,26.9,0.167394024,0.702047792,-0.144688253,0.676839503
920,2302871,886270,0.985,0.036,-0.022,0.1,-0.1,0,-34.4,6.2,26.9,0.167394024,0.702047792,-0.144688253,0.676839503
921,2305871,886270,0.985,0.04,-0.026,0.1,-0.3,0,-34.4,6.2,26.9,0.167394024,0.702047792,-0.144688253,0.676839503
922,2307971,886270,0.992,0.036,-0.022,0.1,-0.5,0,-34.4,6.2,26.9,0.167394024,0.70207831,-0.144688253,0.676839503
923,2310271,886280,0.992,0.04,-0.026,0.1,-0.6,-0.2,-34.6,6,26.4,0.167394024,0.70207831,-0.144688253,0.676808985
924,2313363,886280,0.996,0.048,-0.022,0.1,-0.6,-0.2,-34.6,6,26.4,0.167394024,0.70207831,-0.144688253,0.676808985
925,2315465,886280,0.996,0.048,-0.034,0,-0.7,-0.1,-34.6,6,26.4,0.167394024,0.702108829,-0.144688253,0.676747948
926,2319516,886280,0.992,0.04,-0.034,0,-0.6,0,-34.6,6,26.4,0.167394024,0.702108829,-0.144688253,0.676747948
927,2321315,886290,0.985,0.04,-0.026,0,-0.3,0,-34.9,6,27.4,0.167424543,0.702139348,-0.144657735,0.676747948
928,2322894,886290,0.985,0.04,-0.034,0,0,0,-34.9,6,27.4,0.167394024,0.702139348,-0.144657735,0.676747948
929,2325605,886290,0.981,0.036,-0.034,0,0.2,0,-34.9,6,27.4,0.167394024,0.702139348,-0.144657735,0.676747948
930,2327812,886290,0.985,0.04,-0.03,0.1,0.3,0,-34.9,6,27.4,0.167394024,0.702139348,-0.144627216,0.676747948
931,2331934,886300,0.981,0.04,-0.03,0,0.4,-0.1,-34.8,6.2,28.2,0.167424543,0.702139348,-0.144627216,0.676747948
932,2333585,886300,0.977,0.04,-0.03,0,0.2,0,-34.8,6.2,28.2,0.167424543,0.702108829,-0.144627216,0.676747948
933,2335752,886300,0.985,0.04,-0.03,0,0.1,0,-34.8,6.2,28.2,0.167424543,0.702108829,-0.144627216,0.676747948
934,2337976,886300,0.988,0.036,-0.022,-0.1,0,0,-34.8,6.2,28.2,0.167424543,0.702108829,-0.144627216,0.676747948
935,2340343,886310,0.985,0.04,-0.026,-0.1,0,0,-35,6.2,28.6,0.167424543,0.702108829,-0.144627216,0.676747948
936,2343882,886310,0.988,0.04,-0.026,-0.1,-0.1,0,-35,6.2,28.6,0.167424543,0.702108829,-0.144657735,0.676747948
937,2345693,886310,0.992,0.036,-0.026,0,-0.1,0,-35,6.2,28.6,0.167424543,0.702108829,-0.144657735,0.676747948
938,2347949,886310,0.992,0.04,-0.026,0,-0.2,0,-35,6.2,28.6,0.167424543,0.702139348,-0.144657735,0.676747948
939,2350338,886320,0.985,0.036,-0.022,0,-0.1,0,-34.5,6.1,28.9,0.167424543,0.702139348,-0.144657735,0.676747948
940,2352811,886320,0.985,0.04,-0.026,0.1,0,0,-34.5,6.1,28.9,0.167424543,0.702139348,-0.144657735,0.676747948
941,2355842,886320,0.981,0.036,-0.026,0,0.1,0,-34.5,6.1,28.9,0.167424543,0.702139348,-0.144657735,0.676747948
942,2357910,886320,0.981,0.036,-0.026,0,0.1,0,-34.5,6.1,28.9,0.167424543,0.702108829,-0.144657735,0.676747948
943,2360318,886330,0.985,0.036,-0.026,0,0.1,0,-34.9,6.1,25,0.167424543,0.702108829,-0.144657735,0.676747948
944,2363997,886330,0.985,0.048,-0.022,0,0.1,0,-34.9,6.1,25,0.167424543,0.702108829,-0.144657735,0.676747948
945,2365776,886330,0.988,0.044,-0.018,0.1,0.1,0.1,-34.9,6.1,25,0.167394024,0.702108829,-0.144657735,0.676747948
946,2368270,886330,0.988,0.044,-0.018,0,0,0,-34.9,6.1,25,0.167394024,0.702108829,-0.144657735,0.676747948
947,2370512,886340,0.988,0.036,-0.018,0,-0.1,0,-34.7,6.2,26.9,0.167455061,0.70207831,-0.144596698,0.676808985
948,2372938,886340,0.988,0.036,-0.018,0,-0.1,0,-34.7,6.2,26.9,0.167455061,0.70207831,-0.144596698,0.676808985
949,2375256,886340,0.985,0.036,-0.026,0,0,0,-34.7,6.2,26.9,0.167455061,0.70207831,-0.144596698,0.676808985
950,2378892,886340,0.977,0.033,-0.034,0,0,0,-34.7,6.2,26.9,0.167455061,0.70207831,-0.144596698,0.676808985
951,2381198,886350,0.977,0.029,-0.03,0,0,0,-34.6,6.3,26.8,0.167455061,0.70207831,-0.144596698,0.676808985
952,2384053,886350,0.977,0.036,-0.026,0,-0.1,0.1,-34.6,6.3,26.8,0.167455061,0.70207831,-0.144596698,0.676808985
953,2385704,886350,0.977,0.036,-0.034,0,-0.3,0.1,-34.6,6.3,26.8,0.167455061,0.70207831,-0.144596698,0.676808985
954,2387964,886350,0.988,0.04,-0.03,0,-0.4,0,-34.6,6.3,26.8,0.167455061,0.70207831,-0.144596698,0.676808985
955,2390320,886360,0.988,0.044,-0.03,0,-0.4,0,-34.8,6.1,26,0.167455061,0.702108829,-0.144596698,0.676808985
956,2393736,886360,0.992,0.04,-0.03,0,-0.3,0,-34.8,6.1,26,0.167455061,0.702108829,-0.144596698,0.676747948
957,2396194,886360,0.996,0.04,-0.026,0,-0.2,0,-34.8,6.1,26,0.167455061,0.702108829,-0.144596698,0.676747948
958,2398322,886360,1,0.048,-0.023,0.1,-0.1,0,-34.8,6.1,26,0.167455061,0.702108829,-0.144596698,0.676747948
959,2400476,886370,0.996,0.04,-0.026,0.1,0,0.1,-35,5.8,25.5,0.167455061,0.702108829,-0.144596698,0.676747948
960,2402863,886370,0.992,0.036,-0.03,0,0.1,0.1,-35,5.8,25.5,0.167424543,0.702108829,-0.144596698,0.676747948
961,2405932,886370,0.992,0.036,-0.022,-0.1,0.3,0,-35,5.8,25.5,0.167455061,0.702108829,-0.144627216,0.676808985
962,2408284,886370,0.981,0.036,-0.026,-0.1,0.3,0,-35,5.8,25.5,0.167455061,0.702108829,-0.144627216,0.676808985
963,2410578,886380,0.981,0.036,-0.022,-0.1,0.5,0,-34.7,6.1,26.4,0.167455061,0.70207831,-0.144627216,0.676808985
964,2412840,886380,0.981,0.036,-0.018,-0.1,0.5,0,-34.7,6.1,26.4,0.167455061,0.70207831,-0.144627216,0.676808985
965,2417424,886380,0.981,0.036,-0.018,-0.1,0.4,0,-34.7,6.1,26.4,0.167455061,0.70207831,-0.144627216,0.676808985
966,2418074,886380,0.985,0.036,-0.018,-0.1,0.2,0,-34.7,6.1,26.4,0.167455061,0.70207831,-0.144627216,0.676839503
967,2421312,886390,0.988,0.04,-0.026,-0.1,0,0,-34.5,6,26.6,0.167455061,0.702017273,-0.144627216,0.67690054
968,2423407,886390,0.988,0.04,-0.026,-0.1,0,0,-34.5,6,26.6,0.167455061,0.702017273,-0.144627216,0.67690054
969,2425619,886390,0.988,0.04,-0.022,-0.1,0,0,-34.5,6,26.6,0.167455061,0.702017273,-0.144627216,0.67690054
970,2427850,886390,0.985,0.036,-0.026,0,0,0,-34.5,6,26.6,0.167455061,0.702017273,-0.144627216,0.67690054
971,2430321,886400,0.988,0.032,-0.03,0,0.1,0,-34.7,6.2,26.4,0.167455061,0.701986755,-0.144627216,0.67690054
972,2433575,886400,0.985,0.044,-0.026,0,0.1,0,-34.7,6.2,26.4,0.167455061,0.701986755,-0.144627216,0.67690054
973,2435823,886400,0.981,0.036,-0.026,0,0,0,-34.7,6.2,26.4,0.16748558,0.701986755,-0.144627216,0.67690054
974,2438811,886400,0.985,0.04,-0.022,0,0.1,0,-34.7,6.2,26.4,0.16748558,0.701986755,-0.144627216,0.67690054
975,2440422,886410,0.985,0.04,-0.03,0,0.1,0,-34.7,6.2,26.4,0.16748558,0.701986755,-0.144627216,0.67690054
976,2443905,886410,0.988,0.04,-0.026,0,0,0,-34.7,6.2,26.4,0.16748558,0.701986755,-0.144627216,0.67690054
977,2445400,886410,0.988,0.04,-0.026,0,-0.1,-0.1,-34.7,6.2,26.4,0.16748558,0.701986755,-0.144627216,0.67690054
978,2447700,886410,0.988,0.04,-0.026,0.1,-0.3,-0.1,-34.7,6.2,26.4,0.16748558,0.702017273,-0.144596698,0.67690054
979,2451585,886420,0.985,0.036,-0.03,0,-0.2,0,-35,6.3,26.3,0.16748558,0.702017273,-0.144596698,0.67690054
980,2453102,886420,0.985,0.04,-0.03,0,-0.1,0,-35,6.3,26.3,0.16748558,0.702017273,-0.144596698,0.676870022
981,2455842,886420,0.985,0.04,-0.038,0,0,0,-35,6.3,26.3,0.16748558,0.702017273,-0.144596698,0.676870022
982,2458086,886420,0.985,0.04,-0.03,-0.1,0,0,-35,6.3,26.3,0.16748558,0.702017273,-0.144596698,0.676870022
983,2460847,886430,0.985,0.04,-0.03,-0.1,0,0,-35,6.1,27.7,0.16748558,0.702017273,-0.144596698,0.676870022
984,2462869,886430,0.985,0.036,-0.026,0,0,0,-35,6.1,27.7,0.16748558,0.702017273,-0.144596698,0.676870022
985,2465608,886430,0.981,0.04,-0.03,0,0,0,-35,6.1,27.7,0.16748558,0.702017273,-0.144596698,0.676870022
986,2468616,886430,0.988,0.04,-0.026,0,0,0,-35,6.1,27.7,0.16748558,0.702017273,-0.144596698,0.676870022
987,2471373,886440,0.992,0.036,-0.022,0.1,0,0,-35.1,5.9,26.4,0.16748558,0.702017273,-0.144596698,0.676870022
988,2473414,886440,0.988,0.04,-0.026,0.1,0,0,-35.1,5.9,26.4,0.16748558,0.702017273,-0.144596698,0.676870022
989,2475250,886440,0.985,0.04,-0.026,0.1,0,0,-35.1,5.9,26.4,0.16748558,0.702017273,-0.144596698,0.676870022
990,2478919,886440,0.988,0.04,-0.022,0.1,0,0,-35.1,5.9,26.4,0.16748558,0.702017273,-0.144596698,0.676870022
991,2480326,886450,0.981,0.044,-0.026,0.1,0.1,0,-35.2,5,25.9,0.16748558,0.702017273,-0.144596698,0.676870022
992,2483481,886450,0.981,0.044,-0.03,0.1,0.2,0,-35.2,5,25.9,0.16748558,0.702017273,-0.144596698,0.676870022
993,2486605,886450,0.981,0.04,-0.026,0,0.2,0.1,-35.2,5,25.9,0.16748558,0.702017273,-0.144596698,0.676870022
994,2487986,886450,0.977,0.036,-0.03,0,0.2,0.1,-35.2,5,25.9,0.16748558,0.702017273,-0.144596698,0.676870022
995,2491052,886460,0.977,0.04,-0.03,0,0.3,0.2,-34.7,4.5,26,0.16748558,0.702017273,-0.144596698,0.67690054
996,2492795,886460,0.981,0.036,-0.026,-0.1,0.1,0,-34.7,4.5,26,0.16748558,0.702017273,-0.144596698,0.67690054
997,2495955,886460,0.981,0.036,-0.03,-0.1,0,0,-34.7,4.5,26,0.16748558,0.702017273,-0.144596698,0.67690054
998,2498902,886460,0.992,0.044,-0.022,0,-0.1,0,-34.7,4.5,26,0.16748558,0.702017273,-0.144596698,0.67690054
999,2500450,886470,0.996,0.04,-0.019,0,-0.3,0,-34.9,3.7,26.2,0.16748558,0.702017273,-0.144596698,0.676870022
1000,2503565,886470,1,0.044,-0.023,0.1,-0.3,0,-34.9,3.7,26.2,0.16748558,0.702017273,-0.144596698,0.676870022
1001,2505870,886470,0.988,0.04,-0.026,0.1,-0.1,0,-34.9,3.7,26.2,0.16748558,0.702017273,-0.144596698,0.676870022
1002,2508867,886470,0.988,0.04,-0.022,0,0,0,-34.9,3.7,26.2,0.16748558,0.702017273,-0.144596698,0.676870022
1003,2510433,886480,0.985,0.032,-0.018,0,0,0,-34.8,7.6,27.9,0.16748558,0.702017273,-0.144596698,0.676870022
1004,2512799,886480,0.981,0.032,-0.026,-0.1,0.1,0,-34.8,7.6,27.9,0.16748558,0.702017273,-0.144596698,0.676870022
1005,2515632,886480,0.977,0.036,-0.026,-0.1,0.1,0,-34.8,7.6,27.9,0.16748558,0.702017273,-0.144596698,0.676870022
1006,2518360,886480,0.973,0.037,-0.022,0,0.1,0,-34.8,7.6,27.9,0.16748558,0.702017273,-0.144596698,0.676870022
1007,2520700,886490,0.981,0.036,-0.026,0,0,0,-35.2,5.4,25.9,0.167455061,0.701986755,-0.144627216,0.67690054
1008,2523044,886490,0.985,0.048,-0.026,0,0,0,-35.2,5.4,25.9,0.167455061,0.701986755,-0.144627216,0.67690054
1009,2525614,886490,0.985,0.04,-0.026,0.1,0,0.1,-35.2,5.4,25.9,0.167455061,0.701986755,-0.144627216,0.676931059
1010,2527931,886490,0.996,0.044,-0.026,0,-0.1,0.1,-35.2,5.4,25.9,0.167455061,0.701986755,-0.144627216,0.67690054
1011,2531395,886500,0.992,0.04,-0.03,0,-0.3,0,-35.1,5.3,25.7,0.167455061,0.701986755,-0.144627216,0.67690054
1012,2533535,886500,0.992,0.04,-0.026,0.1,-0.4,0,-35.1,5.3,25.7,0.167455061,0.701986755,-0.144627216,0.67690054
1013,2535729,886500,0.988,0.036,-0.03,0,-0.4,0,-35.1,5.3,25.7,0.167455061,0.702017273,-0.144627216,0.67690054
1014,2538053,886500,0.988,0.036,-0.034,0,-0.3,0,-35.1,5.3,25.7,0.167424543,0.702017273,-0.144627216,0.67690054
1015,2540666,886510,0.981,0.032,-0.034,0,-0.2,0.1,-35.7,5.3,25.9,0.167424543,0.702017273,-0.144627216,0.67690054
1016,2542868,886510,0.977,0.04,-0.03,0,0,0.1,-35.7,5.3,25.9,0.167424543,0.702017273,-0.144627216,0.67690054
1017,2546943,886510,0.981,0.032,-0.03,0,0.1,0,-35.7,5.3,25.9,0.167424543,0.702017273,-0.144627216,0.67690054
1018,2549424,886510,0.981,0.036,-0.03,0,0.1,0,-35.7,5.3,25.9,0.167424543,0.702017273,-0.144627216,0.67690054
1019,2551048,886520,0.985,0.044,-0.03,0,0,0,-34.7,6.1,25.7,0.167424543,0.702017273,-0.144627216,0.67690054
1020,2553462,886520,0.988,0.044,-0.034,0,-0.1,0,-34.7,6.1,25.7,0.167424543,0.702017273,-0.144627216,0.67690054
1021,2555785,886520,0.988,0.044,-0.022,0,-0.2,0,-34.7,6.1,25.7,0.167424543,0.702017273,-0.144627216,0.676870022
1022,2558160,886520,0.988,0.044,-0.022,0,-0.2,0,-34.7,6.1,25.7,0.167424543,0.702017273,-0.144627216,0.676870022
1023,2560564,886530,0.988,0.044,-0.022,0,-0.1,0,-34.6,6.5,26.8,0.167424543,0.702017273,-0.144657735,0.676870022
1024,2563022,886530,0.988,0.036,-0.022,0,-0.1,0.1,-34.6,6.5,26.8,0.167424543,0.702017273,-0.144657735,0.676870022
1025,2565657,886530,0.988,0.044,-0.026,0,0,0,-34.6,6.5,26.8,0.167424543,0.702017273,-0.144657735,0.676870022
1026,2569145,886530,0.988,0.036,-0.022,0,0,0,-34.6,6.5,26.8,0.167424543,0.702017273,-0.144657735,0.676870022
1027,2570732,886540,0.985,0.04,-0.022,0,0.1,0,-34.5,6.7,27.1,0.167455061,0.701986755,-0.144627216,0.67690054
1028,2573241,886540,0.985,0.04,-0.022,0,0.1,0,-34.5,6.7,27.1,0.167455061,0.701986755,-0.144627216,0.67690054
1029,2576819,886540,0.981,0.04,-0.026,0.1,0.1,0,-34.5,6.7,27.1,0.167455061,0.701986755,-0.144627216,0.67690054
1030,2577766,886540,0.985,0.04,-0.026,0,0.1,0,-34.5,6.7,27.1,0.167455061,0.701986755,-0.144627216,0.67690054
1031,2581412,886550,0.985,0.036,-0.026,0,0,0,-35,6.5,27,0.167455061,0.701986755,-0.144627216,0.67690054
1032,2583818,886550,0.985,0.036,-0.026,0,0,0,-35,6.5,27,0.167455061,0.701986755,-0.144627216,0.67690054
1033,2585980,886550,0.981,0.036,-0.022,0,-0.1,0,-35,6.5,27,0.167455061,0.701986755,-0.144627216,0.67690054
1034,2588166,886550,0.985,0.04,-0.026,0,-0.1,0,-35,6.5,27,0.167455061,0.701986755,-0.144627216,0.67690054
1035,2590461,886560,0.985,0.04,-0.022,0,0,0,-34.8,6.6,26.9,0.167455061,0.701986755,-0.144627216,0.67690054
1036,2592786,886560,0.981,0.032,-0.026,0,0,0,-34.8,6.6,26.9,0.167455061,0.701986755,-0.144627216,0.67690054
1037,2595306,886560,0.985,0.032,-0.03,0,0,0.1,-34.8,6.6,26.9,0.167455061,0.701986755,-0.144627216,0.67690054
1038,2599433,886560,0.981,0.036,-0.03,0,0,0.1,-34.8,6.6,26.9,0.167424543,0.701986755,-0.144627216,0.67690054
1039,2601723,886570,0.985,0.04,-0.03,0,-0.1,0,-34.7,7,26.7,0.167424543,0.701986755,-0.144627216,0.67690054
1040,2603931,886570,0.988,0.036,-0.03,0,-0.1,-0.1,-34.7,7,26.7,0.167455061,0.701986755,-0.144627216,0.67690054
1041,2606231,886570,0.988,0.044,-0.026,0,-0.1,-0.1,-34.7,7,26.7,0.167455061,0.701986755,-0.144627216,0.67690054
1042,2608487,886570,0.992,0.048,-0.03,0.1,-0.1,-0.1,-34.7,7,26.7,0.167455061,0.702017273,-0.144627216,0.67690054
1043,2610790,886580,0.996,0.04,-0.034,0,-0.3,0,-34.6,5.7,26.9,0.167455061,0.702017273,-0.144627216,0.67690054
1044,2612913,886580,0.988,0.036,-0.026,0,-0.3,0,-34.6,5.7,26.9,0.167455061,0.702017273,-0.144627216,0.676870022
1045,2615639,886580,0.985,0.044,-0.03,0,-0.1,0,-34.6,5.7,26.9,0.167424543,0.702017273,-0.144627216,0.676870022
1046,2617926,886580,0.985,0.048,-0.03,0,0.1,0.1,-34.6,5.7,26.9,0.167424543,0.702017273,-0.144627216,0.676870022
1047,2621194,886590,0.985,0.029,-0.022,0,0.2,0,-35.2,6.2,26.5,0.167455061,0.702047792,-0.144596698,0.676839503
1048,2623445,886590,0.981,0.04,-0.034,0,0.2,0,-35.2,6.2,26.5,0.167455061,0.702047792,-0.144596698,0.676839503
1049,2625769,886590,0.977,0.036,-0.03,-0.1,0.1,0,-35.2,6.2,26.5,0.16748558,0.702047792,-0.144596698,0.676839503
1050,2627980,886590,0.988,0.04,-0.03,-0.1,0,0,-35.2,6.2,26.5,0.16748558,0.702047792,-0.144596698,0.676839503
1051,2630554,886600,0.988,0.032,-0.026,-0.1,0,0,-35.2,6.8,26.4,0.16748558,0.702047792,-0.144596698,0.676839503
1052,2632775,886600,0.988,0.04,-0.022,0,0,0,-35.2,6.8,26.4,0.16748558,0.702047792,-0.144596698,0.676839503
1053,2637055,886600,0.992,0.04,-0.026,0,0,0,-35.2,6.8,26.4,0.16748558,0.702047792,-0.144596698,0.676839503
1054,2639220,886600,0.992,0.036,-0.026,0,-0.2,0,-35.2,6.8,26.4,0.16748558,0.702047792,-0.144596698,0.676839503
1055,2641473,886610,0.992,0.04,-0.022,0,-0.3,0,-35.8,6.7,26.4,0.16748558,0.702047792,-0.144596698,0.676839503
1056,2643802,886610,0.985,0.04,-0.026,0,-0.3,0,-35.8,6.7,26.4,0.16748558,0.702047792,-0.144596698,0.676839503
1057,2645900,886610,0.985,0.04,-0.03,0,-0.1,0,-35.8,6.7,26.4,0.16748558,0.702047792,-0.144596698,0.676839503
1058,2648237,886610,0.981,0.036,-0.026,0,0,0,-35.8,6.7,26.4,0.16748558,0.702047792,-0.144596698,0.676839503
1059,2650431,886620,0.981,0.04,-0.03,0,0.1,0,-36.6,6.8,26.8,0.16748558,0.702047792,-0.144596698,0.676839503
1060,2653035,886620,0.973,0.033,-0.03,0,0.1,0,-36.6,6.8,26.8,0.16748558,0.702047792,-0.144596698,0.676839503
1061,2656462,886620,0.981,0.036,-0.026,0,0.1,0,-36.6,6.8,26.8,0.16748558,0.702047792,-0.144596698,0.676839503
1062,2658754,886620,0.981,0.04,-0.026,0,0,0,-36.6,6.8,26.8,0.16748558,0.702047792,-0.144596698,0.676839503
1063,2661000,886630,0.988,0.04,-0.03,0.1,0,0,-33.8,4.6,27,0.167455061,0.702047792,-0.144596698,0.676839503
1064,2663173,886630,0.988,0.04,-0.026,0.1,0,0,-33.8,4.6,27,0.167455061,0.702047792,-0.144596698,0.676839503
1065,2665493,886630,0.988,0.04,-0.026,0,0,0,-33.8,4.6,27,0.167455061,0.702047792,-0.144596698,0.676839503
1066,2668083,886630,0.988,0.032,-0.026,0,-0.1,0,-33.8,4.6,27,0.167455061,0.702047792,-0.144596698,0.676839503
1067,2670303,886640,0.988,0.036,-0.026,0,-0.2,0,-36.7,7.4,26.8,0.167455061,0.70207831,-0.144596698,0.676839503
1068,2673747,886640,0.988,0.044,-0.026,0,-0.2,0,-36.7,7.4,26.8,0.167455061,0.70207831,-0.144596698,0.676839503
1069,2675972,886640,0.985,0.04,-0.022,0,-0.2,0,-36.7,7.4,26.8,0.167455061,0.70207831,-0.144596698,0.676808985
1070,2678225,886640,0.988,0.036,-0.022,0,0,0,-36.7,7.4,26.8,0.167455061,0.70207831,-0.144596698,0.676808985
1071,2680424,886650,0.985,0.036,-0.022,0,0,0,-36.4,7.5,26.9,0.167455061,0.70207831,-0.144596698,0.676808985
1072,2683076,886650,0.985,0.04,-0.026,0.1,0,0,-36.4,7.5,26.9,0.167455061,0.70207831,-0.144596698,0.676808985
1073,2685242,886650,0.981,0.044,-0.026,0.1,0,0,-36.4,7.5,26.9,0.167455061,0.70207831,-0.144596698,0.676808985
1074,2688762,886650,0.988,0.04,-0.026,0.1,0,0,-36.4,7.5,26.9,0.167455061,0.70207831,-0.144596698,0.676808985
1075,2690977,886660,0.985,0.036,-0.022,0,0,-0.1,-36.3,7.2,26.9,0.167455061,0.70207831,-0.144596698,0.676808985
1076,2693222,886660,0.981,0.036,-0.03,0,0,0,-36.3,7.2,26.9,0.167455061,0.70207831,-0.144596698,0.676808985
1077,2695289,886660,0.981,0.04,-0.022,0,0.1,0,-36.3,7.2,26.9,0.167455061,0.70207831,-0.144596698,0.676839503
1078,2699518,886660,0.981,0.036,-0.026,0,0.1,0,-36.3,7.2,26.9,0.167455061,0.70207831,-0.144596698,0.676839503
1079,2701718,886670,0.981,0.04,-0.026,0,0.1,0,-35.9,7.5,27.2,0.167455061,0.70207831,-0.144596698,0.676839503
1080,2703994,886670,0.985,0.036,-0.022,0,0,0,-35.9,7.5,27.2,0.167455061,0.70207831,-0.144596698,0.676839503
1081,2705956,886670,0.985,0.036,-0.026,0,-0.1,0,-35.9,7.5,27.2,0.167455061,0.70207831,-0.144596698,0.676839503
1082,2708022,886670,0.988,0.04,-0.03,0,-0.2,-0.1,-35.9,7.5,27.2,0.167455061,0.70207831,-0.144596698,0.676808985
1083,2710599,886680,0.988,0.04,-0.018,0,-0.3,-0.1,-34.1,5.9,26.6,0.167455061,0.70207831,-0.144596698,0.676808985
1084,2712739,886680,0.992,0.04,-0.026,0,-0.4,0,-34.1,5.9,26.6,0.167455061,0.70207831,-0.144596698,0.676808985
1085,2717014,886680,0.988,0.044,-0.026,0,-0.3,0,-34.1,5.9,26.6,0.167455061,0.70207831,-0.144596698,0.676808985
1086,2719308,886680,0.988,0.044,-0.034,0.1,-0.3,0,-34.1,5.9,26.6,0.167455061,0.702108829,-0.144596698,0.676808985
1087,2721481,886690,0.988,0.044,-0.026,0,-0.1,0,-35.2,6.1,26.6,0.16748558,0.702108829,-0.144566179,0.676808985
1088,2723766,886690,0.988,0.044,-0.026,0,-0.1,0,-35.2,6.1,26.6,0.16748558,0.702108829,-0.144566179,0.676808985
1089,2725829,886690,0.988,0.036,-0.022,0,-0.1,0,-35.2,6.1,26.6,0.16748558,0.702108829,-0.144566179,0.676808985
1090,2728535,886690,0.985,0.04,-0.026,0,0,0,-35.2,6.1,26.6,0.16748558,0.702108829,-0.144566179,0.676747948
1091,2730731,886700,0.981,0.036,-0.026,0,0,0,-34.4,6.2,26.7,0.16748558,0.702108829,-0.144566179,0.676747948
1092,2732934,886700,0.985,0.036,-0.026,-0.1,0.1,0,-34.4,6.2,26.7,0.16748558,0.702108829,-0.144566179,0.676808985
1093,2735279,886700,0.985,0.04,-0.022,-0.1,0,0,-34.4,6.2,26.7,0.16748558,0.702108829,-0.144566179,0.676808985
1094,2739522,886700,0.985,0.04,-0.022,-0.1,0,0,-34.4,6.2,26.7,0.16748558,0.702108829,-0.144566179,0.676808985
1095,2741786,886710,0.988,0.04,-0.026,-0.1,-0.1,0,-34.4,5.8,26.7,0.167516099,0.702108829,-0.144566179,0.676747948
1096,2744043,886710,0.985,0.044,-0.022,0,-0.1,0,-34.4,5.8,26.7,0.167516099,0.702108829,-0.144566179,0.676747948
1097,2745819,886710,0.985,0.044,-0.026,0,-0.2,0,-34.4,5.8,26.7,0.167516099,0.702108829,-0.144566179,0.676747948
1098,2748029,886710,0.985,0.04,-0.026,0.1,-0.2,0,-34.4,5.8,26.7,0.167516099,0.702108829,-0.144566179,0.676747948
1099,2750340,886720,0.988,0.04,-0.026,0.1,-0.1,0,-34.3,5.9,26.7,0.167516099,0.702108829,-0.144566179,0.676747948
1100,2752912,886720,0.985,0.04,-0.03,0.1,-0.1,0,-34.3,5.9,26.7,0.16748558,0.702108829,-0.144566179,0.676747948
1101,2756334,886720,0.985,0.04,-0.026,0,0,0,-34.3,5.9,26.7,0.16748558,0.702108829,-0.144566179,0.676747948
