sample_index,elapsed_us,device_time_ms,acc_x_g,acc_y_g,acc_z_g,gyro_x_dps,gyro_y_dps,gyro_z_dps,mag_x_ut,mag_y_ut,mag_z_ut,quat_w,quat_x,quat_y,quat_z
0,3949,883970,-0.561,-0.588,0.579,2.3,3.5,-1.9,2.8,-3.4,-23.4,0.514175848,0.0717795343,0.457960753,-0.721579638
1,6164,883970,-0.561,-0.588,0.579,2.3,3.5,-1.9,2.8,-3.4,-23.4,0.514175848,0.0717795343,0.457960753,-0.721579638
2,8450,883970,-0.565,-0.588,0.583,2.1,3.7,-2,3.7,-3.9,-26.6,0.514023255,0.0718710898,0.457991272,-0.721671194
3,11396,883980,-0.565,-0.588,0.583,2.1,3.7,-2,3.7,-3.9,-26.6,0.514023255,0.0718710898,0.457991272,-0.721671194
4,13633,883980,-0.557,-0.588,0.587,2.2,3.8,-2.3,3.7,-3.9,-26.6,0.513870663,0.0720236824,0.45802179,-0.721762749
5,16629,883980,-0.557,-0.584,0.579,2.4,3.8,-2.5,3.7,-3.9,-26.6,0.513779107,0.0720847194,0.45802179,-0.721793268
6,18142,883980,-0.561,-0.592,0.587,2.7,3.7,-2.5,3,-3.5,-26.3,0.513687551,0.0721457564,0.45802179,-0.721854305
7,20381,883990,-0.561,-0.592,0.587,3,3.6,-2.5,3,-3.5,-26.3,0.513626514,0.0722373119,0.45802179,-0.721915342
8,24133,883990,-0.561,-0.588,0.587,3.2,3.7,-2.5,3,-3.5,-26.3,0.513534959,0.0722983489,0.45802179,-0.72194586
9,25657,883990,-0.557,-0.592,0.583,3.3,3.8,-2.6,3,-3.5,-26.3,0.513443403,0.072359386,0.45802179,-0.722006897
10,27881,883990,-0.565,-0.592,0.587,3.3,3.8,-2.7,3.1,-3.2,-26.7,0.513351848,0.072420423,0.45802179,-0.722067934
11,30882,884000,-0.557,-0.584,0.587,3.3,3.8,-2.8,3.1,-3.2,-26.7,0.513260292,0.0725119785,0.457991272,-0.722128971
12,33885,884000,-0.561,-0.592,0.587,3.3,3.8,-2.9,3.1,-3.2,-26.7,0.513168737,0.0725730155,0.457991272,-0.722190008
13,36771,884000,-0.565,-0.592,0.583,3.4,3.7,-3,3.1,-3.2,-26.7,0.513077181,0.0726340526,0.457991272,-0.722251045
14,38314,884000,-0.565,-0.592,0.583,3.3,4,-3.2,3.2,-3.2,-26.8,0.513016144,0.0725119785,0.457747124,-0.722495193
15,40513,884010,-0.565,-0.592,0.583,3.3,4,-3.2,3.2,-3.2,-26.8,0.512924589,0.0725730155,0.457716605,-0.72255623
16,43363,884010,-0.565,-0.592,0.587,3.3,4.1,-3.1,3.2,-3.2,-26.8,0.512802515,0.0726645711,0.457716605,-0.722617267
17,46418,884010,-0.569,-0.588,0.587,3.3,4.2,-3.2,3.2,-3.2,-26.8,0.512680441,0.0727256081,0.457716605,-0.722678304
18,47981,884010,-0.569,-0.584,0.583,3.3,4.2,-3.2,3.2,-4.5,-25.1,0.512619404,0.0727866451,0.457716605,-0.722739341
19,51147,884020,-0.569,-0.584,0.583,3.2,4.1,-3.3,3.2,-4.5,-25.1,0.512527848,0.0728476821,0.457716605,-0.722800378
20,53003,884020,-0.569,-0.584,0.579,3.1,3.8,-3.3,3.2,-4.5,-25.1,0.512436293,0.0729392376,0.457716605,-0.722861415
21,57085,884020,-0.569,-0.584,0.579,3,3.8,-3.5,3.2,-4.5,-25.1,0.512314219,0.0730002747,0.457716605,-0.722922452
22,59366,884020,-0.569,-0.592,0.579,3,3.8,-3.6,3,-4.3,-24.3,0.512222663,0.0730613117,0.457716605,-0.722983489
23,60881,884030,-0.569,-0.588,0.579,3.1,3.8,-3.6,3,-4.3,-24.3,0.512131108,0.0731223487,0.457716605,-0.723075045
24,63125,884030,-0.565,-0.588,0.583,3.2,3.9,-3.6,3,-4.3,-24.3,0.512009033,0.0731833857,0.457716605,-0.723136082
25,66123,884030,-0.569,-0.588,0.583,3.2,4,-3.5,3,-4.3,-24.3,0.511917478,0.0732444227,0.457716605,-0.723197119
26,69223,884030,-0.569,-0.588,0.587,3.2,4.1,-3.5,3.3,-5,-23.8,0.511825922,0.0733054598,0.457716605,-0.723258156
27,71510,884040,-0.573,-0.591,0.583,3.2,4.2,-3.5,3.3,-5,-23.8,0.511703848,0.0733359783,0.457716605,-0.723319193
28,73037,884040,-0.573,-0.584,0.575,3.2,4.1,-3.6,3.3,-5,-23.8,0.511612293,0.0734275338,0.457747124,-0.72338023
29,76450,884040,-0.573,-0.584,0.575,3.2,4,-3.8,3.3,-5,-23.8,0.511490219,0.0734885708,0.457747124,-0.723471786
30,78589,884040,-0.569,-0.588,0.579,3.2,3.9,-3.9,3.1,-4.6,-22.3,0.511398663,0.0735496078,0.457716605,-0.723532823
31,80151,884050,-0.569,-0.588,0.579,3.2,3.9,-3.9,3.1,-4.6,-22.3,0.511398663,0.0735496078,0.457716605,-0.723532823
32,82852,884050,-0.569,-0.588,0.579,3.2,3.9,-3.9,3.1,-4.6,-22.3,0.511398663,0.0735496078,0.457716605,-0.723532823
33,86736,884050,-0.569,-0.588,0.579,3.2,3.9,-3.9,3.1,-4.6,-22.3,0.511398663,0.0735496078,0.457716605,-0.723532823
34,88368,884050,-0.569,-0.596,0.583,3.9,3.8,-3.5,3.1,-4.6,-21.9,0.511001923,0.0737327189,0.457502976,-0.723899045
35,90613,884060,-0.569,-0.596,0.583,3.9,3.8,-3.5,3.1,-4.6,-21.9,0.511001923,0.0737327189,0.457502976,-0.723899045
36,93317,884060,-0.573,-0.595,0.579,3.9,3.7,-3.3,3.1,-4.6,-21.9,0.510818812,0.0738853114,0.457502976,-0.724051637
37,95467,884060,-0.573,-0.599,0.579,3.9,3.9,-3.1,3.1,-4.6,-21.9,0.510727256,0.0739463485,0.457502976,-0.724112674
38,99126,884060,-0.573,-0.599,0.579,3.9,3.9,-3.1,3.1,-4.6,-21.9,0.510727256,0.0739463485,0.457502976,-0.724112674
39,101018,884070,-0.573,-0.599,0.575,3.9,4.2,-2.7,3.3,-4.7,-27.3,0.510544145,0.0741294595,0.457472457,-0.724234748
40,102753,884070,-0.573,-0.595,0.583,4,4.1,-2.4,3.3,-4.7,-27.3,0.510452589,0.074221015,0.457472457,-0.724295785
41,105549,884070,-0.573,-0.595,0.583,4,4.1,-2.4,3.3,-4.7,-27.3,0.510452589,0.074221015,0.457472457,-0.724295785
42,108538,884070,-0.573,-0.595,0.583,4,4.1,-2.4,3.3,-4.7,-27.3,0.510452589,0.074221015,0.457472457,-0.724295785
43,110747,884080,-0.573,-0.595,0.583,4,4.1,-2.4,3.3,-4.7,-27.3,0.510452589,0.074221015,0.457472457,-0.724295785
44,114170,884080,-0.573,-0.588,0.583,4.3,4,-1.6,3.3,-4.5,-23.9,0.510147404,0.0745872372,0.457380902,-0.724539933
45,116164,884080,-0.577,-0.595,0.579,4.5,4,-1.5,3.3,-4.5,-23.9,0.510055849,0.0746787927,0.457380902,-0.724570452
46,118445,884080,-0.577,-0.595,0.579,4.5,4,-1.5,3.3,-4.5,-23.9,0.510055849,0.0746787927,0.457380902,-0.724570452
47,120553,884090,-0.577,-0.595,0.579,4.5,4,-1.5,3.3,-4.5,-23.9,0.510055849,0.0746787927,0.457380902,-0.724570452
48,123788,884090,-0.577,-0.587,0.576,4.9,4.1,-1.1,3.2,-4.9,-24.7,0.509842219,0.0749839778,0.457289346,-0.724753563
49,126042,884090,-0.581,-0.587,0.572,5.1,4.2,-1,3.2,-4.9,-24.7,0.509781182,0.0751060518,0.457258827,-0.7248146
50,128201,884090,-0.577,-0.58,0.576,5.2,4.2,-0.8,3.1,-4.5,-26.2,0.509720145,0.0752281259,0.457228309,-0.724875637
51,130874,884100,-0.581,-0.576,0.58,5.2,4.2,-0.8,3.1,-4.5,-26.2,0.509659108,0.0753501999,0.457167272,-0.724906156
52,133213,884100,-0.577,-0.58,0.579,5.3,4.2,-0.6,3.1,-4.5,-26.2,0.509598071,0.0754417554,0.457136753,-0.724967193
53,135294,884100,-0.577,-0.58,0.583,5.3,4.3,-0.5,3.1,-4.5,-26.2,0.509537034,0.0755638295,0.457106235,-0.72502823
54,138298,884100,-0.585,-0.583,0.584,4.9,4.3,-0.3,3.6,-4.4,-26.7,0.509567553,0.075777459,0.456923124,-0.725089267
55,141468,884110,-0.581,-0.58,0.587,4.9,4.3,-0.3,3.6,-4.4,-26.7,0.509506516,0.0758995331,0.456892605,-0.725150304
56,143657,884110,-0.581,-0.587,0.58,4.6,4.3,-0.3,3.6,-4.4,-26.7,0.509445479,0.0760216071,0.456862087,-0.725180822
57,146879,884110,-0.585,-0.583,0.584,4.1,4.4,-0.3,3.6,-4.4,-26.7,0.509384442,0.0761436811,0.456862087,-0.725211341
58,148633,884110,-0.585,-0.583,0.587,3.8,4.5,-0.3,3.3,-4.9,-25.1,0.509353923,0.0762352367,0.456831568,-0.725272378
59,150887,884120,-0.585,-0.583,0.587,3.8,4.5,-0.3,3.3,-4.9,-25.1,0.509353923,0.0762352367,0.456831568,-0.725272378
60,152988,884120,-0.585,-0.583,0.587,3.8,4.5,-0.3,3.3,-4.9,-25.1,0.509353923,0.0762352367,0.456831568,-0.725272378
61,157032,884120,-0.593,-0.579,0.576,3.6,4.8,-0.3,3.3,-4.9,-25.1,0.509170812,0.0765709403,0.456831568,-0.725363933
62,159030,884120,-0.585,-0.579,0.568,3.6,4.8,-0.4,3.2,-5.1,-24.6,0.509109775,0.0766930143,0.456831568,-0.725394452
63,161505,884130,-0.585,-0.579,0.572,3.6,4.8,-0.6,3.2,-5.1,-24.6,0.509048738,0.0768150884,0.456831568,-0.72542497
64,163556,884130,-0.589,-0.579,0.576,3.6,4.9,-0.8,3.2,-5.1,-24.6,0.508957183,0.0769066439,0.45680105,-0.725455489
65,165431,884130,-0.589,-0.583,0.58,3.7,5,-0.9,3.2,-5.1,-24.6,0.508896146,0.0770287179,0.45680105,-0.725516526
66,168611,884130,-0.589,-0.583,0.58,3.7,5,-0.9,3.2,-5.1,-24.6,0.508896146,0.0770287179,0.45680105,-0.725516526
67,170509,884140,-0.589,-0.579,0.576,3.8,5,-1.1,3.4,-5,-24.7,0.508743553,0.0772423475,0.45680105,-0.725577563
68,173681,884140,-0.585,-0.579,0.576,4,4.9,-1.2,3.4,-5,-24.7,0.508682516,0.0773644215,0.45680105,-0.7256386
69,175753,884140,-0.593,-0.579,0.584,4.1,4.8,-1.3,3.4,-5,-24.7,0.50859096,0.0774559771,0.45680105,-0.725669118
70,177852,884140,-0.589,-0.579,0.584,4.2,4.8,-1.3,3.3,-5.1,-24.8,0.508529923,0.0775780511,0.456770531,-0.725730155
71,180346,884150,-0.585,-0.579,0.58,4.1,4.7,-1.4,3.3,-5.1,-24.8,0.508438368,0.0776696066,0.456770531,-0.725791192
72,184231,884150,-0.589,-0.587,0.58,4,4.7,-1.5,3.3,-5.1,-24.8,0.508377331,0.0777916807,0.456770531,-0.725821711
73,187279,884150,-0.585,-0.579,0.58,3.8,4.7,-1.5,3.3,-5.1,-24.8,0.508285775,0.0778832362,0.456770531,-0.725882748
74,189370,884150,-0.585,-0.579,0.576,3.6,4.9,-1.6,3.2,-4.6,-24.9,0.508285775,0.0780968657,0.456648457,-0.725913266
75,191618,884160,-0.585,-0.579,0.576,3.6,4.9,-1.6,3.2,-4.6,-24.9,0.50819422,0.0782189398,0.456648457,-0.725974303
76,193965,884160,-0.585,-0.579,0.576,3.6,5,-1.6,3.2,-4.6,-24.9,0.508133183,0.0783104953,0.456648457,-0.726004822
77,196069,884160,-0.585,-0.579,0.576,3.6,5,-1.6,3.2,-4.6,-24.9,0.508133183,0.0783104953,0.456648457,-0.726004822
78,199550,884160,-0.585,-0.579,0.572,3.4,4.9,-1.6,2,-4.9,-24.9,0.507950072,0.0785241249,0.456648457,-0.726096377
79,201741,884170,-0.589,-0.575,0.572,3.3,4.9,-1.6,2,-4.9,-24.9,0.507889035,0.0786156804,0.456678976,-0.726157414
80,203307,884170,-0.585,-0.579,0.576,3.2,4.7,-1.6,2,-4.9,-24.9,0.507797479,0.0787072359,0.456678976,-0.726187933
81,205455,884170,-0.581,-0.58,0.58,3,4.6,-1.5,2,-4.9,-24.9,0.507736442,0.0787987915,0.456678976,-0.726218451
82,208643,884170,-0.581,-0.58,0.576,2.9,4.5,-1.4,5.1,-4.7,-24.8,0.507644887,0.078890347,0.456678976,-0.726279489
83,210878,884180,-0.577,-0.58,0.579,2.7,4.5,-1.5,5.1,-4.7,-24.8,0.50758385,0.0789819025,0.456678976,-0.726310007
84,213089,884180,-0.577,-0.587,0.576,2.7,4.6,-1.6,5.1,-4.7,-24.8,0.507492294,0.0790734581,0.456709494,-0.726340526
85,215210,884180,-0.577,-0.587,0.576,2.7,4.6,-1.6,5.1,-4.7,-24.8,0.507492294,0.0790734581,0.456709494,-0.726340526
86,219000,884180,-0.577,-0.587,0.576,2.7,4.6,-1.6,5.1,-4.7,-24.8,0.507492294,0.0790734581,0.456709494,-0.726340526
87,221219,884190,-0.577,-0.587,0.576,2.9,4.8,-1.4,5.1,-4.4,-24.7,0.507278665,0.0793481246,0.456740013,-0.7264626
88,223618,884190,-0.577,-0.587,0.576,2.9,4.8,-1.4,5.1,-4.4,-24.7,0.507278665,0.0793481246,0.456740013,-0.7264626
89,226434,884190,-0.577,-0.584,0.576,2.9,4.7,-1.1,5.1,-4.4,-24.7,0.507126072,0.0795312357,0.456740013,-0.726523637
90,228059,884190,-0.577,-0.584,0.576,3,4.6,-0.9,5,-4.6,-24.7,0.507065035,0.0796227912,0.456740013,-0.726554155
91,230965,884200,-0.577,-0.584,0.576,3,4.6,-0.9,5,-4.6,-24.7,0.507065035,0.0796227912,0.456740013,-0.726554155
92,232889,884200,-0.577,-0.587,0.579,3,4.6,-0.9,5,-4.6,-24.7,0.506912442,0.0798364208,0.456770531,-0.726615192
93,235309,884200,-0.581,-0.587,0.58,3.2,4.7,-0.7,5,-4.6,-24.7,0.506851405,0.0799279763,0.456770531,-0.726645711
94,238970,884200,-0.581,-0.583,0.583,3.2,4.8,-0.4,5,-4.9,-24.8,0.506820887,0.0799890133,0.456678976,-0.726737266
95,241329,884210,-0.581,-0.58,0.583,3.2,4.8,-0.4,5,-4.9,-24.8,0.50675985,0.0801110874,0.456678976,-0.726767785
96,242934,884210,-0.581,-0.58,0.583,3.2,4.8,-0.4,5,-4.9,-24.8,0.50675985,0.0801110874,0.456678976,-0.726767785
97,245866,884210,-0.585,-0.576,0.58,3.2,4.9,-0.3,5,-4.9,-24.8,0.506637776,0.0803247169,0.456678976,-0.726798303
98,248196,884210,-0.585,-0.579,0.58,3.2,4.9,-0.3,3,-5,-24.9,0.506576739,0.080446791,0.456678976,-0.726828822
99,250465,884220,-0.585,-0.572,0.584,3.2,4.8,-0.2,3,-5,-24.9,0.506515702,0.0805383465,0.456678976,-0.72685934
100,253342,884220,-0.581,-0.576,0.583,3.2,4.8,-0.1,3,-5,-24.9,0.506454665,0.0806604205,0.456678976,-0.726889859
101,256550,884220,-0.585,-0.568,0.58,3.2,4.6,0,3,-5,-24.9,0.506393628,0.0807824946,0.456709494,-0.726920377
102,258895,884220,-0.585,-0.572,0.587,3.1,4.5,0.1,5.1,-4.6,-24.9,0.506363109,0.0808740501,0.456709494,-0.726920377
103,260451,884230,-0.589,-0.571,0.58,2.9,4.4,0.2,5.1,-4.6,-24.9,0.506302072,0.0809961241,0.456709494,-0.726950896
104,263455,884230,-0.585,-0.572,0.584,2.7,4.4,0.2,5.1,-4.6,-24.9,0.506271554,0.0810876797,0.456709494,-0.726981414
105,266721,884230,-0.593,-0.567,0.58,2.5,4.5,0.2,5.1,-4.6,-24.9,0.506210517,0.0812097537,0.456709494,-0.726981414
106,269065,884230,-0.593,-0.567,0.58,2.5,4.5,0.2,5.1,-4.6,-24.9,0.506210517,0.0812097537,0.456709494,-0.726981414
107,271262,884240,-0.593,-0.567,0.58,2.5,4.5,0.2,5.1,-4.6,-24.9,0.506210517,0.0812097537,0.456709494,-0.726981414
108,273525,884240,-0.589,-0.587,0.58,2.3,4.5,0.2,4.3,-4.5,-25.2,0.506088443,0.0814844203,0.456740013,-0.727011933
109,276129,884240,-0.593,-0.587,0.58,2.6,4.5,0.1,4.3,-4.5,-25.2,0.506027406,0.0816064943,0.456770531,-0.727042451
110,278095,884240,-0.593,-0.583,0.572,2.9,4.4,-0.1,4.8,-4.8,-24.7,0.505996887,0.0816980499,0.456770531,-0.72707297
111,281703,884250,-0.593,-0.583,0.572,2.9,4.4,-0.1,4.8,-4.8,-24.7,0.505996887,0.0816980499,0.456770531,-0.72707297
112,284026,884250,-0.593,-0.579,0.58,3.1,4.3,-0.4,4.8,-4.8,-24.7,0.505874813,0.0819116794,0.456770531,-0.727103488
113,285578,884250,-0.593,-0.579,0.58,3.2,4.2,-0.6,4.8,-4.8,-24.7,0.505813776,0.082003235,0.456770531,-0.727134007
114,288325,884250,-0.597,-0.575,0.58,3.7,4,-0.6,4,-4.5,-24.8,0.505813776,0.0822168645,0.456678976,-0.727164525
115,290409,884260,-0.597,-0.575,0.58,3.7,4,-0.6,4,-4.5,-24.8,0.505783258,0.0823084201,0.456678976,-0.727195044
116,293793,884260,-0.597,-0.575,0.58,3.8,4,-0.6,4,-4.5,-24.8,0.505722221,0.0823999756,0.456648457,-0.727256081
117,296080,884260,-0.593,-0.575,0.576,4,3.8,-0.6,4,-4.5,-24.8,0.505661184,0.0825220496,0.456617939,-0.727286599
118,298314,884260,-0.589,-0.579,0.576,4.1,3.7,-0.5,4.6,-5.1,-24.7,0.505600146,0.0826136052,0.456617939,-0.727317118
119,300823,884270,-0.593,-0.575,0.584,4.4,3.5,-0.5,4.6,-5.1,-24.7,0.505539109,0.0827051607,0.45658742,-0.727378155
120,302735,884270,-0.589,-0.575,0.58,4.5,3.5,-0.3,4.6,-5.1,-24.7,0.505508591,0.0828272347,0.456556902,-0.727408673
121,307080,884270,-0.589,-0.575,0.58,4.5,3.5,-0.3,4.6,-5.1,-24.7,0.505508591,0.0828272347,0.456556902,-0.727408673
122,309307,884270,-0.593,-0.579,0.576,4.4,3.4,0,1.6,-4.9,-24.9,0.505417035,0.0830103458,0.456465346,-0.727500229
123,311043,884280,-0.589,-0.579,0.576,4.2,3.5,0,1.6,-4.9,-24.9,0.505355998,0.0831019013,0.456465346,-0.727530747
124,313102,884280,-0.589,-0.579,0.58,4,3.7,0,1.6,-4.9,-24.9,0.50532548,0.0832239753,0.456434828,-0.727530747
125,316902,884280,-0.589,-0.579,0.58,4,3.7,0,1.6,-4.9,-24.9,0.50532548,0.0832239753,0.456434828,-0.727530747
126,318332,884280,-0.589,-0.571,0.576,3.7,3.6,0,1.3,-4.2,-24.5,0.505233924,0.0834376049,0.456373791,-0.727622303
127,320676,884290,-0.589,-0.571,0.576,3.7,3.6,0,1.3,-4.2,-24.5,0.505233924,0.0834376049,0.456373791,-0.727622303
128,323324,884290,-0.593,-0.575,0.576,3.4,3.4,0,1.3,-4.2,-24.5,0.505142369,0.0835901975,0.456343272,-0.72768334
129,325308,884290,-0.589,-0.571,0.576,3.2,3.4,0.1,1.3,-4.2,-24.5,0.50511185,0.0837122715,0.456343272,-0.727713858
130,329559,884290,-0.593,-0.579,0.576,3.2,3.5,0.1,1.4,-4.9,-24.6,0.505081332,0.083803827,0.456312754,-0.727713858
131,330366,884300,-0.589,-0.575,0.576,3.1,3.5,0.2,1.4,-4.9,-24.6,0.505050813,0.0838953825,0.456312754,-0.727744377
132,333361,884300,-0.585,-0.576,0.576,3.1,3.5,0.3,1.4,-4.9,-24.6,0.504989776,0.0839869381,0.456312754,-0.727774895
133,335653,884300,-0.585,-0.576,0.584,2.9,3.6,0.2,1.4,-4.9,-24.6,0.504959258,0.0840784936,0.456282235,-0.727805414
134,338444,884300,-0.589,-0.579,0.584,2.5,3.6,0.2,1.6,-5,-24.7,0.504989776,0.0842616047,0.45619068,-0.727835932
135,341381,884310,-0.589,-0.579,0.584,2.5,3.6,0.2,1.6,-5,-24.7,0.504959258,0.0843226417,0.45619068,-0.727835932
136,343140,884310,-0.589,-0.575,0.58,2.5,3.6,0.4,1.6,-5,-24.7,0.504928739,0.0844141972,0.45619068,-0.727866451
137,346001,884310,-0.585,-0.583,0.584,2.6,3.6,0.4,1.6,-5,-24.7,0.504867702,0.0845057527,0.456160161,-0.727866451
138,348232,884310,-0.585,-0.576,0.58,2.6,3.7,0.6,4.9,-6.6,-24.8,0.504867702,0.0845667898,0.456160161,-0.727866451
139,351621,884320,-0.589,-0.571,0.58,2.5,3.6,0.6,4.9,-6.6,-24.8,0.504837184,0.0846888638,0.456160161,-0.72789697
140,353698,884320,-0.589,-0.575,0.58,2.4,3.7,0.6,4.9,-6.6,-24.8,0.504806665,0.0848109378,0.456160161,-0.72789697
141,356972,884320,-0.589,-0.575,0.58,2.4,3.7,0.6,4.9,-6.6,-24.8,0.504806665,0.0848109378,0.456160161,-0.72789697
142,357653,884320,-0.589,-0.579,0.584,2.5,3.7,0.4,4.3,-3.4,-25.1,0.504745628,0.0849940489,0.456160161,-0.727927488
143,360552,884330,-0.589,-0.579,0.584,2.5,3.7,0.4,4.3,-3.4,-25.1,0.504745628,0.0849940489,0.456160161,-0.727927488
144,363471,884330,-0.589,-0.579,0.584,2.5,3.7,0.4,4.3,-3.4,-25.1,0.504745628,0.0849940489,0.456160161,-0.727927488
145,365268,884330,-0.589,-0.575,0.58,2.8,3.8,0.4,4.3,-3.4,-25.1,0.504623554,0.0852687155,0.456160161,-0.727988525
146,369646,884330,-0.589,-0.575,0.58,2.8,3.8,0.4,4.3,-3.4,-25.1,0.504623554,0.0852687155,0.456160161,-0.727988525
147,371800,884340,-0.589,-0.579,0.58,2.9,4,0.4,4.4,-3.6,-24.7,0.504562517,0.0854518265,0.456160161,-0.728019044
148,374236,884340,-0.589,-0.571,0.58,2.9,3.9,0.4,4.4,-3.6,-24.7,0.50450148,0.0855433821,0.456160161,-0.728019044
149,376384,884340,-0.589,-0.575,0.576,2.9,3.9,0.4,4.4,-3.6,-24.7,0.504470962,0.0856654561,0.456160161,-0.728049562
150,378131,884340,-0.589,-0.575,0.576,2.9,3.9,0.4,4.4,-3.6,-24.7,0.504470962,0.0856654561,0.456160161,-0.728049562
151,380835,884350,-0.589,-0.571,0.584,2.8,3.9,0.4,4.5,-3.7,-25,0.504409925,0.0858485672,0.456129643,-0.728080081
152,383925,884350,-0.585,-0.564,0.583,2.7,3.9,0.3,4.5,-3.7,-25,0.504348888,0.0859706412,0.456129643,-0.728080081
153,385592,884350,-0.585,-0.564,0.583,2.7,3.9,0.3,4.5,-3.7,-25,0.504348888,0.0859706412,0.456129643,-0.728080081
154,389594,884350,-0.593,-0.567,0.58,2.9,3.8,0.4,5.4,-3.6,-25,0.504409925,0.0862453078,0.455885495,-0.728171636
155,390341,884360,-0.585,-0.568,0.58,2.9,3.8,0.4,5.4,-3.6,-25,0.504379406,0.0863368633,0.455885495,-0.728202155
156,393293,884360,-0.585,-0.568,0.58,2.9,3.8,0.4,5.4,-3.6,-25,0.504379406,0.0863368633,0.455885495,-0.728202155
157,395440,884360,-0.585,-0.572,0.572,3.1,3.8,0.4,5.4,-3.6,-25,0.504287851,0.0865199744,0.455854976,-0.728232673
158,398172,884360,-0.589,-0.571,0.576,3.1,3.8,0.4,4.1,-5,-24.9,0.504257332,0.0866420484,0.455854976,-0.728263192
159,400438,884370,-0.589,-0.571,0.572,3.1,3.8,0.4,4.1,-5,-24.9,0.504226814,0.0867641224,0.455854976,-0.728263192
160,403126,884370,-0.589,-0.575,0.58,3,3.8,0.2,4.1,-5,-24.9,0.504196295,0.086855678,0.455824458,-0.72829371
161,407260,884370,-0.593,-0.575,0.572,3,3.9,0.1,4.1,-5,-24.9,0.504135258,0.0869472335,0.455824458,-0.728324229
162,407999,884370,-0.589,-0.575,0.576,3.1,3.8,0,4.1,-5.3,-24.8,0.50410474,0.0870082705,0.455824458,-0.728324229
163,410603,884380,-0.589,-0.575,0.576,3.1,3.8,0,4.1,-5.3,-24.8,0.50410474,0.0870082705,0.455824458,-0.728324229
164,413934,884380,-0.593,-0.575,0.576,3.5,3.7,0,4.1,-5.3,-24.8,0.504013184,0.0872524186,0.455793939,-0.728385266
165,416859,884380,-0.589,-0.575,0.576,3.7,3.7,0.1,4.1,-5.3,-24.8,0.503982665,0.0873439741,0.455763421,-0.728415784
166,418401,884380,-0.589,-0.571,0.576,3.8,3.8,0.1,4.2,-6.5,-24.7,0.503921628,0.0874355296,0.455763421,-0.728446303
167,420853,884390,-0.589,-0.571,0.576,3.8,3.8,0.1,4.2,-6.5,-24.7,0.503921628,0.0874355296,0.455763421,-0.728446303
168,422975,884390,-0.593,-0.571,0.576,3.8,3.7,0.1,4.2,-6.5,-24.7,0.503830073,0.0876491592,0.455732902,-0.72850734
169,425255,884390,-0.593,-0.571,0.576,3.8,3.7,0.1,4.2,-6.5,-24.7,0.503830073,0.0876491592,0.455732902,-0.72850734
170,429005,884390,-0.593,-0.571,0.576,3.8,3.7,0.1,4.2,-6.5,-24.7,0.503830073,0.0876491592,0.455732902,-0.72850734
171,431235,884400,-0.585,-0.579,0.576,3.8,3.8,0,4,-7.5,-24.8,0.503707999,0.0879543443,0.455671865,-0.728598895
172,433393,884400,-0.585,-0.579,0.576,3.8,3.8,0,4,-7.5,-24.8,0.503707999,0.0879543443,0.455671865,-0.728598895
173,435655,884400,-0.593,-0.591,0.58,4,3.9,0,4,-7.5,-24.8,0.503616443,0.0881679739,0.455610828,-0.728659932
174,438449,884400,-0.585,-0.587,0.584,4,4,0.1,3.9,-8.3,-24.7,0.503585925,0.0882290109,0.455549791,-0.728720969
175,441374,884410,-0.585,-0.587,0.584,4,4,0.1,3.9,-8.3,-24.7,0.503524888,0.0883510849,0.455519272,-0.728751488
176,442894,884410,-0.589,-0.591,0.576,4,4,0.2,3.9,-8.3,-24.7,0.503494369,0.088473159,0.455519272,-0.728782006
177,445665,884410,-0.593,-0.591,0.58,3.9,4.1,0.2,3.9,-8.3,-24.7,0.503433332,0.0885647145,0.455488754,-0.728812525
178,449048,884410,-0.593,-0.587,0.58,3.8,4.3,0.2,4.1,-3.4,-23.5,0.503402814,0.0886867885,0.455488754,-0.728843043
179,450718,884420,-0.589,-0.587,0.58,3.7,4.4,0.2,4.1,-3.4,-23.5,0.503341777,0.0888088626,0.455458235,-0.728873562
180,452873,884420,-0.589,-0.591,0.576,3.7,4.5,0.4,4.1,-3.4,-23.5,0.503311258,0.0889309366,0.455458235,-0.72890408
181,455931,884420,-0.589,-0.587,0.58,3.8,4.5,0.5,4.1,-3.4,-23.5,0.503250221,0.0890530107,0.455427717,-0.728934599
182,458007,884420,-0.597,-0.587,0.576,3.8,4.5,0.5,3.8,-5.7,-25.6,0.503219703,0.0891750847,0.455427717,-0.728934599
183,460863,884430,-0.597,-0.587,0.576,3.8,4.5,0.5,3.8,-5.7,-25.6,0.503219703,0.0891750847,0.455427717,-0.728934599
184,464129,884430,-0.585,-0.591,0.584,4.3,4.5,0.7,3.8,-5.7,-25.6,0.503128147,0.0894192328,0.455397198,-0.728995636
185,465611,884430,-0.589,-0.591,0.58,4.5,4.5,0.7,3.8,-5.7,-25.6,0.503097629,0.0895413068,0.45536668,-0.729026154
186,468538,884430,-0.589,-0.591,0.58,4.5,4.5,0.7,3.8,-5.7,-25.6,0.503097629,0.0895413068,0.45536668,-0.729026154
187,470131,884440,-0.589,-0.591,0.58,4.5,4.5,0.7,3.8,-5.7,-25.6,0.503097629,0.0895413068,0.45536668,-0.729026154
188,472957,884440,-0.589,-0.591,0.58,4.5,4.5,0.7,3.8,-5.7,-25.6,0.503097629,0.0895413068,0.45536668,-0.729026154
189,476101,884440,-0.585,-0.579,0.576,4.6,4.6,0.8,4,-5.6,-25.9,0.502914518,0.0900601215,0.455275124,-0.729148228
190,477677,884440,-0.589,-0.579,0.572,4.6,4.6,0.8,3.9,-4.3,-25.7,0.502883999,0.090212714,0.455244606,-0.729148228
191,480605,884450,-0.589,-0.579,0.572,4.6,4.6,0.8,3.9,-4.3,-25.7,0.502883999,0.090212714,0.455244606,-0.729148228
192,483606,884450,-0.585,-0.572,0.576,4.9,4.6,0.8,3.9,-4.3,-25.7,0.502792444,0.0904873806,0.455183569,-0.729209265
193,485860,884450,-0.589,-0.571,0.58,5,4.7,0.8,3.9,-4.3,-25.7,0.502761925,0.0906094546,0.45515305,-0.729239784
194,488008,884450,-0.581,-0.572,0.576,5.1,4.9,0.7,4,-3.7,-25.7,0.502731407,0.0907315287,0.455030976,-0.729331339
195,490475,884460,-0.581,-0.572,0.576,5.1,4.9,0.7,4,-3.7,-25.7,0.502731407,0.0907315287,0.455030976,-0.729331339
196,492817,884460,-0.581,-0.568,0.579,5.1,4.9,0.6,4,-3.7,-25.7,0.502639851,0.0910061953,0.454969939,-0.729392376
197,497116,884460,-0.589,-0.575,0.584,5.1,4.9,0.5,4,-3.7,-25.7,0.502578814,0.0911587878,0.454939421,-0.729422895
198,499378,884460,-0.581,-0.576,0.58,5.1,4.9,0.5,4.3,-5.3,-24.2,0.502517777,0.0912808618,0.454908902,-0.729483932
199,501655,884470,-0.581,-0.568,0.579,5.1,4.9,0.4,4.3,-5.3,-24.2,0.502487259,0.0914029359,0.454878384,-0.729514451
200,503881,884470,-0.585,-0.576,0.576,5.1,4.9,0.4,4.3,-5.3,-24.2,0.502426222,0.0915555284,0.454847865,-0.729544969
201,506146,884470,-0.585,-0.576,0.576,5.1,4.9,0.4,4.3,-5.3,-24.2,0.502426222,0.0915555284,0.454847865,-0.729544969
202,508404,884470,-0.585,-0.576,0.576,5.1,4.9,0.4,4.3,-5.3,-24.2,0.502426222,0.0915555284,0.454847865,-0.729544969
203,510943,884480,-0.585,-0.576,0.576,5.1,4.9,0.4,4.3,-5.3,-24.2,0.502426222,0.0915555284,0.454847865,-0.729544969
204,512839,884480,-0.581,-0.572,0.576,5.6,5.5,-0.1,4.6,-5.3,-25.2,0.502182073,0.0921353801,0.45475631,-0.72972808
205,516610,884480,-0.581,-0.572,0.576,5.6,5.5,-0.1,4.6,-5.3,-25.2,0.502182073,0.0921353801,0.45475631,-0.72972808
206,518888,884480,-0.585,-0.568,0.572,5.9,5.7,-0.3,4.4,-5.5,-25,0.502029481,0.0924405652,0.454695273,-0.729819636
207,521445,884490,-0.585,-0.572,0.576,6,5.8,-0.4,4.4,-5.5,-25,0.501937925,0.0925931578,0.454664754,-0.729880673
208,523785,884490,-0.585,-0.576,0.58,6.1,5.8,-0.6,4.4,-5.5,-25,0.501876888,0.0927762688,0.454603717,-0.72994171
209,525712,884490,-0.585,-0.572,0.576,6.1,5.9,-0.9,4.4,-5.5,-25,0.501785333,0.0929288614,0.454573199,-0.730002747
210,528391,884490,-0.581,-0.572,0.58,6.1,5.9,-1.1,4.5,-5.3,-24.8,0.501693777,0.0930509354,0.454573199,-0.730063784
211,531029,884500,-0.585,-0.576,0.58,6.1,5.9,-1.4,4.5,-5.3,-24.8,0.501602222,0.0932035279,0.45454268,-0.730124821
212,533310,884500,-0.585,-0.576,0.58,6.1,5.9,-1.4,4.5,-5.3,-24.8,0.501602222,0.0932035279,0.45454268,-0.730124821
213,535437,884500,-0.585,-0.576,0.58,6.1,5.9,-1.4,4.5,-5.3,-24.8,0.501602222,0.0932035279,0.45454268,-0.730124821
214,538071,884500,-0.585,-0.576,0.576,6.5,6.6,-1.9,4.3,-5.2,-24.2,0.501297037,0.0935392315,0.454298532,-0.730430006
215,542209,884510,-0.585,-0.575,0.587,6.5,6.6,-1.9,4.3,-5.2,-24.2,0.501174963,0.0936918241,0.454268014,-0.730491043
216,542889,884510,-0.585,-0.572,0.58,6.6,6.8,-2,4.3,-5.2,-24.2,0.501052889,0.0938444166,0.454237495,-0.730582598
217,545803,884510,-0.585,-0.572,0.58,6.6,6.8,-2,4.3,-5.2,-24.2,0.501052889,0.0938444166,0.454237495,-0.730582598
218,548076,884510,-0.589,-0.575,0.572,6.7,6.7,-2.3,4.5,-5.7,-26.2,0.500839259,0.0941801202,0.454176458,-0.730735191
219,550416,884520,-0.593,-0.571,0.58,6.7,6.6,-2.4,4.5,-5.7,-26.2,0.500717185,0.0943327128,0.45414594,-0.730796228
220,554639,884520,-0.589,-0.571,0.584,6.6,6.6,-2.5,4.5,-5.7,-26.2,0.500595111,0.0944853053,0.454115421,-0.730887783
221,555348,884520,-0.593,-0.575,0.58,6.7,6.6,-2.6,4.5,-5.7,-26.2,0.500473037,0.0946378979,0.454084902,-0.730979339
222,558480,884520,-0.593,-0.571,0.584,6.9,6.8,-2.7,4.5,-5.7,-23.1,0.500350963,0.0947904904,0.454054384,-0.731070894
223,560738,884530,-0.593,-0.579,0.584,7.1,6.9,-2.9,4.5,-5.7,-23.1,0.50019837,0.094943083,0.454023865,-0.73116245
224,563120,884530,-0.589,-0.575,0.58,7.4,7,-3.1,4.5,-5.7,-23.1,0.500076296,0.0950956755,0.453993347,-0.731254006
225,565447,884530,-0.593,-0.575,0.588,7.6,7.1,-3.1,4.5,-5.7,-23.1,0.499954222,0.0952787866,0.453962828,-0.731345561
226,568023,884530,-0.593,-0.583,0.588,7.8,7.2,-3.1,4.7,-5.3,-23.2,0.49980163,0.0954313791,0.45393231,-0.731437117
227,572170,884540,-0.593,-0.587,0.584,8.1,7.2,-3.1,4.7,-5.3,-23.2,0.499649037,0.0956144902,0.453871273,-0.731528672
228,574492,884540,-0.589,-0.583,0.591,8.5,7.2,-3,4.7,-5.3,-23.2,0.499526963,0.0957976012,0.453810236,-0.731620228
229,576151,884540,-0.593,-0.591,0.588,8.9,7.1,-3.1,4.7,-5.3,-23.2,0.499374371,0.0959807123,0.453749199,-0.731742302
230,578291,884540,-0.593,-0.591,0.592,9.2,7.1,-3.1,4.7,-5.5,-23.3,0.499252297,0.0961638234,0.453688162,-0.731864376
231,580575,884550,-0.589,-0.587,0.588,9.4,7.1,-3.2,4.7,-5.5,-23.3,0.499099704,0.0963469344,0.453596606,-0.731955931
232,583847,884550,-0.593,-0.591,0.592,9.8,7.1,-3.2,4.7,-5.5,-23.3,0.498947111,0.0965300455,0.453566088,-0.732078005
233,585374,884550,-0.589,-0.587,0.584,10.2,7,-3.2,4.7,-5.5,-23.3,0.498825037,0.0967131565,0.453474532,-0.732200079
234,589102,884550,-0.585,-0.591,0.584,11.1,6.8,-3.3,4.7,-5.3,-23.8,0.498641926,0.0967741935,0.45332194,-0.732413709
235,591320,884560,-0.585,-0.591,0.584,11.1,6.8,-3.3,4.7,-5.3,-23.8,0.498489334,0.0969878231,0.453230384,-0.732535783
236,593606,884560,-0.585,-0.583,0.591,11.5,6.7,-3.5,4.7,-5.3,-23.8,0.498336741,0.0972014527,0.453138829,-0.732688375
237,595945,884560,-0.585,-0.587,0.587,11.8,6.7,-3.7,4.7,-5.3,-23.8,0.498184149,0.0973845637,0.453016755,-0.73281045
238,598317,884560,-0.585,-0.587,0.587,11.8,6.7,-3.7,4.7,-5.3,-23.8,0.498184149,0.0973845637,0.453016755,-0.73281045
239,600287,884570,-0.589,-0.587,0.595,12.5,7.1,-3.8,4.7,-5.6,-25.6,0.497878964,0.0978118229,0.452803125,-0.733115635
240,602843,884570,-0.589,-0.587,0.595,12.5,7.1,-3.8,4.7,-5.6,-25.6,0.497878964,0.0978118229,0.452803125,-0.733115635
241,606279,884570,-0.589,-0.587,0.595,13.4,7.3,-3.8,4.7,-5.6,-25.6,0.49754326,0.098239082,0.452558977,-0.73342082
242,607857,884570,-0.589,-0.591,0.595,13.8,7.5,-3.8,4.6,-5.8,-25,0.497390667,0.0984832301,0.452406384,-0.733603931
243,611611,884580,-0.593,-0.591,0.592,14.1,7.7,-3.9,4.6,-5.8,-25,0.497207556,0.0987273782,0.45228431,-0.733756523
244,613038,884580,-0.597,-0.587,0.588,14.5,7.8,-4,4.6,-5.8,-25,0.497054964,0.0989715262,0.452131718,-0.733939634
245,615880,884580,-0.597,-0.587,0.588,14.5,7.8,-4,4.6,-5.8,-25,0.497054964,0.0989715262,0.452131718,-0.733939634
246,618896,884580,-0.597,-0.587,0.596,15.1,7.7,-4.2,4.6,-5.9,-25.4,0.496688742,0.0994598224,0.451857051,-0.734275338
247,620554,884590,-0.605,-0.587,0.596,15.4,7.7,-4.4,4.6,-5.9,-25.4,0.496505631,0.0997039705,0.451704459,-0.734458449
248,624296,884590,-0.609,-0.579,0.592,15.7,7.8,-4.6,4.6,-5.9,-25.4,0.49632252,0.0999481185,0.451551866,-0.734672079
249,625810,884590,-0.609,-0.583,0.592,16,7.9,-4.8,4.6,-5.9,-25.4,0.496139409,0.100192267,0.451368755,-0.73485519
250,628002,884590,-0.609,-0.583,0.592,16,7.9,-4.8,4.6,-5.9,-25.4,0.496139409,0.100192267,0.451368755,-0.73485519
251,631029,884600,-0.616,-0.579,0.596,16.4,7.9,-5.2,4.7,-6,-25.4,0.495742668,0.100680563,0.45106357,-0.73525193
252,633229,884600,-0.62,-0.579,0.6,16.7,8,-5.4,4.7,-6,-25.4,0.495529038,0.100985748,0.450880459,-0.73546556
253,636296,884600,-0.617,-0.583,0.6,17,8,-5.6,4.7,-6,-25.4,0.495345927,0.101229896,0.450697348,-0.735679189
254,639063,884600,-0.617,-0.583,0.604,17.7,8,-5.9,4.3,-5.9,-25.1,0.495132298,0.101504563,0.450483718,-0.735892819
255,640626,884610,-0.621,-0.59,0.608,17.7,8,-5.9,4.3,-5.9,-25.1,0.494918668,0.101779229,0.450300607,-0.736136967
256,643758,884610,-0.621,-0.594,0.608,18,7.9,-6.1,4.3,-5.9,-25.1,0.494705039,0.102023377,0.450086978,-0.736350597
257,645905,884610,-0.617,-0.598,0.612,18.3,7.7,-6.4,4.3,-5.9,-25.1,0.494491409,0.102298044,0.449903867,-0.736594745
258,648173,884610,-0.617,-0.602,0.608,18.6,7.5,-6.8,4.5,-6.1,-24.3,0.494277779,0.102542192,0.449690237,-0.736808374
259,650492,884620,-0.621,-0.606,0.612,19,7.5,-7.2,4.5,-6.1,-24.3,0.494033631,0.10278634,0.449476608,-0.737083041
260,654204,884620,-0.625,-0.61,0.616,19.5,7.7,-7.5,4.5,-6.1,-24.3,0.493789483,0.103061007,0.449262978,-0.737327189
261,655719,884620,-0.621,-0.614,0.616,20.2,7.8,-8,4.5,-6.1,-24.3,0.493545335,0.103335673,0.449049348,-0.737601856
262,657795,884620,-0.621,-0.614,0.616,20.2,7.8,-8,4.5,-6.1,-24.3,0.493545335,0.103335673,0.449049348,-0.737601856
263,661031,884630,-0.621,-0.614,0.616,20.2,7.8,-8,4.5,-6.1,-24.3,0.493545335,0.103335673,0.449049348,-0.737601856
264,663777,884630,-0.617,-0.626,0.612,22.7,7.9,-9.1,5.4,-6,-24.4,0.492721335,0.104159673,0.448316904,-0.738456374
265,666865,884630,-0.617,-0.626,0.612,22.7,7.9,-9.1,5.4,-6,-24.4,0.492721335,0.104159673,0.448316904,-0.738456374
266,668316,884630,-0.605,-0.626,0.612,24.5,7.9,-9.4,5.5,-6.3,-24.2,0.492172002,0.104739525,0.447737053,-0.739097262
267,671447,884640,-0.605,-0.626,0.612,24.5,7.9,-9.4,5.5,-6.3,-24.2,0.492172002,0.104739525,0.447737053,-0.739097262
268,672896,884640,-0.605,-0.626,0.608,26.2,8.1,-9.6,5.5,-6.3,-24.2,0.491592151,0.105380413,0.447126682,-0.73976867
269,675242,884640,-0.605,-0.626,0.608,26.2,8.1,-9.6,5.5,-6.3,-24.2,0.491592151,0.105380413,0.447126682,-0.73976867
270,678927,884640,-0.605,-0.626,0.608,26.2,8.1,-9.6,5.5,-6.3,-24.2,0.491592151,0.105380413,0.447126682,-0.73976867
271,680372,884650,-0.593,-0.626,0.607,28.5,8.9,-10,5.4,-6.3,-23.9,0.490646077,0.106387524,0.446119572,-0.740836818
272,684241,884650,-0.593,-0.622,0.611,29.4,9.3,-9.9,5.4,-6.3,-23.9,0.490340892,0.106753746,0.445783868,-0.74120304
273,686413,884650,-0.597,-0.614,0.607,30.2,9.5,-9.8,5.4,-6.3,-23.9,0.490005188,0.107150487,0.445417646,-0.74159978
274,687986,884650,-0.585,-0.607,0.607,31,9.9,-9.7,5.7,-6.2,-24,0.489577929,0.107272561,0.445081942,-0.742057558
275,691733,884660,-0.585,-0.607,0.607,31,9.9,-9.7,5.7,-6.2,-24,0.489242225,0.107669301,0.44471572,-0.74242378
276,693209,884660,-0.581,-0.599,0.599,30.9,10.3,-9.8,5.7,-6.2,-24,0.488906522,0.108096561,0.444349498,-0.742820521
277,695451,884660,-0.581,-0.599,0.599,30.9,10.3,-9.8,5.7,-6.2,-24,0.488906522,0.108096561,0.444349498,-0.742820521
278,697745,884660,-0.581,-0.599,0.599,30.9,10.3,-9.8,5.7,-6.2,-24,0.488906522,0.108096561,0.444349498,-0.742820521
279,701444,884670,-0.581,-0.599,0.599,30.9,10.3,-9.8,5.7,-6.2,-24,0.488906522,0.108096561,0.444349498,-0.742820521
280,702966,884670,-0.581,-0.599,0.599,30.9,10.3,-9.8,5.7,-6.2,-24,0.488906522,0.108096561,0.444349498,-0.742820521
281,705428,884670,-0.581,-0.599,0.599,30.9,10.3,-9.8,5.7,-6.2,-24,0.488906522,0.108096561,0.444349498,-0.742820521
282,708823,884670,-0.557,-0.596,0.575,28.8,11.9,-9.6,6.7,-6.3,-23.7,0.4868923,0.110538041,0.442335276,-0.744987335
283,710403,884680,-0.553,-0.596,0.575,28.5,12.6,-10,6.7,-6.3,-23.7,0.486556597,0.110934782,0.442030091,-0.745353557
284,714180,884680,-0.553,-0.596,0.575,28.5,12.6,-10,6.7,-6.3,-23.7,0.486556597,0.110934782,0.442030091,-0.745353557
285,716353,884680,-0.553,-0.596,0.575,28.5,12.6,-10,6.7,-6.3,-23.7,0.486556597,0.110934782,0.442030091,-0.745353557
286,717863,884680,-0.553,-0.596,0.575,28.5,12.6,-10,6.7,-6.3,-23.7,0.486556597,0.110934782,0.442030091,-0.745353557
287,720352,884690,-0.553,-0.596,0.575,28.5,12.6,-10,6.7,-6.3,-23.7,0.486556597,0.110934782,0.442030091,-0.745353557
288,722627,884690,-0.553,-0.596,0.575,28.5,12.6,-10,6.7,-6.3,-23.7,0.486556597,0.110934782,0.442030091,-0.745353557
289,726084,884690,-0.553,-0.596,0.575,28.5,12.6,-10,6.7,-6.3,-23.7,0.486556597,0.110934782,0.442030091,-0.745353557
290,727716,884690,-0.553,-0.596,0.575,28.5,12.6,-10,6.7,-6.3,-23.7,0.486556597,0.110934782,0.442030091,-0.745353557
291,730197,884700,-0.553,-0.596,0.575,28.5,12.6,-10,6.7,-6.3,-23.7,0.486556597,0.110934782,0.442030091,-0.745353557
292,734428,884700,-0.553,-0.596,0.575,28.5,12.6,-10,6.7,-6.3,-23.7,0.486556597,0.110934782,0.442030091,-0.745353557
293,735956,884700,-0.553,-0.596,0.575,28.5,12.6,-10,6.7,-6.3,-23.7,0.486556597,0.110934782,0.442030091,-0.745353557
294,737665,884700,-0.557,-0.568,0.587,28.6,20.7,-15.4,7.4,-6.4,-23.6,0.481704154,0.115756706,0.439313944,-0.749351482
295,740299,884710,-0.557,-0.568,0.587,28.6,20.7,-15.4,7.4,-6.4,-23.6,0.481704154,0.115756706,0.439313944,-0.749351482
296,743341,884710,-0.565,-0.568,0.591,28.7,21.6,-15.9,7.4,-6.4,-23.6,0.480636006,0.116733299,0.438917203,-0.750114444
297,746445,884710,-0.565,-0.576,0.583,28.6,22.5,-16.5,7.4,-6.4,-23.6,0.480056154,0.117252113,0.438703574,-0.750511185
298,748682,884710,-0.565,-0.576,0.583,28.6,22.5,-16.5,7.4,-6.4,-23.6,0.480056154,0.117252113,0.438703574,-0.750511185
299,750182,884720,-0.565,-0.576,0.583,28.6,22.5,-16.5,7.4,-6.4,-23.6,0.480056154,0.117252113,0.438703574,-0.750511185
300,752841,884720,-0.565,-0.576,0.583,28.6,22.5,-16.5,7.4,-6.4,-23.6,0.480056154,0.117252113,0.438703574,-0.750511185
301,756141,884720,-0.565,-0.576,0.583,28.6,22.5,-16.5,7.4,-6.4,-23.6,0.480056154,0.117252113,0.438703574,-0.750511185
302,758962,884720,-0.565,-0.564,0.583,29.3,25.5,-18.1,4.9,-7.1,-23.6,0.477095859,0.119937742,0.437849055,-0.752494888
303,760860,884730,-0.561,-0.564,0.579,29.3,25.7,-18.6,4.9,-7.1,-23.6,0.47645497,0.120487075,0.437696463,-0.752891629
304,762785,884730,-0.557,-0.564,0.567,29.3,26,-19.2,4.9,-7.1,-23.6,0.475814081,0.121036409,0.43754387,-0.753288369
305,765086,884730,-0.557,-0.564,0.567,29.3,26,-19.2,4.9,-7.1,-23.6,0.475814081,0.121036409,0.43754387,-0.753288369
306,768151,884730,-0.557,-0.564,0.567,29.3,26,-19.2,4.9,-7.1,-23.6,0.475814081,0.121036409,0.43754387,-0.753288369
307,770352,884740,-0.557,-0.564,0.567,29.3,26,-19.2,4.9,-7.1,-23.6,0.475814081,0.121036409,0.43754387,-0.753288369
308,773458,884740,-0.561,-0.56,0.563,29.6,28.2,-21.5,4.1,-7,-23.3,0.473097934,0.12326426,0.4369335,-0.754997406
309,776456,884740,-0.561,-0.556,0.555,29.8,28.8,-22.4,4.1,-7,-23.3,0.47236549,0.123813593,0.436811426,-0.755424665
310,778370,884740,-0.565,-0.56,0.552,30.1,29.4,-23.2,3.2,-7.3,-23.1,0.471633045,0.124393445,0.436689352,-0.755882443
311,780380,884750,-0.561,-0.553,0.552,30.4,29.8,-24,3.2,-7.3,-23.1,0.470870083,0.124973296,0.43653676,-0.75634022
312,782697,884750,-0.561,-0.553,0.552,30.4,29.8,-24,3.2,-7.3,-23.1,0.470870083,0.124973296,0.43653676,-0.75634022
313,785767,884750,-0.561,-0.553,0.552,30.4,29.8,-24,3.2,-7.3,-23.1,0.470870083,0.124973296,0.43653676,-0.75634022
314,788769,884750,-0.565,-0.549,0.54,31.2,31.6,-26.9,2.9,-7.5,-23.3,0.468337046,0.126560259,0.43632313,-0.75777459
315,790778,884760,-0.565,-0.545,0.548,31.2,31.6,-26.9,2.9,-7.5,-23.3,0.467513047,0.12714011,0.436201056,-0.758232368
316,792637,884760,-0.565,-0.545,0.548,31.2,31.6,-26.9,2.9,-7.5,-23.3,0.467513047,0.12714011,0.436201056,-0.758232368
317,796147,884760,-0.565,-0.545,0.548,31.2,31.6,-26.9,2.9,-7.5,-23.3,0.467513047,0.12714011,0.436201056,-0.758232368
318,798332,884760,-0.548,-0.525,0.547,31.6,32.6,-28.5,8.2,-8.9,-23.3,0.464918973,0.128910184,0.435865352,-0.759727775
319,801323,884770,-0.556,-0.529,0.547,31.6,33.1,-28.9,8.2,-8.9,-23.3,0.464033937,0.129520554,0.435743278,-0.76024659
320,802894,884770,-0.556,-0.529,0.547,31.6,33.1,-28.9,8.2,-8.9,-23.3,0.464033937,0.129520554,0.435743278,-0.76024659
321,805934,884770,-0.556,-0.529,0.547,31.6,33.1,-28.9,8.2,-8.9,-23.3,0.464033937,0.129520554,0.435743278,-0.76024659
322,808956,884770,-0.553,-0.533,0.543,30.8,34.6,-30.2,5.2,-6.2,-22.9,0.461317789,0.131290628,0.43549913,-0.761741997
323,810410,884780,-0.553,-0.537,0.555,30.7,34.9,-30.7,5.2,-6.2,-22.9,0.460371715,0.131900998,0.435407575,-0.762230293
324,813673,884780,-0.553,-0.533,0.555,30.7,35.2,-31.3,5.2,-6.2,-22.9,0.459425642,0.132511368,0.435346538,-0.762749107
325,815748,884780,-0.553,-0.537,0.555,30.7,35.6,-31.9,5.2,-6.2,-22.9,0.458479568,0.13309122,0.435285501,-0.763237403
326,818720,884780,-0.548,-0.533,0.567,30.5,36,-32.5,6,-6.3,-23,0.457502976,0.13370159,0.435224464,-0.763756218
327,820373,884790,-0.548,-0.529,0.567,30.4,36.6,-33,6,-6.3,-23,0.456526383,0.134281442,0.435193945,-0.764275033
328,823148,884790,-0.548,-0.525,0.571,30.2,37.3,-33.5,6,-6.3,-23,0.455519272,0.134891812,0.435163427,-0.764793847
329,826148,884790,-0.548,-0.521,0.578,30,37.9,-33.9,6,-6.3,-23,0.454512162,0.135502182,0.435132908,-0.765282144
330,828431,884790,-0.548,-0.517,0.586,29.9,38.5,-34.3,7,-6.2,-23.1,0.453474532,0.136112552,0.435132908,-0.765800958
331,830619,884800,-0.544,-0.514,0.578,29.9,39,-34.8,7,-6.2,-23.1,0.452436903,0.136753441,0.43510239,-0.766319773
332,834506,884800,-0.54,-0.51,0.582,29.9,39.5,-35.2,7,-6.2,-23.1,0.451368755,0.137363811,0.43510239,-0.766838588
333,836773,884800,-0.544,-0.51,0.594,30,39.9,-35.6,7,-6.2,-23.1,0.450300607,0.1380047,0.43510239,-0.767357402
334,839019,884800,-0.548,-0.502,0.602,30.5,41,-36.4,8.5,-6.4,-22.7,0.449262978,0.13840144,0.434797205,-0.768059328
335,841266,884810,-0.548,-0.502,0.602,30.5,41,-36.4,8.5,-6.4,-22.7,0.448164312,0.139042329,0.434797205,-0.768578143
336,843469,884810,-0.556,-0.505,0.594,30.7,41.6,-36.7,8.5,-6.4,-22.7,0.447065645,0.139683218,0.434797205,-0.769096957
337,845645,884810,-0.56,-0.509,0.602,30.9,42.3,-36.9,8.5,-6.4,-22.7,0.44593646,0.140354625,0.434797205,-0.76964629
338,847992,884810,-0.56,-0.505,0.606,31.2,43,-36.9,7.8,-9,-22.8,0.444807276,0.141026032,0.434797205,-0.770165105
339,850541,884820,-0.564,-0.509,0.602,31.4,43.6,-37,7.8,-9,-22.8,0.443678091,0.141727958,0.434797205,-0.77068392
340,853452,884820,-0.568,-0.521,0.602,31.5,44,-37.1,7.8,-9,-22.8,0.442548906,0.142399365,0.434827723,-0.771202734
341,855744,884820,-0.576,-0.529,0.595,31.7,44.2,-37.2,7.8,-9,-22.8,0.441389203,0.143101291,0.434827723,-0.771721549
342,858041,884820,-0.58,-0.525,0.595,32,44.6,-37.3,8.5,-7.6,-22.4,0.440260018,0.143772698,0.434827723,-0.772240364
343,861438,884830,-0.584,-0.528,0.595,32.4,45.1,-37.5,8.5,-7.6,-22.4,0.439069796,0.144535661,0.434827723,-0.772789697
344,863782,884830,-0.592,-0.52,0.576,32.9,45.6,-37.8,8.5,-7.6,-22.4,0.437910092,0.145237587,0.434827723,-0.773308512
345,865924,884830,-0.596,-0.52,0.568,33.3,46,-38.2,8.5,-7.6,-22.4,0.436719871,0.145970031,0.434827723,-0.773827326
346,868112,884830,-0.6,-0.512,0.564,33.6,46.2,-38.6,8.3,-7.9,-22.4,0.435529649,0.146702475,0.434827723,-0.774376659
347,870467,884840,-0.6,-0.52,0.549,33.9,46.4,-39.1,8.3,-7.9,-22.4,0.434308908,0.147465438,0.434827723,-0.774925993
348,873067,884840,-0.608,-0.52,0.537,34.3,46.6,-39.6,8.3,-7.9,-22.4,0.433088168,0.148197882,0.434827723,-0.775475326
349,876598,884840,-0.612,-0.516,0.533,34.6,46.7,-40.3,8.3,-7.9,-22.4,0.431836909,0.148930326,0.434797205,-0.776024659
350,878958,884840,-0.612,-0.52,0.533,35.2,46.6,-40.9,9.2,-8.1,-22.3,0.43058565,0.149632252,0.434766686,-0.776604511
351,881458,884850,-0.608,-0.528,0.533,35.6,46.4,-41.7,9.2,-8.1,-22.3,0.429334391,0.150395215,0.434736167,-0.777184362
352,883548,884850,-0.616,-0.528,0.533,35.9,46.4,-42.6,9.2,-8.1,-22.3,0.428052614,0.15109714,0.434705649,-0.777764214
353,885575,884850,-0.62,-0.532,0.537,35.8,46.4,-43.5,9.2,-8.1,-22.3,0.426740318,0.151799066,0.43467513,-0.778313547
354,888136,884850,-0.624,-0.52,0.545,34.8,46.6,-45.6,8.9,-8.8,-22.1,0.425428022,0.152714621,0.434797205,-0.778832362
355,890293,884860,-0.624,-0.52,0.545,34.8,46.6,-45.6,8.9,-8.8,-22.1,0.424115726,0.153386029,0.434797205,-0.779442732
356,893341,884860,-0.62,-0.508,0.553,34.2,46.8,-46.9,8.9,-8.8,-22.1,0.422742393,0.154057436,0.434797205,-0.780022584
357,895744,884860,-0.627,-0.504,0.565,33.7,47.2,-47.8,8.9,-8.8,-22.1,0.42136906,0.154728843,0.434827723,-0.780632954
358,898149,884860,-0.627,-0.5,0.565,33.4,47.4,-48.6,9.8,-6.9,-21.7,0.419965209,0.155369732,0.434858242,-0.781243324
359,900340,884870,-0.623,-0.488,0.58,33.3,47.5,-49.1,9.8,-6.9,-21.7,0.418561357,0.15601062,0.43488876,-0.781853694
360,904874,884870,-0.623,-0.492,0.588,33.3,47.7,-49.3,9.8,-6.9,-21.7,0.417157506,0.156682028,0.434919279,-0.782464064
361,905889,884870,-0.619,-0.496,0.596,33.5,48,-49.3,9.8,-6.9,-21.7,0.415753655,0.157322916,0.434949797,-0.783043916
362,907909,884870,-0.623,-0.5,0.604,33.8,48.2,-49.3,9.8,-9.7,-22.2,0.414319285,0.157994324,0.434980316,-0.783654286
363,911456,884880,-0.619,-0.512,0.616,34.3,48.5,-49.3,9.8,-9.7,-22.2,0.412915433,0.158665731,0.434980316,-0.784264657
364,913715,884880,-0.623,-0.523,0.627,34.6,48.6,-49.3,9.8,-9.7,-22.2,0.411481063,0.159337138,0.435010834,-0.784844508
365,916065,884880,-0.627,-0.527,0.631,34.9,48.9,-49.3,9.8,-9.7,-22.2,0.410046693,0.160008545,0.435010834,-0.785454878
366,917936,884880,-0.631,-0.535,0.635,35.1,49.1,-49.4,10.1,-9.8,-22.2,0.408612323,0.160710471,0.435041353,-0.786065249
367,920777,884890,-0.647,-0.543,0.644,35.4,49.5,-49.6,10.1,-9.8,-22.2,0.407177953,0.161412397,0.435041353,-0.786675619
368,922780,884890,-0.647,-0.543,0.655,35.8,49.8,-49.8,10.1,-9.8,-22.2,0.405713065,0.162114322,0.435041353,-0.787285989
369,925651,884890,-0.651,-0.542,0.648,36.4,50.2,-49.9,10.1,-9.8,-22.2,0.404248177,0.162816248,0.435041353,-0.787896359
370,928692,884890,-0.651,-0.535,0.655,37.3,50.6,-49.8,10.4,-10.3,-21.8,0.402783288,0.163548692,0.435010834,-0.788506729
371,931308,884900,-0.655,-0.527,0.648,38.3,50.9,-49.5,10.4,-10.3,-21.8,0.4013184,0.164281137,0.434980316,-0.7891171
372,932929,884900,-0.659,-0.515,0.648,39.3,51.1,-49.1,10.4,-10.3,-21.8,0.399822993,0.165044099,0.434919279,-0.78972747
373,935427,884900,-0.663,-0.515,0.644,40.4,51.1,-48.6,10.4,-10.3,-21.8,0.398358104,0.165807062,0.434858242,-0.790368358
374,938888,884900,-0.671,-0.507,0.644,41.8,51.4,-47.9,10.9,-9.6,-21.7,0.396954253,0.166692099,0.434553056,-0.791009247
375,940416,884910,-0.671,-0.507,0.644,41.8,51.4,-47.9,10.9,-9.6,-21.7,0.395519883,0.16748558,0.434461501,-0.791650136
376,942934,884910,-0.675,-0.503,0.64,42.3,51.7,-47.6,10.9,-9.6,-21.7,0.394054994,0.16830958,0.434339427,-0.792260506
377,945615,884910,-0.675,-0.499,0.64,42.6,51.9,-47.3,10.9,-9.6,-21.7,0.392590106,0.169103061,0.434217353,-0.792870876
378,949437,884910,-0.69,-0.494,0.637,42.8,52.2,-47.3,11.6,-7.9,-19.8,0.391094699,0.169927061,0.43406476,-0.793511765
379,951795,884920,-0.69,-0.49,0.629,42.8,52.3,-47.3,11.6,-7.9,-19.8,0.38962981,0.170751061,0.434003723,-0.794122135
380,953671,884920,-0.698,-0.479,0.629,42.5,52.4,-47.3,11.6,-7.9,-19.8,0.388164922,0.17157506,0.433881649,-0.794732505
381,955352,884920,-0.71,-0.474,0.622,42,52.5,-47.3,11.6,-7.9,-19.8,0.386669515,0.17239906,0.433759575,-0.795312357
382,958546,884920,-0.718,-0.462,0.595,41.5,52.7,-47.3,11.9,-8.3,-22.2,0.385204627,0.17322306,0.43366802,-0.795922727
383,960828,884930,-0.718,-0.458,0.591,40.8,52.8,-47.3,11.9,-8.3,-22.2,0.383739738,0.174016541,0.433576464,-0.796502579
384,962995,884930,-0.722,-0.447,0.583,40,52.7,-47.5,11.9,-8.3,-22.2,0.382244331,0.174840541,0.433515427,-0.79708243
385,965266,884930,-0.73,-0.454,0.548,39.2,52.5,-47.8,11.9,-8.3,-22.2,0.380779443,0.175603504,0.43345439,-0.797662282
386,968526,884930,-0.73,-0.458,0.532,38.5,52.3,-47.9,12.2,-8.1,-22.1,0.379284036,0.176396985,0.433393353,-0.798211615
387,971369,884940,-0.73,-0.466,0.521,38.1,52,-48.1,12.2,-8.1,-22.1,0.377819147,0.177159948,0.433332316,-0.798760949
388,972871,884940,-0.735,-0.478,0.513,37.8,51.6,-48.4,12.2,-8.1,-22.1,0.37632374,0.17792291,0.433301798,-0.799310282
389,976314,884940,-0.735,-0.501,0.486,37.6,51,-48.9,12.2,-8.1,-22.1,0.374858852,0.178655354,0.433240761,-0.799890133
390,977955,884940,-0.743,-0.509,0.474,37.4,50.4,-49.6,12.6,-7.9,-21.9,0.373363445,0.17935728,0.433210242,-0.800439467
391,981796,884950,-0.743,-0.517,0.478,37.3,49.8,-50.6,12.6,-7.9,-21.9,0.371868038,0.180059206,0.433149205,-0.801019318
392,984007,884950,-0.731,-0.521,0.49,37.2,49.1,-51.8,12.6,-7.9,-21.9,0.370342112,0.180730613,0.433088168,-0.80159917
393,986155,884950,-0.719,-0.51,0.521,37.3,48.5,-53.1,12.6,-7.9,-21.9,0.368816187,0.181371502,0.433057649,-0.802179022
394,988440,884950,-0.723,-0.49,0.532,37.8,47.4,-55.3,12.7,-7.9,-21.6,0.367412336,0.182592242,0.433118686,-0.802514725
395,991206,884960,-0.723,-0.49,0.532,37.8,47.4,-55.3,12.7,-7.9,-21.6,0.365825373,0.183202612,0.433057649,-0.803125095
396,993875,884960,-0.722,-0.466,0.548,38.3,46.8,-56,12.7,-7.9,-21.6,0.364238411,0.183812983,0.432996612,-0.803735466
397,996790,884960,-0.725,-0.423,0.571,39,46.2,-56.3,12.7,-7.9,-21.6,0.362681967,0.184392834,0.432905057,-0.804376354
398,999030,884960,-0.721,-0.396,0.575,39.8,45.8,-56.1,12.9,-9.1,-20.4,0.361095004,0.184972686,0.432782983,-0.805017243
399,1000611,884970,-0.736,-0.372,0.587,40.4,45.3,-55.6,12.9,-9.1,-20.4,0.359508042,0.185552538,0.432660909,-0.805658132
400,1002797,884970,-0.736,-0.336,0.606,40.8,44.8,-54.7,12.9,-9.1,-20.4,0.357982116,0.186162908,0.432508316,-0.806268502
401,1005437,884970,-0.739,-0.316,0.614,41,44.2,-53.8,12.9,-9.1,-20.4,0.356425672,0.186742759,0.432355724,-0.806909391
402,1007959,884970,-0.743,-0.312,0.626,41,43.6,-52.8,13.5,-9.2,-19.3,0.354930265,0.187322611,0.432172613,-0.807519761
403,1010883,884980,-0.751,-0.3,0.626,40.9,42.9,-51.9,13.5,-9.2,-19.3,0.353434858,0.187932981,0.43202002,-0.808130131
404,1012981,884980,-0.763,-0.3,0.623,40.7,42.2,-50.7,13.5,-9.2,-19.3,0.35196997,0.188512833,0.431806391,-0.808740501
405,1015266,884980,-0.775,-0.292,0.623,40.1,41.6,-49.5,13.5,-9.2,-19.3,0.3505356,0.189062166,0.43162328,-0.809320353
406,1018963,884980,-0.783,-0.296,0.623,39.1,40.8,-48.3,13.5,-9.3,-18.3,0.349131748,0.189642018,0.431470687,-0.809900204
407,1020462,884990,-0.791,-0.292,0.619,37.4,40.1,-47.2,13.5,-9.3,-18.3,0.347788934,0.190191351,0.431287576,-0.810449538
408,1023426,884990,-0.803,-0.295,0.608,35.3,39.3,-46.4,13.5,-9.3,-18.3,0.34644612,0.190710166,0.431165502,-0.810968352
409,1026117,884990,-0.815,-0.295,0.604,33.1,38.6,-45.6,13.5,-9.3,-18.3,0.345133824,0.19122898,0.431043428,-0.811456648
410,1029194,884990,-0.83,-0.291,0.605,31.1,38,-44.7,13.9,-9.3,-17.5,0.343852046,0.191717277,0.430982391,-0.811914426
411,1031402,885000,-0.85,-0.29,0.605,29.3,37.6,-43.6,13.9,-9.3,-17.5,0.342600787,0.192175054,0.430921354,-0.812372204
412,1033643,885000,-0.886,-0.29,0.591,27.7,37.1,-42.6,13.9,-9.3,-17.5,0.341380047,0.19266335,0.430890835,-0.812799463
413,1036561,885000,-0.91,-0.285,0.587,26,36.4,-41.7,13.9,-9.3,-17.5,0.340189825,0.193090609,0.430860317,-0.813196203
414,1038193,885000,-0.945,-0.276,0.588,22.8,34.6,-40.2,14.5,-9.1,-17,0.339609973,0.194433424,0.430341502,-0.813379315
415,1040413,885010,-0.961,-0.28,0.585,22.8,34.6,-40.2,14.5,-9.1,-17,0.338480789,0.194860683,0.430372021,-0.813745537
416,1043290,885010,-0.973,-0.268,0.585,21.1,33.7,-39.7,14.5,-9.1,-17,0.337351604,0.195226905,0.430402539,-0.814111759
417,1046317,885010,-0.985,-0.264,0.585,19.2,32.4,-39.2,14.5,-9.1,-17,0.336283456,0.195593127,0.430463576,-0.814447462
418,1047932,885010,-0.993,-0.264,0.578,17.1,31,-38.8,14.6,-9.4,-21.8,0.335215308,0.195898312,0.430555132,-0.814752647
419,1050916,885020,-1.001,-0.291,0.566,14.8,29.4,-38.5,14.6,-9.4,-21.8,0.334177679,0.196172979,0.430677206,-0.815057833
420,1052993,885020,-1.009,-0.295,0.559,12.6,27.8,-38.6,14.6,-9.4,-21.8,0.333201086,0.196386608,0.430829798,-0.815332499
421,1056140,885020,-1.026,-0.31,0.548,10.7,26.2,-38.9,14.6,-9.4,-21.8,0.332193976,0.19656972,0.430982391,-0.815607166
422,1058245,885020,-1.034,-0.322,0.532,9.4,24.5,-39.2,15.4,-9.4,-19.4,0.331247902,0.196691794,0.431165502,-0.815851314
423,1061487,885030,-1.062,-0.337,0.475,8.7,22.7,-39.5,15.4,-9.4,-19.4,0.33027131,0.196783349,0.431348613,-0.81612598
424,1063153,885030,-1.086,-0.336,0.46,8.4,20.9,-39.8,15.4,-9.4,-19.4,0.329325236,0.196844386,0.431501205,-0.816400647
425,1065468,885030,-1.094,-0.336,0.44,9,18.9,-40.2,15.4,-9.4,-19.4,0.32840968,0.196874905,0.431653798,-0.816705832
426,1068738,885030,-1.134,-0.323,0.422,10.4,16.7,-40.4,15.4,-9.2,-20.1,0.327463607,0.196874905,0.431775872,-0.817011017
427,1070468,885040,-1.145,-0.307,0.434,13,14.4,-40.5,15.4,-9.2,-20.1,0.326548051,0.196844386,0.431806391,-0.817377239
428,1073123,885040,-1.153,-0.288,0.453,16.6,12.2,-40.3,15.4,-9.2,-20.1,0.325663015,0.196813868,0.431775872,-0.81777398
429,1076426,885040,-1.16,-0.256,0.481,21.1,9.9,-39.9,15.4,-9.2,-20.1,0.324747459,0.196752831,0.43162328,-0.818201239
430,1078458,885040,-1.171,-0.189,0.536,25.6,7.5,-39.2,15.4,-9.2,-20.9,0.323862423,0.196691794,0.43140965,-0.818689535
431,1081621,885050,-1.174,-0.149,0.571,29.5,5.1,-38.5,15.4,-9.2,-20.9,0.323007904,0.196630757,0.431073946,-0.81920835
432,1083926,885050,-1.173,-0.126,0.606,32.4,2.4,-37.7,15.4,-9.2,-20.9,0.322183905,0.196508683,0.430677206,-0.819788202
433,1085727,885050,-1.169,-0.11,0.641,34.4,-0.3,-36.7,15.4,-9.2,-20.9,0.321359905,0.196447645,0.430219428,-0.820368053
434,1088885,885050,-1.164,-0.087,0.699,35.5,-3.1,-35.5,15.2,-9.1,-21.1,0.320627461,0.196295053,0.429700613,-0.820947905
435,1091177,885060,-1.16,-0.079,0.715,35.5,-5.6,-34,15.2,-9.1,-21.1,0.319895016,0.19614246,0.429181799,-0.821558275
436,1093473,885060,-1.164,-0.063,0.726,33.9,-7.9,-32.7,15.2,-9.1,-21.1,0.319254128,0.195928831,0.428662984,-0.822138127
437,1095412,885060,-1.167,-0.055,0.73,31.3,-9.9,-31.5,15.2,-9.1,-21.1,0.318643757,0.195654164,0.428144169,-0.82268746
438,1098703,885060,-1.183,-0.035,0.746,27.9,-11.7,-30.6,15.2,-9.2,-19.4,0.318063906,0.195348979,0.42771691,-0.823206275
439,1100958,885070,-1.191,-0.019,0.758,24.1,-13.3,-30,15.2,-9.2,-19.4,0.317545091,0.195013276,0.42732017,-0.823694571
440,1102778,885070,-1.202,-0.007,0.762,20.2,-14.8,-29.3,15.2,-9.2,-19.4,0.317087313,0.194616535,0.426953948,-0.824152348
441,1105714,885070,-1.218,0.016,0.763,16,-16.2,-28.2,15.2,-9.2,-19.4,0.316660054,0.194158757,0.426679281,-0.824579608
442,1108903,885070,-1.222,0.024,0.763,11.9,-17.5,-26.5,15.3,-8.9,-19,0.316293832,0.193670461,0.426465651,-0.82494583
443,1111131,885080,-1.226,0.02,0.759,7.6,-19,-24.3,15.3,-8.9,-19,0.315988647,0.193182165,0.426252022,-0.825251015
444,1113224,885080,-1.226,0.02,0.759,3.4,-20.5,-21.6,15.3,-8.9,-19,0.315775018,0.192602313,0.426190985,-0.825525681
445,1116286,885080,-1.226,0.004,0.751,-0.7,-22.3,-18.4,15.3,-8.9,-19,0.315652944,0.19205298,0.426129948,-0.825739311
446,1118530,885080,-1.234,0.001,0.748,-4.5,-24.3,-14.8,15.3,-9.2,-18.8,0.315652944,0.19144261,0.426099429,-0.825891903
447,1120577,885090,-1.246,-0.01,0.74,-8.1,-26.1,-10.7,15.3,-9.2,-18.8,0.315713981,0.190801721,0.426099429,-0.826013977
448,1123508,885090,-1.258,-0.006,0.733,-11.4,-28,-6.5,15.3,-9.2,-18.8,0.31592761,0.190160833,0.426129948,-0.826075014
449,1126784,885090,-1.274,-0.013,0.733,-14.9,-29.9,-2.4,15.3,-9.2,-18.8,0.316202277,0.189489425,0.426221503,-0.826075014
450,1128915,885090,-1.294,-0.017,0.722,-18.5,-32.1,1.2,15.4,-9.2,-19.2,0.316599017,0.1887875,0.426313059,-0.826013977
451,1130414,885100,-1.298,-0.028,0.73,-22.1,-34.6,4.5,15.4,-9.2,-19.2,0.317117832,0.188055055,0.426465651,-0.825922422
452,1134003,885100,-1.31,-0.024,0.73,-25.4,-37.2,7.6,15.4,-9.2,-19.2,0.317697684,0.187292093,0.426648762,-0.825800348
453,1135633,885100,-1.314,-0.028,0.734,-28.5,-39.9,10.5,15.4,-9.2,-19.2,0.318369091,0.186468093,0.426831874,-0.825617237
454,1138652,885100,-1.322,-0.024,0.734,-31.3,-42.7,13.6,14.8,-8.9,-19.8,0.319132054,0.185613575,0.427045503,-0.825403607
455,1140829,885110,-1.318,-0.024,0.73,-34.2,-45.5,16.8,14.8,-8.9,-19.8,0.32001709,0.184698019,0.427259133,-0.825159459
456,1143179,885110,-1.314,-0.02,0.75,-37,-48.2,19.7,14.8,-8.9,-19.8,0.320963164,0.183751946,0.427533799,-0.824854274
457,1145429,885110,-1.314,-0.02,0.762,-39.7,-51,22.5,14.8,-8.9,-19.8,0.322000793,0.182775353,0.427777947,-0.824518571
458,1147905,885110,-1.317,-0.016,0.781,-42,-53.8,25,13,-9.2,-19.4,0.323129978,0.181737724,0.428052614,-0.824182867
459,1151646,885120,-1.321,-0.012,0.809,-43.4,-56.3,27.2,13,-9.2,-19.4,0.3243202,0.180669576,0.42832728,-0.823786126
460,1153955,885120,-1.337,0.011,0.832,-43.7,-58.7,29.2,13,-9.2,-19.4,0.325571459,0.179601428,0.428601947,-0.823419904
461,1156033,885120,-1.348,0.031,0.833,-43.1,-61,30.9,13,-9.2,-19.4,0.326853236,0.178472243,0.428815577,-0.823023164
462,1158363,885120,-1.364,0.063,0.821,-41.5,-63.3,32.3,15.9,-8.8,-19.7,0.328196051,0.177343059,0.428968169,-0.822656941
463,1160645,885130,-1.383,0.098,0.806,-39.1,-65.7,33,15.9,-8.8,-19.7,0.329538865,0.176183355,0.429090243,-0.822290719
464,1162990,885130,-1.41,0.174,0.76,-35.7,-68.4,33.5,15.9,-8.8,-19.7,0.330942717,0.175023652,0.429090243,-0.821985534
465,1167008,885130,-1.418,0.201,0.748,-31.6,-71.4,33.5,15.9,-8.8,-19.7,0.33231605,0.17383343,0.429029206,-0.821710868
466,1168524,885130,-1.429,0.233,0.752,-26.4,-74.7,33.4,15.7,-8.7,-19.9,0.333719901,0.17261269,0.428846095,-0.821527757
467,1170657,885140,-1.448,0.277,0.776,-20.2,-77.9,33.2,15.7,-8.7,-19.9,0.335123753,0.171361431,0.428510392,-0.821375164
468,1174526,885140,-1.451,0.308,0.795,-13.1,-80.6,33.2,15.7,-8.7,-19.9,0.336527604,0.17014069,0.428022095,-0.821283609
469,1176039,885140,-1.459,0.344,0.803,-5.5,-82.8,33.2,15.7,-8.7,-19.9,0.337900937,0.16891995,0.427381207,-0.821283609
470,1178265,885140,-1.466,0.383,0.815,1.6,-84.8,32.9,14.8,-9.4,-20.1,0.33927427,0.167729728,0.426618244,-0.821405683
471,1180441,885150,-1.481,0.466,0.819,7.6,-86.8,32.1,14.8,-9.4,-20.1,0.340647603,0.166508988,0.425702689,-0.821558275
472,1183216,885150,-1.484,0.517,0.823,11.8,-88.8,30.7,14.8,-9.4,-20.1,0.341959899,0.165318766,0.424726096,-0.821741386
473,1186314,885150,-1.503,0.569,0.82,13.9,-91,28.9,14.8,-9.4,-20.1,0.343272195,0.164036988,0.423688467,-0.821985534
474,1188520,885150,-1.537,0.652,0.808,14.4,-93.1,27.1,14.2,-9.4,-19.8,0.34458449,0.162724693,0.422650838,-0.822260201
475,1190659,885160,-1.557,0.696,0.809,13.4,-95.1,26.1,14.2,-9.4,-19.8,0.345866268,0.16135136,0.42158269,-0.822534867
476,1192852,885160,-1.572,0.724,0.801,11.3,-96.9,26,14.2,-9.4,-19.8,0.347209082,0.159947508,0.420545061,-0.822779015
477,1195945,885160,-1.596,0.748,0.786,8,-98.6,27,14.2,-9.4,-19.8,0.348551897,0.15848262,0.419568468,-0.822992645
478,1198318,885160,-1.619,0.772,0.775,3.5,-100.1,28.7,11.9,-9.4,-20.3,0.349986267,0.156987213,0.418652913,-0.823145238
479,1200636,885170,-1.674,0.793,0.769,-2.1,-101.3,30.7,11.9,-9.4,-20.3,0.351451155,0.155430769,0.417798395,-0.823236793
480,1202886,885170,-1.69,0.801,0.757,-8.9,-102.2,32.2,11.9,-9.4,-20.3,0.353007599,0.153813288,0.41706595,-0.823236793
481,1205400,885170,-1.702,0.801,0.758,-16.4,-103,32.9,11.9,-9.4,-20.3,0.354594562,0.15213477,0.41645558,-0.823175756
482,1208768,885170,-1.726,0.806,0.727,-24.2,-103.7,32.9,12.7,-9.4,-20.3,0.356212043,0.150395215,0.415997803,-0.823053682
483,1211051,885180,-1.73,0.778,0.727,-31.7,-104.4,33.1,12.7,-9.4,-20.3,0.357860042,0.148564104,0.415631581,-0.822840052
484,1213390,885180,-1.751,0.728,0.709,-37.9,-105.6,35.1,12.7,-9.4,-20.3,0.359569079,0.146671957,0.415387432,-0.822565386
485,1215620,885180,-1.772,0.673,0.698,-42.9,-107.4,39.3,12.7,-9.4,-20.3,0.361369671,0.14474929,0.415173803,-0.822199164
486,1219219,885180,-1.785,0.607,0.686,-46.7,-109.7,44.7,11.6,-9.8,-20.5,0.363322855,0.142857143,0.414990692,-0.821771905
487,1221562,885190,-1.789,0.575,0.683,-49.7,-112,49.5,11.6,-9.8,-20.5,0.365367595,0.140842921,0.414838099,-0.821283609
488,1224531,885190,-1.798,0.552,0.691,-52.3,-114,52.7,11.6,-9.8,-20.5,0.367503891,0.138889737,0.414716025,-0.820734275
489,1226756,885190,-1.81,0.529,0.695,-54.6,-115.7,54.2,11.6,-9.8,-20.5,0.369701224,0.136875515,0.414593951,-0.820154424
490,1228233,885190,-1.854,0.51,0.708,-56.6,-117.1,54.5,9.7,-9.8,-20.7,0.371898556,0.134830775,0.414502396,-0.819544053
491,1230383,885200,-1.869,0.514,0.716,-58.3,-118.2,53.9,9.7,-9.8,-20.7,0.374095889,0.132724998,0.414441359,-0.818933683
492,1233192,885200,-1.889,0.515,0.728,-59.1,-119.3,52.7,9.7,-9.8,-20.7,0.376293222,0.130588702,0.414349803,-0.818292795
493,1235276,885200,-1.981,0.509,0.719,-58.6,-120.3,50.9,9.7,-9.8,-20.7,0.378460036,0.128421888,0.414258248,-0.817682424
494,1239559,885200,-2.028,0.51,0.701,-56.6,-121.6,48.7,8.3,-9.7,-21,0.380565813,0.126194037,0.414136174,-0.817102573
495,1241769,885210,-2.08,0.507,0.667,-53,-123.2,45.7,8.3,-9.7,-21,0.382641072,0.123996704,0.413922544,-0.816583758
496,1244047,885210,-2.124,0.504,0.625,-48,-125.4,41.7,8.3,-9.7,-21,0.384655293,0.121738334,0.413617359,-0.81612598
497,1245625,885210,-2.184,0.482,0.553,-41.3,-128.2,36.8,8.3,-9.7,-21,0.38657796,0.119418928,0.4131901,-0.815790277
498,1248039,885210,-2.197,0.459,0.534,-32.2,-131.7,31.5,9.4,-9.9,-21.2,0.38840907,0.117099521,0.412549211,-0.815576647
499,1250282,885220,-2.221,0.436,0.523,-19.7,-135.3,26.5,9.4,-9.9,-21.2,0.390148625,0.114749596,0.411694693,-0.81551561
500,1253538,885220,-2.233,0.404,0.527,-2.6,-138.8,22.8,9.4,-9.9,-21.2,0.391796625,0.112460707,0.410504471,-0.815637684
501,1255872,885220,-2.231,0.271,0.531,45.1,-144.3,19.7,6,-9,-21.6,0.394909513,0.108279672,0.406811731,-0.81655324
502,1258209,885220,-2.252,0.232,0.516,72.8,-146.4,19.6,6,-9,-21.6,0.39640492,0.10647908,0.40418714,-0.817377239
503,1261033,885230,-2.268,0.213,0.509,100.6,-148.1,19.7,6,-9,-21.6,0.397808771,0.104892117,0.401074252,-0.818445387
504,1263228,885230,-2.288,0.217,0.502,126.6,-149.3,18.8,6,-9,-21.6,0.399182104,0.103488266,0.397473067,-0.819696646
505,1266320,885230,-2.288,0.217,0.502,126.6,-149.3,18.8,6,-9,-21.6,0.399182104,0.103488266,0.397473067,-0.819696646
506,1267864,885230,-2.322,0.3,0.514,170.6,-150.4,12.2,4.9,-9.6,-21.2,0.401532029,0.10113834,0.38901944,-0.822870571
507,1271404,885240,-2.347,0.47,0.561,188.5,-149.7,6.8,4.9,-9.6,-21.2,0.402508621,0.100161748,0.38431959,-0.8247322
508,1273109,885240,-2.357,0.592,0.585,204.3,-148,0.5,4.9,-9.6,-21.2,0.403332621,0.0993072298,0.379314554,-0.826746422
509,1275369,885240,-2.357,0.592,0.585,204.3,-148,0.5,4.9,-9.6,-21.2,0.403332621,0.0993072298,0.379314554,-0.826746422
510,1278091,885240,-2.341,0.863,0.63,229.2,-143.2,-13.8,4.6,-10.1,-20.8,0.404339732,0.0978423414,0.368724631,-0.831202124
511,1281564,885250,-2.352,1.138,0.68,237.2,-140.7,-22.9,4.6,-10.1,-20.8,0.404553362,0.0972014527,0.3632313,-0.833613086
512,1283805,885250,-2.362,1.288,0.696,241.1,-138.6,-34.2,4.6,-10.1,-20.8,0.404522843,0.0965300455,0.357676931,-0.836085086
513,1285907,885250,-2.362,1.288,0.696,241.1,-138.6,-34.2,4.6,-10.1,-20.8,0.404522843,0.0965300455,0.357676931,-0.836085086
514,1288369,885250,-2.351,1.5,0.707,240,-136.8,-47.5,4.5,-11.4,-20.1,0.40418714,0.0957976012,0.352183599,-0.83864864
515,1291162,885260,-2.477,2.014,0.935,221.5,-130.2,-74.3,4.5,-11.4,-20.1,0.40275277,0.0939054537,0.341807306,-0.843867306
516,1292886,885260,-2.521,2.172,1.006,206,-124,-81.7,4.5,-11.4,-20.1,0.401745659,0.0928067873,0.337076937,-0.846339305
517,1295341,885260,-2.521,2.172,1.006,206,-124,-81.7,4.5,-11.4,-20.1,0.401745659,0.0928067873,0.337076937,-0.846339305
518,1297854,885260,-2.521,2.172,1.006,206,-124,-81.7,4.5,-11.4,-20.1,0.401745659,0.0928067873,0.337076937,-0.846339305
519,1300961,885270,-2.521,2.172,1.006,206,-124,-81.7,4.5,-11.4,-20.1,0.401745659,0.0928067873,0.337076937,-0.846339305
520,1302792,885270,-2.513,2.574,1.38,111.7,-103.5,-104.5,5,-14.4,-19.5,0.39680166,0.0872829371,0.322733238,-0.854792932
521,1306283,885270,-2.513,2.574,1.38,111.7,-103.5,-104.5,5,-14.4,-19.5,0.39680166,0.0872829371,0.322733238,-0.854792932
522,1308666,885270,-2.288,2.223,1.488,56.6,-100.2,-133.1,4.6,-12,-18.9,0.393261513,0.0829798273,0.318887906,-0.858333079
523,1311531,885280,-2.288,2.223,1.488,56.6,-100.2,-133.1,4.6,-12,-18.9,0.393261513,0.0829798273,0.318887906,-0.858333079
524,1313661,885280,-2.215,2.033,1.49,34.4,-99.1,-149.2,4.6,-12,-18.9,0.391094699,0.0803552355,0.317636647,-0.860011597
525,1315523,885280,-2.147,1.831,1.474,17,-97.3,-166.7,4.6,-12,-18.9,0.3886227,0.0775170141,0.316782128,-0.861720634
526,1318167,885280,-2.147,1.831,1.474,17,-97.3,-166.7,4.6,-12,-18.9,0.3886227,0.0775170141,0.316782128,-0.861720634
527,1320306,885290,-1.922,1.235,0.688,-1.2,-85.2,-237,5.3,-12.1,-19.2,0.378521073,0.0680867946,0.315500351,-0.867458113
528,1323826,885290,-1.814,1.141,0.318,5.6,-81.8,-268.5,5.3,-12.1,-19.2,0.373973815,0.0647602771,0.31510361,-0.869838557
529,1326046,885290,-1.814,1.141,0.318,5.6,-81.8,-268.5,5.3,-12.1,-19.2,0.373973815,0.0647602771,0.31510361,-0.869838557
530,1328169,885290,-1.202,0.91,-0.364,49.7,-83.4,-339.5,5.7,-12.1,-19.1,0.362773522,0.0577715384,0.3132725,-0.875698111
531,1331312,885300,-1.002,0.815,-0.397,91.7,-88.3,-372.8,5.7,-12.1,-19.1,0.356120487,0.0542313913,0.311288797,-0.879360332
532,1334308,885300,-0.836,0.717,-0.311,145.9,-94.6,-400.8,5.7,-12.1,-19.1,0.3488876,0.0508133183,0.308206427,-0.883541368
533,1336032,885300,-0.836,0.717,-0.311,145.9,-94.6,-400.8,5.7,-12.1,-19.1,0.3488876,0.0508133183,0.308206427,-0.883541368
534,1338141,885300,-0.836,0.717,-0.311,145.9,-94.6,-400.8,5.7,-12.1,-19.1,0.3488876,0.0508133183,0.308206427,-0.883541368
535,1340549,885310,-0.836,0.717,-0.311,145.9,-94.6,-400.8,5.7,-12.1,-19.1,0.3488876,0.0508133183,0.308206427,-0.883541368
536,1343765,885310,-0.566,0.704,0.528,328.1,-107,-482.4,6,-12.1,-18.8,0.323740349,0.0417798395,0.29157384,-0.899105808
537,1345534,885310,-0.442,0.941,0.595,374.8,-107.3,-527,6,-12.1,-18.8,0.313699759,0.0389721366,0.283913694,-0.90520951
538,1347809,885310,-0.442,0.941,0.595,374.8,-107.3,-527,6,-12.1,-18.8,0.313699759,0.0389721366,0.283913694,-0.90520951
539,1350344,885320,0.076,2.171,0.651,433.8,-109.3,-648.5,7,-14.1,-17.4,0.289834284,0.0328073977,0.266670736,-0.918576617
540,1353841,885320,0.85,3.007,1.218,471.6,-121.9,-769.4,7,-14.1,-17.4,0.260628071,0.0252693258,0.24753563,-0.932798242
541,1355959,885320,0.85,3.007,1.218,471.6,-121.9,-769.4,7,-14.1,-17.4,0.260628071,0.0252693258,0.24753563,-0.932798242
542,1357817,885320,2.091,3.617,2.199,488.5,-136.3,-815.6,8.7,-16.4,-16.6,0.244422742,0.0208746605,0.237220374,-0.939939573
543,1361322,885330,1.73,-0.737,-6.723,488.9,-190.2,-881.4,8.7,-16.4,-16.6,0.209967345,0.0100711081,0.215765862,-0.95352031
544,1363451,885330,1.628,-6.153,-7.997,554.5,-297.6,-886.2,8.7,-16.4,-16.6,0.192754906,0.00222785119,0.203009125,-0.959990234
545,1365967,885330,8.001,-8.23,4.591,809.5,-485.7,-756.2,11.4,-16.9,-15.7,0.178930021,-0.00784325694,0.183965575,-0.966460158
546,1367919,885330,7.944,-8.173,-3.133,1045.9,-510.9,-317.8,11.4,-16.9,-15.7,0.1744438,-0.0158085879,0.159825434,-0.971465194
547,1370503,885340,8.018,-8.261,7.833,858.1,-256.5,196.5,11.4,-16.9,-15.7,0.179754021,-0.0173039949,0.140690329,-0.973418378
548,1373950,885340,4.799,3.748,7.844,292.9,101.7,458.5,11.4,-16.9,-15.7,0.189275796,-0.0125736259,0.134983367,-0.972502823
549,1376204,885340,-0.04,4.126,7.98,-344.8,269.1,269.4,10.8,-21.5,-13.6,0.19409772,-0.00747703482,0.14352855,-0.970366527
550,1378439,885340,-0.029,8.013,7.879,-650.2,228,-117.9,10.8,-21.5,-13.6,0.190740684,-0.0057985168,0.158207953,-0.968779565
551,1380709,885350,-1.426,8.046,5.619,-707.1,201.5,-389.4,10.8,-21.5,-13.6,0.181707205,-0.0057985168,0.173924986,-0.967802973
552,1383974,885350,-5.056,8.123,1.568,-587.8,223.2,-428.1,10.8,-21.5,-13.6,0.171727653,-0.00506607257,0.1871395,-0.967162084
553,1386235,885350,-5.056,8.123,1.568,-587.8,223.2,-428.1,10.8,-21.5,-13.6,0.171727653,-0.00506607257,0.1871395,-0.967162084
554,1388697,885350,-3.093,8.073,-1.698,-230.5,193.3,-120.4,11.8,-18.8,-15.6,0.161259804,-0.000152592547,0.201818903,-0.966032899
555,1390900,885360,-1.058,8.027,-1.69,-144.9,160.5,-29.9,11.8,-18.8,-15.6,0.15991699,0.0025635548,0.205450606,-0.965483566
556,1393272,885360,1.88,4.378,-2.18,-120.4,147.3,15.9,11.8,-18.8,-15.6,0.159611805,0.00531022065,0.208502457,-0.964873196
557,1395563,885360,1.358,2.116,-1.362,-119.3,128.7,85.9,13.1,-13.2,-13.6,0.160863063,0.00799584948,0.211462752,-0.964018677
558,1397896,885360,0.354,0.445,-0.924,-101.7,95.2,179.3,13.1,-13.2,-13.6,0.164189581,0.0104678488,0.213873714,-0.962889492
559,1400342,885370,-1.471,-0.584,-0.31,-51,60.1,254.8,13.1,-13.2,-13.6,0.169286172,0.012756737,0.215124973,-0.961699271
560,1404470,885370,-5.582,-5.751,0.479,35.1,35.7,276.9,13.1,-13.2,-13.6,0.174901578,0.0149235511,0.214423048,-0.960814234
561,1406672,885370,-3.626,-4.844,1.521,144,20.9,224.9,12.2,-15.7,-16.9,0.179479354,0.0169682913,0.211401715,-0.960600604
562,1408930,885370,-2.386,-6.388,2.438,235.1,6.1,96.8,12.2,-15.7,-16.9,0.18140202,0.0184331797,0.206457717,-0.96130253
563,1411191,885380,-0.528,-6.179,2.548,268,-11.2,-48,12.2,-15.7,-16.9,0.180333872,0.0190435499,0.200811792,-0.962675863
564,1413310,885380,0.055,-5.053,1.709,224.8,-22.6,-134.4,12.2,-15.7,-16.9,0.177495651,0.0188909574,0.196050905,-0.964201788
565,1415531,885380,0.663,-3.361,2.226,137.1,-17.5,-119.3,12.2,-15.7,-16.9,0.174993133,0.0185247353,0.193151646,-0.965239418
566,1418559,885380,0.542,-2.238,2.339,44.9,2.7,-40.6,12.2,-15.7,-16.9,0.174108097,0.0185552538,0.192236091,-0.965575121
567,1421476,885390,-0.158,-0.288,2.278,-24.8,28.7,41.7,12.2,-15.7,-16.9,0.174901578,0.019287698,0.192846461,-0.965300455
568,1422875,885390,-0.651,0.516,2.191,-68.5,49.6,92.5,12.2,-15.7,-16.9,0.176671651,0.0204474013,0.194433424,-0.964629048
569,1426144,885390,-1.135,0.845,1.918,-88.3,58,100.2,12.2,-15.7,-16.9,0.178563799,0.0217291787,0.196478164,-0.963835566
570,1429074,885390,-1.453,0.884,1.782,-85.6,51.1,75.4,12.2,-15.7,-16.9,0.17996765,0.0228278451,0.198431349,-0.963164159
571,1430442,885400,-1.801,-0.302,1.764,-59.1,32.3,39.3,12.2,-15.7,-16.9,0.180669576,0.0234382153,0.199804682,-0.9627369
572,1434294,885400,-1.609,-0.994,1.788,-18.5,12.3,8.7,12.2,-15.7,-16.9,0.180822169,0.0236823634,0.200231941,-0.962614826
573,1436003,885400,-1.609,-0.994,1.788,-18.5,12.3,8.7,12.2,-15.7,-16.9,0.180822169,0.0236823634,0.200231941,-0.962614826
574,1437788,885400,-0.718,-2.681,1.73,39.7,-16.8,-20.6,12.2,-15.7,-16.9,0.180242317,0.0233161412,0.198919645,-0.963011567
575,1441237,885410,-0.601,-2.822,1.68,36.1,-25.1,-28,12.2,-15.7,-16.9,0.179723502,0.0228278451,0.198065126,-0.963286233
576,1442806,885410,-0.616,-2.727,1.61,15.1,-28.1,-34.3,12.2,-15.7,-16.9,0.179113132,0.0220954009,0.197637867,-0.963499863
577,1445946,885410,-0.672,-2.498,1.56,-10.3,-26.1,-38.2,13.2,-15.9,-14.2,0.178441725,0.0213629566,0.19779046,-0.963621937
578,1448938,885410,-0.698,-2.046,1.396,-28.7,-21.1,-37.1,13.2,-15.9,-14.2,0.177770318,0.0206305124,0.198309275,-0.963652455
579,1450509,885420,-0.542,-1.935,1.313,-33.8,-17,-31.3,13.2,-15.9,-14.2,0.177190466,0.0200201422,0.198980682,-0.963621937
580,1452796,885420,-0.268,-1.902,1.309,-26.2,-16.6,-24.1,13.2,-15.9,-14.2,0.176763207,0.019470809,0.199438459,-0.963621937
581,1455749,885420,0.05,-1.874,1.356,-11.7,-19.4,-19.6,13.2,-15.9,-14.2,0.176458022,0.0189214759,0.199652089,-0.963652455
582,1457987,885420,0.511,-1.551,1.373,1.5,-23.3,-19.6,13.2,-15.9,-14.2,0.176122318,0.0183721427,0.199560533,-0.963744011
583,1461165,885430,0.639,-1.208,1.326,7.6,-25.7,-23,13.2,-15.9,-14.2,0.175756096,0.0177617725,0.199285867,-0.963866085
584,1463130,885430,0.709,-0.797,1.26,4.4,-25.6,-27.3,13.2,-15.9,-14.2,0.175298318,0.0170903653,0.199102756,-0.963988159
585,1466308,885430,0.711,-0.369,1.193,-5.1,-22.9,-30.7,13.2,-15.9,-14.2,0.174748985,0.0164799951,0.199133274,-0.964110233
586,1467796,885430,0.605,0.336,1.002,-15.6,-19,-33.5,13.2,-15.9,-14.2,0.174138615,0.0158696249,0.199407941,-0.96417127
587,1470568,885440,0.517,0.554,0.914,-22.7,-15.5,-37.1,13.2,-15.9,-14.2,0.173436689,0.0152897732,0.1998352,-0.964201788
588,1473578,885440,0.427,0.686,0.814,-25.3,-13.6,-42.2,13.2,-15.9,-14.2,0.17261269,0.0147404401,0.200354015,-0.964262825
589,1476381,885440,0.271,0.677,0.658,-24.9,-13.6,-47.5,13.2,-15.9,-14.2,0.171666616,0.0141300699,0.200842311,-0.964354381
590,1477943,885440,0.238,0.568,0.593,-24.5,-15.2,-50.4,13.2,-15.9,-14.2,0.170690023,0.0135196997,0.201300089,-0.964415418
591,1480551,885450,0.203,0.396,0.591,-26,-17.6,-49.4,13.2,-15.9,-14.2,0.169713431,0.012817774,0.201788385,-0.964506973
592,1483313,885450,0.18,0.208,0.569,-28.8,-20.5,-45.6,13.2,-15.9,-14.2,0.168858913,0.0120853298,0.202337718,-0.964537492
593,1486364,885450,0.18,0.208,0.569,-28.8,-20.5,-45.6,13.2,-15.9,-14.2,0.168858913,0.0120853298,0.202337718,-0.964537492
594,1487940,885450,0.199,-0.397,0.531,-30.9,-27.8,-39.4,13.2,-15.9,-14.2,0.167394024,0.0104068117,0.203466903,-0.964598529
595,1490565,885460,0.24,-0.551,0.557,-28.3,-31.7,-39.1,13.2,-15.9,-14.2,0.166722617,0.00946073794,0.203955199,-0.964598529
596,1493235,885460,0.294,-0.659,0.599,-24,-35.2,-39.3,13.2,-15.9,-14.2,0.16605121,0.00845362712,0.204321421,-0.964659566
597,1496245,885460,0.406,-0.685,0.706,-19.3,-37.7,-38.8,13.7,-14.6,-14.3,0.165410321,0.0074159978,0.204626606,-0.964720603
598,1497710,885460,0.443,-0.615,0.755,-15.6,-39,-37.4,13.7,-14.6,-14.3,0.164799951,0.00637836848,0.204809717,-0.96478164
599,1500720,885470,0.461,-0.481,0.79,-13.4,-39.2,-36.2,13.7,-14.6,-14.3,0.164220099,0.00534073916,0.20496231,-0.964842677
600,1503787,885470,0.44,-0.32,0.801,-12.3,-38.5,-36.4,13.7,-14.6,-14.3,0.163640248,0.00433362835,0.205084384,-0.964934233
601,1505308,885470,0.333,-0.038,0.788,-11.7,-36.9,-38,13.7,-14.3,-14.7,0.162999359,0.00332651753,0.205206458,-0.965025788
602,1508171,885470,0.267,0.068,0.781,-10.8,-34.7,-40.5,13.7,-14.3,-14.7,0.162297433,0.00238044374,0.205298013,-0.965117344
603,1511288,885480,0.212,0.121,0.771,-9.3,-32.1,-42.9,13.7,-14.3,-14.7,0.161534471,0.00146488845,0.205420087,-0.965239418
604,1512915,885480,0.136,0.115,0.757,-7.4,-29.9,-44.7,13.7,-14.3,-14.7,0.160740989,0.00061037019,0.205450606,-0.965361492
605,1515394,885480,0.12,0.068,0.742,-5.5,-28.1,-45.8,13.3,-14.4,-15.3,0.159886471,-0.000183111057,0.205481124,-0.965483566
606,1518579,885480,0.118,0.001,0.727,-4.4,-26.7,-46.2,13.3,-14.4,-15.3,0.159031953,-0.000946073794,0.205481124,-0.965636158
607,1520955,885490,0.11,-0.053,0.704,-4,-25.3,-46.2,13.3,-14.4,-15.3,0.158177435,-0.00170903653,0.205481124,-0.965758232
608,1522789,885490,0.14,-0.132,0.664,-4.2,-23.9,-46.4,13.3,-14.4,-15.3,0.157292398,-0.00244148076,0.205481124,-0.965910825
609,1525960,885490,0.163,-0.141,0.64,-4.6,-22.6,-46.7,13.5,-14.4,-16.2,0.156407361,-0.00314340648,0.205511643,-0.966063417
610,1528314,885490,0.175,-0.141,0.609,-4.8,-21.8,-47.4,13.5,-14.4,-16.2,0.155491806,-0.00384533219,0.205511643,-0.966185492
611,1530387,885500,0.183,-0.125,0.589,-4.2,-21.4,-48.3,13.5,-14.4,-16.2,0.154606769,-0.0045167394,0.205542161,-0.966338084
612,1533064,885500,0.192,-0.086,0.62,-3,-21.2,-49.5,13.5,-14.4,-16.2,0.153630177,-0.00518814661,0.205511643,-0.966490677
613,1536462,885500,0.192,-0.086,0.62,-3,-21.2,-49.5,13.5,-14.4,-16.2,0.153630177,-0.00518814661,0.205511643,-0.966490677
614,1538047,885500,0.244,-0.06,0.693,1.7,-21,-51.8,13.5,-14.4,-16.2,0.151676992,-0.00656147954,0.20535905,-0.96682638
615,1540881,885510,0.562,-0.114,0.77,5.3,-20.6,-53.2,13.5,-14.4,-16.2,0.150608844,-0.00720236824,0.205175939,-0.967009491
616,1543919,885510,0.577,-0.15,0.864,9.2,-19.8,-55.5,13.5,-14.4,-16.2,0.149571215,-0.00784325694,0.204901273,-0.967223121
617,1545478,885510,0.454,-0.159,0.918,13.6,-18.4,-58.5,14.1,-14.1,-15.9,0.148411512,-0.00845362712,0.204535051,-0.967497787
618,1549500,885510,0.344,-0.144,0.909,18.9,-16.2,-60.6,14.1,-14.1,-15.9,0.147190771,-0.0090029603,0.204077273,-0.967772454
619,1551589,885520,0.359,-0.125,0.83,24.6,-13.8,-60.7,14.1,-14.1,-15.9,0.146000549,-0.00949125645,0.203497421,-0.968077639
620,1553275,885520,0.522,-0.137,0.803,29.1,-12.3,-58.2,14.1,-14.1,-15.9,0.144810327,-0.00991851558,0.202826014,-0.968382824
621,1556266,885520,0.931,-0.091,0.713,30.3,-12.4,-54.5,14,-14.1,-15.7,0.143711661,-0.0103152562,0.202124088,-0.968688009
622,1558505,885520,1.417,0.073,0.524,25.2,-13.7,-52.1,14,-14.1,-15.7,0.14270455,-0.0107730338,0.201544237,-0.968962676
623,1560749,885530,1.69,0.318,0.418,9.1,-14.9,-53.8,14,-14.1,-15.7,0.141605884,-0.0112918485,0.201300089,-0.969145787
624,1562989,885530,1.509,0.389,0.505,-16.7,-12.8,-59.9,14,-14.1,-15.7,0.140415662,-0.0118717002,0.201605274,-0.969267861
625,1565307,885530,1.231,0.368,0.61,-42.8,-5,-65.8,14.8,-13.6,-16.1,0.139011811,-0.0123905148,0.202459792,-0.969267861
626,1568206,885530,0.924,0.269,0.67,-58.2,7.9,-66.6,14.8,-13.6,-16.1,0.137546922,-0.0126956999,0.203711051,-0.969206824
627,1571234,885540,0.762,0.01,0.729,-61.3,21.8,-60.5,14.8,-13.6,-16.1,0.136173589,-0.0126956999,0.205053865,-0.969115268
628,1574208,885540,0.842,-0.18,0.716,-58,32.3,-49.8,14.8,-13.6,-16.1,0.134952849,-0.0124210334,0.206366161,-0.969023713
629,1576523,885540,0.926,-0.41,0.683,-53.4,37.2,-37.3,15.2,-13.2,-15.8,0.133976257,-0.0119327372,0.207586901,-0.968901639
630,1578768,885540,1.023,-0.762,0.592,-49.3,37,-24.7,15.2,-13.2,-15.8,0.133274331,-0.0114139225,0.208746605,-0.968749046
631,1581050,885550,1.057,-0.873,0.548,-45.9,34,-12.8,15.2,-13.2,-15.8,0.132847072,-0.0108951079,0.209814753,-0.968596454
632,1583253,885550,1.099,-0.96,0.497,-43.1,30.8,-2.3,15.2,-13.2,-15.8,0.132633442,-0.0103762932,0.210821863,-0.968413343
633,1586281,885550,1.099,-0.96,0.497,-43.1,30.8,-2.3,15.2,-13.2,-15.8,0.132633442,-0.0103762932,0.210821863,-0.968413343
634,1588351,885550,1.18,-1.052,0.381,-40.2,27.6,12.8,15.2,-13.2,-15.8,0.132755516,-0.0093386639,0.212714011,-0.967986084
635,1591333,885560,1.18,-1.049,0.366,-38.5,27.7,18.7,15.2,-13.2,-15.8,0.132999664,-0.00878933073,0.213599048,-0.967772454
636,1593731,885560,1.177,-1.025,0.35,-35.8,28.4,24.5,15.2,-13.2,-15.8,0.133396405,-0.00817896054,0.214453566,-0.967528306
637,1595938,885560,1.177,-1.025,0.35,-35.8,28.4,24.5,15.2,-13.2,-15.8,0.133396405,-0.00817896054,0.214453566,-0.967528306
638,1598528,885560,1.177,-1.025,0.35,-35.8,28.4,24.5,15.2,-13.2,-15.8,0.133396405,-0.00817896054,0.214453566,-0.967528306
639,1600483,885570,1.127,-0.925,0.39,-23.2,32.4,43.9,15.2,-13.2,-15.5,0.135319071,-0.00592059084,0.216498306,-0.96682638
640,1603027,885570,1.127,-0.925,0.39,-23.2,32.4,43.9,15.2,-13.2,-15.5,0.135319071,-0.00592059084,0.216498306,-0.96682638
641,1606302,885570,1.084,-0.889,0.427,-15.9,34.4,58.2,15.1,-13.4,-15.3,0.137272256,-0.00405896176,0.21744438,-0.966338084
642,1608625,885570,1.061,-0.857,0.47,-13.2,35.2,65.1,15.1,-13.4,-15.3,0.138492996,-0.00305185095,0.217841121,-0.966093936
643,1610894,885580,1.053,-0.833,0.486,-10.7,35.8,71.6,15.1,-13.4,-15.3,0.13983581,-0.00198370312,0.218176824,-0.965819269
644,1613254,885580,1.053,-0.833,0.501,-8.3,36.1,77.9,15.1,-13.4,-15.3,0.141300699,-0.000885036775,0.218451491,-0.965544603
645,1615331,885580,1.053,-0.833,0.501,-8.3,36.1,77.9,15.1,-13.4,-15.3,0.141300699,-0.000885036775,0.218451491,-0.965544603
646,1619236,885580,1.033,-0.845,0.521,-3.2,35.9,91.5,14.6,-13.5,-15.3,0.144657735,0.00140385144,0.21887875,-0.964934233
647,1621466,885590,1.025,-0.852,0.53,-0.3,35.9,98.7,14.6,-13.5,-15.3,0.146580401,0.00262459181,0.218970305,-0.964629048
648,1623160,885590,1.029,-0.86,0.529,2.7,36.3,105.6,14.6,-13.5,-15.3,0.148625141,0.00390636921,0.219031343,-0.964293344
649,1626791,885590,1.021,-0.872,0.53,5.7,37,112,14.5,-13.7,-15.1,0.150791955,0.00524918363,0.219031343,-0.96395764
650,1628787,885590,1.025,-0.876,0.541,8.1,37.7,117.9,14.5,-13.7,-15.1,0.153080844,0.00662251656,0.218970305,-0.963591418
651,1631146,885600,1.017,-0.883,0.518,9.8,38.3,123.1,14.5,-13.7,-15.1,0.155491806,0.0080568865,0.21887875,-0.963225196
652,1633448,885600,1.001,-0.883,0.522,11,38.8,128,14.5,-13.7,-15.1,0.157994324,0.00952177496,0.218756676,-0.962828455
653,1635684,885600,1.001,-0.883,0.522,11,38.8,128,14.5,-13.7,-15.1,0.157994324,0.00952177496,0.218756676,-0.962828455
654,1637851,885600,0.982,-0.839,0.562,13.6,40.3,136.9,14.5,-13.7,-15.1,0.163274026,0.0125736259,0.218420972,-0.962004456
655,1640473,885610,0.966,-0.831,0.554,14.4,41.2,140.9,14.5,-13.7,-15.1,0.166020692,0.0141605884,0.218237861,-0.961546678
656,1643924,885610,0.931,-0.803,0.567,14,41.9,144.5,14.5,-13.7,-15.1,0.168858913,0.0157475509,0.217993713,-0.961058382
657,1645436,885610,0.907,-0.798,0.572,12.5,42.7,147.6,14.3,-14.3,-14.6,0.171758171,0.0174260689,0.217871639,-0.960570086
658,1647923,885610,0.884,-0.782,0.58,10.2,43.5,150.6,14.3,-14.3,-14.6,0.174687948,0.0191045869,0.217780084,-0.960020753
659,1651312,885620,0.872,-0.782,0.584,7.5,44.3,153.2,14.3,-14.3,-14.6,0.177678762,0.0207525864,0.217719047,-0.959440901
660,1652990,885620,0.836,-0.781,0.585,4.5,44.9,155.9,14.3,-14.3,-14.6,0.180730613,0.022461623,0.217719047,-0.958830531
661,1655442,885620,0.82,-0.781,0.589,1.2,45.4,158.6,13.6,-14.9,-14.8,0.183812983,0.0241706595,0.217780084,-0.958189642
662,1657757,885620,0.804,-0.78,0.59,-2.2,45.9,161.5,13.6,-14.9,-14.8,0.186986908,0.025879696,0.217932676,-0.957518235
663,1661902,885630,0.789,-0.784,0.59,-6.3,46.6,164.5,13.6,-14.9,-14.8,0.19022187,0.0276497696,0.218176824,-0.956785791
664,1663410,885630,0.773,-0.787,0.595,-11.1,47.4,167.2,13.6,-14.9,-14.8,0.19348735,0.0293893246,0.218482009,-0.955992309
665,1665699,885630,0.761,-0.791,0.591,-16.9,48,169.9,13.5,-14.7,-14.9,0.196813868,0.0311288797,0.218939787,-0.95516831
666,1668014,885630,0.753,-0.799,0.595,-23.4,48.8,172.2,13.5,-14.7,-14.9,0.200170904,0.0328684347,0.219519639,-0.954252754
667,1670263,885640,0.737,-0.806,0.596,-30.4,49.7,174.2,13.5,-14.7,-14.9,0.203588977,0.0346079897,0.220252083,-0.953306681
668,1674005,885640,0.701,-0.829,0.612,-37.6,50.8,176,13.5,-14.7,-14.9,0.207037568,0.0363475448,0.221106601,-0.95229957
669,1676063,885640,0.673,-0.84,0.629,-44.6,52.1,177.4,12.4,-15.3,-14.5,0.210516678,0.0380870998,0.22214423,-0.951231422
670,1678466,885640,0.649,-0.843,0.649,-51.2,53.6,178.7,12.4,-15.3,-14.5,0.213995788,0.0398266549,0.223303934,-0.950102237
671,1680705,885650,0.597,-0.882,0.67,-57.5,54.9,179.8,12.4,-15.3,-14.5,0.217505417,0.0415356914,0.224585711,-0.948942534
672,1682948,885650,0.597,-0.882,0.67,-57.5,54.9,179.8,12.4,-15.3,-14.5,0.217505417,0.0415356914,0.224585711,-0.948942534
673,1685459,885650,0.557,-0.892,0.683,-63.5,56.2,180.7,12.4,-15.3,-14.5,0.221015046,0.0433057649,0.226020081,-0.947721793
674,1687783,885650,0.529,-0.911,0.691,-69.2,57.5,181.4,12.4,-15.3,-14.5,0.224555193,0.0450758385,0.227546007,-0.946440016
675,1691985,885660,0.493,-0.918,0.7,-74.6,58.8,182.3,12.4,-15.3,-14.5,0.22809534,0.0468153935,0.229194006,-0.945097201
676,1694149,885660,0.378,-0.924,0.688,-84.8,60.5,183.5,12.4,-15.3,-14.5,0.235206153,0.0503250221,0.23279519,-0.942289499
677,1695695,885660,0.378,-0.924,0.688,-84.8,60.5,183.5,12.4,-15.3,-14.5,0.235206153,0.0503250221,0.23279519,-0.942289499
678,1697971,885660,0.291,-0.898,0.69,-93,60.3,182.7,8.9,-15.5,-15.5,0.242316965,0.0537125767,0.236762597,-0.939298685
679,1700445,885670,0.291,-0.898,0.69,-93,60.3,182.7,8.9,-15.5,-15.5,0.242316965,0.0537125767,0.236762597,-0.939298685
680,1703974,885670,0.137,-0.843,0.713,-96.8,59.8,180,8.9,-15.5,-15.5,0.249336222,0.0570390942,0.240913114,-0.936216315
681,1706189,885670,0.137,-0.843,0.713,-96.8,59.8,180,8.9,-15.5,-15.5,0.249336222,0.0570390942,0.240913114,-0.936216315
682,1708478,885670,0.051,-0.822,0.751,-94.1,59.2,177.7,6.8,-15.5,-15.7,0.256202887,0.0603045747,0.245002594,-0.933103427
683,1710694,885680,-0.047,-0.815,0.793,-90.6,58.6,177.4,6.8,-15.5,-15.7,0.25962096,0.0619220557,0.24692526,-0.931516465
684,1712922,885680,-0.091,-0.814,0.809,-86.4,57.9,177.4,6.8,-15.5,-15.7,0.263039033,0.0635700552,0.248756371,-0.929960021
685,1715481,885680,-0.091,-0.814,0.809,-86.4,57.9,177.4,6.8,-15.5,-15.7,0.263039033,0.0635700552,0.248756371,-0.929960021
686,1719737,885680,-0.21,-0.827,0.84,-76.8,56.4,177.9,6.4,-15.2,-16,0.269844661,0.0668965728,0.252143925,-0.926877651
687,1721831,885690,-0.242,-0.835,0.845,-72.3,55.6,177.7,6.4,-15.2,-16,0.273232215,0.0685750908,0.253669851,-0.925351726
688,1723438,885690,-0.27,-0.842,0.842,-68.3,54.4,177.2,6.4,-15.2,-16,0.27661977,0.0702536088,0.255104221,-0.9238258
689,1725706,885690,-0.27,-0.842,0.842,-68.3,54.4,177.2,6.4,-15.2,-16,0.27661977,0.0702536088,0.255104221,-0.9238258
690,1727957,885690,-0.298,-0.837,0.838,-65,53.1,175.9,5.3,-15.3,-16.3,0.279946287,0.0718710898,0.256447035,-0.922299875
691,1730400,885700,-0.349,-0.793,0.801,-60.5,50.1,171.7,5.3,-15.3,-16.3,0.286538285,0.0751365703,0.25901059,-0.919309061
692,1734694,885700,-0.376,-0.761,0.797,-59.5,48.5,168.7,5.3,-15.3,-16.3,0.289742729,0.0766930143,0.26023133,-0.917844172
693,1736993,885700,-0.376,-0.761,0.797,-59.5,48.5,168.7,5.3,-15.3,-16.3,0.289742729,0.0766930143,0.26023133,-0.917844172
694,1739190,885700,-0.403,-0.686,0.782,-59,46.7,165.2,5.3,-15.3,-16.3,0.292886135,0.0781884213,0.261421552,-0.916379284
695,1741458,885710,-0.429,-0.602,0.798,-57.8,43.9,157.7,5.3,-15.3,-16.3,0.2989288,0.0810571612,0.263771477,-0.913480026
696,1743666,885710,-0.444,-0.559,0.806,-57.6,43,154.4,5.3,-15.3,-16.3,0.301858577,0.0824304941,0.264931181,-0.912045656
697,1745960,885710,-0.444,-0.559,0.806,-57.6,43,154.4,5.3,-15.3,-16.3,0.301858577,0.0824304941,0.264931181,-0.912045656
698,1748189,885710,-0.502,-0.432,0.807,-58.9,41.9,149.3,7.5,-14.2,-16.6,0.307565538,0.0850550859,0.267250587,-0.909237953
699,1750459,885720,-0.525,-0.396,0.8,-61,41.8,147.1,7.5,-14.2,-16.6,0.310342723,0.0863368633,0.268471328,-0.907803583
700,1752855,885720,-0.541,-0.368,0.789,-64,41.8,145,7.5,-14.2,-16.6,0.313089389,0.0875881222,0.269753105,-0.906369213
701,1756454,885720,-0.541,-0.368,0.789,-64,41.8,145,7.5,-14.2,-16.6,0.313089389,0.0875881222,0.269753105,-0.906369213
702,1758704,885720,-0.576,-0.308,0.75,-71.1,42,139.7,8.3,-13.7,-16.9,0.318460646,0.0899380474,0.272499771,-0.903439436
703,1760938,885730,-0.588,-0.296,0.739,-75,41.8,136.5,8.3,-13.7,-16.9,0.321024201,0.0910672323,0.274025697,-0.901944029
704,1763074,885730,-0.588,-0.296,0.739,-75,41.8,136.5,8.3,-13.7,-16.9,0.321024201,0.0910672323,0.274025697,-0.901944029
705,1765480,885730,-0.588,-0.296,0.739,-75,41.8,136.5,8.3,-13.7,-16.9,0.321024201,0.0910672323,0.274025697,-0.901944029
706,1767966,885730,-0.655,-0.299,0.698,-88.1,41.1,125.1,8.5,-13.8,-17.2,0.32840968,0.0940580462,0.279030732,-0.89742729
707,1772198,885740,-0.675,-0.294,0.702,-92,40.9,121.1,8.5,-13.8,-17.2,0.330698569,0.094943083,0.280892361,-0.895931883
708,1774418,885740,-0.711,-0.293,0.715,-95,40.7,117,8.5,-13.8,-17.2,0.332956938,0.0957670827,0.282784509,-0.894405957
709,1776451,885740,-0.774,-0.288,0.748,-96.9,40.6,113.4,8.3,-13.6,-17.3,0.335093234,0.096560564,0.284737693,-0.892880032
710,1778864,885740,-0.802,-0.283,0.772,-97.5,40.4,110.1,8.3,-13.6,-17.3,0.337199011,0.0973235267,0.286690878,-0.891384625
711,1781232,885750,-0.825,-0.279,0.796,-96.8,40.3,107.2,8.3,-13.6,-17.3,0.339243751,0.0980559709,0.288644063,-0.889889218
712,1783507,885750,-0.86,-0.266,0.844,-94.6,40,104.5,8.3,-13.6,-17.3,0.341227454,0.0987884152,0.290566729,-0.888454848
713,1785776,885750,-0.86,-0.266,0.844,-94.6,40,104.5,8.3,-13.6,-17.3,0.341227454,0.0987884152,0.290566729,-0.888454848
714,1788086,885750,-0.876,-0.262,0.872,-91.4,39.6,102.1,8.3,-13.6,-17.3,0.343150121,0.0995208594,0.292397839,-0.887020478
715,1790531,885760,-0.9,-0.277,0.919,-82,38.4,97.1,8.3,-13.6,-17.3,0.346812342,0.101016266,0.295846431,-0.884273812
716,1792774,885760,-0.928,-0.296,0.959,-76,37.8,94.6,8.3,-13.6,-17.3,0.348582415,0.101779229,0.297341838,-0.882992035
717,1796480,885760,-0.928,-0.296,0.959,-76,37.8,94.6,8.3,-13.6,-17.3,0.348582415,0.101779229,0.297341838,-0.882992035
718,1798841,885760,-0.944,-0.315,1.002,-63.3,36.5,89.1,6.6,-14.8,-18.1,0.351878414,0.103366192,0.300088504,-0.880550554
719,1801285,885770,-0.948,-0.327,1.014,-57.2,35.5,86.3,6.6,-14.8,-18.1,0.353434858,0.104190191,0.301248207,-0.879451888
720,1803468,885770,-0.968,-0.33,1.023,-52.1,34.4,83.3,6.6,-14.8,-18.1,0.354930265,0.104983673,0.302346873,-0.87838374
721,1805725,885770,-0.968,-0.33,1.023,-52.1,34.4,83.3,6.6,-14.8,-18.1,0.354930265,0.104983673,0.302346873,-0.87838374
722,1807927,885770,-0.983,-0.302,1.027,-45.1,31.8,77.3,6.3,-14.8,-18.3,0.35770745,0.106540117,0.304269539,-0.876369518
723,1810383,885780,-0.995,-0.282,1.035,-43,30.6,74.2,6.3,-14.8,-18.3,0.359050264,0.107303079,0.305154576,-0.875453963
724,1812932,885780,-1.01,-0.227,1.047,-41,29.4,71.1,6.3,-14.8,-18.3,0.360301523,0.108005005,0.306009095,-0.874538408
725,1816392,885780,-1.01,-0.227,1.047,-41,29.4,71.1,6.3,-14.8,-18.3,0.360301523,0.108005005,0.306009095,-0.874538408
726,1818458,885780,-1.033,-0.175,1.04,-37.2,27.7,65.1,6.5,-15.6,-18.3,0.362651448,0.109378338,0.307596057,-0.87285989
727,1820878,885790,-1.059,-0.1,1.021,-36.6,27.1,62.7,6.5,-15.6,-18.3,0.363750114,0.110019227,0.30835902,-0.87203589
728,1823126,885790,-1.075,-0.072,1.017,-37.5,26.8,60.5,6.5,-15.6,-18.3,0.364787744,0.110629597,0.309152501,-0.871242409
729,1825307,885790,-1.075,-0.072,1.017,-37.5,26.8,60.5,6.5,-15.6,-18.3,0.364787744,0.110629597,0.309152501,-0.871242409
730,1827805,885790,-1.106,0.002,1.014,-43.9,26.4,56.4,6,-16.4,-18.8,0.366832484,0.111758782,0.310892056,-0.869624928
731,1831197,885800,-1.128,0.065,1.006,-48.3,26.3,54.4,6,-16.4,-18.8,0.367809076,0.112247078,0.311868648,-0.868800928
732,1832645,885800,-1.148,0.097,1.015,-53.3,26.4,52.1,6,-16.4,-18.8,0.368724631,0.112674337,0.312967315,-0.867946409
733,1836797,885800,-1.148,0.097,1.015,-53.3,26.4,52.1,6,-16.4,-18.8,0.368724631,0.112674337,0.312967315,-0.867946409
734,1838914,885800,-1.148,0.097,1.015,-53.3,26.4,52.1,6,-16.4,-18.8,0.368724631,0.112674337,0.312967315,-0.867946409
735,1841196,885810,-1.148,0.097,1.015,-53.3,26.4,52.1,6,-16.4,-18.8,0.368724631,0.112674337,0.312967315,-0.867946409
736,1842832,885810,-1.148,0.097,1.015,-53.3,26.4,52.1,6,-16.4,-18.8,0.368724631,0.112674337,0.312967315,-0.867946409
737,1845589,885810,-1.194,0.193,1.027,-74.2,28.8,42.8,6,-16.4,-18.8,0.372142705,0.113864559,0.318430128,-0.864345225
738,1849434,885810,-1.206,0.213,1.004,-85,30.8,37.6,6.5,-15,-20.1,0.373607593,0.114230781,0.321817682,-0.862422559
739,1851618,885820,-1.21,0.209,1.008,-90.4,31.7,34.7,6.5,-15,-20.1,0.374248482,0.114352855,0.32370983,-0.861415448
740,1853342,885820,-1.214,0.197,1.004,-95.7,32.4,31.6,6.5,-15,-20.1,0.374858852,0.114352855,0.325693533,-0.860347301
741,1855433,885820,-1.214,0.197,1.004,-95.7,32.4,31.6,6.5,-15,-20.1,0.374858852,0.114352855,0.325693533,-0.860347301
742,1858165,885820,-1.222,0.189,1.024,-104.5,33.5,25.3,7.2,-13.9,-20.3,0.375896481,0.114352855,0.329935606,-0.858333079
743,1861560,885830,-1.23,0.19,1.028,-107.9,33.9,22.5,7.2,-13.9,-20.3,0.376354259,0.114261299,0.332193976,-0.857264931
744,1863683,885830,-1.226,0.197,1.024,-110.7,34.5,20.1,7.2,-13.9,-20.3,0.376750999,0.114139225,0.334452345,-0.856227302
745,1866820,885830,-1.225,0.205,1.016,-113.2,35.1,17.8,6.6,-13.3,-20.9,0.377086703,0.113986633,0.336863308,-0.855159154
746,1869107,885830,-1.229,0.225,1.001,-115.2,35.6,15.9,6.6,-13.3,-20.9,0.377422407,0.11383404,0.339243751,-0.854091006
747,1871100,885840,-1.225,0.244,1.001,-116.8,36,14,6.6,-13.3,-20.9,0.377697073,0.113650929,0.341685232,-0.85299234
748,1873298,885840,-1.221,0.248,0.989,-117.8,36.3,12.2,6.6,-13.3,-20.9,0.377941221,0.1134373,0.344157231,-0.851924192
749,1875645,885840,-1.221,0.248,0.989,-117.8,36.3,12.2,6.6,-13.3,-20.9,0.377941221,0.1134373,0.344157231,-0.851924192
750,1878779,885840,-1.181,0.263,0.968,-118.9,36.4,8.5,6.7,-11.4,-21.1,0.378337962,0.112979522,0.34910123,-0.849787896
751,1880373,885850,-1.169,0.255,0.972,-119.4,36.6,6.6,6.7,-11.4,-21.1,0.378490555,0.112735374,0.351603748,-0.848750267
752,1883221,885850,-1.154,0.247,0.971,-120.1,36.9,4.7,6.7,-11.4,-21.1,0.37858211,0.112460707,0.354136784,-0.847682119
753,1887042,885850,-1.154,0.247,0.971,-120.1,36.9,4.7,6.7,-11.4,-21.1,0.37858211,0.112460707,0.354136784,-0.847682119
754,1889629,885850,-1.111,0.199,0.982,-121.7,38.5,1.9,7.4,-11.7,-20,0.378673666,0.111911374,0.359233375,-0.845576342
755,1890368,885860,-1.099,0.179,0.986,-122.9,39.5,0.5,7.4,-11.7,-20,0.378673666,0.111606189,0.36179693,-0.844508194
756,1893828,885860,-1.083,0.159,0.989,-124.5,40.4,-0.7,7.4,-11.7,-20,0.378643147,0.111331523,0.36445204,-0.843409528
757,1895424,885860,-1.052,0.119,0.992,-126.4,41.3,-2,7.1,-10.7,-21.5,0.37858211,0.111026337,0.367137669,-0.84234138
758,1897792,885860,-1.044,0.111,0.996,-128.3,41.9,-3.3,7.1,-10.7,-21.5,0.378490555,0.110690634,0.369823298,-0.841212195
759,1900269,885870,-1.041,0.091,1.004,-129.9,42.7,-4.4,7.1,-10.7,-21.5,0.37836848,0.110385449,0.372569964,-0.840113529
760,1904430,885870,-1.037,0.071,1.008,-131.1,43.3,-5.3,7.1,-10.7,-21.5,0.378246406,0.110049745,0.375347148,-0.838984344
761,1906486,885870,-1.022,0.047,1.003,-131.7,44,-5.7,7.5,-10.4,-22.2,0.378093814,0.109714042,0.378154851,-0.837824641
762,1907974,885870,-1.018,0.031,0.996,-131.6,44.3,-5.4,7.5,-10.4,-22.2,0.377941221,0.109408856,0.380932035,-0.836695456
763,1911156,885880,-1.014,0.023,0.988,-130.9,44.4,-4.6,7.5,-10.4,-22.2,0.377788629,0.109103671,0.383678701,-0.835535752
764,1913337,885880,-1.011,-0.007,0.976,-129.4,44.4,-3.5,7.5,-10.4,-22.2,0.377666555,0.108798486,0.386425367,-0.834345531
765,1915788,885880,-1.011,-0.007,0.976,-129.4,44.4,-3.5,7.5,-10.4,-22.2,0.377666555,0.108798486,0.386425367,-0.834345531
766,1917875,885880,-1.003,-0.043,0.964,-124.3,43.8,-0.5,7.7,-9.9,-22.2,0.377422407,0.10831019,0.391735588,-0.832026124
767,1921024,885890,-0.996,-0.062,0.964,-120.6,43.4,0.9,7.7,-9.9,-22.2,0.377391888,0.108127079,0.394268624,-0.830896939
768,1923242,885890,-0.988,-0.094,0.968,-116.3,42.9,2.4,7.7,-9.9,-22.2,0.377330851,0.107943968,0.396740623,-0.829767754
769,1925363,885890,-0.988,-0.094,0.968,-116.3,42.9,2.4,7.7,-9.9,-22.2,0.377330851,0.107943968,0.396740623,-0.829767754
770,1928510,885890,-0.988,-0.094,0.968,-116.3,42.9,2.4,7.7,-9.9,-22.2,0.377330851,0.107943968,0.396740623,-0.829767754
771,1931046,885900,-0.988,-0.094,0.968,-116.3,42.9,2.4,7.7,-9.9,-22.2,0.377330851,0.107943968,0.396740623,-0.829767754
772,1933051,885900,-0.988,-0.094,0.968,-116.3,42.9,2.4,7.7,-9.9,-22.2,0.377330851,0.107943968,0.396740623,-0.829767754
773,1935426,885900,-0.941,-0.154,1.014,-91.9,39.7,7.1,8.2,-9.3,-22.4,0.377269814,0.107760857,0.40540788,-0.825617237
774,1938808,885900,-0.929,-0.17,1.017,-83.9,39.1,7.8,8.3,-9.2,-21.8,0.377269814,0.107852412,0.407208472,-0.8247322
775,1940505,885910,-0.902,-0.182,1.024,-66.3,37.7,8.3,8.3,-9.2,-21.8,0.377208777,0.108188116,0.410351878,-0.823145238
776,1942933,885910,-0.87,-0.191,1.031,-57.3,37.1,7.9,8.3,-9.2,-21.8,0.37714774,0.108462783,0.411664174,-0.82247383
777,1945296,885910,-0.87,-0.191,1.031,-57.3,37.1,7.9,8.3,-9.2,-21.8,0.37714774,0.108462783,0.411664174,-0.82247383
778,1948545,885910,-0.854,-0.184,1.027,-39.2,36,6.6,8.7,-9.2,-19.8,0.376964629,0.109164708,0.41380047,-0.821405683
779,1950784,885920,-0.834,-0.18,1.019,-30.4,35.6,5.9,8.7,-9.2,-19.8,0.376812037,0.109591968,0.41462447,-0.820978423
780,1953289,885920,-0.826,-0.161,1.011,-21.9,35.3,5,8.7,-9.2,-19.8,0.376628925,0.110110782,0.415295877,-0.820673238
781,1955566,885920,-0.826,-0.161,1.011,-21.9,35.3,5,8.7,-9.2,-19.8,0.376628925,0.110110782,0.415295877,-0.820673238
782,1958048,885920,-0.833,-0.113,0.995,-6,35.4,2.6,8.6,-9.2,-18.9,0.376171148,0.111270486,0.416211432,-0.820276498
783,1960442,885930,-0.821,-0.09,0.956,0.7,35.3,0.9,8.6,-9.2,-18.9,0.375865963,0.111911374,0.416486099,-0.820184942
784,1963495,885930,-0.813,-0.075,0.94,6.3,35.4,-1,8.6,-9.2,-18.9,0.375469222,0.112582781,0.41666921,-0.820154424
785,1965766,885930,-0.813,-0.075,0.94,6.3,35.4,-1,8.6,-9.2,-18.9,0.375469222,0.112582781,0.41666921,-0.820154424
786,1967953,885930,-0.77,-0.052,0.911,14.6,35.7,-5.8,8.8,-8.9,-18.7,0.374614704,0.113986633,0.416821802,-0.820276498
787,1970272,885940,-0.77,-0.052,0.911,14.6,35.7,-5.8,8.8,-8.9,-18.7,0.374614704,0.113986633,0.416821802,-0.820276498
788,1974137,885940,-0.745,-0.009,0.938,18.1,35.7,-7.3,8.8,-8.9,-18.7,0.374126408,0.114719077,0.416821802,-0.82042909
789,1975387,885940,-0.741,0.005,0.926,21.3,35.8,-7.4,8.8,-8.9,-18.7,0.373607593,0.115451521,0.416730247,-0.820581683
790,1978285,885940,-0.729,0.013,0.894,23.4,36.2,-6.6,8.7,-8.8,-18.6,0.373088778,0.116245003,0.416638691,-0.820764794
791,1980340,885950,-0.725,0.028,0.882,23.7,37.1,-5.9,8.7,-8.8,-18.6,0.372600482,0.117038484,0.416486099,-0.820947905
792,1983519,885950,-0.697,0.036,0.862,22.6,38.2,-6.1,8.7,-8.8,-18.6,0.372081668,0.117862484,0.41645558,-0.821100497
793,1986685,885950,-0.689,0.039,0.866,20.5,39.3,-7,8.7,-8.8,-18.6,0.371532334,0.118655965,0.416425062,-0.821222571
794,1988516,885950,-0.677,0.055,0.858,17.8,40.6,-8,9.5,-9.1,-23.3,0.370983001,0.119479965,0.416425062,-0.821344646
795,1990522,885960,-0.673,0.059,0.857,14.6,41.9,-8.5,9.5,-9.1,-23.3,0.37040315,0.120273446,0.416547136,-0.821436201
796,1993023,885960,-0.665,0.066,0.857,10.7,43.2,-8.3,9.5,-9.1,-23.3,0.369823298,0.121036409,0.416730247,-0.821497238
797,1996130,885960,-0.649,0.062,0.857,6.4,44.3,-7.6,9.5,-9.1,-23.3,0.369273965,0.12182989,0.416974395,-0.821497238
798,1997962,885960,-0.641,0.042,0.845,1.9,45.5,-6.6,9.4,-8.5,-21.9,0.368724631,0.122592853,0.417340617,-0.82146672
799,2000960,885970,-0.634,0,0.841,-2.3,46.6,-5.3,9.4,-8.5,-21.9,0.368236335,0.123355815,0.417767876,-0.821344646
800,2004554,885970,-0.635,-0.032,0.849,-5.9,47.8,-4.1,9.4,-8.5,-21.9,0.367717521,0.124118778,0.418256172,-0.821192053
801,2006337,885970,-0.643,-0.059,0.853,-8.7,49.2,-3.2,9.4,-8.5,-21.9,0.367229225,0.124912259,0.418836024,-0.821008942
802,2007758,885970,-0.647,-0.09,0.857,-11,50.5,-3,10.1,-8.7,-22.6,0.366771447,0.125705741,0.419446394,-0.820795312
803,2010270,885980,-0.664,-0.117,0.854,-13.5,51.9,-3.6,10.1,-8.7,-22.6,0.366252632,0.126499222,0.420117801,-0.820551164
804,2014525,885980,-0.664,-0.141,0.858,-16.5,53,-5,10.1,-8.7,-22.6,0.365703299,0.127262185,0.420850246,-0.820307016
805,2016187,885980,-0.668,-0.161,0.862,-19.4,53.6,-6.5,10.1,-8.7,-22.6,0.365153966,0.127994629,0.421643727,-0.82003235
806,2018609,885980,-0.657,-0.216,0.862,-21.8,53.7,-7.6,10.2,-8.7,-23.3,0.364604633,0.128727073,0.422467727,-0.819727165
807,2020761,885990,-0.658,-0.243,0.854,-23.2,53.2,-8.2,10.2,-8.7,-23.3,0.364024781,0.12939848,0.423322245,-0.819421979
808,2023249,885990,-0.654,-0.279,0.842,-23.5,52.5,-8.1,10.2,-8.7,-23.3,0.363444929,0.130100406,0.424207282,-0.819147313
809,2025594,885990,-0.647,-0.314,0.834,-22.7,51.9,-7.7,10.2,-8.7,-23.3,0.362895596,0.130771813,0.425031281,-0.818842128
810,2029555,885990,-0.632,-0.385,0.83,-21,51.2,-7.3,10.3,-8.2,-23.5,0.362346263,0.13144322,0.425855281,-0.818567461
811,2031959,886000,-0.641,-0.421,0.842,-18.5,50.6,-7.2,10.3,-8.2,-23.5,0.36179693,0.132145146,0.426587725,-0.818292795
812,2033396,886000,-0.637,-0.452,0.842,-15.3,50,-7.5,10.3,-8.2,-23.5,0.361247597,0.132847072,0.427289651,-0.818048647
813,2035304,886000,-0.634,-0.488,0.842,-11.4,49.5,-8.1,10.3,-8.2,-23.5,0.360667745,0.133548997,0.427900021,-0.817865535
814,2038203,886000,-0.646,-0.542,0.839,-6.9,49,-8.9,10.7,-8.3,-21.5,0.360087893,0.134281442,0.428449355,-0.817743461
815,2040618,886010,-0.655,-0.566,0.839,-1.9,48.4,-9.6,10.7,-8.3,-21.5,0.359447005,0.135044404,0.428876614,-0.817651906
816,2043980,886010,-0.659,-0.589,0.839,3.3,47.8,-10.3,10.7,-8.3,-21.5,0.358806116,0.135837886,0.429242836,-0.817621387
817,2046226,886010,-0.663,-0.609,0.832,9,46.9,-10.8,10.7,-8.3,-21.5,0.358165227,0.136631367,0.429456465,-0.817651906
818,2048690,886010,-0.652,-0.648,0.82,14.9,45.7,-11.2,11.3,-8.5,-22,0.35749382,0.137455367,0.429578539,-0.817743461
819,2050788,886020,-0.645,-0.672,0.8,21.1,44.3,-11.5,11.3,-8.5,-22,0.356791894,0.138309885,0.429609058,-0.817896054
820,2053026,886020,-0.641,-0.692,0.8,27.8,42.6,-11.1,11.3,-8.5,-22,0.356120487,0.139194922,0.429456465,-0.818109684
821,2055284,886020,-0.63,-0.724,0.769,34.8,40.7,-10.3,11.3,-8.5,-22,0.35544908,0.140079958,0.429181799,-0.81838435
822,2057883,886020,-0.626,-0.728,0.757,41.8,38.9,-8.9,11.3,-8.6,-21.7,0.354777673,0.141026032,0.428785058,-0.818750572
823,2061216,886030,-0.622,-0.736,0.741,48.5,37.3,-7.2,11.3,-8.6,-21.7,0.354167302,0.142002625,0.428205206,-0.819147313
824,2062992,886030,-0.622,-0.736,0.726,54.6,35.9,-5.4,11.3,-8.6,-21.7,0.353556932,0.143009735,0.427533799,-0.819574572
825,2065344,886030,-0.634,-0.72,0.695,59.9,34.5,-3.6,11.3,-8.6,-21.7,0.352977081,0.144047365,0.426740318,-0.820062868
826,2068678,886030,-0.63,-0.708,0.683,64.4,33.3,-1.9,11.5,-8.7,-20.9,0.352427747,0.145146031,0.425855281,-0.820551164
827,2070392,886040,-0.646,-0.692,0.671,68,32.1,-0.5,11.5,-8.7,-20.9,0.351908933,0.146214179,0.424878689,-0.821100497
828,2072986,886040,-0.649,-0.672,0.652,70.6,31,0.8,11.5,-8.7,-20.9,0.351420637,0.147343364,0.42384106,-0.821649831
829,2075254,886040,-0.657,-0.629,0.636,72.4,29.9,1.9,11.5,-8.7,-20.9,0.35093234,0.14844203,0.422772912,-0.822199164
830,2078186,886040,-0.664,-0.613,0.625,73.1,28.6,3,11.4,-9.3,-21,0.350505081,0.149540696,0.421674245,-0.822748497
831,2081251,886050,-0.664,-0.589,0.621,72.9,27.4,3.8,11.4,-9.3,-21,0.350077822,0.150608844,0.420545061,-0.82329783
832,2082875,886050,-0.66,-0.574,0.605,72,26,4.6,11.4,-9.3,-21,0.349681082,0.151707511,0.419446394,-0.823847163
833,2085761,886050,-0.656,-0.546,0.593,70.5,24.8,5.4,11.4,-9.3,-21,0.349314859,0.152714621,0.418347728,-0.824365978
834,2087791,886050,-0.644,-0.527,0.569,68.6,23.4,6.4,9.8,-9.5,-20.7,0.349314859,0.154148991,0.416791284,-0.824884793
835,2091119,886060,-0.644,-0.527,0.569,66.3,22.1,7.5,9.8,-9.5,-20.7,0.349009674,0.155125584,0.415753655,-0.825373089
836,2092913,886060,-0.632,-0.516,0.553,63.3,20.9,8.7,9.8,-9.5,-20.7,0.348765526,0.156071657,0.414746544,-0.825800348
837,2096288,886060,-0.628,-0.516,0.545,60,19.7,9.7,9.8,-9.5,-20.7,0.348551897,0.156987213,0.413769951,-0.826197089
838,2097823,886060,-0.628,-0.52,0.534,56,18.6,10.8,13.5,-10,-20.5,0.348399304,0.157841731,0.412884915,-0.826563311
839,2100999,886070,-0.628,-0.516,0.538,51.6,17.5,11.8,13.5,-10,-20.5,0.34827723,0.158635212,0.412030396,-0.826868496
840,2103846,886070,-0.62,-0.516,0.518,46.7,16.6,12.8,13.5,-10,-20.5,0.348185675,0.159398175,0.411267434,-0.827143162
841,2105420,886070,-0.62,-0.524,0.514,41.3,15.9,13.6,13.5,-10,-20.5,0.348124638,0.160130619,0.410596026,-0.827356792
842,2108461,886070,-0.616,-0.524,0.506,35.8,15.1,14.3,13.1,-9.9,-20.7,0.348124638,0.160832545,0.410016175,-0.827509384
843,2111406,886080,-0.616,-0.528,0.506,30.2,14,14.8,13.1,-9.9,-20.7,0.348185675,0.161442915,0.409527879,-0.82760094
844,2113139,886080,-0.609,-0.54,0.498,24.9,12.9,15.3,13.1,-9.9,-20.7,0.348246712,0.161992248,0.409131138,-0.827661977
845,2115609,886080,-0.597,-0.552,0.498,19.7,11.6,15.6,13.1,-9.9,-20.7,0.348368786,0.162511063,0.408795434,-0.827692495
846,2117731,886080,-0.593,-0.56,0.506,15,10.5,16,13.1,-10,-20.6,0.348521378,0.162938322,0.408551286,-0.827661977
847,2121036,886090,-0.569,-0.588,0.525,10.9,9.4,16.4,13.1,-10,-20.6,0.348673971,0.163304544,0.408368175,-0.82760094
848,2122887,886090,-0.566,-0.6,0.532,7.1,8.4,16.9,13.1,-10,-20.6,0.3488876,0.163701285,0.408246101,-0.827509384
849,2126306,886090,-0.558,-0.619,0.536,3.7,7.6,17.4,13.1,-10,-20.6,0.349131748,0.164036988,0.408154546,-0.82738731
850,2127975,886090,-0.55,-0.631,0.532,0.3,7,17.9,12.8,-10,-20.5,0.349375896,0.164281137,0.408154546,-0.827234718
851,2130504,886100,-0.543,-0.663,0.528,-2.8,6.5,18.6,12.8,-10,-20.5,0.349681082,0.164586322,0.408185064,-0.827021088
852,2132946,886100,-0.539,-0.675,0.524,-5.9,5.8,19.1,12.8,-10,-20.5,0.349986267,0.164799951,0.40827662,-0.826807459
853,2136460,886100,-0.543,-0.687,0.524,-8.7,5.1,19.6,12.8,-10,-20.5,0.35032197,0.165013581,0.408398694,-0.826563311
854,2138434,886100,-0.547,-0.702,0.52,-11.1,4.3,20,11.4,-10,-20.3,0.350505081,0.165074618,0.408978545,-0.826197089
855,2140529,886110,-0.548,-0.718,0.517,-12.9,3.5,20.5,11.4,-10,-20.3,0.350901822,0.16522721,0.409161657,-0.825891903
856,2142961,886110,-0.552,-0.722,0.509,-14.1,2.6,21,11.4,-10,-20.3,0.351298563,0.165349284,0.409344768,-0.825617237
857,2146540,886110,-0.552,-0.734,0.505,-14.6,1.7,21.6,11.4,-10,-20.3,0.351725822,0.165471358,0.409558397,-0.825312052
858,2148862,886110,-0.556,-0.745,0.505,-14.6,0.8,22.3,11.2,-10.4,-20.4,0.352183599,0.165562914,0.409741508,-0.825006867
859,2150864,886120,-0.56,-0.761,0.509,-14,0,22.8,11.2,-10.4,-20.4,0.352641377,0.165654469,0.409924619,-0.824701682
860,2153235,886120,-0.56,-0.765,0.501,-13.1,-0.8,23.2,11.2,-10.4,-20.4,0.353099155,0.165746025,0.410046693,-0.824396496
861,2155579,886120,-0.557,-0.777,0.501,-11.5,-1.7,23.5,11.2,-10.4,-20.4,0.353587451,0.16583758,0.410168767,-0.82412183
862,2157991,886120,-0.56,-0.773,0.498,-9.5,-2.8,23.8,10.7,-10.5,-20.3,0.354075747,0.165929136,0.410229804,-0.823877682
863,2162143,886130,-0.56,-0.777,0.501,-7.2,-3.6,24,10.7,-10.5,-20.3,0.354564043,0.166020692,0.410260323,-0.823633534
864,2162973,886130,-0.561,-0.781,0.505,-4.7,-4.6,24.2,10.7,-10.5,-20.3,0.355052339,0.166112247,0.410199286,-0.823419904
865,2165746,886130,-0.56,-0.777,0.505,-2.1,-5.3,24.5,10.7,-10.5,-20.3,0.355571154,0.166234321,0.41010773,-0.823236793
866,2167896,886130,-0.556,-0.757,0.513,0.6,-6,24.8,9.4,-9.9,-20.2,0.35605945,0.166356395,0.409985656,-0.823053682
867,2170493,886140,-0.56,-0.749,0.509,3.4,-6.7,25.1,9.4,-9.9,-20.2,0.356547746,0.166478469,0.409772027,-0.822931608
868,2172763,886140,-0.556,-0.73,0.505,6.1,-7.5,25.5,9.4,-9.9,-20.2,0.357066561,0.166631062,0.40949736,-0.822809534
869,2176436,886140,-0.56,-0.718,0.513,8.4,-8.1,25.8,9.4,-9.9,-20.2,0.357554857,0.166753136,0.409192175,-0.822717978
870,2177990,886140,-0.555,-0.682,0.509,10.4,-8.8,26.1,8.5,-10.6,-20.4,0.358073672,0.166936247,0.408856471,-0.822626423
871,2180539,886150,-0.555,-0.663,0.513,12,-9.3,26.3,8.5,-10.6,-20.4,0.358592486,0.167088839,0.408459731,-0.822565386
872,2183923,886150,-0.558,-0.647,0.509,13.1,-9.8,26.4,8.5,-10.6,-20.4,0.359111301,0.167210913,0.408032472,-0.822504349
873,2185435,886150,-0.558,-0.623,0.505,13.9,-10.2,26.5,8.5,-10.6,-20.4,0.359630116,0.167394024,0.407605213,-0.82247383
874,2189152,886150,-0.553,-0.565,0.501,14,-10.9,26.6,12.5,-11.1,-20.4,0.359904782,0.167455061,0.407757805,-0.822260201
875,2190844,886160,-0.553,-0.565,0.501,13.7,-11.4,26.6,12.5,-11.1,-20.4,0.360423597,0.167577136,0.407330546,-0.822199164
876,2193349,886160,-0.553,-0.545,0.497,12.7,-11.8,26.5,12.5,-11.1,-20.4,0.36097293,0.16769921,0.406903287,-0.822168645
877,2195266,886160,-0.549,-0.51,0.496,11.2,-12.2,26.4,12.5,-11.1,-20.4,0.361522263,0.167821284,0.406506546,-0.822107608
878,2198310,886160,-0.548,-0.498,0.496,9.3,-12.6,26.3,9,-9.5,-20.6,0.362071596,0.167882321,0.406140324,-0.822016053
879,2200417,886170,-0.548,-0.482,0.496,7.1,-12.8,26,9,-9.5,-20.6,0.36262093,0.167943358,0.405804621,-0.821924497
880,2203430,886170,-0.54,-0.474,0.492,4.7,-13,25.7,9,-9.5,-20.6,0.363170263,0.167973876,0.405529954,-0.821802423
881,2205690,886170,-0.544,-0.463,0.488,2,-12.9,25.4,9,-9.5,-20.6,0.363750114,0.168004395,0.405285806,-0.821680349
882,2208885,886170,-0.54,-0.459,0.488,-0.8,-12.9,25,9,-9.8,-20.4,0.364299448,0.167973876,0.405133213,-0.821527757
883,2210319,886180,-0.544,-0.455,0.492,-3.8,-12.9,24.4,9,-9.8,-20.4,0.364879299,0.167943358,0.404980621,-0.821344646
884,2213996,886180,-0.544,-0.455,0.492,-6.8,-13,23.7,9,-9.8,-20.4,0.365428632,0.167851802,0.404919584,-0.821131016
885,2215430,886180,-0.548,-0.443,0.492,-9.7,-13,23,9,-9.8,-20.4,0.366008484,0.167760247,0.404919584,-0.820917386
886,2219485,886180,-0.547,-0.439,0.496,-12.5,-13,22.3,9.7,-9.8,-20.2,0.366557817,0.167607654,0.404950102,-0.820673238
887,2220248,886190,-0.551,-0.443,0.496,-15.1,-13,21.6,9.7,-9.8,-20.2,0.36710715,0.167455061,0.405041658,-0.820398572
888,2222764,886190,-0.555,-0.439,0.504,-17.6,-13,20.8,9.7,-9.8,-20.2,0.367656484,0.167210913,0.405163732,-0.820123905
889,2225857,886190,-0.551,-0.431,0.508,-20,-13,20.1,9.7,-9.8,-20.2,0.368236335,0.167027802,0.405346843,-0.819849239
890,2227974,886190,-0.559,-0.431,0.508,-22.2,-13,19.3,10.4,-9.7,-20.4,0.36875515,0.166783654,0.405590991,-0.819544053
891,2231229,886200,-0.559,-0.423,0.52,-24.1,-13,18.7,10.4,-9.7,-20.4,0.369304483,0.166539506,0.405835139,-0.81920835
892,2232782,886200,-0.559,-0.411,0.524,-25.9,-12.9,18.1,10.4,-9.7,-20.4,0.369823298,0.166234321,0.406140324,-0.818903165
893,2235375,886200,-0.555,-0.407,0.524,-27.6,-13,17.4,10.4,-9.7,-20.4,0.370372631,0.165959655,0.406445509,-0.818567461
894,2238023,886200,-0.555,-0.399,0.535,-29,-13,16.7,10.6,-11.3,-20.5,0.370891446,0.165623951,0.406811731,-0.818201239
895,2240348,886210,-0.554,-0.395,0.535,-30.4,-13.1,16,10.6,-11.3,-20.5,0.37141026,0.165257729,0.407177953,-0.817865535
896,2244258,886210,-0.55,-0.392,0.543,-31.4,-13.1,15.1,10.6,-11.3,-20.5,0.371898556,0.164952544,0.407574694,-0.817499313
897,2246373,886210,-0.554,-0.395,0.543,-32.3,-13.1,14.4,10.6,-11.3,-20.5,0.372386853,0.164555803,0.408001953,-0.817133091
898,2248614,886210,-0.554,-0.392,0.547,-33,-13.3,13.6,10.4,-9.2,-20.7,0.372875149,0.164189581,0.408429212,-0.816797388
899,2250694,886220,-0.554,-0.399,0.547,-33.8,-13.4,12.8,10.4,-9.2,-20.7,0.373332926,0.16379284,0.40888699,-0.816431166
900,2252960,886220,-0.55,-0.396,0.555,-34.4,-13.5,11.7,10.4,-9.2,-20.7,0.373790704,0.163365581,0.409344768,-0.816064943
901,2256230,886220,-0.551,-0.399,0.551,-35,-13.6,10.6,10.4,-9.2,-20.7,0.374217963,0.162938322,0.409833064,-0.81572924
902,2258067,886220,-0.547,-0.403,0.555,-35.3,-13.6,9.6,10.7,-8.9,-20.9,0.374645222,0.162480544,0.410290841,-0.815363018
903,2261166,886230,-0.547,-0.411,0.551,-35.4,-13.6,8.7,10.7,-8.9,-20.9,0.375041963,0.162053285,0.410779138,-0.815027314
904,2263562,886230,-0.543,-0.419,0.555,-35.2,-13.6,8,10.7,-8.9,-20.9,0.375438704,0.161564989,0.411267434,-0.81469161
905,2265889,886230,-0.543,-0.427,0.559,-35,-13.5,7.4,10.7,-8.9,-20.9,0.375835444,0.161107212,0.41175573,-0.814355907
906,2268240,886230,-0.543,-0.431,0.562,-34.8,-13.6,6.8,10.6,-9,-21,0.376201666,0.160649434,0.412244026,-0.814050722
907,2270410,886240,-0.543,-0.443,0.57,-34.8,-13.6,6.2,10.6,-9,-21,0.37653737,0.160191656,0.412732322,-0.813745537
908,2273285,886240,-0.543,-0.451,0.574,-34.8,-13.7,5.6,10.6,-9,-21,0.376873074,0.15970336,0.413220618,-0.813409833
909,2277118,886240,-0.543,-0.455,0.578,-34.7,-13.5,4.8,10.6,-9,-21,0.377208777,0.159215064,0.413708914,-0.813104648
910,2278707,886240,-0.547,-0.462,0.582,-34.6,-13.4,4,10.5,-8.7,-21.3,0.377544481,0.158726768,0.414197211,-0.812799463
911,2280899,886250,-0.547,-0.474,0.586,-34.4,-13.2,3.1,10.5,-8.7,-21.3,0.377819147,0.158238472,0.414685507,-0.812524796
912,2283269,886250,-0.547,-0.474,0.59,-34.1,-12.9,2.4,10.5,-8.7,-21.3,0.378093814,0.157750175,0.415173803,-0.81225013
913,2285443,886250,-0.548,-0.486,0.598,-33.8,-12.6,1.9,10.5,-8.7,-21.3,0.37836848,0.157261879,0.415662099,-0.811944945
914,2288213,886250,-0.54,-0.502,0.606,-33.2,-12.3,1.7,9.9,-9.1,-21.5,0.37879574,0.156987213,0.41584521,-0.811731315
915,2290404,886260,-0.544,-0.506,0.61,-32.5,-12,1.8,9.9,-9.1,-21.5,0.379039888,0.156468398,0.416333506,-0.811456648
916,2292964,886260,-0.552,-0.498,0.621,-31.6,-11.6,2.1,9.9,-9.1,-21.5,0.379314554,0.156071657,0.416760765,-0.811181982
917,2296151,886260,-0.548,-0.506,0.625,-30.7,-11.2,2.5,9.9,-9.1,-21.5,0.379558702,0.155644398,0.417218543,-0.810907315
918,2298365,886260,-0.556,-0.517,0.622,-30.2,-10.9,2.6,9.9,-11.1,-21.7,0.37980285,0.155217139,0.417645802,-0.810663167
919,2300674,886270,-0.568,-0.521,0.634,-30,-10.5,2.6,9.9,-11.1,-21.7,0.380046999,0.15478988,0.418073061,-0.810388501
920,2302871,886270,-0.564,-0.525,0.638,-30,-10.2,2.5,9.9,-11.1,-21.7,0.380291147,0.154393139,0.418530839,-0.810144353
921,2305871,886270,-0.572,-0.521,0.634,-30,-9.8,2.5,9.9,-11.1,-21.7,0.380535295,0.153996399,0.418958098,-0.809869686
922,2307971,886270,-0.576,-0.525,0.634,-30.1,-9.4,2.3,10.1,-11.6,-21.3,0.380748924,0.153599658,0.419415876,-0.809625538
923,2310271,886280,-0.58,-0.524,0.638,-30.3,-9.2,2.4,10.1,-11.6,-21.3,0.380993072,0.153202918,0.419873653,-0.809350871
924,2313363,886280,-0.584,-0.524,0.634,-30.5,-9.1,2.5,10.1,-11.6,-21.3,0.381206702,0.152806177,0.420331431,-0.809076205
925,2315465,886280,-0.588,-0.528,0.63,-30.9,-8.9,2.8,10.1,-11.6,-21.3,0.38145085,0.152409436,0.420789209,-0.808801538
926,2319516,886280,-0.584,-0.524,0.642,-31.5,-8.5,3,10.1,-11.9,-21.7,0.381694998,0.152043214,0.421246986,-0.808496353
927,2321315,886290,-0.584,-0.524,0.634,-32.3,-8.1,3.3,10.1,-11.9,-21.7,0.381939146,0.151646474,0.421735282,-0.808221686
928,2322894,886290,-0.588,-0.524,0.646,-33.1,-7.8,3.6,10.1,-11.9,-21.7,0.382183294,0.151280251,0.422254097,-0.807916501
929,2325605,886290,-0.596,-0.52,0.642,-34.1,-7.6,4,10.1,-11.9,-21.7,0.382427442,0.150883511,0.422772912,-0.807580798
930,2327812,886290,-0.607,-0.512,0.643,-35.2,-7.3,4.5,9.9,-12,-21.9,0.382702109,0.150517289,0.423322245,-0.807245094
931,2331934,886300,-0.599,-0.508,0.638,-36.6,-6.9,5,9.9,-12,-21.9,0.382976775,0.150120548,0.423902097,-0.806878872
932,2333585,886300,-0.599,-0.512,0.638,-38,-6.5,5.4,9.9,-12,-21.9,0.383251442,0.149754326,0.424481948,-0.80651265
933,2335752,886300,-0.607,-0.512,0.639,-39.4,-6.4,5.8,9.9,-12,-21.9,0.383526109,0.149357585,0.425122837,-0.806115909
934,2337976,886300,-0.611,-0.508,0.635,-40.6,-6.2,6.4,10,-7.5,-20,0.384014405,0.149174474,0.425458541,-0.805719169
935,2340343,886310,-0.611,-0.508,0.635,-42,-6.1,7,10,-7.5,-20,0.384350108,0.148777734,0.426129948,-0.80529191
936,2343882,886310,-0.611,-0.508,0.635,-43.7,-5.8,7.7,10,-7.5,-20,0.384685812,0.148380993,0.426801355,-0.80486465
937,2345693,886310,-0.615,-0.508,0.631,-45.5,-5.6,8.1,10,-7.5,-20,0.385021516,0.147984252,0.427533799,-0.804376354
938,2347949,886310,-0.615,-0.504,0.639,-47.3,-5.5,8.5,9.9,-8.7,-23.1,0.385357219,0.147556993,0.428296762,-0.803888058
939,2350338,886320,-0.619,-0.504,0.639,-49.2,-5.4,8.8,9.9,-8.7,-23.1,0.385723441,0.147129734,0.429090243,-0.803369243
940,2352811,886320,-0.619,-0.504,0.631,-50.9,-5.4,9.1,9.9,-8.7,-23.1,0.386120182,0.146702475,0.429914243,-0.80281991
941,2355842,886320,-0.619,-0.504,0.643,-52.7,-5.4,9.3,9.9,-8.7,-23.1,0.386486404,0.146244697,0.430738243,-0.802270577
942,2357910,886320,-0.619,-0.5,0.647,-54.5,-5.3,9.5,9.6,-7.6,-23.4,0.386883145,0.14578692,0.43162328,-0.801690725
943,2360318,886330,-0.619,-0.504,0.643,-56.2,-5.2,9.7,9.6,-7.6,-23.4,0.387279885,0.145298624,0.432538835,-0.801080355
944,2363997,886330,-0.615,-0.504,0.643,-57.7,-5.3,10,9.6,-7.6,-23.4,0.387707144,0.144810327,0.433484909,-0.800469985
945,2365776,886330,-0.615,-0.508,0.651,-58.9,-5.4,10.4,9.6,-7.6,-23.4,0.388103885,0.144322031,0.434430982,-0.799859615
946,2368270,886330,-0.611,-0.512,0.654,-59.9,-5.5,10.7,9.6,-6.9,-23.9,0.388531144,0.143772698,0.435377056,-0.799218726
947,2370512,886340,-0.607,-0.52,0.654,-60.6,-5.3,11.1,9.6,-6.9,-23.9,0.388988922,0.14331492,0.436353648,-0.798547319
948,2372938,886340,-0.604,-0.54,0.662,-61.2,-5.1,11.4,9.6,-6.9,-23.9,0.389416181,0.142796106,0.437360759,-0.797845393
949,2375256,886340,-0.6,-0.548,0.662,-61.8,-5.1,11.8,9.6,-6.9,-23.9,0.389873959,0.14230781,0.438337352,-0.797204505
950,2378892,886340,-0.596,-0.559,0.67,-62.3,-5.2,12.2,10,-6.3,-23.9,0.390331736,0.141819514,0.439344462,-0.796533097
951,2381198,886350,-0.596,-0.571,0.658,-62.8,-5.3,12.7,10,-6.3,-23.9,0.390789514,0.141300699,0.440351573,-0.795831172
952,2384053,886350,-0.6,-0.587,0.658,-63.3,-5.4,13,10,-6.3,-23.9,0.391247291,0.140781884,0.441358684,-0.795129246
953,2385704,886350,-0.597,-0.591,0.654,-63.7,-5.4,13.2,10,-6.3,-23.9,0.391735588,0.140293588,0.442396313,-0.79442732
954,2387964,886350,-0.593,-0.615,0.662,-63.9,-5.6,13.2,9.7,-7.8,-22.2,0.392437513,0.13983581,0.442854091,-0.793877987
955,2390320,886360,-0.593,-0.618,0.666,-63.8,-5.7,13.3,9.7,-7.8,-22.2,0.39292581,0.139316996,0.443830683,-0.793176061
956,2393736,886360,-0.585,-0.626,0.658,-63.4,-5.9,13.6,9.7,-7.8,-22.2,0.393414106,0.138798181,0.444868313,-0.792474136
957,2396194,886360,-0.589,-0.626,0.658,-62.8,-6,14.2,9.7,-7.8,-22.2,0.393902402,0.138279366,0.445875423,-0.791741691
958,2398322,886360,-0.585,-0.638,0.65,-62.2,-6,14.8,9.7,-7.8,-22.3,0.394421216,0.13779107,0.446852016,-0.791039766
959,2400476,886370,-0.582,-0.642,0.638,-61.3,-6.2,15.4,9.7,-7.8,-22.3,0.394909513,0.137302774,0.44779809,-0.790307321
960,2402863,886370,-0.582,-0.646,0.642,-60.5,-6.4,15.8,9.7,-7.8,-22.3,0.395428327,0.136844996,0.448744163,-0.789605396
961,2405932,886370,-0.582,-0.654,0.642,-59.8,-6.5,16,9.7,-7.8,-22.3,0.395947142,0.1363567,0.449659719,-0.78890347
962,2408284,886370,-0.578,-0.662,0.634,-59.1,-6.6,16.3,9.5,-7.3,-21.9,0.396465957,0.135898923,0.450575274,-0.788201544
963,2410578,886380,-0.578,-0.666,0.63,-58.3,-6.7,16.5,9.5,-7.3,-21.9,0.39701529,0.135441145,0.451490829,-0.787499619
964,2412840,886380,-0.578,-0.654,0.634,-57.5,-6.8,16.8,9.5,-7.3,-21.9,0.397534104,0.134983367,0.452345347,-0.786797693
965,2417424,886380,-0.578,-0.666,0.63,-56.5,-6.9,17,9.5,-7.3,-21.9,0.398052919,0.134556108,0.453230384,-0.786126286
966,2418074,886380,-0.582,-0.658,0.631,-55.4,-6.8,17.3,9.6,-7.2,-21.4,0.398571734,0.134128849,0.454054384,-0.785454878
967,2421312,886390,-0.582,-0.654,0.623,-54.3,-6.7,17.8,9.6,-7.2,-21.4,0.399121067,0.13370159,0.454878384,-0.784752953
968,2423407,886390,-0.586,-0.646,0.623,-53.2,-6.6,18.2,9.6,-7.2,-21.4,0.399639882,0.133304849,0.455671865,-0.784112064
969,2425619,886390,-0.59,-0.638,0.615,-52.1,-6.6,18.7,9.6,-7.2,-21.4,0.400189215,0.132938627,0.456465346,-0.783440657
970,2427850,886390,-0.585,-0.63,0.607,-50.9,-6.9,19.2,9.5,-6.9,-20.4,0.400738548,0.132572405,0.45719779,-0.78276925
971,2430321,886400,-0.581,-0.627,0.611,-49.8,-7.2,19.5,9.5,-6.9,-20.4,0.401287881,0.132206183,0.457930235,-0.782128361
972,2433575,886400,-0.585,-0.623,0.611,-48.9,-7.5,19.9,9.5,-6.9,-20.4,0.401837214,0.131839961,0.458662679,-0.781487472
973,2435823,886400,-0.581,-0.623,0.607,-47.9,-7.7,20.3,9.5,-6.9,-20.4,0.402417066,0.131504257,0.459334086,-0.780846583
974,2438811,886400,-0.581,-0.619,0.607,-47,-7.7,20.6,9.5,-6.8,-25.3,0.403057955,0.13104648,0.459639271,-0.780419324
975,2440422,886410,-0.581,-0.615,0.603,-46.3,-7.7,20.7,9.5,-6.8,-25.3,0.403637806,0.130710776,0.460310678,-0.779778436
976,2443905,886410,-0.581,-0.619,0.603,-45.6,-7.7,20.7,9.5,-6.8,-25.3,0.40418714,0.130375072,0.460951567,-0.779168065
977,2445400,886410,-0.581,-0.611,0.603,-44.9,-7.8,20.8,9.5,-6.8,-25.3,0.404736473,0.130069887,0.461592456,-0.778557695
978,2447700,886410,-0.577,-0.607,0.595,-44.1,-7.8,20.8,9.1,-6.7,-22.4,0.405316324,0.129734184,0.462202826,-0.777947325
979,2451585,886420,-0.585,-0.603,0.603,-43.3,-7.9,20.9,9.1,-6.7,-22.4,0.405865658,0.129428999,0.462813196,-0.777336955
980,2453102,886420,-0.581,-0.595,0.595,-42.5,-8.1,20.9,9.1,-6.7,-22.4,0.406414991,0.129123814,0.463362529,-0.776757103
981,2455842,886420,-0.577,-0.591,0.595,-41.9,-8.4,21,9.1,-6.7,-22.4,0.406994842,0.128818628,0.4639729,-0.776177252
982,2458086,886420,-0.577,-0.587,0.595,-41.2,-8.8,20.8,9.3,-6.3,-22.5,0.407544176,0.128513443,0.464522233,-0.7755974
983,2460847,886430,-0.573,-0.584,0.595,-40.6,-9.1,20.6,9.3,-6.3,-22.5,0.408093509,0.128208258,0.465071566,-0.775017548
984,2462869,886430,-0.573,-0.584,0.579,-39.9,-9.4,20.5,9.3,-6.3,-22.5,0.408642842,0.127903073,0.465620899,-0.774468215
985,2465608,886430,-0.565,-0.588,0.583,-39.2,-9.6,20.2,9.3,-6.3,-22.5,0.409192175,0.127597888,0.466139714,-0.773918882
986,2468616,886430,-0.565,-0.592,0.575,-38.5,-10,19.8,8.9,-6.4,-23.6,0.409741508,0.127292703,0.466658528,-0.773369549
987,2471373,886440,-0.565,-0.592,0.575,-37.7,-10.3,19.5,8.9,-6.4,-23.6,0.410290841,0.126987518,0.467146825,-0.772820215
988,2473414,886440,-0.565,-0.6,0.575,-36.7,-10.6,19,8.9,-6.4,-23.6,0.410809656,0.126651814,0.467604602,-0.772331919
989,2475250,886440,-0.561,-0.607,0.575,-35.7,-10.8,18.6,8.9,-6.4,-23.6,0.411328471,0.126346629,0.46806238,-0.771813105
990,2478919,886440,-0.561,-0.604,0.575,-34.7,-10.9,18.2,8.7,-5.7,-24.6,0.411847285,0.126041444,0.468489639,-0.771324808
991,2480326,886450,-0.561,-0.604,0.575,-33.7,-11,17.7,8.7,-5.7,-24.6,0.4123661,0.125736259,0.468916898,-0.770867031
992,2483481,886450,-0.557,-0.608,0.579,-32.7,-11,17.2,8.7,-5.7,-24.6,0.412854396,0.125431074,0.469313639,-0.770378735
993,2486605,886450,-0.565,-0.6,0.575,-31.5,-11,16.6,8.7,-5.7,-24.6,0.413342692,0.125125889,0.469710379,-0.769951476
994,2487986,886450,-0.561,-0.604,0.571,-30.4,-11,15.9,9,-5.8,-23.6,0.413892026,0.124729148,0.469710379,-0.769707327
995,2491052,886460,-0.561,-0.604,0.571,-29,-11.1,15.5,9,-5.8,-23.6,0.414349803,0.124454482,0.470076601,-0.769310587
996,2492795,886460,-0.554,-0.608,0.575,-27.5,-11.3,15,9,-5.8,-23.6,0.414807581,0.124118778,0.470381787,-0.768913846
997,2495955,886460,-0.554,-0.619,0.575,-25.9,-11.4,14.6,9,-5.8,-23.6,0.41523484,0.12387463,0.470686972,-0.768547624
998,2498902,886460,-0.554,-0.619,0.571,-24.2,-11.6,14.2,9,-6,-23.7,0.415662099,0.123630482,0.47093112,-0.768181402
999,2500450,886470,-0.554,-0.627,0.571,-22.7,-11.7,13.8,9,-6,-23.7,0.41605884,0.123355815,0.471175268,-0.767876217
1000,2503565,886470,-0.55,-0.623,0.567,-21.3,-11.8,13.3,9,-6,-23.7,0.41645558,0.123111667,0.471388897,-0.767540513
1001,2505870,886470,-0.554,-0.635,0.567,-21.3,-11.8,13.3,9,-6,-23.7,0.416882839,0.122837001,0.471602527,-0.767235328
1002,2508867,886470,-0.558,-0.631,0.567,-20.2,-11.8,12.7,8.7,-5.9,-23.9,0.417249062,0.122592853,0.471785638,-0.766960662
1003,2510433,886480,-0.558,-0.631,0.575,-19,-11.9,12.1,8.7,-5.9,-23.9,0.417645802,0.122348704,0.471968749,-0.766685995
1004,2512799,886480,-0.558,-0.643,0.575,-17.8,-11.8,11.5,8.7,-5.9,-23.9,0.418012024,0.122104556,0.47215186,-0.766411328
1005,2515632,886480,-0.554,-0.643,0.571,-16.5,-11.7,11,8.7,-5.9,-23.9,0.418347728,0.121860408,0.472273934,-0.76616718
1006,2518360,886480,-0.55,-0.639,0.575,-14.9,-11.6,10.7,8.8,-5.9,-23.6,0.418683432,0.121646779,0.472396008,-0.765953551
1007,2520700,886490,-0.55,-0.643,0.575,-13.4,-11.6,10.3,8.8,-5.9,-23.6,0.419019135,0.121433149,0.472487564,-0.76577044
1008,2523044,886490,-0.55,-0.651,0.579,-12,-11.5,10.1,8.8,-5.9,-23.6,0.41932432,0.121250038,0.472548601,-0.76555681
1009,2525614,886490,-0.55,-0.655,0.579,-10.7,-11.5,9.8,8.8,-5.9,-23.6,0.419660024,0.121036409,0.472609638,-0.765404218
1010,2527931,886490,-0.546,-0.651,0.575,-9.7,-11.6,9.5,8.4,-5.7,-24.1,0.419965209,0.120853298,0.472640156,-0.765251625
1011,2531395,886500,-0.55,-0.651,0.575,-8.7,-11.5,9.2,8.4,-5.7,-24.1,0.420239875,0.120700705,0.472640156,-0.765099033
1012,2533535,886500,-0.55,-0.647,0.567,-7.8,-11.5,8.9,8.4,-5.7,-24.1,0.420545061,0.120517594,0.472640156,-0.764976959
1013,2535729,886500,-0.55,-0.639,0.575,-6.9,-11.4,8.6,8.4,-5.7,-24.1,0.420819727,0.120365001,0.472640156,-0.764854884
1014,2538053,886500,-0.554,-0.639,0.571,-5.5,-11.1,8,8,-5.8,-23.6,0.421002838,0.119693594,0.472243416,-0.765068514
1015,2540666,886510,-0.554,-0.639,0.567,-5.5,-11.1,8,8,-5.8,-23.6,0.421277505,0.119541002,0.472212897,-0.764976959
1016,2542868,886510,-0.554,-0.631,0.571,-4.8,-10.9,7.7,8,-5.8,-23.6,0.421521653,0.119388409,0.472182379,-0.764885403
1017,2546943,886510,-0.554,-0.627,0.567,-4.2,-10.8,7.5,8,-5.8,-23.6,0.421765801,0.119235817,0.472121342,-0.764793847
1018,2549424,886510,-0.558,-0.627,0.56,-3.6,-10.6,7.3,9.4,-5.5,-23.5,0.422009949,0.119113742,0.472060305,-0.76473281
1019,2551048,886520,-0.554,-0.623,0.559,-3.3,-10.4,7.2,9.4,-5.5,-23.5,0.422254097,0.118991668,0.471999268,-0.764641255
1020,2553462,886520,-0.554,-0.619,0.555,-3,-10.3,7,9.4,-5.5,-23.5,0.422498245,0.118839076,0.471938231,-0.764580218
1021,2555785,886520,-0.554,-0.619,0.552,-2.8,-10.3,6.9,9.4,-5.5,-23.5,0.422711875,0.118717002,0.471877194,-0.764519181
1022,2558160,886520,-0.562,-0.615,0.552,-2.8,-10.2,6.5,9.6,-5.4,-23.5,0.422956023,0.118594928,0.471816156,-0.764458144
1023,2560564,886530,-0.55,-0.608,0.551,-2.8,-9.9,6.2,9.6,-5.4,-23.5,0.423169652,0.118472854,0.471755119,-0.764397107
