sample_index,elapsed_us,device_time_ms,acc_x_g,acc_y_g,acc_z_g,gyro_x_dps,gyro_y_dps,gyro_z_dps,mag_x_ut,mag_y_ut,mag_z_ut,quat_w,quat_x,quat_y,quat_z
0,3302,829670,-0.676,-0.542,0.527,-3.2,-1,-1,1.1,-3.3,-24.6,0.535538804,0.106509598,0.481063265,-0.685842463
1,6795,829670,-0.676,-0.538,0.527,-3,-1.1,-1.1,1.5,-3.4,-24.7,0.535538804,0.106448561,0.481093783,-0.685842463
2,9055,829680,-0.676,-0.542,0.527,-2.7,-1,-1.1,1.5,-3.4,-24.7,0.535538804,0.106387524,0.481124302,-0.685811945
3,11305,829680,-0.672,-0.542,0.527,-2.3,-1,-1.3,1.5,-3.4,-24.7,0.535508286,0.106326487,0.48115482,-0.685811945
4,13544,829680,-0.672,-0.546,0.531,-1.9,-1.1,-1.3,1.5,-3.4,-24.7,0.535508286,0.106295969,0.481185339,-0.685811945
5,15780,829680,-0.672,-0.546,0.527,-1.6,-1.3,-1.3,2.2,-3.5,-25,0.535508286,0.106234931,0.481185339,-0.685811945
6,18525,829690,-0.668,-0.546,0.531,-1.3,-1.5,-1.3,2.2,-3.5,-25,0.535508286,0.106173894,0.481185339,-0.685811945
7,21785,829690,-0.676,-0.55,0.527,-1,-1.7,-1.5,2.2,-3.5,-25,0.535508286,0.106112857,0.481185339,-0.685842463
8,23345,829690,-0.676,-0.55,0.527,-0.7,-1.7,-1.6,2.2,-3.5,-25,0.535508286,0.10605182,0.481185339,-0.685842463
9,26082,829690,-0.68,-0.55,0.527,-0.4,-1.8,-1.6,3.3,-3.3,-24.4,0.535508286,0.106021302,0.48115482,-0.685872982
10,28320,829700,-0.676,-0.546,0.539,-0.1,-1.8,-1.7,3.3,-3.3,-24.4,0.535508286,0.105960265,0.48115482,-0.6859035
11,30678,829700,-0.676,-0.55,0.527,0,-1.8,-1.7,3.3,-3.3,-24.4,0.535477767,0.105929746,0.481124302,-0.6859035
12,33554,829700,-0.676,-0.55,0.527,0.3,-1.7,-1.7,3.3,-3.3,-24.4,0.535477767,0.105899228,0.481124302,-0.685934019
13,35806,829700,-0.676,-0.55,0.535,0.8,-2,-1.5,3,-5.1,-24.8,0.535569323,0.105929746,0.480941191,-0.685964537
14,38464,829710,-0.676,-0.55,0.535,0.8,-2,-1.5,3,-5.1,-24.8,0.535569323,0.105899228,0.480941191,-0.685995056
15,40669,829710,-0.672,-0.562,0.531,0.9,-2.1,-1.5,3,-5.1,-24.8,0.535538804,0.105868709,0.480910672,-0.686056093
16,44313,829710,-0.668,-0.55,0.531,1,-2.1,-1.5,3,-5.1,-24.8,0.535538804,0.105838191,0.480849635,-0.686086612
17,46277,829710,-0.672,-0.554,0.535,1.1,-2.2,-1.3,3.5,-3,-24.8,0.535538804,0.105807672,0.480819117,-0.68611713
18,48306,829720,-0.672,-0.554,0.527,1.1,-2.3,-1.3,3.5,-3,-24.8,0.535538804,0.105746635,0.480788598,-0.686147649
19,51969,829720,-0.668,-0.558,0.527,1.1,-2.4,-1.3,3.5,-3,-24.8,0.535538804,0.105716117,0.480727561,-0.686178167
20,53674,829720,-0.664,-0.558,0.531,1.1,-2.4,-1.3,3.5,-3,-24.8,0.535569323,0.105685598,0.480697043,-0.686208686
21,56584,829720,-0.668,-0.558,0.531,1.1,-2.2,-1.3,3.5,-3.3,-24.8,0.535569323,0.10565508,0.480666524,-0.686239204
22,59479,829730,-0.668,-0.558,0.535,1.1,-2.1,-1.1,3.5,-3.3,-24.8,0.535569323,0.105624561,0.480605487,-0.686269723
23,61707,829730,-0.664,-0.558,0.527,1.1,-2,-1,3.5,-3.3,-24.8,0.535569323,0.105563524,0.480574969,-0.686300241
24,63307,829730,-0.664,-0.562,0.523,1.1,-2,-0.9,3.5,-3.3,-24.8,0.535569323,0.105563524,0.48054445,-0.68633076
25,65722,829730,-0.668,-0.558,0.531,1.1,-2,-0.9,3.3,-3.3,-24.8,0.535569323,0.105533006,0.480513932,-0.686361278
26,68482,829740,-0.664,-0.558,0.535,1.1,-1.8,-0.7,3.3,-3.3,-24.8,0.535569323,0.105502487,0.480452895,-0.686391797
27,71153,829740,-0.66,-0.558,0.527,1.2,-1.7,-0.5,3.3,-3.3,-24.8,0.535569323,0.105502487,0.480422376,-0.686422315
28,73205,829740,-0.66,-0.554,0.531,1.3,-1.7,-0.4,3.3,-3.3,-24.8,0.535599841,0.105471969,0.480391858,-0.686422315
29,76199,829740,-0.656,-0.554,0.531,1.2,-1.7,-0.3,3.6,-3.8,-24.7,0.535599841,0.105471969,0.480361339,-0.686452834
30,78454,829750,-0.664,-0.554,0.527,1.1,-1.7,-0.2,3.6,-3.8,-24.7,0.535599841,0.10544145,0.480300302,-0.686483352
31,81399,829750,-0.66,-0.55,0.527,1,-1.6,0,3.6,-3.8,-24.7,0.53563036,0.10544145,0.480269784,-0.686483352
32,83642,829750,-0.66,-0.554,0.531,0.9,-1.5,0,3.6,-3.8,-24.7,0.53563036,0.105410932,0.480239265,-0.686513871
33,86778,829750,-0.66,-0.546,0.531,0.7,-1.4,0,3.1,-3.5,-24.8,0.535660878,0.105349895,0.480117191,-0.686574908
34,88977,829760,-0.656,-0.546,0.523,0.7,-1.4,0,3.1,-3.5,-24.8,0.535691397,0.105319376,0.480086673,-0.686574908
35,90697,829760,-0.664,-0.546,0.523,0.5,-1.5,0,3.1,-3.5,-24.8,0.535691397,0.105319376,0.480056154,-0.686605426
36,94186,829760,-0.668,-0.542,0.527,0.4,-1.5,0,3.1,-3.5,-24.8,0.535721915,0.105288858,0.480025636,-0.686605426
37,96396,829760,-0.668,-0.542,0.523,0.2,-1.4,0,2.6,-5.4,-24.7,0.535752434,0.105288858,0.480025636,-0.686605426
38,98708,829770,-0.66,-0.535,0.519,0,-1.2,0,2.6,-5.4,-24.7,0.535752434,0.105258339,0.479995117,-0.686605426
39,100923,829770,-0.668,-0.538,0.523,-0.2,-1,0,2.6,-5.4,-24.7,0.535752434,0.105227821,0.479995117,-0.686605426
40,103215,829770,-0.668,-0.538,0.527,-0.3,-0.8,-0.1,2.6,-5.4,-24.7,0.535782952,0.105227821,0.479995117,-0.686605426
41,105828,829770,-0.664,-0.538,0.523,-0.3,-0.8,-0.1,2.6,-6.5,-24.8,0.535782952,0.105197302,0.479995117,-0.686605426
42,109139,829780,-0.66,-0.538,0.523,-0.3,-0.9,-0.1,2.6,-6.5,-24.8,0.535782952,0.105197302,0.479964599,-0.686605426
43,110659,829780,-0.656,-0.546,0.523,-0.4,-0.9,-0.1,2.6,-6.5,-24.8,0.535782952,0.105166784,0.479964599,-0.686605426
44,113224,829780,-0.656,-0.546,0.519,-0.5,-0.7,-0.2,2.6,-6.5,-24.8,0.535813471,0.105136265,0.479964599,-0.686605426
45,117421,829780,-0.66,-0.546,0.523,-0.6,-0.5,-0.4,2.7,-6.5,-24.9,0.535813471,0.105075228,0.479964599,-0.686605426
46,119654,829790,-0.66,-0.546,0.519,-0.6,-0.5,-0.5,2.7,-6.5,-24.9,0.535813471,0.105075228,0.479995117,-0.686605426
47,121133,829790,-0.66,-0.55,0.523,-0.5,-0.4,-0.7,2.7,-6.5,-24.9,0.535782952,0.105075228,0.479995117,-0.686605426
48,124030,829790,-0.664,-0.546,0.523,-0.3,-0.4,-0.8,2.7,-6.5,-24.9,0.535782952,0.10504471,0.479995117,-0.686635945
49,125713,829790,-0.66,-0.554,0.519,-0.2,-0.3,-0.9,2.8,-6.6,-25.2,0.535782952,0.10504471,0.479995117,-0.686635945
50,129174,829800,-0.66,-0.546,0.515,0,-0.3,-1,2.8,-6.6,-25.2,0.535752434,0.105014191,0.479995117,-0.686635945
51,131446,829800,-0.664,-0.55,0.523,0.3,-0.3,-1,2.8,-6.6,-25.2,0.535752434,0.105014191,0.479995117,-0.686666463
52,133658,829800,-0.66,-0.546,0.515,0.6,-0.2,-1.2,2.8,-6.6,-25.2,0.535721915,0.105014191,0.479964599,-0.686696982
53,136698,829800,-0.664,-0.55,0.515,1.1,-0.2,-1.5,3.3,-2.7,-23.1,0.535721915,0.105014191,0.47993408,-0.6867275
54,138222,829810,-0.66,-0.542,0.515,1.1,-0.2,-1.5,3.3,-2.7,-23.1,0.535691397,0.104983673,0.47993408,-0.686758019
55,141763,829810,-0.66,-0.55,0.511,1.5,-0.3,-1.5,3.3,-2.7,-23.1,0.535660878,0.104983673,0.479903562,-0.686788537
56,143161,829810,-0.664,-0.546,0.515,1.7,-0.3,-1.5,3.3,-2.7,-23.1,0.53563036,0.104983673,0.479873043,-0.686819056
57,146243,829810,-0.664,-0.546,0.511,1.9,-0.3,-1.6,3.4,-4.5,-26.8,0.53563036,0.104983673,0.479842524,-0.686849574
58,148506,829820,-0.66,-0.542,0.511,1.8,-0.2,-1.7,3.4,-4.5,-26.8,0.535599841,0.104983673,0.479812006,-0.686910611
59,150854,829820,-0.668,-0.538,0.511,1.7,-0.1,-1.7,3.4,-4.5,-26.8,0.535569323,0.104983673,0.479812006,-0.68694113
60,154268,829820,-0.66,-0.539,0.515,1.8,-0.1,-1.8,3.4,-4.5,-26.8,0.535538804,0.104983673,0.479781487,-0.686971648
61,155693,829820,-0.664,-0.538,0.519,1.9,-0.1,-1.8,2.8,-3.8,-26.7,0.535508286,0.104983673,0.479750969,-0.687032685
62,158782,829830,-0.668,-0.542,0.511,1.9,-0.1,-1.8,2.8,-3.8,-26.7,0.535477767,0.104983673,0.47972045,-0.687063204
63,160998,829830,-0.66,-0.546,0.515,1.9,-0.2,-1.8,2.8,-3.8,-26.7,0.535447249,0.104983673,0.479689932,-0.687093722
64,163233,829830,-0.66,-0.546,0.515,1.9,-0.3,-1.8,2.8,-3.8,-26.7,0.53541673,0.104983673,0.479659413,-0.687154759
65,166323,829830,-0.664,-0.554,0.515,2,-0.3,-1.7,3.2,-2.8,-26.2,0.535386212,0.104983673,0.479628895,-0.687185278
66,168349,829840,-0.656,-0.558,0.511,2,-0.3,-1.7,3.2,-2.8,-26.2,0.535355693,0.104983673,0.479598376,-0.687246315
67,171575,829840,-0.664,-0.558,0.511,1.9,-0.3,-1.7,3.2,-2.8,-26.2,0.535325175,0.104983673,0.479567858,-0.687276833
68,173124,829840,-0.664,-0.562,0.515,1.8,-0.2,-1.7,3.2,-2.8,-26.2,0.535294656,0.104983673,0.479537339,-0.687307352
69,176262,829840,-0.664,-0.558,0.511,1.7,-0.1,-1.7,3.2,-2.8,-26.4,0.535264138,0.104983673,0.479537339,-0.687368389
70,179451,829850,-0.668,-0.554,0.519,1.4,-0.1,-1.6,3.2,-2.8,-26.4,0.535233619,0.104983673,0.479506821,-0.687398907
71,181605,829850,-0.668,-0.554,0.508,1.3,-0.1,-1.5,3.2,-2.8,-26.4,0.535233619,0.104983673,0.479476302,-0.687429426
72,183734,829850,-0.668,-0.55,0.511,1.3,-0.1,-1.4,3.2,-2.8,-26.4,0.535203101,0.104983673,0.479476302,-0.687459944
73,186699,829850,-0.664,-0.55,0.515,1.3,0,-1.2,3.2,-4.3,-24.8,0.535142064,0.105014191,0.479567858,-0.687429426
74,188296,829860,-0.664,-0.55,0.515,1.3,0,-1.2,3.2,-4.3,-24.8,0.535111545,0.10504471,0.479537339,-0.687459944
75,191446,829860,-0.664,-0.546,0.515,1.2,0,-1,3.2,-4.3,-24.8,0.535111545,0.10504471,0.479506821,-0.687490463
76,193880,829860,-0.664,-0.546,0.511,1,0,-0.9,3.2,-4.3,-24.8,0.535081027,0.10504471,0.479506821,-0.687490463
77,196078,829860,-0.664,-0.55,0.515,0.9,0.1,-0.9,3.1,-4.5,-24.7,0.535081027,0.10504471,0.479506821,-0.687520981
78,198322,829870,-0.664,-0.554,0.511,0.7,0.3,-1,3.1,-4.5,-24.7,0.535050508,0.10504471,0.479506821,-0.6875515
79,200952,829870,-0.66,-0.55,0.515,0.5,0.4,-1,3.1,-4.5,-24.7,0.53501999,0.10504471,0.479506821,-0.6875515
80,204923,829870,-0.664,-0.554,0.519,0.3,0.4,-0.9,3.1,-4.5,-24.7,0.53501999,0.10504471,0.479506821,-0.687582018
81,207152,829870,-0.66,-0.554,0.515,0.1,0.4,-0.9,2.9,-4,-23.9,0.534989471,0.10504471,0.479506821,-0.687582018
82,208685,829880,-0.668,-0.55,0.511,-0.1,0.4,-1,2.9,-4,-23.9,0.534958953,0.10504471,0.479506821,-0.687582018
83,210748,829880,-0.668,-0.554,0.511,-0.4,0.4,-1,2.9,-4,-23.9,0.534958953,0.10504471,0.479537339,-0.687612537
84,213859,829880,-0.668,-0.55,0.515,-0.7,0.5,-0.9,2.9,-4,-23.9,0.534928434,0.105014191,0.479537339,-0.687612537
85,216912,829880,-0.668,-0.554,0.515,-1,0.5,-0.9,2.6,-4.4,-23.2,0.534928434,0.105014191,0.479567858,-0.687612537
86,219020,829890,-0.668,-0.542,0.515,-1.1,0.6,-0.7,2.6,-4.4,-23.2,0.534897916,0.104983673,0.479598376,-0.687612537
87,220690,829890,-0.668,-0.546,0.511,-1.3,0.6,-0.8,2.6,-4.4,-23.2,0.534897916,0.104983673,0.479628895,-0.687582018
88,223726,829890,-0.672,-0.546,0.515,-1.5,0.8,-0.8,2.6,-4.4,-23.2,0.534867397,0.104953154,0.479659413,-0.687582018
89,225949,829890,-0.672,-0.542,0.508,-1.7,0.9,-0.8,3.4,-4.3,-22.3,0.534836879,0.104953154,0.479689932,-0.687582018
90,229062,829900,-0.668,-0.546,0.515,-1.9,0.9,-0.9,3.4,-4.3,-22.3,0.534836879,0.104922636,0.479750969,-0.6875515
91,231242,829900,-0.672,-0.546,0.512,-1.9,0.7,-0.9,3.4,-4.3,-22.3,0.53480636,0.104922636,0.479781487,-0.6875515
92,233323,829900,-0.668,-0.538,0.508,-2,0.6,-1,3.4,-4.3,-22.3,0.53480636,0.104892117,0.479812006,-0.6875515
93,236489,829900,-0.668,-0.546,0.515,-2.1,0.5,-1.1,2.9,-4.5,-27.1,0.53480636,0.10504471,0.47993408,-0.687398907
94,238745,829910,-0.668,-0.546,0.511,-2.1,0.5,-1.1,2.9,-4.5,-27.1,0.53480636,0.105014191,0.479995117,-0.687398907
95,241729,829910,-0.664,-0.546,0.515,-2.1,0.6,-1.1,2.9,-4.5,-27.1,0.534775842,0.104983673,0.480025636,-0.687398907
96,243307,829910,-0.664,-0.554,0.515,-2,0.5,-1,2.9,-4.5,-27.1,0.534745323,0.104983673,0.480056154,-0.687368389
97,246199,829910,-0.66,-0.554,0.519,-1.9,0.5,-1,3.2,-4.5,-23.9,0.534745323,0.104953154,0.480117191,-0.687368389
98,249264,829920,-0.66,-0.55,0.519,-1.7,0.5,-1,3.2,-4.5,-23.9,0.534714805,0.104922636,0.48014771,-0.687368389
99,250746,829920,-0.664,-0.554,0.519,-1.4,0.5,-1.1,3.2,-4.5,-23.9,0.534714805,0.104892117,0.480178228,-0.687368389
100,254291,829920,-0.664,-0.558,0.515,-1.1,0.5,-1.1,3.2,-4.5,-23.9,0.534684286,0.104892117,0.480208747,-0.687368389
101,255854,829920,-0.668,-0.562,0.519,-0.9,0.5,-1.1,3.1,-4.5,-24.2,0.534653768,0.104861599,0.480208747,-0.687368389
102,258977,829930,-0.664,-0.558,0.511,-0.7,0.5,-1.2,3.1,-4.5,-24.2,0.534653768,0.104861599,0.480239265,-0.687368389
103,262022,829930,-0.664,-0.554,0.515,-0.5,0.5,-1.2,3.1,-4.5,-24.2,0.534623249,0.10483108,0.480269784,-0.687368389
104,264263,829930,-0.668,-0.554,0.519,-0.4,0.4,-1.2,3.1,-4.5,-24.2,0.53459273,0.10483108,0.480269784,-0.687398907
105,265788,829930,-0.664,-0.55,0.523,-0.2,0.3,-1.2,3.2,-4.4,-25,0.534562212,0.10483108,0.480269784,-0.687398907
106,269031,829940,-0.668,-0.546,0.515,0,0.1,-1,3.2,-4.4,-25,0.534562212,0.104800562,0.480300302,-0.687398907
107,270779,829940,-0.664,-0.546,0.519,0.2,0,-1,3.2,-4.4,-25,0.534531693,0.104800562,0.480300302,-0.687429426
108,273807,829940,-0.664,-0.546,0.519,0.4,0,-0.9,3.2,-4.4,-25,0.534531693,0.104800562,0.480269784,-0.687429426
109,276216,829940,-0.66,-0.542,0.519,0.5,0,-0.8,3,-4.3,-26.1,0.534501175,0.104800562,0.480269784,-0.687459944
110,278366,829950,-0.66,-0.542,0.519,0.5,0,-0.7,3,-4.3,-26.1,0.534501175,0.104800562,0.480269784,-0.687459944
111,280772,829950,-0.664,-0.546,0.527,0.4,0,-0.7,3,-4.3,-26.1,0.534470656,0.104800562,0.480269784,-0.687490463
112,283350,829950,-0.66,-0.542,0.523,0.3,-0.1,-0.7,3,-4.3,-26.1,0.534470656,0.104800562,0.480269784,-0.687490463
113,286730,829950,-0.66,-0.546,0.527,0,-0.3,-0.7,3.1,-4.3,-25.1,0.534531693,0.10483108,0.48014771,-0.687520981
114,288388,829960,-0.66,-0.546,0.527,0,-0.3,-0.7,3.1,-4.3,-25.1,0.534531693,0.10483108,0.48014771,-0.687520981
115,291262,829960,-0.66,-0.55,0.523,0,-0.3,-0.6,3.1,-4.3,-25.1,0.534531693,0.10483108,0.48014771,-0.687520981
116,294336,829960,-0.66,-0.558,0.527,0,-0.4,-0.5,3.1,-4.3,-25.1,0.534501175,0.104800562,0.48014771,-0.6875515
117,295813,829960,-0.66,-0.558,0.527,-0.2,-0.4,-0.5,2.7,-4.5,-24.8,0.534501175,0.104800562,0.48014771,-0.6875515
118,298998,829970,-0.664,-0.558,0.527,-0.2,-0.4,-0.4,2.7,-4.5,-24.8,0.534501175,0.104770043,0.48014771,-0.6875515
119,301290,829970,-0.66,-0.562,0.527,-0.3,-0.3,-0.3,2.7,-4.5,-24.8,0.534501175,0.104770043,0.48014771,-0.6875515
120,303632,829970,-0.66,-0.566,0.523,-0.3,-0.3,-0.2,2.7,-4.5,-24.8,0.534501175,0.104739525,0.48014771,-0.6875515
121,305858,829970,-0.66,-0.558,0.523,-0.3,-0.2,-0.2,3.3,-4.5,-25,0.534501175,0.104739525,0.48014771,-0.6875515
122,308498,829980,-0.66,-0.558,0.527,-0.3,-0.1,-0.3,3.3,-4.5,-25,0.534501175,0.104739525,0.480178228,-0.6875515
123,311706,829980,-0.66,-0.558,0.527,-0.5,-0.1,-0.3,3.3,-4.5,-25,0.534501175,0.104709006,0.480178228,-0.6875515
124,313189,829980,-0.656,-0.558,0.523,-0.5,-0.2,-0.3,3.3,-4.5,-25,0.534501175,0.104709006,0.480178228,-0.6875515
125,315834,829980,-0.664,-0.554,0.523,-0.5,-0.1,-0.3,3.3,-4.3,-24.7,0.534501175,0.104709006,0.480178228,-0.6875515
126,318619,829990,-0.66,-0.554,0.527,-0.4,-0.1,-0.2,3.3,-4.3,-24.7,0.534501175,0.104678488,0.480178228,-0.6875515
127,320976,829990,-0.664,-0.55,0.527,-0.3,-0.1,-0.2,3.3,-4.3,-24.7,0.534501175,0.104678488,0.480208747,-0.6875515
128,324000,829990,-0.66,-0.55,0.527,-0.3,-0.1,-0.2,3.3,-4.3,-24.7,0.534501175,0.104678488,0.480208747,-0.6875515
129,326129,829990,-0.656,-0.55,0.527,-0.3,-0.1,-0.1,3.2,-4.5,-24.9,0.534501175,0.104647969,0.480208747,-0.6875515
130,329191,830000,-0.664,-0.55,0.527,-0.3,-0.1,0,3.2,-4.5,-24.9,0.534501175,0.104647969,0.480208747,-0.6875515
131,330778,830000,-0.66,-0.55,0.527,-0.4,-0.1,0,3.2,-4.5,-24.9,0.534501175,0.104647969,0.480208747,-0.687520981
132,333796,830000,-0.66,-0.55,0.531,-0.5,0,0,3.2,-4.5,-24.9,0.534501175,0.104647969,0.480208747,-0.687520981
133,335808,830000,-0.66,-0.546,0.523,-0.7,0.1,-0.1,2.1,-4,-24.8,0.534531693,0.104586932,0.480117191,-0.6875515
134,339154,830010,-0.66,-0.546,0.523,-0.7,0.1,-0.1,2.1,-4,-24.8,0.534531693,0.104586932,0.48014771,-0.6875515
135,341217,830010,-0.66,-0.55,0.527,-0.8,0.3,-0.1,2.1,-4,-24.8,0.534531693,0.104586932,0.48014771,-0.6875515
136,343261,830010,-0.66,-0.554,0.515,-0.9,0.3,-0.2,2.1,-4,-24.8,0.534531693,0.104586932,0.480178228,-0.6875515
137,347290,830010,-0.66,-0.554,0.523,-1.1,0.2,-0.2,3.8,-4.1,-24.5,0.534531693,0.104586932,0.480208747,-0.687520981
138,349470,830020,-0.664,-0.55,0.519,-1.3,0.2,-0.3,3.8,-4.1,-24.5,0.534531693,0.104586932,0.480208747,-0.687520981
139,351081,830020,-0.664,-0.546,0.519,-1.4,0.3,-0.3,3.8,-4.1,-24.5,0.534531693,0.104556413,0.480239265,-0.687520981
140,353368,830020,-0.668,-0.546,0.523,-1.5,0.4,-0.3,3.8,-4.1,-24.5,0.534501175,0.104556413,0.480269784,-0.687490463
141,356070,830020,-0.664,-0.546,0.523,-1.6,0.4,-0.2,3.7,-4,-24.5,0.534501175,0.104525895,0.480300302,-0.687490463
142,358627,830030,-0.664,-0.55,0.523,-1.6,0.4,-0.2,3.7,-4,-24.5,0.534501175,0.104525895,0.480330821,-0.687459944
143,360938,830030,-0.664,-0.55,0.519,-1.5,0.4,-0.1,3.7,-4,-24.5,0.534501175,0.104495376,0.480361339,-0.687459944
144,365099,830030,-0.66,-0.55,0.523,-1.5,0.4,-0.2,3.7,-4,-24.5,0.534501175,0.104495376,0.480391858,-0.687429426
145,367151,830030,-0.664,-0.554,0.523,-1.6,0.4,-0.3,3.9,-4.3,-24.6,0.534470656,0.104464858,0.480422376,-0.687429426
146,369415,830040,-0.664,-0.554,0.523,-1.6,0.5,-0.4,3.9,-4.3,-24.6,0.534470656,0.104464858,0.480452895,-0.687398907
147,371670,830040,-0.664,-0.558,0.519,-1.5,0.4,-0.3,3.9,-4.3,-24.6,0.534470656,0.104434339,0.480483413,-0.687398907
148,373314,830040,-0.664,-0.554,0.523,-1.4,0.3,-0.1,3.9,-4.3,-24.6,0.534470656,0.104434339,0.480513932,-0.687368389
149,375774,830040,-0.668,-0.55,0.515,-1.3,0.3,0,3.6,-4.3,-24.7,0.534470656,0.104403821,0.48054445,-0.687368389
150,379097,830050,-0.664,-0.554,0.523,-1.3,0.2,0,3.6,-4.3,-24.7,0.534470656,0.104403821,0.48054445,-0.687368389
151,381117,830050,-0.664,-0.554,0.523,-1.2,0.1,0,3.6,-4.3,-24.7,0.534470656,0.104403821,0.480574969,-0.68733787
152,384300,830050,-0.66,-0.55,0.519,-1,0.1,0,3.6,-4.3,-24.7,0.534470656,0.104373302,0.480605487,-0.68733787
153,386391,830050,-0.66,-0.554,0.527,-0.5,0.3,0.1,1.9,-4.3,-24.8,0.534501175,0.104434339,0.480574969,-0.687307352
154,388223,830060,-0.66,-0.558,0.523,-0.5,0.3,0.1,1.9,-4.3,-24.8,0.534501175,0.104434339,0.480605487,-0.687307352
155,390735,830060,-0.66,-0.558,0.523,-0.5,0.3,0.1,1.9,-4.3,-24.8,0.534501175,0.104434339,0.480605487,-0.687307352
156,394146,830060,-0.66,-0.558,0.515,-0.2,0.3,0.1,1.9,-4.3,-24.8,0.534501175,0.104434339,0.480605487,-0.687307352
157,395861,830060,-0.66,-0.558,0.519,-0.2,0.3,0.1,4.2,-4.2,-24.8,0.534501175,0.104434339,0.480605487,-0.687276833
158,398156,830070,-0.664,-0.562,0.515,-0.2,0.1,0.1,4.2,-4.2,-24.8,0.534501175,0.104434339,0.480636006,-0.687276833
159,401609,830070,-0.664,-0.554,0.511,-0.3,0.1,0.1,4.2,-4.2,-24.8,0.534501175,0.104434339,0.480636006,-0.687276833
160,403374,830070,-0.664,-0.558,0.511,-0.2,0.1,0.3,4.2,-4.2,-24.8,0.534501175,0.104434339,0.480636006,-0.687276833
161,406703,830070,-0.664,-0.55,0.515,0,0,0.3,4.1,-4.1,-24.7,0.534501175,0.104434339,0.480636006,-0.687276833
162,408323,830080,-0.66,-0.55,0.511,0,0,0.4,4.1,-4.1,-24.7,0.534501175,0.104434339,0.480636006,-0.687246315
163,410761,830080,-0.66,-0.55,0.515,0,0,0.3,4.1,-4.1,-24.7,0.534501175,0.104464858,0.480636006,-0.687246315
164,414375,830080,-0.664,-0.542,0.519,0,-0.1,0.3,4.1,-4.1,-24.7,0.534531693,0.104464858,0.480636006,-0.687246315
165,415866,830080,-0.656,-0.546,0.515,0,-0.1,0.3,4.4,-4.4,-24.7,0.534531693,0.104464858,0.480636006,-0.687246315
166,418278,830090,-0.66,-0.546,0.519,0,-0.1,0.2,4.4,-4.4,-24.7,0.534531693,0.104464858,0.480636006,-0.687246315
167,421173,830090,-0.656,-0.55,0.519,0,-0.1,0.2,4.4,-4.4,-24.7,0.534531693,0.104464858,0.480605487,-0.687246315
168,424151,830090,-0.656,-0.546,0.511,0,0,0.3,4.4,-4.4,-24.7,0.534531693,0.104464858,0.480605487,-0.687246315
169,425936,830090,-0.656,-0.543,0.511,-0.3,0,0.4,3.9,-4.4,-24.4,0.534562212,0.104464858,0.480636006,-0.687246315
170,428854,830100,-0.66,-0.542,0.511,-0.4,0,0.5,3.9,-4.4,-24.4,0.534562212,0.104464858,0.480636006,-0.687215796
171,431097,830100,-0.66,-0.546,0.511,-0.5,0.1,0.5,3.9,-4.4,-24.4,0.534562212,0.104464858,0.480636006,-0.687215796
172,434444,830100,-0.656,-0.546,0.519,-0.6,0.1,0.4,3.9,-4.4,-24.4,0.534562212,0.104464858,0.480636006,-0.687185278
173,436570,830100,-0.656,-0.55,0.511,-0.8,0,0.3,3.5,-4,-24.5,0.53459273,0.104495376,0.480636006,-0.687154759
174,438084,830110,-0.656,-0.55,0.511,-0.8,0,0.3,3.5,-4,-24.5,0.534623249,0.104495376,0.480666524,-0.687154759
175,440917,830110,-0.656,-0.55,0.511,-0.8,0,0.3,3.5,-4,-24.5,0.534623249,0.104495376,0.480666524,-0.687154759
176,444180,830110,-0.66,-0.554,0.511,-0.8,0.2,0.5,3.5,-4,-24.5,0.534623249,0.104495376,0.480697043,-0.687124241
177,446466,830110,-0.656,-0.554,0.511,-0.8,0.3,0.4,1.6,-4.1,-24.7,0.534623249,0.104495376,0.480697043,-0.687124241
178,448576,830120,-0.656,-0.558,0.515,-0.8,0.4,0.3,1.6,-4.1,-24.7,0.534623249,0.104495376,0.480727561,-0.687093722
179,450842,830120,-0.66,-0.554,0.511,-0.8,0.3,0.2,1.6,-4.1,-24.7,0.534623249,0.104495376,0.480727561,-0.687093722
180,453802,830120,-0.664,-0.554,0.511,-0.9,0.3,0.3,1.6,-4.1,-24.7,0.534653768,0.104495376,0.48075808,-0.687063204
181,456146,830120,-0.668,-0.55,0.511,-1,0.3,0.3,0.4,-3.9,-24.9,0.534653768,0.104495376,0.48075808,-0.687063204
182,458396,830130,-0.668,-0.542,0.511,-1.2,0.4,0.1,0.4,-3.9,-24.9,0.534653768,0.104495376,0.480788598,-0.687032685
183,461011,830130,-0.668,-0.546,0.504,-1.2,0.6,0,0.4,-3.9,-24.9,0.534653768,0.104464858,0.480819117,-0.687032685
184,463297,830130,-0.668,-0.542,0.504,-1.2,0.8,0,0.4,-3.9,-24.9,0.534623249,0.104464858,0.480849635,-0.687002167
185,467328,830130,-0.664,-0.546,0.511,-1.2,0.8,0,0.2,-4.4,-25,0.534623249,0.104464858,0.480880154,-0.687002167
186,469642,830140,-0.664,-0.546,0.507,-1.1,0.8,0,0.2,-4.4,-25,0.534623249,0.104464858,0.480910672,-0.686971648
187,471141,830140,-0.664,-0.546,0.511,-0.9,0.7,0,0.2,-4.4,-25,0.534623249,0.104464858,0.480941191,-0.686971648
188,473935,830140,-0.664,-0.55,0.507,-0.8,0.6,0,0.2,-4.4,-25,0.534623249,0.104464858,0.480941191,-0.68694113
189,477039,830140,-0.664,-0.562,0.515,-0.8,0.6,0,0.3,-3.9,-24.6,0.534623249,0.104464858,0.480941191,-0.68694113
190,478523,830150,-0.664,-0.558,0.504,-0.9,0.7,-0.1,0.3,-3.9,-24.6,0.53459273,0.104464858,0.481002228,-0.68694113
191,480749,830150,-0.664,-0.558,0.504,-0.9,0.7,-0.1,0.3,-3.9,-24.6,0.53459273,0.104464858,0.481002228,-0.68694113
192,483705,830150,-0.668,-0.554,0.508,-1.2,0.8,-0.4,0.3,-3.9,-24.6,0.534562212,0.104464858,0.481063265,-0.686910611
193,486742,830150,-0.668,-0.558,0.515,-1.1,0.8,-0.4,4.3,-5.7,-24.8,0.534531693,0.104464858,0.481185339,-0.686849574
194,488741,830160,-0.668,-0.558,0.512,-1.1,0.8,-0.4,4.3,-5.7,-24.8,0.534531693,0.104464858,0.481215857,-0.686849574
195,491924,830160,-0.668,-0.558,0.512,-1.1,0.8,-0.4,4.3,-5.7,-24.8,0.534531693,0.104464858,0.481215857,-0.686849574
196,494070,830160,-0.672,-0.558,0.512,-0.8,0.7,-0.1,4.3,-5.7,-24.8,0.534501175,0.104464858,0.481246376,-0.686819056
197,495678,830160,-0.668,-0.558,0.508,-0.7,0.6,-0.1,2.7,-2.7,-25,0.534501175,0.104464858,0.481276894,-0.686819056
198,498706,830170,-0.668,-0.554,0.508,-0.7,0.6,-0.2,2.7,-2.7,-25,0.534470656,0.104464858,0.481307413,-0.686819056
199,500656,830170,-0.664,-0.554,0.507,-0.7,0.4,-0.4,2.7,-2.7,-25,0.534470656,0.104464858,0.481307413,-0.686819056
200,503271,830170,-0.668,-0.55,0.504,-0.7,0.3,-0.5,2.7,-2.7,-25,0.534470656,0.104434339,0.481337931,-0.686819056
201,506033,830170,-0.668,-0.554,0.508,-0.6,0.3,-0.5,3.4,-3,-24.8,0.534440138,0.104434339,0.481337931,-0.686819056
202,509088,830180,-0.668,-0.554,0.511,-0.5,0.3,-0.4,3.4,-3,-24.8,0.534440138,0.104434339,0.48136845,-0.686819056
203,511321,830180,-0.668,-0.554,0.508,-0.3,0.4,-0.2,3.4,-3,-24.8,0.534440138,0.104434339,0.48136845,-0.686788537
204,513626,830180,-0.668,-0.554,0.511,-0.2,0.4,0,3.4,-3,-24.8,0.534440138,0.104434339,0.48136845,-0.686788537
205,515890,830180,-0.668,-0.558,0.512,-0.2,0.4,0,4.5,-2.7,-24.9,0.534440138,0.104434339,0.481398968,-0.686788537
206,518250,830190,-0.672,-0.562,0.516,-0.3,0.4,0,4.5,-2.7,-24.9,0.534409619,0.104434339,0.481398968,-0.686788537
207,520774,830190,-0.668,-0.558,0.512,-0.3,0.4,-0.1,4.5,-2.7,-24.9,0.534409619,0.104434339,0.481398968,-0.686788537
208,524304,830190,-0.668,-0.562,0.512,-0.3,0.4,-0.1,4.5,-2.7,-24.9,0.534409619,0.104434339,0.481429487,-0.686788537
209,525986,830190,-0.664,-0.566,0.508,-0.4,0.3,-0.1,4.5,-2.8,-24.9,0.534409619,0.104434339,0.481429487,-0.686788537
210,528300,830200,-0.668,-0.562,0.512,-0.5,0.3,0,4.5,-2.8,-24.9,0.534409619,0.104434339,0.481460005,-0.686788537
211,530885,830200,-0.664,-0.566,0.515,-0.6,0.3,0.1,4.5,-2.8,-24.9,0.534409619,0.104434339,0.481460005,-0.686758019
212,534082,830200,-0.66,-0.57,0.511,-0.6,0.4,0.2,4.5,-2.8,-24.9,0.534409619,0.104434339,0.481490524,-0.686758019
213,536157,830200,-0.66,-0.562,0.519,-0.7,0.3,0.5,3.2,-4.2,-24.9,0.534318064,0.104373302,0.481612598,-0.6867275
214,538067,830210,-0.664,-0.562,0.515,-0.7,0.3,0.5,3.2,-4.2,-24.9,0.534348582,0.104373302,0.481612598,-0.686696982
215,540915,830210,-0.664,-0.562,0.515,-0.7,0.3,0.5,3.2,-4.2,-24.9,0.534348582,0.104373302,0.481612598,-0.686696982
216,543384,830210,-0.668,-0.566,0.515,-0.6,0.6,0.6,3.2,-4.2,-24.9,0.534348582,0.104403821,0.481643117,-0.686666463
217,545968,830210,-0.664,-0.566,0.523,-0.6,0.7,0.6,3.2,-4.2,-24.9,0.534348582,0.104403821,0.481673635,-0.686666463
218,548235,830220,-0.672,-0.562,0.519,-0.6,0.8,0.6,3.2,-4.2,-24.9,0.534348582,0.104434339,0.481704154,-0.686635945
219,552357,830220,-0.668,-0.558,0.515,-0.8,0.8,0.8,3.2,-4.2,-24.9,0.534348582,0.104434339,0.481704154,-0.686635945
220,554572,830220,-0.668,-0.558,0.519,-0.8,0.8,0.9,3.2,-4.2,-24.9,0.534379101,0.104434339,0.481734672,-0.686605426
221,556075,830220,-0.664,-0.558,0.523,-0.8,0.7,1.1,3.2,-4.2,-24.9,0.534379101,0.104464858,0.481765191,-0.686574908
222,558308,830230,-0.668,-0.558,0.519,-0.8,0.6,1.1,3.2,-4.2,-24.9,0.534379101,0.104464858,0.481765191,-0.686544389
223,560742,830230,-0.664,-0.558,0.519,-0.8,0.6,1,3.2,-4.2,-24.9,0.534409619,0.104495376,0.481795709,-0.686544389
224,564258,830230,-0.664,-0.55,0.523,-0.9,0.7,0.9,3.2,-4.2,-24.9,0.534409619,0.104495376,0.481795709,-0.686513871
225,565984,830230,-0.664,-0.562,0.519,-1,0.8,1,3.2,-4.2,-24.9,0.534409619,0.104495376,0.481826228,-0.686483352
226,568327,830240,-0.664,-0.562,0.519,-1.1,0.8,1.1,3.2,-4.2,-24.9,0.534440138,0.104525895,0.481856746,-0.686452834
227,571298,830240,-0.664,-0.566,0.523,-1.1,0.9,1.3,3.2,-4.2,-24.9,0.534440138,0.104525895,0.481887265,-0.686422315
228,573592,830240,-0.668,-0.562,0.512,-1.1,1,1.3,3.2,-4.2,-24.9,0.534470656,0.104556413,0.481917783,-0.686391797
229,575800,830240,-0.664,-0.562,0.519,-1.1,1.1,1.2,3.2,-4.2,-24.9,0.534470656,0.104556413,0.481917783,-0.686361278
230,578150,830250,-0.672,-0.562,0.512,-1.1,1.1,1.2,3.2,-4.2,-24.9,0.534470656,0.104586932,0.481948302,-0.68633076
231,580726,830250,-0.66,-0.558,0.515,-1.1,1.2,1.1,3.2,-4.2,-24.9,0.534470656,0.104586932,0.48197882,-0.686300241
232,583832,830250,-0.664,-0.558,0.519,-1.1,1.1,1.1,3.2,-4.2,-24.9,0.534501175,0.104586932,0.482009339,-0.686269723
233,586132,830250,-0.668,-0.558,0.519,-0.7,0.9,1.1,3.2,-2.5,-24.1,0.534470656,0.104586932,0.482070376,-0.686269723
234,588350,830260,-0.668,-0.558,0.519,-0.7,0.9,1.1,3.2,-2.5,-24.1,0.534470656,0.104586932,0.482100894,-0.686239204
235,590681,830260,-0.672,-0.554,0.515,-0.6,0.9,1.2,3.2,-2.5,-24.1,0.534501175,0.104647969,0.482100894,-0.686208686
236,593330,830260,-0.672,-0.558,0.512,-0.6,1.1,1.2,3.2,-2.5,-24.1,0.534501175,0.104647969,0.482131413,-0.686178167
237,595655,830260,-0.672,-0.554,0.519,-0.6,1.2,1.2,3.2,-2.5,-24.1,0.534501175,0.104678488,0.482161931,-0.686178167
238,598837,830270,-0.668,-0.546,0.519,-0.4,1.4,1.3,3.2,-2.5,-24.1,0.534501175,0.104709006,0.482161931,-0.686147649
239,601028,830270,-0.664,-0.55,0.519,-0.3,1.4,1.2,3.2,-2.5,-24.1,0.534501175,0.104739525,0.48219245,-0.68611713
240,603199,830270,-0.664,-0.554,0.515,-0.1,1.4,1.2,3.2,-2.5,-24.1,0.534531693,0.104770043,0.482222968,-0.686086612
241,606180,830270,-0.664,-0.554,0.527,0,1.3,1.2,3.4,-4.8,-25.7,0.534531693,0.104800562,0.482222968,-0.686086612
242,608483,830280,-0.668,-0.558,0.523,0.2,1.2,1.1,3.4,-4.8,-25.7,0.534531693,0.10483108,0.482222968,-0.686056093
243,610670,830280,-0.672,-0.558,0.523,0.2,1.2,0.9,3.4,-4.8,-25.7,0.534531693,0.104892117,0.482253487,-0.686056093
244,613155,830280,-0.668,-0.554,0.523,0.3,1.4,0.8,3.4,-4.8,-25.7,0.534531693,0.104922636,0.482253487,-0.686056093
245,616792,830280,-0.668,-0.558,0.527,0.4,1.5,0.8,3.2,-4,-25.6,0.534531693,0.104953154,0.482253487,-0.686025575
246,618942,830290,-0.668,-0.554,0.519,0.4,1.7,0.7,3.2,-4,-25.6,0.534501175,0.104983673,0.482253487,-0.686025575
247,620871,830290,-0.672,-0.554,0.523,0.5,1.7,0.6,3.2,-4,-25.6,0.534501175,0.105014191,0.482284005,-0.686025575
248,623627,830290,-0.672,-0.55,0.519,0.6,1.5,0.5,3.2,-4,-25.6,0.534501175,0.105075228,0.482284005,-0.686025575
249,625862,830290,-0.672,-0.55,0.519,0.7,1.4,0.5,3.2,-4,-25.6,0.534470656,0.105075228,0.482284005,-0.686025575
250,628440,830300,-0.668,-0.546,0.519,0.7,1.2,0.5,3.2,-4,-25.6,0.534470656,0.105136265,0.482284005,-0.686025575
251,630879,830300,-0.672,-0.55,0.523,0.8,1.2,0.4,3.2,-4,-25.6,0.534470656,0.105166784,0.482284005,-0.686025575
252,634087,830300,-0.672,-0.546,0.523,0.9,1,0.3,3.2,-4,-25.6,0.534470656,0.105197302,0.482284005,-0.686025575
253,637236,830300,-0.672,-0.554,0.527,1.2,0.7,0.3,3.1,-4,-25.7,0.534531693,0.105319376,0.48219245,-0.686025575
254,639851,830310,-0.68,-0.554,0.531,1.2,0.7,0.3,3.1,-4,-25.7,0.534531693,0.105349895,0.48219245,-0.686025575
255,641981,830310,-0.68,-0.554,0.531,1.2,0.7,0.3,3.1,-4,-25.7,0.534531693,0.105349895,0.48219245,-0.686025575
256,643601,830310,-0.68,-0.554,0.531,1.8,0.5,0.1,3.1,-4,-25.7,0.534501175,0.105410932,0.482131413,-0.686056093
257,645935,830310,-0.684,-0.558,0.531,2.1,0.4,0.1,2.7,-3.8,-25.8,0.534501175,0.10544145,0.482131413,-0.686086612
258,648645,830320,-0.688,-0.561,0.543,2.4,0.2,0.1,2.7,-3.8,-25.8,0.534501175,0.105471969,0.482070376,-0.686086612
259,650677,830320,-0.688,-0.554,0.543,2.8,0.2,0.1,2.7,-3.8,-25.8,0.534501175,0.105533006,0.482039857,-0.68611713
260,653569,830320,-0.688,-0.557,0.539,3.3,0.2,0,2.7,-3.8,-25.8,0.534470656,0.105563524,0.482009339,-0.686147649
261,656652,830320,-0.676,-0.554,0.52,3.8,0,0,2.8,-4.1,-25.6,0.534470656,0.105563524,0.481948302,-0.686208686
262,658849,830330,-0.664,-0.546,0.515,4.3,-0.5,0,2.8,-4.1,-25.6,0.534470656,0.10565508,0.481856746,-0.686239204
263,661924,830330,-0.652,-0.543,0.519,4.7,-1.2,0,2.8,-4.1,-25.6,0.534470656,0.105685598,0.481795709,-0.686300241
264,663303,830330,-0.652,-0.55,0.515,4.7,-1.9,0.4,2.8,-4.1,-25.6,0.534470656,0.105716117,0.481673635,-0.686361278
265,666521,830330,-0.652,-0.554,0.495,4.5,-2.6,1,2.8,-3.9,-25.7,0.534501175,0.105746635,0.48158208,-0.686391797
266,668196,830340,-0.657,-0.562,0.488,4.4,-2.9,1.4,2.8,-3.9,-25.7,0.534562212,0.105777154,0.481490524,-0.686422315
267,670648,830340,-0.661,-0.566,0.488,4.5,-2.7,1.4,2.8,-3.9,-25.7,0.53459273,0.105807672,0.48136845,-0.686452834
268,674817,830340,-0.665,-0.578,0.5,4.9,-2.2,0.6,2.8,-3.9,-25.7,0.534623249,0.105838191,0.481276894,-0.686513871
269,675936,830340,-0.665,-0.582,0.523,5.5,-1.6,-0.1,2.8,-3.9,-25.7,0.534623249,0.105868709,0.481185339,-0.686574908
270,679394,830350,-0.669,-0.582,0.523,6.3,-1.3,-0.6,2.8,-3.9,-25.7,0.534623249,0.105899228,0.481063265,-0.686666463
271,680960,830350,-0.668,-0.57,0.523,7,-1.1,-0.4,2.8,-3.9,-25.7,0.53459273,0.105960265,0.480941191,-0.6867275
272,684282,830350,-0.668,-0.558,0.523,7.7,-1,0.1,2.8,-3.9,-25.7,0.53459273,0.10605182,0.480819117,-0.686819056
273,687181,830350,-0.676,-0.53,0.527,7.8,-0.8,1,3.5,-4.4,-23.2,0.534562212,0.10605182,0.480697043,-0.686910611
274,689600,830360,-0.676,-0.53,0.527,7.8,-0.8,1,3.5,-4.4,-23.2,0.53459273,0.106173894,0.480574969,-0.686971648
275,691716,830360,-0.676,-0.53,0.527,7.8,-0.8,1,3.5,-4.4,-23.2,0.53459273,0.106173894,0.480574969,-0.686971648
276,693351,830360,-0.668,-0.53,0.539,8,-0.9,1.2,3.5,-4.4,-23.2,0.53459273,0.106357006,0.480300302,-0.687124241
277,697050,830360,-0.66,-0.527,0.539,8.3,-0.9,1.2,2.9,-4.2,-22.3,0.53459273,0.106448561,0.480178228,-0.687215796
278,699196,830370,-0.656,-0.535,0.535,8.8,-1.1,1.3,2.9,-4.2,-22.3,0.534623249,0.106540117,0.480025636,-0.687276833
279,701438,830370,-0.652,-0.535,0.531,9,-1.2,1.1,2.9,-4.2,-22.3,0.534623249,0.106631672,0.479873043,-0.687368389
280,703350,830370,-0.652,-0.543,0.527,9,-1.3,1,2.9,-4.2,-22.3,0.534623249,0.106753746,0.47972045,-0.687459944
281,706766,830370,-0.656,-0.554,0.519,8.9,-1.4,0.6,3.2,-4.4,-22.2,0.534653768,0.106845302,0.479567858,-0.6875515
282,708314,830380,-0.656,-0.562,0.511,8.6,-1.4,0.3,3.2,-4.4,-22.2,0.534653768,0.106906339,0.479415265,-0.687643056
283,711266,830380,-0.66,-0.554,0.515,8.5,-1.1,0.2,3.2,-4.4,-22.2,0.534623249,0.106997894,0.479262673,-0.687704093
284,714200,830380,-0.664,-0.566,0.515,8.4,-0.8,0.2,3.2,-4.4,-22.2,0.534623249,0.10708945,0.479140599,-0.687795648
285,716108,830380,-0.664,-0.566,0.515,8.4,-0.8,0.2,3.2,-4.4,-22.2,0.534623249,0.10708945,0.479140599,-0.687795648
286,718277,830390,-0.668,-0.566,0.515,8.6,-0.1,0.5,3.3,-4.3,-21.9,0.534623249,0.107303079,0.478865932,-0.687978759
287,722373,830390,-0.672,-0.574,0.519,8.8,0,0.7,3.3,-4.3,-21.9,0.53459273,0.107394635,0.478743858,-0.688070315
288,724545,830390,-0.676,-0.57,0.531,8.9,0.2,0.7,3.3,-4.3,-21.9,0.53459273,0.107516709,0.478591266,-0.688131352
289,726136,830390,-0.672,-0.574,0.531,8.9,0.3,0.6,3.3,-4.3,-21.9,0.534562212,0.107638783,0.478469192,-0.688222907
290,728333,830400,-0.672,-0.577,0.535,9,0.4,0.6,3.3,-4.3,-21.9,0.534562212,0.107760857,0.478347118,-0.688314463
291,730789,830400,-0.668,-0.566,0.539,9.3,0.6,0.5,3.3,-4.3,-21.9,0.534531693,0.107882931,0.478194525,-0.688406018
292,734303,830400,-0.668,-0.562,0.539,9.6,0.8,0.5,3.3,-4.3,-21.9,0.534501175,0.108005005,0.478072451,-0.688467055
293,737265,830400,-0.668,-0.566,0.543,10.4,0.9,0.5,3.4,-4.4,-24.9,0.534470656,0.108066042,0.477919858,-0.688619648
294,738809,830410,-0.668,-0.566,0.543,10.4,0.9,0.5,3.4,-4.4,-24.9,0.534440138,0.108218635,0.477767266,-0.688741722
295,741057,830410,-0.668,-0.566,0.543,10.4,0.9,0.5,3.4,-4.4,-24.9,0.534440138,0.108218635,0.477767266,-0.688741722
296,744046,830410,-0.664,-0.558,0.554,11,0.8,0.6,3.4,-4.4,-24.9,0.534379101,0.108493301,0.477462081,-0.688924833
297,745721,830410,-0.664,-0.562,0.55,11.1,0.8,0.8,2.8,-4.3,-26.1,0.534379101,0.108676412,0.477309488,-0.689046907
298,749295,830420,-0.664,-0.562,0.55,11.1,0.9,0.7,2.8,-4.3,-26.1,0.534348582,0.108829005,0.477126377,-0.689138462
299,750802,830420,-0.664,-0.566,0.547,11.1,0.9,0.6,2.8,-4.3,-26.1,0.534318064,0.108981597,0.476973785,-0.689260537
300,753520,830420,-0.668,-0.562,0.547,11.1,1.2,0.6,2.8,-4.3,-26.1,0.534287545,0.10913419,0.476821192,-0.689352092
301,756646,830420,-0.668,-0.57,0.543,11,1.4,0.6,3.1,-4.6,-26.5,0.534257027,0.109286782,0.4766686,-0.689474166
302,758223,830430,-0.668,-0.578,0.547,11,1.7,0.5,3.1,-4.6,-26.5,0.534226508,0.109439375,0.476516007,-0.689565722
303,761033,830430,-0.676,-0.577,0.551,11,2,0.5,3.1,-4.6,-26.5,0.534165471,0.109591968,0.476393933,-0.689687796
304,764055,830430,-0.676,-0.573,0.551,11,2.3,0.4,3.1,-4.6,-26.5,0.534134953,0.109775079,0.47624134,-0.689779351
305,765709,830430,-0.676,-0.57,0.551,11.1,2.7,0.5,2.7,-4.9,-26.6,0.534073916,0.10995819,0.476119266,-0.689870907
306,768299,830440,-0.672,-0.57,0.551,11.2,2.8,0.8,2.7,-4.9,-26.6,0.534043397,0.110141301,0.475966674,-0.689992981
307,770691,830440,-0.668,-0.566,0.554,11.4,2.9,0.9,2.7,-4.9,-26.6,0.53398236,0.110324412,0.475814081,-0.690084536
308,773215,830440,-0.668,-0.566,0.547,11.5,2.8,0.9,2.7,-4.9,-26.6,0.533951842,0.110507523,0.475692007,-0.690176092
309,775976,830440,-0.664,-0.566,0.55,11.9,2.7,0.8,2.7,-4.9,-26.6,0.533921323,0.110690634,0.475539415,-0.690298166
310,778854,830450,-0.66,-0.574,0.546,12.2,2.6,0.6,2.7,-4.9,-26.6,0.533860286,0.110873745,0.475386822,-0.690389721
311,782313,830450,-0.664,-0.57,0.547,12.6,2.8,0.4,2.7,-4.9,-26.6,0.533799249,0.111087374,0.475203711,-0.690511795
312,783617,830450,-0.656,-0.578,0.546,12.9,3.1,0.3,2.7,-4.9,-26.6,0.533738212,0.111270486,0.475051119,-0.690633869
313,786736,830450,-0.66,-0.574,0.539,13.1,3.5,0.1,3.1,-4.7,-24.5,0.533616138,0.111239967,0.474868007,-0.690908536
314,788230,830460,-0.656,-0.578,0.539,13.1,3.5,0.1,3.1,-4.7,-24.5,0.533555101,0.111423078,0.474715415,-0.69103061
315,791249,830460,-0.656,-0.578,0.542,13.3,3.6,0,3.1,-4.7,-24.5,0.533463546,0.111636708,0.474532304,-0.691152684
316,794270,830460,-0.661,-0.582,0.535,13.6,3.7,0,3.1,-4.7,-24.5,0.533402509,0.111850337,0.474379711,-0.691274758
317,795803,830460,-0.684,-0.569,0.512,14,4.1,0.1,3,-4.7,-24.4,0.533341472,0.112094485,0.474227119,-0.691427351
318,798565,830470,-0.688,-0.565,0.512,14.7,4.5,0.2,3,-4.7,-24.4,0.533249916,0.112338633,0.474044008,-0.691549425
319,800780,830470,-0.68,-0.562,0.524,15.4,4.8,0.2,3,-4.7,-24.4,0.533158361,0.112582781,0.473860897,-0.691702017
320,803386,830470,-0.668,-0.562,0.539,16,4.8,0,3,-4.7,-24.4,0.533066805,0.112857448,0.473677786,-0.69185461
321,806693,830470,-0.648,-0.551,0.55,16.3,4.9,-0.3,3.1,-5,-24.5,0.532975249,0.113101596,0.473494675,-0.692007202
322,808344,830480,-0.644,-0.555,0.546,16.5,4.9,-0.2,3.1,-5,-24.5,0.532883694,0.113376263,0.473311563,-0.692190313
323,810948,830480,-0.636,-0.559,0.538,16.3,4.8,0,3.1,-5,-24.5,0.532792138,0.113650929,0.473097934,-0.692342906
324,813215,830480,-0.64,-0.555,0.534,16,4.6,0.2,3.1,-5,-24.5,0.532700583,0.113864559,0.472914823,-0.692495499
325,816650,830480,-0.648,-0.554,0.511,15.6,4.6,0.2,3.4,-5.1,-24.4,0.532609027,0.114139225,0.472731712,-0.692648091
326,818238,830490,-0.652,-0.554,0.523,15.4,4.9,-0.1,3.4,-5.1,-24.4,0.532517472,0.114413892,0.472579119,-0.692770165
327,820802,830490,-0.66,-0.554,0.519,15.4,5.5,-0.7,3.4,-5.1,-24.4,0.532425916,0.11465804,0.472396008,-0.692922758
328,824895,830490,-0.676,-0.55,0.531,15.6,6.2,-1.2,3.4,-5.1,-24.4,0.532303842,0.114932707,0.472243416,-0.693105869
329,827222,830490,-0.68,-0.554,0.539,16,7,-1.4,3.4,-5.1,-24.4,0.532181768,0.115207373,0.472090823,-0.693258461
330,829405,830500,-0.676,-0.554,0.539,16.5,7.6,-1.3,3.4,-5.1,-24.4,0.532029176,0.11548204,0.471938231,-0.693441572
331,831783,830500,-0.668,-0.554,0.535,16.9,7.7,-1.1,3.4,-5.1,-24.4,0.531876583,0.115787225,0.471755119,-0.693594165
332,833861,830500,-0.668,-0.55,0.539,17.2,7.5,-1.1,3.4,-5.1,-24.4,0.531754509,0.11609241,0.471602527,-0.693777276
333,836053,830500,-0.664,-0.554,0.547,17.1,6.8,-1.8,5.2,-5.2,-24.4,0.531571398,0.11630604,0.471419416,-0.693960387
334,838386,830510,-0.664,-0.554,0.547,17.1,6.8,-1.8,5.2,-5.2,-24.4,0.531449324,0.116611225,0.471266823,-0.694143498
335,841123,830510,-0.664,-0.546,0.55,16.6,6.6,-2.2,5.2,-5.2,-24.4,0.531296731,0.116885891,0.471083712,-0.694326609
336,843551,830510,-0.656,-0.554,0.55,16.1,6.6,-2.5,5.2,-5.2,-24.4,0.531144139,0.117160558,0.47093112,-0.69450972
337,847037,830510,-0.656,-0.558,0.554,15.7,6.8,-2.7,5.4,-5,-24.3,0.530991546,0.117404706,0.470778527,-0.694692831
338,849294,830520,-0.66,-0.558,0.554,15.5,7.1,-3,5.4,-5,-24.3,0.530838954,0.117648854,0.470625935,-0.694845424
339,851689,830520,-0.656,-0.566,0.55,15.6,7.4,-3.3,5.4,-5,-24.3,0.530655843,0.117923521,0.470473342,-0.695028535
340,853806,830520,-0.66,-0.57,0.55,15.8,7.6,-3.6,5.4,-5,-24.3,0.53050325,0.118167669,0.470351268,-0.695211646
341,856298,830520,-0.66,-0.578,0.554,16,7.7,-3.9,5.2,-5.5,-24.2,0.530320139,0.118442335,0.470198675,-0.695425275
342,858557,830530,-0.66,-0.574,0.554,16.2,7.8,-4.3,5.2,-5.5,-24.2,0.53010651,0.118717002,0.470046083,-0.695608386
343,861400,830530,-0.664,-0.578,0.547,16.4,7.9,-4.8,5.2,-5.5,-24.2,0.529923399,0.11896115,0.46989349,-0.695822016
344,863643,830530,-0.664,-0.578,0.551,16.9,8.1,-5.1,5.2,-5.5,-24.2,0.529709769,0.119235817,0.469771416,-0.696035646
345,865828,830530,-0.66,-0.574,0.546,17.3,8.2,-5.5,5.2,-5.6,-24.2,0.529496139,0.119510483,0.469588305,-0.696249275
346,868829,830540,-0.664,-0.582,0.551,17.7,8.3,-5.9,5.2,-5.6,-24.2,0.52928251,0.11978515,0.469435713,-0.696462905
347,871092,830540,-0.664,-0.574,0.547,18,8.5,-6.2,5.2,-5.6,-24.2,0.529038362,0.120059816,0.46928312,-0.696707053
348,873382,830540,-0.668,-0.574,0.543,18.1,8.6,-6.6,5.2,-5.6,-24.2,0.528824732,0.120334483,0.469130528,-0.696951201
349,875921,830540,-0.664,-0.574,0.551,18.3,8.8,-6.9,5.2,-5.6,-24.2,0.528580584,0.120609149,0.468977935,-0.697195349
350,879277,830550,-0.66,-0.574,0.546,18.6,8.9,-7.3,5.2,-5.6,-24.2,0.528305918,0.120883816,0.468794824,-0.697439497
351,880800,830550,-0.656,-0.574,0.546,18.9,8.9,-7.8,5.2,-5.6,-24.2,0.528061769,0.121158483,0.468642232,-0.697714164
352,883670,830550,-0.656,-0.574,0.546,19.2,8.9,-8.3,5.2,-5.6,-24.2,0.527787103,0.121433149,0.468489639,-0.69798883
353,886693,830550,-0.653,-0.578,0.542,20.2,9.2,-9.4,3.8,-5.4,-24.3,0.527359844,0.121372112,0.468367565,-0.698385571
354,888175,830560,-0.649,-0.582,0.542,20.2,9.2,-9.4,3.8,-5.4,-24.3,0.527054659,0.121646779,0.468184454,-0.698690756
355,890791,830560,-0.653,-0.586,0.542,20.8,9.2,-10.1,3.8,-5.4,-24.3,0.526749474,0.121921445,0.468001343,-0.698995941
356,893176,830560,-0.653,-0.578,0.542,21.4,9.4,-10.7,3.8,-5.4,-24.3,0.526444288,0.122165593,0.467818232,-0.699301126
357,896524,830560,-0.652,-0.574,0.542,22,9.7,-11.2,3.5,-5.6,-24.4,0.526108585,0.122501297,0.467635121,-0.69963683
358,898181,830570,-0.66,-0.574,0.539,22.7,10,-11.6,3.5,-5.6,-24.4,0.525772881,0.122806482,0.467421491,-0.699972533
359,901835,830570,-0.66,-0.566,0.539,23.3,10.3,-11.9,3.5,-5.6,-24.4,0.525406659,0.123081149,0.467207862,-0.700308237
360,903976,830570,-0.656,-0.57,0.546,24,10.5,-12.3,3.5,-5.6,-24.4,0.525070956,0.123416852,0.466994232,-0.700674459
361,906161,830570,-0.656,-0.566,0.542,24.6,10.7,-12.6,3.5,-5.4,-24.2,0.524674215,0.123722037,0.466780602,-0.701040681
362,909202,830580,-0.648,-0.566,0.546,25.2,11,-12.9,3.5,-5.4,-24.2,0.524307993,0.124057741,0.466566973,-0.701406903
363,910728,830580,-0.648,-0.562,0.55,25.8,11.3,-13.3,3.5,-5.4,-24.2,0.523911252,0.124393445,0.466322825,-0.701803644
364,913253,830580,-0.644,-0.562,0.55,26.6,11.4,-13.7,3.5,-5.4,-24.2,0.523514512,0.124729148,0.466078677,-0.702200385
365,916703,830580,-0.644,-0.562,0.554,27.3,11.4,-14.1,2.3,-5.9,-24.2,0.523117771,0.125064852,0.465834529,-0.702597125
366,918342,830590,-0.644,-0.566,0.554,28,11.4,-14.4,2.3,-5.9,-24.2,0.522690512,0.125431074,0.465590381,-0.703024384
367,922555,830590,-0.64,-0.57,0.558,28.6,11.6,-14.7,2.3,-5.9,-24.2,0.522263253,0.125766778,0.465315714,-0.703451643
368,924739,830590,-0.636,-0.57,0.554,29,11.7,-15,2.3,-5.9,-24.2,0.521835994,0.126133,0.465041047,-0.703878903
369,926205,830590,-0.633,-0.574,0.554,29.5,11.7,-15.3,2.3,-5.9,-24.2,0.521408734,0.126499222,0.464766381,-0.70433668
370,928464,830600,-0.629,-0.575,0.553,30,11.8,-15.5,2.3,-5.9,-24.2,0.520950957,0.126865444,0.464491714,-0.704763939
371,930747,830600,-0.629,-0.578,0.553,30.7,11.8,-15.7,2.3,-5.9,-24.2,0.520493179,0.127231666,0.464186529,-0.705221717
372,933225,830600,-0.629,-0.575,0.557,31.4,11.9,-15.7,2.3,-5.9,-24.2,0.52006592,0.127597888,0.463881344,-0.705710013
373,936675,830600,-0.621,-0.583,0.561,32.2,12.1,-15.7,1.8,-6,-23.7,0.519394513,0.127414777,0.463606677,-0.706411939
374,938229,830610,-0.617,-0.579,0.557,33.1,12.5,-15.6,1.8,-6,-23.7,0.518936735,0.127842036,0.463270974,-0.706869716
375,940715,830610,-0.621,-0.575,0.561,33.9,12.9,-15.5,1.8,-6,-23.7,0.518478957,0.128269295,0.46293527,-0.707358013
376,944173,830610,-0.617,-0.571,0.561,34.7,13.4,-15.4,1.8,-6,-23.7,0.517990661,0.128696554,0.462599567,-0.707846309
377,945715,830610,-0.621,-0.571,0.561,35.3,13.7,-15.3,2.3,-5.9,-23.7,0.517532884,0.129123814,0.462263863,-0.708334605
378,948254,830620,-0.621,-0.571,0.561,35.7,14,-15.1,2.3,-5.9,-23.7,0.517044588,0.129642628,0.461897641,-0.708822901
379,951698,830620,-0.617,-0.567,0.561,35.8,14.2,-14.9,2.3,-5.9,-23.7,0.516556291,0.130100406,0.461561937,-0.709311197
380,953283,830620,-0.616,-0.563,0.565,35.8,14.4,-14.7,2.3,-5.9,-23.7,0.516098514,0.130588702,0.461195715,-0.709799493
381,955716,830620,-0.616,-0.563,0.561,35.7,14.7,-14.5,2.1,-6.1,-24.2,0.515610218,0.131076998,0.460860012,-0.71028779
382,959218,830630,-0.62,-0.563,0.565,35.7,15,-14.4,2.1,-6.1,-24.2,0.51515244,0.131565294,0.460524308,-0.710776086
383,960756,830630,-0.62,-0.563,0.569,35.6,15.1,-14.3,2.1,-6.1,-24.2,0.514664144,0.132053591,0.460158086,-0.711233863
384,963356,830630,-0.62,-0.559,0.565,35.4,15.3,-14.4,2.1,-6.1,-24.2,0.514175848,0.132541887,0.459822382,-0.711722159
385,966721,830630,-0.624,-0.559,0.569,35.2,15.6,-14.4,3.5,-6.4,-23.9,0.513687551,0.133030183,0.459517197,-0.712179937
386,968248,830640,-0.616,-0.555,0.569,34.9,15.8,-14.4,3.5,-6.4,-23.9,0.513229774,0.133518479,0.459181494,-0.712668233
387,970761,830640,-0.616,-0.559,0.565,34.6,16.1,-14.4,3.5,-6.4,-23.9,0.512741478,0.134006775,0.458876308,-0.713126011
388,974188,830640,-0.62,-0.555,0.561,34.3,16.5,-14.5,3.5,-6.4,-23.9,0.512222663,0.13452559,0.458571123,-0.713583789
389,975989,830640,-0.62,-0.559,0.557,34.1,17,-14.7,4.9,-8.3,-23.6,0.511734367,0.134983367,0.458265938,-0.714041566
390,978273,830650,-0.616,-0.563,0.557,33.8,17.5,-15.1,4.9,-8.3,-23.6,0.511215552,0.135532701,0.457960753,-0.714499344
391,980811,830650,-0.62,-0.563,0.553,33.5,17.8,-15.5,4.9,-8.3,-23.6,0.510696738,0.136020997,0.457686087,-0.714957121
392,984213,830650,-0.625,-0.575,0.542,33,18.1,-16.1,4.9,-8.3,-23.6,0.510177923,0.136509293,0.457441939,-0.715384381
393,985731,830650,-0.621,-0.583,0.545,32.6,18.3,-16.6,4.9,-5.3,-23.3,0.509384442,0.1363567,0.457258827,-0.716086306
394,988306,830660,-0.621,-0.583,0.545,32.3,18.7,-17.3,4.9,-5.3,-23.3,0.508835108,0.136814478,0.457014679,-0.716574602
395,991704,830660,-0.617,-0.591,0.534,32.1,19.3,-18.1,4.9,-5.3,-23.3,0.508255257,0.137302774,0.456770531,-0.71703238
396,993229,830660,-0.621,-0.594,0.545,32.1,19.7,-19.1,4.9,-5.3,-23.3,0.507644887,0.13779107,0.456556902,-0.717490158
397,995724,830660,-0.617,-0.594,0.541,32.2,20,-20.4,4.9,-5.9,-23.5,0.507034516,0.138248848,0.456343272,-0.717978454
398,999237,830670,-0.617,-0.587,0.541,32.4,20.3,-21.7,4.9,-5.9,-23.5,0.506393628,0.138706626,0.456129643,-0.718497269
399,1000712,830670,-0.613,-0.583,0.545,32.5,20.7,-23,4.9,-5.9,-23.5,0.505722221,0.139164403,0.455916013,-0.719016083
400,1003199,830670,-0.609,-0.579,0.549,32.9,21.3,-24.3,4.9,-5.9,-23.5,0.505050813,0.139622181,0.455702383,-0.719534898
401,1006768,830670,-0.609,-0.567,0.549,33.4,21.9,-25.4,5.4,-5.5,-23.2,0.504318369,0.140079958,0.455488754,-0.720084231
402,1008222,830680,-0.608,-0.559,0.557,34,22.4,-26.5,5.4,-5.5,-23.2,0.503585925,0.140537736,0.455275124,-0.720633564
403,1010740,830680,-0.608,-0.54,0.572,34.5,22.8,-27.3,5.4,-5.5,-23.2,0.502822962,0.140995514,0.455061495,-0.721213416
404,1014264,830680,-0.608,-0.536,0.572,35,23.3,-28,5.4,-5.5,-23.2,0.502029481,0.14148381,0.454878384,-0.721793268
405,1015703,830680,-0.612,-0.524,0.576,35.3,24,-28.5,5.5,-5.9,-23.4,0.501236,0.141972106,0.454664754,-0.722373119
406,1018542,830690,-0.608,-0.516,0.576,35.4,24.8,-28.8,5.5,-5.9,-23.4,0.500412,0.142460402,0.454451125,-0.722983489
407,1020772,830690,-0.604,-0.508,0.576,35.6,25.6,-29.1,5.5,-5.9,-23.4,0.499588,0.142948698,0.454268014,-0.723563341
408,1023380,830690,-0.604,-0.508,0.576,35.7,26.2,-29.4,5.5,-5.9,-23.4,0.498764,0.143467513,0.454084902,-0.724173711
409,1026780,830690,-0.6,-0.501,0.572,35.8,26.7,-29.8,5.2,-7.3,-23.3,0.497909482,0.143986328,0.453901791,-0.724753563
410,1028278,830700,-0.596,-0.497,0.576,36,27.1,-30.2,5.2,-7.3,-23.3,0.497054964,0.144505142,0.45371868,-0.725363933
411,1030831,830700,-0.596,-0.501,0.58,36.2,27.5,-30.6,5.2,-7.3,-23.3,0.496169927,0.145023957,0.453535569,-0.725974303
412,1034356,830700,-0.591,-0.493,0.58,36.5,28.1,-30.9,5.2,-7.3,-23.3,0.49528489,0.14557329,0.453352458,-0.726554155
413,1035763,830700,-0.592,-0.505,0.564,36.9,28.8,-30.9,5.1,-8,-23.2,0.494430372,0.145939512,0.452955718,-0.727347636
414,1038300,830710,-0.592,-0.501,0.568,37.4,29.4,-30.8,5.1,-8,-23.2,0.493545335,0.146488845,0.452772607,-0.727958007
415,1041734,830710,-0.592,-0.505,0.568,37.8,30,-30.7,5.1,-8,-23.2,0.49262978,0.147068697,0.452589496,-0.728568377
416,1043272,830710,-0.592,-0.501,0.56,38,30.6,-30.6,5.1,-8,-23.2,0.491714225,0.147679067,0.452406384,-0.729148228
417,1045794,830710,-0.592,-0.501,0.552,37.9,31.4,-30.3,5.4,-9.3,-22.9,0.490798669,0.148258919,0.452253792,-0.729758599
418,1049236,830720,-0.596,-0.508,0.545,37.7,32.2,-30,5.4,-9.3,-22.9,0.489883114,0.148899808,0.452101199,-0.73033845
419,1050737,830720,-0.596,-0.505,0.533,37.4,33,-29.7,5.4,-9.3,-22.9,0.488967559,0.149540696,0.451948607,-0.730918302
420,1053794,830720,-0.596,-0.509,0.525,36.9,33.6,-29.6,5.4,-9.3,-22.9,0.488021485,0.150151067,0.451796014,-0.731498154
421,1056062,830720,-0.604,-0.504,0.521,36.6,34,-29.6,5.8,-10.1,-23,0.48710593,0.150791955,0.451643422,-0.732078005
422,1058281,830730,-0.6,-0.508,0.502,36.3,34.3,-29.8,5.8,-10.1,-23,0.486159856,0.151432844,0.451551866,-0.732627338
423,1060881,830730,-0.608,-0.508,0.498,36.3,34.6,-30.1,5.8,-10.1,-23,0.485213782,0.152104251,0.451460311,-0.733176672
424,1064342,830730,-0.608,-0.504,0.494,36.3,35,-30.5,5.8,-10.1,-23,0.484267708,0.15274514,0.451338237,-0.733756523
425,1065932,830730,-0.616,-0.504,0.487,36.3,35.5,-30.8,5.9,-10.5,-23,0.483291116,0.153386029,0.451246681,-0.734305857
426,1068859,830740,-0.612,-0.5,0.482,36.3,36.1,-31,5.9,-10.5,-23,0.482314524,0.154026917,0.451124607,-0.734885708
427,1071053,830740,-0.624,-0.492,0.483,36.2,36.8,-31.1,5.9,-10.5,-23,0.481337931,0.154698325,0.45106357,-0.735435041
428,1074774,830740,-0.624,-0.488,0.475,36,37.3,-31.3,5.9,-10.5,-23,0.480361339,0.155369732,0.450972015,-0.735984375
429,1076835,830740,-0.628,-0.484,0.479,35.8,37.8,-31.4,6.5,-6,-21.7,0.479354228,0.156041139,0.450880459,-0.736564226
430,1078284,830750,-0.628,-0.488,0.471,35.8,38.2,-31.7,6.5,-6,-21.7,0.478347118,0.156712546,0.450819422,-0.737113559
431,1081070,830750,-0.628,-0.484,0.479,35.8,38.5,-31.9,6.5,-6,-21.7,0.477340007,0.157414472,0.450758385,-0.737662893
432,1083491,830750,-0.636,-0.492,0.483,35.7,38.9,-32.3,6.5,-6,-21.7,0.476302377,0.158085879,0.450697348,-0.738212226
433,1085636,830750,-0.636,-0.5,0.483,35.4,39.1,-32.7,6.7,-8.9,-24,0.47523423,0.158818323,0.450788903,-0.738700522
434,1088791,830760,-0.64,-0.504,0.479,34.9,39.3,-33.3,6.7,-8.9,-24,0.4741966,0.159489731,0.450727866,-0.739249855
435,1091092,830760,-0.64,-0.512,0.479,34.3,39.5,-33.8,6.7,-8.9,-24,0.473128452,0.160161138,0.450727866,-0.739799188
436,1093125,830760,-0.644,-0.515,0.483,33.5,39.8,-34.7,6.7,-8.9,-24,0.472060305,0.160802026,0.450697348,-0.740348521
437,1096074,830760,-0.652,-0.511,0.476,32.6,40.2,-35.5,7,-8.2,-23.8,0.470992157,0.161442915,0.450727866,-0.740897855
438,1099869,830770,-0.656,-0.507,0.484,31.8,40.5,-36.4,7,-8.2,-23.8,0.469862972,0.162053285,0.450758385,-0.741447188
439,1101648,830770,-0.664,-0.503,0.488,30.9,41,-37.3,7,-8.2,-23.8,0.468764306,0.162663656,0.450788903,-0.741966002
440,1103826,830770,-0.663,-0.487,0.503,30.2,41.5,-38.1,7,-8.2,-23.8,0.467635121,0.163274026,0.450880459,-0.742515336
441,1105978,830770,-0.667,-0.483,0.515,29.9,41.9,-38.6,6.9,-7.3,-23.7,0.466475417,0.163884396,0.450941496,-0.743064669
442,1108552,830780,-0.667,-0.475,0.515,29.7,42.3,-38.9,6.9,-7.3,-23.7,0.465315714,0.164494766,0.451033052,-0.743583483
443,1110801,830780,-0.667,-0.468,0.523,29.9,42.8,-39.2,6.9,-7.3,-23.7,0.464156011,0.165105136,0.451124607,-0.744132817
444,1114400,830780,-0.675,-0.463,0.535,30.4,43.3,-39.5,6.9,-7.3,-23.7,0.462965789,0.165715506,0.451216163,-0.74468215
445,1116304,830780,-0.675,-0.463,0.543,31.3,43.8,-39.7,7.5,-6.9,-23.7,0.461775567,0.166356395,0.4512772,-0.745231483
446,1118814,830790,-0.679,-0.463,0.547,32.4,44.1,-39.7,7.5,-6.9,-23.7,0.460585345,0.167027802,0.451338237,-0.745780816
447,1121016,830790,-0.675,-0.467,0.547,33.3,44.4,-39.6,7.5,-6.9,-23.7,0.459395123,0.16769921,0.451399274,-0.746330149
448,1124445,830790,-0.687,-0.483,0.547,34.1,44.6,-39.6,7.5,-6.9,-23.7,0.458174383,0.168370617,0.451429792,-0.746910001
449,1126150,830790,-0.683,-0.483,0.547,34.8,44.9,-39.6,7.7,-8.5,-21.8,0.456953642,0.169072542,0.451460311,-0.747489853
450,1128167,830800,-0.679,-0.487,0.547,35.3,45.2,-39.5,7.7,-8.5,-21.8,0.455732902,0.16974395,0.451490829,-0.748069704
451,1131142,830800,-0.691,-0.502,0.535,35.8,45.3,-39.3,7.7,-8.5,-21.8,0.454512162,0.170476394,0.451490829,-0.748649556
452,1134034,830800,-0.691,-0.502,0.524,36.1,45.3,-38.9,7.7,-8.5,-21.8,0.453291421,0.17117832,0.451490829,-0.749198889
453,1136271,830800,-0.695,-0.506,0.508,36.3,45.1,-38.7,8.1,-8.7,-22.7,0.452131718,0.172002319,0.451429792,-0.749778741
454,1138501,830810,-0.695,-0.506,0.508,36.3,44.8,-38.4,8.1,-8.7,-22.7,0.450941496,0.172704245,0.451399274,-0.750328074
455,1140746,830810,-0.703,-0.498,0.504,36.4,44.6,-38.3,8.1,-8.7,-22.7,0.449690237,0.173406171,0.451399274,-0.750907926
456,1143471,830810,-0.711,-0.494,0.497,36.6,44.7,-38.2,8.1,-8.7,-22.7,0.448530534,0.174138615,0.451368755,-0.751457259
457,1147512,830810,-0.715,-0.486,0.489,36.7,44.8,-38.1,8.1,-8.7,-22.6,0.447309793,0.174840541,0.451368755,-0.752037111
458,1148163,830820,-0.719,-0.486,0.474,36.8,44.8,-37.9,8.1,-8.7,-22.6,0.446119572,0.175572985,0.451338237,-0.752586444
459,1150789,830820,-0.715,-0.471,0.462,37,44.6,-37.9,8.1,-8.7,-22.6,0.444898831,0.176305429,0.451307718,-0.753166295
460,1154200,830820,-0.723,-0.462,0.462,37.1,44.2,-37.7,8.1,-8.7,-22.6,0.443708609,0.176976836,0.4512772,-0.753715629
461,1155704,830820,-0.723,-0.459,0.442,36.9,43.9,-37.4,8.5,-8.6,-22.2,0.442518387,0.177709281,0.451246681,-0.754264962
462,1158297,830830,-0.727,-0.455,0.442,36.6,43.5,-37.4,8.5,-8.6,-22.2,0.441328166,0.178411206,0.451185644,-0.754814295
463,1161681,830830,-0.734,-0.443,0.419,36.3,43.2,-37.3,8.5,-8.6,-22.2,0.440137944,0.179113132,0.451155126,-0.755363628
464,1163190,830830,-0.734,-0.443,0.419,36,42.9,-37.2,8.5,-8.6,-22.2,0.43897824,0.179815058,0.451124607,-0.755912961
465,1166110,830830,-0.742,-0.442,0.415,35.5,42.7,-37.1,8.8,-8.7,-21.3,0.437788018,0.180486465,0.451094089,-0.756462294
466,1169138,830840,-0.746,-0.434,0.423,34.9,42.5,-37.1,8.8,-8.7,-21.3,0.436628315,0.181157872,0.45106357,-0.756981109
467,1170635,830840,-0.75,-0.434,0.423,34.3,42.3,-37,8.8,-8.7,-21.3,0.435468612,0.181829279,0.45106357,-0.757499924
468,1173631,830840,-0.75,-0.442,0.439,33.5,42.1,-36.9,8.8,-8.7,-21.3,0.434308908,0.182470168,0.451033052,-0.758018738
469,1176532,830840,-0.754,-0.442,0.447,32.6,41.6,-36.9,9.4,-8.8,-23.5,0.433149205,0.183111057,0.451033052,-0.758537553
470,1178564,830850,-0.758,-0.454,0.451,31.5,41.1,-36.9,9.4,-8.8,-23.5,0.43202002,0.183721427,0.45106357,-0.759025849
471,1181575,830850,-0.758,-0.466,0.467,30.3,40.7,-37,9.4,-8.8,-23.5,0.430860317,0.184301279,0.451094089,-0.759514145
472,1183223,830850,-0.758,-0.469,0.475,29.1,40.4,-37.2,9.4,-8.8,-23.5,0.429731132,0.18488113,0.451124607,-0.759971923
473,1185976,830850,-0.758,-0.477,0.49,27.9,39.9,-37.3,9.1,-9.3,-20.1,0.42875454,0.186010315,0.4512772,-0.760155034
474,1189043,830860,-0.766,-0.481,0.49,26.7,39.5,-37.6,9.1,-9.3,-20.1,0.427655873,0.18652913,0.451368755,-0.760612812
475,1190693,830860,-0.766,-0.481,0.494,25.6,39.2,-38,9.1,-9.3,-20.1,0.426526688,0.187047945,0.451460311,-0.761070589
476,1193552,830860,-0.77,-0.481,0.494,24.5,38.8,-38.3,9.1,-9.3,-20.1,0.425397504,0.187536241,0.451551866,-0.761497848
477,1195820,830860,-0.766,-0.489,0.506,23.7,38.4,-38.7,9.7,-8.9,-19.7,0.424298837,0.188024537,0.451643422,-0.761955626
478,1198254,830870,-0.774,-0.493,0.506,23.1,38.1,-39,9.7,-8.9,-19.7,0.423169652,0.188482315,0.451796014,-0.762382885
479,1200618,830870,-0.778,-0.489,0.51,22.9,37.8,-39.2,9.7,-8.9,-19.7,0.422040468,0.188940092,0.451948607,-0.762810144
480,1203880,830870,-0.778,-0.493,0.514,23.1,37.5,-39.4,9.7,-8.9,-19.7,0.420911283,0.18939787,0.452070681,-0.763237403
481,1205822,830870,-0.778,-0.496,0.53,23.6,37.2,-39.6,10.2,-8.9,-19.6,0.419782098,0.189855647,0.452162236,-0.763695181
482,1208291,830880,-0.782,-0.5,0.542,24.3,37,-39.7,10.2,-8.9,-19.6,0.418652913,0.190282907,0.452253792,-0.76412244
483,1212287,830880,-0.786,-0.504,0.542,25.4,36.7,-39.6,10.2,-8.9,-19.6,0.417523728,0.190740684,0.452345347,-0.764610736
484,1213746,830880,-0.79,-0.5,0.55,26.5,36.5,-39.5,10.2,-8.9,-19.6,0.416394543,0.191198462,0.452406384,-0.765068514
485,1215855,830880,-0.802,-0.5,0.558,27.8,36.3,-39.2,10.2,-9.1,-20.1,0.415265358,0.191686758,0.452436903,-0.76555681
486,1218184,830890,-0.802,-0.496,0.558,29.1,36,-38.8,10.2,-9.1,-20.1,0.414136174,0.192175054,0.452436903,-0.766045106
487,1221202,830890,-0.806,-0.492,0.554,30.3,35.7,-38.4,10.2,-9.1,-20.1,0.413037507,0.19266335,0.452406384,-0.766533403
488,1223160,830890,-0.814,-0.488,0.554,31.3,35.3,-38,10.2,-9.1,-20.1,0.411908322,0.193151646,0.452345347,-0.767021699
489,1226166,830890,-0.826,-0.476,0.539,32,34.8,-37.5,10.5,-9.2,-22,0.410809656,0.193639943,0.45228431,-0.767540513
490,1228468,830900,-0.83,-0.476,0.539,32.7,34.2,-36.9,10.5,-9.2,-22,0.40971099,0.194158757,0.452192755,-0.768059328
491,1231849,830900,-0.829,-0.464,0.535,33.4,33.5,-36.4,10.5,-9.2,-22,0.408612323,0.194647053,0.452101199,-0.768547624
492,1234730,830900,-0.841,-0.452,0.531,34,32.9,-35.9,10.5,-9.2,-22,0.407544176,0.195165868,0.451979125,-0.769066439
493,1235665,830900,-0.845,-0.428,0.52,34.4,32.3,-35.5,10.6,-9.3,-21.4,0.406659139,0.195989868,0.451734977,-0.769493698
494,1238154,830910,-0.845,-0.428,0.52,34.5,31.6,-35,10.6,-9.3,-21.4,0.405590991,0.196478164,0.451582385,-0.770012513
495,1241120,830910,-0.849,-0.416,0.512,34.3,30.8,-34.8,10.6,-9.3,-21.4,0.404553362,0.19696646,0.451429792,-0.770500809
496,1244205,830910,-0.856,-0.396,0.497,33.7,29.9,-34.6,10.6,-9.3,-21.4,0.403546251,0.197424238,0.4512772,-0.771019623
497,1245929,830910,-0.864,-0.396,0.493,32.7,29.1,-34.6,11.1,-9.3,-21.8,0.40253914,0.197851497,0.451124607,-0.771538438
498,1248178,830920,-0.872,-0.384,0.481,31.6,28.3,-34.4,11.1,-9.3,-21.8,0.401532029,0.198278756,0.451002533,-0.772026734
499,1251610,830920,-0.872,-0.38,0.481,30.4,27.5,-34.3,11.1,-9.3,-21.8,0.400555437,0.198675497,0.450880459,-0.772484512
500,1253125,830920,-0.88,-0.376,0.481,29.1,26.6,-34.3,11.1,-9.3,-21.8,0.399578845,0.199041719,0.450758385,-0.772972808
501,1255990,830920,-0.884,-0.368,0.478,27.9,25.9,-34.3,11.4,-8.9,-21.6,0.398632771,0.199377422,0.450666829,-0.773430586
502,1258343,830930,-0.888,-0.364,0.486,26.5,25,-34.4,11.4,-8.9,-21.6,0.397686697,0.199682608,0.450575274,-0.773888363
503,1261423,830930,-0.899,-0.352,0.482,25,24.3,-34.7,11.4,-8.9,-21.6,0.396740623,0.199987793,0.450514237,-0.774315622
504,1263659,830930,-0.915,-0.336,0.49,23.3,23.4,-35,11.4,-8.9,-21.6,0.395825068,0.200231941,0.450483718,-0.774742882
505,1265951,830930,-0.923,-0.332,0.502,21.8,22.5,-35.4,11.2,-9.7,-22.1,0.394909513,0.200415052,0.4504532,-0.775170141
506,1268124,830940,-0.927,-0.328,0.506,20.3,21.3,-35.8,11.2,-9.7,-22.1,0.393993957,0.200628681,0.4504532,-0.7755974
507,1270646,830940,-0.934,-0.316,0.53,19.5,19.9,-36.3,11.2,-9.7,-22.1,0.393108921,0.200781274,0.4504532,-0.77599414
508,1273219,830940,-0.934,-0.316,0.549,19.1,18.5,-36.5,11.2,-9.7,-22.1,0.392223884,0.200903348,0.4504532,-0.7764214
509,1277155,830940,-0.938,-0.32,0.565,19.1,17,-36.6,11.6,-9.3,-20.6,0.391338847,0.200994903,0.4504532,-0.776848659
510,1278518,830950,-0.946,-0.316,0.581,19.1,15.8,-36.4,11.6,-9.3,-20.6,0.390484329,0.20105594,0.450422681,-0.777275918
511,1281686,830950,-0.958,-0.3,0.597,19,14.6,-36.2,11.6,-9.3,-20.6,0.38962981,0.201116977,0.450361644,-0.777703177
512,1283190,830950,-0.954,-0.296,0.604,18.4,13.5,-36.2,11.6,-9.3,-20.6,0.388805811,0.201147496,0.450331126,-0.778130436
513,1285729,830950,-0.969,-0.28,0.624,17.7,12.5,-36.4,12.2,-9.3,-20.5,0.387981811,0.201147496,0.450300607,-0.778557695
514,1289355,830960,-0.969,-0.28,0.624,16.7,11.4,-36.6,12.2,-9.3,-20.5,0.38718833,0.201116977,0.450270089,-0.778984954
515,1291561,830960,-0.984,-0.252,0.632,15.7,10.4,-36.8,12.2,-9.3,-20.5,0.386394848,0.201086459,0.45023957,-0.779412214
516,1293740,830960,-1,-0.244,0.648,14.6,9.6,-36.8,12.2,-9.3,-20.5,0.385601367,0.200994903,0.45023957,-0.779839473
517,1295821,830960,-1.016,-0.228,0.657,13.3,8.9,-36.6,12.2,-9.2,-20.3,0.384838404,0.200903348,0.45023957,-0.780236213
518,1299162,830970,-1.035,-0.2,0.661,12.1,8.2,-36.1,12.2,-9.2,-20.3,0.384075442,0.200781274,0.450270089,-0.780602435
519,1301443,830970,-1.047,-0.18,0.665,10.8,7.5,-35.5,12.2,-9.2,-20.3,0.383342998,0.2006592,0.450300607,-0.780999176
520,1303677,830970,-1.05,-0.156,0.665,9.4,6.6,-34.9,12.2,-9.2,-20.3,0.382641072,0.200506607,0.450361644,-0.78133488
521,1306866,830970,-1.054,-0.132,0.661,7.7,5.6,-34.4,12.4,-9,-20.4,0.381969665,0.200323496,0.450422681,-0.781670583
522,1308273,830980,-1.065,-0.093,0.654,5.8,4.3,-34,12.4,-9,-20.4,0.381328776,0.200140385,0.450514237,-0.782006287
523,1310655,830980,-1.073,-0.081,0.65,3.8,2.8,-33.3,12.4,-9,-20.4,0.380718406,0.199865719,0.450605792,-0.782311472
524,1313252,830980,-1.081,-0.069,0.654,1.6,1.4,-32.5,12.4,-9,-20.4,0.380138554,0.199591052,0.450727866,-0.782586138
525,1315769,830980,-1.084,-0.045,0.646,-0.5,0,-31.7,12.6,-8.8,-20.7,0.379589221,0.199285867,0.450880459,-0.782860805
526,1319008,830990,-1.1,-0.017,0.666,-2.6,-1.2,-30.8,12.6,-8.8,-20.7,0.379100925,0.198950163,0.45106357,-0.783074435
527,1321172,830990,-1.116,-0.005,0.659,-4.7,-2.6,-29.8,12.6,-8.8,-20.7,0.378612629,0.198553423,0.451246681,-0.783288064
528,1323478,830990,-1.131,0.006,0.659,-6.5,-4.2,-28.6,12.6,-8.8,-20.7,0.378215888,0.198156682,0.451429792,-0.783471175
529,1325706,830990,-1.151,0.01,0.663,-8.3,-5.8,-27.4,10.4,-9.2,-20.5,0.377819147,0.197698904,0.451643422,-0.783654286
530,1328427,831000,-1.187,0.011,0.668,-9.9,-7.8,-26.1,10.4,-9.2,-20.5,0.377513962,0.197241127,0.451857051,-0.783806879
531,1330644,831000,-1.21,0.02,0.688,-11.3,-10,-24.7,10.4,-9.2,-20.5,0.377239296,0.196722312,0.452070681,-0.783928953
532,1334821,831000,-1.246,0.028,0.713,-12.6,-12.5,-23.2,10.4,-9.2,-20.5,0.376995148,0.196172979,0.452314829,-0.784051027
533,1337151,831000,-1.289,0.053,0.753,-13.8,-15.2,-22,13.9,-8.6,-20.2,0.376842555,0.195593127,0.45249794,-0.784173101
534,1339254,831010,-1.308,0.065,0.773,-15.1,-18.1,-21.1,13.9,-8.6,-20.2,0.376720481,0.194952239,0.45271157,-0.784264657
535,1340898,831010,-1.324,0.085,0.785,-16.4,-21.2,-20.6,13.9,-8.6,-20.2,0.376659444,0.194250313,0.452894681,-0.784356212
536,1343262,831010,-1.339,0.105,0.793,-17.7,-24.7,-20.6,13.9,-8.6,-20.2,0.376628925,0.193456832,0.453077792,-0.784478286
537,1345778,831010,-1.362,0.141,0.825,-18.2,-28.6,-20.7,13.9,-8.7,-20.2,0.376628925,0.192602313,0.453260903,-0.784569842
538,1349963,831020,-1.378,0.169,0.841,-17.4,-32.6,-20.4,13.9,-8.7,-20.2,0.376659444,0.191717277,0.453382977,-0.784722434
539,1350822,831020,-1.393,0.185,0.857,-15,-36.9,-19.6,13.9,-8.7,-20.2,0.376750999,0.190771203,0.453413495,-0.784875027
540,1353342,831020,-1.405,0.213,0.873,-11.1,-40.9,-18.5,13.9,-8.7,-20.2,0.376903592,0.18979461,0.45332194,-0.785088656
541,1355703,831020,-1.424,0.272,0.908,-6,-44.9,-17.3,14,-8.5,-20.4,0.377056185,0.1887875,0.453138829,-0.785363323
542,1359199,831030,-1.447,0.297,0.92,-0.3,-48.8,-15.7,14,-8.5,-20.4,0.377269814,0.187810907,0.452803125,-0.785699026
543,1360837,831030,-1.462,0.313,0.948,5.5,-52.7,-13.8,14,-8.5,-20.4,0.377544481,0.186803797,0.452345347,-0.786065249
544,1363359,831030,-1.466,0.348,0.964,11.1,-56.4,-11.5,14,-8.5,-20.4,0.377849666,0.185827204,0.451734977,-0.786492508
545,1366745,831030,-1.493,0.396,1.003,16.3,-59.8,-9.3,13.3,-9.1,-20.8,0.378215888,0.184789575,0.451002533,-0.786980804
546,1368289,831040,-1.512,0.424,1.027,21,-63.2,-7.4,13.3,-9.1,-20.8,0.378612629,0.183812983,0.450148015,-0.787499619
547,1370913,831040,-1.531,0.468,1.047,24.8,-66.2,-5.9,13.3,-9.1,-20.8,0.379070406,0.18283639,0.449201941,-0.78807947
548,1373217,831040,-1.553,0.563,1.094,27.1,-68.9,-4.7,13.3,-9.1,-20.8,0.379558702,0.181829279,0.448164312,-0.788659322
549,1377261,831040,-1.568,0.618,1.114,28.2,-71.1,-4.1,11.3,-8.8,-20.7,0.380077517,0.180822169,0.447096164,-0.789239174
550,1379191,831050,-1.591,0.638,1.15,28.2,-73,-4.1,11.3,-8.8,-20.7,0.380596332,0.179754021,0.446028016,-0.789819025
551,1381502,831050,-1.61,0.686,1.162,28.1,-75.1,-4.8,11.3,-8.8,-20.7,0.381145665,0.178624836,0.44492935,-0.790429395
552,1383702,831050,-1.632,0.828,1.154,27.9,-77.8,-7.7,11.3,-8.8,-20.7,0.381633961,0.177465133,0.443830683,-0.791070284
553,1385826,831050,-1.664,0.864,1.089,27.3,-81.4,-13,10.5,-9.1,-20.9,0.382091739,0.176152837,0.442732017,-0.79177221
554,1388529,831060,-1.703,0.892,1.043,23.7,-84.6,-20.4,10.5,-9.1,-20.9,0.382488479,0.174687948,0.441694388,-0.792474136
555,1390704,831060,-1.726,0.963,1.027,15.4,-85,-28.8,10.5,-9.1,-20.9,0.382732627,0.173070467,0.440839869,-0.79320658
556,1394885,831060,-1.625,1.28,1.161,3.5,-81.8,-37.9,10.5,-9.1,-20.9,0.382854701,0.171300394,0.440229499,-0.793847468
557,1397172,831060,-1.555,1.494,1.076,-7.5,-78.5,-45.4,9.6,-9,-20.7,0.382854701,0.169469283,0.439893796,-0.794457839
558,1399406,831070,-1.709,1.258,1.096,-13.7,-78.6,-44.6,9.6,-9,-20.7,0.38288522,0.167546617,0.439619129,-0.794976653
559,1401680,831070,-1.772,1.303,1.086,-14.4,-82.9,-32,9.6,-9,-20.7,0.383159886,0.165684988,0.439313944,-0.795403912
560,1403864,831070,-1.78,1.307,1.086,-12.4,-88.8,-11.3,9.6,-9,-20.7,0.383861812,0.163914914,0.438825648,-0.795709098
561,1406073,831070,-1.784,1.291,1.087,-10.7,-94.2,8.2,7.6,-8.8,-20.6,0.384960479,0.162266915,0.438184759,-0.795892209
562,1408346,831080,-1.812,1.26,1.068,-11.3,-98.8,20.7,7.6,-8.8,-20.6,0.386303293,0.160679952,0.437482833,-0.795953246
563,1410748,831080,-1.866,1.175,1.011,-14.3,-102.6,26.6,7.6,-8.8,-20.6,0.3877987,0.159031953,0.436750389,-0.795953246
564,1414161,831080,-1.894,1.12,0.977,-19.2,-106.2,28.4,7.6,-8.8,-20.6,0.389355144,0.157292398,0.4361095,-0.795892209
565,1416222,831080,-1.919,1.062,0.954,-24.8,-109.7,28.8,6,-9.3,-20.9,0.391003143,0.155430769,0.43549913,-0.795770135
566,1418487,831090,-1.956,0.996,0.928,-29.8,-113.3,29.2,6,-9.3,-20.9,0.392681661,0.153477584,0.434949797,-0.795617542
567,1421671,831090,-2.022,0.868,0.879,-33.7,-117.4,30.2,6,-9.3,-20.9,0.394421216,0.151463363,0.434430982,-0.795434431
568,1423799,831090,-2.055,0.817,0.861,-36.2,-121.6,31.7,6,-9.3,-20.9,0.396252327,0.149327067,0.433912168,-0.795220801
569,1426076,831090,-2.091,0.775,0.831,-37.4,-125.8,33,10,-10.1,-21.2,0.398144475,0.147129734,0.433362835,-0.794976653
570,1429145,831100,-2.116,0.717,0.828,-37.2,-130,33.6,10,-10.1,-21.2,0.400067141,0.144871364,0.432752464,-0.794763024
571,1430703,831100,-2.188,0.679,0.775,-35.5,-134,33,10,-10.1,-21.2,0.402020325,0.142551958,0.432081057,-0.794549394
572,1434331,831100,-2.22,0.66,0.776,-32,-137.9,31.4,10,-10.1,-21.2,0.403942991,0.140171514,0.431348613,-0.794396802
573,1435912,831100,-2.288,0.654,0.782,-26.5,-141.3,29.1,5.7,-8.2,-21.1,0.405865658,0.137760552,0.430463576,-0.794305246
574,1438413,831110,-2.331,0.666,0.767,-19.2,-144.2,26.5,5.7,-8.2,-21.1,0.407727287,0.13534959,0.429425947,-0.794335765
575,1441815,831110,-2.379,0.675,0.741,-10,-146.3,23.9,5.7,-8.2,-21.1,0.409558397,0.132938627,0.428205206,-0.794457839
576,1443324,831110,-2.427,0.684,0.692,0.2,-147.9,21.2,5.7,-8.2,-21.1,0.411297952,0.130588702,0.426831874,-0.794701987
577,1446304,831110,-2.455,0.681,0.645,11.6,-149.7,18.6,5.3,-8.4,-21.1,0.41297647,0.128269295,0.425244911,-0.79503769
578,1449344,831120,-2.491,0.646,0.561,23.9,-151.7,15.9,5.3,-8.4,-21.1,0.414593951,0.125980407,0.4234138,-0.795556505
579,1450857,831120,-2.504,0.627,0.541,37.6,-154,13.4,5.3,-8.4,-21.1,0.416150395,0.123783074,0.421338542,-0.796197394
580,1453170,831120,-2.5,0.595,0.514,52.9,-156.3,10.8,5.3,-8.4,-21.1,0.417645802,0.121646779,0.418958098,-0.796990875
581,1456168,831120,-2.489,0.567,0.498,69.6,-158.5,8,5.8,-8.5,-21.2,0.419019135,0.119602039,0.416272469,-0.797967467
582,1458416,831130,-2.458,0.527,0.478,87.4,-160.2,4.6,5.8,-8.5,-21.2,0.420331431,0.117648854,0.413281655,-0.799127171
583,1461443,831130,-2.446,0.531,0.474,105.5,-161.1,0.4,5.8,-8.5,-21.2,0.421521653,0.115817743,0.409955138,-0.800500504
584,1463405,831130,-2.407,0.514,0.449,123.1,-161,-4.6,5.8,-8.5,-21.2,0.422559282,0.114078188,0.406323435,-0.802026429
585,1465770,831130,-2.355,0.533,0.475,139.2,-160.2,-10.3,6.2,-9.1,-20.9,0.423444319,0.112460707,0.402447584,-0.803765984
586,1469122,831140,-2.314,0.607,0.482,153.8,-158.8,-16.2,6.2,-9.1,-20.9,0.424176763,0.110934782,0.398297067,-0.805627613
587,1471183,831140,-2.297,0.661,0.473,166.9,-157.1,-21.6,6.2,-9.1,-20.9,0.424756615,0.109561449,0.393963439,-0.807672353
588,1473322,831140,-2.276,0.736,0.48,178.3,-155.2,-26.6,6.2,-9.1,-20.9,0.425183874,0.108249153,0.389446699,-0.809808649
589,1475664,831140,-2.25,0.88,0.479,187.4,-152.9,-32,4.9,-11.8,-20.6,0.425489059,0.106997894,0.384777367,-0.8120365
590,1479858,831150,-2.241,0.959,0.479,194,-150.2,-37.9,4.9,-11.8,-20.6,0.425611133,0.105838191,0.38001648,-0.814355907
591,1482118,831150,-2.24,1.033,0.475,198.3,-147.3,-44.3,4.9,-11.8,-20.6,0.425580615,0.104678488,0.375225074,-0.816736351
592,1484237,831150,-2.235,1.1,0.466,200.5,-144.5,-51,4.9,-11.8,-20.6,0.425397504,0.103549303,0.370433668,-0.819177831
593,1485834,831150,-2.233,1.222,0.486,200.4,-141.9,-58.1,4,-11.4,-19.6,0.425031281,0.102389599,0.365642262,-0.821649831
594,1488296,831160,-2.232,1.281,0.501,198.3,-139.6,-65.5,4,-11.4,-19.6,0.424512467,0.101168859,0.360942412,-0.824152348
595,1492515,831160,-2.231,1.336,0.524,193.9,-137.4,-73.4,4,-11.4,-19.6,0.42384106,0.0999481185,0.356334117,-0.826624348
596,1494833,831160,-2.234,1.379,0.552,187.1,-135.3,-81.9,4,-11.4,-19.6,0.42301706,0.0986053041,0.351878414,-0.829096347
597,1496649,831160,-2.241,1.466,0.594,177.9,-133,-91.4,3.6,-12.1,-19.5,0.421979431,0.0971404157,0.347636341,-0.831629383
598,1498760,831170,-2.236,1.501,0.618,166.6,-130.4,-102,3.6,-12.1,-19.5,0.42075869,0.0955229347,0.343607898,-0.834101382
599,1501028,831170,-2.24,1.517,0.645,154.1,-127.9,-113.7,3.6,-12.1,-19.5,0.41932432,0.0937528611,0.33988464,-0.836542863
600,1503275,831170,-2.219,1.528,0.715,141.2,-125.3,-126.2,3.6,-12.1,-19.5,0.417676321,0.091830195,0.33640553,-0.838984344
601,1505705,831170,-2.187,1.512,0.757,128.7,-122.7,-139.5,3.3,-12.3,-19.1,0.415753655,0.0897244179,0.333201086,-0.841456343
602,1508472,831180,-2.144,1.491,0.787,117.6,-120.1,-153.5,3.3,-12.3,-19.1,0.413556322,0.0874660482,0.330240791,-0.843928343
603,1510792,831180,-2.097,1.459,0.794,108,-117.8,-168.3,3.3,-12.3,-19.1,0.411114841,0.0850550859,0.327524644,-0.84643086
604,1513390,831180,-2.003,1.366,0.713,99.7,-116,-184.1,3.3,-12.3,-19.1,0.408337657,0.0824915311,0.324961089,-0.848994415
605,1515840,831180,-1.957,1.31,0.615,92.8,-115.3,-201.3,3,-13.5,-18.6,0.405255287,0.0797753838,0.322580645,-0.851649525
606,1518387,831190,-1.895,1.238,0.488,87.5,-115.8,-219.8,3,-13.5,-18.6,0.401837214,0.0768456069,0.320291757,-0.854396191
607,1522453,831190,-1.83,1.146,0.342,85.2,-117.7,-239.1,3,-13.5,-18.6,0.398052919,0.0737022004,0.318063906,-0.857264931
608,1523228,831190,-1.597,0.892,0.075,87.8,-120.7,-258.3,3,-13.5,-18.6,0.393902402,0.0704062014,0.315805536,-0.860286264
609,1525855,831190,-1.458,0.708,-0.056,97.8,-124.8,-276.8,3.7,-12.8,-18.3,0.389416181,0.0669881283,0.313303018,-0.863521226
610,1530027,831200,-1.306,0.524,-0.161,116.3,-129.8,-293.2,3.7,-12.8,-18.3,0.384594256,0.0635395367,0.310434278,-0.866969817
611,1532196,831200,-1.143,0.323,-0.212,143.8,-135.7,-307.4,3.7,-12.8,-18.3,0.379467147,0.0600909452,0.306985687,-0.870693075
612,1534478,831200,-0.835,-0.052,-0.227,178.9,-142.1,-319.6,3.7,-12.8,-18.3,0.374095889,0.0567339091,0.302804651,-0.874691
613,1536669,831200,-0.706,-0.204,-0.163,219.2,-148,-331,4.2,-15.7,-18.1,0.368480483,0.0534989471,0.297830134,-0.87899411
614,1538953,831210,-0.597,-0.336,-0.076,262,-153,-343.3,4.2,-15.7,-18.1,0.362559893,0.0504470962,0.291940062,-0.883571886
615,1541118,831210,-0.406,-0.415,0.231,304.8,-156.9,-358.6,4.2,-15.7,-18.1,0.356303598,0.0475478378,0.28522599,-0.888485366
616,1543371,831210,-0.306,-0.378,0.263,345.8,-160.1,-378.6,4.2,-15.7,-18.1,0.349559008,0.0447706534,0.277626881,-0.893673513
617,1545817,831210,-0.181,-0.31,0.396,383.4,-162.9,-404.4,5.1,-17.2,-17.1,0.342265084,0.0420850246,0.269295328,-0.899166845
618,1548529,831220,-0.011,-0.207,0.602,416.8,-164.9,-437,5.1,-17.2,-17.1,0.334238716,0.0393383587,0.26023133,-0.904965361
619,1551683,831220,0.449,0.214,1.093,445.8,-165.8,-476,5.1,-17.2,-17.1,0.325388348,0.0366527299,0.250618,-0.911008026
620,1553254,831220,0.72,0.464,1.338,470.3,-165.9,-519.6,5.1,-17.2,-17.1,0.315530869,0.033845027,0.240455336,-0.917294839
621,1556192,831220,1.023,0.728,1.591,490.1,-166.8,-563.4,6.2,-18.7,-15.4,0.304727317,0.0308847316,0.22992645,-0.923734245
622,1559298,831230,1.378,0.98,1.835,504.6,-169.7,-603.5,6.2,-18.7,-15.4,0.293038728,0.0278023621,0.218970305,-0.930234687
623,1560959,831230,2.201,1.453,2.249,512.1,-175.5,-637.8,6.2,-18.7,-15.4,0.280556658,0.0244758446,0.20783105,-0.93673513
624,1564383,831230,2.633,1.624,2.385,509.4,-184.3,-666.6,6.2,-18.7,-15.4,0.267464217,0.0208136235,0.196600238,-0.943052461
625,1566777,831230,3.041,1.8,2.448,491.4,-195.9,-691.5,8.5,-18.8,-14.3,0.253791925,0.0166631062,0.185613575,-0.949095126
626,1568939,831240,4.03,2.123,2.327,452.5,-208.1,-715.1,8.5,-18.8,-14.3,0.239631336,0.0119632557,0.175328837,-0.954802087
627,1571198,831240,4.111,1.721,0.096,389.2,-219.4,-739,8.5,-18.8,-14.3,0.224921415,0.00659199805,0.166234321,-0.960051271
628,1574312,831240,4.194,-0.565,-5.969,310.3,-239.7,-761.7,8.5,-18.8,-14.3,0.209753716,0.000335703604,0.158635212,-0.96478164
629,1575907,831240,5.706,-4.517,-7.997,277.3,-304.3,-763,11.6,-15.3,-12.2,0.19470809,-0.0074159978,0.151402326,-0.969054231
630,1578231,831250,8.002,-8.265,4.814,431.8,-429.1,-682.5,11.6,-15.3,-12.2,0.181737724,-0.0169072542,0.140293588,-0.973113193
631,1580638,831250,7.984,-8.264,2.279,699,-555.1,-440.7,11.6,-15.3,-12.2,0.174291208,-0.0272225105,0.12305063,-0.976561785
632,1585058,831250,7.995,-8.267,3.635,749,-554.7,-73.4,11.6,-15.3,-12.2,0.174626911,-0.0364085818,0.104922636,-0.978331858
633,1587241,831250,8.078,-4.309,7.82,426.1,-368.6,222.5,10.9,-18.6,-14.8,0.180547502,-0.0421460616,0.0945768609,-0.97808771
634,1589387,831260,6.406,0.884,6.829,-114.2,-74.6,266.3,10.9,-18.6,-14.8,0.186284982,-0.0436414686,0.0969878231,-0.976714377
635,1591035,831260,2.481,3.404,5.06,-502.1,180.2,82.1,10.9,-18.6,-14.8,0.1871395,-0.0416577654,0.108493301,-0.975402081
636,1593466,831260,1.421,4.937,2.259,-679.4,327.4,-164.4,10.9,-18.6,-14.8,0.18222602,-0.0378734703,0.124118778,-0.974639119
637,1595826,831260,1.987,7.962,1.552,-726.5,413,-356,11.8,-16,-16.3,0.172917875,-0.0329294717,0.140842921,-0.974242378
638,1598872,831270,-2.027,8.047,-0.457,-727.7,490.1,-426.6,11.8,-16,-16.3,0.161778619,-0.0265511032,0.15787225,-0.973723563
639,1601278,831270,-5.916,8.139,-1.232,-694.5,555.1,-348.7,11.8,-16,-16.3,0.152012696,-0.0184026612,0.174321726,-0.972685934
640,1603181,831270,-8.041,8.186,-2.261,-602.8,553.4,-140.7,11.8,-16,-16.3,0.146641438,-0.00918607135,0.188879055,-0.97091586
641,1607034,831270,-6.434,7.814,-2.85,-469.3,475.3,77,13.8,-13.2,-16.7,0.146214179,-0.000305185095,0.200323496,-0.968749046
642,1608564,831280,-4.056,4.398,-3.525,-327.9,355.5,207,13.8,-13.2,-16.7,0.149021882,0.00701925718,0.208380383,-0.966582232
643,1610858,831280,-2.177,1.797,-3.196,-201.9,237,237.9,13.8,-13.2,-16.7,0.152989288,0.0124515519,0.213385418,-0.964812159
644,1614194,831280,-0.622,0.237,-2.737,-77.8,135,224.6,13.8,-13.2,-16.7,0.157109287,0.0160832545,0.21539964,-0.963652455
645,1615702,831280,0.951,-1.117,-1.365,54.4,48.2,221.9,13.4,-13.1,-16.2,0.161534471,0.0183111057,0.214331492,-0.963103122
646,1618163,831290,-1.299,-4.461,-1.549,189.9,-15,250.6,13.4,-13.1,-16.2,0.166783654,0.0198675497,0.210180975,-0.963103122
647,1621422,831290,-2.281,-5.12,0.037,308.9,-41.2,284.7,13.4,-13.1,-16.2,0.172826319,0.0214239937,0.203405866,-0.963469344
648,1623192,831290,-2.049,-5.515,-0.037,373.3,-33,269.4,13.4,-13.1,-16.2,0.178441725,0.0233161412,0.195318461,-0.964079714
649,1627139,831290,-2.049,-5.515,-0.037,373.3,-33,269.4,13.4,-13.1,-16.2,0.178441725,0.0233161412,0.195318461,-0.964079714
650,1628015,831300,-0.604,-4.47,0.564,248,8,104.8,13.8,-15.9,-13.7,0.18448439,0.0269478439,0.182531205,-0.965330973
651,1631674,831300,-0.604,-4.47,0.564,248,8,104.8,13.8,-15.9,-13.7,0.18448439,0.0269478439,0.182531205,-0.965330973
652,1633732,831300,0.307,-1.531,1.035,14,-9.1,1.9,13.8,-15.9,-13.7,0.18530839,0.0275887326,0.179692984,-0.965697195
653,1636033,831300,-0.028,0.269,1.289,-51.6,-27.1,-21,13.7,-15.8,-13.5,0.185003204,0.0267342143,0.180700095,-0.96560564
654,1638159,831310,-0.028,0.269,1.289,-51.6,-27.1,-21,13.7,-15.8,-13.5,0.185003204,0.0267342143,0.180700095,-0.96560564
655,1642012,831310,-0.028,0.269,1.289,-51.6,-27.1,-21,13.7,-15.8,-13.5,0.185003204,0.0267342143,0.180700095,-0.96560564
656,1643005,831310,-0.028,0.269,1.289,-51.6,-27.1,-21,13.7,-15.8,-13.5,0.185003204,0.0267342143,0.180700095,-0.96560564
657,1645879,831310,-0.028,0.269,1.289,-51.6,-27.1,-21,13.7,-15.8,-13.5,0.185003204,0.0267342143,0.180700095,-0.96560564
658,1648000,831320,-0.028,0.269,1.289,-51.6,-27.1,-21,13.7,-15.8,-13.5,0.185003204,0.0267342143,0.180700095,-0.96560564
659,1650699,831320,-0.028,0.269,1.289,-51.6,-27.1,-21,13.7,-15.8,-13.5,0.185003204,0.0267342143,0.180700095,-0.96560564
660,1654638,831320,-0.558,-1.474,2.156,123.8,-23.8,-61.2,13.3,-14.9,-13.1,0.172643208,0.0220954009,0.184392834,-0.967284158
661,1656143,831320,-0.462,-1.834,1.881,123.2,-24.6,-30.5,13.7,-15.3,-11.1,0.172032838,0.0219428083,0.181737724,-0.967925047
662,1658464,831330,-0.396,-2.084,1.614,100.5,-22.7,-12.2,13.7,-15.3,-11.1,0.171819208,0.0217902158,0.179509873,-0.968352306
663,1660664,831330,-0.535,-2.344,1.478,71.7,-21.8,5.8,13.7,-15.3,-11.1,0.172002319,0.0216071047,0.17792291,-0.968626972
664,1664336,831330,-0.857,-3.06,1.301,48.3,-22.7,28.7,13.7,-15.3,-11.1,0.172673727,0.0214545122,0.176793725,-0.968718528
665,1666009,831330,-0.813,-2.872,1.487,32.9,-23.7,39.5,13.7,-15.6,-10.7,0.173589282,0.0212103641,0.176000244,-0.968718528
666,1669080,831340,-0.855,-2.796,1.578,23.3,-23.6,26.9,13.7,-15.6,-10.7,0.174230171,0.0208746605,0.175389874,-0.968718528
667,1671330,831340,-0.744,-2.347,1.816,16.1,-22.6,-3.9,13.7,-15.6,-10.7,0.174230171,0.0204779199,0.174962615,-0.968810083
668,1674111,831340,-0.744,-2.347,1.816,16.1,-22.6,-3.9,13.7,-15.6,-10.7,0.174230171,0.0204779199,0.174962615,-0.968810083
669,1675878,831340,-0.435,-1.744,2.106,9.5,-21.9,-39.4,13.7,-15.7,-16,0.172948393,0.0193792535,0.174382763,-0.969145787
670,1678331,831350,-0.435,-1.744,2.106,9.5,-21.9,-39.4,13.7,-15.7,-16,0.172948393,0.0193792535,0.174382763,-0.969145787
671,1680882,831350,-0.435,-1.744,2.106,9.5,-21.9,-39.4,13.7,-15.7,-16,0.172948393,0.0193792535,0.174382763,-0.969145787
672,1683271,831350,-0.435,-1.744,2.106,9.5,-21.9,-39.4,13.7,-15.7,-16,0.172948393,0.0193792535,0.174382763,-0.969145787
673,1686080,831350,-0.435,-1.744,2.106,9.5,-21.9,-39.4,13.7,-15.7,-16,0.172948393,0.0193792535,0.174382763,-0.969145787
674,1688436,831360,-0.435,-1.744,2.106,9.5,-21.9,-39.4,13.7,-15.7,-16,0.172948393,0.0193792535,0.174382763,-0.969145787
675,1690588,831360,-0.435,-1.744,2.106,9.5,-21.9,-39.4,13.7,-15.7,-16,0.172948393,0.0193792535,0.174382763,-0.969145787
676,1694805,831360,-0.435,-1.744,2.106,9.5,-21.9,-39.4,13.7,-15.7,-16,0.172948393,0.0193792535,0.174382763,-0.969145787
677,1697144,831360,0.206,0.491,1.54,-3.7,-12.7,-28.3,13.6,-16.2,-13.6,0.169316691,0.0155644398,0.17404706,-0.96990875
678,1699409,831370,0.217,0.503,1.418,-5.6,-10.8,-34.1,13.6,-16.2,-13.6,0.168645283,0.0151676992,0.174169134,-0.970030824
679,1701501,831370,0.214,0.404,1.18,-10.6,-8.7,-39.2,13.6,-16.2,-13.6,0.167851802,0.0148014771,0.174352245,-0.970122379
680,1703855,831370,0.214,0.404,1.18,-10.6,-8.7,-39.2,13.6,-16.2,-13.6,0.167851802,0.0148014771,0.174352245,-0.970122379
681,1706007,831370,0.173,0.114,0.999,-24.5,-6.1,-41.1,13.5,-15.8,-14.9,0.166142766,0.0140385144,0.175237281,-0.970274972
682,1708230,831380,0.173,0.114,0.999,-24.5,-6.1,-41.1,13.5,-15.8,-14.9,0.166142766,0.0140385144,0.175237281,-0.970274972
683,1710755,831380,0.217,-0.314,0.835,-31.8,-7.3,-32,13.5,-15.8,-14.9,0.164738914,0.0132755516,0.176519059,-0.97030549
684,1714261,831380,0.244,-0.402,0.78,-32.6,-9.4,-26,13.5,-15.8,-14.9,0.164250618,0.0128482925,0.177159948,-0.970274972
685,1715831,831380,0.278,-0.454,0.736,-33.6,-12.4,-20.5,13.9,-15.6,-15.7,0.163853877,0.0123905148,0.177861873,-0.970213935
686,1718349,831390,0.342,-0.412,0.675,-35.9,-15.6,-16.6,13.9,-15.6,-15.7,0.163579211,0.0118717002,0.178563799,-0.970152898
687,1721780,831390,0.367,-0.342,0.667,-39.7,-18.5,-14.6,13.9,-15.6,-15.7,0.163365581,0.01126133,0.179326762,-0.970030824
688,1723928,831390,0.38,-0.244,0.647,-43.9,-20.4,-14.1,13.9,-15.6,-15.7,0.163151952,0.0106204413,0.180211798,-0.969939268
689,1726178,831390,0.378,-0.149,0.642,-47.5,-21.3,-14.8,13.9,-15.2,-14.3,0.162938322,0.00994903409,0.181127354,-0.969786676
690,1728460,831400,0.348,-0.007,0.623,-49.5,-21.6,-15.9,13.9,-15.2,-14.3,0.162694174,0.00924710837,0.182103946,-0.969664602
691,1730701,831400,0.329,0.043,0.631,-49.4,-21.4,-17.2,13.9,-15.2,-14.3,0.162419507,0.00854518265,0.183080538,-0.969542528
692,1733178,831400,0.305,0.063,0.62,-47.1,-21,-17.8,13.9,-15.2,-14.3,0.162144841,0.00787377544,0.183996094,-0.969420454
693,1736637,831400,0.254,0.045,0.626,-43.2,-20.8,-17.7,13.8,-14.8,-14.3,0.161839656,0.00720236824,0.184850612,-0.969298379
694,1739680,831410,0.237,0.01,0.63,-38.4,-20.8,-16.9,13.8,-14.8,-14.3,0.161564989,0.00656147954,0.185583056,-0.969206824
695,1741107,831410,0.229,-0.036,0.627,-33.6,-20.9,-15.8,13.8,-14.8,-14.3,0.161320841,0.00595110935,0.186223945,-0.969145787
696,1744124,831410,0.229,-0.036,0.627,-33.6,-20.9,-15.8,13.8,-14.8,-14.3,0.161320841,0.00595110935,0.186223945,-0.969145787
697,1747169,831410,0.255,-0.147,0.642,-24.9,-21.7,-15.3,14.1,-14.5,-14.3,0.160863063,0.00473036897,0.187231056,-0.969023713
698,1748634,831420,0.27,-0.19,0.649,-21.3,-22.2,-16.8,14.1,-14.5,-14.3,0.160618915,0.00408948027,0.187597278,-0.968993194
699,1751679,831420,0.27,-0.19,0.649,-21.3,-22.2,-16.8,14.1,-14.5,-14.3,0.160618915,0.00408948027,0.187597278,-0.968993194
700,1754665,831420,0.27,-0.19,0.649,-21.3,-22.2,-16.8,14.1,-14.5,-14.3,0.160618915,0.00408948027,0.187597278,-0.968993194
701,1756112,831420,0.428,-0.257,0.731,-11.7,-23.2,-23.9,14.3,-14.8,-14.6,0.159520249,0.00222785119,0.188329722,-0.969054231
702,1758379,831430,0.428,-0.257,0.731,-11.7,-23.2,-23.9,14.3,-14.8,-14.6,0.159520249,0.00222785119,0.188329722,-0.969054231
703,1761121,831430,0.428,-0.257,0.731,-11.7,-23.2,-23.9,14.3,-14.8,-14.6,0.159520249,0.00222785119,0.188329722,-0.969054231
704,1764122,831430,0.428,-0.257,0.731,-11.7,-23.2,-23.9,14.3,-14.8,-14.6,0.159520249,0.00222785119,0.188329722,-0.969054231
705,1765629,831430,0.428,-0.257,0.731,-11.7,-23.2,-23.9,14.3,-14.8,-14.6,0.159520249,0.00222785119,0.188329722,-0.969054231
706,1768447,831440,0.428,-0.257,0.731,-11.7,-23.2,-23.9,14.3,-14.8,-14.6,0.159520249,0.00222785119,0.188329722,-0.969054231
707,1771174,831440,0.428,-0.257,0.731,-11.7,-23.2,-23.9,14.3,-14.8,-14.6,0.159520249,0.00222785119,0.188329722,-0.969054231
708,1773459,831440,0.428,-0.257,0.731,-11.7,-23.2,-23.9,14.3,-14.8,-14.6,0.159520249,0.00222785119,0.188329722,-0.969054231
709,1776162,831440,0.428,-0.257,0.731,-11.7,-23.2,-23.9,14.3,-14.8,-14.6,0.159520249,0.00222785119,0.188329722,-0.969054231
710,1778189,831450,0.428,-0.257,0.731,-11.7,-23.2,-23.9,14.3,-14.8,-14.6,0.159520249,0.00222785119,0.188329722,-0.969054231
711,1781201,831450,0.428,-0.257,0.731,-11.7,-23.2,-23.9,14.3,-14.8,-14.6,0.159520249,0.00222785119,0.188329722,-0.969054231
712,1783200,831450,1.085,-0.665,0.699,-20.6,-12.8,-3.8,13,-14.7,-14.8,0.155888546,-0.00375377667,0.190313425,-0.969237342
713,1786260,831450,1.085,-0.665,0.699,-20.6,-12.8,-3.8,13,-14.7,-14.8,0.155888546,-0.00375377667,0.190313425,-0.969237342
714,1789274,831460,1.102,-0.854,0.738,-6.9,-7.3,10.8,15.4,-14.3,-14.7,0.156254769,-0.00411999878,0.190649129,-0.969115268
715,1792191,831460,1.085,-0.916,0.735,-0.9,-4.6,18.6,15.4,-14.3,-14.7,0.156682028,-0.00415051729,0.190710166,-0.969023713
716,1793753,831460,1.064,-0.998,0.697,3.8,-1.9,26.2,15.4,-14.3,-14.7,0.157231361,-0.00405896176,0.19061861,-0.968962676
717,1796699,831460,1.064,-0.998,0.697,3.8,-1.9,26.2,15.4,-14.3,-14.7,0.157231361,-0.00405896176,0.19061861,-0.968962676
718,1798258,831470,1.064,-0.998,0.697,3.8,-1.9,26.2,15.4,-14.3,-14.7,0.157231361,-0.00405896176,0.19061861,-0.968962676
719,1801321,831470,1.08,-0.983,0.65,14.6,3.6,44.1,14.8,-14.2,-14.8,0.159672842,-0.00332651753,0.189947203,-0.968688009
720,1804295,831470,1.088,-0.924,0.653,18.9,4.8,48.9,14.8,-14.2,-14.8,0.160679952,-0.00296029542,0.189550462,-0.968596454
721,1805750,831470,1.093,-0.881,0.665,23.8,6.2,54.1,14.7,-14.2,-14.4,0.161809137,-0.00253303629,0.189092685,-0.968504898
722,1808821,831480,1.098,-0.842,0.68,29,7.9,60,14.7,-14.2,-14.4,0.163060396,-0.00201422163,0.188512833,-0.968413343
723,1811079,831480,1.091,-0.755,0.727,34.1,10,66.3,14.7,-14.2,-14.4,0.164403211,-0.00140385144,0.187810907,-0.968321787
724,1814104,831480,1.092,-0.72,0.754,39.2,12.3,72.9,14.7,-14.2,-14.4,0.165898618,-0.000701925718,0.187047945,-0.968230232
725,1815592,831480,1.089,-0.68,0.766,43.7,14.8,79.7,14.6,-14.7,-14.5,0.167516099,6.1037019e-05,0.186162908,-0.968108158
726,1818825,831490,1.089,-0.68,0.766,43.7,14.8,79.7,14.6,-14.7,-14.5,0.167516099,6.1037019e-05,0.186162908,-0.968108158
727,1820872,831490,1.079,-0.582,0.805,50.8,20.3,93.1,14.6,-14.7,-14.5,0.17117832,0.00195318461,0.184209723,-0.967833491
728,1823224,831490,1.071,-0.554,0.82,53.6,23.3,98.9,14.6,-14.7,-14.5,0.173162023,0.00305185095,0.183172094,-0.967680898
729,1826771,831490,1.068,-0.527,0.828,56.2,26.5,104.3,11.6,-15.5,-14.2,0.1752678,0.00424207282,0.182073428,-0.967497787
730,1828960,831500,1.06,-0.503,0.844,58.2,29.9,109.3,11.6,-15.5,-14.2,0.177434614,0.00552385022,0.180944243,-0.967314676
731,1831184,831500,1.057,-0.467,0.867,59.5,33.5,114,11.6,-15.5,-14.2,0.179723502,0.00692770165,0.179815058,-0.967101047
732,1833435,831500,1.049,-0.44,0.879,59.9,37.4,118.3,11.6,-15.5,-14.2,0.182042909,0.00839259011,0.178685873,-0.966856899
733,1835981,831500,1.042,-0.424,0.883,59.5,41.4,122.1,13.3,-15.3,-13.4,0.184453871,0.0099795526,0.177556688,-0.966582232
734,1838314,831510,1.042,-0.4,0.891,58.4,45.5,125.3,13.3,-15.3,-13.4,0.186895352,0.0116885891,0.17648854,-0.966307566
735,1841776,831510,1.023,-0.352,0.907,56.5,49.7,127.9,13.3,-15.3,-13.4,0.18939787,0.0134586627,0.175450911,-0.965971862
736,1843331,831510,1.016,-0.329,0.911,54.1,53.7,130.1,13.3,-15.3,-13.4,0.191930906,0.0152897732,0.174504837,-0.965636158
737,1845649,831510,1.004,-0.301,0.923,51,57.7,131.7,12.7,-15.6,-13.2,0.194463942,0.0172124393,0.1736198,-0.965239418
738,1849156,831520,0.981,-0.257,0.939,47.3,61.6,133,12.7,-15.6,-13.2,0.196996979,0.019226661,0.172826319,-0.964842677
739,1851528,831520,0.973,-0.237,0.939,42.9,65.6,134,12.7,-15.6,-13.2,0.199560533,0.0213019196,0.172154912,-0.964384899
740,1853314,831520,0.962,-0.221,0.947,37.9,69.3,135,12.7,-15.6,-13.2,0.202124088,0.0234382153,0.171605579,-0.963896603
741,1857186,831520,0.95,-0.209,0.94,32.4,72.9,136,12.1,-16.3,-13.4,0.204687643,0.025635548,0.171117283,-0.963377789
742,1859545,831530,0.93,-0.185,0.925,26.4,76.4,136.9,12.1,-16.3,-13.4,0.207251198,0.0278328806,0.170873135,-0.962828455
743,1861483,831530,0.919,-0.185,0.917,19.9,79.6,137.4,12.1,-16.3,-13.4,0.209845271,0.0301522874,0.170720542,-0.962218085
744,1863419,831530,0.903,-0.189,0.906,12.8,82.7,137.8,12.1,-16.3,-13.4,0.212408826,0.0324411756,0.170751061,-0.961577197
745,1865654,831530,0.891,-0.192,0.898,5.3,85.4,137.9,11.1,-16.4,-12.9,0.215002899,0.0347911008,0.170934172,-0.960905789
746,1869058,831540,0.858,-0.227,0.872,-2.3,87.9,138,11.1,-16.4,-12.9,0.217566454,0.037141026,0.171269875,-0.960173345
747,1870768,831540,0.838,-0.246,0.865,-10.1,90.3,137.8,11.1,-16.4,-12.9,0.22009949,0.0394909513,0.171819208,-0.959379864
748,1873404,831540,0.822,-0.265,0.85,-18,92.6,137.5,11.1,-16.4,-12.9,0.222663045,0.041871395,0.172521134,-0.958586383
749,1876518,831540,0.789,-0.324,0.8,-26,94.6,137,11.4,-16.7,-13,0.225196081,0.0442213202,0.173406171,-0.957731864
750,1878952,831550,0.768,-0.355,0.773,-33.7,96.1,136.3,11.4,-16.7,-13,0.227698599,0.0465712455,0.1744438,-0.956816309
751,1881237,831550,0.752,-0.39,0.746,-41.4,97.3,135.4,11.4,-16.7,-13,0.230201117,0.0489211707,0.175634022,-0.955870235
752,1883588,831550,0.731,-0.425,0.712,-48.4,98.3,134.5,11.4,-16.7,-13,0.232642598,0.0512405774,0.176976836,-0.954924162
753,1885721,831550,0.67,-0.49,0.647,-54.7,99.2,133.4,8.2,-17,-12.6,0.235145116,0.0535599841,0.178502762,-0.953917051
754,1888368,831560,0.638,-0.517,0.621,-59.9,99.7,132,8.2,-17,-12.6,0.237525559,0.0558488723,0.180089724,-0.952879421
755,1890619,831560,0.598,-0.54,0.599,-63.9,99.9,130.5,8.2,-17,-12.6,0.23996704,0.058107242,0.181798761,-0.951811274
756,1893959,831560,0.55,-0.57,0.584,-66.7,99.6,128.8,8.2,-17,-12.6,0.242316965,0.0603350932,0.183538316,-0.950743126
757,1896286,831560,0.446,-0.603,0.576,-68.3,99.1,127.1,7.2,-16.8,-12.8,0.24466689,0.0625324259,0.18530839,-0.949644459
758,1898500,831570,0.398,-0.626,0.577,-68.7,98.3,125.2,7.2,-16.8,-12.8,0.246955779,0.0646992401,0.187078463,-0.948576312
759,1900708,831570,0.346,-0.644,0.598,-67.7,97.1,123.6,7.2,-16.8,-12.8,0.249214148,0.0668660543,0.188818018,-0.947477645
760,1903387,831570,0.291,-0.662,0.693,-65.1,95.3,122.5,7.2,-16.8,-12.8,0.251442,0.0689413129,0.190527055,-0.946409497
761,1907465,831570,0.198,-0.696,0.575,-61,92.9,122.2,7,-17.1,-12.9,0.253669851,0.0710776086,0.192114017,-0.94534135
762,1908126,831580,0.159,-0.718,0.619,-56.3,89.9,122.6,7,-17.1,-12.9,0.255897702,0.0731223487,0.193578906,-0.944273202
763,1911137,831580,0.131,-0.729,0.643,-51.3,86.8,123.1,7,-17.1,-12.9,0.258156072,0.0751365703,0.19492172,-0.943235572
764,1913444,831580,0.079,-0.752,0.687,-46.5,83.9,123.3,7,-17.1,-12.9,0.260414441,0.077150792,0.19614246,-0.942197943
765,1915667,831580,0.059,-0.767,0.696,-41.7,81,122.8,7,-17.3,-13.3,0.262672811,0.0791039766,0.197241127,-0.941160314
766,1918256,831590,0.039,-0.763,0.712,-37.1,78,122.1,7,-17.3,-13.3,0.264900662,0.0809961241,0.198248238,-0.940183721
767,1921437,831590,0.016,-0.762,0.728,-32.5,74.6,121.1,7,-17.3,-13.3,0.267097995,0.0828882717,0.199133274,-0.939207129
768,1923839,831590,-0.015,-0.745,0.784,-28,71,120,7,-17.3,-13.3,0.269295328,0.0846888638,0.199896237,-0.938230537
769,1926016,831590,-0.03,-0.729,0.804,-23.5,67.6,119.3,10.3,-18.8,-13.4,0.27149266,0.0864589373,0.200567644,-0.937314982
770,1928247,831600,-0.045,-0.701,0.827,-19.2,64.9,118.9,10.3,-18.8,-13.4,0.273689993,0.0881984924,0.201116977,-0.936399426
771,1930739,831600,-0.053,-0.666,0.843,-15.4,62.6,118.8,10.3,-18.8,-13.4,0.275856807,0.0899075289,0.201574755,-0.935483871
772,1935060,831600,-0.075,-0.595,0.871,-12.6,60.6,118.8,10.3,-18.8,-13.4,0.27805414,0.0915860469,0.201971496,-0.934568316
773,1937296,831600,-0.102,-0.531,0.899,-10.7,58.9,118.5,8.9,-15.6,-12.9,0.28009888,0.0926541948,0.202551347,-0.933744316
774,1939447,831610,-0.102,-0.531,0.899,-9.6,57.4,118,8.9,-15.6,-12.9,0.282265694,0.0943021943,0.202856532,-0.932859279
775,1940975,831610,-0.113,-0.503,0.914,-8.9,56.3,117.1,8.9,-15.6,-12.9,0.28440199,0.0958891568,0.203161718,-0.931974242
776,1943270,831610,-0.144,-0.459,0.931,-8.7,55.5,116.1,8.9,-15.6,-12.9,0.286538285,0.0975066378,0.203436384,-0.931119724
777,1945763,831610,-0.156,-0.439,0.939,-9.3,55.2,114.8,9.1,-16,-13.4,0.288644063,0.0990630818,0.203711051,-0.930234687
778,1950028,831620,-0.172,-0.419,0.935,-10.9,55.3,113.4,9.1,-16,-13.4,0.290719321,0.100619526,0.204046754,-0.929349651
779,1952223,831620,-0.203,-0.399,0.932,-13.6,55.7,111.9,9.1,-16,-13.4,0.29279458,0.102145451,0.204412976,-0.928434095
780,1954511,831620,-0.223,-0.395,0.929,-17.4,56.4,110.2,9.1,-16,-13.4,0.294808802,0.103701895,0.204901273,-0.92751854
781,1956723,831620,-0.235,-0.39,0.913,-22.2,57,108.2,9.5,-16.2,-13.5,0.296792505,0.105197302,0.205450606,-0.926602985
782,1958971,831630,-0.251,-0.39,0.902,-27.5,57.6,105.9,9.5,-16.2,-13.5,0.298745689,0.106631672,0.206152532,-0.925656911
783,1961297,831630,-0.278,-0.382,0.887,-33.4,58.2,103.1,9.5,-16.2,-13.5,0.300637837,0.108066042,0.206976531,-0.924710837
784,1963551,831630,-0.302,-0.381,0.876,-39.7,59,100.1,9.5,-16.2,-13.5,0.302468947,0.109439375,0.207922605,-0.923703726
785,1965683,831630,-0.326,-0.381,0.857,-46.4,59.9,97,9.6,-16,-13.3,0.304269539,0.110782189,0.209021271,-0.922727134
786,1968203,831640,-0.346,-0.38,0.83,-53.4,61,93.9,9.6,-16,-13.3,0.306009095,0.112094485,0.21027253,-0.921689505
787,1971775,831640,-0.402,-0.383,0.793,-60.5,62.3,90.7,9.6,-16,-13.3,0.307687613,0.113376263,0.211676382,-0.920651875
788,1974042,831640,-0.438,-0.39,0.77,-67.3,63.5,87.5,9.6,-16,-13.3,0.309335612,0.114597003,0.213232826,-0.919614246
789,1976256,831640,-0.474,-0.389,0.756,-73.8,64.8,84.3,8.1,-17.6,-13.7,0.310892056,0.115787225,0.214941862,-0.91851558
790,1978507,831650,-0.55,-0.411,0.734,-79.9,66.2,81.1,8.1,-17.6,-13.7,0.312417982,0.116946928,0.216803491,-0.917416913
791,1980750,831650,-0.582,-0.426,0.72,-85.3,67.6,77.9,8.1,-17.6,-13.7,0.31388287,0.118106632,0.218756676,-0.916318247
792,1983333,831650,-0.614,-0.433,0.713,-90.1,68.8,74.6,8.1,-17.6,-13.7,0.315256203,0.119205298,0.220862453,-0.915189062
793,1987548,831650,-0.69,-0.475,0.684,-94,69.8,71.1,7.6,-17.8,-14.1,0.316599017,0.120944853,0.223670156,-0.913815729
794,1989668,831660,-0.726,-0.497,0.677,-97,70.3,67.7,7.6,-17.8,-14.1,0.317850276,0.122013001,0.225898007,-0.912686544
795,1991258,831660,-0.758,-0.516,0.666,-98.9,70.5,64.4,7.6,-17.8,-14.1,0.319040498,0.12305063,0.228186895,-0.91155736
796,1993497,831660,-0.79,-0.539,0.655,-99.4,70.3,61,7.6,-17.8,-14.1,0.320169683,0.124057741,0.230506302,-0.910458693
797,1995827,831660,-0.79,-0.539,0.655,-99.4,70.3,61,7.6,-17.8,-14.1,0.320169683,0.124057741,0.230506302,-0.910458693
798,1998312,831670,-0.79,-0.539,0.655,-99.4,70.3,61,7.6,-17.8,-14.1,0.320169683,0.124057741,0.230506302,-0.910458693
799,2000626,831670,-0.91,-0.611,0.659,-92.3,68.7,51,7.4,-18.5,-14.3,0.323129978,0.127018036,0.237189856,-0.907284768
800,2005064,831670,-0.946,-0.618,0.664,-88.1,67.5,47.7,7.4,-18.5,-14.3,0.323984497,0.12796411,0.239295633,-0.906277657
801,2007249,831670,-0.97,-0.629,0.672,-83.7,66.2,44.5,7.2,-19.4,-14.6,0.324747459,0.128910184,0.241279336,-0.905362102
802,2009429,831680,-1.014,-0.636,0.705,-78.9,64.7,41.6,7.2,-19.4,-14.6,0.325449385,0.129856258,0.243202002,-0.904446547
803,2011740,831680,-1.026,-0.636,0.724,-74.1,63.2,39.2,7.2,-19.4,-14.6,0.326090274,0.130802332,0.245002594,-0.903592029
804,2014113,831680,-1.045,-0.62,0.733,-69.2,61.7,37.1,7.2,-19.4,-14.6,0.326700644,0.131717887,0.246681112,-0.902798547
805,2016258,831680,-1.045,-0.62,0.733,-69.2,61.7,37.1,7.2,-19.4,-14.6,0.326700644,0.131717887,0.246681112,-0.902798547
806,2018461,831690,-1.045,-0.62,0.733,-69.2,61.7,37.1,7.2,-19.4,-14.6,0.326700644,0.131717887,0.246681112,-0.902798547
807,2020789,831690,-1.051,-0.553,0.834,-56.1,57.5,31.1,7.9,-19.4,-14.9,0.328196051,0.134434034,0.251197851,-0.900570696
808,2023315,831690,-1.051,-0.521,0.861,-52.8,56.4,29.3,7.9,-19.4,-14.9,0.328592792,0.135319071,0.252571184,-0.899929807
809,2025678,831690,-1.038,-0.443,0.896,-50.4,55.6,28,7.9,-14.9,-14.1,0.329020051,0.136204108,0.25388348,-0.8992584
810,2029777,831700,-1.041,-0.403,0.912,-48.5,55.2,26.6,7.9,-14.9,-14.1,0.329386273,0.137089145,0.255134739,-0.89864803
811,2032186,831700,-1.032,-0.368,0.927,-47.4,55,25.1,7.9,-14.9,-14.1,0.329721976,0.137974181,0.256385998,-0.89803766
812,2034504,831700,-1.028,-0.337,0.931,-46.7,55.1,23.6,7.9,-14.9,-14.1,0.329996643,0.138859218,0.257637257,-0.89742729
813,2036742,831700,-1.007,-0.286,0.953,-46,55.4,22.2,8.1,-17.4,-16.5,0.33027131,0.139713736,0.258857997,-0.896847438
814,2038958,831710,-0.995,-0.271,0.957,-45.2,56,20.9,8.1,-17.4,-16.5,0.330515458,0.140629292,0.260109256,-0.896267586
815,2041273,831710,-0.979,-0.259,0.96,-44.6,56.6,19.8,8.1,-17.4,-16.5,0.330698569,0.141514328,0.261329997,-0.895687735
816,2043498,831710,-0.963,-0.244,0.932,-45,57.3,18.9,8.1,-17.4,-16.5,0.33088168,0.142429884,0.262550737,-0.895138401
817,2045780,831710,-0.967,-0.228,0.897,-46.9,58.1,18.2,8.1,-17.3,-16.9,0.331064791,0.14331492,0.263832514,-0.894528031
818,2048287,831720,-0.975,-0.22,0.859,-50.6,59,17.2,8.1,-17.3,-16.9,0.331217383,0.144199957,0.265175329,-0.89394818
819,2052111,831720,-0.987,-0.204,0.82,-55.8,60.2,15.8,8.1,-17.3,-16.9,0.331339457,0.145054476,0.266670736,-0.893307291
820,2053792,831720,-1.026,-0.156,0.743,-61.9,61.3,13.9,8.1,-17.3,-16.9,0.331461531,0.145908994,0.268257698,-0.892666402
821,2056056,831720,-1.054,-0.128,0.716,-68.1,62.3,11.2,8.1,-16.2,-16.5,0.331522568,0.146671957,0.269997253,-0.891964476
822,2058326,831730,-1.073,-0.1,0.693,-73.6,63.4,8.1,8.1,-16.2,-16.5,0.331553087,0.147434919,0.271889401,-0.891262551
823,2060858,831730,-1.101,-0.084,0.674,-77.8,64.3,5.1,8.1,-16.2,-16.5,0.331522568,0.148167364,0.273842586,-0.890560625
824,2064897,831730,-1.14,-0.032,0.663,-80.6,65.1,2.5,8.1,-16.2,-16.5,0.331431013,0.148838771,0.275856807,-0.889858699
825,2067127,831730,-1.147,-0.012,0.656,-82.4,65.5,0.2,8.5,-15,-16.8,0.331308939,0.149540696,0.277932066,-0.889156774
826,2068657,831740,-1.155,0.007,0.648,-83.8,65.8,-1.5,8.5,-15,-16.8,0.331156346,0.150181585,0.280037843,-0.888424329
827,2071174,831740,-1.163,0.011,0.648,-85.1,65.8,-3.1,8.5,-15,-16.8,0.330973235,0.150822474,0.282174139,-0.887691885
828,2073443,831740,-1.167,0,0.64,-85.9,65.9,-4.5,8.5,-15,-16.8,0.330759606,0.151463363,0.284340953,-0.886989959
829,2075851,831740,-1.163,-0.024,0.652,-86.1,66,-6.1,9.1,-15.3,-15.2,0.330515458,0.152073733,0.286507767,-0.886288034
830,2078194,831750,-1.164,-0.059,0.652,-85.7,66.4,-8,9.1,-15.3,-15.2,0.330240791,0.152684103,0.288674581,-0.885586108
831,2082181,831750,-1.165,-0.114,0.656,-85.2,66.7,-10.4,9.1,-15.3,-15.2,0.329874569,0.153294473,0.290841395,-0.884884182
832,2084576,831750,-1.165,-0.146,0.649,-85.3,67.2,-13.2,9.1,-15.3,-15.2,0.329477828,0.153904843,0.293008209,-0.884212775
833,2086909,831750,-1.178,-0.173,0.649,-86,67.8,-16,9.1,-15.6,-17.2,0.329020051,0.154484695,0.295205542,-0.883571886
834,2089183,831760,-1.198,-0.184,0.65,-87.2,68.7,-18.8,9.1,-15.6,-17.2,0.328531755,0.155064547,0.297433393,-0.882900479
835,2091211,831760,-1.23,-0.207,0.654,-88.6,69.7,-21.6,9.1,-15.6,-17.2,0.327951903,0.155644398,0.299722282,-0.882229072
836,2094345,831760,-1.246,-0.203,0.655,-89.7,70.8,-24.4,9.1,-15.6,-17.2,0.327311014,0.156193731,0.302041688,-0.881588183
837,2096701,831760,-1.265,-0.198,0.655,-90.5,71.7,-27.4,9.4,-14.8,-17.5,0.326639607,0.156743065,0.304391614,-0.880947295
838,2098925,831770,-1.277,-0.186,0.656,-91.2,72.3,-30.1,9.4,-14.8,-17.5,0.325876644,0.157292398,0.306741539,-0.880306406
839,2100965,831770,-1.288,-0.147,0.652,-92.2,72.7,-32.6,9.4,-14.8,-17.5,0.325083163,0.157811213,0.309152501,-0.879665517
840,2104151,831770,-1.292,-0.123,0.648,-93.7,73,-34.7,9.4,-14.8,-17.5,0.324228645,0.158299509,0.311593982,-0.879024628
841,2105677,831770,-1.296,-0.107,0.644,-95.5,73.2,-36.8,10.2,-14.5,-17.5,0.323374126,0.158787805,0.314065981,-0.87838374
842,2109240,831780,-1.296,-0.095,0.636,-97.4,73.2,-38.8,10.2,-14.5,-17.5,0.322458571,0.159245582,0.316599017,-0.877712333
843,2110982,831780,-1.28,-0.088,0.628,-99.3,73.3,-40.9,10.2,-14.5,-17.5,0.321512497,0.159672842,0.319132054,-0.877071444
844,2113130,831780,-1.28,-0.084,0.628,-101.2,73.6,-42.9,10.2,-14.5,-17.5,0.320535905,0.160069582,0.321756645,-0.876400037
845,2117013,831780,-1.264,-0.084,0.631,-103.1,74.1,-44.8,10.5,-13.7,-17.1,0.319498276,0.160435804,0.324381237,-0.875728629
846,2119050,831790,-1.256,-0.088,0.631,-105,74.8,-46.5,10.5,-13.7,-17.1,0.318460646,0.160802026,0.327066866,-0.875026704
847,2121107,831790,-1.248,-0.089,0.631,-106.5,75.6,-47.9,10.5,-13.7,-17.1,0.31736198,0.161168249,0.329813532,-0.874355296
848,2123495,831790,-1.24,-0.089,0.631,-107.8,76.4,-48.9,10.5,-13.7,-17.1,0.316263314,0.161534471,0.332560198,-0.873622852
849,2125658,831790,-1.232,-0.093,0.631,-108.7,77,-49.5,10.9,-13.6,-18.3,0.315134129,0.161870174,0.335337382,-0.872920927
850,2128518,831800,-1.22,-0.101,0.638,-109.5,77.5,-49.7,10.9,-13.6,-18.3,0.314004944,0.162236396,0.338145085,-0.872157964
851,2132269,831800,-1.22,-0.105,0.638,-110.1,78,-49.7,10.9,-13.6,-18.3,0.312875759,0.162602618,0.340952788,-0.87142552
852,2134796,831800,-1.22,-0.105,0.642,-110.4,78.5,-49.4,10.9,-13.6,-18.3,0.311746574,0.162968841,0.343760491,-0.870662557
853,2136735,831800,-1.232,-0.101,0.642,-110.2,79.1,-48.8,11.5,-13.2,-15.9,0.310617389,0.163365581,0.346568194,-0.869869076
854,2138232,831810,-1.224,-0.101,0.642,-109.7,79.5,-48,11.5,-13.2,-15.9,0.309488205,0.163762322,0.349345378,-0.869075594
855,2141112,831810,-1.224,-0.101,0.65,-108.8,79.7,-47.1,11.5,-13.2,-15.9,0.308389538,0.164189581,0.352122562,-0.868282113
856,2144555,831810,-1.22,-0.113,0.658,-107.4,79.6,-46.1,11.5,-13.2,-15.9,0.307260353,0.16461684,0.35483871,-0.867488632
857,2146552,831810,-1.205,-0.141,0.673,-105,79.1,-45.1,12.3,-12.7,-15.6,0.306192206,0.165044099,0.357524339,-0.866664632
858,2148612,831820,-1.197,-0.164,0.681,-102,78.4,-44,12.3,-12.7,-15.6,0.305093539,0.165501877,0.36014893,-0.865901669
859,2151161,831820,-1.193,-0.18,0.696,-98.4,77.6,-42.9,12.3,-12.7,-15.6,0.304025391,0.165990173,0.362681967,-0.865108188
860,2153513,831820,-1.19,-0.192,0.688,-94.4,76.6,-41.5,12.3,-12.7,-15.6,0.302987762,0.166478469,0.365123447,-0.864375744
861,2155848,831820,-1.19,-0.216,0.72,-89.9,75.7,-40,12.7,-12.2,-15.8,0.301950133,0.166997284,0.367442854,-0.8636433
862,2158982,831830,-1.202,-0.223,0.72,-84.9,74.6,-38.2,12.7,-12.2,-15.8,0.300943022,0.167516099,0.369670705,-0.862941374
863,2161079,831830,-1.206,-0.223,0.732,-79.3,73.2,-36.3,12.7,-12.2,-15.8,0.29996643,0.16809595,0.371776482,-0.862269967
864,2163629,831830,-1.202,-0.219,0.74,-72.9,71.8,-34.4,12.7,-12.2,-15.8,0.298989837,0.168675802,0.373760186,-0.861629078
865,2165640,831830,-1.19,-0.216,0.743,-65.7,69.9,-32.6,13.3,-11.9,-15.9,0.298043764,0.169316691,0.375560778,-0.861049226
866,2168905,831840,-1.178,-0.208,0.747,-58.1,68,-30.6,13.3,-11.9,-15.9,0.297128208,0.169957579,0.377208777,-0.860499893
867,2171100,831840,-1.169,-0.192,0.75,-50.1,65.9,-28.5,13.3,-11.9,-15.9,0.296243171,0.170628986,0.378704184,-0.860042116
868,2173454,831840,-1.161,-0.185,0.75,-42.3,63.8,-26.2,13.3,-11.9,-15.9,0.295388653,0.171330912,0.379985961,-0.859614856
869,2176075,831840,-1.137,-0.158,0.761,-34.8,61.7,-23.8,13.3,-11.6,-19.6,0.294534135,0.172063356,0.381145665,-0.859248634
870,2179127,831850,-1.129,-0.146,0.749,-27.9,59.8,-21.3,13.3,-11.6,-19.6,0.293740654,0.172826319,0.382122257,-0.858943449
871,2180937,831850,-1.113,-0.131,0.756,-21.6,58,-19.1,13.3,-11.6,-19.6,0.292977691,0.1736198,0.382976775,-0.858668783
872,2183237,831850,-1.093,-0.108,0.756,-15.8,56.3,-16.9,13.3,-11.6,-19.6,0.292275765,0.1744438,0.383678701,-0.858424635
873,2185812,831850,-1.085,-0.1,0.756,-10.5,54.8,-14.8,14,-10.7,-18.3,0.29157384,0.1752678,0.384289071,-0.858211005
874,2189833,831860,-1.077,-0.092,0.759,-5.8,53.6,-12.7,14,-10.7,-18.3,0.290902432,0.176122318,0.384807886,-0.858027894
875,2192066,831860,-1.069,-0.093,0.767,-1.4,52.3,-10.7,14,-10.7,-18.3,0.290261544,0.176976836,0.385204627,-0.85790582
876,2194407,831860,-1.048,-0.073,0.766,2.7,51.1,-8.8,14,-10.7,-18.3,0.289651173,0.17792291,0.385509812,-0.857783746
877,2196711,831860,-1.04,-0.066,0.762,6.7,50,-6.9,14,-11.1,-18.7,0.289071322,0.178838466,0.385723441,-0.85769219
878,2198796,831870,-1.032,-0.058,0.77,10,49,-5.1,14,-11.1,-18.7,0.288521989,0.179784539,0.385876034,-0.857600635
879,2201178,831870,-1.032,-0.05,0.77,12.7,47.9,-3.3,14,-11.1,-18.7,0.288003174,0.180730613,0.385937071,-0.857539598
880,2203450,831870,-1.016,-0.019,0.777,14.7,46.9,-1.6,14,-11.1,-18.7,0.287514878,0.181676687,0.385967589,-0.857509079
881,2205967,831870,-1,-0.012,0.78,16.3,46,0,14.3,-11,-19.1,0.287087619,0.182653279,0.385937071,-0.857448042
882,2208368,831880,-0.996,-0.004,0.788,17.7,45.2,1.9,14.3,-11,-19.1,0.28666036,0.183629872,0.385876034,-0.857417524
883,2212315,831880,-0.988,0,0.792,18.8,44.7,3.6,14.3,-11,-19.1,0.286263619,0.184606464,0.385814997,-0.857356487
884,2214186,831880,-0.964,0.006,0.818,19.6,44.2,5.2,14.3,-11,-19.1,0.285927915,0.185613575,0.385692923,-0.857325968
885,2216490,831880,-0.956,0.006,0.818,20,43.6,6.7,14.9,-11.1,-19.3,0.285592212,0.186590167,0.385570849,-0.857264931
886,2218687,831890,-0.94,0.006,0.826,19.6,43.1,7.9,14.9,-11.1,-19.3,0.285317545,0.187597278,0.385418256,-0.857203894
887,2220960,831890,-0.928,0.006,0.829,18.5,42.6,9.2,14.9,-11.1,-19.3,0.285042879,0.18857387,0.385296182,-0.857142857
888,2223193,831890,-0.924,0.009,0.833,16.8,42.3,10.1,14.9,-11.1,-19.3,0.28479873,0.189580981,0.385204627,-0.857020783
889,2225663,831890,-0.916,0.013,0.841,14.8,41.9,11,14.6,-11.1,-17.6,0.284585101,0.190527055,0.38514359,-0.856929228
890,2229137,831900,-0.912,0.013,0.844,12.6,41.6,11.5,14.6,-11.1,-17.6,0.28440199,0.191503647,0.385113071,-0.856776635
891,2230652,831900,-0.896,0.005,0.852,10.2,41.4,11.8,14.6,-11.1,-17.6,0.284249397,0.192419202,0.38514359,-0.856624042
892,2233338,831900,-0.884,0.008,0.848,7.4,41.3,12.1,14.6,-11.1,-17.6,0.284096805,0.193365276,0.385204627,-0.856440931
893,2236376,831900,-0.86,0,0.847,4.3,41.2,12.3,15,-10.8,-17.7,0.283944212,0.194250313,0.385326701,-0.856227302
894,2238440,831910,-0.86,0,0.847,0.8,41,12.5,15,-10.8,-17.7,0.283852657,0.19513535,0.385509812,-0.855983154
895,2240771,831910,-0.845,-0.019,0.831,-2.8,40.8,12.8,15,-10.8,-17.7,0.283761101,0.195989868,0.38575396,-0.855677969
896,2244604,831910,-0.833,-0.031,0.827,-6.6,40.7,13.1,15,-10.8,-17.7,0.283669546,0.196813868,0.386089663,-0.855372784
897,2245834,831910,-0.821,-0.035,0.827,-10.1,40.5,13.3,15.3,-10.9,-17.8,0.283639027,0.197607349,0.386455885,-0.85503708
898,2249042,831920,-0.81,-0.079,0.811,-13.4,40.4,13.7,15.3,-10.9,-17.8,0.283608509,0.19840083,0.386913663,-0.854670858
899,2251589,831920,-0.803,-0.099,0.803,-16.2,40.3,14.1,15.3,-10.9,-17.8,0.283608509,0.199163793,0.387401959,-0.854274117
900,2253160,831920,-0.795,-0.114,0.799,-18.4,40.1,14.4,15.3,-10.9,-17.8,0.283608509,0.199926756,0.387920774,-0.853846858
901,2256845,831920,-0.788,-0.146,0.783,-19.8,39.9,14.4,15,-11.2,-17.8,0.283639027,0.2006592,0.388470107,-0.853419599
902,2258429,831930,-0.777,-0.209,0.756,-20.7,39.4,14.3,15,-11.2,-17.8,0.283639027,0.201391644,0.389049959,-0.852961821
903,2260687,831930,-0.773,-0.237,0.748,-20.8,38.8,14.2,15,-11.2,-17.8,0.283669546,0.202124088,0.38962981,-0.852534562
904,2263177,831930,-0.762,-0.265,0.751,-20.2,38.2,14.1,15,-11.2,-17.8,0.283669546,0.202826014,0.390179144,-0.852107303
905,2266165,831930,-0.766,-0.3,0.744,-18.9,37.7,14,15.6,-11,-17.4,0.283730583,0.20352794,0.390697958,-0.851680044
906,2269148,831940,-0.759,-0.359,0.732,-16.5,37.2,13.9,15.6,-11,-17.4,0.283730583,0.204229865,0.391155736,-0.851313822
907,2270654,831940,-0.752,-0.383,0.724,-13.1,36.4,13.7,15.6,-11,-17.4,0.283761101,0.204931791,0.391582995,-0.8509476
908,2274032,831940,-0.744,-0.418,0.728,-13.1,36.4,13.7,15.6,-11,-17.4,0.283761101,0.205664235,0.391979736,-0.850581378
909,2275713,831940,-0.749,-0.442,0.732,-8.9,35.5,13.4,13.7,-11.2,-17.6,0.283730583,0.206366161,0.392315439,-0.850276193
910,2279485,831950,-0.741,-0.493,0.74,-3.7,34.5,13,13.7,-11.2,-17.6,0.283669546,0.207098605,0.392529069,-0.850001526
911,2281048,831950,-0.742,-0.517,0.736,2,33.6,12.4,13.7,-11.2,-17.6,0.283639027,0.207861568,0.392651143,-0.849787896
912,2283345,831950,-0.738,-0.532,0.736,8.6,32.6,11.8,13.7,-11.2,-17.6,0.283516953,0.208624531,0.392620624,-0.849635304
913,2285687,831950,-0.738,-0.552,0.728,22.9,30.3,10.9,17.4,-11.1,-17.4,0.28336436,0.209418012,0.392345958,-0.849635304
914,2289464,831960,-0.742,-0.556,0.721,22.9,30.3,10.9,17.4,-11.1,-17.4,0.283211768,0.210180975,0.392071291,-0.849604785
915,2291753,831960,-0.743,-0.552,0.709,30.1,28.9,10.6,17.4,-11.1,-17.4,0.283028657,0.211035493,0.391644032,-0.849665822
916,2293899,831960,-0.746,-0.544,0.705,37.1,27.4,10.4,17.4,-11.1,-17.4,0.282815027,0.211859493,0.39106418,-0.849787896
917,2296041,831960,-0.742,-0.521,0.693,43.7,25.7,10.2,17.4,-11.6,-17,0.282570879,0.212683493,0.390362255,-0.850001526
918,2299068,831970,-0.746,-0.497,0.681,50,24,10.3,17.4,-11.6,-17,0.282326731,0.213538011,0.389538255,-0.850245674
919,2300710,831970,-0.742,-0.477,0.677,56,22.1,10.5,17.4,-11.6,-17,0.282082583,0.214362011,0.388592181,-0.850550859
920,2304048,831970,-0.737,-0.45,0.661,61.6,20.1,11,17.4,-11.6,-17,0.281807917,0.215216529,0.387524033,-0.850917081
921,2305843,831970,-0.725,-0.411,0.649,66.5,18.1,11.7,17.5,-11.5,-17,0.281563768,0.216040529,0.386333811,-0.851313822
922,2308338,831980,-0.729,-0.391,0.642,70.5,16.2,12.4,17.5,-11.5,-17,0.28131962,0.216895047,0.385052034,-0.851741081
923,2310689,831980,-0.724,-0.372,0.63,73.5,14.3,13.2,17.5,-11.5,-17,0.281105991,0.217719047,0.38370922,-0.852229377
924,2313753,831980,-0.72,-0.36,0.614,75.6,12.4,14,17.5,-11.5,-17,0.28092288,0.218543046,0.382335887,-0.852717673
925,2315774,831980,-0.712,-0.337,0.606,76.7,10.5,14.9,17.5,-11.4,-16.6,0.280739769,0.219336528,0.380901517,-0.853205969
926,2318959,831990,-0.704,-0.325,0.606,76.8,8.9,15.6,17.5,-11.4,-16.6,0.280587176,0.22009949,0.379436628,-0.853694266
927,2321256,831990,-0.696,-0.317,0.601,76.2,7.6,16.3,17.5,-11.4,-16.6,0.280465102,0.220862453,0.37797174,-0.854182562
928,2323479,831990,-0.688,-0.306,0.593,74.6,6.5,17,17.5,-11.4,-16.6,0.280373547,0.221564379,0.37653737,-0.854670858
929,2325670,831990,-0.68,-0.302,0.585,72,5.4,17.6,15.6,-11.9,-16.5,0.280281991,0.222266305,0.375164037,-0.855128636
930,2328391,832000,-0.672,-0.294,0.589,68.4,4.3,18.2,15.6,-11.9,-16.5,0.280281991,0.222876675,0.373821223,-0.855555895
931,2331593,832000,-0.672,-0.291,0.581,64,3.3,18.9,15.6,-11.9,-16.5,0.280281991,0.223517563,0.372539445,-0.855952635
932,2333086,832000,-0.668,-0.279,0.573,58.9,2.3,19.5,15.6,-11.9,-16.5,0.280343028,0.224066897,0.371379742,-0.856288339
933,2336367,832000,-0.66,-0.271,0.577,47.3,0.8,20.5,15.4,-12.2,-16.1,0.28070925,0.224829859,0.370036927,-0.856532487
934,2338302,832010,-0.66,-0.271,0.577,47.3,0.8,20.5,15.4,-12.2,-16.1,0.280831324,0.225318155,0.369060335,-0.856807154
935,2341541,832010,-0.656,-0.271,0.585,41,0.3,20.9,15.4,-12.2,-16.1,0.281044954,0.225745415,0.368205817,-0.856990265
936,2343739,832010,-0.656,-0.283,0.581,34.5,-0.3,21.3,15.4,-12.2,-16.1,0.281258583,0.226111637,0.367442854,-0.857142857
937,2346015,832010,-0.652,-0.295,0.588,28.4,-0.9,21.7,14.5,-12.2,-15.9,0.28153325,0.22644734,0.366801965,-0.857234413
938,2348263,832020,-0.652,-0.311,0.592,22.5,-1.5,22,14.5,-12.2,-15.9,0.281838435,0.226722007,0.366252632,-0.85729545
939,2350960,832020,-0.641,-0.354,0.604,17,-2,22,14.5,-12.2,-15.9,0.282204657,0.226966155,0.365825373,-0.85729545
940,2354167,832020,-0.633,-0.374,0.615,12,-2.6,21.9,14.5,-12.2,-15.9,0.282570879,0.227179785,0.365459151,-0.85729545
941,2355835,832020,-0.633,-0.39,0.616,7.5,-3.1,21.6,13.5,-12.2,-16.3,0.28296762,0.227332377,0.365184484,-0.857234413
942,2358412,832030,-0.626,-0.417,0.623,3.5,-3.3,21.3,13.5,-12.2,-16.3,0.28336436,0.227454451,0.365001373,-0.857142857
943,2360726,832030,-0.615,-0.461,0.631,0,-3.4,20.9,13.5,-12.2,-16.3,0.28379162,0.227576525,0.364879299,-0.857020783
944,2364818,832030,-0.615,-0.476,0.631,-2.9,-3.6,20.6,13.5,-12.2,-16.3,0.284218879,0.227637562,0.364818262,-0.856898709
945,2367009,832030,-0.611,-0.492,0.635,-5.2,-3.9,20.2,12.7,-12.5,-15.9,0.284646138,0.227698599,0.364787744,-0.856746117
946,2369270,832040,-0.607,-0.512,0.639,-6.9,-4.3,19.8,12.7,-12.5,-15.9,0.285103916,0.227729118,0.364787744,-0.856593524
947,2371463,832040,-0.608,-0.532,0.639,-8,-4.6,19.5,12.7,-12.5,-15.9,0.285531175,0.227759636,0.364818262,-0.856410413
948,2373767,832040,-0.604,-0.544,0.631,-8.7,-5,19.2,12.7,-12.5,-15.9,0.285988952,0.227759636,0.364848781,-0.85625782
949,2375995,832040,-0.608,-0.559,0.631,-8.8,-5.3,18.9,16.4,-13.7,-16.6,0.286416211,0.227759636,0.364879299,-0.856105228
950,2378208,832050,-0.596,-0.563,0.635,-8.4,-5.7,18.6,16.4,-13.7,-16.6,0.286843471,0.227729118,0.364909818,-0.855952635
951,2380806,832050,-0.601,-0.587,0.635,-7.2,-6,18.2,16.4,-13.7,-16.6,0.28727073,0.227729118,0.364909818,-0.855800043
952,2384291,832050,-0.601,-0.595,0.631,-5.5,-6.3,17.9,16.4,-13.7,-16.6,0.287697989,0.227698599,0.364909818,-0.855677969
953,2386495,832050,-0.593,-0.611,0.635,-0.8,-6.7,17.3,13,-11.9,-16.1,0.288003174,0.227637562,0.364909818,-0.855586413
954,2388779,832060,-0.597,-0.611,0.635,-0.8,-6.7,17.3,13,-11.9,-16.1,0.288369396,0.227637562,0.364818262,-0.855494858
955,2391017,832060,-0.593,-0.618,0.635,1.9,-7,16.9,13,-11.9,-16.1,0.288735618,0.227637562,0.364635151,-0.855433821
956,2393269,832060,-0.597,-0.607,0.639,5,-7.4,16.7,13,-11.9,-16.1,0.28910184,0.227668081,0.364421522,-0.855403302
957,2395816,832060,-0.593,-0.607,0.639,8.2,-7.6,16.5,13.6,-11.8,-16.3,0.289407025,0.227698599,0.364146855,-0.855403302
958,2399255,832070,-0.597,-0.587,0.642,11.4,-7.9,16.4,13.6,-11.8,-16.3,0.289742729,0.227759636,0.363750114,-0.855433821
959,2400762,832070,-0.596,-0.575,0.631,14.4,-8.2,16.4,13.6,-11.8,-16.3,0.290017396,0.227820673,0.363383892,-0.855494858
960,2403177,832070,-0.592,-0.556,0.631,17,-8.5,16.7,13.6,-11.8,-16.3,0.290322581,0.227912229,0.362926115,-0.855555895
961,2405693,832070,-0.588,-0.54,0.623,19.2,-8.6,17,13.8,-11.6,-16.1,0.290627766,0.228003784,0.362437819,-0.85564745
962,2409055,832080,-0.587,-0.505,0.615,21,-8.8,17.2,13.8,-11.6,-16.1,0.290902432,0.228125858,0.361888485,-0.855769524
963,2410741,832080,-0.587,-0.481,0.611,22.2,-9,17.5,13.8,-11.6,-16.1,0.291177099,0.228217414,0.361339152,-0.85586108
964,2414318,832080,-0.591,-0.461,0.611,22.9,-9.1,17.8,13.8,-11.6,-16.1,0.291482284,0.228339488,0.360759301,-0.855983154
965,2415784,832080,-0.59,-0.426,0.603,22.9,-9.2,18.1,15,-11.8,-16.2,0.291787469,0.228461562,0.360179449,-0.856074709
966,2418676,832090,-0.59,-0.414,0.595,22.4,-9.3,18.5,15,-11.8,-16.2,0.292092654,0.228583636,0.359599597,-0.856196783
967,2421753,832090,-0.598,-0.406,0.587,21.2,-9.2,19,15,-11.8,-16.2,0.292397839,0.228675192,0.359050264,-0.856288339
968,2423324,832090,-0.594,-0.398,0.591,19.5,-8.9,19.7,15,-11.8,-16.2,0.292764061,0.228797266,0.358531449,-0.856349376
969,2426231,832090,-0.602,-0.39,0.587,17.5,-8.8,20.3,14.9,-14.1,-16.2,0.293099765,0.228888821,0.358043153,-0.856410413
970,2429222,832100,-0.598,-0.387,0.591,15,-8.5,20.8,14.9,-14.1,-16.2,0.293496506,0.229010895,0.357615894,-0.856440931
971,2430802,832100,-0.594,-0.387,0.587,12.2,-8.2,21.2,14.9,-14.1,-16.2,0.293893246,0.229102451,0.357219153,-0.856440931
972,2433733,832100,-0.602,-0.386,0.583,9,-8,21.7,14.9,-14.1,-16.2,0.294320505,0.229163488,0.35688345,-0.856410413
973,2435985,832100,-0.606,-0.382,0.584,2,-7.8,22.2,14.3,-11.7,-16.3,0.294869839,0.229346599,0.356578265,-0.856288339
974,2439107,832110,-0.606,-0.386,0.584,2,-7.8,22.2,14.3,-11.7,-16.3,0.295327616,0.229407636,0.356395154,-0.856196783
975,2440822,832110,-0.614,-0.382,0.584,-1.5,-7.6,22.4,14.3,-11.7,-16.3,0.295815912,0.229407636,0.35627308,-0.856074709
976,2443704,832110,-0.622,-0.386,0.58,-5,-7.4,22.7,14.3,-11.7,-16.3,0.296334727,0.229407636,0.356181524,-0.855952635
977,2446897,832110,-0.626,-0.39,0.584,-8.3,-7.2,22.8,14.5,-12.2,-16.3,0.296853542,0.229407636,0.356181524,-0.855769524
978,2449118,832120,-0.63,-0.39,0.58,-11.4,-7.2,23,14.5,-12.2,-16.3,0.297402875,0.229377117,0.356242561,-0.855555895
979,2451210,832120,-0.63,-0.394,0.584,-14.3,-7.2,23,14.5,-12.2,-16.3,0.297952208,0.22931608,0.356334117,-0.855342265
980,2453463,832120,-0.626,-0.406,0.58,-17,-7.3,23,14.5,-12.2,-16.3,0.29853206,0.229255043,0.356486709,-0.855098117
981,2455823,832120,-0.622,-0.406,0.58,-19.4,-7.4,22.9,14.5,-12.2,-16.3,0.299111911,0.229163488,0.356700339,-0.85482345
982,2458387,832130,-0.626,-0.417,0.584,-21.6,-7.5,22.8,14.5,-12.2,-16.3,0.299691763,0.229071932,0.356944487,-0.854548784
983,2461727,832130,-0.626,-0.421,0.588,-23.5,-7.7,22.6,14.5,-12.2,-16.3,0.300302133,0.228949858,0.357219153,-0.854243599
984,2463324,832130,-0.622,-0.441,0.596,-25.2,-7.8,22.3,14.5,-12.2,-16.3,0.300912503,0.228797266,0.357524339,-0.853938414
985,2465819,832130,-0.618,-0.449,0.6,-26.5,-7.8,22.2,14.5,-12.2,-16.3,0.301522874,0.228675192,0.357860042,-0.853633229
986,2470099,832140,-0.619,-0.457,0.6,-27.3,-7.9,22,14.5,-12.2,-16.3,0.302133244,0.228522599,0.358195746,-0.853328043
987,2471752,832140,-0.615,-0.469,0.604,-27.7,-8.2,21.9,14.5,-12.2,-16.3,0.302743614,0.228339488,0.358561968,-0.85299234
988,2473338,832140,-0.615,-0.477,0.607,-27.8,-8.4,21.7,14.5,-12.2,-16.3,0.303353984,0.228156377,0.358897671,-0.852687155
989,2475888,832140,-0.619,-0.484,0.604,-27.8,-8.7,21.4,14.2,-12.2,-16.4,0.303964354,0.228003784,0.359263894,-0.852351451
990,2479114,832150,-0.619,-0.492,0.612,-27.7,-9,21.2,14.2,-12.2,-16.4,0.304544206,0.227759636,0.359599597,-0.852046266
991,2481266,832150,-0.623,-0.496,0.608,-27.2,-9.4,21,14.2,-12.2,-16.4,0.305154576,0.227607044,0.359935301,-0.851741081
992,2483543,832150,-0.623,-0.5,0.619,-26.2,-9.6,20.8,14.2,-12.2,-16.4,0.305734428,0.227423933,0.360271004,-0.851435896
993,2485824,832150,-0.619,-0.504,0.623,-23.3,-10.1,20.3,14.2,-12.2,-16.4,0.306283761,0.227301859,0.360667745,-0.851100192
994,2488439,832160,-0.619,-0.504,0.623,-23.3,-10.1,20.3,14.2,-12.2,-16.4,0.306863613,0.227118748,0.360911893,-0.850856044
995,2490769,832160,-0.619,-0.504,0.635,-21.5,-10.5,20.1,14.2,-12.2,-16.4,0.307443464,0.226935636,0.361156041,-0.850581378
996,2494083,832160,-0.619,-0.508,0.643,-19.6,-11,20,14.2,-12.2,-16.4,0.307992798,0.226752525,0.361339152,-0.850367748
997,2496318,832160,-0.619,-0.508,0.647,-17.6,-11.4,19.7,14.2,-12.2,-16.4,0.308542131,0.226569414,0.361491745,-0.850154118
998,2498537,832170,-0.615,-0.508,0.651,-15.5,-11.8,19.5,14.2,-12.2,-16.4,0.309060945,0.226416822,0.361613819,-0.849940489
999,2500948,832170,-0.607,-0.504,0.654,-13.3,-12.2,19.1,14.2,-12.2,-16.4,0.30957976,0.226233711,0.361674856,-0.849757378
1000,2504028,832170,-0.607,-0.5,0.662,-11.2,-12.5,18.8,14.2,-12.2,-16.4,0.310098575,0.226081118,0.361705374,-0.849604785
1001,2505744,832170,-0.607,-0.5,0.658,-9.2,-12.8,18.5,14.2,-12.2,-16.4,0.310586871,0.225928526,0.361705374,-0.849482711
1002,2509198,832180,-0.607,-0.496,0.662,-7.3,-13,18.3,14.2,-12.2,-16.4,0.31101413,0.225775933,0.361644337,-0.849360637
1003,2510802,832180,-0.607,-0.481,0.666,-5.7,-13.2,18.2,14.2,-12.2,-16.4,0.311532945,0.225653859,0.3615833,-0.849269082
1004,2513418,832180,-0.606,-0.465,0.666,-4.3,-13.3,18.1,14.2,-12.2,-16.4,0.311990722,0.225501267,0.361491745,-0.849177526
1005,2515657,832180,-0.606,-0.457,0.666,-3.2,-13.4,18,14.2,-12.2,-16.4,0.3124485,0.225379192,0.361369671,-0.849085971
1006,2519062,832190,-0.61,-0.433,0.666,-2.4,-13.5,17.9,14.2,-12.2,-16.4,0.312906278,0.225257118,0.361217078,-0.849024934
1007,2521226,832190,-0.61,-0.422,0.666,-1.8,-13.6,18,14.2,-12.2,-16.4,0.313364055,0.225135044,0.361064486,-0.848933378
1008,2523149,832190,-0.61,-0.41,0.666,-1.5,-13.5,18.3,14.2,-12.2,-16.4,0.313791314,0.22501297,0.360911893,-0.848872341
1009,2526735,832190,-0.61,-0.406,0.666,-1.4,-13.4,18.7,14,-13,-18.3,0.314279611,0.224890896,0.360759301,-0.848780786
1010,2528180,832200,-0.609,-0.394,0.67,-1.6,-13.4,18.9,14,-13,-18.3,0.314737388,0.224799341,0.360606708,-0.848719749
1011,2531859,832200,-0.605,-0.39,0.673,-2,-13.4,19.1,14,-13,-18.3,0.315195166,0.224677267,0.360454115,-0.848628193
1012,2533443,832200,-0.609,-0.39,0.673,-2.7,-13.3,19.2,14,-13,-18.3,0.315683462,0.224555193,0.360332041,-0.848536637
1013,2536712,832200,-0.601,-0.39,0.665,-4.9,-13.2,19.4,13.7,-12.2,-18,0.316446425,0.22461623,0.359630116,-0.848536637
1014,2538848,832210,-0.605,-0.39,0.673,-4.9,-13.2,19.4,13.7,-12.2,-18,0.316934721,0.224463637,0.35953856,-0.848445082
1015,2541088,832210,-0.605,-0.386,0.673,-6.4,-13,19.5,13.7,-12.2,-18,0.317423017,0.224341563,0.359477523,-0.848323008
1016,2543408,832210,-0.609,-0.39,0.67,-8.1,-12.6,19.6,13.7,-12.2,-18,0.317911313,0.224219489,0.359447005,-0.848170415
1017,2545928,832210,-0.613,-0.39,0.67,-9.8,-12.2,19.7,13.8,-12,-17.8,0.318430128,0.224066897,0.359447005,-0.848017823
1018,2548205,832220,-0.613,-0.39,0.674,-11.5,-11.9,19.8,13.8,-12,-17.8,0.318948943,0.223914304,0.359477523,-0.84786523
1019,2551759,832220,-0.613,-0.39,0.662,-13,-11.6,19.9,13.8,-12,-17.8,0.319467757,0.223761711,0.35953856,-0.847682119
1020,2553284,832220,-0.617,-0.39,0.67,-14.5,-11.5,20,13.8,-12,-17.8,0.32001709,0.223609119,0.359630116,-0.84746849
1021,2555669,832220,-0.609,-0.398,0.662,-15.7,-11.4,20.2,13.6,-11.7,-18.5,0.320535905,0.223456526,0.359721671,-0.84725486
1022,2558165,832230,-0.617,-0.398,0.666,-16.8,-11.3,20.4,13.6,-11.7,-18.5,0.321085238,0.223273415,0.359843745,-0.847041231
1023,2561665,832230,-0.617,-0.402,0.666,-17.7,-11.3,20.5,13.6,-11.7,-18.5,0.32166509,0.223120823,0.360026856,-0.846827601
1024,2563454,832230,-0.617,-0.406,0.67,-18.5,-11.2,20.6,13.6,-11.7,-18.5,0.322214423,0.222937712,0.360179449,-0.846583453
1025,2566908,832230,-0.618,-0.417,0.682,-19.1,-11.2,20.6,13.6,-11.7,-18.5,0.322733238,0.222754601,0.36036256,-0.846339305
