sample_index,elapsed_us,device_time_ms,acc_x_g,acc_y_g,acc_z_g,gyro_x_dps,gyro_y_dps,gyro_z_dps,mag_x_ut,mag_y_ut,mag_z_ut,quat_w,quat_x,quat_y,quat_z
0,3945,1771620,0.988,0.036,-0.03,0,0,0,-34.2,6.2,27.2,0.160222175,0.706930754,-0.137119663,0.675099948
1,6321,1771620,0.985,0.04,-0.038,0,0,0,-34.2,6.2,27.1,0.160222175,0.706930754,-0.137119663,0.675099948
2,8498,1771620,0.985,0.044,-0.038,0,0,0,-34.2,6.2,27.1,0.160222175,0.706930754,-0.137119663,0.675099948
3,10806,1771630,0.988,0.036,-0.038,0,0,-0.1,-34.2,6.2,27.1,0.160222175,0.706930754,-0.137089145,0.675099948
4,13298,1771630,0.985,0.044,-0.034,0,-0.1,-0.1,-34.2,6.2,27.1,0.160222175,0.706930754,-0.137089145,0.67506943
5,17436,1771630,0.988,0.044,-0.038,0,0,0,-35.5,6.2,27.2,0.160222175,0.706930754,-0.137089145,0.67506943
6,19712,1771630,0.988,0.04,-0.03,0.1,0.1,0.1,-35.5,6.2,27.2,0.160222175,0.706930754,-0.137089145,0.67506943
7,21935,1771640,0.985,0.044,-0.034,0,0.2,0.1,-35.5,6.2,27.2,0.160222175,0.706930754,-0.137089145,0.67506943
8,23459,1771640,0.988,0.04,-0.038,0,0.1,0,-35.5,6.2,27.2,0.160222175,0.706930754,-0.137089145,0.67506943
9,26443,1771640,0.988,0.036,-0.034,0,0,0,-35.3,6.2,27.2,0.160222175,0.706930754,-0.137089145,0.67506943
10,28686,1771640,0.985,0.04,-0.038,0,0,0,-35.3,6.2,27.2,0.160222175,0.706930754,-0.137089145,0.67506943
11,30900,1771650,0.985,0.04,-0.034,0,0,0,-35.3,6.2,27.2,0.160222175,0.706930754,-0.137089145,0.67506943
12,33179,1771650,0.985,0.036,-0.034,0,0,0,-35.3,6.2,27.2,0.160222175,0.706930754,-0.137089145,0.67506943
13,35656,1771650,0.985,0.04,-0.038,0,0,0,-34.8,6.3,27.3,0.160222175,0.706930754,-0.137089145,0.67506943
14,39129,1771650,0.985,0.04,-0.03,0,0,0,-34.8,6.3,27.3,0.160222175,0.706930754,-0.137089145,0.67506943
15,40657,1771660,0.985,0.036,-0.038,0,-0.1,0,-34.8,6.3,27.3,0.160222175,0.706930754,-0.137089145,0.67506943
16,43401,1771660,0.985,0.04,-0.034,0,0,0,-34.8,6.3,27.3,0.160222175,0.706930754,-0.137089145,0.67506943
17,46411,1771660,0.988,0.036,-0.038,0,0,0,-35.3,6.2,27.5,0.160222175,0.706930754,-0.137089145,0.67506943
18,48183,1771660,0.985,0.04,-0.034,0,0.1,0.1,-35.3,6.2,27.5,0.160222175,0.706930754,-0.137089145,0.67506943
19,51720,1771670,0.992,0.04,-0.03,0,0.1,0,-35.3,6.2,27.5,0.160222175,0.706930754,-0.137089145,0.67506943
20,55678,1771670,0.985,0.044,-0.038,0,0,0,-35.3,6.2,27.5,0.160222175,0.706930754,-0.137089145,0.67506943
21,55678,1771670,0.988,0.04,-0.034,0,0,0,-35.2,6.2,27.3,0.160222175,0.706930754,-0.137089145,0.67506943
22,59262,1771670,0.988,0.04,-0.034,0,0,0,-35.2,6.2,27.3,0.160222175,0.706930754,-0.137089145,0.67506943
23,60702,1771680,0.985,0.036,-0.034,0,0,0,-35.2,6.2,27.3,0.160222175,0.706930754,-0.137089145,0.67506943
24,63814,1771680,0.985,0.04,-0.042,0,0,0,-35.2,6.2,27.3,0.160191656,0.706930754,-0.137089145,0.675099948
25,66631,1771680,0.985,0.032,-0.038,0.1,0.1,0.1,-35.3,6.2,26.8,0.160191656,0.706930754,-0.137119663,0.675099948
26,68191,1771680,0.985,0.036,-0.034,0,0.1,0,-35.3,6.2,26.8,0.160191656,0.706930754,-0.137119663,0.675099948
27,71243,1771690,0.988,0.036,-0.03,0,0.1,0,-35.3,6.2,26.8,0.160191656,0.706930754,-0.137119663,0.675099948
28,73990,1771690,0.981,0.036,-0.034,0,0,-0.1,-35.3,6.2,26.8,0.160191656,0.706930754,-0.137119663,0.675099948
29,75782,1771690,0.992,0.04,-0.038,0,-0.1,-0.1,-35.1,6.7,27.9,0.160191656,0.706930754,-0.137119663,0.675099948
30,79301,1771690,0.992,0.04,-0.034,0,-0.1,-0.2,-35.1,6.7,27.9,0.160191656,0.706930754,-0.137089145,0.675099948
31,81258,1771700,0.985,0.036,-0.042,0,0,-0.3,-35.1,6.7,27.9,0.160191656,0.706930754,-0.137089145,0.675099948
32,84109,1771700,0.988,0.036,-0.042,0,0,-0.1,-35.1,6.7,27.9,0.160191656,0.706930754,-0.137089145,0.675099948
33,85771,1771700,0.985,0.044,-0.038,0,0.1,0,-35.5,6.2,28.3,0.160191656,0.706930754,-0.137089145,0.675099948
34,88664,1771700,0.985,0.036,-0.042,0,0.1,0.1,-35.5,6.2,28.3,0.160191656,0.706930754,-0.137089145,0.675099948
35,91691,1771710,0.985,0.044,-0.042,-0.1,0.1,0.1,-35.5,6.2,28.3,0.160191656,0.706930754,-0.137089145,0.675099948
36,93219,1771710,0.985,0.04,-0.046,-0.1,0.2,0,-35.5,6.2,28.3,0.160191656,0.706900235,-0.137119663,0.675099948
37,96252,1771710,0.981,0.04,-0.038,-0.1,0.1,0,-35.5,6.4,29,0.160191656,0.706900235,-0.137119663,0.675099948
38,98405,1771710,0.985,0.044,-0.038,0,0.1,0,-35.5,6.4,29,0.160222175,0.706900235,-0.137119663,0.675099948
39,101453,1771720,0.988,0.04,-0.038,0,0,0,-35.5,6.4,29,0.160222175,0.706900235,-0.137119663,0.675099948
40,104516,1771720,0.985,0.04,-0.026,0,0,0,-35.5,6.4,29,0.160222175,0.706900235,-0.137119663,0.675099948
41,107022,1771720,0.988,0.036,-0.03,0,0,0,-35.7,6.1,29.1,0.160222175,0.706900235,-0.137119663,0.675099948
42,109912,1771720,0.981,0.036,-0.034,0,0.1,0,-35.7,6.1,29.1,0.160222175,0.706900235,-0.137119663,0.675099948
43,111702,1771730,0.985,0.044,-0.038,0,0.1,-0.1,-35.7,6.1,29.1,0.160222175,0.706900235,-0.137119663,0.675099948
44,113977,1771730,0.988,0.04,-0.034,0,0,-0.1,-35.7,6.1,29.1,0.160222175,0.706900235,-0.137119663,0.675099948
45,116144,1771730,0.988,0.036,-0.038,0,0.1,-0.1,-35.6,6.3,25.7,0.160222175,0.706869716,-0.137119663,0.675130467
46,118438,1771730,0.988,0.036,-0.038,0.1,0,-0.1,-35.6,6.3,25.7,0.160222175,0.706869716,-0.137119663,0.675130467
47,122537,1771740,0.988,0.04,-0.042,0.1,0,-0.1,-35.6,6.3,25.7,0.160222175,0.706869716,-0.137089145,0.675130467
48,123245,1771740,0.985,0.04,-0.038,0,0,0,-35.6,6.3,25.7,0.160222175,0.706869716,-0.137089145,0.675130467
49,125870,1771740,0.992,0.044,-0.038,0,0,0,-35.3,5.8,27.8,0.160222175,0.706869716,-0.137089145,0.675130467
50,129916,1771740,0.985,0.036,-0.034,0,-0.1,0,-35.3,5.8,27.8,0.160222175,0.706869716,-0.137089145,0.675130467
51,132129,1771750,0.988,0.036,-0.038,0,-0.1,0,-35.3,5.8,27.8,0.160222175,0.706869716,-0.137119663,0.675130467
52,134504,1771750,0.988,0.044,-0.038,0,0,0,-35.3,5.8,27.8,0.160222175,0.706869716,-0.137119663,0.675130467
53,137040,1771750,0.985,0.044,-0.038,0,0,0,-35.2,6.2,27.2,0.160222175,0.706869716,-0.137119663,0.675130467
54,139195,1771750,0.985,0.04,-0.034,0,0.1,-0.1,-35.2,6.2,27.2,0.160222175,0.706869716,-0.137119663,0.675130467
55,140810,1771760,0.981,0.04,-0.038,0,0.2,-0.1,-35.2,6.2,27.2,0.160222175,0.706869716,-0.137089145,0.675130467
56,143457,1771760,0.985,0.044,-0.034,0,0.2,0,-35.2,6.2,27.2,0.160222175,0.706869716,-0.137089145,0.675130467
57,146892,1771760,0.985,0.04,-0.034,0,0.1,0,-35.5,5.8,26.6,0.160222175,0.706869716,-0.137089145,0.675130467
58,148539,1771760,0.981,0.04,-0.034,0,0,0,-35.5,5.8,26.6,0.160222175,0.706869716,-0.137089145,0.675130467
59,151007,1771770,0.985,0.044,-0.034,0,0,0,-35.5,5.8,26.6,0.160222175,0.706869716,-0.137089145,0.675130467
60,155446,1771770,0.985,0.04,-0.034,0,0,0,-35.5,5.8,26.6,0.160222175,0.706869716,-0.137089145,0.675130467
61,156581,1771770,0.988,0.04,-0.034,0,0,0,-35.4,6.2,26.1,0.160222175,0.706869716,-0.137089145,0.675130467
62,158440,1771770,0.985,0.04,-0.038,0.1,0.1,0,-35.4,6.2,26.1,0.160222175,0.706869716,-0.137089145,0.675130467
63,161103,1771780,0.988,0.044,-0.038,0.1,0.1,0.1,-35.4,6.2,26.1,0.160222175,0.706869716,-0.137089145,0.675130467
64,163374,1771780,0.988,0.04,-0.034,0.1,0.1,0.1,-35.4,6.2,26.1,0.160222175,0.706869716,-0.137089145,0.675160985
65,165988,1771780,0.985,0.044,-0.038,0.1,0.1,0,-35.3,6.2,27.1,0.160222175,0.706869716,-0.137089145,0.675160985
66,170140,1771780,0.985,0.036,-0.034,0,0,-0.1,-35.3,6.2,27.1,0.160222175,0.706869716,-0.137089145,0.675160985
67,170743,1771790,0.988,0.036,-0.03,0,0,-0.1,-35.3,6.2,27.1,0.160222175,0.706869716,-0.137089145,0.675130467
68,174536,1771790,0.981,0.04,-0.038,-0.1,0,0,-35.3,6.2,27.1,0.160222175,0.706869716,-0.137089145,0.675130467
69,176824,1771790,0.981,0.036,-0.034,0,0,0.1,-35,6.2,26.6,0.160222175,0.706869716,-0.137089145,0.675160985
70,178503,1771790,0.981,0.036,-0.042,0,0.1,0.2,-35,6.2,26.6,0.160222175,0.706869716,-0.137089145,0.675160985
71,181534,1771800,0.985,0.04,-0.034,0,0,0.1,-35,6.2,26.6,0.160222175,0.706869716,-0.137089145,0.675160985
72,183823,1771800,0.985,0.036,-0.038,0,0,0,-35,6.2,26.6,0.160222175,0.706869716,-0.137089145,0.675160985
73,186785,1771800,0.988,0.036,-0.03,0,-0.1,0,-35,6.2,26.7,0.160222175,0.706869716,-0.137089145,0.675160985
74,188383,1771800,0.988,0.04,-0.038,0.1,-0.1,0,-35,6.2,26.7,0.160222175,0.706869716,-0.137089145,0.675130467
75,190700,1771810,0.988,0.036,-0.042,0.1,-0.1,0,-35,6.2,26.7,0.160222175,0.706869716,-0.137089145,0.675130467
76,193311,1771810,0.992,0.04,-0.038,0.1,-0.1,0,-35,6.2,26.7,0.160222175,0.706869716,-0.137089145,0.675130467
77,196031,1771810,0.988,0.036,-0.03,0,0,0,-35.2,6.5,27,0.160191656,0.706869716,-0.137089145,0.675130467
78,198217,1771810,0.985,0.04,-0.034,0,0,-0.1,-35.2,6.5,27,0.160222175,0.706869716,-0.137089145,0.675130467
79,202276,1771820,0.988,0.04,-0.034,-0.1,0,-0.1,-35.2,6.5,27,0.160222175,0.706869716,-0.137089145,0.675130467
80,204496,1771820,0.981,0.04,-0.034,-0.1,0,0,-35.2,6.5,27,0.160222175,0.706869716,-0.137089145,0.675130467
81,206717,1771820,0.985,0.04,-0.042,-0.1,0,0,-35.3,6.1,26.5,0.160222175,0.706869716,-0.137089145,0.675130467
82,208265,1771820,0.988,0.04,-0.034,0,0,0,-35.3,6.1,26.5,0.160222175,0.706869716,-0.137089145,0.675130467
83,210667,1771830,0.985,0.04,-0.034,0,0,0,-35.3,6.1,26.5,0.160222175,0.706869716,-0.137089145,0.675130467
84,213862,1771830,0.988,0.04,-0.038,0,0,0,-35.3,6.1,26.5,0.160222175,0.706869716,-0.137089145,0.675130467
85,215955,1771830,0.985,0.04,-0.03,0,-0.1,0,-35.4,6.3,28,0.160222175,0.706900235,-0.137119663,0.675130467
86,219148,1771830,0.985,0.036,-0.042,0,-0.2,0,-35.4,6.3,28,0.160222175,0.706900235,-0.137119663,0.675130467
87,221292,1771840,0.985,0.04,-0.034,0,-0.1,0,-35.4,6.3,28,0.160222175,0.706900235,-0.137119663,0.675099948
88,223192,1771840,0.985,0.036,-0.034,0.1,0,0,-35.4,6.3,28,0.160222175,0.706900235,-0.137119663,0.675099948
89,226379,1771840,0.985,0.04,-0.034,0.1,0,0,-35.2,5.2,26.5,0.160222175,0.706900235,-0.137119663,0.675130467
90,228472,1771840,0.985,0.04,-0.03,0,0.1,0,-35.2,5.2,26.5,0.160222175,0.706900235,-0.137089145,0.675130467
91,230747,1771850,0.988,0.04,-0.042,0,0.1,0,-35.2,5.2,26.5,0.160222175,0.706900235,-0.137089145,0.675130467
92,233367,1771850,0.988,0.04,-0.042,0,0.1,0,-35.2,5.2,26.5,0.160222175,0.706900235,-0.137089145,0.675130467
93,236884,1771850,0.985,0.036,-0.03,0,0,0,-35.6,5.2,26.7,0.160222175,0.706900235,-0.137089145,0.675130467
94,238324,1771850,0.988,0.04,-0.038,0,0,-0.1,-35.6,5.2,26.7,0.160222175,0.706900235,-0.137089145,0.675130467
95,240915,1771860,0.985,0.036,-0.034,0,0,-0.1,-35.6,5.2,26.7,0.160222175,0.706900235,-0.137089145,0.675130467
96,244086,1771860,0.985,0.04,-0.038,0.1,0,0,-35.6,5.2,26.7,0.160222175,0.706900235,-0.137089145,0.675130467
97,245751,1771860,0.985,0.04,-0.038,0.1,0.2,0,-35.5,4.5,26.6,0.160222175,0.706900235,-0.137089145,0.675130467
98,248429,1771860,0.985,0.04,-0.034,0,0.3,0,-35.5,4.5,26.6,0.160222175,0.706869716,-0.137089145,0.675130467
99,251441,1771870,0.988,0.044,-0.034,0,0.3,0.1,-35.5,4.5,26.6,0.160222175,0.706869716,-0.137089145,0.675130467
100,255232,1771870,0.981,0.036,-0.038,0,0.2,0,-35.5,4.5,26.6,0.160222175,0.706869716,-0.137089145,0.675130467
101,255869,1771870,0.988,0.04,-0.03,0,0.1,0,-35.3,4.1,26.7,0.160222175,0.706869716,-0.137089145,0.675130467
102,259064,1771870,0.988,0.04,-0.042,0,0,-0.1,-35.3,4.1,26.7,0.160222175,0.706869716,-0.137089145,0.675130467
103,261348,1771880,0.988,0.04,-0.042,0.1,-0.1,-0.2,-35.3,4.1,26.7,0.160222175,0.706869716,-0.137089145,0.675130467
104,263502,1771880,0.988,0.04,-0.038,0.1,0,-0.2,-35.3,4.1,26.7,0.160222175,0.706869716,-0.137089145,0.675130467
105,265815,1771880,0.985,0.032,-0.038,0.1,0,-0.1,-35.5,7.7,28.3,0.160191656,0.706900235,-0.137089145,0.675130467
106,268464,1771880,0.985,0.032,-0.038,0,0,0,-35.5,7.7,28.3,0.160191656,0.706900235,-0.137089145,0.675130467
107,271820,1771890,0.985,0.04,-0.038,0,0,0,-35.5,7.7,28.3,0.160191656,0.706900235,-0.137089145,0.675130467
108,273298,1771890,0.985,0.044,-0.038,0,0.1,0,-35.5,7.7,28.3,0.160191656,0.706900235,-0.137089145,0.675130467
109,276606,1771890,0.985,0.04,-0.034,0,0.1,0,-35.5,5.3,26.7,0.160191656,0.706900235,-0.137089145,0.675130467
110,278412,1771890,0.985,0.04,-0.034,0,0.1,0,-35.5,5.3,26.7,0.160191656,0.706900235,-0.137089145,0.675130467
111,282213,1771900,0.988,0.04,-0.034,0,0.1,-0.1,-35.5,5.3,26.7,0.160191656,0.706900235,-0.137089145,0.675130467
112,284391,1771900,0.985,0.04,-0.034,0,0.1,0,-35.5,5.3,26.7,0.160191656,0.706900235,-0.137089145,0.675130467
113,285993,1771900,0.981,0.04,-0.034,0,0.1,0,-35.5,5.4,26.5,0.160222175,0.706869716,-0.137089145,0.675130467
114,288281,1771900,0.985,0.044,-0.038,0,0.1,0,-35.5,5.4,26.5,0.160222175,0.706869716,-0.137089145,0.675130467
115,292295,1771910,0.985,0.036,-0.03,-0.1,0.1,0,-35.5,5.4,26.5,0.160222175,0.706869716,-0.137089145,0.675130467
116,294474,1771910,0.985,0.04,-0.042,0,0.1,0,-35.5,5.4,26.5,0.160222175,0.706869716,-0.137089145,0.675130467
117,296741,1771910,0.988,0.04,-0.03,0,0.1,-0.1,-35,5.6,26.6,0.160222175,0.706869716,-0.137089145,0.675130467
118,299096,1771910,0.988,0.04,-0.034,0,0,-0.1,-35,5.6,26.6,0.160222175,0.706869716,-0.137089145,0.675130467
119,301518,1771920,0.988,0.04,-0.03,0,0,-0.1,-35,5.6,26.6,0.160222175,0.706869716,-0.137089145,0.675130467
120,303749,1771920,0.985,0.036,-0.038,0,-0.1,-0.1,-35,5.6,26.6,0.160222175,0.706869716,-0.137058626,0.675130467
121,305965,1771920,0.988,0.04,-0.034,0,-0.1,0,-35.5,6.5,26.9,0.160222175,0.706869716,-0.137058626,0.675130467
122,308267,1771920,0.981,0.036,-0.034,0,0,0,-35.5,6.5,26.9,0.160222175,0.706869716,-0.137058626,0.675130467
123,310753,1771930,0.985,0.04,-0.038,0,0,0,-35.5,6.5,26.9,0.160222175,0.706869716,-0.137058626,0.675130467
124,314338,1771930,0.981,0.04,-0.034,0,0.1,0,-35.5,6.5,26.9,0.160222175,0.706869716,-0.137058626,0.675130467
125,316470,1771930,0.981,0.036,-0.03,0,0,0,-35.4,6.6,26.8,0.160222175,0.706869716,-0.137089145,0.675160985
126,318682,1771930,0.981,0.036,-0.03,0,0.1,0,-35.4,6.6,26.8,0.160222175,0.706869716,-0.137089145,0.675160985
127,320913,1771940,0.985,0.04,-0.038,0,0,0,-35.4,6.6,26.8,0.160222175,0.706869716,-0.137089145,0.675160985
128,323237,1771940,0.988,0.04,-0.038,0,0,-0.1,-35.4,6.6,26.8,0.160222175,0.706869716,-0.137058626,0.675160985
129,326649,1771940,0.988,0.04,-0.038,0,0,-0.1,-35.5,6.5,27,0.160222175,0.706869716,-0.137058626,0.675160985
130,328282,1771940,0.985,0.04,-0.042,0,-0.1,-0.1,-35.5,6.5,27,0.160222175,0.706869716,-0.137058626,0.675130467
131,330895,1771950,0.992,0.04,-0.034,0,-0.1,-0.1,-35.5,6.5,27,0.160222175,0.706869716,-0.137058626,0.675130467
132,334978,1771950,0.992,0.036,-0.038,0,-0.1,-0.1,-35.5,6.5,27,0.160222175,0.706869716,-0.137058626,0.675130467
133,335676,1771950,0.985,0.044,-0.042,0,0,-0.1,-35.6,6.9,27.4,0.160222175,0.706869716,-0.137058626,0.675130467
134,339708,1771950,0.988,0.04,-0.038,0,0,0,-35.6,6.9,27.4,0.160222175,0.706869716,-0.137058626,0.675130467
135,341662,1771960,0.985,0.04,-0.038,0.1,0.1,0.1,-35.6,6.9,27.4,0.160222175,0.706869716,-0.137058626,0.675130467
136,343893,1771960,0.985,0.036,-0.038,0.1,0.2,0.1,-35.6,6.9,27.4,0.160222175,0.706869716,-0.137058626,0.675130467
137,346097,1771960,0.985,0.04,-0.038,0.1,0.2,0,-35.4,6.9,27.2,0.160222175,0.706869716,-0.137058626,0.675160985
138,348399,1771960,0.985,0.044,-0.038,0,0.1,0,-35.4,6.9,27.2,0.160222175,0.706869716,-0.137058626,0.675160985
139,351012,1771970,0.992,0.04,-0.034,0,0,0,-35.4,6.9,27.2,0.160222175,0.706869716,-0.137058626,0.675160985
140,355058,1771970,0.988,0.04,-0.038,-0.1,0,0,-35.4,6.9,27.2,0.160222175,0.706869716,-0.137058626,0.675160985
141,355549,1771970,0.985,0.04,-0.038,-0.1,0,0,-35.5,6.8,27.2,0.160222175,0.706869716,-0.137058626,0.675160985
142,358913,1771970,0.988,0.044,-0.042,0,-0.1,0.2,-35.5,6.8,27.2,0.160222175,0.706869716,-0.137058626,0.675160985
143,360694,1771980,0.988,0.04,-0.034,0,-0.1,0.1,-35.5,6.8,27.2,0.160222175,0.706869716,-0.137058626,0.675160985
144,363169,1771980,0.985,0.04,-0.034,0,-0.1,0,-35.5,6.8,27.2,0.160222175,0.706869716,-0.137058626,0.675130467
145,366300,1771980,0.988,0.044,-0.038,0,-0.1,-0.1,-35.3,5.2,27,0.160222175,0.706900235,-0.137058626,0.675130467
146,368582,1771980,0.988,0.048,-0.038,0,-0.1,-0.1,-35.3,5.2,27,0.160222175,0.706900235,-0.137058626,0.675130467
147,370801,1771990,0.985,0.044,-0.038,0,-0.1,-0.1,-35.3,5.2,27,0.160222175,0.706900235,-0.137058626,0.675130467
148,373335,1771990,0.988,0.04,-0.038,0,0,-0.1,-35.3,5.2,27,0.160222175,0.706900235,-0.137058626,0.675130467
149,375904,1771990,0.985,0.04,-0.034,0,0,0,-36,6.8,27,0.160222175,0.706900235,-0.137058626,0.675130467
150,379887,1771990,0.981,0.04,-0.038,0,0,0,-36,6.8,27,0.160222175,0.706900235,-0.137058626,0.675130467
151,382158,1772000,0.988,0.04,-0.038,-0.1,0,0,-36,6.8,27,0.160222175,0.706900235,-0.137058626,0.675130467
152,384312,1772000,0.985,0.036,-0.03,0,0,0,-36,6.8,27,0.160222175,0.706900235,-0.137058626,0.675130467
153,386011,1772000,0.981,0.044,-0.034,0,0,0,-36.5,6.7,27.1,0.160222175,0.706900235,-0.137058626,0.675130467
154,388361,1772000,0.988,0.04,-0.034,0,0,0,-36.5,6.7,27.1,0.160222175,0.706900235,-0.137058626,0.675130467
155,391597,1772010,0.985,0.036,-0.034,0,0,0,-36.5,6.7,27.1,0.160222175,0.706900235,-0.137058626,0.675130467
156,393229,1772010,0.988,0.04,-0.038,0,0,0,-36.5,6.7,27.1,0.160222175,0.706900235,-0.137058626,0.675130467
157,396891,1772010,0.988,0.036,-0.034,0,0,0,-37.3,6.8,27.3,0.160222175,0.706900235,-0.137058626,0.675130467
158,399300,1772010,0.985,0.04,-0.034,0,0,-0.1,-37.3,6.8,27.3,0.160222175,0.706900235,-0.137058626,0.675130467
159,400819,1772020,0.985,0.04,-0.038,0,0,-0.1,-37.3,6.8,27.3,0.160222175,0.706900235,-0.137058626,0.675130467
160,404711,1772020,0.988,0.044,-0.034,0,0,0,-37.3,6.8,27.3,0.160222175,0.706900235,-0.137058626,0.675130467
161,406945,1772020,0.988,0.04,-0.038,0.1,-0.1,0,-37.7,6.7,27.3,0.160222175,0.706900235,-0.137058626,0.675130467
162,409208,1772020,0.988,0.044,-0.034,0.1,-0.1,0,-37.7,6.7,27.3,0.160222175,0.706900235,-0.137058626,0.675130467
163,411382,1772030,0.988,0.04,-0.038,0.1,-0.1,0,-37.7,6.7,27.3,0.160222175,0.706900235,-0.137058626,0.675099948
164,414472,1772030,0.988,0.04,-0.03,0.1,0,0.1,-37.7,6.7,27.3,0.160222175,0.706900235,-0.137058626,0.675099948
165,417313,1772030,0.985,0.044,-0.038,0,0.1,0,-34.5,4.8,27.3,0.160222175,0.706900235,-0.137058626,0.675130467
166,418814,1772030,0.985,0.044,-0.038,0.1,0.1,0,-34.5,4.8,27.3,0.160222175,0.706900235,-0.137058626,0.675130467
167,421793,1772040,0.985,0.04,-0.038,0.1,0.1,0,-34.5,4.8,27.3,0.160222175,0.706900235,-0.137058626,0.675130467
168,423296,1772040,0.985,0.036,-0.038,0.1,0.1,-0.1,-34.5,4.8,27.3,0.160222175,0.706900235,-0.137058626,0.675130467
169,426304,1772040,0.985,0.044,-0.03,0,0,-0.1,-37.1,7.3,27.2,0.160222175,0.706900235,-0.137028108,0.675130467
170,429294,1772040,0.985,0.04,-0.038,-0.1,-0.1,-0.1,-37.1,7.3,27.2,0.160222175,0.706900235,-0.137028108,0.675130467
171,430817,1772050,0.985,0.036,-0.038,-0.1,-0.2,-0.1,-37.1,7.3,27.2,0.160222175,0.706900235,-0.137028108,0.675130467
172,433814,1772050,0.992,0.04,-0.034,-0.1,-0.3,0,-37.1,7.3,27.2,0.160222175,0.706900235,-0.137058626,0.675130467
173,436869,1772050,0.988,0.04,-0.03,0,-0.3,0,-37.1,7.4,27,0.160222175,0.706900235,-0.137058626,0.675099948
174,438326,1772050,0.985,0.04,-0.034,0,-0.3,0,-37.1,7.4,27,0.160222175,0.706900235,-0.137058626,0.675099948
175,441406,1772060,0.988,0.04,-0.042,0,-0.3,0,-37.1,7.4,27,0.160222175,0.706930754,-0.137058626,0.675099948
176,444369,1772060,0.985,0.044,-0.038,0,-0.2,0,-37.1,7.4,27,0.160222175,0.706930754,-0.137058626,0.675099948
177,445873,1772060,0.985,0.04,-0.042,0,-0.1,0.1,-36.5,7.6,26.9,0.160222175,0.706930754,-0.137058626,0.675099948
178,448936,1772060,0.988,0.044,-0.034,0,-0.1,0,-36.5,7.6,26.9,0.160222175,0.706930754,-0.137058626,0.675099948
179,451845,1772070,0.985,0.044,-0.038,0,0,0,-36.5,7.6,26.9,0.160222175,0.706930754,-0.137058626,0.675099948
180,455042,1772070,0.985,0.036,-0.034,0,0,0,-36.5,7.6,26.9,0.160222175,0.706930754,-0.137058626,0.675099948
181,456549,1772070,0.988,0.04,-0.034,0,0,0,-36,7.3,26.8,0.160222175,0.706930754,-0.137058626,0.675099948
182,458141,1772070,0.981,0.044,-0.034,0,0,0,-36,7.3,26.8,0.160222175,0.706930754,-0.137058626,0.675099948
183,460782,1772080,0.988,0.04,-0.034,0,0,-0.1,-36,7.3,26.8,0.160222175,0.706930754,-0.137058626,0.675099948
184,463749,1772080,0.985,0.04,-0.038,0,0,-0.1,-36,7.3,26.8,0.160222175,0.706930754,-0.137058626,0.675099948
185,466790,1772080,0.985,0.036,-0.042,0,0,0,-35,6.2,27.3,0.160252693,0.706930754,-0.137058626,0.675099948
186,468234,1772080,0.985,0.036,-0.042,0,0,0,-35,6.2,27.3,0.160252693,0.706930754,-0.137058626,0.675099948
187,471177,1772090,0.981,0.04,-0.034,0,0.1,0,-35,6.2,27.3,0.160252693,0.706900235,-0.137058626,0.675099948
188,474231,1772090,0.992,0.04,-0.038,0,0.1,0,-35,6.2,27.3,0.160222175,0.706900235,-0.137058626,0.675099948
189,475708,1772090,0.985,0.036,-0.038,0,0.1,0,-35.6,5.9,27.3,0.160252693,0.706900235,-0.137058626,0.675099948
190,478709,1772090,0.988,0.048,-0.03,0,0.1,0,-35.6,5.9,27.3,0.160222175,0.706900235,-0.137058626,0.675099948
191,481738,1772100,0.985,0.04,-0.038,0.1,0.2,0.1,-35.6,5.9,27.3,0.160222175,0.706900235,-0.137058626,0.675099948
192,483236,1772100,0.985,0.044,-0.034,0.1,0.2,0,-35.6,5.9,27.3,0.160222175,0.706900235,-0.137058626,0.675130467
193,486189,1772100,0.985,0.044,-0.038,0,0.1,0,-35,6.1,27.4,0.160222175,0.706900235,-0.137058626,0.675130467
194,489254,1772100,0.985,0.032,-0.034,0,0,-0.1,-35,6.1,27.4,0.160222175,0.706900235,-0.137058626,0.675130467
195,490809,1772110,0.985,0.044,-0.038,0.1,0,-0.1,-35,6.1,27.4,0.160222175,0.706900235,-0.137058626,0.675130467
196,493788,1772110,0.985,0.044,-0.038,0.1,0,0,-35,6.1,27.4,0.160222175,0.706900235,-0.137058626,0.675130467
197,496726,1772110,0.988,0.044,-0.034,0,0,0.1,-35.2,6,27.4,0.160222175,0.706900235,-0.137058626,0.675130467
198,498201,1772110,0.985,0.04,-0.042,0,0,0.1,-35.2,6,27.4,0.160222175,0.706900235,-0.137058626,0.675130467
199,501206,1772120,0.985,0.04,-0.034,-0.1,-0.1,0.1,-35.2,6,27.4,0.160222175,0.706900235,-0.137058626,0.675099948
200,504227,1772120,0.988,0.04,-0.034,0,-0.3,0,-35.2,6,27.4,0.160222175,0.706900235,-0.137058626,0.675099948
201,505692,1772120,0.985,0.04,-0.034,0,-0.3,-0.1,-34.9,6,27.5,0.160222175,0.706900235,-0.137058626,0.675099948
202,508682,1772120,0.988,0.044,-0.038,0,-0.2,0,-34.9,6,27.5,0.160222175,0.706930754,-0.137058626,0.675099948
203,511685,1772130,0.985,0.04,-0.042,0,-0.1,0,-34.9,6,27.5,0.160222175,0.706930754,-0.137058626,0.675099948
204,513205,1772130,0.985,0.04,-0.034,0.1,0,0,-34.9,6,27.5,0.160222175,0.706930754,-0.137058626,0.675099948
205,516224,1772130,0.988,0.036,-0.034,0.1,0,0,-36,6.1,27.2,0.160222175,0.706930754,-0.137058626,0.67506943
206,519243,1772130,0.985,0.04,-0.03,0.1,0,0,-36,6.1,27.2,0.160222175,0.706930754,-0.137028108,0.67506943
207,520755,1772140,0.988,0.036,-0.034,0,-0.2,-0.1,-36,6.1,27.2,0.160222175,0.706930754,-0.137028108,0.67506943
208,523647,1772140,0.988,0.044,-0.038,0,-0.1,-0.1,-36,6.1,27.2,0.160222175,0.706930754,-0.137028108,0.67506943
209,526678,1772140,0.985,0.044,-0.034,0,0,0,-34.7,6.1,27.1,0.160222175,0.706930754,-0.137028108,0.67506943
210,528250,1772140,0.985,0.04,-0.03,0,0,0,-34.7,6.1,27.1,0.160222175,0.706930754,-0.137028108,0.67506943
211,531224,1772150,0.985,0.04,-0.038,0,0,0.1,-34.7,6.1,27.1,0.160222175,0.706930754,-0.137028108,0.67506943
212,534321,1772150,0.985,0.04,-0.038,-0.1,0,0.1,-34.7,6.1,27.1,0.160222175,0.706930754,-0.137058626,0.67506943
213,535868,1772150,0.985,0.04,-0.038,-0.1,0,0,-35.1,6.2,27,0.160222175,0.706930754,-0.137058626,0.67506943
214,539447,1772150,0.988,0.036,-0.03,-0.1,0,0,-35.1,6.2,27,0.160222175,0.706930754,-0.137058626,0.67506943
215,541800,1772160,0.985,0.044,-0.03,0,-0.1,0,-35.1,6.2,27,0.160222175,0.706930754,-0.137058626,0.67506943
216,543963,1772160,0.988,0.04,-0.03,0,-0.1,0,-35.1,6.2,27,0.160222175,0.706930754,-0.137058626,0.67506943
217,546264,1772160,0.985,0.04,-0.038,0.1,-0.1,-0.1,-34.9,6.1,27.4,0.160222175,0.706961272,-0.137058626,0.67506943
218,548500,1772160,0.988,0.036,-0.03,0.1,-0.1,-0.1,-34.9,6.1,27.4,0.160222175,0.706961272,-0.137058626,0.67506943
219,551505,1772170,0.985,0.036,-0.038,0,-0.1,-0.1,-34.9,6.1,27.4,0.160222175,0.706961272,-0.137028108,0.67506943
220,554463,1772170,0.985,0.036,-0.038,0,-0.1,-0.1,-34.9,6.1,27.4,0.160222175,0.706961272,-0.137028108,0.67506943
221,556791,1772170,0.985,0.04,-0.038,0,-0.1,0,-35.1,6,27.2,0.160222175,0.706961272,-0.137028108,0.67506943
222,559038,1772170,0.985,0.036,-0.038,0,0,0,-35.1,6,27.2,0.160222175,0.706961272,-0.137028108,0.67506943
223,561331,1772180,0.985,0.04,-0.034,0.1,0.1,0,-35.1,6,27.2,0.160222175,0.706961272,-0.137028108,0.67506943
224,563509,1772180,0.988,0.04,-0.034,0.1,0.2,0,-35.1,6,27.2,0.160222175,0.706961272,-0.137028108,0.67506943
225,566465,1772180,0.988,0.044,-0.034,0.1,0,0,-36.5,6.2,27.5,0.160222175,0.706961272,-0.137058626,0.67506943
226,568192,1772180,0.988,0.044,-0.034,0.1,0,0,-36.5,6.2,27.5,0.160222175,0.706961272,-0.137058626,0.67506943
227,571871,1772190,0.988,0.04,-0.034,0,-0.1,0,-36.5,6.2,27.5,0.160222175,0.706961272,-0.137058626,0.67506943
228,573980,1772190,0.988,0.036,-0.038,0,-0.1,-0.1,-36.5,6.2,27.5,0.160222175,0.706961272,-0.137028108,0.67506943
229,575591,1772190,0.985,0.04,-0.034,0,-0.2,-0.1,-34.5,6.2,27.5,0.160222175,0.706961272,-0.137028108,0.67506943
230,578470,1772190,0.988,0.04,-0.03,0,-0.1,-0.1,-34.5,6.2,27.5,0.160222175,0.706961272,-0.137028108,0.67506943
231,580794,1772200,0.988,0.04,-0.038,0,0,0,-34.5,6.2,27.5,0.160222175,0.706961272,-0.137028108,0.67506943
232,583145,1772200,0.985,0.044,-0.038,0,0,0,-34.5,6.2,27.5,0.160222175,0.706961272,-0.137028108,0.67506943
233,587367,1772200,0.985,0.032,-0.034,-0.1,0,0,-34.2,6.2,27.4,0.160222175,0.706961272,-0.137028108,0.67506943
234,589602,1772200,0.985,0.044,-0.034,-0.1,0,0,-34.2,6.2,27.4,0.160222175,0.706961272,-0.137028108,0.67506943
235,591062,1772210,0.985,0.04,-0.034,0,0,0,-34.2,6.2,27.4,0.160222175,0.706961272,-0.137028108,0.67506943
236,594835,1772210,0.985,0.04,-0.034,0,0.1,0,-34.2,6.2,27.4,0.160222175,0.706961272,-0.137028108,0.67506943
237,596315,1772210,0.981,0.036,-0.038,0,0.1,0,-34.2,6,26.7,0.160222175,0.706961272,-0.137028108,0.67506943
238,599420,1772210,0.985,0.036,-0.03,0,0.1,0,-34.2,6,26.7,0.160222175,0.706961272,-0.137028108,0.67506943
239,600818,1772220,0.985,0.032,-0.038,0,0.1,0,-34.2,6,26.7,0.160222175,0.706961272,-0.137058626,0.67506943
240,603714,1772220,0.985,0.04,-0.034,0,0.1,0,-34.2,6,26.7,0.160222175,0.706961272,-0.137058626,0.67506943
241,606924,1772220,0.985,0.04,-0.042,0,0.1,0,-34.5,6.2,27.2,0.160222175,0.706961272,-0.137058626,0.67506943
242,608342,1772220,0.985,0.04,-0.038,0,0,0,-34.5,6.2,27.2,0.160222175,0.706961272,-0.137058626,0.67506943
243,610823,1772230,0.985,0.044,-0.038,0,0,0,-34.5,6.2,27.2,0.160222175,0.706961272,-0.137058626,0.67506943
244,614411,1772230,0.988,0.044,-0.034,0,0,0,-34.5,6.2,27.2,0.160222175,0.706961272,-0.137058626,0.67506943
245,615837,1772230,0.988,0.04,-0.034,0.1,0,0,-35.4,6.1,27.2,0.160222175,0.706961272,-0.137028108,0.675038911
246,618292,1772230,0.988,0.04,-0.034,0.1,0,0,-35.4,6.1,27.2,0.160222175,0.706961272,-0.137028108,0.675038911
247,621029,1772240,0.988,0.036,-0.034,0,0,0,-35.4,6.1,27.2,0.160222175,0.706961272,-0.137028108,0.67506943
248,624124,1772240,0.985,0.04,-0.034,0,0,0,-35.4,6.1,27.2,0.160222175,0.706961272,-0.137028108,0.675038911
249,625687,1772240,0.985,0.04,-0.038,-0.1,0,0,-35,6.5,27.3,0.160222175,0.706961272,-0.137028108,0.675038911
250,628381,1772240,0.985,0.04,-0.03,-0.1,0,-0.1,-35,6.5,27.3,0.160222175,0.706961272,-0.137028108,0.675038911
251,631494,1772250,0.985,0.04,-0.038,0,0,-0.1,-35,6.5,27.3,0.160222175,0.706961272,-0.137028108,0.675038911
252,633123,1772250,0.985,0.04,-0.034,0,0,-0.1,-35,6.5,27.3,0.160222175,0.706961272,-0.137028108,0.675038911
253,636011,1772250,0.985,0.04,-0.034,0,0,-0.1,-35.5,6.4,27.2,0.160222175,0.706961272,-0.137028108,0.675038911
254,639091,1772250,0.985,0.04,-0.03,0,0,0,-35.5,6.4,27.2,0.160222175,0.706961272,-0.137028108,0.675038911
255,640615,1772260,0.985,0.044,-0.034,-0.1,0.1,0,-35.5,6.4,27.2,0.160222175,0.706961272,-0.137028108,0.675038911
256,643491,1772260,0.985,0.04,-0.042,0,0,0,-35.5,6.4,27.2,0.160222175,0.706961272,-0.137028108,0.675038911
257,646505,1772260,0.985,0.044,-0.03,0,0,0,-35.2,6.4,27.2,0.160222175,0.706961272,-0.137028108,0.675038911
258,648422,1772260,0.988,0.036,-0.038,0.1,-0.1,0,-35.2,6.4,27.2,0.160222175,0.706961272,-0.137028108,0.675038911
259,651693,1772270,0.988,0.04,-0.03,0,-0.1,0,-35.2,6.4,27.2,0.160222175,0.706961272,-0.137028108,0.675038911
260,654098,1772270,0.988,0.04,-0.034,0,0,0,-35.2,6.4,27.2,0.160222175,0.706991791,-0.137028108,0.675038911
261,656261,1772270,0.985,0.04,-0.034,0,0,0,-35.5,6.2,28,0.160222175,0.706991791,-0.137028108,0.675038911
262,658479,1772270,0.988,0.036,-0.034,0,0,0,-35.5,6.2,28,0.160222175,0.706961272,-0.137028108,0.675038911
263,661470,1772280,0.985,0.044,-0.038,0,0,0,-35.5,6.2,28,0.160222175,0.706991791,-0.137028108,0.675038911
264,663862,1772280,0.985,0.044,-0.038,0,0,0,-35.5,6.2,28,0.160252693,0.706991791,-0.137028108,0.675038911
265,666003,1772280,0.985,0.04,-0.038,0,-0.1,0,-35.4,6.1,26.6,0.160252693,0.706991791,-0.137028108,0.675038911
266,668256,1772280,0.985,0.04,-0.038,0,-0.1,0,-35.4,6.1,26.6,0.160252693,0.706991791,-0.137028108,0.675038911
267,670625,1772290,0.985,0.044,-0.042,0,0,0,-35.4,6.1,26.6,0.160252693,0.706991791,-0.137028108,0.675038911
268,673493,1772290,0.985,0.04,-0.034,0,0,0,-35.4,6.1,26.6,0.160252693,0.706991791,-0.137028108,0.675038911
269,676499,1772290,0.988,0.044,-0.038,0,0.1,0,-35.2,5.9,28,0.160252693,0.706991791,-0.137028108,0.675038911
270,678113,1772290,0.988,0.044,-0.034,0,0.1,0,-35.2,5.9,28,0.160252693,0.706991791,-0.137028108,0.675038911
271,681432,1772300,0.988,0.04,-0.042,-0.1,0.1,0,-35.2,5.9,28,0.160252693,0.706961272,-0.137028108,0.675038911
272,684373,1772300,0.988,0.044,-0.038,-0.1,0,0,-35.2,5.9,28,0.160252693,0.706961272,-0.137028108,0.675038911
273,686100,1772300,0.985,0.044,-0.038,0,0,0,-35.2,6.2,28.6,0.160252693,0.706961272,-0.137028108,0.675038911
274,688266,1772300,0.985,0.044,-0.038,0,0,0,-35.2,6.2,28.6,0.160252693,0.706961272,-0.137028108,0.675038911
275,691793,1772310,0.985,0.032,-0.038,0.1,0,0,-35.2,6.2,28.6,0.160252693,0.706961272,-0.137028108,0.675038911
276,693328,1772310,0.981,0.036,-0.038,0.1,0,0,-35.2,6.2,28.6,0.160252693,0.706961272,-0.137028108,0.675038911
277,695755,1772310,0.988,0.036,-0.038,0.1,0,-0.1,-35.6,6,28.6,0.160252693,0.706961272,-0.136997589,0.675038911
278,698121,1772310,0.985,0.04,-0.034,0.1,0.1,-0.1,-35.6,6,28.6,0.160252693,0.706961272,-0.136997589,0.675038911
279,702275,1772320,0.985,0.04,-0.034,0,0.1,-0.1,-35.6,6,28.6,0.160252693,0.706961272,-0.136997589,0.675038911
280,704550,1772320,0.985,0.04,-0.034,0,0,0,-35.6,6,28.6,0.160252693,0.706961272,-0.136997589,0.675038911
281,706806,1772320,0.981,0.036,-0.034,0,0,0,-35.2,6.3,29.2,0.160252693,0.706961272,-0.136997589,0.675038911
282,709063,1772320,0.988,0.04,-0.034,0,0,0,-35.2,6.3,29.2,0.160252693,0.706961272,-0.136997589,0.675038911
283,711846,1772330,0.988,0.036,-0.038,-0.1,-0.1,0,-35.2,6.3,29.2,0.160252693,0.706991791,-0.136997589,0.675038911
284,713888,1772330,0.988,0.04,-0.042,-0.1,-0.1,0,-35.2,6.3,29.2,0.160252693,0.706991791,-0.136997589,0.675038911
285,716085,1772330,0.988,0.036,-0.042,0,0,0,-35.4,6.2,25.5,0.160222175,0.706991791,-0.137028108,0.675038911
286,718335,1772330,0.988,0.036,-0.042,0,0,0,-35.4,6.2,25.5,0.160222175,0.706991791,-0.137028108,0.675038911
287,720840,1772340,0.988,0.04,-0.034,0,0,0,-35.4,6.2,25.5,0.160222175,0.706991791,-0.137028108,0.675038911
288,724217,1772340,0.988,0.04,-0.042,0,0,0,-35.4,6.2,25.5,0.160222175,0.706991791,-0.137028108,0.675038911
289,725819,1772340,0.988,0.04,-0.034,0,0,0,-35.2,6.5,28,0.160222175,0.706991791,-0.137028108,0.675038911
290,728864,1772340,0.985,0.04,-0.038,0,0,0,-35.2,6.5,28,0.160252693,0.706991791,-0.137028108,0.675038911
291,731102,1772350,0.985,0.036,-0.034,0,0.1,-0.1,-35.2,6.5,28,0.160252693,0.706991791,-0.137028108,0.675038911
292,734328,1772350,0.985,0.04,-0.038,0,0.1,-0.1,-35.2,6.5,28,0.160252693,0.706991791,-0.137028108,0.675038911
293,735872,1772350,0.985,0.036,-0.034,-0.1,0.1,-0.1,-35.4,6.4,27.5,0.160252693,0.706991791,-0.137028108,0.675038911
294,738229,1772350,0.985,0.04,-0.038,-0.1,0.1,-0.1,-35.4,6.4,27.5,0.160252693,0.706991791,-0.137028108,0.675038911
295,740947,1772360,0.985,0.04,-0.038,0,0.1,-0.1,-35.4,6.4,27.5,0.160252693,0.706961272,-0.137028108,0.675038911
296,743409,1772360,0.985,0.036,-0.038,0,0.1,0,-35.4,6.4,27.5,0.160252693,0.706961272,-0.137028108,0.675038911
297,746407,1772360,0.985,0.036,-0.034,0,0.1,0.1,-35,6.2,26.6,0.160252693,0.706961272,-0.137028108,0.675038911
298,748729,1772360,0.985,0.04,-0.038,0,0.1,0.1,-35,6.2,26.6,0.160252693,0.706961272,-0.137028108,0.675038911
299,751606,1772370,0.988,0.044,-0.034,-0.2,0.1,0,-35,6.2,26.6,0.160252693,0.706961272,-0.137028108,0.675038911
300,754761,1772370,0.985,0.04,-0.038,-0.2,0,-0.1,-35,6.2,26.6,0.160252693,0.706961272,-0.137028108,0.675038911
301,756217,1772370,0.988,0.04,-0.038,-0.1,-0.1,-0.1,-35.5,6.2,26.5,0.160283212,0.706961272,-0.137028108,0.675038911
302,759147,1772370,0.988,0.044,-0.038,0,0,-0.1,-35.5,6.2,26.5,0.160283212,0.706961272,-0.137028108,0.675038911
303,760713,1772380,0.985,0.04,-0.038,0,0.1,0,-35.5,6.2,26.5,0.160283212,0.706961272,-0.137028108,0.675038911
304,763614,1772380,0.985,0.04,-0.034,0,0.1,0,-35.5,6.2,26.5,0.160283212,0.706961272,-0.137028108,0.675038911
305,766690,1772380,0.985,0.04,-0.034,0,0,-0.1,-35.5,6,26.9,0.160283212,0.706991791,-0.137028108,0.675038911
306,768960,1772380,0.985,0.04,-0.034,0,0,-0.1,-35.5,6,26.9,0.160283212,0.706961272,-0.137028108,0.675038911
307,770599,1772390,0.985,0.036,-0.038,0,0,0,-35.5,6,26.9,0.160283212,0.706961272,-0.137028108,0.675038911
308,773475,1772390,0.985,0.04,-0.034,0,0,0,-35.5,6,26.9,0.160283212,0.706961272,-0.137028108,0.675038911
309,776463,1772390,0.985,0.044,-0.034,0,0,0,-35.5,5.9,27,0.160283212,0.706961272,-0.137028108,0.675038911
310,778272,1772390,0.988,0.044,-0.034,0.1,0,0,-35.5,5.9,27,0.160283212,0.706961272,-0.137028108,0.675038911
311,781717,1772400,0.985,0.04,-0.034,0.1,0,0,-35.5,5.9,27,0.160283212,0.706961272,-0.137028108,0.675038911
312,783207,1772400,0.985,0.04,-0.034,0.1,0,0,-35.5,5.9,27,0.160283212,0.706961272,-0.136997589,0.675038911
313,785732,1772400,0.981,0.04,-0.034,0,0,-0.1,-35.6,6,27.1,0.160283212,0.706961272,-0.136997589,0.675038911
314,789200,1772400,0.988,0.036,-0.038,0,0,-0.1,-35.6,6,27.1,0.160283212,0.706961272,-0.136997589,0.675038911
315,790717,1772410,0.985,0.04,-0.03,0,0,0,-35.6,6,27.1,0.160283212,0.706961272,-0.136997589,0.675038911
316,793408,1772410,0.981,0.036,-0.038,0,0,0,-35.6,6,27.1,0.160283212,0.706961272,-0.136997589,0.675038911
317,797472,1772410,0.985,0.036,-0.038,0,0.1,0,-35.3,6,26.9,0.160283212,0.706961272,-0.136997589,0.675038911
318,799569,1772410,0.985,0.04,-0.038,0,0.2,0,-35.3,6,26.9,0.160283212,0.706961272,-0.136997589,0.675038911
319,801638,1772420,0.988,0.04,-0.038,0,0.2,0,-35.3,6,26.9,0.160283212,0.706961272,-0.136997589,0.675038911
320,804692,1772420,0.985,0.036,-0.038,0,0.2,0.1,-35.3,6,26.9,0.160283212,0.706961272,-0.136997589,0.675038911
321,806848,1772420,0.985,0.044,-0.034,0,0.1,0.1,-35.7,5.9,26.8,0.160283212,0.706961272,-0.136997589,0.67506943
322,809112,1772420,0.985,0.04,-0.034,0,0.1,0,-35.7,5.9,26.8,0.160283212,0.706961272,-0.136997589,0.67506943
323,810707,1772430,0.988,0.04,-0.03,0,0,0,-35.7,5.9,26.8,0.160283212,0.706961272,-0.136997589,0.67506943
324,813495,1772430,0.985,0.044,-0.042,0,0,0.1,-35.7,5.9,26.8,0.160283212,0.706961272,-0.136997589,0.67506943
325,815785,1772430,0.988,0.036,-0.038,0,0,0,-35.5,6.5,28.1,0.16031373,0.706930754,-0.136997589,0.67506943
326,818359,1772430,0.981,0.036,-0.034,0,0,0,-35.5,6.5,28.1,0.16031373,0.706930754,-0.136997589,0.67506943
327,821812,1772440,0.985,0.04,-0.038,0,0,0,-35.5,6.5,28.1,0.16031373,0.706930754,-0.136997589,0.67506943
328,823686,1772440,0.985,0.044,-0.038,0,0.1,0,-35.5,6.5,28.1,0.16031373,0.706930754,-0.136997589,0.67506943
329,825826,1772440,0.985,0.04,-0.038,0.1,0.1,0,-35.8,5.1,26.1,0.16031373,0.706930754,-0.136997589,0.67506943
330,829217,1772440,0.981,0.04,-0.034,0.1,0.1,0,-35.8,5.1,26.1,0.16031373,0.706930754,-0.136997589,0.67506943
331,830813,1772450,0.988,0.04,-0.034,0,0,0,-35.8,5.1,26.1,0.16031373,0.706930754,-0.136997589,0.67506943
332,833544,1772450,0.985,0.04,-0.038,0,0,0,-35.8,5.1,26.1,0.16031373,0.706930754,-0.136997589,0.67506943
333,836675,1772450,0.985,0.04,-0.038,0,-0.1,0,-35.5,4.3,26.6,0.16031373,0.706930754,-0.136997589,0.67506943
334,838424,1772450,0.985,0.04,-0.034,-0.1,-0.1,0,-35.5,4.3,26.6,0.16031373,0.706930754,-0.136997589,0.67506943
335,840735,1772460,0.985,0.044,-0.03,-0.1,-0.2,-0.1,-35.5,4.3,26.6,0.16031373,0.706930754,-0.136997589,0.67506943
336,843931,1772460,0.988,0.04,-0.038,-0.1,-0.2,-0.1,-35.5,4.3,26.6,0.16031373,0.706961272,-0.136997589,0.67506943
337,845691,1772460,0.985,0.04,-0.042,0,-0.1,-0.1,-35.4,3.6,26.3,0.16031373,0.706961272,-0.136997589,0.67506943
338,849339,1772460,0.985,0.04,-0.042,0,0,-0.1,-35.4,3.6,26.3,0.16031373,0.706961272,-0.136997589,0.675038911
339,850879,1772470,0.985,0.032,-0.034,0,0.1,0,-35.4,3.6,26.3,0.16031373,0.706961272,-0.136997589,0.67506943
340,854825,1772470,0.988,0.044,-0.03,0,0.2,0,-35.4,3.6,26.3,0.16031373,0.706961272,-0.136997589,0.67506943
341,857140,1772470,0.988,0.04,-0.042,0,0.2,0,-35.5,3.6,25.7,0.16031373,0.706930754,-0.136997589,0.67506943
342,859385,1772470,0.985,0.04,-0.034,0,0,0,-35.5,3.6,25.7,0.16031373,0.706930754,-0.136997589,0.67506943
343,861639,1772480,0.985,0.036,-0.034,0,0,-0.1,-35.5,3.6,25.7,0.16031373,0.706961272,-0.136997589,0.67506943
344,863768,1772480,0.985,0.036,-0.042,0,-0.1,-0.1,-35.5,3.6,25.7,0.16031373,0.706961272,-0.136997589,0.67506943
345,865855,1772480,0.985,0.036,-0.03,0,-0.1,-0.1,-35.5,7.7,27.9,0.160283212,0.706961272,-0.137028108,0.675038911
346,869793,1772480,0.985,0.036,-0.03,0,-0.1,-0.1,-35.5,7.7,27.9,0.160283212,0.706961272,-0.137028108,0.675038911
347,871966,1772490,0.981,0.044,-0.038,0,-0.1,0,-35.5,7.7,27.9,0.160283212,0.706961272,-0.137028108,0.675038911
348,873856,1772490,0.988,0.04,-0.038,0,-0.1,0,-35.5,7.7,27.9,0.160283212,0.706961272,-0.137028108,0.675038911
349,876352,1772490,0.988,0.044,-0.034,0,-0.1,0,-35.5,5.4,26.7,0.160283212,0.706961272,-0.137028108,0.675038911
350,878415,1772490,0.988,0.04,-0.034,0,0,0,-35.5,5.4,26.7,0.160283212,0.706961272,-0.137028108,0.675038911
351,880953,1772500,0.985,0.044,-0.034,0.1,0,0.1,-35.5,5.4,26.7,0.160283212,0.706961272,-0.137028108,0.675038911
352,883310,1772500,0.985,0.04,-0.042,0.1,0,0,-35.5,5.4,26.7,0.160283212,0.706961272,-0.137028108,0.675038911
353,886887,1772500,0.985,0.04,-0.042,0,0,0,-35.4,5.9,26.6,0.160283212,0.706961272,-0.137028108,0.675038911
354,888687,1772500,0.985,0.04,-0.042,0,0.1,0,-35.4,5.9,26.6,0.160283212,0.706961272,-0.137028108,0.675038911
355,890969,1772510,0.981,0.04,-0.038,0,0.1,0,-35.4,5.9,26.6,0.160283212,0.706961272,-0.137028108,0.675038911
356,893757,1772510,0.988,0.04,-0.034,-0.1,0,0,-35.4,5.9,26.6,0.160283212,0.706961272,-0.137028108,0.675038911
357,896745,1772510,0.981,0.04,-0.038,-0.1,0,0,-35.5,6.5,26.8,0.160283212,0.706961272,-0.137028108,0.675038911
358,898770,1772510,0.985,0.044,-0.034,0,-0.1,0.1,-35.5,6.5,26.8,0.160283212,0.706961272,-0.137028108,0.675038911
359,901949,1772520,0.985,0.04,-0.034,0,0,0.1,-35.5,6.5,26.8,0.160283212,0.706961272,-0.137028108,0.675038911
360,904237,1772520,0.988,0.04,-0.034,0.1,0.1,0.1,-35.5,6.5,26.8,0.160283212,0.706961272,-0.137028108,0.675038911
361,905688,1772520,0.988,0.04,-0.038,0.1,0.1,0,-35.5,7.2,26.5,0.160283212,0.706961272,-0.137028108,0.675038911
362,909341,1772520,0.988,0.04,-0.034,0,0.1,0,-35.5,7.2,26.5,0.160283212,0.706961272,-0.137028108,0.675038911
363,911012,1772530,0.985,0.04,-0.042,0,0.1,0,-35.5,7.2,26.5,0.160283212,0.706961272,-0.137028108,0.675038911
364,913373,1772530,0.985,0.036,-0.034,0,0,0,-35.5,7.2,26.5,0.160283212,0.706961272,-0.137028108,0.675038911
365,915863,1772530,0.985,0.04,-0.034,0,0,-0.1,-35.3,6.3,27.1,0.160252693,0.706961272,-0.137058626,0.675038911
366,919278,1772530,0.985,0.04,-0.034,0,0,-0.1,-35.3,6.3,27.1,0.160252693,0.706961272,-0.137028108,0.675038911
367,920839,1772540,0.981,0.04,-0.034,0,0.1,0,-35.3,6.3,27.1,0.160252693,0.706961272,-0.137028108,0.675038911
368,923788,1772540,0.985,0.036,-0.03,0,0.2,0,-35.3,6.3,27.1,0.160283212,0.706961272,-0.137028108,0.675038911
369,926061,1772540,0.985,0.04,-0.03,0,0.1,0,-35.4,6.3,26.9,0.160283212,0.706961272,-0.137028108,0.675038911
370,928777,1772540,0.988,0.04,-0.038,0,0.1,0,-35.4,6.3,26.9,0.160283212,0.706961272,-0.137028108,0.675038911
371,930931,1772550,0.985,0.04,-0.042,0,0,0,-35.4,6.3,26.9,0.160283212,0.706961272,-0.137058626,0.675038911
372,933438,1772550,0.985,0.04,-0.038,0,0,0,-35.4,6.3,26.9,0.160252693,0.706961272,-0.137058626,0.675038911
373,936306,1772550,0.985,0.04,-0.038,0,0,0,-35.3,6.7,27.5,0.160252693,0.706961272,-0.137058626,0.675038911
374,938490,1772550,0.988,0.044,-0.034,0,0.1,0,-35.3,6.7,27.5,0.160252693,0.706961272,-0.137058626,0.675038911
375,940881,1772560,0.985,0.04,-0.038,0,0.1,0,-35.3,6.7,27.5,0.160283212,0.706961272,-0.137058626,0.675038911
376,943709,1772560,0.988,0.04,-0.034,0,0.1,0,-35.3,6.7,27.5,0.160283212,0.706961272,-0.137058626,0.675038911
377,945938,1772560,0.988,0.04,-0.038,0,0,0,-35.5,6.5,27.5,0.160283212,0.706961272,-0.137058626,0.675038911
378,948225,1772560,0.985,0.036,-0.034,0,0,0,-35.5,6.5,27.5,0.160283212,0.706961272,-0.137058626,0.675038911
379,951123,1772570,0.985,0.036,-0.034,0,0,0,-35.5,6.5,27.5,0.160283212,0.706961272,-0.137058626,0.675038911
380,954924,1772570,0.985,0.04,-0.042,0,0,0,-35.5,6.5,27.5,0.160283212,0.706961272,-0.137058626,0.675038911
381,957134,1772570,0.985,0.04,-0.03,0,0.1,0,-35.6,6.5,27.5,0.160283212,0.706961272,-0.137058626,0.67506943
382,959803,1772570,0.985,0.04,-0.038,0,0.1,-0.1,-35.6,6.5,27.5,0.160283212,0.706961272,-0.137028108,0.67506943
383,961672,1772580,0.981,0.04,-0.038,0,0.2,-0.1,-35.6,6.5,27.5,0.160283212,0.706961272,-0.137028108,0.67506943
384,963584,1772580,0.985,0.044,-0.034,0,0.1,-0.1,-35.6,6.5,27.5,0.160283212,0.706930754,-0.137028108,0.67506943
385,966041,1772580,0.985,0.044,-0.03,0,0,0,-35.3,5.1,27.2,0.160283212,0.706930754,-0.137028108,0.67506943
386,968298,1772580,0.988,0.044,-0.03,0,0,0,-35.3,5.1,27.2,0.160283212,0.706930754,-0.137028108,0.67506943
387,970644,1772590,0.988,0.044,-0.034,0,0,0,-35.3,5.1,27.2,0.160283212,0.706930754,-0.137028108,0.67506943
388,973785,1772590,0.985,0.036,-0.038,0,0,0,-35.3,5.1,27.2,0.160283212,0.706930754,-0.137028108,0.67506943
389,975758,1772590,0.985,0.036,-0.034,0,0,0.1,-36.1,7.4,27.6,0.160283212,0.706930754,-0.137028108,0.67506943
390,979298,1772590,0.985,0.044,-0.03,0,0,0.1,-36.1,7.4,27.6,0.160283212,0.706930754,-0.137028108,0.67506943
391,980909,1772600,0.985,0.044,-0.038,0,0.1,0,-36.1,7.4,27.6,0.160283212,0.706930754,-0.137028108,0.67506943
392,983397,1772600,0.985,0.04,-0.034,0.1,0.2,0,-36.1,7.4,27.6,0.160283212,0.706930754,-0.137028108,0.67506943
393,986033,1772600,0.988,0.04,-0.034,0.1,0.2,-0.1,-37,7.2,27,0.160283212,0.706930754,-0.137028108,0.67506943
394,988345,1772600,0.988,0.036,-0.038,0,0.1,-0.1,-37,7.2,27,0.160283212,0.706930754,-0.137028108,0.67506943
395,990733,1772610,0.988,0.044,-0.034,0,0,-0.1,-37,7.2,27,0.160283212,0.706930754,-0.137028108,0.675099948
396,994024,1772610,0.985,0.036,-0.034,0,0,0,-37,7.2,27,0.160283212,0.706930754,-0.137028108,0.675099948
397,995961,1772610,0.985,0.044,-0.03,0,0,0,-37.1,7.6,27.6,0.160283212,0.706930754,-0.137028108,0.675099948
398,998636,1772610,0.988,0.044,-0.038,0,0.1,0.1,-37.1,7.6,27.6,0.160283212,0.706930754,-0.137028108,0.675099948
399,1000910,1772620,0.985,0.044,-0.042,0,0.2,0.1,-37.1,7.6,27.6,0.160283212,0.706930754,-0.137028108,0.675099948
400,1005371,1772620,0.985,0.036,-0.034,0,0.3,0,-37.1,7.6,27.6,0.160283212,0.706900235,-0.137028108,0.675099948
401,1006110,1772620,0.985,0.04,-0.034,0,0.2,0,-38,7,27.2,0.160283212,0.706900235,-0.137028108,0.675099948
402,1009875,1772620,0.992,0.04,-0.038,0,0.1,0,-38,7,27.2,0.160283212,0.706900235,-0.137028108,0.675099948
403,1012057,1772630,0.985,0.044,-0.03,0,0,0,-38,7,27.2,0.160283212,0.706900235,-0.137028108,0.675099948
404,1014321,1772630,0.992,0.04,-0.038,0,-0.1,0,-38,7,27.2,0.160283212,0.706900235,-0.137028108,0.675099948
405,1015954,1772630,0.985,0.029,-0.034,0,-0.3,0,-34.4,5.4,27.2,0.160283212,0.706900235,-0.137028108,0.675099948
406,1018380,1772630,0.985,0.029,-0.034,0,-0.2,0,-34.4,5.4,27.2,0.160283212,0.706900235,-0.137028108,0.675099948
407,1021231,1772640,0.988,0.04,-0.038,0,-0.1,0,-34.4,5.4,27.2,0.160283212,0.706900235,-0.137028108,0.675099948
408,1023485,1772640,0.985,0.04,-0.042,0,0,0,-34.4,5.4,27.2,0.160283212,0.706900235,-0.137028108,0.675099948
409,1026796,1772640,0.985,0.04,-0.038,0,0,0,-37.2,7.1,27.2,0.160283212,0.706900235,-0.137028108,0.675099948
410,1028551,1772640,0.988,0.036,-0.034,0,0,0,-37.2,7.1,27.2,0.160283212,0.706900235,-0.137028108,0.675099948
411,1030921,1772650,0.988,0.044,-0.034,0,0,0,-37.2,7.1,27.2,0.160283212,0.706900235,-0.137028108,0.675099948
412,1033615,1772650,0.985,0.04,-0.038,0,0,0,-37.2,7.1,27.2,0.160283212,0.706900235,-0.137028108,0.675099948
413,1035969,1772650,0.988,0.04,-0.034,0,0.1,0,-36.3,7.1,27.3,0.160283212,0.706900235,-0.137028108,0.675099948
414,1038277,1772650,0.985,0.04,-0.034,0,0.1,0,-36.3,7.1,27.3,0.160283212,0.706900235,-0.136997589,0.675099948
415,1040785,1772660,0.985,0.04,-0.038,0,0.1,-0.1,-36.3,7.1,27.3,0.160283212,0.706900235,-0.136997589,0.675099948
416,1043267,1772660,0.988,0.04,-0.034,-0.1,0.1,-0.1,-36.3,7.1,27.3,0.160283212,0.706900235,-0.136997589,0.675099948
417,1047255,1772660,0.985,0.036,-0.038,0,0,0,-36.1,7,27.1,0.160283212,0.706900235,-0.136997589,0.675099948
418,1049340,1772660,0.981,0.04,-0.034,0.1,0,0,-36.1,7,27.1,0.160283212,0.706900235,-0.136997589,0.675099948
419,1051135,1772670,0.985,0.04,-0.03,0.1,0,0,-36.1,7,27.1,0.160283212,0.706900235,-0.136997589,0.675099948
420,1053872,1772670,0.985,0.044,-0.038,0.1,0,0,-36.1,7,27.1,0.160283212,0.706900235,-0.136997589,0.675099948
421,1055904,1772670,0.988,0.044,-0.03,0,0,0,-35.5,7.5,27.4,0.160283212,0.706900235,-0.136997589,0.675099948
422,1058565,1772670,0.985,0.04,-0.034,0,0.1,0,-35.5,7.5,27.4,0.160283212,0.706900235,-0.136997589,0.675099948
423,1060700,1772680,0.985,0.04,-0.034,0,0.1,0,-35.5,7.5,27.4,0.160283212,0.706900235,-0.136997589,0.675099948
424,1064795,1772680,0.985,0.036,-0.038,0,0,0,-35.5,7.5,27.4,0.160283212,0.706900235,-0.136997589,0.675099948
425,1067029,1772680,0.985,0.04,-0.038,0,0,-0.1,-35.3,6.4,27.2,0.160283212,0.706900235,-0.136997589,0.675130467
426,1069406,1772680,0.985,0.04,-0.038,0,0,-0.1,-35.3,6.4,27.2,0.160283212,0.706900235,-0.136997589,0.675130467
427,1071595,1772690,0.981,0.036,-0.042,0,0,-0.1,-35.3,6.4,27.2,0.160283212,0.706900235,-0.136997589,0.675130467
428,1073837,1772690,0.985,0.044,-0.038,0.1,0,0,-35.3,6.4,27.2,0.160283212,0.706900235,-0.136997589,0.675130467
429,1076069,1772690,0.988,0.04,-0.038,0.1,-0.1,0,-35.7,5.9,27.5,0.160283212,0.706900235,-0.136997589,0.675130467
430,1078304,1772690,0.988,0.04,-0.034,0.1,-0.1,-0.1,-35.7,5.9,27.5,0.160283212,0.706900235,-0.136997589,0.675130467
431,1080764,1772700,0.988,0.04,-0.034,0,-0.2,-0.1,-35.7,5.9,27.5,0.160283212,0.706900235,-0.136997589,0.675130467
432,1083691,1772700,0.992,0.04,-0.038,0,-0.2,-0.1,-35.7,5.9,27.5,0.160283212,0.706900235,-0.136997589,0.675099948
433,1086706,1772700,0.988,0.04,-0.042,0,-0.1,-0.1,-35.1,6.3,27.3,0.160283212,0.706900235,-0.136997589,0.675099948
434,1089027,1772700,0.988,0.04,-0.03,0,-0.1,-0.1,-35.1,6.3,27.3,0.16031373,0.706900235,-0.136997589,0.675099948
435,1091170,1772710,0.981,0.04,-0.042,0,-0.1,-0.1,-35.1,6.3,27.3,0.16031373,0.706900235,-0.136997589,0.675099948
436,1093448,1772710,0.985,0.04,-0.038,0,-0.1,0,-35.1,6.3,27.3,0.16031373,0.706900235,-0.136997589,0.675099948
437,1095708,1772710,0.985,0.036,-0.038,0,-0.1,0,-35.3,5.9,27.5,0.16031373,0.706930754,-0.136997589,0.675099948
438,1098423,1772710,0.985,0.04,-0.034,0,-0.1,-0.1,-35.3,5.9,27.5,0.16031373,0.706930754,-0.136997589,0.675099948
439,1100833,1772720,0.981,0.032,-0.042,0,-0.1,0,-35.3,5.9,27.5,0.16031373,0.706930754,-0.136997589,0.675099948
440,1104774,1772720,0.985,0.04,-0.038,0,0,0,-35.3,5.9,27.5,0.16031373,0.706930754,-0.136997589,0.675099948
441,1106924,1772720,0.985,0.044,-0.034,0,0,0,-35.3,6.2,26.7,0.16031373,0.706930754,-0.136997589,0.675099948
442,1109247,1772720,0.985,0.044,-0.034,0,0.1,-0.1,-35.3,6.2,26.7,0.16031373,0.706930754,-0.136936552,0.675099948
443,1110702,1772730,0.985,0.04,-0.042,0,0,0,-35.3,6.2,26.7,0.16031373,0.706930754,-0.136936552,0.675099948
444,1113205,1772730,0.985,0.04,-0.034,0,-0.1,0,-35.3,6.2,26.7,0.16031373,0.706930754,-0.136936552,0.675099948
445,1117459,1772730,0.985,0.044,-0.038,0,-0.1,0,-36.1,6.2,27.5,0.16031373,0.706930754,-0.136936552,0.67506943
446,1118878,1772730,0.988,0.04,-0.038,0,-0.1,0,-36.1,6.2,27.5,0.16031373,0.706930754,-0.136936552,0.67506943
447,1120628,1772740,0.985,0.036,-0.042,0,0,0,-36.1,6.2,27.5,0.16031373,0.706930754,-0.136936552,0.67506943
448,1124674,1772740,0.985,0.036,-0.038,0,0.1,0,-36.1,6.2,27.5,0.16031373,0.706930754,-0.136936552,0.67506943
449,1126293,1772740,0.988,0.04,-0.038,0,0.1,0,-34.6,6.3,27.3,0.16031373,0.706930754,-0.136936552,0.675099948
450,1128456,1772740,0.985,0.036,-0.042,0,0,0,-34.6,6.3,27.3,0.16031373,0.706930754,-0.136936552,0.675099948
451,1130807,1772750,0.985,0.044,-0.038,0,0,-0.1,-34.6,6.3,27.3,0.16031373,0.706930754,-0.136936552,0.675099948
452,1133171,1772750,0.985,0.036,-0.038,0,0,0,-34.6,6.3,27.3,0.16031373,0.706930754,-0.136936552,0.675099948
453,1136552,1772750,0.985,0.044,-0.042,0,0.1,0,-34.5,6.3,27.3,0.16031373,0.706930754,-0.136936552,0.675099948
454,1138197,1772750,0.985,0.032,-0.038,0,0.1,-0.1,-34.5,6.3,27.3,0.16031373,0.706930754,-0.136936552,0.675099948
455,1141645,1772760,0.985,0.04,-0.034,0,0,-0.1,-34.5,6.3,27.3,0.16031373,0.706930754,-0.136936552,0.675099948
456,1143708,1772760,0.985,0.04,-0.03,0,0,-0.1,-34.5,6.3,27.3,0.160344249,0.706930754,-0.136936552,0.675099948
457,1147377,1772760,0.988,0.04,-0.038,0,-0.2,-0.1,-34.2,6.1,27.5,0.160344249,0.706930754,-0.136936552,0.67506943
458,1149569,1772760,0.988,0.04,-0.042,0,-0.3,0,-34.2,6.1,27.5,0.160344249,0.706930754,-0.136936552,0.67506943
459,1150774,1772770,0.985,0.04,-0.034,0,-0.3,-0.1,-34.2,6.1,27.5,0.160344249,0.706930754,-0.136936552,0.67506943
460,1154685,1772770,0.985,0.036,-0.042,0,-0.1,-0.1,-34.2,6.1,27.5,0.160344249,0.706930754,-0.136936552,0.67506943
461,1156191,1772770,0.985,0.044,-0.03,0,0,-0.1,-34.4,6.2,27.2,0.160344249,0.706930754,-0.136936552,0.67506943
462,1159463,1772770,0.981,0.04,-0.042,0,0,0,-34.4,6.2,27.2,0.160344249,0.706930754,-0.136936552,0.67506943
463,1160956,1772780,0.988,0.04,-0.038,0,0,-0.1,-34.4,6.2,27.2,0.160344249,0.706930754,-0.136936552,0.67506943
464,1164832,1772780,0.988,0.04,-0.038,0,0.1,-0.1,-34.4,6.2,27.2,0.160344249,0.706930754,-0.136936552,0.67506943
465,1167141,1772780,0.985,0.036,-0.038,0,0.1,-0.1,-36.4,6,27.2,0.160344249,0.706961272,-0.136936552,0.67506943
466,1169467,1772780,0.985,0.036,-0.038,0,0.1,0,-36.4,6,27.2,0.160344249,0.706961272,-0.136936552,0.67506943
467,1170783,1772790,0.988,0.04,-0.03,0,0,0,-36.4,6,27.2,0.160344249,0.706961272,-0.136936552,0.67506943
468,1173911,1772790,0.985,0.036,-0.038,0,-0.1,0,-36.4,6,27.2,0.160344249,0.706961272,-0.136936552,0.67506943
469,1176389,1772790,0.988,0.04,-0.034,0,-0.2,-0.1,-34.5,6.3,27.5,0.160344249,0.706961272,-0.136936552,0.67506943
470,1178767,1772790,0.985,0.04,-0.038,-0.1,-0.1,-0.1,-34.5,6.3,27.5,0.160344249,0.706961272,-0.136936552,0.675038911
471,1181829,1772800,0.988,0.04,-0.042,0,0,-0.1,-34.5,6.3,27.5,0.160344249,0.706961272,-0.136936552,0.675038911
472,1184036,1772800,0.988,0.036,-0.034,0,0,-0.1,-34.5,6.3,27.5,0.160344249,0.706961272,-0.136936552,0.675038911
473,1186264,1772800,0.981,0.04,-0.034,0,0,-0.1,-34.2,6.3,27.4,0.160374767,0.706961272,-0.136936552,0.675038911
474,1188598,1772800,0.985,0.036,-0.034,0,0,-0.1,-34.2,6.3,27.4,0.160374767,0.706961272,-0.136936552,0.675038911
475,1191554,1772810,0.988,0.044,-0.038,0,0,-0.1,-34.2,6.3,27.4,0.160374767,0.706961272,-0.136936552,0.675038911
476,1193919,1772810,0.985,0.044,-0.034,0,-0.1,-0.1,-34.2,6.3,27.4,0.160374767,0.706961272,-0.136936552,0.675038911
477,1196103,1772810,0.988,0.036,-0.038,0,-0.1,0,-34.2,6.5,27.5,0.160374767,0.706961272,-0.136936552,0.675038911
478,1198531,1772810,0.985,0.036,-0.034,0,-0.1,0.2,-34.2,6.5,27.5,0.160374767,0.706961272,-0.136936552,0.675038911
479,1200825,1772820,0.981,0.04,-0.034,0,0,0.2,-34.2,6.5,27.5,0.160344249,0.706961272,-0.136936552,0.675038911
480,1205256,1772820,0.981,0.04,-0.038,0,0,0.1,-34.2,6.5,27.5,0.160344249,0.706961272,-0.136936552,0.675038911
481,1205762,1772820,0.981,0.04,-0.034,0.1,0,0,-34.3,6.3,27.2,0.160344249,0.706961272,-0.136936552,0.675038911
482,1209096,1772820,0.988,0.044,-0.034,0.1,0,0,-34.3,6.3,27.2,0.160344249,0.706961272,-0.136936552,0.675038911
483,1211236,1772830,0.985,0.036,-0.03,0,-0.1,0,-34.3,6.3,27.2,0.160344249,0.706961272,-0.136936552,0.675038911
484,1213635,1772830,0.988,0.044,-0.038,0,-0.1,0,-34.3,6.3,27.2,0.160344249,0.706961272,-0.136936552,0.675038911
485,1215868,1772830,0.988,0.032,-0.038,0,-0.1,0,-35.5,5.9,27.2,0.160374767,0.706961272,-0.136936552,0.675038911
486,1219571,1772830,0.988,0.032,-0.038,0,0,0,-35.5,5.9,27.2,0.160374767,0.706961272,-0.136936552,0.675038911
487,1221681,1772840,0.985,0.04,-0.034,0,0,0,-35.5,5.9,27.2,0.160374767,0.706961272,-0.136936552,0.675038911
488,1224009,1772840,0.985,0.04,-0.042,0,0.1,0.1,-35.5,5.9,27.2,0.160374767,0.706961272,-0.136936552,0.67506943
489,1225903,1772840,0.985,0.036,-0.034,0,0.1,0,-35.6,6.3,26.9,0.160374767,0.706961272,-0.136936552,0.67506943
490,1228259,1772840,0.985,0.04,-0.034,0,0,0,-35.6,6.3,26.9,0.160374767,0.706961272,-0.136936552,0.67506943
491,1231391,1772850,0.988,0.04,-0.042,0,0,0,-35.6,6.3,26.9,0.160374767,0.706961272,-0.136936552,0.67506943
492,1233257,1772850,0.985,0.04,-0.038,0,0,0,-35.6,6.3,26.9,0.160374767,0.706961272,-0.136936552,0.67506943
493,1235658,1772850,0.985,0.04,-0.034,0,0,0,-35.2,6.2,27.2,0.160374767,0.706961272,-0.136936552,0.67506943
494,1238286,1772850,0.988,0.036,-0.034,0,0,0,-35.2,6.2,27.2,0.160374767,0.706961272,-0.136936552,0.67506943
495,1241692,1772860,0.988,0.036,-0.034,0,-0.1,0,-35.2,6.2,27.2,0.160374767,0.706961272,-0.136936552,0.67506943
496,1244533,1772860,0.985,0.04,-0.042,0,-0.1,-0.1,-35.2,6.2,27.2,0.160374767,0.706961272,-0.136936552,0.675038911
497,1246796,1772860,0.985,0.04,-0.038,0,0,-0.1,-35.7,5.9,27.4,0.160374767,0.706961272,-0.136936552,0.675038911
498,1249937,1772860,0.988,0.04,-0.042,0,0,0,-35.7,5.9,27.4,0.160374767,0.706961272,-0.136936552,0.675038911
499,1252517,1772870,0.988,0.04,-0.042,0,0,0,-35.7,5.9,27.4,0.160374767,0.706961272,-0.136936552,0.675038911
500,1254778,1772870,0.988,0.044,-0.034,0,0,-0.1,-35.7,5.9,27.4,0.160374767,0.706961272,-0.136936552,0.675038911
501,1256565,1772870,0.992,0.044,-0.03,0,0,0,-35.6,6,27.8,0.160374767,0.706961272,-0.136936552,0.675038911
502,1258976,1772870,0.988,0.04,-0.034,0,0,0.1,-35.6,6,27.8,0.160374767,0.706961272,-0.136936552,0.675038911
503,1261084,1772880,0.985,0.04,-0.034,0,0.1,0,-35.6,6,27.8,0.160374767,0.706961272,-0.136936552,0.675038911
504,1263472,1772880,0.985,0.04,-0.034,0,0.2,0,-35.6,6,27.8,0.160374767,0.706961272,-0.136936552,0.67506943
505,1265809,1772880,0.988,0.036,-0.03,0,0.4,0,-35.5,6,26.2,0.160374767,0.706900235,-0.136906034,0.675099948
506,1268593,1772880,0.981,0.036,-0.034,0,0.4,0,-35.5,6,26.2,0.160374767,0.706900235,-0.136906034,0.675099948
507,1270699,1772890,0.988,0.04,-0.03,0,0.3,-0.1,-35.5,6,26.2,0.160374767,0.706900235,-0.136906034,0.675099948
508,1274221,1772890,0.985,0.044,-0.038,0,0.2,0,-35.5,6,26.2,0.160374767,0.706900235,-0.136906034,0.675099948
509,1275787,1772890,0.985,0.04,-0.034,0,0.1,0,-35.3,6,27.9,0.160374767,0.706900235,-0.136906034,0.675099948
510,1278209,1772890,0.985,0.036,-0.034,0,0.1,0,-35.3,6,27.9,0.160374767,0.706900235,-0.136906034,0.675130467
511,1280640,1772900,0.988,0.036,-0.034,0,0,0,-35.3,6,27.9,0.160374767,0.706900235,-0.136906034,0.675130467
512,1283806,1772900,0.988,0.044,-0.03,0,-0.1,0,-35.3,6,27.9,0.160374767,0.706900235,-0.136906034,0.675099948
513,1286054,1772900,0.985,0.036,-0.038,0,-0.3,0,-35.4,6,28.2,0.160374767,0.706900235,-0.136906034,0.675099948
514,1288369,1772900,0.985,0.04,-0.03,0,-0.3,0,-35.4,6,28.2,0.160374767,0.706900235,-0.136906034,0.675099948
515,1290994,1772910,0.988,0.04,-0.034,0,-0.3,0,-35.4,6,28.2,0.160374767,0.706900235,-0.136936552,0.675099948
516,1293222,1772910,0.985,0.04,-0.042,0,-0.1,0,-35.4,6,28.2,0.160374767,0.706900235,-0.136936552,0.675099948
517,1297115,1772910,0.985,0.04,-0.042,0,0,0,-35,6.1,28.3,0.160374767,0.706900235,-0.136936552,0.675099948
518,1299388,1772910,0.988,0.04,-0.038,0,0.1,0,-35,6.1,28.3,0.160374767,0.706900235,-0.136906034,0.675099948
519,1301651,1772920,0.985,0.04,-0.042,0,0,0,-35,6.1,28.3,0.160374767,0.706900235,-0.136936552,0.675099948
520,1303899,1772920,0.985,0.04,-0.034,0,0,0,-35,6.1,28.3,0.160374767,0.706900235,-0.136936552,0.675099948
521,1306267,1772920,0.988,0.044,-0.038,0,-0.1,0,-35.5,5.9,28.7,0.160374767,0.706900235,-0.136936552,0.675099948
522,1308310,1772920,0.988,0.04,-0.034,0,0,0,-35.5,5.9,28.7,0.160374767,0.706900235,-0.136936552,0.675099948
523,1311599,1772930,0.985,0.04,-0.038,0,0,0,-35.5,5.9,28.7,0.160374767,0.706900235,-0.136936552,0.675099948
524,1313736,1772930,0.988,0.04,-0.038,0,0.1,0,-35.5,5.9,28.7,0.160374767,0.706900235,-0.136936552,0.675099948
525,1316048,1772930,0.985,0.04,-0.034,0,0.1,0,-35.6,6.1,25.6,0.160374767,0.706930754,-0.136906034,0.675099948
526,1318548,1772930,0.985,0.04,-0.034,0,0.1,-0.1,-35.6,6.1,25.6,0.160374767,0.706930754,-0.136906034,0.675099948
527,1321003,1772940,0.985,0.04,-0.042,0,0,0,-35.6,6.1,25.6,0.160374767,0.706930754,-0.136906034,0.675099948
528,1323304,1772940,0.985,0.044,-0.034,0.1,0,0,-35.6,6.1,25.6,0.160374767,0.706930754,-0.136906034,0.675099948
529,1325940,1772940,0.985,0.044,-0.042,0,0,0.1,-35.1,6.6,27.7,0.160374767,0.706930754,-0.136906034,0.675099948
530,1329236,1772940,0.985,0.044,-0.034,0,0,0.1,-35.1,6.6,27.7,0.160374767,0.706930754,-0.136906034,0.675099948
531,1330712,1772950,0.988,0.04,-0.034,0,0,0,-35.1,6.6,27.7,0.160374767,0.706930754,-0.136906034,0.675099948
532,1333479,1772950,0.981,0.044,-0.042,0,0.1,-0.1,-35.1,6.6,27.7,0.160374767,0.706930754,-0.136906034,0.675099948
533,1335775,1772950,0.985,0.044,-0.038,0,0.1,-0.1,-35.4,6.3,26.7,0.160374767,0.706930754,-0.136906034,0.675099948
534,1339223,1772950,0.985,0.04,-0.038,0,0.2,0,-35.4,6.3,26.7,0.160374767,0.706930754,-0.136906034,0.675099948
535,1340727,1772960,0.981,0.044,-0.038,0,0.1,-0.1,-35.4,6.3,26.7,0.160374767,0.706930754,-0.136906034,0.675099948
536,1343282,1772960,0.988,0.036,-0.034,0,0.1,-0.1,-35.4,6.3,26.7,0.160374767,0.706900235,-0.136906034,0.675099948
537,1346700,1772960,0.981,0.04,-0.034,0,0.1,-0.1,-35.2,6.7,27,0.160374767,0.706900235,-0.136906034,0.675099948
538,1348219,1772960,0.985,0.04,-0.038,0,0,-0.1,-35.2,6.7,27,0.160374767,0.706900235,-0.136906034,0.675099948
539,1350810,1772970,0.985,0.04,-0.034,0,0,-0.1,-35.2,6.7,27,0.160374767,0.706900235,-0.136906034,0.675099948
540,1354227,1772970,0.988,0.04,-0.038,0,0,0,-35.2,6.7,27,0.160374767,0.706900235,-0.136906034,0.675099948
541,1356443,1772970,0.985,0.036,-0.03,0,-0.1,0,-35.6,6.1,25.8,0.160374767,0.706900235,-0.136906034,0.675099948
542,1358419,1772970,0.988,0.04,-0.034,0,-0.2,0,-35.6,6.1,25.8,0.160374767,0.706930754,-0.136906034,0.675099948
543,1360701,1772980,0.988,0.04,-0.026,0,-0.2,0,-35.6,6.1,25.8,0.160374767,0.706930754,-0.136906034,0.675099948
544,1364900,1772980,-5.504,-1.869,-0.928,0,-0.1,0,-35.6,6.1,25.8,0.160374767,0.706930754,-0.136906034,0.675099948
545,1367247,1772980,7.76,-2.803,-7.814,-15.6,73.3,-1.7,-36,6,26.9,0.160863063,0.705801569,-0.136844996,0.676168096
546,1369407,1772980,7.501,-1.521,-8.216,-15.6,73.3,-1.7,-36,6,26.9,0.16135136,0.704672384,-0.136814478,0.677236244
547,1370890,1772990,5.798,-0.865,-8.164,-17.5,233.4,-11,-36,6,26.9,0.162480544,0.701162755,-0.136082034,0.680715354
548,1373507,1772990,1.602,8.018,-4.749,48.5,387.1,-25.4,-36,6,26.9,0.163243507,0.695638905,-0.133579516,0.686666463
549,1375683,1772990,-6.262,8.095,8.235,198.2,416.4,-39.5,-37.5,8.5,25.4,0.162053285,0.69020661,-0.128513443,0.693411054
550,1379247,1772990,1.153,-1.38,8.027,338.2,300.8,-45.3,-37.5,8.5,25.4,0.15848262,0.68694113,-0.121646779,0.698690756
551,1380757,1773000,-0.098,-6.384,1.506,222.7,86.9,-31.5,-37.5,8.5,25.4,0.155858028,0.686452834,-0.117465743,0.700460829
552,1383324,1773000,-3.711,6.808,8.158,-89.7,-136.6,5.8,-37.5,8.5,25.4,0.156743065,0.688222907,-0.119388409,0.69820246
553,1387472,1773000,-4.588,7.208,7.131,-310.6,-232.6,28,-36.7,7.3,26.8,0.160374767,0.690603351,-0.125339518,0.693960387
554,1389136,1773000,-1.241,-2.699,-5.515,-251.6,-147,10.1,-36.7,7.3,26.8,0.163609729,0.691915647,-0.129825739,0.691091647
555,1390796,1773010,2.141,-7.573,-2.334,-92.7,-9.9,-33.7,-36.7,7.3,26.8,0.165501877,0.691824091,-0.130741295,0.690542314
556,1394122,1773010,2.408,-3.121,-3.714,-73,12.9,-53.4,-36.7,7.3,26.8,0.167424543,0.691518906,-0.130985443,0.690328684
557,1395784,1773010,0.969,-1.566,-2.568,-116.4,-46.7,-39.6,-35.7,6.3,27.1,0.169652394,0.691885128,-0.132328257,0.689168981
558,1399237,1773010,-0.797,-0.835,0.913,-63.7,-48.9,-18.5,-35.7,6.3,27.1,0.170751061,0.692434462,-0.133182775,0.68816187
559,1400847,1773020,-1.448,-1.612,1.171,70.5,42,-3.6,-35.7,6.3,27.1,0.169866024,0.692098758,-0.131900998,0.68898587
560,1405314,1773020,-1.451,-2.837,0.924,150.8,161,6.9,-35.7,6.3,27.1,0.167943358,0.69020661,-0.129123814,0.691885128
561,1405855,1773020,-1.093,-2.606,0.301,110,223.1,15.2,-37.5,6.6,26.9,0.166692099,0.687185278,-0.126895962,0.695577868
562,1409040,1773020,0.388,2.178,1.248,15.5,181.2,18.3,-37.5,6.6,26.9,0.16666158,0.684438612,-0.126285592,0.698416089
563,1411341,1773030,1.457,3.941,2.902,-23,51.4,14.4,-37.5,6.6,26.9,0.166936247,0.683523057,-0.126651814,0.699179052
564,1413483,1773030,2.745,1.252,1.238,16.8,-108.9,6,-37.5,6.6,26.9,0.166295358,0.685232093,-0.126895962,0.697622608
565,1415795,1773030,1.817,-0.753,-1.688,29,-258.5,-2.5,-36.3,6.9,28.5,0.165166173,0.689260537,-0.12735374,0.693807794
566,1418362,1773030,0.893,2.137,-1.373,29,-258.5,-2.5,-36.3,6.9,28.5,0.164067507,0.69328898,-0.127780999,0.689962462
567,1421446,1773040,0.06,2.377,-1.272,-8.6,-183.9,-2.3,-36.3,6.9,28.5,0.163701285,0.696005127,-0.128543962,0.687154759
568,1423157,1773040,-0.068,0.723,-2.008,-9.5,-48.5,-3,-36.3,6.9,28.5,0.163762322,0.696707053,-0.128818628,0.686391797
569,1426761,1773040,0.976,-1.135,-1.327,7.2,68.3,-4.6,-37.1,5.4,26.1,0.163914914,0.695730461,-0.128391369,0.687429426
570,1428305,1773040,1.918,0.161,-0.448,-2.5,106.1,-3.3,-37.1,5.4,26.1,0.164281137,0.694143498,-0.127994629,0.689016388
571,1431447,1773050,2.747,1.298,0.419,-24.4,60.4,-0.2,-37.1,5.4,26.1,0.164860988,0.693136387,-0.128147221,0.689870907
572,1433271,1773050,1.983,-0.276,-0.566,-25.1,-20.3,1.8,-37.1,5.4,26.1,0.165135655,0.693350017,-0.128635517,0.689474166
573,1437460,1773050,1.343,0.663,-0.321,-8.9,-75.3,2.6,-36.2,4.5,26.3,0.165013581,0.694448683,-0.129062777,0.688314463
574,1439725,1773050,1.073,1.418,-0.029,5.8,-72.9,2.3,-36.2,4.5,26.3,0.164708396,0.695547349,-0.129276406,0.687246315
575,1441877,1773060,0.993,0.851,-0.248,13.3,-29.1,1.5,-36.2,4.5,26.3,0.164403211,0.696035646,-0.129215369,0.686849574
576,1443174,1773060,0.957,0.025,-0.033,15.3,14.9,0.3,-36.2,4.5,26.3,0.164189581,0.695883053,-0.128940703,0.687124241
577,1445733,1773060,0.853,0.117,0.314,9,31.4,-0.3,-36.5,4.4,26.6,0.164159062,0.695425275,-0.128666036,0.687612537
578,1448087,1773060,0.689,-0.298,0.375,-3.2,23.6,-0.4,-36.5,4.4,26.6,0.164281137,0.695059053,-0.128635517,0.687978759
579,1451621,1773070,0.803,-0.31,0.775,-12.6,9.7,-0.5,-36.5,4.4,26.6,0.164494766,0.694875942,-0.12878811,0.688070315
580,1454579,1773070,1.115,0.069,0.815,-15,1.2,-0.7,-36.5,4.4,26.6,0.164738914,0.694814905,-0.12900174,0.688070315
581,1456126,1773070,1.278,0.193,0.712,-12.1,-2.7,-0.8,-36.4,4.2,26.3,0.164922025,0.694814905,-0.129184851,0.687978759
582,1459079,1773070,1.208,0.221,0.608,-5.6,-6.6,-0.8,-36.4,4.2,26.3,0.165013581,0.694875942,-0.129276406,0.687856685
583,1460587,1773080,0.954,0.3,-0.065,1.6,-9.4,-1.1,-36.4,4.2,26.3,0.164983062,0.695028535,-0.129245888,0.687704093
584,1463587,1773080,0.852,0.147,-0.375,5.9,-7.2,-1.2,-36.4,4.2,26.3,0.164891507,0.695181127,-0.129184851,0.687612537
585,1466894,1773080,0.77,-0.06,-0.238,3.9,7.7,-1.3,-36.7,8.3,28,0.164860988,0.695059053,-0.129062777,0.687734611
586,1468402,1773080,0.794,-0.102,0.085,3.9,7.7,-1.3,-36.7,8.3,28,0.164860988,0.694967498,-0.128971221,0.687856685
587,1470647,1773090,1.102,-0.089,0.365,-0.3,9.2,-1.1,-36.7,8.3,28,0.164891507,0.694845424,-0.128910184,0.688009278
588,1473636,1773090,1.078,-0.199,0.19,-3.9,3.1,-0.9,-36.7,8.3,28,0.164983062,0.694784387,-0.128940703,0.688039796
589,1476898,1773090,1.011,-0.089,-0.109,-5.5,-5.3,-0.6,-36.7,6.1,27,0.165074618,0.694845424,-0.129032258,0.687917722
590,1478436,1773090,0.875,0.076,-0.446,-4.4,-8.8,-0.5,-36.7,6.1,27,0.165105136,0.694967498,-0.129123814,0.687795648
591,1481433,1773100,0.898,0.009,-0.493,-1,-4.6,-0.6,-36.7,6.1,27,0.165135655,0.695028535,-0.129123814,0.687704093
592,1483208,1773100,0.953,0.084,-0.213,2.8,2.8,-0.8,-36.7,6.1,27,0.165105136,0.694998016,-0.129093295,0.68776513
593,1486957,1773100,1.024,0.178,0.159,5.2,6.8,-0.8,-36.5,6.8,26.9,0.165044099,0.694906461,-0.128971221,0.687887204
594,1489223,1773100,1.083,0.028,0.334,5.3,4.1,-0.7,-36.5,6.8,26.9,0.164983062,0.694875942,-0.128879666,0.687948241
595,1490685,1773110,1.013,0.061,0.321,4.1,-2.1,-0.4,-36.5,6.8,26.9,0.164922025,0.694906461,-0.128818628,0.687917722
596,1493736,1773110,0.935,0.1,0.233,2.4,-6.6,-0.4,-36.5,6.8,26.9,0.164891507,0.695028535,-0.12878811,0.687826167
597,1495818,1773110,0.93,0.021,0.018,1.3,-5.8,-0.6,-36.5,7.3,26.8,0.164860988,0.69512009,-0.12878811,0.687734611
598,1499055,1773110,1.012,0.076,-0.015,1.1,-1.4,-0.8,-36.5,7.3,26.8,0.164860988,0.695150609,-0.128757591,0.687734611
599,1501852,1773120,1.066,0.122,-0.021,1.6,2.2,-1,-36.5,7.3,26.8,0.164860988,0.69512009,-0.128696554,0.68776513
600,1504774,1773120,1.051,0.095,-0.013,1.8,2.5,-1.1,-36.5,7.3,26.8,0.164860988,0.695089572,-0.128666036,0.687795648
601,1506376,1773120,0.961,0.013,-0.064,1.6,0.7,-1,-36.5,8,27.1,0.16483047,0.695089572,-0.128604999,0.687795648
602,1508306,1773120,0.946,0.029,-0.083,0.8,-0.5,-0.8,-36.5,8,27.1,0.16483047,0.69512009,-0.12857448,0.687795648
603,1511446,1773130,0.961,0.029,-0.131,0.1,0,-0.5,-36.5,8,27.1,0.16483047,0.69512009,-0.12857448,0.687795648
604,1514372,1773130,0.988,0.083,-0.093,-0.3,1.1,-0.2,-36.5,8,27.1,0.164860988,0.695089572,-0.12857448,0.687826167
605,1515801,1773130,0.981,0.08,-0.097,0,1.3,0.2,-36.5,8,27.1,0.16483047,0.695181127,-0.128604999,0.687734611
606,1518928,1773130,0.981,0.08,-0.097,0,1.3,0.2,-36.5,8,27.1,0.16483047,0.695150609,-0.128604999,0.687734611
607,1521841,1773140,0.965,0.052,-0.123,-0.1,0.6,0.3,-36.5,8,27.1,0.16483047,0.695150609,-0.128604999,0.68776513
608,1523362,1773140,0.957,0.021,-0.068,-0.4,0.5,0.3,-36.5,8,27.1,0.16483047,0.695150609,-0.128604999,0.68776513
609,1526400,1773140,0.992,0.001,-0.128,-0.9,0.9,0.3,-36.5,6.4,27.4,0.16483047,0.69512009,-0.128635517,0.68776513
610,1529308,1773140,1.019,0.004,-0.192,-1.2,1,0.5,-36.5,6.4,27.4,0.164860988,0.695089572,-0.128635517,0.687795648
611,1530869,1773150,0.996,0.036,-0.077,-1.2,0.5,0.5,-36.5,6.4,27.4,0.164860988,0.695089572,-0.128666036,0.687795648
612,1533835,1773150,0.985,0.056,0.016,-0.9,-0.1,0.6,-36.5,6.4,27.4,0.164860988,0.695089572,-0.128696554,0.687795648
613,1536734,1773150,0.981,0.076,0.098,-0.3,-0.4,0.8,-36.5,6.6,27.5,0.164860988,0.695089572,-0.128727073,0.687795648
614,1538371,1773150,0.985,0.076,0.173,0.2,-0.5,0.9,-36.5,6.6,27.5,0.16483047,0.695089572,-0.128727073,0.687795648
615,1541309,1773160,0.985,0.08,0.255,0.4,-0.7,0.9,-36.5,6.6,27.5,0.16483047,0.69512009,-0.128757591,0.68776513
616,1544134,1773160,0.985,0.076,0.251,0.4,-1.2,0.9,-36.5,6.6,27.5,0.164799951,0.69512009,-0.128757591,0.68776513
617,1545781,1773160,0.993,0.084,0.196,0.3,-1.6,0.8,-36,6.5,27.5,0.164769433,0.695150609,-0.128757591,0.687734611
618,1548753,1773160,1.012,0.095,0.043,0.1,-1.6,0.7,-36,6.5,27.5,0.164738914,0.695181127,-0.12878811,0.687734611
619,1551857,1773170,1.008,0.064,0.004,0.1,-1.2,0.6,-36,6.5,27.5,0.164738914,0.695181127,-0.12878811,0.687704093
620,1554876,1773170,1,0.028,-0.023,-0.1,-0.5,0.5,-36,6.5,27.5,0.164738914,0.695181127,-0.128818628,0.687704093
621,1557166,1773170,0.988,0.013,-0.03,-0.4,0.1,0.3,-36.5,6.8,27.5,0.164738914,0.695181127,-0.128818628,0.687704093
622,1559313,1773170,0.973,0.021,-0.049,-1,0.5,0.5,-36.5,6.8,27.5,0.164738914,0.695181127,-0.128849147,0.687704093
623,1560793,1773180,0.981,0.032,-0.1,-1.3,0.7,0.6,-36.5,6.8,27.5,0.164738914,0.695150609,-0.128879666,0.687704093
624,1563863,1773180,0.984,0.036,-0.144,-1.2,0.4,0.7,-36.5,6.8,27.5,0.164769433,0.695150609,-0.128910184,0.687734611
625,1566795,1773180,0.977,0.052,-0.155,-0.4,0,0.9,-36.5,6.8,27.5,0.16461684,0.695394757,-0.129062777,0.687459944
626,1568651,1773180,0.977,0.048,-0.147,-0.4,0,0.9,-36.5,6.8,27.5,0.164586322,0.695394757,-0.129062777,0.687459944
627,1571727,1773190,0.984,0.048,-0.136,-0.1,0,0.9,-36.5,6.8,27.5,0.164586322,0.695394757,-0.129093295,0.687459944
628,1573305,1773190,0.996,0.052,-0.085,0,-0.2,0.9,-36.5,6.8,27.5,0.164555803,0.695394757,-0.129123814,0.687459944
629,1576308,1773190,1,0.036,0.039,-0.1,-0.6,0.9,-37.3,7.7,27.5,0.164555803,0.695394757,-0.129123814,0.687459944
630,1579498,1773190,1.008,0.036,0.066,-0.3,-1.3,0.8,-37.3,7.7,27.5,0.164555803,0.695425275,-0.129123814,0.687459944
631,1581070,1773200,1.008,0.048,0.07,-0.5,-1.9,0.8,-37.3,7.7,27.5,0.164525285,0.695455794,-0.129184851,0.687429426
632,1584858,1773200,0.981,0.076,0.091,-0.4,-2.1,0.8,-37.3,7.7,27.5,0.164525285,0.695486312,-0.129215369,0.687398907
633,1586445,1773200,0.981,0.088,0.071,-0.3,-2,0.7,-38,7.9,27.9,0.164494766,0.695516831,-0.129215369,0.687368389
634,1589201,1773200,0.985,0.084,0.043,0,-1.4,0.6,-38,7.9,27.9,0.164494766,0.695516831,-0.129245888,0.68733787
635,1590739,1773210,0.996,0.072,0.023,0.2,-0.9,0.5,-38,7.9,27.9,0.164464248,0.695547349,-0.129245888,0.68733787
636,1593853,1773210,0.996,0.04,0.027,0,-0.7,0.5,-38,7.9,27.9,0.164464248,0.695547349,-0.129276406,0.687307352
637,1596076,1773210,0.996,0.032,0.024,-0.4,-1.1,0.5,-38.5,7.8,27.7,0.164464248,0.695547349,-0.129276406,0.687307352
638,1599067,1773210,0.996,0.025,0.02,-1.1,-1.5,0.7,-38.5,7.8,27.7,0.164464248,0.695577868,-0.129306925,0.687276833
639,1600725,1773220,0.981,0.009,0.028,-1.6,-1.9,0.9,-38.5,7.8,27.7,0.164464248,0.695608386,-0.129367962,0.687246315
640,1604302,1773220,0.981,0.009,0.02,-1.8,-2.1,1,-38.5,7.8,27.7,0.164464248,0.695608386,-0.129428999,0.687215796
641,1605920,1773220,0.981,0.013,0.02,-1.7,-2,1.1,-38.9,7.3,27.8,0.164494766,0.695638905,-0.129459517,0.687185278
642,1608084,1773220,0.985,0.025,0.02,-1.3,-1.8,1.4,-38.9,7.3,27.8,0.164464248,0.695669424,-0.129520554,0.687154759
643,1611104,1773230,0.992,0.025,-0.007,-0.8,-1.7,1.7,-38.9,7.3,27.8,0.164464248,0.695669424,-0.129551073,0.687124241
644,1614233,1773230,0.985,0.017,-0.018,-0.5,-1.9,2.1,-38.9,7.3,27.8,0.164433729,0.695699942,-0.12961211,0.687093722
645,1615718,1773230,0.946,-0.006,-0.005,-1,-2,3.1,-38.9,7.3,27.8,0.164220099,0.695638905,-0.129856258,0.687154759
646,1619471,1773230,0.957,-0.002,0.021,-1,-2,3.1,-38.9,7.3,27.8,0.164189581,0.695669424,-0.129947813,0.687124241
647,1620922,1773240,0.961,-0.002,0.025,-1.9,-1.8,3.8,-38.9,7.3,27.8,0.164128544,0.695669424,-0.130039369,0.687124241
648,1624124,1773240,0.973,-0.014,0.024,-2.7,-2.2,4.7,-38.9,7.3,27.8,0.164098025,0.695699942,-0.130161443,0.687093722
649,1625714,1773240,0.981,-0.006,0.04,-3.4,-3.8,5.4,-37.7,6.9,27.4,0.164067507,0.695730461,-0.130283517,0.687032685
650,1628261,1773240,0.946,0.005,0.021,-3.9,-6.1,5.9,-37.7,6.9,27.4,0.16400647,0.695791498,-0.130466628,0.686971648
651,1631379,1773250,0.954,0.021,0.029,-4.2,-8.2,6.3,-37.7,6.9,27.4,0.163975951,0.695883053,-0.130649739,0.686849574
652,1633264,1773250,0.954,0.041,0.099,-4.4,-9.5,6.6,-37.7,6.9,27.4,0.163914914,0.695974609,-0.130863369,0.686696982
653,1636003,1773250,0.954,0.021,0.158,-4.7,-10.3,6.9,-37,6.8,27.7,0.163853877,0.696096683,-0.131076998,0.686574908
654,1639162,1773250,0.957,-0.08,0.139,-5.5,-11.3,7.1,-37,6.8,27.7,0.16379284,0.696218757,-0.131321146,0.686391797
655,1640699,1773260,0.926,-0.092,0.14,-7,-12.7,7.3,-37,6.8,27.7,0.163731803,0.696371349,-0.131565294,0.686208686
656,1643893,1773260,0.911,-0.068,0.136,-8.6,-14.1,7.5,-37,6.8,27.7,0.163731803,0.696523942,-0.131870479,0.685995056
657,1645577,1773260,0.895,-0.013,0.141,-9.3,-14.8,7.6,-36.4,7,27.6,0.163701285,0.696707053,-0.132175665,0.685781426
658,1648473,1773260,0.919,-0.017,0.183,-8.7,-15.1,7.6,-36.4,7,27.6,0.163670766,0.696859645,-0.13248085,0.685537278
659,1651453,1773270,0.919,-0.048,0.214,-7.7,-15.7,7.7,-36.4,7,27.6,0.163640248,0.697042756,-0.132755516,0.685323649
660,1653816,1773270,0.942,-0.092,0.198,-7.6,-17,7.9,-36.4,7,27.6,0.163579211,0.697256386,-0.133030183,0.685048982
661,1655585,1773270,0.903,-0.029,0.125,-8.4,-18.7,8.1,-35.8,7.2,27.8,0.163548692,0.697500534,-0.133365886,0.684774316
662,1658373,1773270,0.942,0.033,0.135,-8.9,-20,8,-35.8,7.2,27.8,0.163487655,0.697744682,-0.13370159,0.684469131
663,1662138,1773280,0.966,0.073,0.232,-8.1,-20.1,7.6,-35.8,7.2,27.8,0.163457137,0.69798883,-0.134006775,0.684163945
664,1663728,1773280,0.904,0.101,0.312,-6.8,-19.7,7,-35.8,7.2,27.8,0.1633961,0.698232978,-0.134281442,0.683889279
665,1665686,1773280,0.969,0.072,0.001,-5.7,-21.7,6.2,-35.8,7.2,27.8,0.163518174,0.697744682,-0.134403516,0.684316538
666,1668724,1773280,0.969,0.072,0.001,-5.7,-21.7,6.2,-35.8,7.2,27.8,0.163457137,0.698049867,-0.134647664,0.683980834
667,1671751,1773290,1.047,0.071,-0.001,-5.5,-23.8,5.8,-35.8,7.2,27.8,0.163365581,0.698355052,-0.13492233,0.683645131
668,1673265,1773290,0.962,0.155,0.06,-5.1,-24,5,-35.8,7.2,27.8,0.163304544,0.698690756,-0.13513596,0.683278909
669,1676309,1773290,0.896,0.191,0.069,-3.6,-21.4,4,-35.3,6.2,27.5,0.163243507,0.698965423,-0.13534959,0.682943205
670,1678173,1773290,0.864,0.164,0.035,-1.3,-17.7,3.1,-35.3,6.2,27.5,0.163151952,0.699240089,-0.135471664,0.682668538
671,1681627,1773300,0.856,0.128,-0.003,0.9,-14.9,2.3,-35.3,6.2,27.5,0.163060396,0.699453719,-0.135532701,0.682454909
672,1683090,1773300,0.88,0.148,-0.011,2.2,-14.4,1.7,-35.3,6.2,27.5,0.162968841,0.699667348,-0.135593738,0.682271798
673,1686629,1773300,0.899,0.175,-0.024,2.7,-16.2,1,-35.3,6.2,27.3,0.162846767,0.699911496,-0.135624256,0.68202765
674,1688211,1773300,0.919,0.183,-0.036,3.1,-19,0.3,-35.3,6.2,27.3,0.162755211,0.700186163,-0.135654775,0.681752983
675,1691171,1773310,0.977,0.155,-0.053,3.8,-21.6,-0.1,-35.3,6.2,27.3,0.162633137,0.700552385,-0.135654775,0.68141728
676,1694198,1773310,1.012,0.146,-0.074,4.2,-22.9,-0.4,-35.3,6.2,27.3,0.162511063,0.700888089,-0.135685293,0.681081576
677,1695698,1773310,1.051,0.126,-0.118,4.2,-23.1,-0.4,-35,6.5,27.3,0.162327952,0.701254311,-0.135685293,0.680745872
678,1699553,1773310,1.093,0.078,-0.163,3.6,-22.8,-0.2,-35,6.5,27.3,0.162236396,0.701620533,-0.135715812,0.680410169
679,1701061,1773320,1.093,0.059,-0.171,2.6,-22.6,0.2,-35,6.5,27.3,0.162144841,0.701956236,-0.13574633,0.680074465
680,1704088,1773320,1.093,0.055,-0.178,1.4,-22,0.6,-35,6.5,27.3,0.162053285,0.70229194,-0.135837886,0.679738762
681,1705703,1773320,1.097,0.039,-0.159,0.3,-21,1,-35.4,6,27.4,0.16196173,0.702597125,-0.135898923,0.679403058
682,1709119,1773320,1.054,0.008,-0.228,-0.4,-19.3,1.1,-35.4,6,27.4,0.161900693,0.702871792,-0.13595996,0.679128391
683,1710761,1773330,1.038,0.008,-0.298,-0.8,-17.4,1,-35.4,6,27.4,0.161839656,0.703146458,-0.136082034,0.678853725
684,1713638,1773330,1.038,0.008,-0.318,-1.3,-15.6,0.8,-35.4,6,27.4,0.161809137,0.703360088,-0.136173589,0.678609577
685,1716573,1773330,1.027,-0.007,-0.305,-1.5,-13.1,0.3,-35.4,6,27.4,0.161717582,0.70372631,-0.136326182,0.678243355
686,1718182,1773330,1.027,-0.003,-0.321,-1.5,-13.1,0.3,-35.4,6,27.4,0.161687063,0.703909421,-0.136387219,0.678029725
687,1720615,1773340,1.031,0.012,-0.325,-1.1,-12,0,-35.4,6,27.4,0.161656545,0.704092532,-0.136448256,0.677846614
688,1723246,1773340,1.027,0.028,-0.305,-0.5,-10.7,0,-35.4,6,27.4,0.161656545,0.704245125,-0.136478774,0.677663503
689,1726453,1773340,1.039,0.027,-0.298,0.2,-9.4,-0.1,-34.1,6.1,27.4,0.161626026,0.704367199,-0.136509293,0.67751091
690,1728362,1773340,1.039,0.031,-0.29,0.9,-8.1,-0.2,-34.1,6.1,27.4,0.161595508,0.704489273,-0.136539811,0.677388836
691,1731459,1773350,1.046,0.039,-0.279,1.3,-7,0,-34.1,6.1,27.4,0.161534471,0.704611347,-0.136539811,0.677297281
692,1733082,1773350,1.039,0.063,-0.247,1.5,-5.8,0,-34.1,6.1,27.4,0.161503952,0.704702902,-0.136539811,0.677205725
693,1736657,1773350,1.039,0.059,-0.228,1.8,-4.8,0.2,-33.9,6,27.4,0.161442915,0.704794458,-0.136539811,0.677144688
694,1738281,1773350,1.035,0.067,-0.208,2,-3.5,0.3,-33.9,6,27.4,0.161412397,0.704855495,-0.136509293,0.677083651
695,1741248,1773360,1.031,0.067,-0.188,2.1,-2.1,0.2,-33.9,6,27.4,0.16135136,0.704886013,-0.136509293,0.677083651
696,1744264,1773360,1.031,0.079,-0.149,1.9,-0.7,0.2,-33.9,6,27.4,0.161320841,0.704886013,-0.136478774,0.677053133
697,1745752,1773360,1.02,0.079,-0.117,1.8,0.2,0.3,-33.9,5.9,27.6,0.161290323,0.704886013,-0.136448256,0.677083651
698,1748733,1773360,1.02,0.079,-0.106,1.6,1.1,0.2,-33.9,5.9,27.6,0.161259804,0.704886013,-0.136417737,0.67711417
699,1751801,1773370,1.008,0.079,-0.066,1.3,1.8,0.3,-33.9,5.9,27.6,0.161259804,0.704855495,-0.136387219,0.677144688
700,1754083,1773370,1,0.083,-0.038,0.9,2.3,0.2,-33.9,5.9,27.6,0.161229286,0.704824976,-0.136387219,0.677175207
701,1755546,1773370,0.996,0.076,-0.023,0.4,2.9,0.2,-33.6,6,27.4,0.161229286,0.704794458,-0.1363567,0.677205725
702,1759124,1773370,0.989,0.072,-0.011,-0.1,3.4,0.1,-33.6,6,27.4,0.161259804,0.704733421,-0.1363567,0.677266762
703,1760716,1773380,0.977,0.064,0.016,-0.6,3.8,0.1,-33.6,6,27.4,0.161259804,0.704672384,-0.1363567,0.677327799
704,1763814,1773380,0.977,0.06,0.02,-1.1,4,0.1,-33.6,6,27.4,0.161290323,0.704611347,-0.1363567,0.677388836
705,1766664,1773380,0.961,0.041,0.025,-1.8,4.1,0.1,-33.6,6,27.4,0.16135136,0.704489273,-0.136326182,0.677480392
706,1768299,1773380,0.957,0.037,0.025,-1.8,4.1,0.1,-33.6,6,27.4,0.161442915,0.704428236,-0.136326182,0.677541429
707,1771425,1773390,0.954,0.033,0.029,-2,3.8,0.1,-33.6,6,27.4,0.161473434,0.704367199,-0.1363567,0.677602466
708,1773589,1773390,0.95,0.025,0.029,-2.1,3.4,0.2,-33.6,6,27.4,0.161503952,0.704306162,-0.136387219,0.677663503
709,1776531,1773390,0.95,0.021,0.033,-2,3,0.2,-34.2,6.2,27.7,0.161534471,0.704245125,-0.136417737,0.677694021
710,1778540,1773390,0.954,0.021,0.033,-1.8,2.5,0.3,-34.2,6.2,27.7,0.161564989,0.704214606,-0.136417737,0.67772454
711,1780623,1773400,0.957,0.017,0.029,-1.5,1.9,0.3,-34.2,6.2,27.7,0.161595508,0.704184088,-0.136448256,0.677755058
712,1783356,1773400,0.961,0.017,0.033,-1.3,1.2,0.3,-34.2,6.2,27.7,0.161626026,0.704153569,-0.136478774,0.677785577
713,1787438,1773400,0.965,0.021,0.029,-0.9,0.4,0.3,-34.2,6.3,27.2,0.161626026,0.704153569,-0.136478774,0.677785577
714,1788100,1773400,0.973,0.021,0.028,-0.6,-0.2,0.2,-34.2,6.3,27.2,0.161626026,0.704153569,-0.136509293,0.677785577
715,1791906,1773410,0.977,0.029,0.024,-0.2,-0.8,0.2,-34.2,6.3,27.2,0.161626026,0.704153569,-0.136509293,0.677755058
716,1794191,1773410,0.981,0.029,0.024,0.1,-1.2,0.1,-34.2,6.3,27.2,0.161626026,0.704184088,-0.136509293,0.677755058
717,1796406,1773410,0.989,0.036,0.016,0.4,-1.4,0,-34,6.6,27.1,0.161626026,0.704184088,-0.136509293,0.67772454
718,1798652,1773410,0.985,0.04,0.016,0.6,-1.6,0,-34,6.6,27.1,0.161595508,0.704214606,-0.136509293,0.677694021
719,1801011,1773420,0.989,0.044,0.012,0.8,-1.8,0,-34,6.6,27.1,0.161564989,0.704245125,-0.136509293,0.677663503
720,1805328,1773420,0.985,0.048,0,0.9,-1.9,0,-34,6.6,27.1,0.161564989,0.704275643,-0.136509293,0.677632984
721,1805915,1773420,0.977,0.048,-0.002,1,-1.9,0,-33.9,6.1,27.4,0.161534471,0.704306162,-0.136478774,0.677602466
722,1809050,1773420,0.977,0.048,-0.014,1,-2,0,-33.9,6.1,27.4,0.161503952,0.70433668,-0.136478774,0.677602466
723,1810928,1773430,0.977,0.044,-0.018,0.9,-2.2,0,-33.9,6.1,27.4,0.161503952,0.704397717,-0.136478774,0.677571947
724,1813427,1773430,0.977,0.044,-0.034,0.7,-2.4,0.1,-33.9,6.1,27.4,0.161473434,0.704428236,-0.136478774,0.67751091
725,1816534,1773430,0.981,0.04,-0.045,0.4,-2.7,0,-33.9,6.1,27.4,0.161473434,0.704428236,-0.136448256,0.67751091
726,1818386,1773430,0.981,0.04,-0.045,0.4,-2.7,0,-33.9,6.1,27.4,0.161473434,0.704458754,-0.136448256,0.677480392
727,1821792,1773440,0.981,0.044,-0.049,0.3,-2.7,0,-33.9,6.1,27.4,0.161442915,0.704519791,-0.136478774,0.677449873
728,1823344,1773440,0.988,0.048,-0.061,0.2,-2.7,0.1,-33.9,6.1,27.4,0.161442915,0.70455031,-0.136478774,0.677388836
729,1827157,1773440,0.996,0.04,-0.062,0.1,-2.7,0.2,-35,6.1,27.3,0.161412397,0.704580828,-0.136478774,0.677358318
730,1829226,1773440,1,0.04,-0.074,0.1,-2.9,0.1,-35,6.1,27.3,0.161412397,0.704641865,-0.136478774,0.677327799
731,1830812,1773450,1.004,0.044,-0.074,0.1,-2.9,0,-35,6.1,27.3,0.161412397,0.704672384,-0.136509293,0.677266762
732,1833815,1773450,1,0.044,-0.077,0.1,-2.9,0,-35,6.1,27.3,0.16135136,0.704733421,-0.136509293,0.677236244
733,1836612,1773450,1.004,0.044,-0.078,0.1,-2.8,0,-35.3,5.8,27.6,0.16135136,0.704763939,-0.136509293,0.677175207
734,1838133,1773450,1.004,0.048,-0.081,0.1,-2.6,0.1,-35.3,5.8,27.6,0.16135136,0.704794458,-0.136539811,0.677144688
735,1840842,1773460,0.996,0.044,-0.081,0.1,-2.3,0.2,-35.3,5.8,27.6,0.16135136,0.704824976,-0.136539811,0.67711417
736,1843912,1773460,0.996,0.036,-0.081,0.2,-2,0.2,-35.3,5.8,27.6,0.16135136,0.704855495,-0.136539811,0.677083651
737,1845576,1773460,0.996,0.04,-0.081,0.2,-1.5,0.2,-35.1,5.9,27.3,0.161320841,0.704886013,-0.136539811,0.677053133
738,1848549,1773460,0.992,0.04,-0.073,0.2,-1.1,0.2,-35.1,5.9,27.3,0.161320841,0.704916532,-0.136539811,0.677053133
739,1851636,1773470,0.992,0.044,-0.069,0.2,-0.8,0.2,-35.1,5.9,27.3,0.161320841,0.704916532,-0.13657033,0.677022614
740,1854518,1773470,0.988,0.044,-0.073,0.2,-0.6,0.1,-35.1,5.9,27.3,0.161290323,0.704916532,-0.13657033,0.677022614
741,1855875,1773470,0.988,0.044,-0.061,0.2,-0.4,0,-35,6,28.2,0.161290323,0.70494705,-0.13657033,0.677022614
742,1858890,1773470,0.992,0.044,-0.062,0.2,-0.3,0,-35,6,28.2,0.161290323,0.70494705,-0.136539811,0.677022614
743,1860590,1773480,0.992,0.044,-0.058,0.2,-0.3,0,-35,6,28.2,0.161290323,0.70494705,-0.136539811,0.676992096
744,1864156,1773480,0.992,0.044,-0.046,0.2,-0.2,0.1,-35,6,28.2,0.161259804,0.70494705,-0.136539811,0.676992096
745,1865937,1773480,0.988,0.044,-0.05,0,-0.1,0,-35,6,28.2,0.161259804,0.705099643,-0.13657033,0.676870022
746,1868159,1773480,0.985,0.048,-0.042,0,-0.1,0,-35,6,28.2,0.161259804,0.705099643,-0.13657033,0.676870022
747,1870808,1773490,0.988,0.044,-0.038,0,-0.1,0,-35,6,28.2,0.161259804,0.705099643,-0.13657033,0.676870022
748,1873814,1773490,0.988,0.044,-0.042,0,-0.1,0,-35,6,28.2,0.161259804,0.705099643,-0.13657033,0.676870022
749,1876929,1773490,0.988,0.036,-0.026,-0.1,0,0.1,-35.2,6.1,27.9,0.161259804,0.705099643,-0.13657033,0.676870022
750,1879010,1773490,0.985,0.04,-0.03,-0.2,0.2,0.2,-35.2,6.1,27.9,0.161259804,0.705099643,-0.13657033,0.676870022
751,1881420,1773500,0.988,0.044,-0.026,-0.3,0.2,0.2,-35.2,6.1,27.9,0.161259804,0.705069124,-0.136600848,0.676870022
752,1883757,1773500,0.981,0.04,-0.022,-0.2,0.3,0.2,-35.2,6.1,27.9,0.161259804,0.705069124,-0.136600848,0.676870022
753,1886141,1773500,0.988,0.04,-0.018,-0.1,0.3,0.2,-35.1,6.4,28.6,0.161259804,0.705069124,-0.136600848,0.676870022
754,1888247,1773500,0.988,0.04,-0.018,-0.1,0.3,0.1,-35.1,6.4,28.6,0.161259804,0.705069124,-0.136600848,0.676870022
755,1890719,1773510,0.988,0.04,-0.014,0,0.2,0,-35.1,6.4,28.6,0.161259804,0.705069124,-0.136600848,0.67690054
756,1894202,1773510,0.988,0.036,-0.018,0,0.2,0,-35.1,6.4,28.6,0.161259804,0.705038606,-0.136600848,0.67690054
757,1895686,1773510,0.981,0.04,-0.01,0,0.1,0,-35,6.1,28.6,0.161259804,0.705038606,-0.136600848,0.67690054
758,1898751,1773510,0.981,0.04,-0.018,0,0,0.1,-35,6.1,28.6,0.161259804,0.705038606,-0.136600848,0.67690054
759,1900734,1773520,0.977,0.04,-0.018,0,0,0,-35,6.1,28.6,0.161259804,0.705038606,-0.136600848,0.67690054
760,1903985,1773520,0.977,0.036,-0.022,0,-0.1,0,-35,6.1,28.6,0.161259804,0.705038606,-0.136600848,0.67690054
761,1906297,1773520,0.973,0.037,-0.022,0,-0.1,-0.1,-35.2,6.3,28.2,0.161259804,0.705069124,-0.136600848,0.67690054
762,1908496,1773520,0.977,0.04,-0.022,0,-0.3,-0.1,-35.2,6.3,28.2,0.161259804,0.705069124,-0.136600848,0.676870022
763,1911260,1773530,0.973,0.036,-0.026,0,-0.4,0,-35.2,6.3,28.2,0.161259804,0.705069124,-0.136600848,0.676870022
764,1913486,1773530,0.977,0.04,-0.026,0.1,-0.6,0,-35.2,6.3,28.2,0.161259804,0.705069124,-0.136600848,0.676870022
765,1915882,1773530,0.985,0.04,-0.034,0.1,-0.8,0,-35.2,6.3,28.2,0.161229286,0.705038606,-0.136631367,0.67690054
766,1918244,1773530,0.992,0.036,-0.034,0.1,-0.8,0,-35.2,6.3,28.2,0.161229286,0.705069124,-0.136631367,0.67690054
767,1921736,1773540,0.992,0.04,-0.026,0.1,-0.9,0.1,-35.2,6.3,28.2,0.161229286,0.705069124,-0.136631367,0.676870022
768,1923269,1773540,0.996,0.044,-0.03,0.1,-0.9,0.1,-35.2,6.3,28.2,0.161229286,0.705099643,-0.136631367,0.676870022
769,1926067,1773540,0.996,0.044,-0.03,0.1,-0.9,0.1,-35.2,6.3,26.7,0.161229286,0.705099643,-0.136631367,0.676839503
770,1928334,1773540,1,0.044,-0.034,0.1,-0.9,0.1,-35.2,6.3,26.7,0.161198767,0.705130161,-0.136631367,0.676839503
771,1931707,1773550,0.996,0.04,-0.034,0.2,-0.8,0.1,-35.2,6.3,26.7,0.161198767,0.705130161,-0.136631367,0.676808985
772,1933942,1773550,0.988,0.044,-0.034,0.2,-0.7,0.2,-35.2,6.3,26.7,0.161198767,0.705130161,-0.136661885,0.676808985
773,1936066,1773550,0.985,0.04,-0.038,0.1,-0.4,0.2,-35,6.6,26.6,0.161198767,0.70516068,-0.136661885,0.676808985
774,1938368,1773550,0.977,0.044,-0.038,0.1,-0.3,0.2,-35,6.6,26.6,0.161168249,0.70516068,-0.136661885,0.676808985
775,1940762,1773560,0.977,0.04,-0.038,0.1,-0.1,0.2,-35,6.6,26.6,0.161168249,0.70516068,-0.136661885,0.676808985
776,1943205,1773560,0.973,0.04,-0.037,0,-0.3,0.2,-35,6.6,26.6,0.161168249,0.70516068,-0.136661885,0.676808985
777,1945815,1773560,0.977,0.036,-0.037,0,-0.5,0.1,-35,6,26,0.161168249,0.70516068,-0.136661885,0.676747948
778,1949834,1773560,0.977,0.036,-0.037,-0.1,-0.7,0,-35,6,26,0.161168249,0.705191198,-0.136661885,0.676747948
779,1951923,1773570,0.981,0.032,-0.034,-0.1,-0.7,0,-35,6,26,0.161168249,0.705191198,-0.136661885,0.676747948
780,1954020,1773570,0.988,0.036,-0.046,-0.1,-0.7,0,-35,6,26,0.161168249,0.705191198,-0.136692404,0.676747948
781,1955875,1773570,0.988,0.04,-0.042,-0.1,-0.7,0,-35.2,6.4,26,0.161168249,0.705221717,-0.136692404,0.676747948
782,1958562,1773570,0.992,0.04,-0.046,0,-0.8,0,-35.2,6.4,26,0.161168249,0.705221717,-0.136692404,0.676717429
783,1960816,1773580,0.992,0.044,-0.042,0.1,-0.8,0,-35.2,6.4,26,0.16113773,0.705221717,-0.136692404,0.676717429
784,1964986,1773580,0.992,0.048,-0.038,0.1,-0.8,0,-35.2,6.4,26,0.16113773,0.705252235,-0.136692404,0.676686911
785,1966687,1773580,0.996,0.044,-0.042,0,-0.8,0,-35.2,6.4,26,0.16113773,0.705313272,-0.136692404,0.676625874
786,1968328,1773580,0.996,0.044,-0.042,0,-0.6,0,-35.2,6.4,26,0.16113773,0.705343791,-0.136692404,0.676625874
787,1970642,1773590,0.988,0.048,-0.042,0,-0.3,0,-35.2,6.4,26,0.16113773,0.705343791,-0.136692404,0.676595355
788,1974448,1773590,0.981,0.044,-0.034,0,-0.1,0,-35.2,6.4,26,0.16113773,0.705343791,-0.136692404,0.676595355
789,1976162,1773590,0.985,0.044,-0.042,0,0,0,-34.9,6.2,27.1,0.16113773,0.705343791,-0.136692404,0.676595355
790,1978138,1773590,0.985,0.04,-0.038,0,0,0,-34.9,6.2,27.1,0.16113773,0.705343791,-0.136692404,0.676595355
791,1981624,1773600,0.981,0.04,-0.042,0,0,0,-34.9,6.2,27.1,0.16113773,0.705343791,-0.136692404,0.676595355
792,1983792,1773600,0.985,0.04,-0.026,0,-0.1,-0.1,-34.9,6.2,27.1,0.16113773,0.705343791,-0.136692404,0.676595355
793,1986858,1773600,0.985,0.036,-0.034,-0.1,-0.2,-0.1,-34.9,5.4,27.1,0.16113773,0.705343791,-0.136692404,0.676595355
794,1988629,1773600,0.985,0.04,-0.034,-0.1,-0.3,-0.1,-34.9,5.4,27.1,0.16113773,0.705343791,-0.136692404,0.676595355
795,1990775,1773610,0.985,0.04,-0.026,-0.1,-0.4,0,-34.9,5.4,27.1,0.16113773,0.705343791,-0.136722922,0.676595355
796,1993205,1773610,0.992,0.044,-0.038,-0.1,-0.3,0,-34.9,5.4,27.1,0.16113773,0.70537431,-0.136722922,0.676564837
797,1995631,1773610,0.988,0.04,-0.03,0,-0.3,0,-34.9,5.4,27.1,0.16113773,0.70537431,-0.136722922,0.676564837
798,1999564,1773610,0.992,0.044,-0.034,0,-0.3,0,-34.9,5.4,27.1,0.16113773,0.70537431,-0.136722922,0.676564837
799,2001643,1773620,0.988,0.044,-0.034,0,-0.1,0,-34.9,5.4,27.1,0.16113773,0.70537431,-0.136722922,0.676564837
800,2003863,1773620,0.992,0.04,-0.03,0,0,0.1,-34.9,5.4,27.1,0.16113773,0.70537431,-0.136722922,0.676564837
801,2006094,1773620,0.988,0.04,-0.03,0,0,0.1,-34.9,5.4,27.1,0.16113773,0.70537431,-0.136722922,0.676564837
802,2008364,1773620,0.981,0.04,-0.034,0,0,0.1,-34.9,5.4,27.1,0.16113773,0.70537431,-0.136722922,0.676564837
803,2010960,1773630,0.985,0.04,-0.026,0,0,0,-34.9,5.4,27.1,0.16113773,0.70537431,-0.136722922,0.676564837
804,2013138,1773630,0.981,0.044,-0.034,0,-0.1,0,-34.9,5.4,27.1,0.16113773,0.70537431,-0.136722922,0.676564837
805,2017331,1773630,0.977,0.036,-0.034,0,-0.3,-0.1,-34.9,5.4,27.1,0.16113773,0.70537431,-0.136722922,0.676564837
806,2019555,1773630,0.981,0.036,-0.03,0,-0.3,0,-34.9,5.4,27.1,0.16113773,0.70537431,-0.136722922,0.676564837
807,2021778,1773640,0.985,0.04,-0.03,0,-0.4,0,-34.9,5.4,27.1,0.16113773,0.70537431,-0.136722922,0.676534318
808,2024077,1773640,0.981,0.036,-0.034,0,-0.4,0,-34.9,5.4,27.1,0.16113773,0.705404828,-0.136722922,0.676534318
809,2026358,1773640,0.988,0.04,-0.038,0,-0.4,0,-35.2,7,28.4,0.16113773,0.705404828,-0.136722922,0.676534318
810,2028511,1773640,0.988,0.044,-0.034,0,-0.4,0,-35.2,7,28.4,0.16113773,0.705404828,-0.136722922,0.676534318
811,2031619,1773650,0.992,0.04,-0.034,0,-0.4,0,-35.2,7,28.4,0.16113773,0.705404828,-0.136722922,0.676534318
812,2033193,1773650,0.992,0.044,-0.034,0.1,-0.3,0,-35.2,7,28.4,0.161107212,0.705404828,-0.136722922,0.6765038
813,2035878,1773650,0.992,0.04,-0.034,0.1,-0.3,0,-35.2,7,28.4,0.161107212,0.705435347,-0.136722922,0.6765038
814,2039827,1773650,0.988,0.048,-0.034,0,-0.3,0.1,-35.2,7,28.4,0.161107212,0.705435347,-0.136722922,0.6765038
815,2041374,1773660,0.988,0.044,-0.03,0,-0.1,0,-35.2,7,28.4,0.161107212,0.705435347,-0.136722922,0.6765038
816,2043575,1773660,0.981,0.044,-0.034,0,0,0,-35.2,7,28.4,0.161107212,0.705435347,-0.136753441,0.6765038
817,2045769,1773660,0.985,0.04,-0.026,0,0,0,-35.2,7,28.4,0.161107212,0.705435347,-0.136753441,0.6765038
818,2049544,1773660,0.977,0.036,-0.034,0,0.1,0,-35.2,7,28.4,0.161107212,0.705435347,-0.136753441,0.6765038
819,2051818,1773670,0.977,0.04,-0.034,0,0.1,0,-35.2,7,28.4,0.161107212,0.705435347,-0.136753441,0.6765038
820,2054786,1773670,0.981,0.036,-0.042,0,0.1,0,-35.2,7,28.4,0.161107212,0.705435347,-0.136753441,0.6765038
821,2055647,1773670,0.981,0.04,-0.038,-0.1,0,0,-35.2,7,28.4,0.161107212,0.705435347,-0.136753441,0.6765038
822,2059490,1773670,0.988,0.032,-0.03,-0.1,-0.1,-0.1,-35.2,7,28.4,0.161107212,0.705435347,-0.136753441,0.6765038
823,2061924,1773680,0.988,0.04,-0.03,-0.1,-0.4,-0.1,-35.2,7,28.4,0.161107212,0.705435347,-0.136753441,0.6765038
824,2063282,1773680,0.988,0.04,-0.034,-0.1,-0.5,0,-35.2,7,28.4,0.161107212,0.705435347,-0.136753441,0.6765038
825,2066686,1773680,0.992,0.044,-0.038,0,-0.6,0,-35.2,7,28.4,0.161076693,0.705465865,-0.136783959,0.676473281
826,2068803,1773680,0.992,0.044,-0.038,0,-0.6,0,-35.2,7,28.4,0.161076693,0.705465865,-0.136783959,0.676473281
827,2071144,1773690,0.996,0.044,-0.034,0.1,-0.4,0,-35.2,7,28.4,0.161076693,0.705465865,-0.136783959,0.676473281
828,2073260,1773690,0.988,0.044,-0.038,0.1,-0.3,0,-35.2,7,28.4,0.161076693,0.705465865,-0.136783959,0.676473281
829,2076005,1773690,0.988,0.044,-0.038,0.1,-0.1,0,-35,7.5,27.4,0.161076693,0.705465865,-0.136783959,0.676442763
830,2078360,1773690,0.981,0.044,-0.034,0,0,0.2,-35,7.5,27.4,0.161076693,0.705465865,-0.136783959,0.676442763
831,2081672,1773700,0.985,0.044,-0.038,0,0,0.3,-35,7.5,27.4,0.161076693,0.705465865,-0.136783959,0.676442763
832,2083893,1773700,0.985,0.044,-0.034,0,0,0.3,-35,7.5,27.4,0.161076693,0.705465865,-0.136783959,0.676442763
833,2086884,1773700,0.985,0.044,-0.034,0,0,0.2,-35,7.5,27.4,0.161046175,0.705465865,-0.136783959,0.676473281
834,2088446,1773700,0.981,0.044,-0.034,0,0,0.1,-35,7.5,27.4,0.161046175,0.705465865,-0.136783959,0.676442763
835,2090821,1773710,0.981,0.04,-0.042,0,0,0,-35,7.5,27.4,0.161046175,0.705465865,-0.136814478,0.676442763
836,2093763,1773710,0.985,0.04,-0.042,0,0,0,-35,7.5,27.4,0.161046175,0.705465865,-0.136814478,0.676442763
837,2096077,1773710,0.988,0.036,-0.034,0,-0.1,0,-35,7.5,27.4,0.161046175,0.705496384,-0.136814478,0.676442763
838,2098530,1773710,0.988,0.044,-0.038,0,-0.2,0,-35,7.5,27.4,0.161046175,0.705496384,-0.136814478,0.676442763
839,2100950,1773720,0.992,0.04,-0.034,0,-0.3,0,-35,7.5,27.4,0.161046175,0.705496384,-0.136814478,0.676442763
840,2104908,1773720,0.988,0.04,-0.03,0,-0.3,0,-35,7.5,27.4,0.161046175,0.705496384,-0.136814478,0.676442763
841,2107300,1773720,0.988,0.044,-0.034,0,-0.1,0,-35,7.5,27.4,0.161046175,0.705496384,-0.136814478,0.676442763
842,2109434,1773720,0.988,0.04,-0.034,0,0,0.1,-35,7.5,27.4,0.161046175,0.705496384,-0.136814478,0.676442763
843,2110887,1773730,0.988,0.04,-0.034,0,0.1,0.2,-35,7.5,27.4,0.161046175,0.705496384,-0.136814478,0.676442763
844,2113487,1773730,0.985,0.036,-0.038,0,0.1,0.2,-35,7.5,27.4,0.161046175,0.705496384,-0.136814478,0.676442763
845,2115701,1773730,0.985,0.044,-0.034,0,0.1,0.1,-35.1,7.6,26.9,0.161015656,0.705526902,-0.136844996,0.676412244
846,2118502,1773730,0.985,0.044,-0.034,0,0,0,-35.1,7.6,26.9,0.161015656,0.705526902,-0.136844996,0.676412244
847,2121641,1773740,0.981,0.04,-0.034,0,0,0,-35.1,7.6,26.9,0.161015656,0.705526902,-0.136844996,0.676412244
848,2123326,1773740,0.985,0.04,-0.038,0,0,0,-35.1,7.6,26.9,0.161015656,0.705526902,-0.136844996,0.676412244
849,2125667,1773740,0.985,0.036,-0.034,0,0,0.1,-35,5.7,27.1,0.161015656,0.705526902,-0.136844996,0.676412244
850,2129306,1773740,0.985,0.04,-0.034,0,-0.2,0,-35,5.7,27.1,0.161015656,0.705526902,-0.136844996,0.676412244
851,2130811,1773750,0.985,0.04,-0.03,0,-0.3,0,-35,5.7,27.1,0.161015656,0.705526902,-0.136844996,0.676412244
852,2133644,1773750,0.992,0.04,-0.038,0,-0.2,0,-35,5.7,27.1,0.161015656,0.705526902,-0.136844996,0.676412244
853,2136028,1773750,0.988,0.04,-0.034,0,-0.1,0,-34.7,6.2,27.4,0.161015656,0.705526902,-0.136844996,0.676412244
854,2138227,1773750,0.988,0.044,-0.03,0,-0.1,-0.1,-34.7,6.2,27.4,0.161015656,0.705526902,-0.136844996,0.676412244
855,2140855,1773760,0.985,0.044,-0.038,0,-0.1,0,-34.7,6.2,27.4,0.161015656,0.705526902,-0.136844996,0.676381726
856,2143125,1773760,0.985,0.044,-0.034,0,-0.1,0,-34.7,6.2,27.4,0.161015656,0.705557421,-0.136844996,0.676381726
857,2147319,1773760,0.988,0.044,-0.038,0.1,-0.1,0,-34.8,6.4,27.1,0.161015656,0.705557421,-0.136844996,0.676381726
858,2149545,1773760,0.985,0.044,-0.034,0.1,0,0,-34.8,6.4,27.1,0.161015656,0.705557421,-0.136844996,0.676381726
859,2151776,1773770,0.981,0.04,-0.034,0,0,0,-34.8,6.4,27.1,0.161015656,0.705557421,-0.136844996,0.676381726
860,2154066,1773770,0.985,0.04,-0.034,-0.1,0,0,-34.8,6.4,27.1,0.161015656,0.705557421,-0.136844996,0.676381726
861,2156206,1773770,0.981,0.04,-0.034,-0.1,-0.1,0,-35.3,6.2,27.2,0.161015656,0.705557421,-0.136844996,0.676381726
862,2158412,1773770,0.985,0.04,-0.034,-0.1,-0.2,0,-35.3,6.2,27.2,0.161015656,0.705557421,-0.136844996,0.676381726
863,2160834,1773780,0.988,0.036,-0.038,0,-0.3,0,-35.3,6.2,27.2,0.161015656,0.705557421,-0.136844996,0.676381726
864,2163760,1773780,0.988,0.04,-0.042,0,-0.4,0,-35.3,6.2,27.2,0.161015656,0.705557421,-0.136844996,0.676381726
865,2165624,1773780,0.985,0.04,-0.034,0.1,-0.4,0,-35.5,6.5,26.9,0.160985137,0.705618458,-0.136875515,0.676320688
866,2169793,1773780,0.988,0.04,-0.034,0.1,-0.3,0.1,-35.5,6.5,26.9,0.160954619,0.705648976,-0.136875515,0.67629017
867,2171893,1773790,0.988,0.036,-0.034,0.1,-0.1,0.1,-35.5,6.5,26.9,0.160954619,0.705648976,-0.136875515,0.67629017
868,2173501,1773790,0.988,0.044,-0.034,0,0,0,-35.5,6.5,26.9,0.160954619,0.705648976,-0.136875515,0.67629017
869,2175802,1773790,0.988,0.04,-0.026,0.1,0,0,-34.7,4.7,27,0.160954619,0.705648976,-0.136875515,0.67629017
870,2179527,1773790,0.988,0.04,-0.042,0.1,0,0,-34.7,4.7,27,0.160954619,0.705648976,-0.136875515,0.67629017
871,2180921,1773800,0.988,0.044,-0.042,0.1,0,0,-34.7,4.7,27,0.160954619,0.705648976,-0.136875515,0.67629017
872,2183797,1773800,0.981,0.036,-0.038,0,0,0,-34.7,4.7,27,0.160954619,0.705648976,-0.136875515,0.67629017
873,2185838,1773800,0.985,0.04,-0.034,0.1,0.1,0,-36.5,7,27,0.160954619,0.705648976,-0.136875515,0.67629017
874,2189619,1773800,0.981,0.04,-0.034,0.1,0.1,0,-36.5,7,27,0.160954619,0.705618458,-0.136875515,0.676320688
875,2191308,1773810,0.981,0.036,-0.03,0,0,0,-36.5,7,27,0.160954619,0.705648976,-0.136875515,0.676320688
876,2193392,1773810,0.985,0.04,-0.034,0,-0.1,0,-36.5,7,27,0.160954619,0.705648976,-0.136875515,0.67629017
877,2196163,1773810,0.985,0.04,-0.03,0,-0.3,0,-36.6,7.6,26.9,0.160954619,0.705648976,-0.136875515,0.67629017
878,2198364,1773810,0.985,0.04,-0.038,0,-0.3,0,-36.6,7.6,26.9,0.160954619,0.705648976,-0.136875515,0.67629017
879,2200809,1773820,0.981,0.04,-0.034,0,-0.3,0,-36.6,7.6,26.9,0.160954619,0.705648976,-0.136875515,0.67629017
880,2204682,1773820,0.985,0.036,-0.03,0,-0.3,0,-36.6,7.6,26.9,0.160954619,0.705648976,-0.136875515,0.67629017
881,2206891,1773820,0.985,0.04,-0.034,0,-0.4,0,-37.3,7.4,27,0.160954619,0.705679495,-0.136875515,0.67629017
882,2209242,1773820,0.985,0.048,-0.034,0,-0.3,0,-37.3,7.4,27,0.160954619,0.705679495,-0.136875515,0.676259651
883,2211343,1773830,0.985,0.044,-0.03,0,-0.3,0,-37.3,7.4,27,0.1609241,0.705679495,-0.136875515,0.676259651
884,2213551,1773830,0.988,0.044,-0.038,0.1,-0.1,0,-37.3,7.4,27,0.1609241,0.705679495,-0.136875515,0.676259651
885,2216630,1773830,0.988,0.04,-0.038,0,0,0,-37.2,7.3,27.2,0.160954619,0.705710013,-0.136844996,0.676229133
886,2218144,1773830,0.988,0.044,-0.038,0,0,0,-37.2,7.3,27.2,0.160954619,0.705710013,-0.136844996,0.676229133
887,2221936,1773840,0.988,0.044,-0.034,0,-0.1,0,-37.2,7.3,27.2,0.160954619,0.705710013,-0.136844996,0.676229133
888,2224136,1773840,0.985,0.04,-0.03,0,-0.3,0,-37.2,7.3,27.2,0.160954619,0.705710013,-0.136844996,0.676229133
889,2226388,1773840,0.988,0.036,-0.034,0,-0.4,0,-34.2,5.5,27,0.160954619,0.705710013,-0.136844996,0.676229133
890,2228855,1773840,0.985,0.036,-0.034,-0.1,-0.2,0,-34.2,5.5,27,0.160954619,0.705710013,-0.136844996,0.676229133
891,2230726,1773850,0.985,0.036,-0.034,-0.1,0,0,-34.2,5.5,27,0.160954619,0.705710013,-0.136844996,0.676229133
892,2233541,1773850,0.981,0.04,-0.026,-0.1,0,0.1,-34.2,5.5,27,0.160954619,0.705710013,-0.136844996,0.676229133
893,2235818,1773850,0.985,0.04,-0.034,-0.1,0,0,-36.3,6.6,27,0.160985137,0.705710013,-0.136875515,0.676229133
894,2238191,1773850,0.985,0.04,-0.026,0,0,0,-36.3,6.6,27,0.160954619,0.705710013,-0.136875515,0.676229133
895,2240600,1773860,0.988,0.04,-0.034,0,-0.1,0,-36.3,6.6,27,0.160954619,0.705710013,-0.136875515,0.676198614
896,2244908,1773860,0.985,0.044,-0.034,0,-0.1,0,-36.3,6.6,27,0.160954619,0.705710013,-0.136875515,0.676198614
897,2247073,1773860,0.981,0.04,-0.034,0,-0.1,0,-36,6.5,26.8,0.160954619,0.705740532,-0.136875515,0.676198614
898,2249446,1773860,0.981,0.04,-0.034,0,0,0,-36,6.5,26.8,0.160954619,0.705740532,-0.136875515,0.676198614
899,2251664,1773870,0.981,0.04,-0.03,0,0,0.1,-36,6.5,26.8,0.160954619,0.705740532,-0.136875515,0.676198614
900,2254000,1773870,0.988,0.036,-0.042,0,0,0.1,-36,6.5,26.8,0.160954619,0.705740532,-0.136875515,0.676198614
901,2256909,1773870,0.985,0.04,-0.03,0,0,0.2,-34.8,6.1,27.2,0.160954619,0.705740532,-0.136875515,0.676198614
902,2259103,1773870,0.985,0.036,-0.034,0,0,0.1,-34.8,6.1,27.2,0.160954619,0.705740532,-0.136875515,0.676198614
903,2261343,1773880,0.988,0.036,-0.034,0,0,0,-34.8,6.1,27.2,0.160954619,0.705740532,-0.136875515,0.676198614
904,2263223,1773880,0.988,0.04,-0.038,0,0,0,-34.8,6.1,27.2,0.160954619,0.705740532,-0.136875515,0.676198614
905,2266401,1773880,0.988,0.04,-0.034,0,0,-0.1,-34.5,6.5,26.9,0.1609241,0.705740532,-0.136906034,0.676198614
906,2268439,1773880,0.988,0.04,-0.034,0,0,-0.1,-34.5,6.5,26.9,0.1609241,0.705740532,-0.136906034,0.676198614
907,2270686,1773890,0.988,0.044,-0.034,0.1,0,0,-34.5,6.5,26.9,0.1609241,0.705740532,-0.136906034,0.676198614
908,2273467,1773890,0.988,0.044,-0.042,0,0,0,-34.5,6.5,26.9,0.1609241,0.705740532,-0.136906034,0.676198614
909,2275876,1773890,0.988,0.04,-0.038,0,0.1,0,-35.1,6,27,0.1609241,0.705740532,-0.136906034,0.676198614
910,2279344,1773890,0.988,0.044,-0.03,0,0.1,0,-35.1,6,27,0.1609241,0.705740532,-0.136906034,0.676198614
911,2281603,1773900,0.985,0.044,-0.038,-0.1,0.1,0,-35.1,6,27,0.1609241,0.705740532,-0.136906034,0.676198614
912,2283899,1773900,0.985,0.04,-0.034,0,0,0,-35.1,6,27,0.1609241,0.705740532,-0.136906034,0.676198614
913,2286116,1773900,0.985,0.04,-0.034,0,-0.1,0,-35,6.1,27,0.1609241,0.705740532,-0.136906034,0.676198614
914,2288438,1773900,0.985,0.04,-0.038,0,-0.2,0,-35,6.1,27,0.1609241,0.705740532,-0.136906034,0.676198614
915,2290661,1773910,0.988,0.04,-0.03,0,-0.1,0,-35,6.1,27,0.1609241,0.705740532,-0.136906034,0.676198614
916,2293206,1773910,0.981,0.04,-0.034,0,0,0,-35,6.1,27,0.1609241,0.705740532,-0.136906034,0.676198614
917,2296301,1773910,0.985,0.036,-0.038,0.1,0.1,0,-35,6.4,27.3,0.1609241,0.705740532,-0.136906034,0.676198614
918,2298453,1773910,0.985,0.036,-0.034,0.1,0.2,0,-35,6.4,27.3,0.1609241,0.705740532,-0.136906034,0.676198614
919,2301442,1773920,0.985,0.04,-0.038,0.1,0.1,0,-35,6.4,27.3,0.1609241,0.705740532,-0.136906034,0.676198614
920,2304556,1773920,0.988,0.04,-0.034,0,0,0.1,-35,6.4,27.3,0.1609241,0.705740532,-0.136906034,0.676198614
921,2306149,1773920,0.988,0.04,-0.034,0,0,0,-35,5.7,27.2,0.1609241,0.705740532,-0.136906034,0.676198614
922,2309195,1773920,0.985,0.04,-0.03,0,-0.1,0,-35,5.7,27.2,0.1609241,0.705740532,-0.136906034,0.676198614
923,2310753,1773930,0.988,0.04,-0.038,0,-0.2,0,-35,5.7,27.2,0.1609241,0.705740532,-0.136906034,0.676198614
924,2313760,1773930,0.985,0.04,-0.034,0,-0.2,0,-35,5.7,27.2,0.1609241,0.705740532,-0.136906034,0.676198614
925,2316871,1773930,0.988,0.04,-0.038,0,-0.1,0,-35.1,6,27.5,0.160893582,0.70577105,-0.136906034,0.676168096
926,2318243,1773930,0.988,0.044,-0.034,0,0,0,-35.1,6,27.5,0.160893582,0.70577105,-0.136906034,0.676168096
927,2321316,1773940,0.985,0.044,-0.034,0,0.1,0,-35.1,6,27.5,0.160893582,0.70577105,-0.136906034,0.676168096
928,2324207,1773940,0.985,0.044,-0.038,0,0.1,0,-35.1,6,27.5,0.160893582,0.70577105,-0.136906034,0.676168096
929,2325782,1773940,0.985,0.04,-0.038,0,0.1,0,-36.2,5.8,26.9,0.160893582,0.70577105,-0.136906034,0.676168096
930,2328829,1773940,0.988,0.044,-0.026,0,0,0,-36.2,5.8,26.9,0.160893582,0.70577105,-0.136906034,0.676168096
931,2330737,1773950,0.985,0.04,-0.034,0,0,0,-36.2,5.8,26.9,0.160893582,0.70577105,-0.136906034,0.676168096
932,2333388,1773950,0.985,0.04,-0.034,0,0,0,-36.2,5.8,26.9,0.160893582,0.70577105,-0.136906034,0.676168096
933,2336567,1773950,0.985,0.04,-0.03,0,0,0,-34.4,5.9,27.4,0.160893582,0.70577105,-0.136906034,0.676168096
934,2338271,1773950,0.988,0.04,-0.038,-0.1,0.1,0.1,-34.4,5.9,27.4,0.160893582,0.70577105,-0.136936552,0.676168096
935,2341661,1773960,0.985,0.044,-0.034,0,0.1,0.3,-34.4,5.9,27.4,0.160893582,0.705740532,-0.136936552,0.676168096
936,2343316,1773960,0.988,0.04,-0.038,0.1,0.1,0.3,-34.4,5.9,27.4,0.160893582,0.705740532,-0.136936552,0.676198614
937,2345903,1773960,0.985,0.04,-0.034,0.2,0.1,0.2,-34.2,5.5,27,0.160893582,0.705740532,-0.136936552,0.676198614
938,2349176,1773960,0.988,0.044,-0.034,0.2,-0.1,0,-34.2,5.5,27,0.160893582,0.705740532,-0.136936552,0.676198614
939,2350738,1773970,0.992,0.04,-0.038,0.2,-0.1,0,-34.2,5.5,27,0.160893582,0.70577105,-0.136936552,0.676198614
940,2354481,1773970,0.988,0.04,-0.038,0.1,-0.2,0,-34.2,5.5,27,0.160863063,0.70577105,-0.136936552,0.676168096
941,2355935,1773970,0.985,0.036,-0.038,0,-0.3,0,-34.4,5.5,26.9,0.160863063,0.70577105,-0.136936552,0.676168096
942,2359139,1773970,0.985,0.044,-0.034,0,-0.2,0,-34.4,5.5,26.9,0.160863063,0.70577105,-0.136936552,0.676168096
943,2360643,1773980,0.985,0.036,-0.034,0,-0.1,0,-34.4,5.5,26.9,0.160863063,0.70577105,-0.136936552,0.676168096
944,2363767,1773980,0.985,0.04,-0.038,0,0,0,-34.4,5.5,26.9,0.160863063,0.70577105,-0.136936552,0.676168096
945,2365727,1773980,0.985,0.036,-0.034,0,0,0,-34.2,5.7,26.9,0.160832545,0.705801569,-0.136936552,0.676137577
946,2368834,1773980,0.985,0.04,-0.038,0,-0.1,0,-34.2,5.7,26.9,0.160832545,0.705801569,-0.136936552,0.676137577
947,2370637,1773990,0.988,0.044,-0.038,0,-0.1,0,-34.2,5.7,26.9,0.160832545,0.705801569,-0.136936552,0.676137577
948,2374144,1773990,0.985,0.044,-0.034,0,-0.1,0,-34.2,5.7,26.9,0.160832545,0.705801569,-0.136936552,0.676137577
949,2375704,1773990,0.988,0.044,-0.034,0,-0.1,0,-35.9,6,27,0.160832545,0.705801569,-0.136936552,0.676137577
950,2378248,1773990,0.988,0.044,-0.03,0.1,-0.1,0,-35.9,6,27,0.160832545,0.705801569,-0.136936552,0.676137577
951,2381778,1774000,0.988,0.044,-0.03,0,0,0,-35.9,6,27,0.160832545,0.705832087,-0.136936552,0.676137577
952,2383271,1774000,0.985,0.044,-0.034,0,0,0,-35.9,6,27,0.160832545,0.705832087,-0.136936552,0.676137577
953,2385768,1774000,0.985,0.044,-0.03,0,-0.1,0,-33.9,5.8,27,0.160832545,0.705832087,-0.136936552,0.676107059
954,2389293,1774000,0.988,0.04,-0.034,0,-0.1,-0.1,-33.9,5.8,27,0.160832545,0.705832087,-0.136936552,0.676107059
955,2390752,1774010,0.985,0.036,-0.038,0,0,0,-33.9,5.8,27,0.160832545,0.705832087,-0.136936552,0.676107059
956,2393345,1774010,0.985,0.048,-0.03,0,0,0,-33.9,5.8,27,0.160832545,0.705832087,-0.136936552,0.676107059
957,2397536,1774010,0.977,0.048,-0.034,0,0,0,-34.3,6,27,0.160832545,0.705832087,-0.136936552,0.676107059
958,2399209,1774010,0.988,0.044,-0.014,0,0,-0.1,-34.3,6,27,0.160832545,0.705832087,-0.136936552,0.676107059
959,2400822,1774020,0.985,0.044,-0.01,0,0,-0.1,-34.3,6,27,0.160832545,0.705832087,-0.136936552,0.676107059
960,2404673,1774020,0.981,0.036,-0.049,0,0,-0.1,-34.3,6,27,0.160832545,0.705832087,-0.136936552,0.676107059
961,2406850,1774020,0.992,0.052,-0.042,0,0,0,-34.1,6,26.7,0.160832545,0.705832087,-0.136936552,0.676107059
962,2408469,1774020,0.988,0.048,-0.022,0,-0.1,0,-34.1,6,26.7,0.160832545,0.705832087,-0.136936552,0.676107059
963,2411030,1774030,0.985,0.04,-0.018,-0.1,-0.3,0,-34.1,6,26.7,0.160863063,0.705832087,-0.136936552,0.676107059
964,2413196,1774030,0.988,0.04,-0.042,-0.1,-0.3,0,-34.1,6,26.7,0.160863063,0.705832087,-0.136936552,0.676107059
965,2416629,1774030,0.992,0.04,-0.038,-0.1,-0.1,0,-34,6.3,27,0.160893582,0.705832087,-0.136906034,0.676107059
966,2418553,1774030,0.992,0.04,-0.038,-0.1,-0.1,0,-34,6.3,27,0.160893582,0.705832087,-0.136906034,0.676107059
967,2420784,1774040,0.988,0.036,-0.042,0,-0.1,0,-34,6.3,27,0.160893582,0.705832087,-0.136906034,0.676107059
968,2424209,1774040,0.985,0.04,-0.034,0,-0.1,0,-34,6.3,27,0.160893582,0.705832087,-0.136906034,0.676107059
969,2425806,1774040,0.988,0.04,-0.046,-0.1,-0.1,0,-35.1,6,27.2,0.160893582,0.705832087,-0.136906034,0.676107059
970,2428411,1774040,0.988,0.04,-0.038,-0.1,0,0,-35.1,6,27.2,0.160893582,0.705832087,-0.136936552,0.676107059
971,2431491,1774050,0.985,0.04,-0.042,0,0,0,-35.1,6,27.2,0.160893582,0.705832087,-0.136936552,0.676107059
972,2433212,1774050,0.985,0.04,-0.046,0,0,0,-35.1,6,27.2,0.160893582,0.705832087,-0.136936552,0.676107059
973,2435727,1774050,0.988,0.044,-0.042,0.1,0,0,-34.7,5.4,26.7,0.160893582,0.705832087,-0.136936552,0.676107059
974,2439184,1774050,0.988,0.044,-0.038,0.1,0,0,-34.7,5.4,26.7,0.160893582,0.705832087,-0.136936552,0.676107059
975,2440699,1774060,0.988,0.04,-0.034,0.1,0,0,-34.7,5.4,26.7,0.160893582,0.705832087,-0.136906034,0.676107059
976,2443206,1774060,0.996,0.048,-0.038,0.1,-0.1,0,-34.7,5.4,26.7,0.160893582,0.705832087,-0.136906034,0.676107059
977,2446676,1774060,0.988,0.044,-0.046,0,-0.1,0,-34.9,5.7,27.1,0.160893582,0.705832087,-0.136906034,0.676107059
978,2448241,1774060,0.985,0.044,-0.038,0,-0.1,0,-34.9,5.7,27.1,0.160893582,0.705832087,-0.136906034,0.676107059
979,2451576,1774070,0.985,0.04,-0.034,0,0,0.1,-34.9,5.7,27.1,0.160893582,0.705832087,-0.136936552,0.676107059
980,2454441,1774070,0.985,0.04,-0.034,0,0.1,0,-34.9,5.7,27.1,0.160893582,0.705832087,-0.136936552,0.676107059
981,2456005,1774070,0.985,0.04,-0.038,0,0.2,0,-34.8,5.8,28,0.160893582,0.705832087,-0.136936552,0.676107059
982,2458380,1774070,0.985,0.036,-0.034,0,0.2,0,-34.8,5.8,28,0.160893582,0.705832087,-0.136936552,0.676107059
983,2460908,1774080,0.985,0.04,-0.038,0,0.1,0,-34.8,5.8,28,0.160893582,0.705832087,-0.136936552,0.676107059
984,2464221,1774080,0.988,0.04,-0.038,0,0.1,0.1,-34.8,5.8,28,0.160893582,0.705832087,-0.136936552,0.676107059
985,2465772,1774080,0.985,0.036,-0.034,0,0,0,-34.5,5.6,28.4,0.160863063,0.705862606,-0.136936552,0.67607654
986,2468861,1774080,0.985,0.036,-0.038,0,0,0,-34.5,5.6,28.4,0.160863063,0.705862606,-0.136936552,0.67607654
987,2470647,1774090,0.985,0.044,-0.038,0,-0.1,0,-34.5,5.6,28.4,0.160863063,0.705862606,-0.136936552,0.67607654
988,2474855,1774090,0.985,0.04,-0.03,0,0,0,-34.5,5.6,28.4,0.160863063,0.705862606,-0.136936552,0.67607654
989,2477136,1774090,0.988,0.04,-0.03,0,0,0,-35,5.9,25.7,0.160863063,0.705862606,-0.136936552,0.67607654
990,2479347,1774090,0.988,0.04,-0.038,0,0.2,0,-35,5.9,25.7,0.160863063,0.705862606,-0.136936552,0.67607654
991,2481081,1774100,0.985,0.04,-0.034,0,0.2,0,-35,5.9,25.7,0.160863063,0.705862606,-0.136936552,0.67607654
992,2484096,1774100,0.981,0.044,-0.038,0,0.2,0,-35,5.9,25.7,0.160863063,0.705862606,-0.136936552,0.67607654
993,2485637,1774100,0.985,0.036,-0.03,0,0.1,0,-35.1,6.2,27.9,0.160863063,0.705862606,-0.136936552,0.67607654
994,2488119,1774100,0.985,0.044,-0.034,0,0,0,-35.1,6.2,27.9,0.160863063,0.705862606,-0.136936552,0.67607654
995,2491393,1774110,0.985,0.04,-0.034,0,0,0,-35.1,6.2,27.9,0.160863063,0.705862606,-0.136936552,0.67607654
996,2493109,1774110,0.985,0.044,-0.034,0,0,0,-35.1,6.2,27.9,0.160863063,0.705862606,-0.136936552,0.67607654
997,2496623,1774110,0.985,0.044,-0.042,0,0,0,-35.3,6.2,28,0.160863063,0.705862606,-0.136936552,0.67607654
998,2498147,1774110,0.985,0.04,-0.03,0.1,0,0,-35.3,6.2,28,0.160863063,0.705862606,-0.136936552,0.67607654
999,2501658,1774120,0.988,0.04,-0.03,0.1,0,0,-35.3,6.2,28,0.160863063,0.705862606,-0.136936552,0.67607654
1000,2504675,1774120,0.985,0.04,-0.03,0,0,0,-35.3,6.2,28,0.160863063,0.705862606,-0.136936552,0.67607654
1001,2506893,1774120,0.988,0.044,-0.034,-0.1,0,0,-35.3,6.1,28,0.160863063,0.705862606,-0.136936552,0.67607654
1002,2508357,1774120,0.988,0.04,-0.038,-0.1,0,0.1,-35.3,6.1,28,0.160863063,0.705862606,-0.136936552,0.67607654
1003,2511697,1774130,0.985,0.048,-0.026,0,0,0,-35.3,6.1,28,0.160863063,0.705862606,-0.136936552,0.67607654
1004,2513184,1774130,0.988,0.04,-0.038,0.1,0,0,-35.3,6.1,28,0.160863063,0.705862606,-0.136936552,0.67607654
1005,2515656,1774130,0.985,0.04,-0.034,0,0.1,0,-35.3,6.2,27.8,0.160893582,0.705862606,-0.136936552,0.67607654
1006,2519230,1774130,0.981,0.04,-0.034,0,0.1,0,-35.3,6.2,27.8,0.160893582,0.705862606,-0.136936552,0.67607654
1007,2520699,1774140,0.988,0.04,-0.03,0,0,0,-35.3,6.2,27.8,0.160893582,0.705862606,-0.136936552,0.67607654
1008,2524201,1774140,0.985,0.04,-0.03,0,0,0,-35.3,6.2,27.8,0.160863063,0.705862606,-0.136936552,0.67607654
1009,2525741,1774140,0.985,0.036,-0.038,0,0,0,-35.3,5.7,25.5,0.160863063,0.705862606,-0.136936552,0.67607654
1010,2528300,1774140,0.985,0.04,-0.038,0,0,0,-35.3,5.7,25.5,0.160863063,0.705862606,-0.136936552,0.67607654
1011,2531039,1774150,0.985,0.04,-0.034,0,0,0,-35.3,5.7,25.5,0.160863063,0.705862606,-0.136936552,0.67607654
1012,2533988,1774150,0.985,0.04,-0.038,0.1,0,0,-35.3,5.7,25.5,0.160863063,0.705862606,-0.136936552,0.67607654
1013,2535667,1774150,0.988,0.04,-0.042,0,0.1,0.1,-35.3,6.1,26.7,0.160863063,0.705862606,-0.136936552,0.67607654
1014,2538526,1774150,0.988,0.04,-0.038,0,0.1,0.1,-35.3,6.1,26.7,0.160863063,0.705862606,-0.136936552,0.67607654
1015,2540602,1774160,0.985,0.044,-0.034,0,0.1,0,-35.3,6.1,26.7,0.160863063,0.705862606,-0.136936552,0.67607654
1016,2543505,1774160,0.985,0.04,-0.038,0,0.1,0,-35.3,6.1,26.7,0.160863063,0.705862606,-0.136936552,0.67607654
1017,2546412,1774160,0.988,0.04,-0.038,0,0.1,0,-35.3,6.2,26.2,0.160863063,0.705862606,-0.136936552,0.67607654
1018,2548159,1774160,0.985,0.044,-0.038,0,0.1,0,-35.3,6.2,26.2,0.160863063,0.705862606,-0.136936552,0.67607654
1019,2551131,1774170,0.985,0.036,-0.038,0,0.1,0.1,-35.3,6.2,26.2,0.160863063,0.705862606,-0.136936552,0.67607654
1020,2554270,1774170,0.988,0.044,-0.038,0,0,0.3,-35.3,6.2,26.2,0.160863063,0.705862606,-0.136936552,0.67607654
1021,2555653,1774170,0.985,0.04,-0.034,0,-0.1,0.3,-34.8,6.3,25.7,0.160863063,0.705862606,-0.136936552,0.67607654
1022,2558749,1774170,0.988,0.04,-0.034,0,-0.1,0.1,-34.8,6.3,25.7,0.160863063,0.705862606,-0.136936552,0.67607654
1023,2561655,1774180,0.988,0.04,-0.034,0,-0.1,0,-34.8,6.3,25.7,0.160863063,0.705862606,-0.136936552,0.67607654
1024,2563325,1774180,0.988,0.044,-0.034,0,0,0,-34.8,6.3,25.7,0.160863063,0.705862606,-0.136936552,0.67607654
1025,2566327,1774180,0.988,0.044,-0.038,0,0,0,-35.2,6,25.5,0.160863063,0.705862606,-0.136936552,0.67607654
1026,2569289,1774180,0.988,0.044,-0.038,0,0,0,-35.2,6,25.5,0.160863063,0.705862606,-0.136936552,0.67607654
1027,2570810,1774190,0.992,0.036,-0.034,0,-0.1,0,-35.2,6,25.5,0.160863063,0.705893124,-0.136936552,0.676046022
1028,2574407,1774190,0.988,0.036,-0.038,0,-0.1,0,-35.2,6,25.5,0.160863063,0.705893124,-0.136936552,0.676046022
1029,2575895,1774190,0.988,0.04,-0.034,0,-0.1,0,-35,6,27.3,0.160863063,0.705893124,-0.136936552,0.676046022
1030,2578949,1774190,0.985,0.04,-0.034,0,0,0.1,-35,6,27.3,0.160863063,0.705893124,-0.136936552,0.676046022
1031,2581919,1774200,0.985,0.04,-0.034,0,0,0.1,-35,6,27.3,0.160863063,0.705893124,-0.136936552,0.676046022
1032,2583407,1774200,0.988,0.044,-0.042,0,0,0,-35,6,27.3,0.160863063,0.705893124,-0.136936552,0.676046022
1033,2586615,1774200,0.988,0.044,-0.038,0,0,0,-35.5,5.7,26.8,0.160863063,0.705893124,-0.136936552,0.676046022
1034,2588193,1774200,0.985,0.044,-0.034,0,0,0.1,-35.5,5.7,26.8,0.160832545,0.705893124,-0.136936552,0.676046022
1035,2590987,1774210,0.985,0.044,-0.038,0,0,0.1,-35.5,5.7,26.8,0.160832545,0.705893124,-0.136936552,0.676046022
1036,2594609,1774210,0.988,0.044,-0.038,0,0,0.1,-35.5,5.7,26.8,0.160832545,0.705893124,-0.136936552,0.676046022
1037,2596712,1774210,0.988,0.04,-0.034,0,0,0.1,-35.6,5.4,26.5,0.160832545,0.705893124,-0.136936552,0.676046022
1038,2598266,1774210,0.985,0.036,-0.038,0,0,0,-35.6,5.4,26.5,0.160832545,0.705893124,-0.136936552,0.676046022
1039,2601298,1774220,0.985,0.04,-0.046,0,0,0,-35.6,5.4,26.5,0.160832545,0.705893124,-0.136936552,0.676046022
1040,2604253,1774220,0.985,0.036,-0.038,0,0,-0.1,-35.6,5.4,26.5,0.160832545,0.705893124,-0.136936552,0.676046022
1041,2605851,1774220,0.985,0.04,-0.034,0,-0.1,-0.1,-35.4,5.2,26.7,0.160832545,0.705893124,-0.136936552,0.676046022
1042,2608813,1774220,0.985,0.04,-0.042,0,-0.1,-0.1,-35.4,5.2,26.7,0.160832545,0.705893124,-0.136936552,0.676046022
1043,2611719,1774230,0.985,0.044,-0.038,0,-0.1,-0.1,-35.4,5.2,26.7,0.160863063,0.705893124,-0.136936552,0.676046022
1044,2613307,1774230,0.988,0.04,-0.034,0,0,0,-35.4,5.2,26.7,0.160863063,0.705893124,-0.136936552,0.676046022
1045,2615905,1774230,0.988,0.048,-0.034,0,0.1,0.1,-35.3,4.7,26.8,0.160832545,0.705923643,-0.136936552,0.676015503
1046,2619146,1774230,0.985,0.04,-0.038,0,0.1,0.1,-35.3,4.7,26.8,0.160832545,0.705923643,-0.136936552,0.676015503
1047,2620641,1774240,0.985,0.044,-0.038,0,0.1,0.1,-35.3,4.7,26.8,0.160832545,0.705923643,-0.136936552,0.676015503
1048,2623539,1774240,0.985,0.04,-0.042,0,0,0,-35.3,4.7,26.8,0.160832545,0.705923643,-0.136936552,0.676015503
1049,2626715,1774240,0.988,0.044,-0.03,0,0,0,-34.9,7.1,28.1,0.160832545,0.705923643,-0.136936552,0.676015503
1050,2628166,1774240,0.985,0.036,-0.034,0,0,0,-34.9,7.1,28.1,0.160832545,0.705923643,-0.136936552,0.676015503
1051,2631088,1774250,0.988,0.04,-0.034,0,0,0,-34.9,7.1,28.1,0.160832545,0.705923643,-0.136936552,0.676015503
1052,2633987,1774250,0.985,0.044,-0.038,0,0,0,-34.9,7.1,28.1,0.160832545,0.705923643,-0.136936552,0.676015503
1053,2635758,1774250,0.988,0.04,-0.034,0,0.1,0,-35.2,4.6,25.6,0.160832545,0.705923643,-0.136936552,0.676015503
1054,2638698,1774250,0.988,0.04,-0.034,0,0.1,0,-35.2,4.6,25.6,0.160832545,0.705923643,-0.136936552,0.676015503
1055,2641816,1774260,0.985,0.04,-0.026,0,0.1,0,-35.2,4.6,25.6,0.160832545,0.705923643,-0.136936552,0.676015503
1056,2643175,1774260,0.988,0.04,-0.038,0,0,0,-35.2,4.6,25.6,0.160832545,0.705923643,-0.136936552,0.676015503
1057,2646725,1774260,0.985,0.036,-0.038,0,-0.1,0,-35.6,4.3,25.7,0.160832545,0.705923643,-0.136936552,0.676015503
1058,2648326,1774260,0.988,0.044,-0.034,0,-0.2,0,-35.6,4.3,25.7,0.160832545,0.705923643,-0.136936552,0.676015503
1059,2650613,1774270,0.985,0.036,-0.034,0,-0.1,-0.1,-35.6,4.3,25.7,0.160832545,0.705923643,-0.136936552,0.676015503
1060,2654798,1774270,0.985,0.04,-0.038,0,0,-0.1,-35.6,4.3,25.7,0.160832545,0.705923643,-0.136936552,0.676015503
1061,2657121,1774270,0.988,0.044,-0.034,0,0.2,-0.1,-35.2,4.1,25.6,0.160863063,0.705923643,-0.136936552,0.676015503
1062,2659365,1774270,0.985,0.036,-0.038,0,0.2,-0.1,-35.2,4.1,25.6,0.160863063,0.705923643,-0.136936552,0.676015503
1063,2660950,1774280,0.985,0.04,-0.034,0,0.1,0,-35.2,4.1,25.6,0.160863063,0.705923643,-0.136936552,0.676015503
1064,2663111,1774280,0.981,0.044,-0.038,0,0.1,0.1,-35.2,4.1,25.6,0.160863063,0.705923643,-0.136936552,0.676015503
1065,2665972,1774280,0.988,0.04,-0.042,0,0.1,0.1,-35.2,4.2,26.5,0.160832545,0.705954161,-0.136936552,0.675984985
1066,2669833,1774280,0.985,0.04,-0.038,0,0.1,0.1,-35.2,4.2,26.5,0.160832545,0.705954161,-0.136936552,0.675984985
1067,2671449,1774290,0.988,0.044,-0.034,0,0.1,0,-35.2,4.2,26.5,0.160832545,0.705954161,-0.136936552,0.675984985
1068,2673082,1774290,0.988,0.04,-0.038,0,0,0,-35.2,4.2,26.5,0.160832545,0.705954161,-0.136936552,0.675984985
1069,2676656,1774290,0.988,0.036,-0.042,0.1,0,0,-35,7.2,27.1,0.160832545,0.705954161,-0.136936552,0.675984985
1070,2678209,1774290,0.988,0.04,-0.038,0.1,0,0.1,-35,7.2,27.1,0.160832545,0.705954161,-0.136936552,0.675984985
1071,2681162,1774300,0.988,0.04,-0.042,0.1,-0.1,0.1,-35,7.2,27.1,0.160832545,0.705954161,-0.136936552,0.675984985
1072,2684140,1774300,0.988,0.048,-0.034,0.1,0,0.1,-35,7.2,27.1,0.160832545,0.705954161,-0.136936552,0.675984985
1073,2685757,1774300,0.981,0.048,-0.038,0.1,0,0,-35.1,5.8,26.8,0.160832545,0.705954161,-0.136936552,0.675984985
1074,2689251,1774300,0.985,0.044,-0.038,0,0.1,0,-35.1,5.8,26.8,0.160832545,0.705954161,-0.136936552,0.675984985
1075,2690940,1774310,0.985,0.04,-0.038,0,0,0,-35.1,5.8,26.8,0.160832545,0.705954161,-0.136936552,0.675984985
1076,2693253,1774310,0.985,0.04,-0.034,0,0,0,-35.1,5.8,26.8,0.160832545,0.705954161,-0.136936552,0.675984985
1077,2696060,1774310,0.985,0.044,-0.034,0,0,0,-35.3,6.4,26.7,0.160832545,0.705954161,-0.136936552,0.675984985
1078,2699073,1774310,0.985,0.036,-0.038,0,0,0,-35.3,6.4,26.7,0.160832545,0.705954161,-0.136936552,0.675984985
1079,2700566,1774320,0.985,0.04,-0.03,0,0,-0.1,-35.3,6.4,26.7,0.160832545,0.705954161,-0.136936552,0.675984985
1080,2703588,1774320,0.985,0.04,-0.038,0,0,-0.1,-35.3,6.4,26.7,0.160832545,0.705954161,-0.136936552,0.675984985
1081,2706561,1774320,0.985,0.04,-0.034,0,0,0,-35.4,7.1,26.9,0.160832545,0.705954161,-0.136936552,0.675984985
1082,2708284,1774320,0.985,0.04,-0.034,0,0,0,-35.4,7.1,26.9,0.160832545,0.705954161,-0.136936552,0.675984985
1083,2711752,1774330,0.988,0.036,-0.034,0,0,0,-35.4,7.1,26.9,0.160832545,0.705954161,-0.136936552,0.675984985
1084,2713251,1774330,0.985,0.04,-0.034,-0.1,0,0,-35.4,7.1,26.9,0.160832545,0.705954161,-0.136936552,0.675984985
1085,2716960,1774330,0.992,0.04,-0.034,0,-0.1,-0.1,-35.4,7.5,27.2,0.160802026,0.705954161,-0.136997589,0.675984985
1086,2718622,1774330,0.992,0.04,-0.034,0,-0.1,-0.1,-35.4,7.5,27.2,0.160802026,0.705954161,-0.136997589,0.675984985
