sample_index,elapsed_us,device_time_ms,acc_x_g,acc_y_g,acc_z_g,gyro_x_dps,gyro_y_dps,gyro_z_dps,mag_x_ut,mag_y_ut,mag_z_ut,quat_w,quat_x,quat_y,quat_z
0,4802,567450,-0.651,-0.523,0.585,-0.8,0.6,-0.9,6.2,-8.8,-23.3,0.472945341,0.155278176,0.435804315,-0.749809259
1,7007,567450,-0.651,-0.523,0.585,-0.8,0.6,-0.9,6.2,-8.8,-23.3,0.472945341,0.155278176,0.435804315,-0.749809259
2,9289,567460,-0.647,-0.523,0.585,-0.9,0.5,-0.7,6.1,-8.7,-24.2,0.472884304,0.155156102,0.435865352,-0.749839778
3,11640,567460,-0.651,-0.519,0.577,-0.9,0.5,-0.6,6.1,-8.7,-24.2,0.472853786,0.155156102,0.435895871,-0.749839778
4,14220,567460,-0.643,-0.519,0.577,-1,0.5,-0.6,6.1,-8.7,-24.2,0.472853786,0.155156102,0.435926389,-0.749839778
5,17323,567460,-0.651,-0.523,0.585,-1.1,0.6,-0.6,5.9,-8.5,-24.5,0.472853786,0.155156102,0.435926389,-0.749839778
6,19566,567470,-0.652,-0.527,0.581,-1.1,0.6,-0.5,5.9,-8.5,-24.5,0.472823267,0.155156102,0.435956908,-0.749839778
7,22377,567470,-0.651,-0.519,0.581,-1.1,0.7,-0.6,5.9,-8.5,-24.5,0.472823267,0.155125584,0.435987426,-0.749809259
8,24139,567470,-0.651,-0.523,0.585,-1,0.7,-0.5,5.9,-8.5,-24.5,0.472792749,0.155125584,0.436017945,-0.749809259
9,27694,567470,-0.651,-0.523,0.581,-0.8,0.7,-0.5,5.9,-8.8,-22.9,0.472792749,0.155125584,0.436017945,-0.749809259
10,29180,567480,-0.647,-0.519,0.585,-0.6,0.7,-0.4,5.9,-8.8,-22.9,0.472792749,0.155125584,0.436078982,-0.749809259
11,32135,567480,-0.651,-0.523,0.581,-0.4,0.6,-0.4,5.9,-8.8,-22.9,0.47276223,0.155125584,0.436078982,-0.749809259
12,34443,567480,-0.651,-0.523,0.585,-0.3,0.6,-0.5,5.9,-8.8,-22.9,0.47276223,0.155125584,0.4361095,-0.749809259
13,37465,567480,-0.651,-0.523,0.585,-0.3,0.6,-0.4,6.3,-8.4,-22.8,0.472731712,0.155125584,0.4361095,-0.749809259
14,39700,567490,-0.647,-0.519,0.585,-0.3,0.7,-0.4,6.3,-8.4,-22.8,0.472731712,0.155125584,0.436140019,-0.749809259
15,42701,567490,-0.647,-0.523,0.585,-0.1,0.6,-0.2,6.3,-8.4,-22.8,0.472731712,0.155156102,0.436140019,-0.749809259
16,44236,567490,-0.648,-0.527,0.585,0,0.4,-0.2,6.3,-8.4,-22.8,0.472701193,0.155156102,0.436140019,-0.749809259
17,47316,567490,-0.647,-0.523,0.589,0.1,0.3,-0.2,6.3,-8.6,-22.8,0.472701193,0.155156102,0.436140019,-0.749809259
18,50248,567500,-0.647,-0.519,0.581,0.2,0.3,-0.4,6.3,-8.6,-22.8,0.472701193,0.155156102,0.436140019,-0.749809259
19,51819,567500,-0.647,-0.519,0.589,0.4,0.4,-0.2,6.3,-8.6,-22.8,0.472670675,0.155156102,0.436140019,-0.749809259
20,54148,567500,-0.643,-0.515,0.593,0.4,0.4,-0.1,6.3,-8.6,-22.8,0.472670675,0.155186621,0.436140019,-0.749809259
21,56829,567500,-0.643,-0.515,0.593,0.4,0.4,-0.1,6.3,-8.6,-22.8,0.472670675,0.155186621,0.436140019,-0.749809259
22,59873,567510,-0.643,-0.515,0.589,0.7,0.5,-0.1,6.3,-8.4,-22.9,0.472640156,0.155064547,0.436017945,-0.749931333
23,61687,567510,-0.643,-0.519,0.589,1,0.4,0,6.3,-8.4,-22.9,0.472640156,0.155095065,0.436017945,-0.749931333
24,65180,567510,-0.647,-0.519,0.585,1.2,0.3,0,6.3,-8.4,-22.9,0.472640156,0.155095065,0.435987426,-0.749931333
25,66768,567510,-0.643,-0.515,0.581,1.3,0.3,0.2,6.3,-8.4,-22.7,0.472640156,0.155125584,0.435987426,-0.749961852
26,69678,567520,-0.647,-0.515,0.581,1.1,0.3,0.3,6.3,-8.4,-22.7,0.472609638,0.155156102,0.435956908,-0.749961852
27,72692,567520,-0.643,-0.515,0.581,0.9,0.3,0.3,6.3,-8.4,-22.7,0.472609638,0.155156102,0.435956908,-0.749961852
28,74283,567520,-0.643,-0.511,0.577,0.7,0.3,0.3,6.3,-8.4,-22.7,0.472609638,0.155186621,0.435926389,-0.749961852
29,76691,567520,-0.643,-0.507,0.581,0.5,0.3,0.3,4.7,-8.8,-22.7,0.472609638,0.155186621,0.435926389,-0.749961852
30,79869,567530,-0.643,-0.507,0.577,0.4,0.2,0.3,4.7,-8.8,-22.7,0.472640156,0.155217139,0.435926389,-0.749961852
31,82220,567530,-0.643,-0.507,0.573,0.4,0.2,0.3,4.7,-8.8,-22.7,0.472640156,0.155217139,0.435926389,-0.749961852
32,84566,567530,-0.643,-0.507,0.573,0.2,0.3,0.4,4.7,-8.8,-22.7,0.472640156,0.155217139,0.435926389,-0.749961852
33,86901,567530,-0.647,-0.507,0.573,0.1,0.3,0.3,7.8,-8.9,-23.1,0.472640156,0.155247658,0.435926389,-0.749961852
34,89164,567540,-0.643,-0.511,0.577,0,0.3,0.3,7.8,-8.9,-23.1,0.472640156,0.155247658,0.435926389,-0.749961852
35,92468,567540,-0.647,-0.515,0.577,0,0.2,0.2,7.8,-8.9,-23.1,0.472640156,0.155247658,0.435926389,-0.749961852
36,94089,567540,-0.647,-0.519,0.577,0,0.1,0.3,7.8,-8.9,-23.1,0.472640156,0.155247658,0.435926389,-0.749961852
37,97058,567540,-0.647,-0.519,0.581,0,0,0.3,7.4,-8.8,-22.6,0.472640156,0.155247658,0.435926389,-0.749931333
38,99265,567550,-0.647,-0.515,0.577,0,0,0.2,7.4,-8.8,-22.6,0.472640156,0.155278176,0.435926389,-0.749931333
39,103316,567550,-0.647,-0.515,0.585,0.1,0,0.1,7.4,-8.8,-22.6,0.472640156,0.155278176,0.435926389,-0.749931333
40,104880,567550,-0.643,-0.519,0.585,0.3,-0.1,0,7.4,-8.8,-22.6,0.472640156,0.155278176,0.435895871,-0.749931333
41,106903,567550,-0.643,-0.519,0.585,0.3,-0.1,0,7.4,-8.8,-22.6,0.472640156,0.155278176,0.435895871,-0.749931333
42,109949,567560,-0.639,-0.519,0.585,0.5,-0.1,0,7.5,-8.7,-22.9,0.472640156,0.155217139,0.435865352,-0.74999237
43,112628,567560,-0.639,-0.515,0.585,0.6,-0.1,-0.1,7.5,-8.7,-22.9,0.472640156,0.155217139,0.435834834,-0.74999237
44,114352,567560,-0.639,-0.515,0.585,0.7,-0.1,-0.2,7.5,-8.7,-22.9,0.472640156,0.155217139,0.435834834,-0.750022889
45,117174,567560,-0.64,-0.519,0.577,0.7,-0.1,-0.4,7.6,-8.7,-22.8,0.472640156,0.155217139,0.435804315,-0.750022889
46,120296,567570,-0.643,-0.515,0.585,0.8,-0.2,-0.5,7.6,-8.7,-22.8,0.472609638,0.155217139,0.435804315,-0.750053407
47,121714,567570,-0.64,-0.519,0.577,0.8,-0.2,-0.6,7.6,-8.7,-22.8,0.472609638,0.155217139,0.435773797,-0.750053407
48,124916,567570,-0.631,-0.512,0.581,0.9,-0.3,-0.7,7.6,-8.7,-22.8,0.472609638,0.155217139,0.435773797,-0.750083926
49,127104,567570,-0.635,-0.511,0.577,1,-0.2,-0.7,5.4,-8.9,-22.7,0.472579119,0.155217139,0.435743278,-0.750083926
50,129881,567580,-0.635,-0.504,0.577,1,-0.1,-0.8,5.4,-8.9,-22.7,0.472579119,0.155217139,0.435743278,-0.750114444
51,131694,567580,-0.635,-0.504,0.577,1,-0.2,-0.9,5.4,-8.9,-22.7,0.472548601,0.155217139,0.43571276,-0.750144963
52,135181,567580,-0.635,-0.5,0.569,0.9,-0.3,-1,5.4,-8.9,-22.7,0.472548601,0.155217139,0.43571276,-0.750144963
53,136730,567580,-0.639,-0.496,0.573,0.8,-0.2,-1.2,6.4,-8.7,-23.1,0.472518082,0.155186621,0.435682241,-0.750175481
54,139190,567590,-0.635,-0.496,0.565,0.5,-0.1,-1.4,6.4,-8.7,-23.1,0.472487564,0.155186621,0.435682241,-0.750206
55,142716,567590,-0.635,-0.496,0.573,0.2,0,-1.4,6.4,-8.7,-23.1,0.472457045,0.155186621,0.435682241,-0.750206
56,144255,567590,-0.639,-0.5,0.573,0,0,-1.4,6.4,-8.7,-23.1,0.472457045,0.155156102,0.435682241,-0.750236518
57,146720,567590,-0.635,-0.5,0.577,-0.3,0,-1.4,6.4,-8.5,-22.9,0.472426527,0.155156102,0.43571276,-0.750236518
58,150131,567600,-0.639,-0.492,0.573,-0.5,0.1,-1.4,6.4,-8.5,-22.9,0.472396008,0.155125584,0.43571276,-0.750236518
59,151716,567600,-0.635,-0.5,0.569,-0.8,0.1,-1.5,6.4,-8.5,-22.9,0.47236549,0.155095065,0.435743278,-0.750267037
60,155138,567600,-0.639,-0.504,0.573,-1,0.3,-1.7,6.4,-8.5,-22.9,0.472334971,0.155095065,0.435773797,-0.750267037
61,156772,567600,-0.639,-0.504,0.573,-1,0.3,-1.7,6.4,-8.5,-22.9,0.472334971,0.155095065,0.435773797,-0.750267037
62,160251,567610,-0.639,-0.507,0.573,-1.3,0.1,-2,5.7,-8.6,-23.1,0.472304453,0.155034028,0.435773797,-0.750297555
63,161690,567610,-0.647,-0.503,0.569,-1.6,0.1,-2.1,5.7,-8.6,-23.1,0.472273934,0.15500351,0.435804315,-0.750297555
64,164772,567610,-0.643,-0.507,0.581,-1.8,0.1,-2.1,5.7,-8.6,-23.1,0.472243416,0.154972991,0.435834834,-0.750297555
65,167012,567610,-0.643,-0.507,0.573,-1.9,0.2,-2.3,4.7,-8.8,-23,0.472212897,0.154942473,0.435865352,-0.750297555
66,169248,567620,-0.643,-0.507,0.577,-1.9,0.4,-2.4,4.7,-8.8,-23,0.472182379,0.154881436,0.435926389,-0.750328074
67,171670,567620,-0.643,-0.507,0.577,-1.9,0.4,-2.6,4.7,-8.8,-23,0.47215186,0.154850917,0.435956908,-0.750328074
68,175252,567620,-0.643,-0.507,0.577,-1.8,0.4,-2.6,4.7,-8.8,-23,0.472090823,0.154820399,0.436017945,-0.750328074
69,176677,567620,-0.643,-0.507,0.573,-1.6,0.3,-2.7,7.4,-9.1,-22.8,0.472060305,0.15478988,0.436017945,-0.750328074
70,179237,567630,-0.647,-0.515,0.573,-1.3,0.1,-2.9,7.4,-9.1,-22.8,0.471999268,0.154728843,0.436078982,-0.750358592
71,181625,567630,-0.647,-0.515,0.577,-1.1,0,-3,7.4,-9.1,-22.8,0.471968749,0.154698325,0.4361095,-0.750389111
72,184896,567630,-0.647,-0.515,0.577,-1.1,0,-2.9,7.4,-9.1,-22.8,0.471907712,0.154667806,0.436140019,-0.750389111
73,187237,567630,-0.651,-0.519,0.573,-0.9,0,-2.9,3.9,-8,-22.9,0.471877194,0.154637288,0.436170537,-0.75041963
74,189395,567640,-0.652,-0.527,0.581,-0.7,-0.1,-2.9,3.9,-8,-22.9,0.471816156,0.15457625,0.436201056,-0.750450148
75,192353,567640,-0.648,-0.527,0.577,-0.5,-0.2,-3.1,3.9,-8,-22.9,0.471785638,0.154515213,0.436201056,-0.750480667
76,194159,567640,-0.655,-0.523,0.57,-0.5,-0.2,-3.2,3.9,-8,-22.9,0.471724601,0.154515213,0.436231574,-0.750511185
77,197361,567640,-0.652,-0.527,0.577,-0.5,-0.2,-3.2,4.1,-8.1,-22.9,0.471694082,0.154454176,0.436231574,-0.750541704
78,200418,567650,-0.656,-0.527,0.577,-0.5,-0.3,-3.3,4.1,-8.1,-22.9,0.471633045,0.154423658,0.436262093,-0.750572222
79,202095,567650,-0.651,-0.523,0.581,-0.5,-0.4,-3.2,4.1,-8.1,-22.9,0.471602527,0.154362621,0.436262093,-0.750602741
80,204780,567650,-0.656,-0.527,0.577,-0.4,-0.6,-3.2,4.1,-8.1,-22.9,0.47154149,0.154332102,0.436292611,-0.750633259
81,206785,567650,-0.656,-0.527,0.577,-0.4,-0.6,-3.2,4.1,-8.1,-22.9,0.47154149,0.154332102,0.436292611,-0.750633259
82,210246,567660,-0.655,-0.523,0.577,-0.2,-0.7,-2.9,4.1,-8.2,-22.9,0.471449934,0.154240547,0.43632313,-0.750663778
83,211734,567660,-0.659,-0.523,0.578,-0.3,-0.8,-2.8,4.1,-8.2,-22.9,0.471419416,0.15417951,0.43632313,-0.750694296
84,214895,567660,-0.655,-0.519,0.581,-0.4,-0.9,-2.6,4.1,-8.2,-22.9,0.471388897,0.154148991,0.43632313,-0.750724815
85,216684,567660,-0.659,-0.519,0.585,-0.5,-0.9,-2.4,4.8,-8.3,-22.9,0.471358379,0.154087954,0.436353648,-0.750755333
86,220055,567670,-0.659,-0.515,0.589,-0.6,-0.9,-2.1,4.8,-8.3,-22.9,0.47132786,0.154057436,0.436353648,-0.750785852
87,221683,567670,-0.659,-0.519,0.585,-0.7,-1,-2,4.8,-8.3,-22.9,0.471297342,0.153996399,0.436353648,-0.750785852
88,224581,567670,-0.655,-0.519,0.581,-0.8,-1.2,-1.9,4.8,-8.3,-22.9,0.471297342,0.15396588,0.436353648,-0.75081637
89,227604,567670,-0.659,-0.531,0.585,-1,-1.2,-1.8,6.7,-10.5,-22.9,0.471266823,0.153904843,0.436384167,-0.75081637
90,229245,567680,-0.655,-0.527,0.581,-1.1,-1.3,-1.6,6.7,-10.5,-22.9,0.471266823,0.153874325,0.436384167,-0.750846889
91,231723,567680,-0.656,-0.531,0.577,-1.3,-1.5,-1.5,6.7,-10.5,-22.9,0.471266823,0.153813288,0.436384167,-0.750846889
92,235236,567680,-0.664,-0.53,0.578,-1.3,-1.7,-1.3,6.7,-10.5,-22.9,0.471266823,0.153752251,0.436414686,-0.750846889
93,236652,567680,-0.66,-0.535,0.574,-1.3,-1.9,-1.2,6.4,-7.1,-22.6,0.471266823,0.153691214,0.436414686,-0.750846889
94,239795,567690,-0.66,-0.531,0.574,-1.2,-2,-1.2,6.4,-7.1,-22.6,0.471266823,0.153630177,0.436414686,-0.750877407
95,241877,567690,-0.66,-0.531,0.578,-1.3,-2.1,-1,6.4,-7.1,-22.6,0.471266823,0.153538621,0.436414686,-0.750877407
96,244272,567690,-0.66,-0.531,0.574,-1.3,-2.2,-0.8,6.4,-7.1,-22.6,0.471266823,0.153508103,0.436414686,-0.750877407
97,246700,567690,-0.656,-0.531,0.577,-1.1,-2.2,-0.7,6.8,-7.1,-23,0.471297342,0.153477584,0.436414686,-0.750877407
98,249768,567700,-0.652,-0.527,0.577,-1,-2.2,-0.5,6.8,-7.1,-23,0.471297342,0.153416547,0.436414686,-0.750877407
99,251617,567700,-0.656,-0.527,0.574,-0.8,-2.3,-0.3,6.8,-7.1,-23,0.47132786,0.15335551,0.436414686,-0.750877407
100,254643,567700,-0.651,-0.523,0.577,-0.6,-2.4,-0.2,6.8,-7.1,-23,0.471358379,0.153324992,0.436384167,-0.750877407
101,256765,567700,-0.651,-0.523,0.577,-0.6,-2.4,-0.2,6.8,-7.1,-23,0.471358379,0.153324992,0.436384167,-0.750877407
102,259795,567710,-0.651,-0.523,0.577,-0.4,-2.4,-0.2,6.9,-7.3,-22.9,0.471358379,0.153202918,0.436445204,-0.750877407
103,262782,567710,-0.655,-0.523,0.574,-0.3,-2.4,-0.1,6.9,-7.3,-22.9,0.471358379,0.153172399,0.436445204,-0.750877407
104,264445,567710,-0.655,-0.519,0.577,-0.2,-2.4,0,6.9,-7.3,-22.9,0.471388897,0.153111362,0.436414686,-0.750877407
105,267251,567710,-0.655,-0.515,0.574,-0.2,-2.5,0.2,6.4,-7.4,-22.6,0.471419416,0.153080844,0.436384167,-0.750877407
106,269140,567720,-0.651,-0.515,0.577,-0.1,-2.6,0.2,6.4,-7.4,-22.6,0.471449934,0.153019807,0.436353648,-0.750907926
107,271767,567720,-0.655,-0.519,0.577,0,-2.6,0.4,6.4,-7.4,-22.6,0.471480453,0.152989288,0.43632313,-0.750907926
108,274589,567720,-0.651,-0.515,0.581,0,-2.6,0.5,6.4,-7.4,-22.6,0.471510971,0.152958769,0.43632313,-0.750907926
109,277662,567720,-0.651,-0.511,0.577,0,-2.6,0.7,5.9,-8.2,-22.7,0.471572008,0.152928251,0.436292611,-0.750907926
110,279387,567730,-0.651,-0.515,0.577,-0.1,-2.6,0.8,5.9,-8.2,-22.7,0.471602527,0.152867214,0.436262093,-0.750907926
111,282551,567730,-0.651,-0.515,0.581,-0.1,-2.6,1,5.9,-8.2,-22.7,0.471633045,0.152836695,0.436231574,-0.750907926
112,284660,567730,-0.647,-0.515,0.585,-0.1,-2.6,1.2,5.9,-8.2,-22.7,0.471694082,0.152806177,0.436201056,-0.750877407
113,286854,567730,-0.651,-0.515,0.581,0,-2.5,1.3,6.1,-9.6,-22.6,0.471724601,0.152775658,0.436170537,-0.750877407
114,289707,567740,-0.651,-0.515,0.585,-0.2,-2.4,1.3,6.1,-9.6,-22.6,0.471785638,0.15274514,0.436140019,-0.750877407
115,291758,567740,-0.651,-0.515,0.589,-0.2,-2.3,1.4,6.1,-9.6,-22.6,0.471816156,0.152714621,0.4361095,-0.750877407
116,295219,567740,-0.651,-0.519,0.585,-0.3,-2.3,1.5,6.1,-9.6,-22.6,0.471877194,0.152684103,0.436078982,-0.750846889
117,297248,567740,-0.651,-0.515,0.589,-0.2,-2.3,1.5,6.2,-10.7,-23.1,0.471907712,0.152684103,0.436078982,-0.750846889
118,299114,567750,-0.651,-0.519,0.581,0,-2.4,1.5,6.2,-10.7,-23.1,0.471968749,0.152653584,0.436017945,-0.750846889
119,301782,567750,-0.647,-0.519,0.589,0,-2.6,1.5,6.2,-10.7,-23.1,0.472029786,0.152623066,0.436017945,-0.75081637
120,304648,567750,-0.648,-0.523,0.577,0,-2.7,1.5,6.2,-10.7,-23.1,0.472060305,0.152562029,0.435956908,-0.75081637
121,307629,567750,-0.648,-0.523,0.577,0,-2.7,1.5,6.2,-10.7,-23.1,0.472060305,0.152562029,0.435956908,-0.75081637
122,309424,567760,-0.647,-0.519,0.585,0.1,-2.6,1.5,6.3,-11.2,-22.7,0.472182379,0.15253151,0.435865352,-0.75081637
123,312773,567760,-0.647,-0.523,0.581,0.2,-2.4,1.5,6.3,-11.2,-22.7,0.472243416,0.152500992,0.435834834,-0.75081637
124,314356,567760,-0.651,-0.519,0.585,0.4,-2.3,1.5,6.3,-11.2,-22.7,0.472273934,0.152470473,0.435804315,-0.75081637
125,317270,567760,-0.651,-0.519,0.585,0.5,-2.3,1.6,6.2,-11.5,-22.7,0.472334971,0.152470473,0.435743278,-0.75081637
126,319200,567770,-0.651,-0.523,0.585,0.6,-2.3,1.5,6.2,-11.5,-22.7,0.47236549,0.152439955,0.43571276,-0.75081637
127,322416,567770,-0.643,-0.515,0.581,0.5,-2.2,1.6,6.2,-11.5,-22.7,0.472426527,0.152439955,0.435682241,-0.75081637
128,325302,567770,-0.643,-0.515,0.581,0.5,-2.1,1.6,6.2,-11.5,-22.7,0.472457045,0.152409436,0.435651723,-0.75081637
129,326879,567770,-0.643,-0.519,0.585,0.5,-2.1,1.6,6.2,-6.6,-21.3,0.472518082,0.152409436,0.435590686,-0.750785852
130,329886,567780,-0.647,-0.515,0.585,0.5,-2.1,1.6,6.2,-6.6,-21.3,0.472548601,0.152378918,0.435560167,-0.750785852
131,332855,567780,-0.643,-0.511,0.581,0.5,-2,1.6,6.2,-6.6,-21.3,0.472609638,0.152378918,0.435529649,-0.750785852
132,334386,567780,-0.643,-0.511,0.581,0.4,-2,1.7,6.2,-6.6,-21.3,0.472640156,0.152378918,0.43549913,-0.750785852
133,338329,567780,-0.643,-0.515,0.585,0.3,-1.8,1.9,5.8,-9.4,-24.1,0.472701193,0.152348399,0.435468612,-0.750785852
134,339907,567790,-0.639,-0.511,0.585,0.3,-1.8,2,5.8,-9.4,-24.1,0.47276223,0.152348399,0.435438093,-0.750755333
135,341903,567790,-0.639,-0.515,0.577,0.2,-1.8,2,5.8,-9.4,-24.1,0.472792749,0.152348399,0.435407575,-0.750755333
136,344268,567790,-0.64,-0.523,0.577,0.2,-1.8,2.1,5.8,-9.4,-24.1,0.472853786,0.152348399,0.435377056,-0.750724815
137,346727,567790,-0.636,-0.527,0.581,0.1,-1.8,2.1,6,-8.3,-24.3,0.472914823,0.152317881,0.435346538,-0.750724815
138,349921,567800,-0.64,-0.527,0.573,0.1,-1.8,2.1,6,-8.3,-24.3,0.472945341,0.152317881,0.435316019,-0.750694296
139,352058,567800,-0.636,-0.527,0.577,0.1,-1.8,2,6,-8.3,-24.3,0.473006378,0.152317881,0.435285501,-0.750694296
140,354442,567800,-0.644,-0.531,0.573,0.1,-1.7,1.9,6,-8.3,-24.3,0.473067415,0.152287362,0.435254982,-0.750663778
141,356706,567800,-0.644,-0.531,0.573,0.1,-1.7,1.9,6,-8.3,-24.3,0.473067415,0.152287362,0.435254982,-0.750663778
142,361335,567810,-0.64,-0.523,0.573,0.3,-1.3,2.1,6.2,-7.7,-24.2,0.473067415,0.152165288,0.435285501,-0.750663778
143,361751,567810,-0.644,-0.519,0.573,0.4,-1.3,2.2,6.2,-7.7,-24.2,0.473128452,0.152165288,0.435285501,-0.750663778
144,364460,567810,-0.64,-0.523,0.577,0.5,-1.2,2.2,6.2,-7.7,-24.2,0.473128452,0.152165288,0.435254982,-0.750633259
145,366754,567810,-0.64,-0.519,0.577,0.5,-1.2,2.1,5.7,-7,-24.4,0.473189489,0.152195807,0.435224464,-0.750633259
146,370754,567820,-0.639,-0.515,0.573,0.4,-1.1,2.1,5.7,-7,-24.4,0.473250526,0.152195807,0.435193945,-0.750633259
147,372983,567820,-0.639,-0.515,0.577,0.3,-1.1,2.1,5.7,-7,-24.4,0.473281045,0.152195807,0.435163427,-0.750602741
148,375395,567820,-0.643,-0.511,0.577,0.2,-1.1,2.1,5.7,-7,-24.4,0.473342082,0.152195807,0.435132908,-0.750602741
149,377503,567820,-0.643,-0.515,0.577,0.2,-1.2,2.2,5.7,-8.9,-22.8,0.4733726,0.152195807,0.43510239,-0.750572222
150,379761,567830,-0.643,-0.511,0.577,0,-1.2,2.2,5.7,-8.9,-22.8,0.473433638,0.152195807,0.43510239,-0.750541704
151,382203,567830,-0.639,-0.515,0.577,-0.1,-1,2.3,5.7,-8.9,-22.8,0.473494675,0.152195807,0.435071871,-0.750541704
152,384483,567830,-0.639,-0.507,0.573,-0.3,-1,2.3,5.7,-8.9,-22.8,0.473525193,0.152195807,0.435071871,-0.750511185
153,386658,567830,-0.643,-0.511,0.573,-0.4,-1,2.3,5.9,-8.8,-23.3,0.47358623,0.152226325,0.435041353,-0.750480667
154,390488,567840,-0.639,-0.511,0.573,-0.5,-0.9,2.3,5.9,-8.8,-23.3,0.473647267,0.152226325,0.435041353,-0.750450148
155,392774,567840,-0.639,-0.507,0.573,-0.6,-0.9,2.3,5.9,-8.8,-23.3,0.473677786,0.152226325,0.435041353,-0.75041963
156,395233,567840,-0.643,-0.511,0.577,-0.8,-1,2.2,5.9,-8.8,-23.3,0.473738823,0.152195807,0.435041353,-0.750389111
157,397187,567840,-0.643,-0.511,0.573,-0.9,-1,2.2,5.9,-9,-23.3,0.473769341,0.152195807,0.435041353,-0.750358592
158,399602,567850,-0.639,-0.507,0.577,-1,-1,2.2,5.9,-9,-23.3,0.473830378,0.152195807,0.435041353,-0.750358592
159,401910,567850,-0.639,-0.515,0.581,-1.1,-1,2.1,5.9,-9,-23.3,0.473891415,0.152195807,0.435041353,-0.750328074
160,404433,567850,-0.639,-0.515,0.581,-1,-1.1,2.1,5.9,-9,-23.3,0.473921934,0.152165288,0.435041353,-0.750297555
161,406901,567850,-0.639,-0.515,0.581,-1,-1.1,2.1,5.9,-9,-23.3,0.473921934,0.152165288,0.435041353,-0.750297555
162,409184,567860,-0.639,-0.515,0.581,-0.9,-1.5,1.9,5.8,-8.8,-22.6,0.474013489,0.152104251,0.435010834,-0.750267037
163,412302,567860,-0.639,-0.515,0.577,-0.7,-1.4,1.9,5.8,-8.8,-22.6,0.474074526,0.152104251,0.434980316,-0.750236518
164,414828,567860,-0.639,-0.515,0.581,-0.6,-1.3,1.9,5.8,-8.8,-22.6,0.474135563,0.152104251,0.434980316,-0.750206
165,417576,567860,-0.636,-0.519,0.577,-0.4,-1.3,1.7,6,-8.9,-21.7,0.474166082,0.152073733,0.434949797,-0.750206
166,419437,567870,-0.64,-0.519,0.577,-0.3,-1.5,1.5,6,-8.9,-21.7,0.4741966,0.152073733,0.434949797,-0.750175481
167,421941,567870,-0.64,-0.519,0.573,-0.1,-1.5,1.4,6,-8.9,-21.7,0.474257637,0.152043214,0.434919279,-0.750175481
168,424260,567870,-0.636,-0.519,0.581,0,-1.4,1.4,6,-8.9,-21.7,0.474288156,0.152043214,0.434919279,-0.750144963
169,427403,567870,-0.636,-0.523,0.585,0.1,-1.3,1.4,5.8,-8.8,-24.7,0.474318674,0.152043214,0.43488876,-0.750144963
170,429291,567880,-0.636,-0.519,0.577,0.2,-1.3,1.3,5.8,-8.8,-24.7,0.474349193,0.152043214,0.434858242,-0.750144963
171,431690,567880,-0.639,-0.515,0.581,0.4,-1.3,1.4,5.8,-8.8,-24.7,0.474379711,0.152043214,0.434827723,-0.750144963
172,434180,567880,-0.635,-0.515,0.585,0.5,-1.4,1.4,5.8,-8.8,-24.7,0.474440748,0.152012696,0.434797205,-0.750114444
173,436944,567880,-0.635,-0.511,0.581,0.6,-1.4,1.6,5.9,-8.6,-21.4,0.474471267,0.152012696,0.434766686,-0.750114444
174,440128,567890,-0.639,-0.511,0.585,0.6,-1.4,1.5,5.9,-8.6,-21.4,0.474501785,0.152012696,0.434736167,-0.750114444
175,442213,567890,-0.639,-0.511,0.585,0.6,-1.4,1.4,5.9,-8.6,-21.4,0.474532304,0.152012696,0.434705649,-0.750114444
176,444249,567890,-0.635,-0.508,0.585,0.5,-1.4,1.3,5.9,-8.6,-21.4,0.474562822,0.152012696,0.43467513,-0.750114444
177,447220,567890,-0.639,-0.515,0.585,0.4,-1.4,1.2,5.9,-8.5,-21.4,0.474593341,0.152012696,0.43467513,-0.750114444
178,450087,567900,-0.635,-0.508,0.585,0.2,-1.4,1.2,5.9,-8.5,-21.4,0.474654378,0.151982177,0.434644612,-0.750083926
179,452039,567900,-0.639,-0.515,0.585,0.1,-1.3,1.3,5.9,-8.5,-21.4,0.474684896,0.151982177,0.434614093,-0.750083926
180,454154,567900,-0.639,-0.515,0.581,0,-1.2,1.4,5.9,-8.5,-21.4,0.474715415,0.151982177,0.434583575,-0.750083926
181,457556,567900,-0.639,-0.515,0.581,0,-1.2,1.4,5.9,-8.5,-21.4,0.474715415,0.151982177,0.434583575,-0.750083926
182,460502,567910,-0.636,-0.523,0.585,-0.2,-1.2,1.2,5.6,-8.7,-22.2,0.474776452,0.151860103,0.434492019,-0.750114444
183,462875,567910,-0.636,-0.527,0.585,-0.3,-1.2,1.1,5.6,-8.7,-22.2,0.47480697,0.151860103,0.434492019,-0.750114444
184,464460,567910,-0.639,-0.519,0.581,-0.3,-1.2,1.1,5.6,-8.7,-22.2,0.474837489,0.151829585,0.434492019,-0.750114444
185,466644,567910,-0.643,-0.519,0.581,-0.3,-1.2,1.1,5.8,-8.6,-22.3,0.474868007,0.151829585,0.434461501,-0.750083926
186,469315,567920,-0.643,-0.519,0.581,-0.2,-1.3,1,5.8,-8.6,-22.3,0.474898526,0.151799066,0.434461501,-0.750083926
187,472702,567920,-0.636,-0.519,0.585,-0.2,-1.3,1,5.8,-8.6,-22.3,0.474929044,0.151799066,0.434430982,-0.750083926
188,474973,567920,-0.635,-0.515,0.585,0,-1.2,1.1,5.8,-8.6,-22.3,0.474959563,0.151768548,0.434430982,-0.750053407
189,477196,567920,-0.643,-0.515,0.577,0,-1.1,1.1,6,-8.7,-23.7,0.474990081,0.151768548,0.434400464,-0.750053407
190,479500,567930,-0.639,-0.515,0.577,0.1,-0.9,1.2,6,-8.7,-23.7,0.4750206,0.151768548,0.434400464,-0.750053407
191,481612,567930,-0.639,-0.515,0.581,0.2,-0.9,1.2,6,-8.7,-23.7,0.475051119,0.151768548,0.434369945,-0.750053407
192,484456,567930,-0.639,-0.515,0.581,0.3,-0.9,1.2,6,-8.7,-23.7,0.475081637,0.151768548,0.434369945,-0.750022889
193,487574,567930,-0.639,-0.515,0.585,0.3,-1,1.1,5.8,-8.7,-22.9,0.475081637,0.151768548,0.434339427,-0.750022889
194,489224,567940,-0.635,-0.511,0.589,0.3,-1,1.2,5.8,-8.7,-22.9,0.475142674,0.151768548,0.434308908,-0.750022889
195,492137,567940,-0.639,-0.511,0.589,0.2,-0.9,1.2,5.8,-8.7,-22.9,0.475142674,0.151768548,0.434308908,-0.750022889
196,494321,567940,-0.639,-0.515,0.593,0.1,-0.9,1.3,5.8,-8.7,-22.9,0.475173193,0.151768548,0.43427839,-0.74999237
197,497582,567940,-0.639,-0.515,0.589,0.1,-0.8,1.4,5.7,-8.6,-23.3,0.475203711,0.151768548,0.43427839,-0.74999237
198,499734,567950,-0.639,-0.507,0.593,0,-0.7,1.5,5.7,-8.6,-23.3,0.475264748,0.151768548,0.434247871,-0.74999237
199,501895,567950,-0.639,-0.511,0.589,0,-0.7,1.5,5.7,-8.6,-23.3,0.475295267,0.151768548,0.434247871,-0.749961852
200,504401,567950,-0.635,-0.511,0.593,-0.2,-0.7,1.6,5.7,-8.6,-23.3,0.475325785,0.151768548,0.434247871,-0.749961852
201,506959,567950,-0.635,-0.511,0.593,-0.2,-0.7,1.6,5.7,-8.6,-23.3,0.475325785,0.151768548,0.434247871,-0.749961852
202,510264,567960,-0.639,-0.507,0.585,-0.4,-0.5,1.5,5.7,-8.4,-23.4,0.475417341,0.151676992,0.43406476,-0.74999237
203,512471,567960,-0.639,-0.519,0.581,-0.5,-0.4,1.5,5.7,-8.4,-23.4,0.475447859,0.151676992,0.43406476,-0.74999237
204,514983,567960,-0.639,-0.519,0.589,-0.6,-0.4,1.5,5.7,-8.4,-23.4,0.475478378,0.151676992,0.43406476,-0.749961852
205,517326,567960,-0.635,-0.511,0.589,-0.6,-0.2,1.6,5.7,-8.5,-23.3,0.475508896,0.151676992,0.43406476,-0.749931333
206,519436,567970,-0.639,-0.519,0.589,-0.6,0,1.6,5.7,-8.5,-23.3,0.475539415,0.151676992,0.43406476,-0.749931333
207,521903,567970,-0.643,-0.511,0.593,-0.6,0.3,1.6,5.7,-8.5,-23.3,0.475569933,0.151676992,0.43406476,-0.749900815
208,524180,567970,-0.643,-0.515,0.589,-0.6,0.5,1.6,5.7,-8.5,-23.3,0.475569933,0.151707511,0.43406476,-0.749870296
209,527953,567970,-0.647,-0.515,0.589,-0.6,0.6,1.5,5.8,-8.7,-22.7,0.475600452,0.151738029,0.434125797,-0.749839778
210,529793,567980,-0.639,-0.519,0.597,-0.6,0.6,1.4,5.8,-8.7,-22.7,0.47563097,0.151738029,0.434125797,-0.749809259
211,531885,567980,-0.643,-0.519,0.601,-0.5,0.6,1.3,5.8,-8.7,-22.7,0.47563097,0.151768548,0.434156316,-0.749809259
212,534543,567980,-0.643,-0.523,0.593,-0.3,0.7,1.3,5.8,-8.7,-22.7,0.475661489,0.151799066,0.434156316,-0.749778741
213,537987,567980,-0.639,-0.523,0.597,-0.1,0.8,1.3,6.2,-8.6,-23.1,0.475661489,0.151799066,0.434156316,-0.749748222
214,539790,567990,-0.64,-0.527,0.593,0.2,0.8,1.3,6.2,-8.6,-23.1,0.475692007,0.151829585,0.434156316,-0.749748222
215,542112,567990,-0.643,-0.519,0.589,0.4,0.8,1.4,6.2,-8.6,-23.1,0.475692007,0.151860103,0.434156316,-0.749748222
216,545255,567990,-0.639,-0.523,0.593,0.7,0.8,1.4,6.2,-8.6,-23.1,0.475692007,0.15192114,0.434156316,-0.749717704
217,547374,567990,-0.643,-0.523,0.593,1,0.9,1.4,6.1,-8.7,-23.3,0.475722526,0.151951659,0.434125797,-0.749717704
218,549599,568000,-0.647,-0.519,0.585,1.2,1.1,1.4,6.1,-8.7,-23.3,0.475722526,0.151982177,0.434125797,-0.749717704
219,552140,568000,-0.647,-0.519,0.589,1.3,1.1,1.2,6.1,-8.7,-23.3,0.475722526,0.152043214,0.434125797,-0.749717704
220,554109,568000,-0.647,-0.515,0.585,1.5,1,1.1,6.1,-8.7,-23.3,0.475722526,0.152073733,0.43406476,-0.749717704
221,557156,568000,-0.647,-0.515,0.585,1.5,1,1.1,6.1,-8.7,-23.3,0.475722526,0.152073733,0.43406476,-0.749717704
222,559330,568010,-0.643,-0.515,0.589,1.9,0.9,0.8,6.5,-8.3,-22.7,0.475722526,0.152104251,0.434034242,-0.749748222
223,562664,568010,-0.639,-0.515,0.589,2.1,1,0.8,6.5,-8.3,-22.7,0.475722526,0.152165288,0.434003723,-0.749748222
224,564276,568010,-0.639,-0.515,0.589,2.2,1,0.9,6.5,-8.3,-22.7,0.475722526,0.152226325,0.433973205,-0.749748222
225,566681,568010,-0.643,-0.519,0.589,2.3,1,1,6,-8.9,-23.1,0.475722526,0.152256844,0.433942686,-0.749778741
226,569645,568020,-0.647,-0.519,0.593,2.4,1,1.1,6,-8.9,-23.1,0.475722526,0.152317881,0.433912168,-0.749778741
227,571570,568020,-0.643,-0.523,0.593,2.5,1.1,1,6,-8.9,-23.1,0.475722526,0.152378918,0.433881649,-0.749778741
228,574795,568020,-0.647,-0.519,0.589,2.6,1.2,0.9,6,-8.9,-23.1,0.475722526,0.152439955,0.433851131,-0.749778741
229,576810,568020,-0.647,-0.523,0.593,2.6,1.3,0.8,4.2,-8.8,-22.8,0.475692007,0.152500992,0.433820612,-0.749809259
230,579636,568030,-0.647,-0.523,0.589,2.7,1.3,0.7,4.2,-8.8,-22.8,0.475692007,0.152562029,0.433790094,-0.749809259
231,581561,568030,-0.643,-0.519,0.585,2.9,1.2,0.7,4.2,-8.8,-22.8,0.475692007,0.152623066,0.433729057,-0.749839778
232,584136,568030,-0.643,-0.515,0.589,3,1.3,0.7,4.2,-8.8,-22.8,0.475661489,0.152684103,0.433698538,-0.749839778
233,587458,568030,-0.643,-0.519,0.589,3,1.3,0.7,7.5,-8.8,-22.8,0.475661489,0.15274514,0.43366802,-0.749870296
234,589503,568040,-0.643,-0.519,0.589,3,1.4,0.7,7.5,-8.8,-22.8,0.475661489,0.152806177,0.433637501,-0.749870296
235,592997,568040,-0.643,-0.515,0.585,3.1,1.5,0.6,7.5,-8.8,-22.8,0.47563097,0.152867214,0.433576464,-0.749900815
236,595230,568040,-0.639,-0.515,0.597,3.2,1.6,0.7,7.5,-8.8,-22.8,0.47563097,0.152928251,0.433545946,-0.749931333
237,597518,568040,-0.639,-0.519,0.597,3.3,1.6,0.7,7.7,-8.9,-22.7,0.475600452,0.152989288,0.433515427,-0.749931333
238,600042,568050,-0.639,-0.519,0.589,3.5,1.5,0.9,7.7,-8.9,-22.7,0.475600452,0.153080844,0.43345439,-0.749961852
239,601761,568050,-0.635,-0.515,0.585,3.7,1.5,1,7.7,-8.9,-22.7,0.475600452,0.153141881,0.433423872,-0.749961852
240,605879,568050,-0.643,-0.519,0.589,3.8,1.5,1.2,7.7,-8.9,-22.7,0.475569933,0.153233436,0.433362835,-0.74999237
241,606814,568050,-0.643,-0.519,0.589,3.8,1.5,1.2,7.7,-8.9,-22.7,0.475569933,0.153233436,0.433362835,-0.74999237
242,609391,568060,-0.636,-0.523,0.585,3.8,1.7,1.2,7.8,-9.3,-22.8,0.475539415,0.153202918,0.433210242,-0.750114444
243,613221,568060,-0.635,-0.519,0.589,3.8,1.8,1.1,7.8,-9.3,-22.8,0.475508896,0.153294473,0.433179724,-0.750114444
244,614100,568060,-0.639,-0.515,0.585,3.8,2,1,7.8,-9.3,-22.8,0.475508896,0.153386029,0.433118686,-0.750144963
245,616818,568060,-0.643,-0.515,0.585,3.8,2,1,7.6,-9.1,-23,0.475478378,0.153477584,0.433088168,-0.750175481
246,619121,568070,-0.639,-0.511,0.585,3.7,2.1,1,7.6,-9.1,-23,0.475478378,0.153538621,0.433057649,-0.750175481
247,622189,568070,-0.635,-0.511,0.589,3.5,2.1,0.9,7.6,-9.1,-23,0.475447859,0.153630177,0.432996612,-0.750206
248,624502,568070,-0.635,-0.515,0.593,3.4,2.3,0.8,7.6,-9.1,-23,0.475447859,0.153721732,0.432966094,-0.750206
249,626870,568070,-0.635,-0.511,0.589,3.2,2.5,0.9,5.8,-8.9,-22.9,0.475417341,0.153813288,0.432935575,-0.750236518
250,629185,568080,-0.635,-0.511,0.589,3.2,2.6,1,5.8,-8.9,-22.9,0.475386822,0.153874325,0.432905057,-0.750236518
251,631590,568080,-0.639,-0.511,0.585,3.1,2.7,1.1,5.8,-8.9,-22.9,0.475386822,0.15396588,0.432874538,-0.750236518
252,634534,568080,-0.635,-0.508,0.592,3.1,2.7,1,5.8,-8.9,-22.9,0.475356304,0.154057436,0.43284402,-0.750236518
253,636743,568080,-0.639,-0.511,0.585,3,2.8,0.9,5.2,-9.2,-22.5,0.475325785,0.154148991,0.43284402,-0.750267037
254,640099,568090,-0.635,-0.511,0.585,2.9,2.8,0.9,5.2,-9.2,-22.5,0.475325785,0.154240547,0.432813501,-0.750267037
255,642193,568090,-0.635,-0.511,0.581,2.7,2.8,0.7,5.2,-9.2,-22.5,0.475295267,0.154332102,0.432782983,-0.750267037
256,644313,568090,-0.635,-0.508,0.585,2.6,2.8,0.6,5.2,-9.2,-22.5,0.475264748,0.154393139,0.432782983,-0.750297555
257,648177,568090,-0.635,-0.511,0.585,2.5,2.8,0.5,4,-9,-22.5,0.47523423,0.154484695,0.432752464,-0.750297555
258,650157,568100,-0.635,-0.508,0.585,2.6,2.8,0.4,4,-9,-22.5,0.475203711,0.154515213,0.432752464,-0.750297555
259,651771,568100,-0.631,-0.515,0.585,2.6,2.9,0.4,4,-9,-22.5,0.475173193,0.154637288,0.432721946,-0.750328074
260,654165,568100,-0.631,-0.512,0.585,2.8,3,0.4,4,-9,-22.5,0.475142674,0.154728843,0.432721946,-0.750328074
261,656777,568100,-0.631,-0.512,0.585,2.8,3,0.4,4,-9,-22.5,0.475142674,0.154728843,0.432721946,-0.750328074
262,660002,568110,-0.631,-0.512,0.585,3.3,3,0.1,3.2,-8.7,-22.4,0.475051119,0.154728843,0.43263039,-0.750450148
263,662308,568110,-0.635,-0.511,0.577,3.5,3,0,3.2,-8.7,-22.4,0.4750206,0.154820399,0.432599872,-0.750450148
264,664433,568110,-0.635,-0.508,0.577,3.7,3,-0.1,3.2,-8.7,-22.4,0.474959563,0.154911954,0.432569353,-0.750480667
265,666742,568110,-0.627,-0.504,0.581,3.8,3.2,-0.3,2.6,-9,-22.7,0.474898526,0.15500351,0.432538835,-0.750511185
266,669746,568120,-0.631,-0.504,0.588,3.9,3.2,-0.4,2.6,-9,-22.7,0.474868007,0.155095065,0.432508316,-0.750541704
267,672802,568120,-0.635,-0.504,0.585,4.1,3.2,-0.4,2.6,-9,-22.7,0.47480697,0.155186621,0.432477798,-0.750572222
268,674838,568120,-0.635,-0.496,0.581,4.3,3.2,-0.5,2.6,-9,-22.7,0.474745933,0.155278176,0.432447279,-0.750633259
269,678007,568120,-0.631,-0.492,0.577,4.3,3.2,-0.7,7.5,-10.2,-22.9,0.474684896,0.155369732,0.432416761,-0.750663778
270,679457,568130,-0.631,-0.496,0.577,4.3,3.2,-0.9,7.5,-10.2,-22.9,0.474623859,0.155461287,0.432386242,-0.750694296
271,681686,568130,-0.635,-0.492,0.581,4.3,3.2,-0.9,7.5,-10.2,-22.9,0.474562822,0.155552843,0.432355724,-0.750724815
272,685017,568130,-0.635,-0.5,0.577,4.3,3.2,-1,7.5,-10.2,-22.9,0.474501785,0.155644398,0.432325205,-0.750785852
273,687210,568130,-0.631,-0.496,0.577,4.3,3.3,-1.1,4.1,-7.2,-22.7,0.474440748,0.155735954,0.432264168,-0.75081637
274,690460,568140,-0.639,-0.492,0.573,4.4,3.5,-1.2,4.1,-7.2,-22.7,0.474379711,0.155827509,0.43223365,-0.750846889
275,692604,568140,-0.635,-0.492,0.581,4.6,3.7,-1.3,4.1,-7.2,-22.7,0.474318674,0.155919065,0.432203131,-0.750907926
276,694208,568140,-0.643,-0.496,0.577,4.6,3.8,-1.3,4.1,-7.2,-22.7,0.474227119,0.15601062,0.432172613,-0.750938444
277,696913,568140,-0.643,-0.492,0.585,4.6,3.8,-1.3,5,-7.5,-22.8,0.474166082,0.156102176,0.432111576,-0.750968963
278,700970,568150,-0.647,-0.492,0.585,4.5,3.8,-1.4,5,-7.5,-22.8,0.474074526,0.156193731,0.432111576,-0.75103
279,701689,568150,-0.647,-0.492,0.581,4.3,3.8,-1.5,5,-7.5,-22.8,0.474013489,0.156285287,0.432081057,-0.751091037
280,705460,568150,-0.643,-0.492,0.577,4,3.7,-1.7,5,-7.5,-22.8,0.473921934,0.156376843,0.432081057,-0.751121555
281,707601,568150,-0.643,-0.492,0.577,4,3.7,-1.7,5,-7.5,-22.8,0.473921934,0.156376843,0.432081057,-0.751121555
282,709798,568160,-0.647,-0.492,0.577,3.5,3.6,-2.2,5.9,-7.4,-22.5,0.473830378,0.156590472,0.431928465,-0.751213111
283,712040,568160,-0.647,-0.495,0.577,3.5,3.6,-2.4,5.9,-7.4,-22.5,0.473738823,0.156682028,0.431928465,-0.751274148
284,714243,568160,-0.647,-0.503,0.573,3.4,3.5,-2.4,5.9,-7.4,-22.5,0.473647267,0.156743065,0.431928465,-0.751304666
285,716661,568160,-0.647,-0.507,0.573,3.2,3.4,-2.5,6.9,-7.1,-22.4,0.473555712,0.156804102,0.431897946,-0.751365703
286,719419,568170,-0.647,-0.507,0.577,3.1,3.3,-2.7,6.9,-7.1,-22.4,0.473494675,0.156865139,0.431897946,-0.751396222
287,721630,568170,-0.647,-0.511,0.577,3,3.3,-2.8,6.9,-7.1,-22.4,0.473403119,0.156926176,0.431897946,-0.751457259
288,724302,568170,-0.643,-0.511,0.573,2.9,3.2,-3,6.9,-7.1,-22.4,0.473311563,0.156987213,0.431897946,-0.751487777
289,728566,568170,-0.647,-0.519,0.573,2.8,3.1,-3.1,5.9,-9.7,-22.7,0.473220008,0.15704825,0.431897946,-0.751548814
290,729574,568180,-0.647,-0.515,0.577,2.8,3,-3.2,5.9,-9.7,-22.7,0.473128452,0.157078768,0.431897946,-0.751609851
291,731745,568180,-0.643,-0.515,0.581,2.8,2.9,-3.3,5.9,-9.7,-22.7,0.473036897,0.157139805,0.431867428,-0.75164037
292,734571,568180,-0.647,-0.519,0.581,2.8,2.9,-3.5,5.9,-9.7,-22.7,0.472914823,0.157170324,0.431867428,-0.751701407
293,736826,568180,-0.643,-0.519,0.581,3,3,-3.5,6.4,-8.2,-22.5,0.472823267,0.157231361,0.431867428,-0.751762444
294,739678,568190,-0.647,-0.515,0.581,3.1,3.1,-3.5,6.4,-8.2,-22.5,0.472731712,0.157292398,0.431867428,-0.751823481
295,741772,568190,-0.647,-0.511,0.585,3.3,3.2,-3.5,6.4,-8.2,-22.5,0.472640156,0.157322916,0.431867428,-0.751853999
296,745528,568190,-0.647,-0.515,0.581,3.4,3.3,-3.5,6.4,-8.2,-22.5,0.472548601,0.157383953,0.431836909,-0.751915036
297,747315,568190,-0.647,-0.507,0.585,3.4,3.3,-3.5,6.5,-8.1,-22.5,0.472426527,0.15744499,0.431836909,-0.751976073
298,749283,568200,-0.651,-0.511,0.589,3.4,3.2,-3.3,6.5,-8.1,-22.5,0.472334971,0.157506027,0.431836909,-0.752037111
299,751942,568200,-0.647,-0.511,0.589,3.4,3,-3.3,6.5,-8.1,-22.5,0.472243416,0.157567064,0.431806391,-0.752098148
300,754324,568200,-0.639,-0.511,0.581,3.3,2.9,-3.3,6.5,-8.1,-22.5,0.47215186,0.157597583,0.431806391,-0.752159185
301,757368,568200,-0.639,-0.511,0.581,3.3,2.9,-3.3,6.5,-8.1,-22.5,0.47215186,0.157597583,0.431806391,-0.752159185
302,759621,568210,-0.647,-0.507,0.593,3,2.9,-3.4,6.3,-8.4,-22.7,0.471938231,0.15765862,0.431745354,-0.752281259
303,761869,568210,-0.643,-0.503,0.589,2.8,2.9,-3.3,6.3,-8.4,-22.7,0.471846675,0.157719657,0.431745354,-0.752342296
304,764473,568210,-0.639,-0.504,0.589,2.5,3.1,-3.1,6.3,-8.4,-22.7,0.471755119,0.157750175,0.431745354,-0.752372814
305,766779,568210,-0.643,-0.507,0.589,2.3,3.2,-3.1,6.3,-9.1,-22.6,0.471663564,0.157811213,0.431745354,-0.752433851
306,769103,568220,-0.647,-0.507,0.589,2.2,3.2,-3.1,6.3,-9.1,-22.6,0.471572008,0.157841731,0.431775872,-0.75246437
307,772368,568220,-0.643,-0.503,0.585,2.2,3.2,-3.1,6.3,-9.1,-22.6,0.471480453,0.157902768,0.431775872,-0.752525407
308,774672,568220,-0.643,-0.507,0.589,2.4,3.2,-3.2,6.3,-9.1,-22.6,0.471388897,0.157933287,0.431775872,-0.752555925
309,776864,568220,-0.647,-0.503,0.581,2.4,3.2,-3.2,5.9,-7.8,-22.3,0.471297342,0.157994324,0.431775872,-0.752616962
310,779094,568230,-0.643,-0.503,0.585,2.4,3.2,-3.1,5.9,-7.8,-22.3,0.471175268,0.158024842,0.431775872,-0.752647481
311,781674,568230,-0.639,-0.5,0.581,2.4,3.3,-2.9,5.9,-7.8,-22.3,0.471144749,0.158085879,0.431806391,-0.752677999
312,785852,568230,-0.643,-0.503,0.581,2.4,3.4,-2.8,5.9,-7.8,-22.3,0.471053194,0.158146916,0.431806391,-0.752739036
313,787338,568230,-0.639,-0.5,0.585,2.3,3.4,-2.8,6.3,-10,-22.8,0.470961638,0.158207953,0.431806391,-0.752769555
314,789625,568240,-0.643,-0.507,0.589,2.2,3.5,-2.9,6.3,-10,-22.8,0.470870083,0.158238472,0.431806391,-0.752800073
315,791841,568240,-0.647,-0.503,0.589,2.1,3.6,-3,6.3,-10,-22.8,0.470778527,0.158299509,0.431836909,-0.75286111
316,794284,568240,-0.643,-0.499,0.589,2,3.8,-2.9,6.3,-10,-22.8,0.470686972,0.158360546,0.431836909,-0.752891629
317,797023,568240,-0.643,-0.499,0.589,1.9,3.8,-2.8,6,-10.8,-23.3,0.470595416,0.158421583,0.431867428,-0.752922147
318,799802,568250,-0.647,-0.499,0.593,1.9,4,-2.8,6,-10.8,-23.3,0.470503861,0.15848262,0.431867428,-0.752952666
319,802872,568250,-0.647,-0.503,0.597,1.9,4,-2.8,6,-10.8,-23.3,0.470412305,0.158543657,0.431897946,-0.752983184
320,804285,568250,-0.651,-0.503,0.597,2.1,4,-2.8,6,-10.8,-23.3,0.47032075,0.158604694,0.431928465,-0.753013703
321,807086,568250,-0.651,-0.503,0.597,2.1,4,-2.8,6,-10.8,-23.3,0.47032075,0.158604694,0.431928465,-0.753013703
322,809326,568260,-0.647,-0.499,0.593,2.2,3.9,-2.9,6.2,-10.9,-22.8,0.470198675,0.158696249,0.431775872,-0.753166295
323,811683,568260,-0.651,-0.503,0.589,2.2,3.9,-3,6.2,-10.9,-22.8,0.47010712,0.158757286,0.431806391,-0.753196814
324,814578,568260,-0.647,-0.503,0.589,2.2,3.8,-3,6.2,-10.9,-22.8,0.470015564,0.158818323,0.431806391,-0.753227332
325,818316,568260,-0.647,-0.499,0.589,2.2,3.7,-2.9,6.2,-10.6,-22.9,0.469924009,0.15887936,0.431806391,-0.753288369
326,819863,568270,-0.651,-0.495,0.581,2.2,3.7,-2.8,6.2,-10.6,-22.9,0.469832453,0.158909879,0.431836909,-0.753318888
327,822065,568270,-0.651,-0.495,0.581,2.2,3.8,-3,6.2,-10.6,-22.9,0.469740898,0.158970916,0.431836909,-0.753349406
328,825853,568270,-0.651,-0.495,0.581,2.4,3.9,-3.1,6.2,-10.6,-22.9,0.469618824,0.159031953,0.431867428,-0.753379925
329,827210,568270,-0.655,-0.487,0.585,2.4,4,-3.2,6.4,-7.6,-21.2,0.469527268,0.15909299,0.431867428,-0.753440962
330,830184,568280,-0.659,-0.491,0.581,2.4,4.1,-3.3,6.4,-7.6,-21.2,0.469435713,0.159154027,0.431867428,-0.75347148
331,831678,568280,-0.655,-0.491,0.581,2.3,4.1,-3.3,6.4,-7.6,-21.2,0.469313639,0.159215064,0.431897946,-0.753532517
332,834613,568280,-0.651,-0.491,0.581,2.2,3.9,-3.4,6.4,-7.6,-21.2,0.469222083,0.159276101,0.431897946,-0.753563036
333,837884,568280,-0.655,-0.487,0.581,2.2,3.7,-3.5,6.1,-8.6,-24,0.469130528,0.159337138,0.431928465,-0.753593554
334,839828,568290,-0.655,-0.48,0.585,2.2,3.5,-3.6,6.1,-8.6,-24,0.469008454,0.159367656,0.431928465,-0.753654592
335,842922,568290,-0.651,-0.491,0.577,2.4,3.5,-3.6,6.1,-8.6,-24,0.468916898,0.159398175,0.431958983,-0.753715629
336,845175,568290,-0.647,-0.484,0.581,2.5,3.5,-3.8,6.1,-8.6,-24,0.468825343,0.159459212,0.431958983,-0.753746147
337,846786,568290,-0.647,-0.484,0.585,2.7,3.5,-3.8,6.3,-7.9,-24,0.468703269,0.159520249,0.431958983,-0.753807184
338,849345,568300,-0.651,-0.484,0.581,2.8,3.5,-3.9,6.3,-7.9,-24,0.468611713,0.159581286,0.431958983,-0.753868221
339,852215,568300,-0.647,-0.484,0.585,2.8,3.7,-3.9,6.3,-7.9,-24,0.468489639,0.159611805,0.431958983,-0.753929258
340,854614,568300,-0.651,-0.484,0.585,2.8,3.7,-4.1,6.3,-7.9,-24,0.468367565,0.159672842,0.431958983,-0.753959777
341,856750,568300,-0.651,-0.484,0.585,2.8,3.7,-4.1,6.3,-7.9,-24,0.468367565,0.159672842,0.431958983,-0.753959777
342,859848,568310,-0.655,-0.484,0.585,2.8,3.5,-4,6.2,-7.7,-24.1,0.468276009,0.159886471,0.431806391,-0.754081851
343,862140,568310,-0.659,-0.487,0.589,2.7,3.7,-4.1,6.2,-7.7,-24.1,0.468153935,0.159947508,0.431806391,-0.754142888
344,864394,568310,-0.659,-0.483,0.589,2.7,4,-4.1,6.2,-7.7,-24.1,0.468031861,0.160008545,0.431836909,-0.754203925
345,866697,568310,-0.651,-0.48,0.589,2.7,4.1,-4.1,6.5,-7.7,-24.2,0.467909787,0.160069582,0.431836909,-0.754264962
346,869142,568320,-0.655,-0.48,0.585,2.9,4.1,-4.1,6.5,-7.7,-24.2,0.467787713,0.160130619,0.431836909,-0.75429548
347,873483,568320,-0.647,-0.484,0.593,3.1,4,-4.1,6.5,-7.7,-24.2,0.467696158,0.160191656,0.431836909,-0.754356517
348,875619,568320,-0.647,-0.488,0.593,3.3,3.7,-4.2,6.5,-7.7,-24.2,0.467574084,0.160222175,0.431836909,-0.754417554
349,877838,568320,-0.647,-0.492,0.593,3.3,3.5,-4.3,6.4,-9,-22.6,0.46745201,0.160283212,0.431836909,-0.754478591
350,879327,568330,-0.647,-0.495,0.585,3.2,3.4,-4.4,6.4,-9,-22.6,0.467329936,0.160344249,0.431836909,-0.754570147
351,882587,568330,-0.651,-0.495,0.593,3.1,3.5,-4.4,6.4,-9,-22.6,0.467207862,0.160374767,0.431836909,-0.754631184
352,884260,568330,-0.647,-0.499,0.593,3.3,3.6,-4.5,6.4,-9,-22.6,0.467085788,0.160435804,0.431836909,-0.754692221
353,887208,568330,-0.651,-0.503,0.593,3.5,3.6,-4.5,6.8,-9.1,-22.2,0.466963713,0.160496841,0.431836909,-0.754753258
354,889295,568340,-0.651,-0.503,0.585,3.9,3.6,-4.5,6.8,-9.1,-22.2,0.466841639,0.160557878,0.431806391,-0.754814295
355,893383,568340,-0.651,-0.507,0.589,4.1,3.7,-4.5,6.8,-9.1,-22.2,0.466719565,0.160618915,0.431806391,-0.754875332
356,894049,568340,-0.655,-0.499,0.593,4.3,3.7,-4.5,6.8,-9.1,-22.2,0.466597491,0.160679952,0.431775872,-0.754966887
357,897051,568340,-0.655,-0.503,0.585,4.5,3.8,-4.6,6.7,-9.1,-21.2,0.466475417,0.160740989,0.431775872,-0.755058443
358,899314,568350,-0.655,-0.495,0.581,4.6,3.8,-4.6,6.7,-9.1,-21.2,0.466353343,0.160802026,0.431745354,-0.75511948
359,902002,568350,-0.655,-0.495,0.581,4.7,3.6,-4.7,6.7,-9.1,-21.2,0.466200751,0.160863063,0.431714835,-0.755211035
360,904161,568350,-0.655,-0.491,0.581,4.8,3.5,-4.7,6.7,-9.1,-21.2,0.466078677,0.1609241,0.431684317,-0.755272073
361,908419,568350,-0.655,-0.491,0.581,4.8,3.5,-4.7,6.7,-9.1,-21.2,0.466078677,0.1609241,0.431684317,-0.755272073
362,909069,568360,-0.663,-0.491,0.581,4.7,3.8,-5.1,6.6,-9.2,-20.7,0.465865047,0.161168249,0.431562243,-0.755424665
363,912836,568360,-0.663,-0.487,0.578,4.7,3.9,-5.2,6.6,-9.2,-20.7,0.465742973,0.161229286,0.431562243,-0.755516221
364,914927,568360,-0.659,-0.487,0.577,4.7,3.9,-5.2,6.6,-9.2,-20.7,0.465590381,0.161290323,0.431531724,-0.755607776
365,917113,568360,-0.663,-0.499,0.574,4.6,3.9,-5.2,6.7,-9.1,-19.6,0.465437788,0.16135136,0.431501205,-0.755699332
366,919427,568370,-0.663,-0.499,0.578,4.5,3.9,-5.3,6.7,-9.1,-19.6,0.465315714,0.161412397,0.431501205,-0.755760369
367,921603,568370,-0.659,-0.499,0.577,4.4,3.8,-5.3,6.7,-9.1,-19.6,0.465163121,0.161473434,0.431470687,-0.755851924
368,924173,568370,-0.659,-0.499,0.574,4.2,3.7,-5.5,6.7,-9.1,-19.6,0.465041047,0.161503952,0.431470687,-0.75594348
369,926631,568370,-0.659,-0.511,0.574,4.1,3.7,-5.7,6.6,-8.9,-24.8,0.464888455,0.161564989,0.431470687,-0.756004517
370,929873,568380,-0.655,-0.511,0.57,4.1,3.7,-5.8,6.6,-8.9,-24.8,0.464735862,0.161626026,0.431440168,-0.756096072
371,932012,568380,-0.659,-0.511,0.57,4.1,3.8,-5.8,6.6,-8.9,-24.8,0.46458327,0.161656545,0.431440168,-0.756187628
372,934341,568380,-0.655,-0.515,0.566,4.2,3.7,-5.9,6.6,-8.9,-24.8,0.464430677,0.161717582,0.431440168,-0.756279183
373,936622,568380,-0.655,-0.515,0.57,4.2,3.8,-5.9,6.6,-9.1,-21.6,0.464308603,0.161778619,0.43140965,-0.756370739
374,939234,568390,-0.663,-0.515,0.57,4.4,3.9,-6,6.6,-9.1,-21.6,0.464156011,0.161809137,0.43140965,-0.756462294
375,943424,568390,-0.659,-0.519,0.57,4.4,4.1,-5.9,6.6,-9.1,-21.6,0.464003418,0.161870174,0.43140965,-0.75655385
376,945622,568390,-0.663,-0.523,0.574,4.5,4.2,-5.9,6.6,-9.1,-21.6,0.463820307,0.161931211,0.431379131,-0.756614887
377,947837,568390,-0.663,-0.523,0.574,4.8,4.2,-5.9,6.7,-9.2,-22.4,0.463667714,0.161992248,0.431379131,-0.756706442
378,950107,568400,-0.659,-0.527,0.578,5.2,4.2,-5.9,6.7,-9.2,-22.4,0.463515122,0.162053285,0.431348613,-0.756828516
379,952384,568400,-0.659,-0.523,0.581,5.6,4.1,-5.9,6.7,-9.2,-22.4,0.463362529,0.162144841,0.431318094,-0.756920072
380,954664,568400,-0.66,-0.534,0.578,6,4,-5.8,6.7,-9.2,-22.4,0.463209937,0.162205878,0.431287576,-0.757011628
381,956820,568400,-0.66,-0.534,0.578,6,4,-5.8,6.7,-9.2,-22.4,0.463209937,0.162205878,0.431287576,-0.757011628
382,959129,568410,-0.663,-0.53,0.582,6.9,3.8,-5.7,6.5,-9.2,-23.5,0.462843715,0.162327952,0.431287576,-0.757194739
383,962927,568410,-0.66,-0.531,0.581,7.3,3.8,-5.7,6.5,-9.2,-23.5,0.462691122,0.162450026,0.431226539,-0.757316813
384,965190,568410,-0.659,-0.519,0.581,7.8,3.8,-5.6,6.5,-9.2,-23.5,0.46253853,0.162511063,0.431134983,-0.757438887
385,967388,568410,-0.663,-0.515,0.582,8.2,3.9,-5.4,6.7,-9.1,-24.1,0.462385937,0.162633137,0.431073946,-0.757560961
386,969637,568420,-0.667,-0.507,0.582,8.4,4.1,-5.4,6.7,-9.1,-24.1,0.462202826,0.162724693,0.430982391,-0.757683035
387,971888,568420,-0.667,-0.503,0.586,8.4,4.1,-5.4,6.7,-9.1,-24.1,0.462050233,0.162816248,0.430921354,-0.757805109
388,974385,568420,-0.667,-0.499,0.586,8.3,4.1,-5.3,6.7,-9.1,-24.1,0.461897641,0.162938322,0.430829798,-0.757896664
389,976684,568420,-0.659,-0.491,0.585,8,3.9,-4.9,6.7,-9.3,-22.4,0.461745048,0.163029878,0.430768761,-0.758018738
390,980907,568430,-0.659,-0.495,0.589,7.7,3.8,-4.7,6.7,-9.3,-22.4,0.461622974,0.163121433,0.430677206,-0.758140812
391,983041,568430,-0.659,-0.491,0.581,7.3,3.8,-4.5,6.7,-9.3,-22.4,0.461470382,0.163212989,0.430616169,-0.758232368
392,985381,568430,-0.659,-0.499,0.581,6.8,3.9,-4.3,6.7,-9.3,-22.4,0.461348308,0.163304544,0.430555132,-0.758323923
393,987520,568430,-0.659,-0.499,0.581,6.4,3.9,-4.1,6.5,-9.2,-22.7,0.461195715,0.1633961,0.430494095,-0.758415479
394,989769,568440,-0.659,-0.511,0.574,6.2,3.9,-4,6.5,-9.2,-22.7,0.461073641,0.163487655,0.430463576,-0.758507035
395,992057,568440,-0.659,-0.519,0.574,6,3.9,-4,6.5,-9.2,-22.7,0.460951567,0.163579211,0.430402539,-0.758568072
396,994378,568440,-0.663,-0.527,0.57,5.8,4.1,-4,6.5,-9.2,-22.7,0.460829493,0.163670766,0.430372021,-0.758659627
397,996613,568440,-0.667,-0.53,0.578,5.6,4.2,-4.3,6.5,-9.2,-22.6,0.460707419,0.163762322,0.430341502,-0.758751183
398,999181,568450,-0.664,-0.53,0.574,5.6,4.5,-4.6,6.5,-9.2,-22.6,0.460554827,0.163853877,0.430310984,-0.758842738
399,1001603,568450,-0.66,-0.535,0.574,5.7,4.7,-4.9,6.5,-9.2,-22.6,0.460402234,0.163945433,0.430280465,-0.758903775
400,1004879,568450,-0.66,-0.531,0.574,5.9,4.7,-5.2,6.5,-9.2,-22.6,0.460249641,0.164036988,0.430249947,-0.758995331
401,1006995,568450,-0.66,-0.531,0.574,5.9,4.7,-5.2,6.5,-9.2,-22.6,0.460249641,0.164036988,0.430249947,-0.758995331
402,1009380,568460,-0.656,-0.527,0.577,6.4,4.6,-5.7,6.7,-9.4,-22.7,0.459852901,0.164189581,0.430341502,-0.759178442
403,1011696,568460,-0.651,-0.523,0.581,6.8,4.7,-5.9,6.7,-9.4,-22.7,0.459700308,0.164281137,0.430280465,-0.759269997
404,1014301,568460,-0.647,-0.523,0.581,7.2,4.8,-6.2,6.7,-9.4,-22.7,0.459517197,0.164372692,0.430249947,-0.759392071
405,1017347,568460,-0.655,-0.523,0.574,7.6,5.2,-6.3,6.7,-9.1,-22.8,0.459334086,0.164464248,0.430158391,-0.759514145
406,1019658,568470,-0.655,-0.519,0.577,8,5.4,-6.5,6.7,-9.1,-22.8,0.459150975,0.164586322,0.430127873,-0.759636219
407,1021792,568470,-0.659,-0.515,0.578,8.1,5.7,-6.9,6.7,-9.1,-22.8,0.458937346,0.164708396,0.430066836,-0.759758293
408,1024166,568470,-0.651,-0.507,0.577,8.2,5.9,-7.1,6.7,-9.1,-22.8,0.458754234,0.164799951,0.430036317,-0.759880367
409,1028103,568470,-0.655,-0.511,0.577,8.1,6.2,-7.3,5.8,-9.3,-22.4,0.458540605,0.164922025,0.42997528,-0.760002441
410,1030407,568480,-0.651,-0.507,0.577,8.1,6.5,-7.5,5.8,-9.3,-22.4,0.458326975,0.165044099,0.429944761,-0.760124516
411,1032650,568480,-0.651,-0.515,0.581,8.1,6.8,-7.7,5.8,-9.3,-22.4,0.458113346,0.165166173,0.429914243,-0.76024659
412,1034862,568480,-0.651,-0.511,0.581,8,7.1,-8,5.8,-9.3,-22.4,0.457869198,0.165257729,0.429853206,-0.760399182
413,1037177,568480,-0.655,-0.515,0.585,7.7,7.5,-8.2,8.2,-9.4,-22.4,0.45762505,0.165410321,0.429853206,-0.760521256
414,1039390,568490,-0.651,-0.515,0.581,7.5,7.9,-8.5,8.2,-9.4,-22.4,0.457380902,0.165532395,0.429822687,-0.76064333
415,1041635,568490,-0.647,-0.515,0.589,7.3,8.3,-8.8,8.2,-9.4,-22.4,0.457136753,0.165684988,0.429822687,-0.760765404
416,1044162,568490,-0.659,-0.515,0.581,7.2,8.5,-9.1,8.2,-9.4,-22.4,0.456892605,0.165807062,0.429822687,-0.760887478
417,1047190,568490,-0.655,-0.515,0.581,7.2,8.8,-9.2,8.1,-9.6,-22.1,0.456617939,0.165929136,0.429822687,-0.761040071
418,1049410,568500,-0.647,-0.519,0.585,7,9.2,-9.5,8.1,-9.6,-22.1,0.456343272,0.166081729,0.429822687,-0.761162145
419,1051674,568500,-0.655,-0.511,0.585,6.9,9.5,-9.9,8.1,-9.6,-22.1,0.456068606,0.166203803,0.429853206,-0.761284219
420,1054235,568500,-0.655,-0.515,0.589,6.7,9.8,-10,8.1,-9.6,-22.1,0.455793939,0.166325877,0.429853206,-0.761406293
421,1057603,568500,-0.655,-0.515,0.589,6.7,9.8,-10,8.1,-9.6,-22.1,0.455793939,0.166325877,0.429853206,-0.761406293
422,1059946,568510,-0.651,-0.519,0.585,6.4,10.3,-10.5,8.2,-9.2,-22.2,0.455183569,0.166600543,0.429914243,-0.76168096
423,1062150,568510,-0.651,-0.519,0.589,6.4,10.5,-10.6,8.2,-9.2,-22.2,0.454878384,0.166722617,0.42997528,-0.761803034
424,1064506,568510,-0.651,-0.519,0.581,6.3,10.6,-10.8,8.2,-9.2,-22.2,0.454573199,0.16687521,0.430005799,-0.761925108
425,1066702,568510,-0.651,-0.519,0.581,6.1,10.8,-11.1,8.4,-9.2,-22.3,0.454268014,0.166997284,0.430036317,-0.7620777
426,1069981,568520,-0.647,-0.523,0.585,5.8,10.9,-11.3,8.4,-9.2,-22.3,0.453962828,0.167119358,0.430097354,-0.762199774
427,1072221,568520,-0.648,-0.531,0.585,5.5,11.2,-11.6,8.4,-9.2,-22.3,0.453657643,0.16727195,0.430158391,-0.762321848
428,1074463,568520,-0.64,-0.535,0.585,5.4,11.3,-11.7,8.4,-9.2,-22.3,0.45332194,0.167394024,0.430219428,-0.762443922
429,1076769,568520,-0.644,-0.543,0.589,5.5,11.6,-11.9,6.5,-9.3,-22,0.452986236,0.167546617,0.430280465,-0.762565996
430,1079893,568530,-0.64,-0.547,0.589,5.8,11.9,-12,6.5,-9.3,-22,0.452650533,0.167668691,0.430372021,-0.76268807
431,1081994,568530,-0.64,-0.551,0.589,6.2,12,-12.2,6.5,-9.3,-22,0.452314829,0.167821284,0.430433058,-0.762840663
432,1085186,568530,-0.636,-0.559,0.589,6.9,12.1,-12.2,6.5,-9.3,-22,0.451979125,0.167973876,0.430463576,-0.762993255
433,1087129,568530,-0.636,-0.563,0.589,7.3,12.3,-12.4,8.2,-9.5,-22.1,0.451612903,0.168156987,0.430524613,-0.763115329
434,1089381,568540,-0.632,-0.559,0.596,7.8,12.4,-12.4,8.2,-9.5,-22.1,0.4512772,0.16830958,0.430555132,-0.763267922
435,1091715,568540,-0.632,-0.567,0.596,8.2,12.6,-12.6,8.2,-9.5,-22.1,0.450910978,0.168492691,0.43058565,-0.763451033
436,1094088,568540,-0.628,-0.567,0.592,8.6,12.8,-12.7,8.2,-9.5,-22.1,0.450544755,0.168675802,0.430616169,-0.763603626
437,1096645,568540,-0.628,-0.563,0.6,9,13,-13,8.5,-9.8,-22,0.450178533,0.168858913,0.430646687,-0.763756218
438,1099532,568550,-0.632,-0.563,0.596,9.7,13.2,-13.1,8.5,-9.8,-22,0.449781793,0.169042024,0.430646687,-0.763939329
439,1102474,568550,-0.632,-0.567,0.6,10.3,13.4,-13.2,8.5,-9.8,-22,0.449415571,0.169225135,0.430677206,-0.76412244
440,1104083,568550,-0.624,-0.567,0.604,11,13.7,-13.4,8.5,-9.8,-22,0.44901883,0.169438765,0.430677206,-0.764305551
441,1106924,568550,-0.624,-0.567,0.604,11,13.7,-13.4,8.5,-9.8,-22,0.44901883,0.169438765,0.430677206,-0.764305551
442,1109587,568560,-0.628,-0.567,0.604,12.3,14.2,-13.7,8.3,-9.3,-22.2,0.448042238,0.16953032,0.430677206,-0.764824366
443,1112592,568560,-0.624,-0.567,0.608,12.9,14.3,-13.8,8.3,-9.3,-22.2,0.447645497,0.169774468,0.430677206,-0.765037996
444,1114905,568560,-0.612,-0.567,0.6,13.4,14.4,-14,8.3,-9.3,-22.2,0.447218238,0.170018616,0.430646687,-0.765221107
445,1117156,568560,-0.616,-0.571,0.596,13.8,14.4,-14.1,8.2,-9.7,-22,0.446790979,0.170262764,0.43058565,-0.765465255
446,1119302,568570,-0.608,-0.567,0.592,14.2,14.4,-14.2,8.2,-9.7,-22,0.44636372,0.170506912,0.430555132,-0.765678884
447,1121793,568570,-0.608,-0.563,0.592,14.8,14.5,-14.2,8.2,-9.7,-22,0.44593646,0.170751061,0.430494095,-0.765892514
448,1124803,568570,-0.608,-0.563,0.592,15.4,14.6,-14.3,8.2,-9.7,-22,0.445509201,0.171025727,0.430433058,-0.766136662
449,1127574,568570,-0.6,-0.555,0.592,16,14.7,-14.5,8.3,-9.8,-21.8,0.445051424,0.171300394,0.430372021,-0.766350291
450,1129324,568580,-0.608,-0.551,0.584,16.4,14.9,-14.7,8.3,-9.8,-21.8,0.444624165,0.17157506,0.430280465,-0.76659444
451,1133093,568580,-0.6,-0.544,0.584,16.6,15.2,-14.9,8.3,-9.8,-21.8,0.444166387,0.171849727,0.430219428,-0.766838588
452,1134485,568580,-0.6,-0.54,0.584,16.8,15.5,-15.1,8.3,-9.8,-21.8,0.443708609,0.172093875,0.430127873,-0.767082736
453,1137238,568580,-0.6,-0.536,0.58,17,15.9,-15.3,5.4,-9.4,-21.9,0.443220313,0.17239906,0.430066836,-0.767326884
454,1139438,568590,-0.6,-0.532,0.58,17.3,16.3,-15.5,5.4,-9.4,-21.9,0.442762535,0.172704245,0.430005799,-0.76760155
455,1141649,568590,-0.6,-0.524,0.584,17.6,16.6,-15.7,5.4,-9.4,-21.9,0.442274239,0.17300943,0.429914243,-0.767845698
456,1144047,568590,-0.604,-0.52,0.58,17.7,16.9,-15.9,5.4,-9.4,-21.9,0.441785943,0.173314615,0.429853206,-0.768089846
457,1146611,568590,-0.6,-0.52,0.588,17.7,17.1,-16,5.4,-9.3,-21.8,0.441267129,0.1736198,0.42976165,-0.768364513
458,1149320,568600,-0.596,-0.524,0.588,17.5,17.4,-16.2,5.4,-9.3,-21.8,0.440778832,0.173924986,0.429700613,-0.768608661
459,1152079,568600,-0.592,-0.52,0.58,17.1,17.7,-16.3,5.4,-9.3,-21.8,0.440260018,0.174230171,0.429639576,-0.768852809
460,1155080,568600,-0.592,-0.524,0.584,16.8,18,-16.4,5.4,-9.3,-21.8,0.439741203,0.174535356,0.429609058,-0.769127476
461,1156711,568600,-0.592,-0.524,0.584,16.8,18,-16.4,5.4,-9.3,-21.8,0.439741203,0.174535356,0.429609058,-0.769127476
462,1159168,568610,-0.596,-0.532,0.58,16.5,18.3,-16.9,5.3,-9.7,-21.9,0.438673055,0.174993133,0.429456465,-0.769707327
463,1162362,568610,-0.6,-0.528,0.588,16.6,18.6,-17.1,5.3,-9.7,-21.9,0.438154241,0.175298318,0.429425947,-0.769951476
464,1164737,568610,-0.6,-0.528,0.592,16.8,19.1,-17.5,5.3,-9.7,-21.9,0.437604907,0.175634022,0.429395428,-0.770195624
465,1166869,568610,-0.604,-0.528,0.592,17.1,19.5,-17.8,5.5,-9.8,-21.9,0.437086093,0.175939207,0.42936491,-0.770439772
466,1169595,568620,-0.608,-0.524,0.588,17.3,19.8,-18.1,5.5,-9.8,-21.9,0.436506241,0.176274911,0.429334391,-0.770714438
467,1172606,568620,-0.604,-0.512,0.592,17.2,20.3,-18.4,5.5,-9.8,-21.9,0.435956908,0.176610614,0.429303873,-0.770958586
468,1174226,568620,-0.604,-0.512,0.588,17.1,20.7,-18.7,5.5,-9.8,-21.9,0.435377056,0.176946318,0.429303873,-0.771233253
469,1176569,568620,-0.604,-0.512,0.596,17.1,21,-19.1,9.3,-11.3,-21.7,0.434797205,0.177282022,0.429273354,-0.771477401
470,1180115,568630,-0.604,-0.516,0.596,17.3,21.1,-19.4,9.3,-11.3,-21.7,0.434186834,0.177617725,0.429273354,-0.771752068
471,1181595,568630,-0.6,-0.516,0.599,17.6,21.1,-19.7,9.3,-11.3,-21.7,0.433576464,0.177953429,0.429242836,-0.772026734
472,1184390,568630,-0.596,-0.516,0.591,17.9,21.1,-20.1,9.3,-11.3,-21.7,0.432996612,0.178289132,0.429212317,-0.772301401
473,1187363,568630,-0.6,-0.524,0.588,18.3,21.2,-20.4,8.1,-8.1,-21.6,0.432355724,0.178624836,0.429181799,-0.772576067
474,1189602,568640,-0.596,-0.532,0.592,18.7,21.3,-20.8,8.1,-8.1,-21.6,0.431745354,0.178930021,0.42915128,-0.772881252
475,1192608,568640,-0.596,-0.54,0.588,19.2,21.5,-21.1,8.1,-8.1,-21.6,0.431104465,0.179326762,0.429120762,-0.773155919
476,1194110,568640,-0.596,-0.556,0.588,19.9,21.7,-21.6,8.1,-8.1,-21.6,0.430463576,0.179662465,0.429059725,-0.773491623
477,1197219,568640,-0.604,-0.555,0.588,21.1,22,-22.3,9,-8.1,-21.2,0.429792169,0.180028687,0.428998688,-0.773796808
478,1199072,568650,-0.604,-0.559,0.584,22.5,22.4,-22.8,9,-8.1,-21.2,0.429120762,0.18039491,0.428937651,-0.774132511
479,1201621,568650,-0.604,-0.563,0.584,24,22.6,-23.1,9,-8.1,-21.2,0.428418836,0.18079165,0.428815577,-0.774498733
480,1204380,568650,-0.608,-0.559,0.58,25.4,22.9,-23.4,9,-8.1,-21.2,0.42771691,0.181218909,0.428693503,-0.774864956
481,1207440,568650,-0.608,-0.559,0.58,25.4,22.9,-23.4,9,-8.1,-21.2,0.42771691,0.181218909,0.428693503,-0.774864956
482,1209209,568660,-0.616,-0.543,0.58,27.9,23.2,-24.1,9.5,-8.5,-21.4,0.426068911,0.18161565,0.428449355,-0.775811029
483,1212042,568660,-0.62,-0.539,0.577,29.2,23.3,-24.4,9.5,-8.5,-21.4,0.425305948,0.182042909,0.428266243,-0.77620777
484,1215000,568660,-0.624,-0.531,0.577,30.6,23.4,-24.9,9.5,-8.5,-21.4,0.424542985,0.182500687,0.428052614,-0.776635029
485,1218470,568660,-0.624,-0.524,0.573,32,23.5,-25.4,10,-8.3,-21.4,0.423780023,0.182958464,0.427838984,-0.777092807
486,1219907,568670,-0.624,-0.52,0.565,33.3,23.5,-25.9,10,-8.3,-21.4,0.422986541,0.183416242,0.427594836,-0.777550584
487,1222937,568670,-0.624,-0.52,0.569,34.4,23.4,-26.2,10,-8.3,-21.4,0.422162542,0.183904538,0.42732017,-0.778008362
488,1224465,568670,-0.624,-0.512,0.561,35.4,23.3,-26.6,10,-8.3,-21.4,0.42136906,0.184362316,0.427045503,-0.778496658
489,1227224,568670,-0.624,-0.512,0.549,36.2,23.2,-26.8,9.1,-10.3,-21.4,0.420545061,0.184850612,0.426740318,-0.778984954
490,1229410,568680,-0.628,-0.508,0.553,37.1,23.2,-27.1,9.1,-10.3,-21.4,0.419721061,0.185338908,0.426435133,-0.779473251
491,1232259,568680,-0.631,-0.504,0.553,37.6,23.1,-27.4,9.1,-10.3,-21.4,0.418866543,0.185827204,0.426129948,-0.779992065
492,1235238,568680,-0.631,-0.5,0.545,38.1,23.3,-27.7,9.1,-10.3,-21.4,0.418042543,0.1863155,0.425794244,-0.78051088
493,1236754,568680,-0.636,-0.504,0.542,38.4,23.4,-28.1,9.5,-9.9,-20.9,0.417188025,0.186803797,0.425458541,-0.781029695
494,1239233,568690,-0.636,-0.504,0.542,38.9,23.6,-28.5,9.5,-9.9,-20.9,0.416302988,0.187292093,0.425122837,-0.781548509
495,1242736,568690,-0.635,-0.504,0.546,39.5,23.7,-28.9,9.5,-9.9,-20.9,0.415448469,0.187780389,0.424787133,-0.782067324
496,1244217,568690,-0.635,-0.504,0.546,40,23.9,-29.3,9.5,-9.9,-20.9,0.414532914,0.188268685,0.42445143,-0.782616657
497,1246794,568690,-0.635,-0.504,0.546,40.5,23.9,-29.7,9.4,-10.4,-21.1,0.413647877,0.1887875,0.424085208,-0.78316599
498,1250991,568700,-0.635,-0.504,0.546,41,24,-30,9.4,-10.4,-21.1,0.412762841,0.189275796,0.423749504,-0.783715323
499,1253293,568700,-0.635,-0.5,0.553,41.2,24,-30.1,9.4,-10.4,-21.1,0.411847285,0.18979461,0.423383282,-0.784264657
500,1255549,568700,-0.635,-0.5,0.561,41,24.1,-30.4,9.4,-10.4,-21.1,0.41093173,0.190282907,0.42301706,-0.78481399
501,1257855,568700,-0.635,-0.5,0.561,41,24.1,-30.4,9.4,-10.4,-21.1,0.41093173,0.190282907,0.42301706,-0.78481399
502,1259725,568710,-0.635,-0.492,0.569,40.3,24.6,-31.1,9.7,-11.8,-20.9,0.409070101,0.191290017,0.422345653,-0.785882138
503,1261938,568710,-0.631,-0.488,0.577,39.8,25,-31.3,9.7,-11.8,-20.9,0.408124027,0.191778314,0.422040468,-0.786431471
504,1264483,568710,-0.635,-0.484,0.577,39.2,25.2,-31.4,9.7,-11.8,-20.9,0.407177953,0.192297128,0.421704764,-0.786980804
505,1266861,568710,-0.631,-0.48,0.584,38.5,25.5,-31.4,9.5,-12.5,-20.8,0.406262398,0.192785424,0.421399579,-0.787499619
506,1270284,568720,-0.631,-0.48,0.584,37.9,25.6,-31.4,9.5,-12.5,-20.8,0.405316324,0.193273721,0.421124912,-0.788018433
507,1272295,568720,-0.635,-0.492,0.585,37.4,25.9,-31.4,9.5,-12.5,-20.8,0.404370251,0.193762017,0.420819727,-0.788537248
508,1274281,568720,-0.635,-0.488,0.589,36.8,26.2,-31.5,9.5,-12.5,-20.8,0.403454695,0.194250313,0.420545061,-0.789025544
509,1276976,568720,-0.635,-0.492,0.585,36.1,26.6,-31.7,10.2,-8.6,-19.7,0.402508621,0.194738609,0.420300913,-0.789544359
510,1279234,568730,-0.639,-0.484,0.585,35.4,27.2,-32,10.2,-8.6,-19.7,0.401532029,0.195226905,0.420056764,-0.790032655
511,1281970,568730,-0.639,-0.488,0.581,34.7,27.8,-32.3,10.2,-8.6,-19.7,0.400585955,0.195715201,0.419843135,-0.790520951
512,1284198,568730,-0.647,-0.488,0.581,34.1,28.5,-32.7,10.2,-8.6,-19.7,0.399609363,0.196203497,0.419660024,-0.790978729
513,1288295,568730,-0.643,-0.488,0.589,33.4,28.9,-33.3,10.7,-11.7,-21.3,0.398632771,0.196691794,0.419476913,-0.791467025
514,1289391,568740,-0.643,-0.488,0.585,32.9,29.2,-33.7,10.7,-11.7,-21.3,0.39762566,0.197149571,0.419293802,-0.791924802
515,1291767,568740,-0.651,-0.491,0.581,32.3,29.4,-33.9,10.7,-11.7,-21.3,0.396649068,0.197637867,0.419141209,-0.79238258
516,1294941,568740,-0.655,-0.491,0.581,31.9,29.6,-34,10.7,-11.7,-21.3,0.395641957,0.198126164,0.418988617,-0.792840358
517,1297263,568740,-0.659,-0.495,0.577,31.5,29.8,-34.1,10.4,-11.8,-21.2,0.394634846,0.198583941,0.418866543,-0.793298135
518,1300092,568750,-0.667,-0.499,0.566,31.1,30,-34.3,10.4,-11.8,-21.2,0.393627735,0.199072237,0.41871395,-0.793755913
519,1302409,568750,-0.671,-0.507,0.562,30.7,30.2,-34.4,10.4,-11.8,-21.2,0.392620624,0.199530015,0.418591876,-0.794183172
520,1304721,568750,-0.667,-0.507,0.562,30.4,30.7,-34.6,10.4,-11.8,-21.2,0.391613514,0.200018311,0.418439283,-0.79464095
521,1306917,568750,-0.667,-0.507,0.562,30.4,30.7,-34.6,10.4,-11.8,-21.2,0.391613514,0.200018311,0.418439283,-0.79464095
522,1309393,568760,-0.679,-0.507,0.555,29.8,31.2,-35.1,11.1,-11,-20.9,0.38962981,0.201116977,0.418286691,-0.795464949
523,1312791,568760,-0.679,-0.503,0.539,29.5,31.2,-35.2,11.1,-11,-20.9,0.388592181,0.201574755,0.418164617,-0.795892209
524,1314710,568760,-0.691,-0.506,0.531,29.2,31.2,-35.4,11.1,-11,-20.9,0.387554552,0.202032533,0.41810358,-0.796319468
525,1316959,568760,-0.691,-0.502,0.528,28.8,31.3,-35.7,10.9,-10.1,-20.9,0.386516923,0.202520829,0.418012024,-0.796746727
526,1319120,568770,-0.695,-0.498,0.508,28.6,31.5,-36,10.9,-10.1,-20.9,0.385479293,0.202978607,0.417950987,-0.797173986
527,1322659,568770,-0.699,-0.498,0.497,28.5,31.6,-36.4,10.9,-10.1,-20.9,0.384441664,0.203436384,0.417859432,-0.797601245
528,1324178,568770,-0.711,-0.498,0.497,28.7,31.8,-36.8,10.9,-10.1,-20.9,0.383373516,0.203894162,0.417798395,-0.798028504
529,1327845,568770,-0.711,-0.502,0.489,29.1,31.9,-37.3,11.3,-10.4,-19,0.382305368,0.204321421,0.417737358,-0.798455763
530,1329388,568780,-0.719,-0.506,0.493,29.5,32.1,-37.7,11.3,-10.4,-19,0.38123722,0.204809717,0.417645802,-0.798913541
531,1331625,568780,-0.719,-0.51,0.497,30.2,32.1,-38,11.3,-10.4,-19,0.380138554,0.205267495,0.417554247,-0.7993408
532,1334793,568780,-0.723,-0.513,0.501,31,32.1,-38.2,11.3,-10.4,-19,0.379039888,0.205755791,0.417462691,-0.799798578
533,1336740,568780,-0.727,-0.525,0.513,31.9,32.1,-38.4,11.3,-10.5,-20.5,0.377910703,0.206213569,0.417340617,-0.800256355
534,1339609,568790,-0.727,-0.525,0.521,32.8,32,-38.6,11.3,-10.5,-20.5,0.376812037,0.206701865,0.417188025,-0.800744652
535,1341623,568790,-0.727,-0.525,0.529,33.8,32,-38.8,11.3,-10.5,-20.5,0.375682852,0.207190161,0.417035432,-0.801232948
536,1345207,568790,-0.731,-0.521,0.525,34.6,32,-38.8,11.3,-10.5,-20.5,0.374553667,0.207678457,0.416882839,-0.801721244
537,1347340,568790,-0.731,-0.505,0.533,35.3,32,-38.8,12.1,-10.3,-20.5,0.373424482,0.208166753,0.416699728,-0.80220954
538,1349183,568800,-0.727,-0.494,0.536,35.5,31.9,-38.7,12.1,-10.3,-20.5,0.372295297,0.208655049,0.416486099,-0.802697836
539,1352671,568800,-0.731,-0.486,0.54,35.5,31.7,-38.7,12.1,-10.3,-20.5,0.371166112,0.209143345,0.416333506,-0.803186132
540,1354268,568800,-0.73,-0.47,0.548,35.2,31.4,-38.7,12.1,-10.3,-20.5,0.370036927,0.209631642,0.416119877,-0.803674429
541,1357218,568800,-0.73,-0.47,0.548,35.2,31.4,-38.7,12.1,-10.3,-20.5,0.370036927,0.209631642,0.416119877,-0.803674429
542,1359339,568810,-0.73,-0.446,0.552,34.5,31.2,-38.4,12.1,-10.3,-20.5,0.36793115,0.211035493,0.415814692,-0.804437391
543,1362458,568810,-0.738,-0.438,0.564,34,31.2,-38.1,12.1,-10.3,-20.5,0.366832484,0.211493271,0.415662099,-0.804925687
544,1364272,568810,-0.741,-0.43,0.568,33.2,31.2,-37.8,12.1,-10.3,-20.5,0.365703299,0.211981567,0.415478988,-0.805383465
545,1367205,568810,-0.741,-0.427,0.568,32.3,31.1,-37.3,12.1,-10.3,-20.5,0.364635151,0.212439344,0.415356914,-0.805810724
546,1369380,568820,-0.741,-0.423,0.564,31.2,30.9,-36.8,12.1,-10.3,-20.5,0.363567003,0.212897122,0.415204321,-0.806268502
547,1372413,568820,-0.741,-0.423,0.56,30,30.8,-36.4,12.1,-10.3,-20.5,0.362498856,0.2133549,0.415082247,-0.806665242
548,1374701,568820,-0.741,-0.43,0.556,28.5,30.7,-35.9,12.1,-10.3,-20.5,0.361461226,0.213782159,0.414990692,-0.807061983
549,1376911,568820,-0.745,-0.43,0.564,27,30.7,-35.7,12.6,-10.9,-20.1,0.360423597,0.214209418,0.414929655,-0.807458724
550,1379169,568830,-0.742,-0.43,0.552,25.4,30.5,-35.5,12.6,-10.9,-20.1,0.359385968,0.214636677,0.414899136,-0.807824946
551,1382257,568830,-0.742,-0.43,0.54,23.9,30.3,-35.4,12.6,-10.9,-20.1,0.358378857,0.215033418,0.414868618,-0.808160649
552,1384586,568830,-0.738,-0.435,0.533,22.3,30,-35.5,12.6,-10.9,-20.1,0.357371746,0.215430158,0.414868618,-0.808526872
553,1386792,568830,-0.738,-0.438,0.529,20.9,29.8,-35.7,12.6,-10.9,-20.1,0.356364635,0.215796381,0.414899136,-0.808832057
554,1389425,568840,-0.746,-0.438,0.525,19.5,29.7,-35.9,12.6,-10.9,-20.1,0.355388043,0.216132084,0.414960173,-0.80916776
555,1391894,568840,-0.746,-0.438,0.517,18.4,29.7,-35.9,12.6,-10.9,-20.1,0.354380932,0.216467788,0.415051729,-0.809472945
556,1394173,568840,-0.75,-0.438,0.506,17.6,29.7,-35.8,12.6,-10.9,-20.1,0.35340434,0.216803491,0.415143284,-0.809747612
557,1398435,568840,-0.75,-0.438,0.506,17,29.6,-35.8,12.6,-10.9,-20.1,0.352427747,0.217139195,0.41523484,-0.810052797
558,1400597,568850,-0.75,-0.442,0.502,16.7,29.3,-35.8,12.6,-10.9,-20.1,0.351451155,0.217474899,0.415326395,-0.810327464
559,1402202,568850,-0.746,-0.446,0.486,16.4,29,-36,12.6,-10.9,-20.1,0.350474563,0.217780084,0.415417951,-0.810632649
560,1404366,568850,-0.75,-0.454,0.478,16.2,28.8,-36.4,12.6,-10.9,-20.1,0.349467452,0.218085269,0.415540025,-0.810907315
561,1406631,568850,-0.75,-0.454,0.478,16.2,28.8,-36.4,12.6,-10.9,-20.1,0.349467452,0.218085269,0.415540025,-0.810907315
562,1409217,568860,-0.766,-0.465,0.467,16.6,28.1,-37.1,12.6,-10.9,-20.1,0.347788934,0.219611194,0.415753655,-0.811090426
563,1412057,568860,-0.775,-0.485,0.456,17.4,27.7,-37.4,12.6,-10.9,-20.1,0.346812342,0.219885861,0.41584521,-0.81142613
564,1414189,568860,-0.783,-0.504,0.464,18.9,27.2,-37.7,12.6,-10.9,-20.1,0.345805231,0.220191046,0.415906247,-0.811731315
565,1416605,568860,-0.791,-0.508,0.464,21,26.7,-38,12.6,-10.9,-20.1,0.344767602,0.220465712,0.415906247,-0.812097537
566,1419926,568870,-0.803,-0.516,0.464,23.5,26.1,-38.3,12.6,-10.9,-20.1,0.343760491,0.220770898,0.415875729,-0.812463759
567,1422238,568870,-0.807,-0.531,0.476,26.4,25.4,-38.6,12.6,-10.9,-20.1,0.342692343,0.221045564,0.415784173,-0.8128605
568,1424430,568870,-0.811,-0.531,0.48,29.5,24.7,-39,12.6,-10.9,-20.1,0.341654714,0.221350749,0.415631581,-0.813318278
569,1426714,568870,-0.815,-0.527,0.488,32.8,23.9,-39.4,13.8,-11,-20.5,0.340556047,0.221686453,0.415417951,-0.813776055
570,1429306,568880,-0.819,-0.523,0.488,36.2,22.9,-40,13.8,-11,-20.5,0.339487899,0.221991638,0.415143284,-0.81429487
571,1432747,568880,-0.822,-0.499,0.5,39.6,21.8,-40.4,13.8,-11,-20.5,0.338358715,0.222296823,0.414777062,-0.814844203
572,1434204,568880,-0.814,-0.48,0.519,43,20.6,-40.9,13.8,-11,-20.5,0.33722953,0.222632527,0.414380322,-0.815454573
573,1436730,568880,-0.821,-0.46,0.535,46.5,19.5,-41.2,13.8,-11,-20.5,0.336100345,0.222937712,0.413892026,-0.816064943
574,1439734,568890,-0.821,-0.425,0.554,49.8,18.4,-41.6,13.8,-11,-20.5,0.334940641,0.223242897,0.413342692,-0.816736351
575,1441613,568890,-0.824,-0.405,0.566,52.9,17.4,-41.8,13.8,-11,-20.5,0.333780938,0.2235786,0.412732322,-0.817438276
576,1445217,568890,-0.824,-0.385,0.578,55.6,16.5,-42,13.8,-11,-20.5,0.332621235,0.223853267,0.412060915,-0.818170721
577,1446740,568890,-0.828,-0.369,0.586,57.9,15.8,-42,13.8,-11,-20.5,0.331431013,0.224219489,0.411358989,-0.818903165
578,1449186,568900,-0.827,-0.326,0.609,59.7,15,-41.7,13.8,-11,-20.5,0.33027131,0.224555193,0.410596026,-0.819666128
579,1451575,568900,-0.835,-0.318,0.613,60.7,14.5,-41.4,13.8,-11,-20.5,0.329111606,0.224829859,0.409802545,-0.82042909
580,1454961,568900,-0.842,-0.294,0.617,60.8,13.9,-41.2,13.8,-11,-20.5,0.327951903,0.225196081,0.409039583,-0.821222571
581,1457131,568900,-0.842,-0.294,0.617,60.8,13.9,-41.2,13.8,-11,-20.5,0.327951903,0.225196081,0.409039583,-0.821222571
582,1460148,568910,-0.842,-0.247,0.628,59,12.9,-40.9,14.5,-10.9,-19.9,0.325998718,0.226355785,0.407086398,-0.822626423
583,1461655,568910,-0.845,-0.228,0.636,57.2,12.4,-40.7,14.5,-10.9,-19.9,0.324869533,0.226630451,0.406353954,-0.823358867
584,1464684,568910,-0.841,-0.216,0.628,54.7,11.9,-40.4,14.5,-10.9,-19.9,0.323770867,0.226874599,0.405652028,-0.824060793
585,1466826,568910,-0.841,-0.2,0.632,51.5,11.4,-40.3,14.5,-10.9,-19.9,0.322672201,0.227057711,0.405011139,-0.824762719
586,1469092,568920,-0.84,-0.173,0.617,47.8,10.9,-40.2,14.5,-10.9,-19.9,0.321604053,0.227240822,0.404431288,-0.825403607
587,1471628,568920,-0.836,-0.161,0.609,43.8,10.6,-40.1,14.5,-10.9,-19.9,0.320596942,0.227393414,0.403912473,-0.826013977
588,1475062,568920,-0.84,-0.157,0.605,39.6,10.4,-39.7,14.5,-10.9,-19.9,0.319589831,0.227515488,0.403454695,-0.826593829
589,1476893,568920,-0.856,-0.149,0.593,35.3,10.2,-39.2,14.7,-11,-17.7,0.318613239,0.227607044,0.403088473,-0.827143162
590,1479919,568930,-0.872,-0.148,0.59,31.2,10.1,-38.5,14.7,-11,-17.7,0.317667165,0.227668081,0.402783288,-0.827631458
591,1482231,568930,-0.88,-0.156,0.575,26.9,9.9,-37.8,14.7,-11,-17.7,0.31675161,0.227698599,0.402569658,-0.828089236
592,1484455,568930,-0.884,-0.156,0.559,22.5,9.5,-37.3,14.7,-11,-17.7,0.315897092,0.227698599,0.402417066,-0.828485977
593,1486692,568930,-0.904,-0.175,0.532,18.2,9,-36.9,15,-11.5,-17.5,0.315042573,0.227668081,0.40232551,-0.828852199
594,1489163,568940,-0.925,-0.194,0.525,14,8.3,-36.6,15,-11.5,-17.5,0.314249092,0.227576525,0.40232551,-0.829187902
595,1492636,568940,-0.941,-0.202,0.514,10.2,7.4,-36.4,15,-11.5,-17.5,0.313455611,0.227454451,0.402356029,-0.829493088
596,1494200,568940,-0.953,-0.21,0.502,6.8,6.5,-35.9,15,-11.5,-17.5,0.312723167,0.227301859,0.402447584,-0.829767754
597,1496703,568940,-0.985,-0.217,0.492,3.7,5.3,-35.2,15,-11.3,-17.5,0.312021241,0.227118748,0.402600177,-0.830011902
598,1499726,568950,-1.001,-0.216,0.484,0.7,3.9,-34.6,15,-11.3,-17.5,0.311349834,0.226905118,0.402783288,-0.830225532
599,1501857,568950,-1.024,-0.212,0.469,-2.2,2.4,-34.2,15,-11.3,-17.5,0.310708945,0.226630451,0.402996918,-0.830439161
600,1504138,568950,-1.076,-0.191,0.459,-5.1,0.6,-34.1,15,-11.3,-17.5,0.310129093,0.226294748,0.403271584,-0.830622272
601,1507857,568950,-1.076,-0.191,0.459,-5.1,0.6,-34.1,15,-11.3,-17.5,0.310129093,0.226294748,0.403271584,-0.830622272
602,1509315,568960,-1.123,-0.166,0.452,-9.4,-3.2,-33.6,14.8,-11.1,-17.4,0.309030427,0.225501267,0.403881954,-0.830957976
603,1512437,568960,-1.147,-0.15,0.461,-10.4,-5.5,-33.1,14.8,-11.1,-17.4,0.308511612,0.225043489,0.404217658,-0.831110569
604,1514713,568960,-1.19,-0.133,0.493,-10.5,-7.9,-32.7,14.8,-11.1,-17.4,0.308053835,0.224555193,0.404492325,-0.831263161
605,1516854,568960,-1.209,-0.125,0.513,-9.9,-10.4,-32,14.8,-11.1,-17.4,0.307596057,0.22400586,0.404766991,-0.831446272
606,1519783,568970,-1.229,-0.109,0.545,-8.6,-13.2,-31.1,14.8,-11.1,-17.4,0.307199316,0.223426008,0.404980621,-0.831629383
607,1522785,568970,-1.249,-0.104,0.565,-7.1,-16.1,-29.9,14.8,-11.1,-17.4,0.306833094,0.222815638,0.405163732,-0.831873531
608,1524282,568970,-1.272,-0.092,0.608,-5.6,-19.3,-28.7,14.8,-11.1,-17.4,0.306527909,0.222174749,0.405285806,-0.832087161
609,1526882,568970,-1.28,-0.092,0.624,-4.5,-22.6,-27.5,16.9,-11,-17.8,0.306222724,0.221503342,0.405346843,-0.832361827
610,1529249,568980,-1.288,-0.092,0.652,-3.7,-25.9,-26.6,16.9,-11,-17.8,0.306009095,0.220770898,0.405346843,-0.832605976
611,1532824,568980,-1.299,-0.083,0.671,-3,-28.9,-26,16.9,-11,-17.8,0.305795465,0.219946898,0.405346843,-0.832911161
612,1534274,568980,-1.322,-0.059,0.715,-2.2,-31.6,-25.5,16.9,-11,-17.8,0.305612354,0.219183935,0.405285806,-0.833216346
613,1536640,568980,-1.334,-0.035,0.727,-1.4,-33.7,-25.1,16.9,-10.6,-18,0.30549028,0.218329417,0.405224769,-0.833521531
614,1539410,568990,-1.345,-0.008,0.747,-0.7,-35.4,-24.8,16.9,-10.6,-18,0.305337687,0.217474899,0.405102695,-0.833857234
615,1542521,568990,-1.368,0.043,0.763,-0.1,-36.8,-24.5,16.9,-10.6,-18,0.305215613,0.216559343,0.404980621,-0.834192938
616,1544182,568990,-1.376,0.071,0.779,0.5,-38.1,-24.2,16.9,-10.6,-18,0.305124058,0.215674306,0.404828028,-0.834528642
617,1547168,568990,-1.375,0.098,0.798,1.5,-39.6,-23.7,16.4,-10.5,-17.9,0.305032502,0.214758751,0.404644917,-0.834894864
618,1549275,569000,-1.379,0.122,0.806,2.7,-41.3,-23,16.4,-10.5,-17.9,0.304940947,0.213812677,0.404431288,-0.835261086
619,1551722,569000,-1.386,0.177,0.818,3.8,-43.1,-21.6,16.4,-10.5,-17.9,0.304910428,0.212866604,0.40418714,-0.835627308
620,1554639,569000,-1.393,0.197,0.818,4.2,-44.8,-19.8,16.4,-10.5,-17.9,0.304940947,0.211890011,0.403912473,-0.836024049
621,1557042,569000,-1.393,0.197,0.818,4.2,-44.8,-19.8,16.4,-10.5,-17.9,0.304940947,0.211890011,0.403912473,-0.836024049
622,1560229,569010,-1.428,0.265,0.881,2.5,-47.6,-14.7,16.9,-10.6,-17.9,0.305154576,0.209936827,0.403302103,-0.836725974
623,1561702,569010,-1.479,0.317,0.824,0.6,-48.7,-11.8,16.9,-10.6,-17.9,0.305368206,0.208960234,0.403027436,-0.837031159
624,1564170,569010,-1.487,0.329,0.824,-1.8,-50,-8.7,16.9,-10.6,-17.9,0.305642872,0.207953124,0.40275277,-0.837305826
625,1567013,569010,-1.495,0.329,0.824,-4.3,-51.6,-5.6,16.9,-10.6,-17.9,0.306009095,0.206915494,0.40253914,-0.837519456
626,1570849,569020,-1.487,0.317,0.855,-6.6,-53.5,-1.9,16.9,-10.6,-17.9,0.306466872,0.205877865,0.402294992,-0.837733085
627,1572263,569020,-1.502,0.345,0.957,-8.2,-55.7,2.5,16.9,-10.6,-17.9,0.307046724,0.204840236,0.402050844,-0.837885678
628,1574108,569020,-1.529,0.369,0.965,-9.4,-58.2,7.8,16.9,-10.6,-17.9,0.30774865,0.203772088,0.401806696,-0.838007752
629,1577580,569020,-1.556,0.397,0.95,-10.2,-60.8,13.3,14.3,-10.7,-17.8,0.308572649,0.20270394,0.401532029,-0.838099307
630,1579283,569030,-1.6,0.43,0.932,-11.5,-63.6,18.2,14.3,-10.7,-17.8,0.309518723,0.201635792,0.401226844,-0.838160344
631,1582117,569030,-1.611,0.438,0.932,-13.8,-66.8,22.6,14.3,-10.7,-17.8,0.310586871,0.200506607,0.400921659,-0.838190863
632,1584356,569030,-1.615,0.434,0.956,-16.6,-70.4,26.7,14.3,-10.7,-17.8,0.311746574,0.199346904,0.400646992,-0.838160344
633,1587332,569030,-1.619,0.43,0.96,-18.7,-74.3,30.8,13.3,-10.7,-18.4,0.31305887,0.198126164,0.400341807,-0.838099307
634,1590503,569040,-1.639,0.431,0.945,-19.7,-78.2,34.9,13.3,-10.7,-18.4,0.314462722,0.196844386,0.400006104,-0.83803827
635,1591903,569040,-1.655,0.439,0.926,-19.6,-82.3,38.9,13.3,-10.7,-18.4,0.315958129,0.19553209,0.399639882,-0.837946715
636,1594624,569040,-1.667,0.467,0.902,-18.8,-86.5,42.6,13.3,-10.7,-18.4,0.31757561,0.194219794,0.399212622,-0.837855159
637,1597668,569040,-1.686,0.495,0.875,-17.4,-90.7,46,12.5,-10.8,-18.5,0.319284646,0.192846461,0.398693808,-0.837763604
638,1599297,569050,-1.721,0.566,0.845,-15.5,-94.8,48.8,12.5,-10.8,-18.5,0.32105472,0.191412091,0.398113956,-0.837672048
639,1602265,569050,-1.741,0.582,0.845,-13.2,-98.5,50.9,12.5,-10.8,-18.5,0.322916349,0.189977721,0.397473067,-0.837611011
640,1604413,569050,-1.752,0.61,0.865,-10.5,-102.1,51.7,12.5,-10.8,-18.5,0.324777978,0.188482315,0.396710105,-0.837580493
641,1607473,569050,-1.752,0.61,0.865,-10.5,-102.1,51.7,12.5,-10.8,-18.5,0.324777978,0.188482315,0.396710105,-0.837580493
642,1609812,569060,-1.749,0.826,0.86,-4.3,-110.4,45,10.5,-11.1,-18.9,0.328440199,0.185247353,0.395001068,-0.837702567
643,1611941,569060,-1.768,0.878,0.861,-1.5,-115.4,37.9,10.5,-11.1,-18.9,0.330149236,0.183477279,0.394054994,-0.837855159
644,1614252,569060,-1.799,0.91,0.83,-0.6,-120.2,32,10.5,-11.1,-18.9,0.331766717,0.181524094,0.393047884,-0.838099307
645,1616648,569060,-1.857,0.998,0.839,-2.8,-123.2,29.7,10.5,-11.1,-18.9,0.333353679,0.179509873,0.39210181,-0.838343455
646,1620244,569070,-1.888,1.042,0.848,-8.6,-123.6,30.7,10.5,-11.1,-18.9,0.335032197,0.177465133,0.391247291,-0.838526566
647,1621685,569070,-1.884,1.093,0.883,-17,-121.2,32.5,10.5,-11.1,-18.9,0.336710715,0.175389874,0.390545366,-0.838618122
648,1624370,569070,-1.87,1.183,0.964,-26.1,-117.8,33.5,10.5,-11.1,-18.9,0.338419752,0.173314615,0.390026551,-0.838587603
649,1626649,569070,-1.937,1.235,0.864,-34.8,-116.1,34.4,9,-10.7,-18.9,0.340189825,0.171239357,0.389660329,-0.838496048
650,1630131,569080,-2.001,1.182,0.854,-42.4,-117.6,37.6,9,-10.7,-18.9,0.342020936,0.169103061,0.389446699,-0.838282418
651,1631663,569080,-2.037,1.19,0.824,-49.5,-122,44.3,9,-10.7,-18.9,0.344065676,0.16687521,0.389263588,-0.837977233
652,1634261,569080,-2.077,1.191,0.798,-56.9,-126.9,52.5,9,-10.7,-18.9,0.346293527,0.164555803,0.389141514,-0.837549974
653,1637265,569080,-2.149,1.169,0.757,-65.5,-130.6,59.6,8,-10.9,-19.1,0.348735008,0.162175359,0.389141514,-0.837000641
654,1639664,569090,-2.181,1.158,0.738,-75.5,-133.3,63.8,8,-10.9,-19.1,0.351298563,0.15970336,0.389294107,-0.836359752
655,1641763,569090,-2.205,1.123,0.719,-86.5,-135.3,65.6,8,-10.9,-19.1,0.353953673,0.157139805,0.389599292,-0.835566271
656,1644390,569090,-2.226,1.092,0.704,-97.8,-137.1,66,8,-10.9,-19.1,0.356639302,0.154454176,0.390087588,-0.834711753
657,1646769,569090,-2.267,1.022,0.686,-107.9,-139,66,7.5,-10.4,-19.7,0.359385968,0.151585437,0.390758995,-0.83373516
658,1650857,569100,-2.272,0.971,0.679,-116.2,-141.1,66.5,7.5,-10.4,-19.7,0.36219367,0.148716697,0.391521958,-0.832667013
659,1653477,569100,-2.308,0.917,0.66,-122,-143.4,67.6,7.5,-10.4,-19.7,0.365031892,0.145725883,0.392406995,-0.831568346
660,1655336,569100,-2.374,0.809,0.612,-125.3,-145.7,69.3,7.5,-10.4,-19.7,0.36793115,0.142674032,0.393292032,-0.830378124
661,1656935,569100,-2.374,0.809,0.612,-125.3,-145.7,69.3,7.5,-10.4,-19.7,0.36793115,0.142674032,0.393292032,-0.830378124
662,1659271,569110,-2.447,0.688,0.579,-125.1,-150.7,73.1,7.3,-10.3,-20.3,0.37388226,0.136478774,0.39497055,-0.827967162
663,1662727,569110,-2.484,0.619,0.557,-121.4,-153.6,74.2,7.3,-10.3,-20.3,0.376903592,0.133335368,0.395702994,-0.826746422
664,1665154,569110,-2.558,0.49,0.524,-115,-156.7,74.9,7.3,-10.3,-20.3,0.379955443,0.13022248,0.396252327,-0.825586718
665,1667332,569110,-2.59,0.436,0.501,-105.7,-160.2,75.3,7.3,-10.3,-20.3,0.382976775,0.127109592,0.396618549,-0.824518571
666,1669509,569120,-2.623,0.386,0.479,-93.6,-164,75.6,7.3,-10.3,-20.3,0.386028626,0.124027223,0.396710105,-0.82351146
667,1671778,569120,-2.64,0.331,0.441,-79.2,-168.5,75.4,7.3,-10.3,-20.3,0.389049959,0.120975372,0.396496475,-0.822626423
668,1674290,569120,-2.673,0.245,0.356,-62.6,-173.7,74.7,7.3,-10.3,-20.3,0.392040773,0.117984558,0.395947142,-0.821924497
669,1677753,569120,-2.674,0.21,0.313,-44.6,-179.5,73.4,6.4,-9.2,-21.1,0.395001068,0.114993744,0.395001068,-0.821344646
670,1679188,569130,-2.675,0.174,0.29,-24.9,-185.6,71.8,6.4,-9.2,-21.1,0.397991882,0.112094485,0.393688772,-0.820978423
671,1682131,569130,-2.656,0.135,0.27,-3.5,-191.8,70,6.4,-9.2,-21.1,0.400860622,0.109225745,0.391918699,-0.820795312
672,1684305,569130,-2.644,0.127,0.273,19.5,-197.7,67.6,6.4,-9.2,-21.1,0.403729362,0.106418043,0.389660329,-0.820825831
673,1687782,569130,-2.62,0.15,0.3,43.6,-202.6,64.1,5.7,-9.8,-20.7,0.406506546,0.103732414,0.386944182,-0.821100497
674,1690130,569140,-2.579,0.212,0.369,68,-205.2,58.7,5.7,-9.8,-20.7,0.409131138,0.10113834,0.383770257,-0.821619312
675,1692319,569140,-2.512,0.375,0.484,91.4,-205.3,50.9,5.7,-9.8,-20.7,0.4115421,0.0986968596,0.380169073,-0.822382275
676,1694646,569140,-2.482,0.485,0.533,113.4,-203.3,41,5.7,-9.8,-20.7,0.413739433,0.0964079714,0.376232185,-0.823358867
677,1696786,569140,-2.457,0.594,0.568,134.2,-200.7,29.7,4.8,-10.4,-20.3,0.415631581,0.0942716758,0.371929075,-0.824610126
678,1699440,569150,-2.45,0.728,0.622,153.8,-198.2,17.5,4.8,-10.4,-20.3,0.417218543,0.0922269356,0.36732078,-0.826105533
679,1701641,569150,-2.446,0.948,0.766,172.7,-195.9,4.5,4.8,-10.4,-20.3,0.418530839,0.0903042695,0.3624073,-0.82781457
680,1704230,569150,-2.428,1.074,0.854,190.9,-193,-9.1,4.8,-10.4,-20.3,0.419507431,0.088473159,0.357219153,-0.829767754
681,1707250,569150,-2.428,1.074,0.854,190.9,-193,-9.1,4.8,-10.4,-20.3,0.419507431,0.088473159,0.357219153,-0.829767754
682,1709599,569160,-2.45,1.365,1.03,224.2,-183.4,-38.8,4.2,-11.3,-19.9,0.420392468,0.0852076785,0.346079897,-0.834376049
683,1712676,569160,-2.437,1.644,1.181,236.8,-176.9,-54.3,4.2,-11.3,-19.9,0.420300913,0.08374279,0.340220344,-0.836970122
684,1714926,569160,-2.415,1.773,1.239,244.5,-169.7,-69.5,4.2,-11.3,-19.9,0.419843135,0.0823694571,0.334330271,-0.839716788
685,1717368,569160,-2.373,1.902,1.304,246,-162.1,-83.9,4.2,-11.3,-19.9,0.419019135,0.0810571612,0.328470717,-0.84255501
686,1719724,569170,-2.206,2.131,1.513,241.9,-153.8,-98.4,4.2,-11.3,-19.9,0.41788995,0.0796838282,0.322794275,-0.845454268
687,1721878,569170,-2.137,2.18,1.578,233.2,-145.3,-113.1,4.2,-11.3,-19.9,0.416394543,0.0783715323,0.31736198,-0.848353526
688,1724120,569170,-2.065,2.202,1.63,221.8,-137.9,-127.5,4.2,-11.3,-19.9,0.41462447,0.0769371624,0.312204352,-0.851252785
689,1726790,569170,-1.977,2.216,1.679,208.4,-132.1,-141.2,2.7,-14.6,-18.4,0.412518693,0.0754112369,0.307351909,-0.854182562
690,1730158,569180,-1.76,2.14,1.767,192.7,-127.3,-155.2,2.7,-14.6,-18.4,0.410168767,0.0737327189,0.302865688,-0.857051302
691,1731690,569180,-1.637,2.063,1.795,174.1,-121.8,-171.5,2.7,-14.6,-18.4,0.407483139,0.0718710898,0.298806726,-0.859920042
692,1734282,569180,-1.52,1.954,1.8,153,-114.8,-191.2,2.7,-14.6,-18.4,0.404400769,0.0698263497,0.295205542,-0.862788781
693,1736613,569180,-1.423,1.822,1.728,130.5,-106.3,-214.4,3,-16.3,-18.6,0.400830103,0.0675984985,0.292123173,-0.865657521
694,1740157,569190,-1.167,1.56,1.425,107.3,-96.8,-240.6,3,-16.3,-18.6,0.396740623,0.0651875362,0.289620655,-0.868587298
695,1741896,569190,-1.012,1.419,1.159,84.2,-87.5,-269.1,3,-16.3,-18.6,0.392071291,0.0625324259,0.287636952,-0.871547594
696,1744286,569190,-0.854,1.238,0.785,62.5,-80.4,-300.1,3,-16.3,-18.6,0.386761071,0.059663686,0.286141545,-0.874599445
697,1746717,569190,-0.669,1.033,0.331,45.3,-77.5,-333.7,3.8,-17.1,-18,0.380809961,0.056489761,0.285073397,-0.87777337
698,1750147,569200,-0.15,0.485,-0.551,37.8,-80.2,-369.5,3.8,-17.1,-18,0.374187445,0.0529496139,0.284127323,-0.881130406
699,1751670,569200,0.156,0.147,-0.824,45.7,-87.8,-405,3.8,-17.1,-18,0.366863002,0.0491042817,0.28296762,-0.884792627
700,1754685,569200,0.424,-0.2,-0.924,73.8,-98.3,-436.9,3.8,-17.1,-18,0.35892819,0.0451368755,0.281228065,-0.88882107
701,1756967,569200,0.424,-0.2,-0.924,73.8,-98.3,-436.9,3.8,-17.1,-18,0.35892819,0.0451368755,0.281228065,-0.88882107
702,1759178,569210,0.847,-1.077,-0.28,194.8,-117.4,-481.4,4.8,-18,-17.2,0.341624195,0.0373851741,0.274117252,-0.898159734
703,1762150,569210,0.882,-1.227,0.12,280.4,-122,-494.4,4.8,-18,-17.2,0.332407605,0.0341502121,0.268105106,-0.90356151
704,1764396,569210,0.959,-1.476,0.389,371.1,-124.2,-506.6,4.8,-18,-17.2,0.322855312,0.0314340648,0.26023133,-0.909421064
705,1767800,569210,1.432,-0.798,0.788,455,-127.6,-529.4,4.8,-18,-17.2,0.312723167,0.029053621,0.250618,-0.915707877
706,1769293,569220,1.91,-0.294,1.121,524.6,-136.2,-576.8,4.8,-18,-17.2,0.301553392,0.0267952513,0.239539781,-0.922452467
707,1772321,569220,2.452,0.22,1.519,578.8,-150.8,-648.2,4.8,-18,-17.2,0.288918729,0.0241706595,0.227240822,-0.929654836
708,1774710,569220,3.079,0.792,1.966,619.9,-169,-727.5,4.8,-18,-17.2,0.274605548,0.0209967345,0.213934751,-0.937192907
709,1776757,569220,4.367,2.009,2.588,646.6,-187.7,-794.3,9.9,-17.3,-15.5,0.258857997,0.0173345134,0.199896237,-0.944822535
710,1779066,569230,4.66,2.02,0.935,650.9,-203,-843.3,9.9,-17.3,-15.5,0.242042299,0.0131534776,0.185613575,-0.952238533
711,1781818,569230,4.9,0.986,-3.742,624.4,-218.4,-879.4,9.9,-17.3,-15.5,0.2244026,0.0083620716,0.171666616,-0.959196753
712,1785136,569230,7.934,-8.07,-8.16,589.5,-266.3,-897.8,9.9,-17.3,-15.5,0.206457717,0.00231940672,0.158146916,-0.965575121
713,1786697,569230,7.94,-8.277,-4.148,638.5,-377.9,-850.7,12.2,-17.1,-14,0.189733573,-0.00567644276,0.142979217,-0.97134312
714,1789285,569240,7.942,-8.256,-6.183,811.9,-508,-577,12.2,-17.1,-14,0.179143651,-0.0148930326,0.123569445,-0.975890378
715,1792133,569240,7.983,-8.27,1.44,758.1,-466.1,-65.2,12.2,-17.1,-14,0.179235206,-0.0219733268,0.105563524,-0.977874081
716,1794193,569240,7.202,-6.576,7.693,377.2,-205.2,421.3,12.2,-17.1,-14,0.188848537,-0.0239265114,0.0968962676,-0.976897488
717,1796951,569240,3.357,-0.233,6.289,-208.8,134.3,566.7,11,-16.4,-15.3,0.200506607,-0.0207525864,0.102206488,-0.974089785
718,1799337,569250,1.08,3.591,6.034,-601.4,327.2,321.2,11,-16.4,-15.3,0.206274606,-0.0156865139,0.116550188,-0.971373638
719,1802841,569250,-0.751,6.867,3.144,-753.6,335.4,-72,11,-16.4,-15.3,0.203650014,-0.0121768853,0.133976257,-0.969725639
720,1804966,569250,-1.878,8.046,-1.434,-792.6,277,-427.7,11,-16.4,-15.3,0.193517869,-0.0110782189,0.151829585,-0.969176305
721,1807347,569250,-5.976,8.141,-0.571,-742.8,246.6,-589.2,13,-12.8,-16.5,0.180028687,-0.0109561449,0.168401135,-0.969054231
722,1809372,569260,-8.04,8.186,-2.164,-588,244,-517.2,13,-12.8,-16.5,0.168034913,-0.0099795526,0.181646168,-0.968840602
723,1811725,569260,-7.014,8.164,-0.902,-349.6,247.1,-281.4,13,-12.8,-16.5,0.161015656,-0.00717184973,0.189855647,-0.96847438
724,1814348,569260,-1.939,7.79,0.353,-98.7,229.5,-60.6,13,-12.8,-16.5,0.158757286,-0.0028992584,0.192754906,-0.968291269
725,1816650,569260,-0.732,4.756,0.173,76.8,199.6,68.9,13,-12.8,-16.5,0.159398175,0.00183111057,0.191808832,-0.968382824
726,1819920,569270,-0.327,2.03,-0.118,148.1,145.4,157.5,13,-12.8,-16.5,0.162083804,0.00607318339,0.18918424,-0.968443861
727,1822188,569270,-0.259,-1.482,0.992,143.1,69.2,248.6,13,-12.8,-16.5,0.167027802,0.00906399731,0.186376537,-0.968108158
728,1824415,569270,-2.828,-5.432,1.01,109.8,4.1,328.7,13,-12.8,-16.5,0.173955504,0.0108951079,0.183996094,-0.967345195
729,1826749,569270,-2.583,-6.02,0.856,84.2,-19.4,356,12.7,-15.6,-14.6,0.181493576,0.0122379223,0.182042909,-0.966277047
730,1829474,569280,-2.012,-6.669,1.191,67.9,-5.2,281.9,12.7,-15.6,-14.6,0.187444685,0.0135196997,0.180516984,-0.965422529
731,1831700,569280,-0.492,-6.343,0.969,41.1,18.8,130.8,12.7,-15.6,-14.6,0.190130314,0.0145878475,0.179692984,-0.965056307
732,1834411,569280,0.09,-4.91,1.125,-9.6,31.3,-28.3,12.7,-15.6,-14.6,0.18939787,0.0151066622,0.180028687,-0.965117344
733,1838429,569280,0.44,-3.31,1.217,-68.9,30.8,-105.8,13.1,-15,-15,0.187078463,0.0150456252,0.181646168,-0.965269936
734,1840574,569290,0.435,-1.809,1.204,-105.9,25,-91.5,13.1,-15,-15,0.18509476,0.0147709586,0.183996094,-0.965208899
735,1841854,569290,-0.143,0.472,1.428,-110.9,20.6,-29.1,13.1,-15,-15,0.184423353,0.0146488845,0.186437574,-0.964873196
736,1845156,569290,-0.774,1.009,1.396,-98.3,18.6,33.3,13.1,-15,-15,0.185064241,0.0147709586,0.18857387,-0.964323862
737,1846715,569290,-1.446,1.342,0.999,-85.3,18.8,67.5,13.4,-14.6,-14.5,0.186437574,0.0151066622,0.190435499,-0.963682974
738,1849547,569300,-1.658,1.851,1.566,-79.2,22.4,60.6,13.4,-14.6,-14.5,0.187658315,0.0155034028,0.192175054,-0.963103122
739,1851713,569300,-1.981,0.584,1.168,-69.3,24.5,16.7,13.4,-14.6,-14.5,0.187932981,0.0158085879,0.19370098,-0.9627369
740,1854779,569300,-2.005,-0.735,1.247,-48.8,20.1,-40.9,13.4,-14.6,-14.5,0.187017426,0.0158696249,0.194830164,-0.962706381
741,1857011,569300,-1.7,-1.637,1.476,-16.8,7.9,-80.5,13,-14.9,-13.8,0.185277871,0.0156254769,0.195257424,-0.962950529
742,1859851,569310,-1.238,-3.467,1.672,15.9,-5.2,-85.6,13,-14.9,-13.8,0.183507797,0.0151982177,0.19492172,-0.96334727
743,1862735,569310,-1.297,-4.833,1.889,42.3,-15.1,-59,13,-14.9,-13.8,0.182317576,0.0148014771,0.193975646,-0.963774529
744,1864497,569310,-0.75,-3.986,1.692,57.8,-22.1,-31,13,-14.9,-13.8,0.181737724,0.014435255,0.192693869,-0.964140751
745,1866712,569310,-0.735,-4.053,1.703,54.6,-26.1,-23,13,-14.9,-13.8,0.181340983,0.0140079958,0.19144261,-0.964476455
746,1869501,569320,-0.699,-3.26,1.595,32.2,-26.8,-41,13,-14.9,-13.8,0.180578021,0.0133976257,0.190649129,-0.96478164
747,1872582,569320,-0.668,-2.738,1.459,0.3,-24.8,-65.5,13,-14.9,-13.8,0.179296243,0.0126041444,0.190588092,-0.965056307
748,1874190,569320,-0.538,-2.23,1.325,-24.4,-22,-78.6,13,-14.9,-13.8,0.177739799,0.0117191076,0.191045869,-0.965269936
749,1877110,569320,-0.314,-1.815,1.248,-33.3,-20,-78.2,13.5,-14.9,-13.3,0.176183355,0.0108340709,0.191686758,-0.965422529
750,1880478,569330,0.278,-1.164,1.234,-28.7,-20,-69.8,13.5,-14.9,-13.3,0.174810022,0.0100100711,0.192236091,-0.965575121
751,1882669,569330,0.525,-0.836,1.211,-19.6,-21.9,-61.3,13.5,-14.9,-13.3,0.1736198,0.00921658986,0.192571795,-0.965727714
752,1884872,569330,0.705,-0.471,1.181,-14.3,-24.8,-57.6,13.5,-14.9,-13.3,0.172490616,0.00839259011,0.192785424,-0.965910825
753,1887151,569330,0.818,-0.076,1.134,-16.1,-27,-59.6,13.6,-14.5,-13.6,0.171361431,0.00753807184,0.193029572,-0.966063417
754,1889390,569340,0.928,0.628,1.086,-21.8,-27.7,-65.9,13.6,-14.5,-13.6,0.170079653,0.00659199805,0.193395795,-0.96621601
755,1891740,569340,0.939,0.863,1.054,-25.5,-27.5,-74.3,13.6,-14.5,-13.6,0.168645283,0.00558488723,0.193853572,-0.966399121
756,1894082,569340,0.925,0.958,1.039,-22.7,-26.9,-83.2,13.6,-14.5,-13.6,0.166997284,0.00457777642,0.194250313,-0.966612751
757,1898374,569340,0.827,0.83,1.01,-14.1,-26.4,-90.6,14.3,-14.2,-13.7,0.165196692,0.00360118412,0.194463942,-0.966856899
758,1899849,569350,0.733,0.62,1.017,-4.8,-25.7,-94.7,14.3,-14.2,-13.7,0.163304544,0.00262459181,0.194463942,-0.967192602
759,1902813,569350,0.63,0.359,1.001,-0.1,-24.7,-93.9,14.3,-14.2,-13.7,0.161442915,0.00170903653,0.194402905,-0.967528306
760,1904084,569350,0.51,0.106,0.978,-1.7,-23.3,-88.9,14.3,-14.2,-13.7,0.159672842,0.000823999756,0.194341868,-0.967833491
761,1907316,569350,0.3,-0.363,0.903,-7.8,-22,-81.8,14.3,-14.5,-14.3,0.158024842,0,0.194433424,-0.968077639
762,1909498,569360,0.234,-0.551,0.886,-14.1,-21.8,-75.7,14.3,-14.5,-14.3,0.156529435,-0.000823999756,0.194677572,-0.968291269
763,1911830,569360,0.223,-0.704,0.836,-17.8,-23.4,-72,14.3,-14.5,-14.3,0.155095065,-0.00167851802,0.194952239,-0.968443861
764,1914523,569360,0.254,-0.799,0.827,-18.2,-26.6,-70.5,14.3,-14.5,-14.3,0.153721732,-0.00259407331,0.195257424,-0.968596454
765,1916771,569360,0.404,-0.837,0.89,-16.4,-30.6,-69.4,14.3,-14.5,-14.3,0.152378918,-0.00360118412,0.195501572,-0.968779565
766,1919933,569370,0.489,-0.784,0.911,-14.3,-34.9,-67.2,14.3,-14.5,-14.3,0.15109714,-0.00466933195,0.195684683,-0.968932157
767,1922344,569370,0.558,-0.684,0.905,-13.5,-38.5,-63.7,14.3,-14.5,-14.3,0.149906919,-0.0057985168,0.195837275,-0.96908475
768,1924561,569370,0.652,-0.438,0.862,-14.1,-41,-59.7,14.3,-14.5,-14.3,0.148838771,-0.00695822016,0.195989868,-0.969206824
769,1926781,569370,0.658,-0.329,0.815,-15.3,-42.1,-56.2,14.6,-13.7,-16,0.14783166,-0.00814844203,0.196172979,-0.969298379
770,1929157,569380,0.639,-0.246,0.761,-15.9,-42,-54,14.6,-13.7,-16,0.146855068,-0.00930814539,0.19635609,-0.969420454
771,1933248,569380,0.6,-0.198,0.723,-14.8,-40.9,-53.2,14.6,-13.7,-16,0.145908994,-0.0104678488,0.196508683,-0.969512009
772,1935543,569380,0.52,-0.192,0.678,-12.4,-39,-52.8,14.6,-13.7,-16,0.144932402,-0.0115665151,0.196661275,-0.969603565
773,1937926,569380,0.472,-0.238,0.632,-9.6,-36.8,-52.3,14.8,-13.7,-16.4,0.143986328,-0.0126041444,0.196722312,-0.969725639
774,1940126,569390,0.435,-0.288,0.559,-6.9,-34.4,-51.2,14.8,-13.7,-16.4,0.143040254,-0.0135502182,0.196752831,-0.969847713
775,1942284,569390,0.422,-0.328,0.501,-4.1,-32.4,-49.6,14.8,-13.7,-16.4,0.142124699,-0.0144657735,0.196722312,-0.969969787
776,1944540,569390,0.446,-0.324,0.477,-1,-31.2,-48,14.8,-13.7,-16.4,0.14127018,-0.0153508103,0.196630757,-0.970091861
777,1946688,569390,0.482,-0.274,0.527,1.8,-30.8,-46.6,14.9,-13.6,-16.6,0.140415662,-0.0162053285,0.196478164,-0.970244453
778,1949299,569400,0.563,-0.201,0.606,3.7,-30.5,-45.2,14.9,-13.6,-16.6,0.139591662,-0.0170293283,0.196295053,-0.970397046
779,1951652,569400,0.668,-0.164,0.709,3.6,-29.4,-43.6,14.9,-13.6,-16.6,0.138767663,-0.0178228095,0.196111942,-0.97051912
780,1955895,569400,0.722,-0.004,0.727,2.4,-27.2,-41.6,14.9,-13.6,-16.6,0.1380047,-0.0185552538,0.195959349,-0.970641194
781,1958160,569400,0.755,0.1,0.698,1.4,-24.3,-39.7,14.7,-13.5,-16.8,0.137272256,-0.0192571795,0.195837275,-0.970763268
782,1960407,569410,0.843,0.196,0.594,0.7,-21.7,-38.1,14.7,-13.5,-16.8,0.13657033,-0.0198675497,0.19574572,-0.970885342
783,1962573,569410,1.063,0.329,0.459,-2.2,-20.2,-36.1,14.7,-13.5,-16.8,0.135898923,-0.0204474013,0.195715201,-0.970976897
784,1964937,569410,1.182,0.338,0.42,-9.8,-19.2,-33,14.7,-13.5,-16.8,0.135258034,-0.0209967345,0.195867794,-0.971007416
785,1967068,569410,1.28,0.292,0.387,-21.2,-17.6,-28.6,14.5,-13.4,-16,0.134708701,-0.0216071047,0.196234016,-0.971007416
786,1969394,569420,1.354,0.188,0.358,-32.4,-14.5,-23.4,14.5,-13.4,-16,0.134281442,-0.0220954009,0.196874905,-0.97091586
787,1971637,569420,1.488,-0.171,0.453,-38.6,-9.8,-18.3,14.5,-13.4,-16,0.13391522,-0.022461623,0.197637867,-0.970793786
788,1974141,569420,1.56,-0.397,0.545,-37.2,-4.4,-12.7,14.5,-13.4,-16,0.133640553,-0.0227668081,0.198431349,-0.970671712
789,1977604,569420,1.593,-0.606,0.611,-29,1.3,-5.1,14.7,-13.3,-15.8,0.13348796,-0.0228278451,0.199041719,-0.970580157
790,1979825,569430,1.598,-0.802,0.631,-17.7,7.4,6.5,14.7,-13.3,-15.8,0.133610034,-0.0227057711,0.199438459,-0.970488601
791,1982111,569430,1.634,-1.027,0.549,-7.9,13.4,22.2,14.7,-13.3,-15.8,0.134006775,-0.0223395489,0.199652089,-0.970366527
792,1984247,569430,1.653,-1.075,0.49,-3.3,18.6,39.6,14.7,-13.3,-15.8,0.134769738,-0.0217902158,0.199804682,-0.970244453
793,1986587,569430,1.692,-1.096,0.434,-4.4,23.1,55.6,14.3,-13.2,-16,0.135837886,-0.0210577715,0.199987793,-0.970091861
794,1989224,569440,1.708,-1.053,0.395,-9.2,26.9,68.4,14.3,-13.2,-16,0.1371807,-0.0202337718,0.200292978,-0.969847713
795,1992423,569440,1.725,-0.959,0.371,-14.5,30.4,78,14.3,-13.2,-16,0.138676107,-0.019287698,0.200720237,-0.969573046
796,1994788,569440,1.718,-0.904,0.386,-18.2,34,85.8,14.3,-13.2,-16,0.140354625,-0.0182500687,0.201239051,-0.969237342
797,1997088,569440,1.7,-0.852,0.414,-19.6,38.1,93.5,14.4,-13.5,-15.6,0.142155217,-0.0170903653,0.201818903,-0.96887112
798,1999320,569450,1.665,-0.777,0.493,-19.1,42.4,101.9,14.4,-13.5,-15.6,0.144108402,-0.0158085879,0.202368236,-0.968504898
799,2002006,569450,1.642,-0.756,0.536,-17,46.6,111,14.4,-13.5,-15.6,0.146244697,-0.014374218,0.202948088,-0.968077639
800,2004102,569450,1.611,-0.736,0.557,-13.9,50.3,120.3,14.4,-13.5,-15.6,0.148564104,-0.012817774,0.203436384,-0.96765038
801,2008345,569450,1.548,-0.719,0.597,-10.1,53.5,129.1,14,-13.4,-15.7,0.151036103,-0.0111697745,0.203863643,-0.967192602
802,2010607,569460,1.54,-0.695,0.632,-5.7,56.4,136.4,14,-13.4,-15.7,0.153660695,-0.00936918241,0.204199347,-0.966734825
803,2012807,569460,1.509,-0.694,0.637,-0.6,59.1,142.2,14,-13.4,-15.7,0.156407361,-0.00750755333,0.204443495,-0.966246529
804,2015083,569460,1.477,-0.682,0.63,4.8,60.9,146.6,14,-13.4,-15.7,0.159215064,-0.00555436872,0.204565569,-0.965788751
805,2017230,569460,1.438,-0.665,0.62,10.6,61.7,150.6,11.4,-14.1,-15.5,0.162114322,-0.0035401471,0.204565569,-0.965300455
806,2019579,569470,1.367,-0.62,0.621,16.9,61.6,154.7,11.4,-14.1,-15.5,0.165105136,-0.00149540696,0.204443495,-0.964842677
807,2021858,569470,1.331,-0.596,0.622,24,61,158.8,11.4,-14.1,-15.5,0.168187506,0.00057985168,0.204168828,-0.964354381
808,2024108,569470,1.296,-0.571,0.623,32,60.3,162.6,11.4,-14.1,-15.5,0.171330912,0.00268562883,0.203711051,-0.963896603
809,2027832,569470,1.269,-0.555,0.635,40.2,59.8,166.2,14.4,-15,-15.2,0.174535356,0.0048219245,0.203070162,-0.963438826
810,2029404,569480,1.222,-0.495,0.679,48.1,59.7,169.7,14.4,-15,-15.2,0.177831355,0.00701925718,0.202276681,-0.963011567
811,2031641,569480,1.203,-0.463,0.715,55.2,59.9,173.4,14.4,-15,-15.2,0.181218909,0.00924710837,0.201300089,-0.962553789
812,2034123,569480,1.18,-0.435,0.778,60.9,60.4,177.1,14.4,-15,-15.2,0.184667501,0.0115359966,0.200231941,-0.962096011
813,2037713,569480,1.153,-0.383,0.775,64.4,60.9,180.7,14.2,-14.6,-15.2,0.188177129,0.0138859218,0.199072237,-0.961638234
814,2039990,569490,1.137,-0.359,0.783,65.7,61.5,184,14.2,-14.6,-15.2,0.191747795,0.016235847,0.197882015,-0.961119419
815,2042143,569490,1.13,-0.347,0.791,64.8,61.9,187.1,14.2,-14.6,-15.2,0.195379498,0.0186162908,0.196722312,-0.960600604
816,2044461,569490,1.118,-0.347,0.783,62.4,62.1,190.3,14.2,-14.6,-15.2,0.199072237,0.0209967345,0.195593127,-0.960020753
817,2046628,569490,1.093,-0.366,0.729,58.9,62.1,193.5,13.6,-15.5,-14.4,0.202826014,0.0233771783,0.194524979,-0.959379864
818,2049223,569500,1.085,-0.382,0.726,55.1,62.2,196.4,13.6,-15.5,-14.4,0.206640828,0.025757622,0.193548387,-0.958708457
819,2052635,569500,1.077,-0.413,0.726,50.8,62.4,198.7,13.6,-15.5,-14.4,0.210516678,0.0281380657,0.19266335,-0.957976012
820,2054185,569500,1.076,-0.44,0.722,45.8,63.1,200.3,13.6,-15.5,-14.4,0.214392529,0.0305185095,0.191869869,-0.95721305
821,2056706,569500,1.043,-0.522,0.704,39.9,64.1,201.2,12.6,-15.5,-14.3,0.218298898,0.0328684347,0.191198462,-0.95638905
822,2059047,569510,1.027,-0.557,0.697,33,65.6,201.4,12.6,-15.5,-14.3,0.222205267,0.0352488784,0.190649129,-0.955504013
823,2062526,569510,1.006,-0.588,0.674,25.3,67.2,200.9,12.6,-15.5,-14.3,0.226081118,0.0375988037,0.190313425,-0.954557939
824,2064800,569510,0.949,-0.67,0.621,17.3,68.7,200,12.6,-15.5,-14.3,0.229956969,0.0399487289,0.190130314,-0.953581347
825,2066872,569510,0.917,-0.696,0.587,9.3,70.3,198.6,10.1,-16.5,-14.3,0.233771783,0.0422681356,0.190099796,-0.952574236
826,2069143,569520,0.873,-0.731,0.557,1.9,71.7,196.9,10.1,-16.5,-14.3,0.237586596,0.0446180609,0.190252388,-0.95147557
827,2071946,569520,0.824,-0.749,0.531,-4.9,72.7,195,10.1,-16.5,-14.3,0.241340373,0.0469069491,0.190527055,-0.950376904
828,2074131,569520,0.705,-0.782,0.495,-11.4,73.1,192.9,10.1,-16.5,-14.3,0.245033113,0.0491653188,0.190954314,-0.9492172
829,2077257,569520,0.637,-0.792,0.512,-17.5,73.1,190.7,9.4,-16.5,-13.8,0.248695334,0.0513626514,0.191503647,-0.948057497
830,2080221,569530,0.566,-0.798,0.549,-23.6,72.7,188.1,9.4,-16.5,-13.8,0.252296518,0.0534989471,0.192175054,-0.946836756
831,2081807,569530,0.503,-0.789,0.598,-29.2,72.1,185.3,9.4,-16.5,-13.8,0.255867183,0.0556352428,0.192968535,-0.945585498
832,2085118,569530,0.381,-0.763,0.703,-33.9,71,182.2,9.4,-16.5,-13.8,0.259376812,0.0576494644,0.193823054,-0.944334239
833,2087148,569530,0.318,-0.749,0.747,-37.4,69.7,178.9,7.5,-16.8,-14.2,0.262794885,0.059663686,0.194769127,-0.94308298
834,2089401,569540,0.267,-0.724,0.799,-39.2,68.2,175.7,7.5,-16.8,-14.2,0.26618244,0.0615558336,0.19574572,-0.941801202
835,2092356,569540,0.207,-0.707,0.821,-38.9,66.5,172.7,7.5,-16.8,-14.2,0.269478439,0.0634784997,0.196691794,-0.940549944
836,2094752,569540,0.093,-0.685,0.855,-36.3,64.4,169.9,7.5,-16.8,-14.2,0.272743919,0.0653096103,0.19757683,-0.939298685
837,2097046,569540,0.057,-0.668,0.867,-31.3,61.8,167.2,5.7,-17.1,-14.6,0.275948363,0.0671102023,0.198370312,-0.938047426
838,2099908,569550,0.014,-0.656,0.872,-24.2,59,165,5.7,-17.1,-14.6,0.279122288,0.0688802759,0.198950163,-0.936857204
839,2102153,569550,-0.056,-0.634,0.855,-16.1,56,163,5.7,-17.1,-14.6,0.282204657,0.0706503494,0.199377422,-0.935728019
840,2105143,569550,-0.092,-0.634,0.852,-8,53,161.3,5.7,-17.1,-14.6,0.285287027,0.072359386,0.19962157,-0.934568316
841,2106697,569550,-0.116,-0.613,0.825,-0.9,50.1,159.6,4.9,-17.4,-14.3,0.288338878,0.074098941,0.199713126,-0.933500168
842,2109368,569560,-0.151,-0.593,0.814,4.7,47.4,157.4,4.9,-17.4,-14.3,0.291329691,0.075777459,0.199652089,-0.932462539
843,2112525,569560,-0.202,-0.537,0.796,9,44.8,154.5,4.9,-17.4,-14.3,0.294259468,0.07739494,0.199499496,-0.931424909
844,2114118,569560,-0.233,-0.505,0.793,12.4,42.6,151,4.9,-17.4,-14.3,0.29709769,0.079012421,0.199255348,-0.930448317
845,2116872,569560,-0.264,-0.469,0.797,14.8,40.6,146.8,8.8,-18.5,-14.3,0.299874874,0.080568865,0.198980682,-0.929471725
846,2119044,569570,-0.292,-0.433,0.798,16.3,39,142.2,8.8,-18.5,-14.3,0.302560503,0.0820947905,0.198644978,-0.928556169
847,2122308,569570,-0.338,-0.349,0.822,16.9,37.6,137.5,8.8,-18.5,-14.3,0.305154576,0.0835596789,0.198309275,-0.927640614
848,2124519,569570,-0.349,-0.309,0.842,16.4,36.4,132.6,8.8,-18.5,-14.3,0.307657094,0.0849635304,0.197973571,-0.926755577
849,2127719,569570,-0.364,-0.274,0.854,14.6,35.4,128,4.7,-17,-14.1,0.310068056,0.0863368633,0.197668386,-0.925901059
850,2129606,569580,-0.375,-0.222,0.866,11.6,34.7,123.6,4.7,-17,-14.1,0.312387463,0.0876491592,0.197424238,-0.925046541
851,2132433,569580,-0.406,-0.143,0.882,7,34.4,119.6,4.7,-17,-14.1,0.314645833,0.0889309366,0.197302164,-0.924192022
852,2134069,569580,-0.417,-0.111,0.863,1,34.5,116.1,4.7,-17,-14.1,0.316843165,0.0901211585,0.197302164,-0.923306986
853,2137074,569580,-0.433,-0.099,0.855,-6.3,35,112.4,5.1,-16.9,-14.4,0.318948943,0.0912808618,0.197454756,-0.922452467
854,2140074,569590,-0.472,-0.071,0.868,-14.3,35.4,108.5,5.1,-16.9,-14.4,0.321024201,0.0923490097,0.197759941,-0.921567431
855,2142114,569590,-0.5,-0.058,0.884,-22.2,36,104.4,5.1,-16.9,-14.4,0.323007904,0.0933561205,0.198248238,-0.920651875
856,2145813,569590,-0.527,-0.054,0.893,-29.9,36.9,100.5,5.1,-16.9,-14.4,0.32493057,0.0943327128,0.198889126,-0.91973632
857,2147860,569590,-0.559,-0.053,0.902,-37.7,38,97.1,5.8,-16.8,-14.3,0.326792199,0.0952482681,0.199743645,-0.918790246
858,2149108,569600,-0.627,-0.051,0.907,-45.9,39.3,94.3,5.8,-16.8,-14.3,0.328592792,0.0961333048,0.200720237,-0.917844172
859,2152271,569600,-0.658,-0.055,0.916,-54.5,40.7,91.8,5.8,-16.8,-14.3,0.330393384,0.0969573046,0.201910459,-0.91686758
860,2154497,569600,-0.69,-0.054,0.909,-63.1,42.2,89.3,5.8,-16.8,-14.3,0.33210242,0.0977202673,0.20331431,-0.915829951
861,2156613,569600,-0.762,-0.072,0.891,-71.2,43.7,86.5,6.8,-16.5,-14.7,0.333811457,0.0984832301,0.204870754,-0.914792322
862,2159844,569610,-0.79,-0.091,0.884,-78.1,45.1,83.3,6.8,-16.5,-14.7,0.335428938,0.0991851558,0.206579791,-0.913754692
863,2161845,569610,-0.818,-0.102,0.877,-83.6,46.2,79.7,6.8,-16.5,-14.7,0.336985382,0.099856563,0.208410901,-0.912686544
864,2165647,569610,-0.846,-0.109,0.874,-87.8,46.7,75.7,6.8,-16.5,-14.7,0.338480789,0.100466933,0.210333567,-0.911618397
865,2167410,569610,-0.866,-0.136,0.867,-91,46.9,71.7,6,-18.4,-15.2,0.33988464,0.101077303,0.21231727,-0.910580767
866,2169396,569620,-0.891,-0.206,0.864,-93.4,47,67.9,6,-18.4,-15.2,0.341227454,0.101626637,0.214392529,-0.909512619
867,2171946,569620,-0.899,-0.226,0.876,-94.7,47.2,64.4,6,-18.4,-15.2,0.342478713,0.102145451,0.216467788,-0.908505509
868,2174774,569620,-0.892,-0.265,0.884,-94.9,47.6,61,6,-18.4,-15.2,0.343699454,0.102633747,0.218573565,-0.907467879
869,2176819,569620,-0.889,-0.328,0.88,-93.7,48,57.8,5.8,-16.1,-15.5,0.34479812,0.103213599,0.220648824,-0.906491287
870,2179629,569630,-0.881,-0.356,0.88,-91.2,48.4,54.6,5.8,-16.1,-15.5,0.345866268,0.103732414,0.222693564,-0.905514695
871,2181770,569630,-0.882,-0.376,0.876,-87.9,48.8,51.3,5.8,-16.1,-15.5,0.34684286,0.104281747,0.224677267,-0.904599139
872,2184251,569630,-0.874,-0.392,0.864,-84.1,49.1,48.1,5.8,-16.1,-15.5,0.347727897,0.104861599,0.226599933,-0.903714103
873,2186771,569630,-0.882,-0.399,0.857,-80.3,49.4,44.6,6,-15.7,-15.8,0.348551897,0.10544145,0.228461562,-0.902859584
874,2189979,569640,-0.89,-0.403,0.853,-77,49.8,41,6,-15.7,-15.8,0.349284341,0.10605182,0.230262154,-0.902035585
875,2192197,569640,-0.906,-0.383,0.857,-74.1,50.3,37.5,6,-15.7,-15.8,0.349955748,0.106662191,0.232032228,-0.901272622
876,2194468,569640,-0.925,-0.355,0.854,-71.4,50.9,34,6,-15.7,-15.8,0.3505356,0.107272561,0.233741264,-0.900509659
877,2197185,569640,-0.968,-0.307,0.847,-68.9,51.8,30.8,5.9,-15.5,-15.7,0.351023896,0.107943968,0.235419782,-0.899807733
878,2200178,569650,-1,-0.275,0.84,-66.9,52.5,27.9,5.9,-15.5,-15.7,0.351451155,0.108584857,0.237067782,-0.899136326
879,2201692,569650,-1.023,-0.247,0.829,-65.6,53.2,25.4,5.9,-15.5,-15.7,0.351847896,0.109256264,0.238715781,-0.898464919
880,2204462,569650,-1.1,-0.127,0.869,-65,53.8,23.3,5.9,-15.5,-15.7,0.352183599,0.10995819,0.240333262,-0.89782403
881,2207491,569650,-1.136,-0.103,0.835,-65.6,54.5,21.4,6.2,-16.3,-16.4,0.352458266,0.110629597,0.241981262,-0.897183142
882,2209109,569660,-1.175,-0.074,0.832,-67.7,55.3,19,6.2,-16.3,-16.4,0.352702414,0.111270486,0.243690298,-0.896542253
883,2211945,569660,-1.21,-0.034,0.837,-71.7,56,15.7,6.2,-16.3,-16.4,0.352885525,0.111911374,0.24549089,-0.895901364
884,2214691,569660,-1.277,0.033,0.854,-76.9,56.6,11.8,6.2,-16.3,-16.4,0.353007599,0.112491226,0.247413556,-0.895260475
885,2217701,569660,-1.308,0.058,0.855,-82.5,56.8,7.5,6.4,-15.5,-16.8,0.353038118,0.113010041,0.249427778,-0.894619587
886,2219338,569670,-1.348,0.066,0.86,-88.2,56.9,3.5,6.4,-15.5,-16.8,0.353038118,0.113467818,0.251594592,-0.89394818
887,2221674,569670,-1.383,0.079,0.872,-94.4,56.8,-0.2,6.4,-15.5,-16.8,0.352946562,0.11383404,0.253852962,-0.893307291
888,2224226,569670,-1.442,0.088,0.897,-100.8,56.8,-3.8,6.4,-15.5,-16.8,0.35279397,0.114139225,0.256263924,-0.892635884
889,2226708,569670,-1.466,0.085,0.902,-107.3,56.5,-7.1,6.4,-17.8,-17.2,0.352610858,0.114352855,0.258827479,-0.891933958
890,2230325,569680,-1.486,0.085,0.914,-113.4,56.2,-10.2,6.4,-17.8,-17.2,0.35236671,0.114535966,0.261482589,-0.891232032
891,2232001,569680,-1.506,0.078,0.911,-118.7,55.8,-12.9,6.4,-17.8,-17.2,0.352092044,0.11465804,0.264259774,-0.890499588
892,2234747,569680,-1.53,0.063,0.919,-123,55.2,-15.5,6.4,-17.8,-17.2,0.351786859,0.114688559,0.267097995,-0.889767144
893,2237742,569680,-1.534,0.051,0.916,-126.1,54.3,-18,6.7,-17.4,-17.5,0.351420637,0.11465804,0.269997253,-0.8890347
894,2239237,569690,-1.534,0.035,0.912,-127.7,53.4,-20.5,6.7,-17.4,-17.5,0.351054415,0.114597003,0.272957549,-0.888302255
895,2242021,569690,-1.535,0.016,0.904,-127.9,52.3,-22.8,6.7,-17.4,-17.5,0.350596637,0.114505448,0.275856807,-0.887569811
896,2244751,569690,-1.527,-0.011,0.9,-126.4,51.3,-25,6.7,-17.4,-17.5,0.350138859,0.114352855,0.278786584,-0.886867885
897,2246567,569690,-1.524,-0.043,0.9,-123.6,50.1,-27,7.2,-17,-18.2,0.349589526,0.114230781,0.281624805,-0.886196478
898,2250034,569700,-1.516,-0.07,0.904,-119.7,48.9,-28.7,7.2,-17,-18.2,0.349040193,0.114078188,0.28440199,-0.885555589
899,2251704,569700,-1.489,-0.13,0.911,-114.9,47.7,-30.4,7.2,-17,-18.2,0.348429823,0.113956114,0.2870571,-0.884945219
900,2254890,569700,-1.478,-0.162,0.915,-109.4,46.3,-31.9,7.2,-17,-18.2,0.347819452,0.113803522,0.289590136,-0.884395886
901,2257647,569700,-1.478,-0.162,0.915,-109.4,46.3,-31.9,7.2,-17,-18.2,0.347819452,0.113803522,0.289590136,-0.884395886
902,2259359,569710,-1.451,-0.217,0.918,-97,43.4,-33.6,7.4,-16.5,-18.5,0.34644612,0.113559374,0.294289987,-0.883419294
903,2262456,569710,-1.431,-0.249,0.918,-90.4,41.9,-33.7,7.4,-16.5,-18.5,0.345774712,0.113467818,0.296426283,-0.882961516
904,2264701,569710,-1.424,-0.261,0.921,-84,40.6,-33.6,7.4,-16.5,-18.5,0.345072787,0.113376263,0.298440504,-0.882595294
905,2267604,569710,-1.408,-0.261,0.925,-78.1,39.5,-33.2,7.9,-12.8,-17,0.344340342,0.113376263,0.300332652,-0.882229072
906,2269125,569720,-1.4,-0.258,0.936,-72.8,38.7,-32.8,7.9,-12.8,-17,0.343638417,0.113345744,0.302102725,-0.881893368
907,2272207,569720,-1.363,-0.223,0.978,-67.7,37.9,-32.2,7.9,-12.8,-17,0.342936491,0.113345744,0.303781243,-0.881588183
908,2275293,569720,-1.343,-0.212,0.997,-62.5,37.3,-31.4,7.9,-12.8,-17,0.342234565,0.113376263,0.305337687,-0.881313517
909,2276864,569720,-1.323,-0.189,1.024,-56.8,36.8,-30.2,8.5,-13.7,-20.1,0.341563158,0.113467818,0.306772057,-0.881069369
910,2279053,569730,-1.274,-0.146,1.054,-50.8,36.7,-28.7,8.5,-13.7,-20.1,0.340891751,0.113620411,0.308084353,-0.880855739
911,2281959,569730,-1.25,-0.139,1.065,-44.5,36.8,-26.9,8.5,-13.7,-20.1,0.340220344,0.113803522,0.309305094,-0.880672628
912,2285097,569730,-1.234,-0.139,1.076,-38.3,37.2,-25.3,8.5,-13.7,-20.1,0.339579455,0.114078188,0.310373241,-0.880520035
913,2286687,569730,-1.207,-0.14,1.087,-32,38,-23.7,8.4,-12.7,-20.7,0.338938566,0.114413892,0.311319315,-0.880367443
914,2289564,569740,-1.163,-0.157,1.113,-25.7,39,-22.4,8.4,-12.7,-20.7,0.338328196,0.114810633,0.312173833,-0.880275887
915,2291879,569740,-1.147,-0.169,1.113,-19.8,40.3,-21,8.4,-12.7,-20.7,0.337687307,0.115298929,0.312906278,-0.880184332
916,2294074,569740,-1.131,-0.173,1.12,-14.6,41.9,-19.7,8.4,-12.7,-20.7,0.337046419,0.115817743,0.313547166,-0.880123295
917,2296641,569740,-1.116,-0.17,1.108,-10.4,43.8,-18.6,9,-12.2,-20.7,0.33640553,0.116489151,0.3140965,-0.880062258
918,2300827,569750,-1.084,-0.151,1.103,-7.4,45.9,-17.7,9,-12.2,-20.7,0.33579516,0.117191076,0.314645833,-0.880031739
919,2303053,569750,-1.067,-0.124,1.083,-5.3,48.1,-16.9,9,-12.2,-20.7,0.335154271,0.117984558,0.315134129,-0.880001221
920,2305281,569750,-1.051,-0.1,1.079,-4.2,50.5,-16,9,-12.2,-20.7,0.334513382,0.118808557,0.315622425,-0.879970702
921,2307621,569750,-1.051,-0.1,1.079,-4.2,50.5,-16,9,-12.2,-20.7,0.334513382,0.118808557,0.315622425,-0.879970702
922,2309824,569760,-0.995,-0.023,1.042,-3.9,55.6,-14.3,9.2,-11.8,-20.3,0.333201086,0.120609149,0.316629536,-0.879848628
923,2312083,569760,-0.978,0.011,1.022,-4.4,58.3,-13.6,9.2,-11.8,-20.3,0.332560198,0.12161626,0.317178869,-0.879757073
924,2314301,569760,-0.966,0.05,1.014,-5.6,61.1,-12.9,9.2,-11.8,-20.3,0.331888791,0.12265389,0.317789239,-0.879634999
925,2316638,569760,-0.941,0.12,0.974,-7.6,64.3,-12.3,9.6,-13.2,-18.9,0.331217383,0.123752556,0.318430128,-0.879512925
926,2319201,569770,-0.929,0.155,0.969,-10.5,67.6,-12,9.6,-13.2,-18.9,0.330545976,0.124881741,0.319132054,-0.879329814
927,2323361,569770,-0.917,0.182,0.953,-14.2,71,-11.9,9.6,-13.2,-18.9,0.329874569,0.126071963,0.319956053,-0.879116184
928,2325546,569770,-0.9,0.209,0.953,-18.4,74.5,-11.9,9.6,-13.2,-18.9,0.329172643,0.127292703,0.320871609,-0.878872036
929,2327223,569770,-0.884,0.233,0.933,-23,78,-11.7,10.1,-13,-18.4,0.328470717,0.128543962,0.321909238,-0.878597369
930,2329514,569780,-0.872,0.236,0.921,-27.5,81.4,-11.5,10.1,-13,-18.4,0.327738273,0.129825739,0.323068941,-0.878231147
931,2331813,569780,-0.864,0.244,0.917,-32.2,84.7,-11.4,10.1,-13,-18.4,0.327036348,0.131138035,0.3243202,-0.877864925
932,2334274,569780,-0.856,0.236,0.897,-37,87.6,-11.1,10.1,-13,-18.4,0.326303903,0.132450331,0.325693533,-0.877407147
933,2336638,569780,-0.837,0.208,0.877,-42,90.2,-10.7,9.9,-13.2,-17.7,0.325571459,0.133823664,0.327158422,-0.876918851
934,2340011,569790,-0.833,0.196,0.861,-47,92.8,-10.1,9.9,-13.2,-17.7,0.324839015,0.135196997,0.328745384,-0.876400037
935,2342541,569790,-0.83,0.18,0.853,-51.7,95.2,-9.7,9.9,-13.2,-17.7,0.324137089,0.13657033,0.330454421,-0.875820185
936,2344359,569790,-0.831,0.137,0.834,-56,97.5,-9.3,9.9,-13.2,-17.7,0.323404645,0.137974181,0.332224494,-0.875179296
937,2346996,569790,-0.831,0.121,0.819,-59.8,99.5,-9,11,-12,-16.6,0.322702719,0.139378033,0.334116642,-0.874507889
938,2349560,569800,-0.839,0.106,0.827,-62.8,101.2,-8.6,11,-12,-16.6,0.322000793,0.140812403,0.336039308,-0.873805963
939,2351789,569800,-0.847,0.086,0.823,-64.8,102.5,-7.9,11,-12,-16.6,0.321268349,0.142246773,0.338023011,-0.873073519
940,2354443,569800,-0.852,0.023,0.815,-65.4,103.3,-7.4,11,-12,-16.6,0.320566424,0.143711661,0.340006714,-0.872310556
941,2356917,569800,-0.852,0.023,0.815,-65.4,103.3,-7.4,11,-12,-16.6,0.320566424,0.143711661,0.340006714,-0.872310556
942,2359295,569810,-0.845,-0.023,0.804,-62.6,103.3,-6.7,11,-12.7,-16.1,0.319162572,0.146641438,0.343943602,-0.870784631
943,2362969,569810,-0.842,-0.062,0.8,-59.7,102.5,-6.4,11,-12.7,-16.1,0.318460646,0.148136845,0.345805231,-0.870052187
944,2364927,569810,-0.835,-0.11,0.772,-56,101.1,-6,11,-12.7,-16.1,0.317789239,0.149601733,0.347575304,-0.869350261
945,2367381,569810,-0.819,-0.141,0.768,-51.3,99.5,-5.8,11.7,-12.1,-21.3,0.317087313,0.15109714,0.349284341,-0.868678854
946,2369551,569820,-0.827,-0.161,0.784,-45.6,97.6,-5.5,11.7,-12.1,-21.3,0.316385388,0.152562029,0.350840785,-0.868037965
947,2371892,569820,-0.832,-0.18,0.8,-38.7,95.7,-5.2,11.7,-12.1,-21.3,0.315683462,0.154087954,0.352244636,-0.867458113
948,2374429,569820,-0.75,-0.261,0.735,-31.5,94.1,-5.2,11.7,-12.1,-21.3,0.314920499,0.15561388,0.353495895,-0.866939299
949,2376866,569820,-0.758,-0.284,0.716,-24.7,92.4,-5.8,12.1,-11.8,-18.1,0.314218574,0.157139805,0.35462508,-0.866451003
950,2380858,569830,-0.758,-0.273,0.763,-17.4,89.9,-6.1,12.1,-11.8,-18.1,0.313455611,0.158696249,0.355601672,-0.866054262
951,2383149,569830,-0.774,-0.264,0.748,-9,86.8,-5.3,12.1,-11.8,-18.1,0.312723167,0.160222175,0.356364635,-0.865718558
952,2385465,569830,-0.762,-0.273,0.728,0,83.7,-3.5,12.1,-11.8,-18.1,0.311990722,0.161778619,0.356944487,-0.865443892
953,2387631,569830,-0.778,-0.26,0.74,8,81.4,-2.4,12.8,-11.9,-18.6,0.311288797,0.163304544,0.357371746,-0.865260781
954,2389887,569840,-0.777,-0.237,0.732,14.4,79.2,-2.3,12.8,-11.9,-18.6,0.310586871,0.164922025,0.357646413,-0.86507767
955,2392085,569840,-0.765,-0.221,0.708,19.8,76.6,-2.9,12.8,-11.9,-18.6,0.309854427,0.166478469,0.357799005,-0.864986114
956,2394173,569840,-0.749,-0.21,0.712,25,73.6,-3.3,12.8,-11.9,-18.6,0.309121982,0.168004395,0.357829524,-0.864925077
957,2396569,569840,-0.73,-0.222,0.704,30.3,70.7,-3,12.9,-11.5,-18.9,0.308389538,0.16953032,0.357737968,-0.864925077
958,2399971,569850,-0.722,-0.218,0.711,36.1,67.7,-1.8,12.9,-11.5,-18.9,0.307687613,0.171025727,0.357524339,-0.864986114
959,2402188,569850,-0.698,-0.215,0.71,41.7,64.9,0,12.9,-11.5,-18.9,0.307046724,0.172551653,0.357188635,-0.865047151
960,2404462,569850,-0.694,-0.215,0.706,46.6,62.2,1.9,12.9,-11.5,-18.9,0.306405835,0.17404706,0.356700339,-0.865169225
961,2406780,569850,-0.694,-0.215,0.706,46.6,62.2,1.9,12.9,-11.5,-18.9,0.306405835,0.17404706,0.356700339,-0.865169225
962,2411002,569860,-0.678,-0.212,0.718,51.8,57.7,4.2,13.1,-12.1,-19.5,0.305795465,0.17792291,0.354655599,-0.865443892
963,2412637,569860,-0.689,-0.192,0.73,52.4,55.7,4.8,13.1,-12.1,-19.5,0.305246132,0.17935728,0.353984191,-0.865596484
964,2414385,569860,-0.697,-0.172,0.73,52,53.9,5.2,13.1,-12.1,-19.5,0.304727317,0.180761132,0.353373821,-0.865749077
965,2416844,569860,-0.704,-0.144,0.734,50.2,52.4,5.5,13.2,-12.2,-18.1,0.304239021,0.182134465,0.352763451,-0.865901669
966,2419253,569870,-0.7,-0.105,0.718,47.3,51.2,5.5,13.2,-12.2,-18.1,0.303750725,0.18344676,0.352183599,-0.866023743
967,2422583,569870,-0.696,-0.105,0.718,43.2,50.1,5.1,13.2,-12.2,-18.1,0.303292947,0.184728538,0.351664785,-0.866115299
968,2424865,569870,-0.692,-0.101,0.718,38.8,48.6,4.6,13.2,-12.2,-18.1,0.302865688,0.185949278,0.351237526,-0.866176336
969,2427088,569870,-0.696,-0.101,0.726,34.6,46.9,4.5,13.7,-12.2,-17.8,0.302438429,0.187108982,0.350871303,-0.866237373
970,2429340,569880,-0.68,-0.105,0.717,30.5,45.1,4.7,13.7,-12.2,-17.8,0.302072207,0.188177129,0.350566118,-0.866237373
971,2431767,569880,-0.672,-0.121,0.706,26.4,43.1,5.1,13.7,-12.2,-17.8,0.301736503,0.189214759,0.350352489,-0.866237373
972,2434177,569880,-0.665,-0.137,0.702,22.1,41.2,5.4,13.7,-12.2,-17.8,0.301431318,0.190191351,0.350169378,-0.866206854
973,2438365,569880,-0.657,-0.157,0.701,18,39.3,5.6,14,-12.6,-17.4,0.301156652,0.191076388,0.350047304,-0.866145817
974,2440106,569890,-0.654,-0.193,0.701,14.1,37.6,5.7,14,-12.6,-17.4,0.300912503,0.191930906,0.350016785,-0.866054262
975,2441684,569890,-0.654,-0.216,0.702,10.7,36.2,6,14,-12.6,-17.4,0.300698874,0.192754906,0.350016785,-0.865932188
976,2445145,569890,-0.654,-0.236,0.698,7.2,35,6,14,-12.6,-17.4,0.300515763,0.19348735,0.350077822,-0.865810114
977,2447343,569890,-0.655,-0.263,0.702,3.7,33.9,6,13.9,-12.7,-17.8,0.30036317,0.194219794,0.350230415,-0.865657521
978,2449349,569900,-0.647,-0.279,0.702,0.2,32.9,5.7,13.9,-12.7,-17.8,0.300210578,0.194860683,0.350413526,-0.86547441
979,2451613,569900,-0.643,-0.299,0.705,-2.8,32,5.4,13.9,-12.7,-17.8,0.300088504,0.195501572,0.350657674,-0.865291299
980,2455957,569900,-0.644,-0.315,0.702,-5.4,30.7,5.1,13.9,-12.7,-17.8,0.29996643,0.196081423,0.35093234,-0.86507767
981,2458190,569900,-0.644,-0.315,0.702,-5.4,30.7,5.1,13.9,-12.7,-17.8,0.29996643,0.196081423,0.35093234,-0.86507767
982,2460436,569910,-0.632,-0.366,0.717,-7.8,27.3,5.8,13.7,-12.3,-17.2,0.300485244,0.198217719,0.350444044,-0.864619892
983,2462711,569910,-0.633,-0.386,0.721,-7.7,25.5,6.6,13.7,-12.3,-17.2,0.300454726,0.198675497,0.350749229,-0.864406262
984,2464880,569910,-0.633,-0.401,0.717,-7,23.7,7.5,13.7,-12.3,-17.2,0.300424207,0.199163793,0.350993377,-0.864192633
985,2467186,569910,-0.634,-0.444,0.725,-5.8,22.2,8.5,13.1,-12.4,-17.5,0.300454726,0.199591052,0.351207007,-0.864009522
986,2469442,569920,-0.634,-0.468,0.721,-4.3,20.7,9.3,13.1,-12.4,-17.5,0.300485244,0.200018311,0.351390118,-0.863826411
987,2471691,569920,-0.638,-0.488,0.733,-2.4,19.2,9.6,13.1,-12.4,-17.5,0.300515763,0.200415052,0.351512192,-0.8636433
988,2475077,569920,-0.631,-0.523,0.725,-0.2,17.6,9.3,13.1,-12.4,-17.5,0.3005768,0.200842311,0.351603748,-0.863521226
989,2477239,569920,-0.628,-0.57,0.737,2.3,15.7,8.6,14.9,-12.2,-17.8,0.300607318,0.201239051,0.351603748,-0.863399152
990,2479395,569930,-0.62,-0.594,0.741,5.6,13.7,7.9,14.9,-12.2,-17.8,0.300637837,0.201574755,0.351573229,-0.863338115
991,2481709,569930,-0.628,-0.614,0.745,9.8,11.8,7.4,14.9,-12.2,-17.8,0.300637837,0.201940977,0.351420637,-0.863307596
992,2484856,569930,-0.617,-0.649,0.729,14.5,9.9,7,14.9,-12.2,-17.8,0.300607318,0.202276681,0.351176489,-0.863338115
993,2487175,569930,-0.605,-0.657,0.725,19.5,8.1,6.6,14.7,-12.8,-17.3,0.300607318,0.202612384,0.350840785,-0.863399152
994,2489160,569940,-0.597,-0.673,0.729,24.4,6.5,6.4,14.7,-12.8,-17.3,0.3005768,0.202948088,0.350383007,-0.863521226
995,2491789,569940,-0.605,-0.665,0.733,29.4,4.8,6.7,14.7,-12.8,-17.3,0.300515763,0.203283792,0.349833674,-0.863673818
996,2494115,569940,-0.609,-0.63,0.737,34.5,3.5,7.6,14.7,-12.8,-17.3,0.300485244,0.203619495,0.349192785,-0.863856929
997,2497425,569940,-0.612,-0.61,0.729,39.1,2.5,8.8,14.8,-12.5,-17.4,0.300454726,0.203985717,0.348429823,-0.864101077
998,2499769,569950,-0.612,-0.586,0.725,42.9,1.7,10,14.8,-12.5,-17.4,0.300454726,0.204382458,0.347575304,-0.864345225
999,2501899,569950,-0.616,-0.559,0.717,45.4,0.9,10.9,14.8,-12.5,-17.4,0.300454726,0.204779199,0.346690268,-0.864619892
1000,2504997,569950,-0.615,-0.508,0.705,46.8,0.1,11.6,14.8,-12.5,-17.4,0.300454726,0.205175939,0.345744194,-0.864894559
1001,2506719,569950,-0.615,-0.508,0.705,46.8,0.1,11.6,14.8,-12.5,-17.4,0.300454726,0.205175939,0.345744194,-0.864894559
1002,2509809,569960,-0.614,-0.476,0.693,47.7,-1.5,12.6,14.9,-12.6,-17.6,0.300515763,0.205938902,0.343821528,-0.865443892
1003,2513157,569960,-0.61,-0.453,0.693,47.5,-2.1,13.3,14.9,-12.6,-17.6,0.3005768,0.206335643,0.342844935,-0.865749077
1004,2515292,569960,-0.602,-0.43,0.689,46.9,-2.6,14.1,14.9,-12.6,-17.6,0.300637837,0.206671346,0.341868343,-0.865993225
1005,2517558,569960,-0.594,-0.418,0.693,45.9,-2.8,14.9,12.8,-13,-17,0.300729392,0.207037568,0.340922269,-0.866267891
1006,2519776,569970,-0.59,-0.414,0.689,44,-2.8,15.7,12.8,-13,-17,0.300851466,0.20740379,0.340006714,-0.86651204
1007,2522131,569970,-0.589,-0.383,0.689,41.4,-2.6,16.3,12.8,-13,-17,0.301004059,0.207739494,0.339121677,-0.866695151
1008,2524257,569970,-0.589,-0.367,0.685,38.1,-2.4,17,12.8,-13,-17,0.301156652,0.208075198,0.338297678,-0.866878262
1009,2526862,569970,-0.585,-0.363,0.688,34.3,-2,17.9,15.3,-12.9,-16.9,0.301370281,0.208380383,0.337565233,-0.867030854
1010,2529146,569980,-0.593,-0.339,0.681,30,-1.5,18.7,15.3,-12.9,-16.9,0.301583911,0.208685568,0.336893826,-0.867152928
1011,2532250,569980,-0.596,-0.312,0.677,25.5,-1,19.6,15.3,-12.9,-16.9,0.301858577,0.208990753,0.336313974,-0.867213965
1012,2534626,569980,-0.6,-0.296,0.673,20.9,-0.5,20.6,15.3,-12.9,-16.9,0.302163762,0.209265419,0.335825678,-0.867213965
1013,2537962,569980,-0.612,-0.288,0.673,16.2,-0.1,21.2,15.2,-13,-17.2,0.302468947,0.209540086,0.335428938,-0.867213965
1014,2539383,569990,-0.604,-0.292,0.654,11.4,0.1,21.7,15.2,-13,-17.2,0.30283517,0.209753716,0.335093234,-0.867152928
1015,2542454,569990,-0.604,-0.288,0.653,6.6,0.2,21.8,15.2,-13,-17.2,0.303201392,0.209967345,0.334879604,-0.867030854
1016,2544768,569990,-0.612,-0.284,0.65,2.2,0.5,21.7,15.2,-13,-17.2,0.303628651,0.210150456,0.33475753,-0.86690878
1017,2547336,569990,-0.616,-0.296,0.642,-1.5,0.8,21.5,14.9,-13.3,-16.8,0.304025391,0.210333567,0.334665975,-0.866756188
1018,2549440,570000,-0.612,-0.296,0.642,-5,1.3,21.4,14.9,-13.3,-16.8,0.304452651,0.210455641,0.334696493,-0.866573077
1019,2551691,570000,-0.612,-0.296,0.634,-8.7,1.6,21.1,14.9,-13.3,-16.8,0.30487991,0.210608234,0.33475753,-0.866359447
1020,2554225,570000,-0.612,-0.292,0.642,-12.4,2,20.7,14.9,-13.3,-16.8,0.305307169,0.210699789,0.334910123,-0.866115299
1021,2557809,570000,-0.612,-0.292,0.642,-12.4,2,20.7,14.9,-13.3,-16.8,0.305307169,0.210699789,0.334910123,-0.866115299
1022,2559201,570010,-0.616,-0.304,0.642,-18.9,2.6,19.2,14,-13.3,-16.9,0.306344798,0.211157567,0.335154271,-0.865535447
1023,2562185,570010,-0.604,-0.316,0.622,-21.5,2.9,17.9,14,-13.3,-16.9,0.306772057,0.211218604,0.335520493,-0.865260781
1024,2564152,570010,-0.605,-0.323,0.626,-23.7,3.2,16.5,14,-13.3,-16.9,0.307168798,0.211249123,0.335917234,-0.864955596
1025,2566918,570010,-0.597,-0.335,0.634,-25.1,3.5,15.3,14.4,-13.1,-17.1,0.30753502,0.211249123,0.336344493,-0.86465041
1026,2569161,570020,-0.597,-0.351,0.634,-25.6,3.6,14.5,14.4,-13.1,-17.1,0.307901242,0.211249123,0.336771752,-0.864345225
1027,2571724,570020,-0.601,-0.359,0.634,-25,3.8,14,14.4,-13.1,-17.1,0.308267464,0.211249123,0.337199011,-0.86404004
