sample_index,elapsed_us,device_time_ms,acc_x_g,acc_y_g,acc_z_g,gyro_x_dps,gyro_y_dps,gyro_z_dps,mag_x_ut,mag_y_ut,mag_z_ut,quat_w,quat_x,quat_y,quat_z
0,4802,567450,0.988,0.036,-0.022,0,0.1,0,-35.8,6.1,27.2,0.175450911,0.69820246,-0.151738029,0.677236244
1,7007,567450,0.985,0.036,-0.018,0,0,0,-35.8,6.1,27.2,0.175450911,0.69820246,-0.151738029,0.677236244
2,9289,567460,0.988,0.032,-0.014,0,0,0,-35.8,6.1,27.2,0.175450911,0.69820246,-0.151738029,0.677236244
3,11640,567460,0.981,0.036,-0.018,0,0,0,-35.3,6.3,27.7,0.175450911,0.69820246,-0.151738029,0.677236244
4,14220,567460,0.985,0.036,-0.022,0,0.1,0,-35.3,6.3,27.7,0.175450911,0.69820246,-0.151738029,0.677236244
5,17323,567460,0.985,0.044,-0.018,0,0.1,0,-35.3,6.3,27.7,0.175450911,0.69820246,-0.151738029,0.677236244
6,19566,567470,0.992,0.04,-0.014,0,0,0,-35.3,6.3,27.7,0.175450911,0.69820246,-0.151738029,0.677236244
7,22377,567470,0.985,0.04,-0.018,0,0,0,-36,6.2,27.4,0.175450911,0.69820246,-0.151738029,0.677236244
8,24139,567470,0.988,0.036,-0.022,0,0,0,-36,6.2,27.4,0.175450911,0.69820246,-0.151738029,0.677236244
9,27694,567470,0.985,0.036,-0.026,0.1,0,0,-36,6.2,27.4,0.175450911,0.69820246,-0.151738029,0.677236244
10,29180,567480,0.985,0.036,-0.018,0.1,0,0.2,-36,6.2,27.4,0.175450911,0.69820246,-0.151738029,0.677236244
11,32135,567480,0.981,0.036,-0.018,0,0,0.2,-35.9,6.2,27.3,0.175450911,0.69820246,-0.151738029,0.677266762
12,34443,567480,0.985,0.036,-0.026,0,0,0.1,-35.9,6.2,27.3,0.175450911,0.69820246,-0.151738029,0.677266762
13,37465,567480,0.985,0.04,-0.018,0,0,0,-35.9,6.2,27.3,0.175450911,0.69820246,-0.151738029,0.677266762
14,39700,567490,0.988,0.04,-0.018,0,0,0,-35.9,6.2,27.3,0.175450911,0.69820246,-0.151768548,0.677266762
15,42701,567490,0.988,0.04,-0.022,0,0,0,-35,4.6,27,0.175450911,0.69820246,-0.151768548,0.677266762
16,44236,567490,0.988,0.04,-0.026,0,0,0,-35,4.6,27,0.175450911,0.69820246,-0.151768548,0.677266762
17,47316,567490,0.985,0.04,-0.022,0,0,0,-35,4.6,27,0.175450911,0.69820246,-0.151768548,0.677266762
18,50248,567500,0.988,0.04,-0.022,0,0,0,-35,4.6,27,0.175420392,0.69820246,-0.151768548,0.677266762
19,51819,567500,0.985,0.036,-0.022,0,0,0,-36.8,7.6,26.9,0.175420392,0.69820246,-0.151768548,0.677266762
20,54148,567500,0.985,0.036,-0.018,0,0.1,0,-36.8,7.6,26.9,0.175420392,0.69820246,-0.151768548,0.677266762
21,56829,567500,0.988,0.032,-0.026,0,0.2,-0.1,-36.8,7.6,26.9,0.175450911,0.698171941,-0.151768548,0.677266762
22,59873,567510,0.985,0.04,-0.018,0,0.1,-0.1,-36.8,7.6,26.9,0.175450911,0.698171941,-0.151738029,0.677266762
23,61687,567510,0.988,0.04,-0.022,0,0,0,-37.5,7.1,27.3,0.175450911,0.698171941,-0.151738029,0.677266762
24,65180,567510,0.992,0.036,-0.026,0,0,0,-37.5,7.1,27.3,0.175450911,0.698171941,-0.151738029,0.677266762
25,66768,567510,0.985,0.04,-0.018,0,0,0,-37.5,7.1,27.3,0.175450911,0.698171941,-0.151768548,0.677266762
26,69678,567520,0.985,0.036,-0.018,0,0,0,-37.5,7.1,27.3,0.175450911,0.698171941,-0.151768548,0.677266762
27,72692,567520,0.985,0.04,-0.022,0,-0.1,0,-37.3,7.2,27,0.175450911,0.698171941,-0.151768548,0.677266762
28,74283,567520,0.985,0.036,-0.03,0,-0.1,0,-37.3,7.2,27,0.175450911,0.69820246,-0.151768548,0.677266762
29,76691,567520,0.985,0.036,-0.022,0,0,0,-37.3,7.2,27,0.175450911,0.69820246,-0.151768548,0.677266762
30,79869,567530,0.985,0.04,-0.018,0,0.1,0,-37.3,7.2,27,0.175450911,0.698171941,-0.151768548,0.677266762
31,82220,567530,0.985,0.036,-0.018,0,0.1,0,-37.3,7.2,27.1,0.175450911,0.698171941,-0.151768548,0.677266762
32,84566,567530,0.985,0.04,-0.022,0,0,0,-37.3,7.2,27.1,0.175450911,0.698171941,-0.151768548,0.677266762
33,86901,567530,0.985,0.04,-0.018,0,0,0,-37.3,7.2,27.1,0.175450911,0.698171941,-0.151738029,0.677266762
34,89164,567540,0.985,0.04,-0.014,0,-0.1,-0.1,-37.3,7.2,27.1,0.175450911,0.698171941,-0.151738029,0.677266762
35,92468,567540,0.988,0.04,-0.018,0,-0.2,-0.2,-34.7,5.6,27,0.175450911,0.698171941,-0.151738029,0.677266762
36,94089,567540,0.988,0.04,-0.018,0,-0.1,-0.2,-34.7,5.6,27,0.175450911,0.698171941,-0.151738029,0.677266762
37,97058,567540,0.985,0.04,-0.018,0,-0.1,-0.2,-34.7,5.6,27,0.175450911,0.698171941,-0.151738029,0.677266762
38,99265,567550,0.988,0.044,-0.018,0,0,-0.1,-34.7,5.6,27,0.175481429,0.698171941,-0.151738029,0.677266762
39,103316,567550,0.985,0.036,-0.018,0,0,-0.1,-36.1,6,27.8,0.175481429,0.698171941,-0.151707511,0.677266762
40,104880,567550,0.985,0.036,-0.022,0,0.1,-0.1,-36.1,6,27.8,0.175481429,0.698171941,-0.151707511,0.677266762
41,106903,567550,0.988,0.04,-0.018,0,0.1,0,-36.1,6,27.8,0.175481429,0.698171941,-0.151707511,0.677266762
42,109949,567560,0.985,0.04,-0.022,0.1,0,0,-36.1,6,27.8,0.175481429,0.698171941,-0.151707511,0.677266762
43,112628,567560,0.985,0.036,-0.026,0,0,0,-35.3,6.1,27.5,0.175481429,0.698171941,-0.151707511,0.677266762
44,114352,567560,0.988,0.04,-0.018,0,-0.1,0,-35.3,6.1,27.5,0.175481429,0.698171941,-0.151707511,0.677266762
45,117174,567560,0.985,0.032,-0.018,0,0,0,-35.3,6.1,27.5,0.175481429,0.698171941,-0.151707511,0.677266762
46,120296,567570,0.985,0.036,-0.022,0,0,0,-35.3,6.1,27.5,0.175481429,0.698171941,-0.151707511,0.677266762
47,121714,567570,0.988,0.04,-0.022,0,0,0,-35.5,6,27.2,0.175481429,0.698171941,-0.151707511,0.677266762
48,124916,567570,0.988,0.036,-0.018,0,-0.1,0,-35.5,6,27.2,0.175481429,0.698171941,-0.151707511,0.677266762
49,127104,567570,0.988,0.04,-0.022,0,-0.1,0,-35.5,6,27.2,0.175450911,0.69820246,-0.151707511,0.677266762
50,129881,567580,0.988,0.044,-0.018,0,-0.1,0,-35.5,6,27.2,0.175450911,0.69820246,-0.151707511,0.677266762
51,131694,567580,0.988,0.036,-0.018,0,-0.1,0,-34.5,5.7,27.3,0.175450911,0.69820246,-0.151707511,0.677236244
52,135181,567580,0.985,0.032,-0.018,0,-0.2,0,-34.5,5.7,27.3,0.175450911,0.69820246,-0.151707511,0.677236244
53,136730,567580,0.988,0.036,-0.022,0,-0.2,0,-34.5,5.7,27.3,0.175450911,0.69820246,-0.151707511,0.677236244
54,139190,567590,0.988,0.04,-0.022,0,-0.2,0,-34.5,5.7,27.3,0.175450911,0.69820246,-0.151707511,0.677236244
55,142716,567590,0.985,0.04,-0.022,0.1,-0.1,0,-36,5.8,26.9,0.175450911,0.69820246,-0.151738029,0.677236244
56,144255,567590,0.985,0.04,-0.014,0.1,0,0,-36,5.8,26.9,0.175420392,0.69820246,-0.151738029,0.677236244
57,146720,567590,0.988,0.036,-0.014,0.1,0.1,0,-36,5.8,26.9,0.175420392,0.69820246,-0.151738029,0.677236244
58,150131,567600,0.985,0.04,-0.018,0,0.2,0,-36,5.8,26.9,0.175420392,0.69820246,-0.151738029,0.677236244
59,151716,567600,0.985,0.036,-0.018,0,0.1,0,-35.5,6.4,27.2,0.175420392,0.69820246,-0.151738029,0.677266762
60,155138,567600,0.985,0.036,-0.022,0,0,0,-35.5,6.4,27.2,0.175420392,0.69820246,-0.151738029,0.677266762
61,156772,567600,0.988,0.04,-0.018,0,0,0,-35.5,6.4,27.2,0.175420392,0.69820246,-0.151738029,0.677266762
62,160251,567610,0.985,0.04,-0.026,0,0,0,-35.5,6.4,27.2,0.175420392,0.69820246,-0.151738029,0.677236244
63,161690,567610,0.985,0.036,-0.018,0,0,-0.1,-35.5,6.1,27.2,0.175420392,0.69820246,-0.151738029,0.677236244
64,164772,567610,0.985,0.036,-0.026,0,0,0,-35.5,6.1,27.2,0.175450911,0.69820246,-0.151738029,0.677236244
65,167012,567610,0.988,0.04,-0.014,0,0.1,0,-35.5,6.1,27.2,0.175450911,0.69820246,-0.151738029,0.677266762
66,169248,567620,0.985,0.04,-0.018,0.1,0.2,0,-35.5,6.1,27.2,0.175420392,0.69820246,-0.151738029,0.677266762
67,171670,567620,0.985,0.04,-0.018,0.1,0.2,0,-35.4,6,27.2,0.175420392,0.69820246,-0.151707511,0.677266762
68,175252,567620,0.988,0.036,-0.022,0.1,0.1,0,-35.4,6,27.2,0.175420392,0.69820246,-0.151707511,0.677266762
69,176677,567620,0.988,0.036,-0.022,0.1,0.1,0,-35.4,6,27.2,0.175420392,0.698171941,-0.151707511,0.677266762
70,179237,567630,0.988,0.036,-0.018,0,0,0,-35.4,6,27.2,0.175420392,0.698171941,-0.151707511,0.677266762
71,181625,567630,0.988,0.04,-0.018,0,0,0,-35.3,6.2,27.2,0.175420392,0.698171941,-0.151707511,0.677266762
72,184896,567630,0.988,0.04,-0.018,0,0.1,0,-35.3,6.2,27.2,0.175420392,0.698171941,-0.151707511,0.677266762
73,187237,567630,0.981,0.036,-0.022,0,0.1,0,-35.3,6.2,27.2,0.175420392,0.698171941,-0.151707511,0.677266762
74,189395,567640,0.985,0.04,-0.018,0,0.1,0,-35.3,6.2,27.2,0.175420392,0.698171941,-0.151707511,0.677266762
75,192353,567640,0.985,0.04,-0.022,0,0,0,-37.1,5.9,27,0.175450911,0.698171941,-0.151707511,0.677266762
76,194159,567640,0.988,0.036,-0.018,0,0,0,-37.1,5.9,27,0.175450911,0.698171941,-0.151707511,0.677266762
77,197361,567640,0.988,0.036,-0.014,0,-0.1,0,-37.1,5.9,27,0.175450911,0.698171941,-0.151707511,0.677266762
78,200418,567650,0.985,0.04,-0.022,-0.1,-0.2,0,-37.1,5.9,27,0.175450911,0.698171941,-0.151707511,0.677266762
79,202095,567650,0.988,0.04,-0.022,-0.1,-0.2,0,-34.2,6,27.1,0.175450911,0.698171941,-0.151707511,0.677266762
80,204780,567650,0.992,0.036,-0.026,0,-0.1,-0.1,-34.2,6,27.1,0.175450911,0.698171941,-0.151707511,0.677266762
81,206785,567650,0.988,0.04,-0.018,0,0,0,-34.2,6,27.1,0.175450911,0.698171941,-0.151707511,0.677266762
82,210246,567660,0.985,0.036,-0.026,0.1,0,0,-34.2,6,27.1,0.175450911,0.698171941,-0.151707511,0.677266762
83,211734,567660,0.985,0.04,-0.014,0.1,0,0,-34.5,6,27.2,0.175450911,0.698171941,-0.151707511,0.677266762
84,214895,567660,0.985,0.04,-0.022,0.1,0,0,-34.5,6,27.2,0.175450911,0.698171941,-0.151707511,0.677266762
85,216684,567660,0.985,0.04,-0.022,0.1,0,0.2,-34.5,6,27.2,0.175420392,0.698171941,-0.151707511,0.677266762
86,220055,567670,0.985,0.036,-0.022,0,0,0.2,-34.5,6,27.2,0.175420392,0.698171941,-0.151707511,0.677266762
87,221683,567670,0.985,0.04,-0.022,0,0,0.1,-34.6,5.9,27,0.175420392,0.698171941,-0.151707511,0.677266762
88,224581,567670,0.985,0.036,-0.022,0,0,0,-34.6,5.9,27,0.175420392,0.698171941,-0.151707511,0.677266762
89,227604,567670,0.988,0.04,-0.018,0,0,0,-34.6,5.9,27,0.175420392,0.698171941,-0.151707511,0.677266762
90,229245,567680,0.981,0.036,-0.022,0,0,0,-34.6,5.9,27,0.175420392,0.698171941,-0.151707511,0.677266762
91,231723,567680,0.985,0.036,-0.018,0,0,0,-34.7,6.1,27.5,0.175420392,0.698171941,-0.151707511,0.677266762
92,235236,567680,0.985,0.04,-0.014,0,0.1,0.1,-34.7,6.1,27.5,0.175420392,0.698171941,-0.151707511,0.677266762
93,236652,567680,0.988,0.036,-0.018,0,0.1,0,-34.7,6.1,27.5,0.175420392,0.698171941,-0.151707511,0.677266762
94,239795,567690,0.988,0.04,-0.022,0,0,0,-34.7,6.1,27.5,0.175420392,0.698171941,-0.151707511,0.677266762
95,241877,567690,0.988,0.04,-0.026,0,0,0,-35.9,6,27.2,0.175420392,0.698171941,-0.151707511,0.677297281
96,244272,567690,0.988,0.04,-0.026,0,0,0,-35.9,6,27.2,0.175420392,0.698171941,-0.151707511,0.677297281
97,246700,567690,0.985,0.036,-0.022,0,0.1,0,-35.9,6,27.2,0.175420392,0.698171941,-0.151707511,0.677297281
98,249768,567700,0.985,0.036,-0.022,0.1,0.1,0.1,-35.9,6,27.2,0.175420392,0.698141423,-0.151707511,0.677297281
99,251617,567700,0.988,0.04,-0.026,0.1,0,0.2,-35.2,6,27.2,0.175420392,0.698141423,-0.151707511,0.677297281
100,254643,567700,0.985,0.036,-0.018,0,-0.1,0.1,-35.2,6,27.2,0.175420392,0.698141423,-0.151707511,0.677297281
101,256765,567700,0.981,0.036,-0.026,0,-0.1,0.1,-35.2,6,27.2,0.175420392,0.698171941,-0.151707511,0.677297281
102,259795,567710,0.985,0.036,-0.03,0,-0.1,0,-35.2,6,27.2,0.175420392,0.698171941,-0.151738029,0.677297281
103,262782,567710,0.981,0.036,-0.018,0,0,0,-35.5,5.9,26.8,0.175420392,0.698171941,-0.151738029,0.677297281
104,264445,567710,0.985,0.032,-0.018,0,-0.1,0,-35.5,5.9,26.8,0.175420392,0.698171941,-0.151738029,0.677297281
105,267251,567710,0.988,0.04,-0.022,0,-0.2,-0.1,-35.5,5.9,26.8,0.175420392,0.698171941,-0.151738029,0.677297281
106,269140,567720,0.985,0.04,-0.022,0,-0.2,0,-35.5,5.9,26.8,0.175420392,0.698171941,-0.151707511,0.677297281
107,271767,567720,0.988,0.04,-0.022,0,-0.1,0,-35.4,5.8,27.3,0.175420392,0.698171941,-0.151738029,0.677297281
108,274589,567720,0.988,0.036,-0.022,0,0,0.1,-35.4,5.8,27.3,0.175420392,0.698171941,-0.151738029,0.677297281
109,277662,567720,0.985,0.036,-0.018,0,-0.1,0.1,-35.4,5.8,27.3,0.175420392,0.698171941,-0.151738029,0.677266762
110,279387,567730,0.988,0.036,-0.014,0,-0.1,0,-35.4,5.8,27.3,0.175420392,0.698171941,-0.151738029,0.677266762
111,282551,567730,0.985,0.04,-0.022,0,0,0,-35.6,5.8,27.5,0.175420392,0.698171941,-0.151738029,0.677266762
112,284660,567730,0.988,0.036,-0.022,0,0,0,-35.6,5.8,27.5,0.175420392,0.698171941,-0.151738029,0.677266762
113,286854,567730,0.985,0.04,-0.018,0,0,0,-35.6,5.8,27.5,0.175420392,0.698171941,-0.151738029,0.677266762
114,289707,567740,0.988,0.032,-0.018,0,0.1,-0.1,-35.6,5.8,27.5,0.175420392,0.698171941,-0.151738029,0.677266762
115,291758,567740,0.985,0.04,-0.018,0.1,0,0,-35.6,6.1,26.6,0.175389874,0.698171941,-0.151738029,0.677297281
116,295219,567740,0.981,0.04,-0.022,0.1,0,0,-35.6,6.1,26.6,0.175389874,0.698171941,-0.151738029,0.677297281
117,297248,567740,0.985,0.036,-0.022,0,0,0,-35.6,6.1,26.6,0.175389874,0.698171941,-0.151738029,0.677297281
118,299114,567750,0.985,0.036,-0.018,0,0,0,-35.6,6.1,26.6,0.175389874,0.698171941,-0.151738029,0.677297281
119,301782,567750,0.985,0.04,-0.014,0,0,0,-35.8,5.8,27.9,0.175389874,0.698171941,-0.151738029,0.677297281
120,304648,567750,0.985,0.044,-0.018,0,0.1,0,-35.8,5.8,27.9,0.175389874,0.698171941,-0.151738029,0.677297281
121,307629,567750,0.988,0.036,-0.018,0.1,0.2,0,-35.8,5.8,27.9,0.175389874,0.698171941,-0.151738029,0.677297281
122,309424,567760,0.992,0.04,-0.022,0.1,0.1,0,-35.8,5.8,27.9,0.175389874,0.698171941,-0.151738029,0.677297281
123,312773,567760,0.985,0.04,-0.022,0.1,0,0,-35.5,5.9,28.2,0.175389874,0.698171941,-0.151738029,0.677297281
124,314356,567760,0.988,0.036,-0.018,0,-0.1,0,-35.5,5.9,28.2,0.175389874,0.698171941,-0.151738029,0.677297281
125,317270,567760,0.981,0.036,-0.022,0,-0.1,0,-35.5,5.9,28.2,0.175389874,0.698171941,-0.151738029,0.677297281
126,319200,567770,0.981,0.036,-0.022,0,-0.1,0,-35.5,5.9,28.2,0.175359355,0.698171941,-0.151738029,0.677297281
127,322416,567770,0.985,0.036,-0.026,0,0,0,-35.7,5.9,28.4,0.175359355,0.698171941,-0.151738029,0.677297281
128,325302,567770,0.985,0.04,-0.018,0,0,0,-35.7,5.9,28.4,0.175389874,0.698171941,-0.151738029,0.677297281
129,326879,567770,0.985,0.032,-0.022,0,0,-0.1,-35.7,5.9,28.4,0.175389874,0.698171941,-0.151738029,0.677297281
130,329886,567780,0.988,0.04,-0.022,0,0,0,-35.7,5.9,28.4,0.175389874,0.698171941,-0.151738029,0.677297281
131,332855,567780,0.985,0.04,-0.018,0,0,0,-35.5,5.9,28.6,0.175389874,0.698171941,-0.151738029,0.677297281
132,334386,567780,0.985,0.04,-0.018,0,0,0.2,-35.5,5.9,28.6,0.175359355,0.698171941,-0.151738029,0.677297281
133,338329,567780,0.988,0.04,-0.014,0,-0.1,0.2,-35.5,5.9,28.6,0.175359355,0.698171941,-0.151738029,0.677297281
134,339907,567790,0.985,0.036,-0.018,0,-0.1,0.1,-35.5,5.9,28.6,0.175359355,0.698171941,-0.151738029,0.677297281
135,341903,567790,0.985,0.036,-0.022,0,0,0,-35.5,6.1,25,0.175389874,0.698141423,-0.151707511,0.677297281
136,344268,567790,0.988,0.036,-0.026,0,0,0,-35.5,6.1,25,0.175389874,0.698141423,-0.151707511,0.677297281
137,346727,567790,0.988,0.04,-0.018,0,0,-0.1,-35.5,6.1,25,0.175389874,0.698141423,-0.151707511,0.677297281
138,349921,567800,0.985,0.036,-0.018,-0.1,0,0,-35.5,6.1,25,0.175389874,0.698141423,-0.151707511,0.677297281
139,352058,567800,0.988,0.04,-0.018,-0.1,0,0,-35.3,5.9,27.3,0.175389874,0.698141423,-0.151707511,0.677297281
140,354442,567800,0.985,0.04,-0.018,0,0,0,-35.3,5.9,27.3,0.175389874,0.698141423,-0.151707511,0.677297281
141,356706,567800,0.985,0.036,-0.018,0,0.1,0,-35.3,5.9,27.3,0.175389874,0.698141423,-0.151707511,0.677297281
142,361335,567810,0.985,0.036,-0.022,0,0.2,0,-35.3,5.9,27.3,0.175389874,0.698141423,-0.151707511,0.677327799
143,361751,567810,0.981,0.036,-0.018,0.1,0.2,0.1,-35.2,6,26.8,0.175389874,0.698141423,-0.151707511,0.677327799
144,364460,567810,0.985,0.036,-0.022,0.1,0.2,0.1,-35.2,6,26.8,0.175389874,0.698141423,-0.151707511,0.677327799
145,366754,567810,0.985,0.036,-0.022,0.1,0.2,0,-35.2,6,26.8,0.175389874,0.698141423,-0.151707511,0.677327799
146,370754,567820,0.985,0.036,-0.018,0,0.2,0.1,-35.2,6,26.8,0.175389874,0.698141423,-0.151707511,0.677327799
147,372983,567820,0.988,0.036,-0.018,0,0.1,0.1,-35.3,5.7,26,0.175389874,0.698141423,-0.151707511,0.677327799
148,375395,567820,0.992,0.04,-0.018,0,0,0,-35.3,5.7,26,0.175389874,0.698141423,-0.151707511,0.677327799
149,377503,567820,0.985,0.04,-0.014,0,-0.2,0,-35.3,5.7,26,0.175389874,0.698141423,-0.151707511,0.677327799
150,379761,567830,0.985,0.036,-0.022,0,-0.2,0,-35.3,5.7,26,0.175389874,0.698141423,-0.151707511,0.677327799
151,382203,567830,0.985,0.036,-0.018,0,-0.1,0,-35.5,6,25.5,0.175389874,0.698141423,-0.151738029,0.677327799
152,384483,567830,0.985,0.036,-0.018,0,-0.1,0.1,-35.5,6,25.5,0.175389874,0.698141423,-0.151738029,0.677327799
153,386658,567830,0.988,0.04,-0.026,0,-0.1,0,-35.5,6,25.5,0.175389874,0.698141423,-0.151738029,0.677327799
154,390488,567840,0.988,0.036,-0.022,0,0,0,-35.5,6,25.5,0.175389874,0.698141423,-0.151738029,0.677327799
155,392774,567840,0.988,0.036,-0.014,0,0.1,0.1,-35.7,6,26.8,0.175359355,0.698141423,-0.151738029,0.677327799
156,395233,567840,0.988,0.036,-0.014,0,0.1,0.1,-35.7,6,26.8,0.175359355,0.698141423,-0.151738029,0.677327799
157,397187,567840,0.985,0.04,-0.026,0,0,0,-35.7,6,26.8,0.175359355,0.698141423,-0.151738029,0.677327799
158,399602,567850,0.988,0.036,-0.018,0,0,0,-35.7,6,26.8,0.175359355,0.698141423,-0.151738029,0.677327799
159,401910,567850,0.985,0.036,-0.018,0,-0.1,0,-35.4,5.9,27.3,0.175359355,0.698141423,-0.151738029,0.677327799
160,404433,567850,0.988,0.036,-0.018,0,-0.1,-0.1,-35.4,5.9,27.3,0.175359355,0.698141423,-0.151738029,0.677327799
161,406901,567850,0.985,0.036,-0.022,0,-0.1,-0.1,-35.4,5.9,27.3,0.175359355,0.698141423,-0.151738029,0.677297281
162,409184,567860,0.985,0.04,-0.026,0,-0.1,-0.2,-35.4,5.9,27.3,0.175359355,0.698171941,-0.151738029,0.677297281
163,412302,567860,0.985,0.036,-0.022,0,0,-0.1,-35.5,5.4,27.1,0.175359355,0.698171941,-0.151738029,0.677297281
164,414828,567860,0.985,0.04,-0.022,0,0,-0.1,-35.5,5.4,27.1,0.175359355,0.698171941,-0.151738029,0.677297281
165,417576,567860,0.988,0.04,-0.018,0,0.1,-0.1,-35.5,5.4,27.1,0.175389874,0.698171941,-0.151738029,0.677297281
166,419437,567870,0.988,0.04,-0.018,0,0.1,0,-35.5,5.4,27.1,0.175389874,0.698141423,-0.151738029,0.677297281
167,421941,567870,0.988,0.036,-0.018,0,0.1,0,-35.6,5.9,26.9,0.175389874,0.698141423,-0.151738029,0.677297281
168,424260,567870,0.988,0.036,-0.018,0,0.1,0,-35.6,5.9,26.9,0.175389874,0.698141423,-0.151738029,0.677327799
169,427403,567870,0.985,0.036,-0.018,0,0.1,0.1,-35.6,5.9,26.9,0.175389874,0.698141423,-0.151738029,0.677327799
170,429291,567880,0.985,0.036,-0.014,0,0.2,0.2,-35.6,5.9,26.9,0.175389874,0.698141423,-0.151738029,0.677327799
171,431690,567880,0.985,0.036,-0.018,0,0.2,0.1,-35.7,5.3,27.2,0.175389874,0.698141423,-0.151738029,0.677327799
172,434180,567880,0.981,0.04,-0.018,0,0.2,0.2,-35.7,5.3,27.2,0.175359355,0.698141423,-0.151738029,0.677327799
173,436944,567880,0.985,0.036,-0.018,0,0.1,0.1,-35.7,5.3,27.2,0.175359355,0.698141423,-0.151738029,0.677327799
174,440128,567890,0.988,0.036,-0.014,0,0,0,-35.7,5.3,27.2,0.175359355,0.698141423,-0.151738029,0.677327799
175,442213,567890,0.988,0.04,-0.018,0,-0.1,0,-35.7,6.9,28.3,0.175359355,0.698110904,-0.151738029,0.677358318
176,444249,567890,0.988,0.04,-0.022,0,-0.1,0,-35.7,6.9,28.3,0.175359355,0.698110904,-0.151738029,0.677358318
177,447220,567890,0.985,0.04,-0.018,0.1,-0.1,0,-35.7,6.9,28.3,0.175359355,0.698110904,-0.151738029,0.677358318
178,450087,567900,0.988,0.036,-0.018,0.1,0,0,-35.7,6.9,28.3,0.175359355,0.698110904,-0.151738029,0.677358318
179,452039,567900,0.985,0.036,-0.022,0,0,0,-35.7,4.6,26,0.175359355,0.698110904,-0.151738029,0.677358318
180,454154,567900,0.985,0.04,-0.018,0,0.1,0,-35.7,4.6,26,0.175359355,0.698110904,-0.151738029,0.677358318
181,457556,567900,0.985,0.036,-0.022,0,0.2,0,-35.7,4.6,26,0.175359355,0.698110904,-0.151738029,0.677358318
182,460502,567910,0.985,0.04,-0.022,0,0.1,0,-35.7,4.6,26,0.175359355,0.698110904,-0.151738029,0.677358318
183,462875,567910,0.981,0.044,-0.018,-0.1,0,0,-35.5,4.6,26.4,0.175359355,0.698110904,-0.151738029,0.677358318
184,464460,567910,0.985,0.036,-0.022,0,0,0,-35.5,4.6,26.4,0.175359355,0.698110904,-0.151738029,0.677358318
185,466644,567910,0.985,0.04,-0.018,0,0,0,-35.5,4.6,26.4,0.175359355,0.698110904,-0.151738029,0.677358318
186,469315,567920,0.988,0.04,-0.022,0,0,0,-35.5,4.6,26.4,0.175359355,0.698110904,-0.151738029,0.677358318
187,472702,567920,0.985,0.036,-0.014,0,0,0,-35.7,3.9,26.2,0.175359355,0.698110904,-0.151738029,0.677358318
188,474973,567920,0.988,0.036,-0.018,0,0.1,0,-35.7,3.9,26.2,0.175359355,0.698110904,-0.151738029,0.677358318
189,477196,567920,0.988,0.036,-0.022,0,0.1,0,-35.7,3.9,26.2,0.175359355,0.698110904,-0.151738029,0.677358318
190,479500,567930,0.988,0.04,-0.022,0,0.1,0,-35.7,3.9,26.2,0.175359355,0.698080386,-0.151738029,0.677358318
191,481612,567930,0.988,0.04,-0.018,0,0.1,0,-35.2,4.4,26.2,0.175359355,0.698080386,-0.151738029,0.677358318
192,484456,567930,0.992,0.036,-0.018,0,0,-0.1,-35.2,4.4,26.2,0.175359355,0.698080386,-0.151738029,0.677388836
193,487574,567930,0.988,0.036,-0.018,0.1,0,-0.1,-35.2,4.4,26.2,0.175359355,0.698080386,-0.151738029,0.677388836
194,489224,567940,0.985,0.036,-0.018,0.1,0,-0.1,-35.2,4.4,26.2,0.175359355,0.698080386,-0.151738029,0.677388836
195,492137,567940,0.988,0.036,-0.018,0,0.1,0,-35.6,7.4,27.2,0.175359355,0.698080386,-0.151738029,0.677388836
196,494321,567940,0.985,0.036,-0.018,0,0.1,0,-35.6,7.4,27.2,0.175359355,0.698080386,-0.151738029,0.677388836
197,497582,567940,0.985,0.036,-0.018,0,0.1,0,-35.6,7.4,27.2,0.175359355,0.698080386,-0.151738029,0.677388836
198,499734,567950,0.981,0.04,-0.018,0,0.1,0,-35.6,7.4,27.2,0.175359355,0.698080386,-0.151738029,0.677388836
199,501895,567950,0.988,0.036,-0.014,0,0.1,0,-35.6,5.7,26.7,0.175359355,0.698049867,-0.151738029,0.677388836
200,504401,567950,0.985,0.04,-0.014,0.1,0.1,0,-35.6,5.7,26.7,0.175359355,0.698049867,-0.151738029,0.677388836
201,506959,567950,0.988,0.04,-0.018,0.1,0,0,-35.6,5.7,26.7,0.175359355,0.698049867,-0.151738029,0.677419355
202,510264,567960,0.988,0.04,-0.018,0,0,0,-35.6,5.7,26.7,0.175359355,0.698049867,-0.151738029,0.677419355
203,512471,567960,0.988,0.036,-0.018,0,-0.1,0,-35.8,5.9,26.8,0.175359355,0.698049867,-0.151738029,0.677388836
204,514983,567960,0.988,0.036,-0.018,0,-0.2,0,-35.8,5.9,26.8,0.175359355,0.698080386,-0.151738029,0.677388836
205,517326,567960,0.985,0.04,-0.026,0,-0.3,0,-35.8,5.9,26.8,0.175359355,0.698080386,-0.151738029,0.677388836
206,519436,567970,0.988,0.036,-0.022,0,-0.3,-0.1,-35.8,5.9,26.8,0.175359355,0.698080386,-0.151738029,0.677388836
207,521903,567970,0.985,0.036,-0.018,0,-0.3,-0.2,-35.6,7,26.9,0.175359355,0.698080386,-0.151738029,0.677388836
208,524180,567970,0.988,0.036,-0.018,0,-0.2,-0.2,-35.6,7,26.9,0.175359355,0.698080386,-0.151738029,0.677388836
209,527953,567970,0.988,0.036,-0.022,0,0,0,-35.6,7,26.9,0.175359355,0.698080386,-0.151738029,0.677388836
210,529793,567980,0.981,0.04,-0.018,0,0,0,-35.6,7,26.9,0.175359355,0.698080386,-0.151738029,0.677388836
211,531885,567980,0.988,0.044,-0.018,0,0,0,-35.3,7.3,27,0.175359355,0.698080386,-0.151738029,0.677388836
212,534543,567980,0.985,0.036,-0.018,0,0,0,-35.3,7.3,27,0.175359355,0.698080386,-0.151738029,0.677388836
213,537987,567980,0.985,0.04,-0.018,0,0,0,-35.3,7.3,27,0.175359355,0.698080386,-0.151738029,0.677358318
214,539790,567990,0.988,0.044,-0.018,0,0,0,-35.3,7.3,27,0.175359355,0.698080386,-0.151738029,0.677358318
215,542112,567990,0.988,0.04,-0.022,0,0.1,0,-35.5,5.6,27.1,0.175420392,0.698080386,-0.151707511,0.677388836
216,545255,567990,0.988,0.04,-0.022,0,0.1,0,-35.5,5.6,27.1,0.175420392,0.698080386,-0.151707511,0.677388836
217,547374,567990,0.985,0.04,-0.022,0,0.2,0,-35.5,5.6,27.1,0.175420392,0.698080386,-0.151707511,0.677388836
218,549599,568000,0.985,0.04,-0.018,0,0.1,0,-35.5,5.6,27.1,0.175420392,0.698080386,-0.151707511,0.677388836
219,552140,568000,0.988,0.036,-0.018,0,0.1,-0.1,-35.7,5.8,27.5,0.175420392,0.698080386,-0.151707511,0.677388836
220,554109,568000,0.988,0.036,-0.022,0,0,-0.1,-35.7,5.8,27.5,0.175420392,0.698080386,-0.151707511,0.677388836
221,557156,568000,0.988,0.036,-0.018,0.1,-0.1,0,-35.7,5.8,27.5,0.175420392,0.698080386,-0.151707511,0.677388836
222,559330,568010,0.988,0.044,-0.018,0,-0.1,0,-35.7,5.8,27.5,0.175420392,0.698080386,-0.151707511,0.677388836
223,562664,568010,0.988,0.044,-0.022,0.1,0,0,-35.8,6.2,26.9,0.175420392,0.698080386,-0.151676992,0.677388836
224,564276,568010,0.985,0.04,-0.022,0,0,0,-35.8,6.2,26.9,0.175420392,0.698080386,-0.151676992,0.677388836
225,566681,568010,0.985,0.032,-0.018,0,0,0,-35.8,6.2,26.9,0.175420392,0.698080386,-0.151676992,0.677388836
226,569645,568020,0.985,0.036,-0.018,0,0,0,-35.8,6.2,26.9,0.175420392,0.698080386,-0.151676992,0.677388836
227,571570,568020,0.985,0.04,-0.018,0,0,0,-36,6.1,27.2,0.175420392,0.698080386,-0.151676992,0.677388836
228,574795,568020,0.985,0.04,-0.018,0,0,0,-36,6.1,27.2,0.175420392,0.698080386,-0.151676992,0.677388836
229,576810,568020,0.985,0.036,-0.022,0,0.1,0,-36,6.1,27.2,0.175420392,0.698080386,-0.151707511,0.677388836
230,579636,568030,0.988,0.04,-0.018,0,0.1,0.2,-36,6.1,27.2,0.175420392,0.698080386,-0.151707511,0.677388836
231,581561,568030,0.981,0.04,-0.022,0,0.1,0.1,-36.7,6.4,26.9,0.175420392,0.698080386,-0.151707511,0.677388836
232,584136,568030,0.988,0.032,-0.014,0,0.1,0,-36.7,6.4,26.9,0.175420392,0.698080386,-0.151707511,0.677388836
233,587458,568030,0.985,0.04,-0.022,0,0,0,-36.7,6.4,26.9,0.175420392,0.698049867,-0.151707511,0.677388836
234,589503,568040,0.981,0.036,-0.018,0,0,0,-36.7,6.4,26.9,0.175420392,0.698049867,-0.151707511,0.677388836
235,592997,568040,0.985,0.04,-0.018,0,0,0,-35.1,4.6,27.1,0.175420392,0.698049867,-0.151707511,0.677419355
236,595230,568040,0.988,0.04,-0.018,0,0,0,-35.1,4.6,27.1,0.175420392,0.698049867,-0.151707511,0.677419355
237,597518,568040,0.985,0.04,-0.026,0,0.1,0,-35.1,4.6,27.1,0.175420392,0.698049867,-0.151707511,0.677419355
238,600042,568050,0.985,0.04,-0.014,0,0.1,0,-35.1,4.6,27.1,0.175420392,0.698049867,-0.151707511,0.677419355
239,601761,568050,0.992,0.036,-0.014,0,0,0,-37.1,7.6,27.4,0.175420392,0.698049867,-0.151707511,0.677419355
240,605879,568050,0.988,0.032,-0.018,0,0,0,-37.1,7.6,27.4,0.175420392,0.698049867,-0.151707511,0.677419355
241,606814,568050,0.985,0.036,-0.022,0,0,0,-37.1,7.6,27.4,0.175420392,0.698049867,-0.151707511,0.677419355
242,609391,568060,0.985,0.04,-0.018,0,0,0,-37.1,7.6,27.4,0.175420392,0.698049867,-0.151707511,0.677419355
243,613221,568060,0.981,0.04,-0.022,0,0,0,-37.2,7.3,27,0.175420392,0.698049867,-0.151707511,0.677419355
244,614100,568060,0.988,0.036,-0.018,0,0,0,-37.2,7.3,27,0.175420392,0.698049867,-0.151707511,0.677419355
245,616818,568060,0.985,0.036,-0.018,0,0.1,-0.1,-37.2,7.3,27,0.175420392,0.698049867,-0.151707511,0.677419355
246,619121,568070,0.985,0.04,-0.018,0.1,0.1,-0.1,-37.2,7.3,27,0.175420392,0.698049867,-0.151676992,0.677419355
247,622189,568070,0.988,0.044,-0.014,0.1,0,-0.1,-37.5,7.4,27.1,0.175420392,0.698049867,-0.151676992,0.677419355
248,624502,568070,0.985,0.036,-0.018,0.1,0,-0.1,-37.5,7.4,27.1,0.175420392,0.698049867,-0.151676992,0.677419355
249,626870,568070,0.985,0.04,-0.022,0,0,-0.1,-37.5,7.4,27.1,0.175420392,0.698049867,-0.151676992,0.677419355
250,629185,568080,0.985,0.04,-0.022,0,0,-0.1,-37.5,7.4,27.1,0.175420392,0.698049867,-0.151676992,0.677419355
251,631590,568080,0.985,0.036,-0.014,0,0.1,0,-37.5,7.6,27.1,0.175420392,0.698049867,-0.151676992,0.677419355
252,634534,568080,0.988,0.036,-0.022,0,0.1,0,-37.5,7.6,27.1,0.175420392,0.698049867,-0.151676992,0.677419355
253,636743,568080,0.985,0.036,-0.026,0,0.1,0,-37.5,7.6,27.1,0.175420392,0.698049867,-0.151676992,0.677419355
254,640099,568090,0.988,0.04,-0.018,0.1,0.1,0.1,-37.5,7.6,27.1,0.175420392,0.698049867,-0.151676992,0.677419355
255,642193,568090,0.985,0.036,-0.014,0,0.1,0,-34.9,5.7,27,0.175389874,0.698049867,-0.151676992,0.677419355
256,644313,568090,0.985,0.044,-0.018,0,0.1,0,-34.9,5.7,27,0.175389874,0.698049867,-0.151676992,0.677419355
257,648177,568090,0.985,0.032,-0.022,0,0,0,-34.9,5.7,27,0.175389874,0.698049867,-0.151676992,0.677419355
258,650157,568100,0.988,0.036,-0.018,0,0,0.2,-34.9,5.7,27,0.175389874,0.698049867,-0.151707511,0.677419355
259,651771,568100,0.985,0.04,-0.018,0,0,0.2,-36.4,5.9,27.1,0.175389874,0.698049867,-0.151707511,0.677419355
260,654165,568100,0.988,0.04,-0.022,0,0,0,-36.4,5.9,27.1,0.175389874,0.698049867,-0.151707511,0.677419355
261,656777,568100,0.985,0.036,-0.018,0,0,0,-36.4,5.9,27.1,0.175389874,0.698049867,-0.151707511,0.677419355
262,660002,568110,0.985,0.036,-0.022,0,0,-0.1,-36.4,5.9,27.1,0.175389874,0.698049867,-0.151707511,0.677419355
263,662308,568110,0.985,0.04,-0.022,0,0,-0.1,-35.7,6,27.1,0.175389874,0.698049867,-0.151707511,0.677419355
264,664433,568110,0.985,0.04,-0.022,0,-0.1,-0.1,-35.7,6,27.1,0.175389874,0.698049867,-0.151676992,0.677419355
265,666742,568110,0.985,0.036,-0.014,0,-0.1,0,-35.7,6,27.1,0.175389874,0.698049867,-0.151676992,0.677419355
266,669746,568120,0.985,0.036,-0.018,0,-0.1,0,-35.7,6,27.1,0.175389874,0.698049867,-0.151676992,0.677419355
267,672802,568120,0.988,0.036,-0.018,0,-0.1,0,-34.8,6.4,27.2,0.175389874,0.698049867,-0.151676992,0.677419355
268,674838,568120,0.985,0.036,-0.018,0,0,0,-34.8,6.4,27.2,0.175389874,0.698049867,-0.151676992,0.677419355
269,678007,568120,0.985,0.036,-0.018,0,0,0,-34.8,6.4,27.2,0.175389874,0.698049867,-0.151676992,0.677419355
270,679457,568130,0.985,0.04,-0.018,0,0,0,-34.8,6.4,27.2,0.175389874,0.698049867,-0.151676992,0.677419355
271,681686,568130,0.988,0.04,-0.018,0.1,0,0,-34.6,6,27.2,0.175389874,0.698049867,-0.151676992,0.677419355
272,685017,568130,0.985,0.04,-0.018,0.1,0,0,-34.6,6,27.2,0.175389874,0.698049867,-0.151676992,0.677419355
273,687210,568130,0.988,0.04,-0.022,0,0,-0.1,-34.6,6,27.2,0.175389874,0.698049867,-0.151676992,0.677419355
274,690460,568140,0.985,0.04,-0.018,0,0.1,-0.1,-34.6,6,27.2,0.175389874,0.698049867,-0.151676992,0.677419355
275,692604,568140,0.985,0.04,-0.022,0,0,0,-35.8,5.7,27,0.175420392,0.698049867,-0.151646474,0.677419355
276,694208,568140,0.985,0.04,-0.022,0,0,0,-35.8,5.7,27,0.175420392,0.698049867,-0.151646474,0.677419355
277,696913,568140,0.985,0.04,-0.018,0,-0.1,0,-35.8,5.7,27,0.175420392,0.698049867,-0.151646474,0.677419355
278,700970,568150,0.988,0.036,-0.026,0,-0.1,0,-35.8,5.7,27,0.175420392,0.698049867,-0.151646474,0.677419355
279,701689,568150,0.985,0.04,-0.022,0,-0.1,0,-35.5,6.3,26.7,0.175420392,0.698049867,-0.151676992,0.677419355
280,705460,568150,0.988,0.036,-0.022,0,-0.1,0,-35.5,6.3,26.7,0.175420392,0.698049867,-0.151676992,0.677419355
281,707601,568150,0.988,0.044,-0.018,-0.1,-0.1,0,-35.5,6.3,26.7,0.175420392,0.698049867,-0.151676992,0.677419355
282,709798,568160,0.988,0.036,-0.014,-0.1,0,0,-35.5,6.3,26.7,0.175420392,0.698049867,-0.151676992,0.677419355
283,712040,568160,0.985,0.036,-0.022,0,0,0,-35.4,5.8,27.2,0.175420392,0.698049867,-0.151676992,0.677419355
284,714243,568160,0.985,0.036,-0.018,0,0.1,0.1,-35.4,5.8,27.2,0.175420392,0.698049867,-0.151676992,0.677419355
285,716661,568160,0.988,0.036,-0.022,0,0.1,0.1,-35.4,5.8,27.2,0.175420392,0.698049867,-0.151676992,0.677419355
286,719419,568170,0.985,0.04,-0.014,0,0.1,0,-35.4,5.8,27.2,0.175420392,0.698049867,-0.151676992,0.677419355
287,721630,568170,0.985,0.036,-0.014,0,0.1,0,-35.6,6.2,27.1,0.175420392,0.698049867,-0.151676992,0.677419355
288,724302,568170,0.981,0.036,-0.022,0,0.1,0,-35.6,6.2,27.1,0.175420392,0.698049867,-0.151676992,0.677419355
289,728566,568170,0.985,0.04,-0.018,0,0.1,0,-35.6,6.2,27.1,0.175420392,0.698049867,-0.151676992,0.677419355
290,729574,568180,0.985,0.04,-0.018,0,0,0,-35.6,6.2,27.1,0.175420392,0.698049867,-0.151676992,0.677419355
291,731745,568180,0.992,0.036,-0.018,0,0,0,-35.6,5.8,27.1,0.175420392,0.698049867,-0.151676992,0.677419355
292,734571,568180,0.988,0.04,-0.018,0,0,0,-35.6,5.8,27.1,0.175420392,0.698049867,-0.151676992,0.677419355
293,736826,568180,0.989,0.044,-0.01,0,0.1,0,-35.6,5.8,27.1,0.175420392,0.698049867,-0.151676992,0.677419355
294,739678,568190,0.985,0.036,-0.022,0.1,0.1,0,-35.6,5.8,27.1,0.175420392,0.698049867,-0.151676992,0.677419355
295,741772,568190,0.985,0.04,-0.026,0,0,0.1,-37.2,6.1,27.2,0.175450911,0.698019349,-0.151676992,0.677449873
296,745528,568190,0.985,0.04,-0.014,0,0,0.1,-37.2,6.1,27.2,0.175450911,0.698019349,-0.151676992,0.677449873
297,747315,568190,0.981,0.036,-0.022,0,-0.1,0,-37.2,6.1,27.2,0.175450911,0.698019349,-0.151676992,0.677449873
298,749283,568200,0.985,0.036,-0.014,0,-0.1,0,-37.2,6.1,27.2,0.175450911,0.698019349,-0.151676992,0.677449873
299,751942,568200,0.985,0.036,-0.022,0,-0.1,0,-34.2,6.2,26.9,0.175450911,0.698019349,-0.151676992,0.677449873
300,754324,568200,0.988,0.04,-0.018,0,0,0,-34.2,6.2,26.9,0.175420392,0.698019349,-0.151676992,0.677449873
301,757368,568200,0.988,0.036,-0.022,0.1,0,0,-34.2,6.2,26.9,0.175420392,0.698019349,-0.151676992,0.677449873
302,759621,568210,0.985,0.032,-0.022,0.1,0,-0.1,-34.2,6.2,26.9,0.175420392,0.698019349,-0.151676992,0.677449873
303,761869,568210,0.988,0.04,-0.022,0,0.1,-0.1,-34.3,5.7,26.6,0.175420392,0.698019349,-0.151676992,0.677449873
304,764473,568210,0.981,0.036,-0.018,0,0.1,0,-34.3,5.7,26.6,0.175420392,0.698019349,-0.151646474,0.677449873
305,766779,568210,0.988,0.04,-0.014,0,0,0,-34.3,5.7,26.6,0.175420392,0.698019349,-0.151676992,0.677449873
306,769103,568220,0.988,0.04,-0.014,0,-0.1,0,-34.3,5.7,26.6,0.175420392,0.698019349,-0.151676992,0.677449873
307,772368,568220,0.985,0.044,-0.01,0,-0.1,0,-33.9,5.9,27,0.175420392,0.698019349,-0.151646474,0.677449873
308,774672,568220,0.985,0.04,-0.014,0,-0.1,0,-33.9,5.9,27,0.175420392,0.698019349,-0.151646474,0.677449873
309,776864,568220,0.988,0.04,-0.014,0,-0.1,0,-33.9,5.9,27,0.175420392,0.698049867,-0.151646474,0.677419355
310,779094,568230,0.985,0.04,-0.022,0,-0.1,0,-33.9,5.9,27,0.175420392,0.698049867,-0.151646474,0.677419355
311,781674,568230,0.985,0.04,-0.022,0,0,0,-34.3,5.8,27,0.175420392,0.698049867,-0.151676992,0.677419355
312,785852,568230,0.985,0.032,-0.022,0,0,0,-34.3,5.8,27,0.175420392,0.698049867,-0.151676992,0.677419355
313,787338,568230,0.981,0.036,-0.022,0,0,0,-34.3,5.8,27,0.175420392,0.698049867,-0.151676992,0.677419355
314,789625,568240,0.981,0.036,-0.022,0.1,0,0,-34.3,5.8,27,0.175420392,0.698049867,-0.151646474,0.677419355
315,791841,568240,0.988,0.036,-0.022,0.1,0,-0.1,-35.9,6.1,27.3,0.175420392,0.698049867,-0.151676992,0.677419355
316,794284,568240,0.988,0.04,-0.022,0,0,-0.1,-35.9,6.1,27.3,0.175420392,0.698049867,-0.151676992,0.677419355
317,797023,568240,0.985,0.04,-0.014,0,0.1,-0.1,-35.9,6.1,27.3,0.175420392,0.698049867,-0.151676992,0.677419355
318,799802,568250,0.988,0.04,-0.018,0,0.1,0,-35.9,6.1,27.3,0.175420392,0.698049867,-0.151676992,0.677419355
319,802872,568250,0.988,0.036,-0.014,0,0.1,0,-35.6,6,27.5,0.175420392,0.698049867,-0.151676992,0.677419355
320,804285,568250,0.988,0.036,-0.022,0,0.1,0,-35.6,6,27.5,0.175420392,0.698049867,-0.151676992,0.677419355
321,807086,568250,0.988,0.036,-0.018,0,0.2,-0.1,-35.6,6,27.5,0.175420392,0.698049867,-0.151676992,0.677419355
322,809326,568260,0.985,0.036,-0.022,0.1,0.2,0,-35.6,6,27.5,0.175420392,0.698049867,-0.151676992,0.677419355
323,811683,568260,0.985,0.04,-0.018,0.1,0.2,0,-35.2,5.9,27.1,0.175420392,0.698049867,-0.151676992,0.677419355
324,814578,568260,0.985,0.036,-0.022,0,0.1,0,-35.2,5.9,27.1,0.175420392,0.698049867,-0.151646474,0.677419355
325,818316,568260,0.985,0.036,-0.022,0.1,0,-0.1,-35.2,5.9,27.1,0.175420392,0.698049867,-0.151646474,0.677419355
326,819863,568270,0.985,0.04,-0.022,0.1,-0.1,-0.2,-35.2,5.9,27.1,0.175420392,0.698049867,-0.151646474,0.677419355
327,822065,568270,0.988,0.036,-0.018,0.1,0,-0.1,-35.3,6,26.9,0.175420392,0.698049867,-0.151646474,0.677419355
328,825853,568270,0.985,0.04,-0.022,0.1,0.1,0,-35.3,6,26.9,0.175420392,0.698049867,-0.151646474,0.677419355
329,827210,568270,0.985,0.036,-0.014,0,0.2,0.1,-35.3,6,26.9,0.175420392,0.698049867,-0.151646474,0.677449873
330,830184,568280,0.988,0.04,-0.018,0,0.1,0.2,-35.3,6,26.9,0.175420392,0.698049867,-0.151646474,0.677449873
331,831678,568280,0.988,0.04,-0.018,-0.1,0,0,-35.1,6.2,27.8,0.175420392,0.698049867,-0.151646474,0.677449873
332,834613,568280,0.988,0.036,-0.018,0,0,0,-35.1,6.2,27.8,0.175420392,0.698049867,-0.151646474,0.677449873
333,837884,568280,0.988,0.036,-0.022,0,0,-0.1,-35.1,6.2,27.8,0.175420392,0.698049867,-0.151646474,0.677449873
334,839828,568290,0.988,0.036,-0.014,0,0,-0.1,-35.1,6.2,27.8,0.175420392,0.698049867,-0.151646474,0.677449873
335,842922,568290,0.992,0.04,-0.018,0.1,0,0,-35.6,6,26.7,0.175420392,0.698019349,-0.151646474,0.677449873
336,845175,568290,0.992,0.04,-0.018,0.1,0,0,-35.6,6,26.7,0.175420392,0.698019349,-0.151646474,0.677449873
337,846786,568290,0.985,0.036,-0.022,0,0,0,-35.6,6,26.7,0.175420392,0.698019349,-0.151646474,0.677449873
338,849345,568300,0.981,0.036,-0.022,0,0,0,-35.6,6,26.7,0.175420392,0.698019349,-0.151646474,0.677449873
339,852215,568300,0.985,0.04,-0.018,0,0,0,-36,5.8,27.7,0.175420392,0.698019349,-0.151646474,0.677449873
340,854614,568300,0.985,0.036,-0.018,0,0,0,-36,5.8,27.7,0.175420392,0.698019349,-0.151646474,0.677449873
341,856750,568300,0.985,0.036,-0.018,0,0,-0.2,-36,5.8,27.7,0.175420392,0.698019349,-0.151646474,0.677449873
342,859848,568310,0.985,0.036,-0.022,0,0,-0.2,-36,5.8,27.7,0.175420392,0.698049867,-0.151646474,0.677449873
343,862140,568310,0.985,0.04,-0.018,0.1,0,-0.1,-35.7,6,28.2,0.175420392,0.698049867,-0.151646474,0.677449873
344,864394,568310,0.985,0.04,-0.022,0,0,0,-35.7,6,28.2,0.175420392,0.698049867,-0.151646474,0.677449873
345,866697,568310,0.988,0.036,-0.018,0,0,0,-35.7,6,28.2,0.175420392,0.698049867,-0.151646474,0.677449873
346,869142,568320,0.988,0.036,-0.022,0,0,0,-35.7,6,28.2,0.175420392,0.698049867,-0.151646474,0.677449873
347,873483,568320,0.988,0.032,-0.022,0,0,0,-36.1,6.1,28.5,0.175420392,0.698049867,-0.151646474,0.677449873
348,875619,568320,0.985,0.04,-0.022,0,0,0,-36.1,6.1,28.5,0.175420392,0.698049867,-0.151646474,0.677449873
349,877838,568320,0.985,0.04,-0.026,0,0,0,-36.1,6.1,28.5,0.175420392,0.698049867,-0.151646474,0.677449873
350,879327,568330,0.985,0.036,-0.022,0,0,0,-36.1,6.1,28.5,0.175420392,0.698049867,-0.151646474,0.677449873
351,882587,568330,0.985,0.04,-0.022,0,0,0,-35.8,5.9,28.6,0.175420392,0.698019349,-0.151646474,0.677449873
352,884260,568330,0.988,0.04,-0.018,0,0,0,-35.8,5.9,28.6,0.175420392,0.698019349,-0.151646474,0.677449873
353,887208,568330,0.988,0.04,-0.018,0,0,0,-35.8,5.9,28.6,0.175420392,0.698019349,-0.151646474,0.677449873
354,889295,568340,0.985,0.036,-0.018,0,0,0,-35.8,5.9,28.6,0.175420392,0.698019349,-0.151646474,0.677449873
355,893383,568340,0.985,0.032,-0.018,0,-0.1,0,-35.7,6,25.2,0.175420392,0.698019349,-0.151646474,0.677449873
356,894049,568340,0.985,0.036,-0.014,0,-0.1,0,-35.7,6,25.2,0.175420392,0.698019349,-0.151646474,0.677449873
357,897051,568340,0.981,0.04,-0.018,0,-0.1,0,-35.7,6,25.2,0.175420392,0.698049867,-0.151646474,0.677449873
358,899314,568350,0.985,0.036,-0.018,0,0,0,-35.7,6,25.2,0.175420392,0.698049867,-0.151646474,0.677449873
359,902002,568350,0.985,0.04,-0.018,0,0.1,0,-35.5,6,27,0.175420392,0.698019349,-0.151646474,0.677449873
360,904161,568350,0.988,0.036,-0.022,0,0.1,0,-35.5,6,27,0.175420392,0.698019349,-0.151646474,0.677449873
361,908419,568350,0.988,0.036,-0.022,0,0.1,0,-35.5,6,27,0.175420392,0.698019349,-0.151646474,0.677449873
362,909069,568360,0.988,0.036,-0.018,0,0,0,-35.5,6,27,0.175420392,0.698019349,-0.151646474,0.677449873
363,912836,568360,0.988,0.036,-0.022,0,0,0,-35.7,5.8,26.6,0.175420392,0.698019349,-0.151646474,0.677449873
364,914927,568360,0.985,0.04,-0.022,0,0,0.1,-35.7,5.8,26.6,0.175420392,0.698019349,-0.151646474,0.677449873
365,917113,568360,0.981,0.036,-0.022,0,0,0.1,-35.7,5.8,26.6,0.175420392,0.698019349,-0.151646474,0.677449873
366,919427,568370,0.985,0.036,-0.022,0,0,0,-35.7,5.8,26.6,0.175420392,0.698019349,-0.151646474,0.677449873
367,921603,568370,0.985,0.04,-0.026,0,-0.1,0,-35.4,6.2,26,0.175420392,0.698019349,-0.151646474,0.677449873
368,924173,568370,0.988,0.04,-0.022,0,0,0,-35.4,6.2,26,0.175420392,0.698019349,-0.151646474,0.677449873
369,926631,568370,0.988,0.04,-0.014,0,-0.1,0,-35.4,6.2,26,0.175420392,0.698049867,-0.151646474,0.677449873
370,929873,568380,0.981,0.033,-0.018,0,-0.1,0,-35.4,6.2,26,0.175420392,0.698049867,-0.151646474,0.677449873
371,932012,568380,0.985,0.036,-0.018,0,-0.1,0,-35.7,6,25.8,0.175420392,0.698049867,-0.151646474,0.677419355
372,934341,568380,0.988,0.036,-0.018,0,-0.1,0,-35.7,6,25.8,0.175420392,0.698049867,-0.151646474,0.677419355
373,936622,568380,0.985,0.04,-0.022,0,-0.1,0,-35.7,6,25.8,0.175420392,0.698049867,-0.151646474,0.677419355
374,939234,568390,0.988,0.04,-0.022,0,-0.1,0,-35.7,6,25.8,0.175420392,0.698049867,-0.151646474,0.677419355
375,943424,568390,0.988,0.044,-0.026,0,0,0,-35.7,5.8,27.2,0.175420392,0.698049867,-0.151646474,0.677419355
376,945622,568390,0.988,0.04,-0.018,0.1,0,0,-35.7,5.8,27.2,0.175420392,0.698049867,-0.151646474,0.677419355
377,947837,568390,0.985,0.04,-0.018,0.1,0,0,-35.7,5.8,27.2,0.175420392,0.698049867,-0.151646474,0.677419355
378,950107,568400,0.981,0.04,-0.018,0,0.1,0,-35.7,5.8,27.2,0.175420392,0.698049867,-0.151646474,0.677419355
379,952384,568400,0.988,0.044,-0.018,0.1,0,0,-35.8,6.3,27,0.175420392,0.698049867,-0.151646474,0.677419355
380,954664,568400,0.985,0.036,-0.018,0.1,0,-0.1,-35.8,6.3,27,0.175420392,0.698049867,-0.151646474,0.677419355
381,956820,568400,0.985,0.04,-0.018,0.1,0,-0.1,-35.8,6.3,27,0.175420392,0.698049867,-0.151646474,0.677419355
382,959129,568410,0.985,0.032,-0.022,0,0,-0.1,-35.8,6.3,27,0.175420392,0.698049867,-0.151646474,0.677419355
383,962927,568410,0.985,0.036,-0.022,0,0,0,-35.7,6.2,26.7,0.175420392,0.698049867,-0.151646474,0.677419355
384,965190,568410,0.985,0.036,-0.018,0,0.1,0,-35.7,6.2,26.7,0.175420392,0.698049867,-0.151646474,0.677419355
385,967388,568410,0.988,0.036,-0.022,0,0,0,-35.7,6.2,26.7,0.175420392,0.698049867,-0.151646474,0.677419355
386,969637,568420,0.988,0.036,-0.022,0,-0.1,0,-35.7,6.2,26.7,0.175420392,0.698049867,-0.151646474,0.677419355
387,971888,568420,0.992,0.04,-0.022,0,-0.3,0,-35.6,6,26.7,0.175420392,0.698049867,-0.151646474,0.677419355
388,974385,568420,0.992,0.04,-0.018,0,-0.3,0,-35.6,6,26.7,0.175420392,0.698049867,-0.151646474,0.677419355
389,976684,568420,0.985,0.044,-0.018,0,-0.3,0,-35.6,6,26.7,0.175420392,0.698080386,-0.151646474,0.677419355
390,980907,568430,0.985,0.04,-0.022,0,-0.2,0,-35.6,6,26.7,0.175420392,0.698080386,-0.151646474,0.677388836
391,983041,568430,0.985,0.04,-0.014,0,-0.2,0,-35.5,5.7,27,0.175420392,0.698080386,-0.151646474,0.677388836
392,985381,568430,0.985,0.04,-0.03,-0.1,-0.1,0,-35.5,5.7,27,0.175420392,0.698080386,-0.151646474,0.677388836
393,987520,568430,0.985,0.036,-0.018,-0.1,0,0,-35.5,5.7,27,0.175420392,0.698080386,-0.151646474,0.677388836
394,989769,568440,0.985,0.036,-0.022,-0.1,0,0,-35.5,5.7,27,0.175420392,0.698080386,-0.151646474,0.677388836
395,992057,568440,0.985,0.036,-0.018,-0.1,0,0,-35.7,7.1,28.2,0.175420392,0.698080386,-0.151646474,0.677388836
396,994378,568440,0.985,0.036,-0.018,0,0,-0.1,-35.7,7.1,28.2,0.175450911,0.698080386,-0.151646474,0.677388836
397,996613,568440,0.985,0.036,-0.018,0,0,0,-35.7,7.1,28.2,0.175450911,0.698080386,-0.151646474,0.677388836
398,999181,568450,0.988,0.044,-0.018,0,0,0,-35.7,7.1,28.2,0.175450911,0.698080386,-0.151646474,0.677388836
399,1001603,568450,0.988,0.04,-0.018,0.1,0,0,-36,4.8,25.9,0.175450911,0.698080386,-0.151646474,0.677388836
400,1004879,568450,0.988,0.04,-0.018,0,-0.1,0,-36,4.8,25.9,0.175450911,0.698080386,-0.151646474,0.677388836
401,1006995,568450,0.985,0.032,-0.026,0,-0.1,0,-36,4.8,25.9,0.175450911,0.698080386,-0.151646474,0.677388836
402,1009380,568460,0.985,0.04,-0.022,-0.1,-0.1,0,-36,4.8,25.9,0.175450911,0.698110904,-0.151646474,0.677358318
403,1011696,568460,0.985,0.04,-0.022,-0.1,0,0,-35.9,4.1,25.7,0.175450911,0.698080386,-0.151646474,0.677358318
404,1014301,568460,0.988,0.04,-0.022,-0.1,0.1,0,-35.9,4.1,25.7,0.175450911,0.698080386,-0.151646474,0.677388836
405,1017347,568460,0.988,0.04,-0.022,0,0.2,0,-35.9,4.1,25.7,0.175450911,0.698080386,-0.151646474,0.677388836
406,1019658,568470,0.988,0.04,-0.014,0,0.2,0.1,-35.9,4.1,25.7,0.175450911,0.698080386,-0.151646474,0.677388836
407,1021792,568470,0.988,0.04,-0.022,0,0.2,0.1,-35.9,4.1,26.1,0.175450911,0.698080386,-0.151646474,0.677388836
408,1024166,568470,0.981,0.036,-0.018,0,0.1,0.1,-35.9,4.1,26.1,0.175450911,0.698080386,-0.151646474,0.677388836
409,1028103,568470,0.981,0.036,-0.022,0,0,0,-35.9,4.1,26.1,0.175450911,0.698080386,-0.151646474,0.677388836
410,1030407,568480,0.988,0.04,-0.018,0,0,0,-35.9,4.1,26.1,0.175450911,0.698080386,-0.151646474,0.677388836
411,1032650,568480,0.985,0.036,-0.022,0,0,0,-35.8,4.1,25.9,0.175450911,0.698080386,-0.151646474,0.677388836
412,1034862,568480,0.985,0.036,-0.018,0,0,0,-35.8,4.1,25.9,0.175450911,0.698080386,-0.151646474,0.677388836
413,1037177,568480,0.992,0.036,-0.018,0,-0.1,0,-35.8,4.1,25.9,0.175450911,0.698080386,-0.151646474,0.677388836
414,1039390,568490,0.985,0.04,-0.014,0,-0.1,0,-35.8,4.1,25.9,0.175450911,0.698080386,-0.151646474,0.677388836
415,1041635,568490,0.985,0.036,-0.022,-0.1,-0.2,0,-35.3,7.3,27.2,0.175450911,0.698080386,-0.151676992,0.677388836
416,1044162,568490,0.985,0.036,-0.022,-0.1,-0.2,0,-35.3,7.3,27.2,0.175450911,0.698080386,-0.151676992,0.677388836
417,1047190,568490,0.988,0.036,-0.014,-0.1,-0.2,0,-35.3,7.3,27.2,0.175450911,0.698080386,-0.151676992,0.677388836
418,1049410,568500,0.985,0.044,-0.018,-0.1,-0.1,0,-35.3,7.3,27.2,0.175450911,0.698080386,-0.151676992,0.677388836
419,1051674,568500,0.988,0.036,-0.022,0,-0.1,0,-35.6,6.3,26.7,0.175450911,0.698080386,-0.151676992,0.677388836
420,1054235,568500,0.988,0.04,-0.022,0,0,0,-35.6,6.3,26.7,0.175450911,0.698080386,-0.151676992,0.677388836
421,1057603,568500,0.985,0.036,-0.018,0.1,0.1,0,-35.6,6.3,26.7,0.175450911,0.698080386,-0.151676992,0.677388836
422,1059946,568510,0.988,0.04,-0.022,0.1,0,0,-35.6,6.3,26.7,0.175450911,0.698080386,-0.151676992,0.677388836
423,1062150,568510,0.988,0.036,-0.018,0,0,0,-35.7,6.8,26.7,0.175420392,0.698080386,-0.151676992,0.677388836
424,1064506,568510,0.985,0.036,-0.018,0,0,0,-35.7,6.8,26.7,0.175420392,0.698080386,-0.151676992,0.677388836
425,1066702,568510,0.988,0.04,-0.018,0,0,-0.1,-35.7,6.8,26.7,0.175450911,0.698080386,-0.151676992,0.677388836
426,1069981,568520,0.985,0.036,-0.018,0,0.1,-0.2,-35.7,6.8,26.7,0.175450911,0.698080386,-0.151676992,0.677388836
427,1072221,568520,0.985,0.036,-0.022,0,0.1,0,-35.6,6.9,26.6,0.175450911,0.698080386,-0.151676992,0.677388836
428,1074463,568520,0.985,0.04,-0.03,0,0,0,-35.6,6.9,26.6,0.175450911,0.698080386,-0.151676992,0.677388836
429,1076769,568520,0.988,0.04,-0.018,0,-0.1,0,-35.6,6.9,26.6,0.175450911,0.698080386,-0.151676992,0.677388836
430,1079893,568530,0.985,0.036,-0.026,0,-0.1,0,-35.6,6.9,26.6,0.175450911,0.698080386,-0.151646474,0.677388836
431,1081994,568530,0.988,0.036,-0.014,0,0,0,-35.3,7.4,26.7,0.175450911,0.698080386,-0.151646474,0.677388836
432,1085186,568530,0.985,0.04,-0.022,0,0,0,-35.3,7.4,26.7,0.175450911,0.698080386,-0.151676992,0.677388836
433,1087129,568530,0.985,0.04,-0.022,0,0.1,0.1,-35.3,7.4,26.7,0.175450911,0.698080386,-0.151676992,0.677388836
434,1089381,568540,0.988,0.04,-0.022,-0.1,0.1,0,-35.3,7.4,26.7,0.175450911,0.698080386,-0.151676992,0.677388836
435,1091715,568540,0.988,0.036,-0.018,0,0.1,0,-35.5,5.6,27.3,0.175450911,0.698080386,-0.151646474,0.677388836
436,1094088,568540,0.985,0.036,-0.022,0,0.1,0,-35.5,5.6,27.3,0.175450911,0.698080386,-0.151646474,0.677388836
437,1096645,568540,0.988,0.04,-0.018,0,0,0,-35.5,5.6,27.3,0.175450911,0.698080386,-0.151646474,0.677388836
438,1099532,568550,0.985,0.04,-0.018,0,0,0.1,-35.5,5.6,27.3,0.175450911,0.698080386,-0.151646474,0.677388836
439,1102474,568550,0.985,0.036,-0.018,0,0,0,-35.7,6.2,26.9,0.175450911,0.698080386,-0.151646474,0.677388836
440,1104083,568550,0.988,0.044,-0.026,0,0,0,-35.7,6.2,26.9,0.175450911,0.698080386,-0.151646474,0.677388836
441,1106924,568550,0.988,0.04,-0.026,0,0.1,0,-35.7,6.2,26.9,0.175450911,0.698080386,-0.151646474,0.677388836
442,1109587,568560,0.985,0.036,-0.026,0,0.1,0,-35.7,6.2,26.9,0.175450911,0.698080386,-0.151646474,0.677388836
443,1112592,568560,0.985,0.04,-0.026,0,0.1,0,-36.2,6.4,26.8,0.175450911,0.698080386,-0.151646474,0.677388836
444,1114905,568560,0.985,0.04,-0.018,0,0,0,-36.2,6.4,26.8,0.175450911,0.698080386,-0.151646474,0.677388836
445,1117156,568560,0.988,0.036,-0.022,-0.1,0,0,-36.2,6.4,26.8,0.175450911,0.698080386,-0.151676992,0.677388836
446,1119302,568570,0.988,0.04,-0.022,-0.1,-0.1,0,-36.2,6.4,26.8,0.175450911,0.698080386,-0.151676992,0.677388836
447,1121793,568570,0.988,0.036,-0.018,-0.1,-0.1,0,-36.4,6.3,27,0.175450911,0.698080386,-0.151676992,0.677388836
448,1124803,568570,0.988,0.04,-0.022,0,0,0,-36.4,6.3,27,0.175450911,0.698080386,-0.151676992,0.677388836
449,1127574,568570,0.985,0.04,-0.018,0,0.1,0,-36.4,6.3,27,0.175450911,0.698080386,-0.151676992,0.677388836
450,1129324,568580,0.985,0.036,-0.018,0,0.1,0,-36.4,6.3,27,0.175450911,0.698080386,-0.151676992,0.677388836
451,1133093,568580,0.985,0.036,-0.022,0,0,0,-37.3,6,27.2,0.175450911,0.698080386,-0.151676992,0.677388836
452,1134485,568580,0.985,0.036,-0.018,0,0,0,-37.3,6,27.2,0.175450911,0.698080386,-0.151676992,0.677388836
453,1137238,568580,0.985,0.036,-0.022,0.1,-0.1,0,-37.3,6,27.2,0.175450911,0.698080386,-0.151676992,0.677388836
454,1139438,568590,0.985,0.036,-0.026,0,-0.1,0,-37.3,6,27.2,0.175450911,0.698080386,-0.151676992,0.677388836
455,1141649,568590,0.985,0.036,-0.026,0,0,0,-37.3,6,27.2,0.175420392,0.698080386,-0.151707511,0.677358318
456,1144047,568590,0.985,0.036,-0.026,0,0.1,0,-37.3,6,27.2,0.175420392,0.698080386,-0.151676992,0.677358318
457,1146611,568590,0.985,0.032,-0.022,0,0.1,0,-37.3,6,27.2,0.175420392,0.698080386,-0.151676992,0.677358318
458,1149320,568600,0.988,0.04,-0.018,0,0.1,0,-37.3,6,27.2,0.175420392,0.698080386,-0.151676992,0.677358318
459,1152079,568600,0.988,0.036,-0.022,0,0,0,-37.1,7.1,27.2,0.175420392,0.698080386,-0.151676992,0.677358318
460,1155080,568600,0.988,0.036,-0.018,0,-0.1,0,-37.1,7.1,27.2,0.175420392,0.698080386,-0.151676992,0.677358318
461,1156711,568600,0.988,0.04,-0.018,0,-0.1,0,-37.1,7.1,27.2,0.175420392,0.698080386,-0.151676992,0.677358318
462,1159168,568610,0.988,0.036,-0.014,0,-0.1,0,-37.1,7.1,27.2,0.175420392,0.698110904,-0.151707511,0.677358318
463,1162362,568610,0.985,0.036,-0.026,0,0,0,-37.1,7.3,27,0.175420392,0.698110904,-0.151707511,0.677358318
464,1164737,568610,0.985,0.04,-0.022,0,0.1,0,-37.1,7.3,27,0.175420392,0.698080386,-0.151676992,0.677358318
465,1166869,568610,0.985,0.036,-0.022,0.1,0.2,0,-37.1,7.3,27,0.175420392,0.698080386,-0.151676992,0.677358318
466,1169595,568620,0.988,0.036,-0.026,0.1,0.2,0,-37.1,7.3,27,0.175420392,0.698080386,-0.151676992,0.677388836
467,1172606,568620,0.985,0.036,-0.018,0.1,0.2,0.1,-37.2,7.2,27.5,0.175420392,0.698080386,-0.151676992,0.677388836
468,1174226,568620,0.988,0.04,-0.018,0.1,0.2,0.1,-37.2,7.2,27.5,0.175420392,0.698080386,-0.151676992,0.677388836
469,1176569,568620,0.992,0.032,-0.022,0,0.2,0,-37.2,7.2,27.5,0.175420392,0.698080386,-0.151676992,0.677388836
470,1180115,568630,0.985,0.036,-0.022,0,0.1,0,-37.2,7.2,27.5,0.175420392,0.698080386,-0.151676992,0.677388836
471,1181595,568630,0.988,0.036,-0.022,0,0,0,-37,7.2,27.2,0.175420392,0.698080386,-0.151676992,0.677388836
472,1184390,568630,0.985,0.04,-0.022,0,-0.1,0,-37,7.2,27.2,0.175420392,0.698080386,-0.151676992,0.677388836
473,1187363,568630,0.985,0.036,-0.026,0,-0.1,0,-37,7.2,27.2,0.175420392,0.698080386,-0.151676992,0.677388836
474,1189602,568640,0.985,0.036,-0.018,0.1,0,0,-37,7.2,27.2,0.175420392,0.698080386,-0.151676992,0.677388836
475,1192608,568640,0.988,0.036,-0.022,0.1,0,0,-37,7.2,27.2,0.175389874,0.698110904,-0.151707511,0.677358318
476,1194110,568640,0.988,0.04,-0.022,0.1,0,0,-37,7.2,27.2,0.175389874,0.698110904,-0.151707511,0.677358318
477,1197219,568640,0.988,0.04,-0.022,0.1,0.1,-0.1,-37,7.2,27.2,0.175389874,0.698110904,-0.151676992,0.677358318
478,1199072,568650,0.988,0.036,-0.018,0.1,0.1,0,-37,7.2,27.2,0.175389874,0.698110904,-0.151676992,0.677358318
479,1201621,568650,0.985,0.044,-0.022,0,0.2,0,-35.7,5.7,27.3,0.175389874,0.698080386,-0.151676992,0.677388836
480,1204380,568650,0.985,0.036,-0.018,0,0.3,0,-35.7,5.7,27.3,0.175389874,0.698080386,-0.151676992,0.677388836
481,1207440,568650,0.988,0.04,-0.022,0,0.2,0,-35.7,5.7,27.3,0.175389874,0.698080386,-0.151676992,0.677388836
482,1209209,568660,0.988,0.036,-0.014,0,0.1,0,-35.7,5.7,27.3,0.175420392,0.698080386,-0.151676992,0.677388836
483,1212042,568660,0.988,0.036,-0.022,0,0.1,0,-35.5,6.1,26.8,0.175420392,0.698080386,-0.151676992,0.677388836
484,1215000,568660,0.988,0.04,-0.018,0.1,0.1,0,-35.5,6.1,26.8,0.175389874,0.698080386,-0.151676992,0.677388836
485,1218470,568660,0.985,0.036,-0.018,0.1,0,0,-35.5,6.1,26.8,0.175389874,0.698080386,-0.151676992,0.677388836
486,1219907,568670,0.985,0.036,-0.018,0,0,0,-35.5,6.1,26.8,0.175389874,0.698080386,-0.151676992,0.677388836
487,1222937,568670,0.988,0.04,-0.018,0,0,0,-35,6.4,27,0.175389874,0.698080386,-0.151676992,0.677388836
488,1224465,568670,0.985,0.04,-0.018,0,0,0,-35,6.4,27,0.175389874,0.698080386,-0.151676992,0.677388836
489,1227224,568670,0.985,0.032,-0.018,0,0.1,0,-35,6.4,27,0.175389874,0.698080386,-0.151676992,0.677388836
490,1229410,568680,0.985,0.036,-0.018,0,0.1,0,-35,6.4,27,0.175389874,0.698080386,-0.151676992,0.677388836
491,1232259,568680,0.985,0.04,-0.018,0.1,0.1,0,-34.7,6,27.1,0.175389874,0.698080386,-0.151676992,0.677388836
492,1235238,568680,0.985,0.04,-0.018,0,0.1,0,-34.7,6,27.1,0.175389874,0.698080386,-0.151676992,0.677419355
493,1236754,568680,0.981,0.04,-0.018,0,0.1,0.1,-34.7,6,27.1,0.175389874,0.698080386,-0.151676992,0.677419355
494,1239233,568690,0.985,0.04,-0.014,0,0,0.1,-34.7,6,27.1,0.175389874,0.698080386,-0.151676992,0.677419355
495,1242736,568690,0.988,0.044,-0.022,0,0,0,-34.7,6,27.1,0.175420392,0.698049867,-0.151646474,0.677419355
496,1244217,568690,0.985,0.032,-0.022,0,0,0,-34.7,6,27.1,0.175420392,0.698049867,-0.151646474,0.677419355
497,1246794,568690,0.985,0.032,-0.022,0,0,0,-34.7,6,27.1,0.175420392,0.698049867,-0.151646474,0.677419355
498,1250991,568700,0.985,0.036,-0.03,0,0,0,-34.7,6,27.1,0.175420392,0.698049867,-0.151646474,0.677419355
499,1253293,568700,0.988,0.04,-0.014,0,0,0,-35.4,6.2,27.2,0.175420392,0.698049867,-0.151646474,0.677419355
500,1255549,568700,0.985,0.036,-0.022,0,0,0,-35.4,6.2,27.2,0.175420392,0.698049867,-0.151646474,0.677419355
501,1257855,568700,0.985,0.036,-0.018,0,0.1,0,-35.4,6.2,27.2,0.175420392,0.698049867,-0.151646474,0.677419355
502,1259725,568710,0.988,0.036,-0.018,0,0.1,0,-35.4,6.2,27.2,0.175420392,0.698049867,-0.151646474,0.677419355
503,1261938,568710,0.985,0.04,-0.022,0,0,0,-35.3,6.2,27.3,0.175420392,0.698049867,-0.151646474,0.677419355
504,1264483,568710,0.985,0.04,-0.022,0,0,0,-35.3,6.2,27.3,0.175420392,0.698049867,-0.151646474,0.677419355
505,1266861,568710,0.985,0.04,-0.018,0,0,0,-35.3,6.2,27.3,0.175420392,0.698049867,-0.151646474,0.677419355
506,1270284,568720,0.988,0.036,-0.018,0.1,0,0,-35.3,6.2,27.3,0.175420392,0.698049867,-0.151646474,0.677419355
507,1272295,568720,0.985,0.04,-0.022,0.1,0,0,-34.8,6,27,0.175420392,0.698049867,-0.151646474,0.677419355
508,1274281,568720,0.988,0.04,-0.022,0.1,0,0,-34.8,6,27,0.175420392,0.698049867,-0.151646474,0.677419355
509,1276976,568720,0.988,0.036,-0.018,0.1,0.1,0,-34.8,6,27,0.175420392,0.698049867,-0.151646474,0.677449873
510,1279234,568730,0.988,0.04,-0.022,0.1,0,0,-34.8,6,27,0.175420392,0.698049867,-0.151646474,0.677449873
511,1281970,568730,0.985,0.036,-0.018,0.1,0,0,-35.1,5.8,27,0.175420392,0.698049867,-0.151646474,0.677449873
512,1284198,568730,0.988,0.04,-0.018,0.1,0,0,-35.1,5.8,27,0.175420392,0.698049867,-0.151585437,0.677449873
513,1288295,568730,0.988,0.04,-0.018,0,0.1,0,-35.1,5.8,27,0.175420392,0.698049867,-0.151585437,0.677449873
514,1289391,568740,0.988,0.04,-0.018,0,0.1,0,-35.1,5.8,27,0.175420392,0.698049867,-0.151646474,0.677449873
515,1291767,568740,0.985,0.04,-0.018,0.1,0,0,-35.1,5.8,27,0.175420392,0.698019349,-0.151585437,0.677449873
516,1294941,568740,0.985,0.04,-0.018,0.1,0,0,-35.1,5.8,27,0.175420392,0.698019349,-0.151585437,0.677449873
517,1297263,568740,0.988,0.04,-0.022,0.1,0,0,-35.1,5.8,27,0.175420392,0.698019349,-0.151585437,0.677449873
518,1300092,568750,0.985,0.036,-0.026,0,0.1,0,-35.1,5.8,27,0.175420392,0.698019349,-0.151585437,0.677449873
519,1302409,568750,0.985,0.036,-0.018,0,0.1,0,-34.4,5.9,27,0.175420392,0.698019349,-0.151585437,0.677449873
520,1304721,568750,0.988,0.036,-0.022,0,0,-0.1,-34.4,5.9,27,0.175420392,0.698019349,-0.151585437,0.677449873
521,1306917,568750,0.988,0.04,-0.022,0,0,-0.1,-34.4,5.9,27,0.175420392,0.698019349,-0.151585437,0.677449873
522,1309393,568760,0.988,0.04,-0.01,0,0,0,-34.4,5.9,27,0.175420392,0.698019349,-0.151585437,0.677449873
523,1312791,568760,0.988,0.04,-0.018,0,0,0,-34.2,6.2,27.3,0.175420392,0.698019349,-0.151585437,0.677449873
524,1314710,568760,0.988,0.036,-0.018,0,-0.1,0,-34.2,6.2,27.3,0.175420392,0.698019349,-0.151585437,0.677449873
525,1316959,568760,0.988,0.036,-0.018,0.1,-0.2,0,-34.2,6.2,27.3,0.175420392,0.698019349,-0.151585437,0.677449873
526,1319120,568770,0.981,0.033,-0.022,0,-0.2,0,-34.2,6.2,27.3,0.175420392,0.698019349,-0.151585437,0.677449873
527,1322659,568770,0.981,0.04,-0.022,0,-0.1,0,-34.3,6.2,27.2,0.175420392,0.698049867,-0.151585437,0.677449873
528,1324178,568770,0.988,0.04,-0.018,0,0,0,-34.3,6.2,27.2,0.175420392,0.698049867,-0.151585437,0.677449873
529,1327845,568770,0.985,0.036,-0.022,0,0,0,-34.3,6.2,27.2,0.175420392,0.698049867,-0.151585437,0.677449873
530,1329388,568780,0.988,0.036,-0.018,0,0,0,-34.3,6.2,27.2,0.175420392,0.698049867,-0.151585437,0.677449873
531,1331625,568780,0.988,0.032,-0.022,0,0,0,-34.2,6,27.1,0.175420392,0.698049867,-0.151585437,0.677449873
532,1334793,568780,0.985,0.04,-0.018,0,0,0,-34.2,6,27.1,0.175420392,0.698049867,-0.151585437,0.677449873
533,1336740,568780,0.985,0.036,-0.026,0,0,0.1,-34.2,6,27.1,0.175420392,0.698049867,-0.151585437,0.677449873
534,1339609,568790,0.985,0.04,-0.018,0,0,0,-34.2,6,27.1,0.175420392,0.698049867,-0.151585437,0.677449873
535,1341623,568790,0.988,0.036,-0.022,0,0.1,0,-34.2,6,27.1,0.175389874,0.698049867,-0.151585437,0.677449873
536,1345207,568790,0.988,0.036,-0.026,0,0.1,0,-34.2,6,27.1,0.175389874,0.698049867,-0.151585437,0.677449873
537,1347340,568790,0.985,0.036,-0.014,0,0.1,0,-34.2,6,27.1,0.175389874,0.698049867,-0.151585437,0.677449873
538,1349183,568800,0.988,0.04,-0.022,0,0,0,-34.2,6,27.1,0.175389874,0.698049867,-0.151585437,0.677449873
539,1352671,568800,0.985,0.04,-0.018,0,-0.2,0,-35.6,5.8,26.8,0.175389874,0.698049867,-0.151585437,0.677449873
540,1354268,568800,0.988,0.04,-0.018,0,-0.3,0,-35.6,5.8,26.8,0.175389874,0.698049867,-0.151585437,0.677419355
541,1357218,568800,0.985,0.04,-0.022,0,-0.3,0,-35.6,5.8,26.8,0.175389874,0.698049867,-0.151585437,0.677419355
542,1359339,568810,0.988,0.04,-0.018,0,-0.2,0,-35.6,5.8,26.8,0.175389874,0.698080386,-0.151585437,0.677419355
543,1362458,568810,0.985,0.04,-0.022,0,-0.1,0,-35.7,6.2,26.8,0.175389874,0.698080386,-0.151585437,0.677419355
544,1364272,568810,0.981,0.04,-0.018,0,0,0,-35.7,6.2,26.8,0.175389874,0.698080386,-0.151585437,0.677419355
545,1367205,568810,0.988,0.044,-0.022,0,0,0,-35.7,6.2,26.8,0.175389874,0.698080386,-0.151585437,0.677419355
546,1369380,568820,0.988,0.036,-0.022,0,0,0,-35.7,6.2,26.8,0.175389874,0.698080386,-0.151585437,0.677419355
547,1372413,568820,0.988,0.04,-0.014,-0.1,0.1,0,-35.8,5.9,27.3,0.175420392,0.698049867,-0.151585437,0.677419355
548,1374701,568820,0.985,0.04,-0.018,0,0,0,-35.8,5.9,27.3,0.175389874,0.698049867,-0.151585437,0.677419355
549,1376911,568820,0.985,0.036,-0.022,0,0,0,-35.8,5.9,27.3,0.175389874,0.698049867,-0.151585437,0.677419355
550,1379169,568830,0.985,0.04,-0.018,0,-0.1,0,-35.8,5.9,27.3,0.175389874,0.698080386,-0.151585437,0.677419355
551,1382257,568830,0.985,0.04,-0.018,0,-0.2,0,-35.5,6,27.2,0.175389874,0.698080386,-0.151585437,0.677419355
552,1384586,568830,0.985,0.04,-0.022,0,-0.1,0,-35.5,6,27.2,0.175389874,0.698080386,-0.151585437,0.677419355
553,1386792,568830,0.988,0.036,-0.022,0,0,0,-35.5,6,27.2,0.175389874,0.698080386,-0.151585437,0.677419355
554,1389425,568840,0.988,0.036,-0.022,0,0,0.1,-35.5,6,27.2,0.175389874,0.698080386,-0.151585437,0.677419355
555,1391894,568840,0.988,0.036,-0.022,0,0.1,0.2,-35.5,6,27.2,0.175389874,0.698080386,-0.151585437,0.677388836
556,1394173,568840,0.985,0.04,-0.018,0,0.1,0.2,-35.5,6,27.2,0.175389874,0.698080386,-0.151585437,0.677388836
557,1398435,568840,0.985,0.04,-0.022,0,0,0.2,-35.5,6,27.2,0.175389874,0.698080386,-0.151585437,0.677419355
558,1400597,568850,0.988,0.04,-0.018,0,0,0.2,-35.5,6,27.2,0.175389874,0.698080386,-0.151646474,0.677419355
559,1402202,568850,0.985,0.04,-0.022,0,0,0.1,-35.3,6,28.2,0.175389874,0.698080386,-0.151646474,0.677388836
560,1404366,568850,0.988,0.04,-0.018,0,0,0,-35.3,6,28.2,0.175389874,0.698080386,-0.151646474,0.677388836
561,1406631,568850,0.985,0.044,-0.022,0,0.1,0,-35.3,6,28.2,0.175389874,0.698080386,-0.151646474,0.677419355
562,1409217,568860,0.985,0.04,-0.022,0.1,0.2,-0.1,-35.3,6,28.2,0.175389874,0.698080386,-0.151646474,0.677419355
563,1412057,568860,0.985,0.04,-0.018,0,0.2,-0.2,-35.4,5.9,28.7,0.175389874,0.698080386,-0.151585437,0.677419355
564,1414189,568860,0.985,0.04,-0.018,0,0.1,-0.2,-35.4,5.9,28.7,0.175389874,0.698080386,-0.151585437,0.677419355
565,1416605,568860,0.981,0.036,-0.022,-0.1,0.1,0,-35.4,5.9,28.7,0.175389874,0.698080386,-0.151585437,0.677419355
566,1419926,568870,0.988,0.036,-0.018,-0.1,0.1,0,-35.4,5.9,28.7,0.175389874,0.698080386,-0.151585437,0.677419355
567,1422238,568870,0.981,0.04,-0.022,-0.1,0.1,0,-35.5,6.1,29.1,0.175389874,0.698080386,-0.151585437,0.677419355
568,1424430,568870,0.985,0.04,-0.022,0,0.2,0,-35.5,6.1,29.1,0.175389874,0.698049867,-0.151585437,0.677419355
569,1426714,568870,0.988,0.04,-0.018,0,0.1,0,-35.5,6.1,29.1,0.175389874,0.698049867,-0.151585437,0.677419355
570,1429306,568880,0.988,0.04,-0.018,0,0.1,0,-35.5,6.1,29.1,0.175389874,0.698049867,-0.151585437,0.677419355
571,1432747,568880,0.985,0.036,-0.018,0,0,0,-35.8,6,29,0.175389874,0.698049867,-0.151585437,0.677419355
572,1434204,568880,0.992,0.04,-0.022,0,0,0,-35.8,6,29,0.175389874,0.698049867,-0.151585437,0.677419355
573,1436730,568880,0.988,0.036,-0.018,0,0,0,-35.8,6,29,0.175420392,0.698049867,-0.151585437,0.677419355
574,1439734,568890,0.992,0.04,-0.022,-0.1,0,0,-35.8,6,29,0.175420392,0.698049867,-0.151585437,0.677419355
575,1441613,568890,0.985,0.04,-0.018,0,0.1,0,-35.8,6,29,0.175420392,0.698049867,-0.151585437,0.677419355
576,1445217,568890,0.985,0.04,-0.018,0,0.1,0,-35.8,6,29,0.175420392,0.698049867,-0.151646474,0.677419355
577,1446740,568890,0.985,0.036,-0.022,0,0.1,0,-35.8,6,29,0.175420392,0.698049867,-0.151646474,0.677419355
578,1449186,568900,0.985,0.036,-0.014,0,0,0,-35.8,6,29,0.175420392,0.698049867,-0.151646474,0.677419355
579,1451575,568900,0.985,0.036,-0.018,0,0,0,-35.3,5.7,27.2,0.175420392,0.698049867,-0.151646474,0.677419355
580,1454961,568900,0.985,0.036,-0.018,0,0,0,-35.3,5.7,27.2,0.175420392,0.698049867,-0.151646474,0.677419355
581,1457131,568900,0.981,0.036,-0.018,0,0.1,0,-35.3,5.7,27.2,0.175420392,0.698049867,-0.151646474,0.677419355
582,1460148,568910,0.985,0.044,-0.018,0,0.1,0,-35.3,5.7,27.2,0.175420392,0.698049867,-0.151646474,0.677419355
583,1461655,568910,0.985,0.036,-0.022,0,0.1,0,-35.7,6.1,26.5,0.175420392,0.698049867,-0.151646474,0.677419355
584,1464684,568910,0.985,0.04,-0.022,0,0.1,0,-35.7,6.1,26.5,0.175420392,0.698049867,-0.151646474,0.677419355
585,1466826,568910,0.985,0.036,-0.022,0,0.1,0.1,-35.7,6.1,26.5,0.175389874,0.698049867,-0.151646474,0.677449873
586,1469092,568920,0.985,0.04,-0.026,0,0.1,0.2,-35.7,6.1,26.5,0.175389874,0.698049867,-0.151646474,0.677449873
587,1471628,568920,0.985,0.036,-0.026,0.1,0,0.1,-35.8,6,26,0.175389874,0.698049867,-0.151646474,0.677449873
588,1475062,568920,0.988,0.04,-0.018,0.1,0,0,-35.8,6,26,0.175389874,0.698049867,-0.151646474,0.677449873
589,1476893,568920,0.988,0.036,-0.022,0.2,0,0,-35.8,6,26,0.175389874,0.698049867,-0.151646474,0.677449873
590,1479919,568930,0.988,0.036,-0.018,0.2,0,0,-35.8,6,26,0.175389874,0.698049867,-0.151646474,0.677449873
591,1482231,568930,0.985,0.036,-0.022,0.1,0.1,-0.1,-35.8,6.1,25.6,0.175389874,0.698049867,-0.151585437,0.677449873
592,1484455,568930,0.988,0.036,-0.014,0,0.2,0,-35.8,6.1,25.6,0.175389874,0.698049867,-0.151585437,0.677449873
593,1486692,568930,0.985,0.036,-0.014,-0.1,0.2,0,-35.8,6.1,25.6,0.175389874,0.698049867,-0.151585437,0.677449873
594,1489163,568940,0.985,0.032,-0.018,-0.2,0.3,0,-35.8,6.1,25.6,0.175389874,0.698019349,-0.151585437,0.677449873
595,1492636,568940,0.988,0.032,-0.022,-0.1,0.2,0,-35.8,6.1,25.6,0.175389874,0.69798883,-0.151646474,0.677480392
596,1494200,568940,0.981,0.04,-0.022,-0.1,0.2,0,-35.8,6.1,25.6,0.175389874,0.69798883,-0.151646474,0.677480392
597,1496703,568940,0.981,0.036,-0.022,0,0,0,-35.8,6.1,25.6,0.175389874,0.69798883,-0.151646474,0.677480392
598,1499726,568950,0.985,0.04,-0.022,0.1,0,0,-35.8,6.1,25.6,0.175389874,0.69798883,-0.151646474,0.677480392
599,1501857,568950,0.985,0.04,-0.022,0,-0.1,0,-35.5,6,26.9,0.175389874,0.69798883,-0.151646474,0.677480392
600,1504138,568950,0.985,0.04,-0.018,0,-0.1,0,-35.5,6,26.9,0.175389874,0.69798883,-0.151646474,0.677480392
601,1507857,568950,0.988,0.04,-0.022,0,-0.1,0,-35.5,6,26.9,0.175389874,0.69798883,-0.151646474,0.677480392
602,1509315,568960,0.985,0.04,-0.022,0,-0.1,0,-35.5,6,26.9,0.175389874,0.698019349,-0.151646474,0.677480392
603,1512437,568960,0.985,0.04,-0.014,0,-0.1,0,-35.5,6.2,27,0.175389874,0.698019349,-0.151646474,0.677480392
604,1514713,568960,0.988,0.044,-0.018,0,-0.1,0,-35.5,6.2,27,0.175389874,0.698019349,-0.151646474,0.677480392
605,1516854,568960,0.985,0.04,-0.03,0.1,0,0,-35.5,6.2,27,0.175389874,0.698019349,-0.151646474,0.677480392
606,1519783,568970,0.985,0.036,-0.022,0.1,0.1,0.1,-35.5,6.2,27,0.175389874,0.698019349,-0.151646474,0.677480392
607,1522785,568970,0.985,0.04,-0.018,0.1,0.1,0.1,-35,5.6,27.1,0.175389874,0.698019349,-0.151646474,0.677480392
608,1524282,568970,0.988,0.04,-0.018,0,0.2,0,-35,5.6,27.1,0.175359355,0.69798883,-0.151646474,0.677480392
609,1526882,568970,0.981,0.036,-0.018,0,0.2,0,-35,5.6,27.1,0.175359355,0.69798883,-0.151646474,0.677480392
610,1529249,568980,0.981,0.04,-0.018,0,0.1,0,-35,5.6,27.1,0.175389874,0.69798883,-0.151646474,0.677480392
611,1532824,568980,0.985,0.04,-0.022,0,0,0,-35.7,4.8,27.2,0.175389874,0.69798883,-0.151646474,0.677480392
612,1534274,568980,0.985,0.036,-0.022,0,0,-0.1,-35.7,4.8,27.2,0.175389874,0.69798883,-0.151646474,0.677480392
613,1536640,568980,0.985,0.04,-0.022,0,0,-0.1,-35.7,4.8,27.2,0.175389874,0.69798883,-0.151646474,0.677480392
614,1539410,568990,0.981,0.036,-0.022,0,-0.1,0,-35.7,4.8,27.2,0.175389874,0.69798883,-0.151646474,0.677480392
615,1542521,568990,0.988,0.036,-0.022,0,-0.1,0,-35.7,4.8,27.2,0.175389874,0.698019349,-0.151646474,0.677449873
616,1544182,568990,0.988,0.036,-0.018,0,-0.1,0,-35.7,4.8,27.2,0.175389874,0.698019349,-0.151646474,0.677449873
617,1547168,568990,0.988,0.036,-0.018,0,0,-0.1,-35.7,4.8,27.2,0.175389874,0.698019349,-0.151646474,0.677449873
618,1549275,569000,0.988,0.044,-0.018,0,0,-0.2,-35.7,4.8,27.2,0.175389874,0.698019349,-0.151646474,0.677449873
619,1551722,569000,0.992,0.032,-0.018,0,-0.1,0,-35.7,6.8,28.2,0.175389874,0.698049867,-0.151646474,0.677449873
620,1554639,569000,0.988,0.04,-0.022,0,-0.1,0,-35.7,6.8,28.2,0.175389874,0.698049867,-0.151646474,0.677449873
621,1557042,569000,0.985,0.044,-0.018,0,-0.1,0,-35.7,6.8,28.2,0.175389874,0.698049867,-0.151646474,0.677449873
622,1560229,569010,0.985,0.036,-0.022,0,0,0,-35.7,6.8,28.2,0.175389874,0.698049867,-0.151646474,0.677449873
623,1561702,569010,0.981,0.04,-0.022,-0.1,0.1,0,-35.7,6.8,28.2,0.175389874,0.698049867,-0.151646474,0.677449873
624,1564170,569010,0.977,0.036,-0.022,0,0.2,0,-35.7,6.8,28.2,0.175389874,0.698019349,-0.151646474,0.677449873
625,1567013,569010,0.985,0.04,-0.018,0,0.2,0,-35.7,6.8,28.2,0.175389874,0.698019349,-0.151646474,0.677449873
626,1570849,569020,0.985,0.032,-0.026,0,0,0,-35.7,6.8,28.2,0.175389874,0.698019349,-0.151646474,0.677449873
627,1572263,569020,0.985,0.036,-0.018,0,-0.1,0,-35.7,6.8,28.2,0.175389874,0.698019349,-0.151646474,0.677449873
628,1574108,569020,0.985,0.04,-0.018,0.1,-0.2,0.1,-35.7,6.8,28.2,0.175389874,0.698049867,-0.151646474,0.677449873
629,1577580,569020,0.985,0.036,-0.026,0.1,-0.2,0,-35.7,6.8,28.2,0.175389874,0.698049867,-0.151646474,0.677449873
630,1579283,569030,0.985,0.036,-0.022,0.1,-0.2,0,-35.7,6.8,28.2,0.175389874,0.698049867,-0.151646474,0.677449873
631,1582117,569030,0.985,0.036,-0.026,0,-0.2,0,-35.7,6.8,28.2,0.175389874,0.698049867,-0.151646474,0.677449873
632,1584356,569030,0.985,0.036,-0.018,0,-0.1,0,-35.7,6.8,28.2,0.175389874,0.698049867,-0.151646474,0.677419355
633,1587332,569030,0.988,0.04,-0.022,0,-0.1,0,-35.7,6.8,28.2,0.175389874,0.698049867,-0.151646474,0.677419355
634,1590503,569040,0.992,0.032,-0.026,0.1,-0.2,0,-35.7,6.8,28.2,0.175389874,0.698049867,-0.151646474,0.677419355
635,1591903,569040,0.985,0.036,-0.018,0,-0.2,0,-35.7,6.8,28.2,0.175359355,0.698080386,-0.151676992,0.677388836
636,1594624,569040,0.985,0.036,-0.018,0,-0.2,0,-35.7,6.8,28.2,0.175359355,0.698080386,-0.151676992,0.677388836
637,1597668,569040,0.992,0.036,-0.022,0,-0.1,0,-35.7,6.8,28.2,0.175359355,0.698080386,-0.151676992,0.677388836
638,1599297,569050,0.985,0.036,-0.022,0,0,0,-35.7,6.8,28.2,0.175359355,0.698080386,-0.151676992,0.677388836
639,1602265,569050,0.981,0.036,-0.018,0,0,0,-35.5,7.3,27.2,0.175359355,0.698080386,-0.151676992,0.677388836
640,1604413,569050,0.981,0.04,-0.018,0,0,0,-35.5,7.3,27.2,0.175359355,0.698080386,-0.151676992,0.677388836
641,1607473,569050,0.985,0.036,-0.018,-0.1,0,0,-35.5,7.3,27.2,0.175359355,0.698080386,-0.151676992,0.677388836
642,1609812,569060,0.985,0.036,-0.022,-0.1,0,0,-35.5,7.3,27.2,0.175359355,0.698080386,-0.151676992,0.677388836
643,1611941,569060,0.985,0.04,-0.022,0,0,0,-35.5,7.3,27.2,0.175359355,0.698080386,-0.151676992,0.677388836
644,1614252,569060,0.988,0.04,-0.022,0,0,0,-35.5,7.3,27.2,0.175359355,0.698080386,-0.151676992,0.677388836
645,1616648,569060,0.985,0.04,-0.022,0,0,0,-35.5,7.3,27.2,0.175359355,0.698080386,-0.151676992,0.677388836
646,1620244,569070,0.988,0.04,-0.022,0,-0.1,0,-35.5,7.3,27.2,0.175359355,0.698080386,-0.151676992,0.677388836
647,1621685,569070,0.988,0.04,-0.018,0,0,0,-35.5,7.3,27.2,0.175359355,0.698080386,-0.151676992,0.677388836
648,1624370,569070,0.988,0.04,-0.022,0,0,0,-35.5,7.3,27.2,0.175359355,0.698080386,-0.151676992,0.677388836
649,1626649,569070,0.985,0.036,-0.022,0,0,0,-35.5,7.3,27.2,0.175359355,0.698080386,-0.151676992,0.677388836
650,1630131,569080,0.988,0.04,-0.014,0,0,0,-35.5,7.3,27.2,0.175359355,0.698110904,-0.151676992,0.677388836
651,1631663,569080,0.988,0.04,-0.022,0,0,0,-35.5,7.3,27.2,0.175359355,0.698080386,-0.151676992,0.677388836
652,1634261,569080,0.985,0.04,-0.014,0,0.1,0,-35.5,7.3,27.2,0.175359355,0.698080386,-0.151676992,0.677388836
653,1637265,569080,0.981,0.036,-0.018,0,0,0,-35.5,7.3,27.2,0.175359355,0.698080386,-0.151676992,0.677388836
654,1639664,569090,0.985,0.036,-0.018,0,-0.1,0,-35.5,7.3,27.2,0.175359355,0.698080386,-0.151707511,0.677388836
655,1641763,569090,0.985,0.036,-0.018,0,-0.1,0,-35.9,7.8,27,0.175359355,0.698080386,-0.151676992,0.677388836
656,1644390,569090,0.985,0.036,-0.018,0,-0.1,0,-35.9,7.8,27,0.175359355,0.698080386,-0.151676992,0.677388836
657,1646769,569090,0.981,0.033,-0.022,0,-0.1,0,-35.9,7.8,27,0.175359355,0.698080386,-0.151676992,0.677388836
658,1650857,569100,0.985,0.032,-0.018,0,-0.1,0,-35.9,7.8,27,0.175359355,0.698080386,-0.151676992,0.677388836
659,1653477,569100,0.988,0.04,-0.022,0,-0.2,0,-35.7,5.7,27.1,0.175359355,0.698080386,-0.151707511,0.677388836
660,1655336,569100,0.988,0.04,-0.018,0,-0.1,0,-35.7,5.7,27.1,0.175359355,0.698110904,-0.151707511,0.677388836
661,1656935,569100,0.985,0.032,-0.018,0,0,-0.1,-35.7,5.7,27.1,0.175359355,0.698110904,-0.151676992,0.677388836
662,1659271,569110,0.988,0.036,-0.018,0,0,-0.1,-35.7,5.7,27.1,0.175359355,0.698110904,-0.151676992,0.677388836
663,1662727,569110,0.988,0.04,-0.022,0,0,0,-35.9,5.8,27,0.175359355,0.698110904,-0.151676992,0.677388836
664,1665154,569110,0.988,0.036,-0.018,0,0,0,-35.9,5.8,27,0.175359355,0.698110904,-0.151676992,0.677388836
665,1667332,569110,0.985,0.036,-0.022,0,0,0,-35.9,5.8,27,0.175359355,0.698110904,-0.151676992,0.677388836
666,1669509,569120,0.988,0.04,-0.026,0,0,0,-35.9,5.8,27,0.175359355,0.698110904,-0.151676992,0.677388836
667,1671778,569120,0.985,0.036,-0.018,0,0,0,-35.8,5.7,27,0.175359355,0.698110904,-0.151707511,0.677388836
668,1674290,569120,0.981,0.036,-0.018,0,0,0.1,-35.8,5.7,27,0.175359355,0.698110904,-0.151707511,0.677388836
669,1677753,569120,0.981,0.036,-0.026,0,0,0.1,-35.8,5.7,27,0.175359355,0.698110904,-0.151707511,0.677388836
670,1679188,569130,0.985,0.04,-0.018,0,0,0.1,-35.8,5.7,27,0.175359355,0.698110904,-0.151707511,0.677388836
671,1682131,569130,0.985,0.036,-0.022,0,0,0,-36,6.2,27.1,0.175359355,0.698110904,-0.151707511,0.677388836
672,1684305,569130,0.985,0.036,-0.018,0,0,0,-36,6.2,27.1,0.175359355,0.698110904,-0.151707511,0.677388836
673,1687782,569130,0.988,0.04,-0.022,-0.1,0,0,-36,6.2,27.1,0.175359355,0.698110904,-0.151707511,0.677388836
674,1690130,569140,0.985,0.036,-0.018,-0.1,0,0,-36,6.2,27.1,0.175359355,0.698110904,-0.151707511,0.677388836
675,1692319,569140,0.988,0.036,-0.018,0,0,0,-37,5.9,27.2,0.175359355,0.698110904,-0.151707511,0.677388836
676,1694646,569140,0.988,0.036,-0.018,0,0,0,-37,5.9,27.2,0.175359355,0.698110904,-0.151707511,0.677388836
677,1696786,569140,0.988,0.036,-0.022,0,0,0,-37,5.9,27.2,0.175359355,0.698110904,-0.151707511,0.677358318
678,1699440,569150,0.988,0.036,-0.026,0,-0.1,0,-37,5.9,27.2,0.175359355,0.698110904,-0.151707511,0.677358318
679,1701641,569150,0.985,0.04,-0.018,0,-0.2,0,-34.7,4.7,27.1,0.175359355,0.698110904,-0.151707511,0.677358318
680,1704230,569150,0.988,0.04,-0.018,0,-0.1,0,-34.7,4.7,27.1,0.175359355,0.698110904,-0.151707511,0.677358318
681,1707250,569150,0.988,0.04,-0.018,0,-0.1,0,-34.7,4.7,27.1,0.175359355,0.698110904,-0.151707511,0.677358318
682,1709599,569160,0.985,0.036,-0.014,0,0,0,-34.7,4.7,27.1,0.175359355,0.698110904,-0.151707511,0.677358318
683,1712676,569160,0.988,0.032,-0.022,0,0.1,0,-37,7.4,27,0.175359355,0.698110904,-0.151707511,0.677358318
684,1714926,569160,0.981,0.032,-0.026,0,0.2,0,-37,7.4,27,0.175359355,0.698110904,-0.151707511,0.677358318
685,1717368,569160,0.985,0.036,-0.018,0.1,0.2,0,-37,7.4,27,0.175359355,0.698110904,-0.151707511,0.677358318
686,1719724,569170,0.985,0.04,-0.022,0.1,0.2,0,-37,7.4,27,0.175359355,0.698110904,-0.151707511,0.677388836
687,1721878,569170,0.988,0.036,-0.018,0,0.2,0.1,-37.1,7.5,27.4,0.175359355,0.698110904,-0.151707511,0.677388836
688,1724120,569170,0.988,0.04,-0.014,0,0.1,0.2,-37.1,7.5,27.4,0.175359355,0.698080386,-0.151707511,0.677388836
689,1726790,569170,0.992,0.036,-0.022,0,0.1,0.2,-37.1,7.5,27.4,0.175359355,0.698080386,-0.151707511,0.677388836
690,1730158,569180,0.988,0.032,-0.018,0,0,0.1,-37.1,7.5,27.4,0.175359355,0.698080386,-0.151707511,0.677388836
691,1731690,569180,0.985,0.036,-0.018,0,0,0,-37,7.3,27.2,0.175359355,0.698080386,-0.151707511,0.677388836
692,1734282,569180,0.985,0.036,-0.026,0,0,0,-37,7.3,27.2,0.175328837,0.698080386,-0.151707511,0.677388836
693,1736613,569180,0.985,0.04,-0.022,0,0,0,-37,7.3,27.2,0.175328837,0.698080386,-0.151707511,0.677388836
694,1740157,569190,0.988,0.036,-0.022,0,-0.1,0,-37,7.3,27.2,0.175328837,0.698080386,-0.151707511,0.677388836
695,1741896,569190,0.981,0.04,-0.022,0,-0.1,0.1,-36.7,7,27,0.175328837,0.698110904,-0.151738029,0.677358318
696,1744286,569190,0.981,0.04,-0.022,0,-0.1,0.1,-36.7,7,27,0.175328837,0.698110904,-0.151738029,0.677358318
697,1746717,569190,0.988,0.044,-0.018,0,-0.1,0.1,-36.7,7,27,0.175328837,0.698110904,-0.151738029,0.677358318
698,1750147,569200,0.988,0.04,-0.022,0,0,0,-36.7,7,27,0.175328837,0.698110904,-0.151738029,0.677358318
699,1751670,569200,0.985,0.044,-0.018,0.1,0,0,-35,5.8,27.2,0.175328837,0.698110904,-0.151738029,0.677358318
700,1754685,569200,0.988,0.04,-0.018,0.1,0,0,-35,5.8,27.2,0.175328837,0.698110904,-0.151738029,0.677358318
701,1756967,569200,0.988,0.036,-0.022,0.1,0.1,0,-35,5.8,27.2,0.175328837,0.698110904,-0.151738029,0.677358318
702,1759178,569210,0.985,0.04,-0.018,0,0.1,0,-35,5.8,27.2,0.175298318,0.698110904,-0.151738029,0.677358318
703,1762150,569210,0.985,0.036,-0.022,0,0.1,0,-35.7,5.9,27.4,0.175298318,0.698110904,-0.151738029,0.677358318
704,1764396,569210,0.985,0.04,-0.022,-0.1,0,0,-35.7,5.9,27.4,0.175328837,0.698110904,-0.151738029,0.677358318
705,1767800,569210,0.988,0.036,-0.022,-0.1,0,0,-35.7,5.9,27.4,0.175328837,0.698110904,-0.151738029,0.677358318
706,1769293,569220,0.988,0.036,-0.018,0,0,0,-35.7,5.9,27.4,0.175328837,0.698110904,-0.151738029,0.677358318
707,1772321,569220,0.985,0.032,-0.018,0,-0.1,0,-35.3,5.8,27.5,0.175328837,0.698110904,-0.151738029,0.677358318
708,1774710,569220,0.985,0.036,-0.022,0,-0.1,0,-35.3,5.8,27.5,0.175328837,0.698110904,-0.151738029,0.677358318
709,1776757,569220,0.988,0.036,-0.022,0,-0.2,0,-35.3,5.8,27.5,0.175328837,0.698110904,-0.151738029,0.677358318
710,1779066,569230,0.957,0.037,-0.021,0,-0.1,0,-35.3,5.8,27.5,0.175328837,0.698110904,-0.151738029,0.677358318
711,1781818,569230,1.445,-3.193,-6.445,-2,7.4,0.6,-35,6.2,27.2,0.175359355,0.69798883,-0.151768548,0.677480392
712,1785136,569230,6.731,-3.019,-8.188,-13.7,85.4,2.5,-35,6.2,27.2,0.175817133,0.696676534,-0.151676992,0.678731651
713,1786697,569230,0.767,-0.143,-7.964,0.6,222.5,-7.8,-35,6.2,27.2,0.176641133,0.693411054,-0.1507004,0.682088687
714,1789285,569240,6.49,3.07,-8.197,106.3,311.8,-30.4,-35,6.2,27.2,0.176519059,0.689260537,-0.147434919,0.687002167
715,1792133,569240,2.952,8.032,7.364,286.6,244.3,-58.6,-35.9,5.7,26.7,0.173863948,0.686849574,-0.141300699,0.691366314
716,1794193,569240,4.308,0.343,7.922,347.6,57.2,-64.9,-35.9,5.7,26.7,0.169804987,0.687490463,-0.134861293,0.693014313
717,1796951,569240,2.902,-8.091,7.182,126.2,-106.9,-34.1,-35.9,5.7,26.7,0.168126469,0.689687796,-0.132847072,0.69164098
718,1799337,569250,-4.093,6.576,8.171,-173.9,-129.5,14.6,-35.9,5.7,26.7,0.17014069,0.690939055,-0.136173589,0.689230018
719,1802841,569250,-2.291,0.439,-0.28,-305.4,-35.1,38.4,-37.3,7,27.5,0.17404706,0.69020661,-0.141453291,0.687948241
720,1804966,569250,0.025,-3.149,-6.22,-217.5,57.8,22.8,-37.3,7,27.5,0.177159948,0.688436537,-0.144840846,0.688222907
721,1807347,569250,0.055,-2.548,0.73,-102.1,57.6,-13.1,-37.3,7,27.5,0.179082614,0.687215796,-0.145970031,0.688711203
722,1809372,569260,1.964,-1.966,-2.9,-40.5,-17.2,-32.7,-37.3,7,27.5,0.180120243,0.687429426,-0.146153142,0.688192389
723,1811725,569260,0.544,-1.399,-3.182,9.9,-53.6,-33.4,-36.7,6.8,27,0.180303354,0.6883755,-0.145725883,0.687276833
724,1814348,569260,-1.339,-1.177,-1.34,50.7,-5.8,-22.1,-36.7,6.8,27,0.179845576,0.688741722,-0.144627216,0.687276833
725,1816650,569260,-1.215,-3.038,0.039,55.3,83.3,-6.5,-36.7,6.8,27,0.179387799,0.687704093,-0.143375958,0.688650166
726,1819920,569270,0.023,-1.931,1.576,24.8,123.5,7.4,-36.7,6.8,27,0.179296243,0.685934019,-0.142643513,0.690633869
727,1822188,569270,2.392,1.325,4.231,-8.1,57.2,15.6,-37.1,7.3,26.6,0.17935728,0.684987945,-0.142765587,0.691518906
728,1824415,569270,4.177,1.924,2.935,-16.6,-73.2,15.7,-37.1,7.3,26.6,0.179143651,0.685964537,-0.143559069,0.69042024
729,1826749,569270,0.41,-0.699,-0.515,-6.2,-154.7,10.2,-37.1,7.3,26.6,0.178594317,0.688253426,-0.144383068,0.688131352
730,1829474,569280,-0.138,0.715,-0.247,6,-123.2,3.8,-37.1,7.3,26.6,0.178044984,0.690115055,-0.144840846,0.686300241
731,1831700,569280,0.432,1.165,-1.007,16.9,-20.9,-0.6,-36.5,6.8,27.1,0.177739799,0.690481277,-0.144657735,0.686056093
732,1834411,569280,1.077,-0.302,-0.193,26.2,56.8,-2.1,-36.5,6.8,27.1,0.177556688,0.689748833,-0.144016846,0.686971648
733,1838429,569280,1.496,-0.52,-0.942,21,61.3,0,-36.5,6.8,27.1,0.177434614,0.688894314,-0.143467513,0.687978759
734,1840574,569290,1.254,-0.197,-1.527,2.1,21.1,4.5,-36.5,6.8,27.1,0.177373577,0.688589129,-0.143406476,0.688314463
735,1841854,569290,0.028,-0.696,-0.675,-14.2,-12.2,8.6,-37,7.2,27.2,0.177434614,0.688680685,-0.143772698,0.688100833
736,1845156,569290,0.311,-0.931,-1.005,-20,-16.9,10.9,-37,7.2,27.2,0.17752617,0.688833277,-0.14435255,0.687826167
737,1846715,569290,0.764,-0.569,-0.832,-18.5,-6.2,11.8,-37,7.2,27.2,0.177587207,0.688802759,-0.144810327,0.687734611
738,1849547,569300,1.171,-0.154,-0.255,-11.9,-2.8,11.9,-37,7.2,27.2,0.177587207,0.68877224,-0.14517655,0.687704093
739,1851713,569300,1.35,-0.029,-0.233,-1.8,-10.7,11.4,-38.1,6.5,27.6,0.177404096,0.688894314,-0.145420698,0.687582018
740,1854779,569300,1.207,0.393,-0.105,7.7,-16.2,10.1,-38.1,6.5,27.6,0.17709891,0.689138462,-0.145542772,0.687398907
741,1857011,569300,1.094,0.59,-0.113,13,-10.2,8.5,-38.1,6.5,27.6,0.176732688,0.689321574,-0.145512253,0.687307352
742,1859851,569310,1.097,0.413,-0.379,12.7,2.7,6.7,-38.1,6.5,27.6,0.176458022,0.689291055,-0.145390179,0.687429426
743,1862735,569310,1.282,0.77,-0.1,8.2,12,4.9,-35.6,6.4,27.6,0.176305429,0.689138462,-0.145298624,0.687643056
744,1864497,569310,1.403,0.911,-0.002,2.1,11.4,3.1,-35.6,6.4,27.6,0.176244392,0.688955351,-0.145268105,0.687826167
745,1866712,569310,1.422,0.848,-0.034,-2.6,4.1,1.2,-35.6,6.4,27.6,0.176274911,0.688894314,-0.145329142,0.687887204
746,1869501,569320,1.353,1.121,0.515,-4.4,-2.9,-0.4,-35.6,6.4,27.6,0.176335948,0.688894314,-0.145390179,0.687826167
747,1872582,569320,1.361,1.019,0.718,-4.3,-6.1,-1.8,-35.9,6.6,27.7,0.176427503,0.68898587,-0.145451216,0.687734611
748,1874190,569320,1.298,0.492,0.706,-3.4,-6,-2.6,-35.9,6.6,27.7,0.17648854,0.689077425,-0.145481735,0.687612537
749,1877110,569320,1.106,-0.124,0.475,-4.2,-3.9,-2.7,-35.9,6.6,27.7,0.176580096,0.689138462,-0.145512253,0.687520981
750,1880478,569330,0.731,-0.255,0.092,-7.1,0,-2.3,-35.9,6.6,27.7,0.176732688,0.689107944,-0.145603809,0.687490463
751,1882669,569330,0.711,-0.181,-0.15,-9.1,5.1,-1.8,-35.8,6.2,28,0.176915799,0.689016388,-0.145695364,0.687520981
752,1884872,569330,0.743,-0.079,-0.186,-8.2,8.9,-1.7,-35.8,6.2,28,0.17709891,0.688833277,-0.145725883,0.687643056
753,1887151,569330,0.989,0.167,0.235,-5.1,8.1,-2.1,-35.8,6.2,28,0.177220985,0.688711203,-0.145725883,0.687734611
754,1889390,569340,1.145,0.099,0.324,-2.7,2.6,-2.4,-35.8,6.2,28,0.17731254,0.688650166,-0.145725883,0.68776513
755,1891740,569340,1.195,0.015,0.241,-1.9,-4.5,-2.3,-35.9,6.4,27.6,0.177373577,0.688741722,-0.145725883,0.687673574
756,1894082,569340,1.129,-0.042,0.098,-2.8,-9,-1.7,-35.9,6.4,27.6,0.177404096,0.688863796,-0.145817438,0.687520981
757,1898374,569340,0.972,-0.073,-0.209,-3.8,-8.3,-0.9,-35.9,6.4,27.6,0.177434614,0.68898587,-0.145908994,0.687368389
758,1899849,569350,0.98,-0.062,-0.261,-3.8,-4,-0.2,-35.9,6.4,27.6,0.177495651,0.689016388,-0.145970031,0.687307352
759,1902813,569350,0.973,-0.073,-0.104,-2.9,-0.1,0.2,-36.9,6.1,27.4,0.17752617,0.689016388,-0.146000549,0.687307352
760,1904084,569350,0.993,0.017,0.278,-1.6,0.7,0.7,-36.9,6.1,27.4,0.177556688,0.68898587,-0.146061586,0.687307352
761,1907316,569350,1.021,0.147,0.426,-0.3,-0.8,1.3,-36.9,6.1,27.4,0.17752617,0.68898587,-0.146061586,0.687307352
762,1909498,569360,1.032,0.179,0.449,1,-3,1.7,-36.9,6.1,27.4,0.177495651,0.689046907,-0.146092105,0.687246315
763,1911830,569360,1.048,0.151,0.366,1.7,-4.3,2.1,-36.9,6.2,28.1,0.177404096,0.689107944,-0.146122623,0.687215796
764,1914523,569360,1.055,0.111,0.249,1.5,-4.4,2.3,-36.9,6.2,28.1,0.177343059,0.689168981,-0.146153142,0.687154759
765,1916771,569360,1.059,0.04,0.12,0.3,-3.9,2.5,-36.9,6.2,28.1,0.177282022,0.689230018,-0.14618366,0.687093722
766,1919933,569370,1.059,0.04,-0.005,-1.1,-3.6,2.8,-36.9,6.2,28.1,0.177251503,0.689260537,-0.146275216,0.687063204
767,1922344,569370,1.004,0.068,-0.101,-2.2,-3.8,3.2,-36.6,6.5,27.8,0.177220985,0.689291055,-0.146366771,0.687002167
768,1924561,569370,0.977,0.056,-0.092,-2.8,-4.4,3.8,-36.6,6.5,27.8,0.177190466,0.689352092,-0.146488845,0.68694113
769,1926781,569370,0.984,0.036,-0.069,-3,-5.8,4.5,-36.6,6.5,27.8,0.177159948,0.689413129,-0.14661092,0.686849574
770,1929157,569380,1.023,0.004,-0.09,-3.3,-8.3,5.1,-36.6,6.5,27.8,0.17709891,0.689504685,-0.146794031,0.686758019
771,1933248,569380,1.008,0.052,-0.027,-3.7,-11,5.7,-36.7,6.2,28.3,0.177037873,0.689626759,-0.146977142,0.686574908
772,1935543,569380,0.961,0.013,0.025,-4,-12.5,5.8,-36.7,6.2,28.3,0.176976836,0.689779351,-0.147160253,0.686422315
773,1937926,569380,0.914,-0.009,-0.028,-4.5,-12.3,5.9,-36.7,6.2,28.3,0.176915799,0.689931944,-0.147373882,0.686239204
774,1940126,569390,0.946,-0.002,-0.052,-5.1,-11.8,6.1,-36.7,6.2,28.3,0.176854762,0.690084536,-0.147587512,0.686056093
775,1942284,569390,0.988,-0.026,0.024,-5.8,-12.8,6.5,-36.5,6.1,28.5,0.176763207,0.690237129,-0.147862178,0.685842463
776,1944540,569390,0.996,-0.049,0.039,-6.7,-15.5,6.9,-36.5,6.1,28.5,0.17670217,0.690450758,-0.148106326,0.685628834
777,1946688,569390,1.008,-0.077,0.035,-7.8,-18.5,7.1,-36.5,6.1,28.5,0.176671651,0.690664388,-0.148411512,0.685354167
778,1949299,569400,0.903,-0.115,0.043,-8.7,-20.5,7,-36.5,6.1,28.5,0.176610614,0.690908536,-0.148747215,0.685048982
779,1951652,569400,0.844,-0.107,0.08,-9.1,-20.3,6.6,-36.5,6.3,26.6,0.176610614,0.691152684,-0.1490524,0.684713279
780,1955895,569400,0.868,-0.064,0.153,-8.7,-18.6,6.1,-36.5,6.3,26.6,0.176580096,0.691396832,-0.149357585,0.684438612
781,1958160,569400,0.888,-0.012,0.25,-7.6,-17.2,5.6,-36.5,6.3,26.6,0.176549577,0.691579943,-0.149601733,0.684163945
782,1960407,569410,1.082,0.028,0.205,-6.5,-17.1,5.3,-36.5,6.3,26.6,0.176519059,0.691793573,-0.149845882,0.683919797
783,1962573,569410,0.907,0.101,0.289,-5.4,-17.9,4.5,-36.2,6,28.7,0.176458022,0.692037721,-0.150059511,0.683645131
784,1964937,569410,0.923,0.096,0.155,-3.7,-18.1,3.1,-36.2,6,28.7,0.176427503,0.692281869,-0.150242622,0.683370464
785,1967068,569410,0.845,0.062,0.099,-2,-16,1.4,-36.2,6,28.7,0.176366466,0.692495499,-0.150364696,0.683126316
786,1969394,569420,0.825,0.117,0.131,-0.6,-11.6,0.2,-36.2,6,28.7,0.176335948,0.69267861,-0.150425733,0.682943205
787,1971637,569420,0.806,0.152,0.1,0.5,-6.6,-0.3,-35.9,6.1,29.3,0.176305429,0.692770165,-0.150425733,0.68285165
788,1974141,569420,0.829,0.132,0.056,1.8,-3.7,-0.5,-35.9,6.1,29.3,0.176274911,0.692861721,-0.150395215,0.682790613
789,1977604,569420,0.856,0.113,0.075,2.5,-3.7,-0.7,-35.9,6.1,29.3,0.176244392,0.692922758,-0.150364696,0.682760094
790,1979825,569430,0.872,0.12,0.059,2.5,-6.1,-0.7,-35.9,6.1,29.3,0.176183355,0.693014313,-0.150334178,0.682668538
791,1982111,569430,0.899,0.124,0.034,2.3,-9.2,-0.5,-36.1,6.2,28.6,0.176152837,0.693166906,-0.150334178,0.682515946
792,1984247,569430,0.926,0.088,0.037,2.3,-11.9,-0.2,-36.1,6.2,28.6,0.176061281,0.693350017,-0.150334178,0.682363353
793,1986587,569430,0.934,0.057,0.029,2.2,-13.7,0.1,-36.1,6.2,28.6,0.175969726,0.693563646,-0.150364696,0.682149724
794,1989224,569440,0.954,0.029,0.021,1.7,-15.1,0.6,-36.1,6.2,28.6,0.175908689,0.693807794,-0.150425733,0.681936094
795,1992423,569440,0.961,0.017,-0.01,1.1,-16.2,1,-36.1,6.2,28.7,0.17587817,0.693990905,-0.150395215,0.681722465
796,1994788,569440,0.965,0.001,-0.025,0.7,-17.4,1.3,-36.1,6.2,28.7,0.175786615,0.694265572,-0.15048677,0.681478317
797,1997088,569440,0.969,-0.014,-0.061,0.5,-18.5,1.4,-36.1,6.2,28.7,0.175695059,0.694540239,-0.150547807,0.68120365
798,1999320,569450,0.973,-0.014,-0.08,0.4,-19.2,1.2,-36.1,6.2,28.7,0.175634022,0.694814905,-0.150608844,0.680928983
799,2002006,569450,1,-0.006,-0.128,0.5,-19.7,0.7,-36.3,6.2,26.1,0.175542467,0.695089572,-0.150730918,0.680623798
800,2004102,569450,1.004,0.001,-0.148,0.8,-20,0.4,-36.3,6.2,26.1,0.175450911,0.695394757,-0.150791955,0.680318613
801,2008345,569450,1.031,0.024,-0.168,1.3,-20.1,0.2,-36.3,6.2,26.1,0.175359355,0.695699942,-0.150852992,0.680013428
802,2010607,569460,1.05,0.032,-0.177,1.7,-20,0,-36.3,6.2,26.1,0.1752678,0.696005127,-0.150914029,0.679738762
803,2012807,569460,1.097,0.039,-0.249,2.1,-19.7,0,-36,6,27.3,0.175176244,0.696279794,-0.150944548,0.679433576
804,2015083,569460,1.109,0.043,-0.281,2.4,-18.7,-0.1,-36,6,27.3,0.175084689,0.696584979,-0.150975066,0.67915891
805,2017230,569460,1.116,0.054,-0.277,2.5,-17,0,-36,6,27.3,0.174962615,0.696859645,-0.151005585,0.678914762
806,2019579,569470,1.101,0.086,-0.261,2.5,-14.5,0,-36,6,27.3,0.174901578,0.697073275,-0.151036103,0.678701132
807,2021858,569470,1.105,0.078,-0.257,2.4,-11.9,0,-36.5,6,26.9,0.174810022,0.697286905,-0.151036103,0.678518021
808,2024108,569470,1.093,0.051,-0.276,2.1,-9.7,0,-36.5,6,26.9,0.174748985,0.697439497,-0.151036103,0.678365429
809,2027832,569470,1.074,0.047,-0.283,1.7,-7.8,0,-36.5,6,26.9,0.174687948,0.697561571,-0.151036103,0.678273873
810,2029404,569480,1.046,0.059,-0.298,1.3,-6.2,0.2,-36.5,6,26.9,0.17465743,0.697653127,-0.151066622,0.678182318
811,2031641,569480,1.039,0.051,-0.286,1.2,-4.6,0.2,-36,5.7,26.4,0.174596393,0.697714164,-0.151066622,0.678121281
812,2034123,569480,1.011,0.036,-0.262,1.2,-3.1,0.2,-36,5.7,26.4,0.174565874,0.697775201,-0.151066622,0.678060244
813,2037713,569480,0.996,0.036,-0.257,1,-1.8,0.2,-36,5.7,26.4,0.174565874,0.697805719,-0.151066622,0.678029725
814,2039990,569490,0.992,0.052,-0.234,1,-0.9,0.2,-36,5.7,26.4,0.174535356,0.697805719,-0.151036103,0.678029725
815,2042143,569490,0.992,0.048,-0.203,1.1,-0.4,0.2,-36,5.8,26.2,0.174474319,0.698019349,-0.151066622,0.677816095
816,2044461,569490,0.992,0.048,-0.203,1.1,-0.1,0.1,-36,5.8,26.2,0.1744438,0.698019349,-0.151066622,0.677816095
817,2046628,569490,1,0.064,-0.144,1,0,0.2,-36,5.8,26.2,0.174413282,0.698049867,-0.151036103,0.677846614
818,2049223,569500,1.008,0.067,-0.121,0.7,0,0.2,-36,5.8,26.2,0.174413282,0.698049867,-0.151036103,0.677846614
819,2052635,569500,1.016,0.075,-0.105,0.5,0,0.2,-36,6,27.5,0.174382763,0.698049867,-0.151036103,0.677846614
820,2054185,569500,1.023,0.067,-0.055,0.2,0.2,0.1,-36,6,27.5,0.174382763,0.698049867,-0.151036103,0.677846614
821,2056706,569500,1.027,0.075,-0.035,0,0.7,0.1,-36,6,27.5,0.174382763,0.698019349,-0.151036103,0.677846614
822,2059047,569510,1.024,0.068,-0.019,-0.4,1.5,0,-36,6,27.5,0.174413282,0.69798883,-0.151036103,0.677877132
823,2062526,569510,1.024,0.06,-0.012,-0.8,2.3,0.1,-35.9,6,27.4,0.174413282,0.697958312,-0.151036103,0.677907651
824,2064800,569510,1.008,0.044,0.015,-1.2,3.1,0.2,-35.9,6,27.4,0.1744438,0.697897275,-0.151036103,0.677968688
825,2066872,569510,0.989,0.04,0.024,-1.7,3.9,0.1,-35.9,6,27.4,0.174474319,0.697836238,-0.151066622,0.677999207
826,2069143,569520,0.973,0.037,0.024,-1.9,4.5,0.1,-35.9,6,27.4,0.174535356,0.697775201,-0.151066622,0.678090762
827,2071946,569520,0.954,0.033,0.025,-1.9,5,0,-35.8,5.9,27.4,0.174565874,0.697683645,-0.15109714,0.678151799
828,2074131,569520,0.926,0.025,0.03,-1.8,5,0.1,-35.8,5.9,27.4,0.174626911,0.69759209,-0.15109714,0.678212836
829,2077257,569520,0.922,0.021,0.034,-1.7,4.7,0.1,-35.8,5.9,27.4,0.17465743,0.697531053,-0.15109714,0.678273873
830,2080221,569530,0.922,0.021,0.038,-1.6,4,0.2,-35.8,5.9,27.4,0.174687948,0.697470016,-0.151127659,0.67833491
831,2081807,569530,0.934,0.017,0.041,-1.4,3,0.2,-36,5.4,27,0.174718467,0.697408979,-0.151127659,0.678395947
832,2085118,569530,0.938,0.021,0.049,-1.2,1.8,0.2,-36,5.4,27,0.174748985,0.69737846,-0.151158177,0.678395947
833,2087148,569530,0.95,0.013,0.041,-1,0.6,0.2,-36,5.4,27,0.174748985,0.697347942,-0.151158177,0.678426466
834,2089401,569540,0.961,0.021,0.044,-0.7,-0.3,0.1,-36,5.4,27,0.174748985,0.697347942,-0.151188696,0.678395947
835,2092356,569540,0.992,0.033,0.043,-0.4,-1,0.1,-35.9,5.3,27.3,0.174748985,0.697256386,-0.151188696,0.678487503
836,2094752,569540,1,0.029,0.047,0,-1.5,0,-35.9,5.3,27.3,0.174748985,0.697286905,-0.151219214,0.678487503
837,2097046,569540,1.008,0.032,0.043,0.2,-1.8,0,-35.9,5.3,27.3,0.174748985,0.697317423,-0.151219214,0.678456984
838,2099908,569550,1.02,0.04,0.038,0.5,-1.8,0,-35.9,5.3,27.3,0.174718467,0.697347942,-0.151219214,0.678426466
839,2102153,569550,1.012,0.044,0.035,0.7,-1.5,0,-35.8,7.2,28.7,0.174718467,0.69737846,-0.151219214,0.678395947
840,2105143,569550,1.008,0.048,0.027,0.7,-1.1,0.1,-35.8,7.2,28.7,0.174687948,0.697408979,-0.151188696,0.678395947
841,2106697,569550,0.989,0.048,0.024,0.8,-0.4,0.1,-35.8,7.2,28.7,0.17465743,0.697408979,-0.151188696,0.678395947
842,2109368,569560,0.965,0.045,0.017,0.8,0,0.1,-35.8,7.2,28.7,0.17465743,0.697408979,-0.151188696,0.678395947
843,2112525,569560,0.954,0.045,0.009,0.7,0.4,0,-36,4.6,26.1,0.17465743,0.697408979,-0.151158177,0.678395947
844,2114118,569560,0.946,0.045,0.006,0.6,0.5,0,-36,4.6,26.1,0.174626911,0.697408979,-0.151158177,0.678395947
845,2116872,569560,0.946,0.041,-0.009,0.4,0.1,0,-36,4.6,26.1,0.174626911,0.697408979,-0.151158177,0.678395947
846,2119044,569570,0.946,0.033,-0.013,0.2,-0.6,0,-36,4.6,26.1,0.174626911,0.697408979,-0.151158177,0.678395947
847,2122308,569570,0.953,0.033,-0.017,0.1,-1.6,0,-36,4.4,26,0.174626911,0.697439497,-0.151158177,0.678365429
848,2124519,569570,0.961,0.037,-0.029,0,-2.6,0.1,-36,4.4,26,0.174596393,0.697470016,-0.151158177,0.67833491
849,2127719,569570,0.985,0.036,-0.046,0,-3.4,0.1,-36,4.4,26,0.174596393,0.697531053,-0.151188696,0.678273873
850,2129606,569580,0.996,0.036,-0.046,0.2,-3.8,0.1,-36,4.4,26,0.174565874,0.69759209,-0.151188696,0.678212836
851,2132433,569580,1.004,0.04,-0.058,0.4,-4,0.1,-36,4.9,26,0.174565874,0.697653127,-0.151219214,0.678182318
852,2134069,569580,1.027,0.048,-0.063,0.4,-4.1,0.1,-36,4.9,26,0.174535356,0.697714164,-0.151219214,0.678121281
853,2137074,569580,1.023,0.044,-0.066,0.5,-3.9,0,-36,4.9,26,0.174504837,0.697775201,-0.151219214,0.678060244
854,2140074,569590,1.027,0.048,-0.067,0.5,-3.5,0,-36,4.9,26,0.174474319,0.697836238,-0.151219214,0.677999207
855,2142114,569590,1.027,0.052,-0.074,0.5,-2.8,0,-36.2,4.9,26.1,0.174474319,0.697958312,-0.151219214,0.677846614
856,2145813,569590,1.023,0.048,-0.066,0.4,-1.9,0,-36.2,4.9,26.1,0.1744438,0.69798883,-0.151249733,0.677816095
857,2147860,569590,1.004,0.048,-0.074,0.2,-1.1,0,-36.2,4.9,26.1,0.1744438,0.698019349,-0.151249733,0.677816095
858,2149108,569600,0.992,0.044,-0.077,0.1,-0.3,0.1,-36.2,4.9,26.1,0.1744438,0.698019349,-0.151249733,0.677816095
859,2152271,569600,0.981,0.036,-0.073,0,0,0.1,-36,7.2,27.5,0.1744438,0.698019349,-0.151249733,0.677816095
860,2154497,569600,0.969,0.036,-0.073,0,0.2,0,-36,7.2,27.5,0.1744438,0.698019349,-0.151249733,0.677816095
861,2156613,569600,0.965,0.033,-0.065,0,0.4,0,-36,7.2,27.5,0.1744438,0.69798883,-0.151249733,0.677816095
862,2159844,569610,0.969,0.036,-0.065,0,0.4,0.1,-36,7.2,27.5,0.1744438,0.69798883,-0.151249733,0.677816095
863,2161845,569610,0.977,0.036,-0.049,0,0.4,0.1,-35.6,6.5,26.9,0.1744438,0.69798883,-0.151249733,0.677846614
864,2165647,569610,0.981,0.036,-0.049,0,0.2,0.1,-35.6,6.5,26.9,0.1744438,0.69798883,-0.151249733,0.677846614
865,2167410,569610,0.985,0.04,-0.046,0,0,0.1,-35.6,6.5,26.9,0.1744438,0.69798883,-0.151249733,0.677846614
866,2169396,569620,1,0.044,-0.027,0.1,-0.2,0,-35.6,6.5,26.9,0.174413282,0.69798883,-0.151249733,0.677846614
867,2171946,569620,1.008,0.048,-0.027,0.1,-0.4,0,-35.4,6.9,27,0.174413282,0.69798883,-0.151249733,0.677816095
868,2174774,569620,1.008,0.052,-0.023,0.2,-0.5,0,-35.4,6.9,27,0.174413282,0.69798883,-0.151249733,0.677816095
869,2176819,569620,1.012,0.048,-0.019,0.2,-0.4,0,-35.4,6.9,27,0.174413282,0.698019349,-0.151249733,0.677816095
870,2179629,569630,1.004,0.044,-0.011,0.1,0,0,-35.4,6.9,27,0.174413282,0.698019349,-0.151249733,0.677816095
871,2181770,569630,0.992,0.052,-0.007,0.1,0.3,0,-35.3,7.2,26.7,0.174413282,0.698019349,-0.151249733,0.677816095
872,2184251,569630,0.985,0.048,-0.01,0,0.7,0.1,-35.3,7.2,26.7,0.174413282,0.69798883,-0.151249733,0.677846614
873,2186771,569630,0.973,0.04,-0.01,0,1.1,0.2,-35.3,7.2,26.7,0.174413282,0.69798883,-0.151249733,0.677846614
874,2189979,569640,0.965,0.037,-0.002,-0.1,1.3,0.2,-35.3,7.2,26.7,0.174413282,0.697958312,-0.151249733,0.677877132
875,2192197,569640,0.961,0.033,-0.006,-0.4,1.4,0,-35.5,7.4,27.1,0.1744438,0.697897275,-0.151219214,0.677938169
876,2194468,569640,0.961,0.033,-0.006,-0.4,1.4,0,-35.5,7.4,27.1,0.174474319,0.697866756,-0.151219214,0.677938169
877,2197185,569640,0.969,0.033,-0.006,-0.4,1.1,0,-35.5,7.4,27.1,0.174474319,0.697866756,-0.151219214,0.677968688
878,2200178,569650,0.969,0.033,0.001,-0.3,0.7,0,-35.5,7.4,27.1,0.174474319,0.697836238,-0.151219214,0.677968688
879,2201692,569650,0.981,0.033,-0.006,-0.3,0.2,0,-35.7,5.7,27.2,0.174474319,0.697836238,-0.151219214,0.677968688
880,2204462,569650,0.992,0.032,-0.003,-0.1,-0.1,0,-35.7,5.7,27.2,0.174474319,0.697836238,-0.151219214,0.677968688
881,2207491,569650,0.992,0.032,0,0,-0.6,0,-35.7,5.7,27.2,0.174474319,0.697836238,-0.151249733,0.677968688
882,2209109,569660,1,0.036,-0.003,0,-0.8,0,-35.7,5.7,27.2,0.174474319,0.697866756,-0.151249733,0.677938169
883,2211945,569660,1,0.04,0,0.1,-0.8,0,-35.7,6.1,26.8,0.174474319,0.697866756,-0.151249733,0.677938169
884,2214691,569660,1,0.04,-0.003,0.1,-0.7,0.1,-35.7,6.1,26.8,0.174474319,0.697897275,-0.151249733,0.677938169
885,2217701,569660,0.992,0.044,-0.007,0.2,-0.6,0.2,-35.7,6.1,26.8,0.174474319,0.697897275,-0.151249733,0.677907651
886,2219338,569670,0.985,0.04,-0.01,0.2,-0.4,0.2,-35.7,6.1,26.8,0.1744438,0.697897275,-0.151249733,0.677907651
887,2221674,569670,0.981,0.04,-0.014,0.1,-0.1,0,-36.2,6,26.9,0.1744438,0.697897275,-0.151249733,0.677907651
888,2224226,569670,0.977,0.044,-0.014,0.1,0,0,-36.2,6,26.9,0.1744438,0.697897275,-0.151249733,0.677907651
889,2226708,569670,0.973,0.04,-0.018,0.1,0,0,-36.2,6,26.9,0.1744438,0.697897275,-0.151249733,0.677907651
890,2230325,569680,0.969,0.04,-0.022,0.1,0,0,-36.2,6,26.9,0.1744438,0.697897275,-0.151249733,0.677907651
891,2232001,569680,0.973,0.033,-0.03,0.2,0,0,-36.7,6.4,27.3,0.1744438,0.697897275,-0.151219214,0.677907651
892,2234747,569680,0.981,0.036,-0.018,0.1,0,0,-36.7,6.4,27.3,0.1744438,0.697897275,-0.151219214,0.677907651
893,2237742,569680,0.985,0.04,-0.026,0,-0.1,0,-36.7,6.4,27.3,0.1744438,0.697927793,-0.151219214,0.677907651
894,2239237,569690,0.985,0.04,-0.026,0,-0.4,0,-36.7,6.4,27.3,0.1744438,0.697927793,-0.151219214,0.677907651
895,2242021,569690,1,0.04,-0.026,0.1,-1.1,0,-37.5,6.4,27.2,0.174413282,0.697958312,-0.151249733,0.677846614
896,2244751,569690,1,0.04,-0.026,0.1,-1.1,0,-37.5,6.4,27.2,0.174413282,0.69798883,-0.151249733,0.677846614
897,2246567,569690,1.004,0.044,-0.023,0.2,-1.2,0,-37.5,6.4,27.2,0.174413282,0.698019349,-0.151249733,0.677816095
898,2250034,569700,1,0.04,-0.026,0.2,-1.1,0,-37.5,6.4,27.2,0.174413282,0.698019349,-0.151249733,0.677816095
899,2251704,569700,0.996,0.044,-0.022,0.2,-0.8,0,-35,4.9,27.2,0.174382763,0.698049867,-0.151249733,0.677785577
900,2254890,569700,0.992,0.04,-0.026,0.1,-0.4,0,-35,4.9,27.2,0.174382763,0.698049867,-0.151249733,0.677785577
901,2257647,569700,0.988,0.044,-0.026,0.1,-0.1,0,-35,4.9,27.2,0.174382763,0.698049867,-0.151249733,0.677785577
902,2259359,569710,0.981,0.04,-0.03,0.1,0,0,-35,4.9,27.2,0.174382763,0.698049867,-0.151249733,0.677785577
903,2262456,569710,0.973,0.033,-0.026,0.1,0.1,0,-37.7,7.2,27.2,0.174382763,0.698049867,-0.151249733,0.677785577
904,2264701,569710,0.977,0.029,-0.026,0.1,0.2,0,-37.7,7.2,27.2,0.174382763,0.698049867,-0.151249733,0.677785577
905,2267604,569710,0.977,0.036,-0.03,0.1,0.2,0,-37.7,7.2,27.2,0.174382763,0.698049867,-0.151249733,0.677785577
906,2269125,569720,0.981,0.036,-0.022,0.1,0.2,0,-37.7,7.2,27.2,0.174382763,0.698049867,-0.151249733,0.677816095
907,2272207,569720,0.985,0.036,-0.026,0,0,0,-37.5,7.7,27.4,0.174382763,0.698049867,-0.151249733,0.677816095
908,2275293,569720,0.985,0.04,-0.026,0,-0.2,0,-37.5,7.7,27.4,0.174382763,0.698049867,-0.151249733,0.677785577
909,2276864,569720,0.992,0.04,-0.018,0,-0.4,0,-37.5,7.7,27.4,0.174382763,0.698049867,-0.151249733,0.677785577
910,2279053,569730,0.996,0.04,-0.022,0.1,-0.4,0,-37.5,7.7,27.4,0.174382763,0.698049867,-0.151249733,0.677785577
911,2281959,569730,0.996,0.036,-0.019,0.1,-0.5,0,-37.5,7.5,27.2,0.174352245,0.698049867,-0.151249733,0.677785577
912,2285097,569730,0.996,0.04,-0.026,0.1,-0.3,0,-37.5,7.5,27.2,0.174352245,0.698080386,-0.151249733,0.677785577
913,2286687,569730,0.992,0.04,-0.022,0.1,-0.1,0,-37.5,7.5,27.2,0.174352245,0.698080386,-0.151249733,0.677755058
914,2289564,569740,0.985,0.04,-0.022,0,0,0,-37.5,7.5,27.2,0.174352245,0.698080386,-0.151249733,0.677755058
915,2291879,569740,0.985,0.036,-0.022,0,0.2,0,-36.9,7.6,27.2,0.174382763,0.698080386,-0.151219214,0.677755058
916,2294074,569740,0.981,0.036,-0.022,0,0.2,0,-36.9,7.6,27.2,0.174382763,0.698080386,-0.151219214,0.677755058
917,2296641,569740,0.981,0.04,-0.022,0,0.2,0,-36.9,7.6,27.2,0.174382763,0.698080386,-0.151219214,0.677755058
918,2300827,569750,0.981,0.036,-0.022,0,0.1,0,-36.9,7.6,27.2,0.174382763,0.698080386,-0.151219214,0.677755058
919,2303053,569750,0.985,0.04,-0.018,0,0.1,0,-35.5,5.7,27,0.174382763,0.698080386,-0.151219214,0.677755058
920,2305281,569750,0.988,0.036,-0.014,0,0.1,0,-35.5,5.7,27,0.174382763,0.698080386,-0.151219214,0.677755058
921,2307621,569750,0.985,0.036,-0.014,0,0.1,0,-35.5,5.7,27,0.174382763,0.698080386,-0.151219214,0.677755058
922,2309824,569760,0.988,0.044,-0.022,-0.1,0,0,-35.5,5.7,27,0.174382763,0.698080386,-0.151219214,0.677755058
923,2312083,569760,0.988,0.04,-0.014,0,-0.1,0,-36,6,27.3,0.174382763,0.698080386,-0.151219214,0.677755058
924,2314301,569760,0.988,0.04,-0.014,0,-0.1,0,-36,6,27.3,0.174382763,0.698080386,-0.151219214,0.677755058
925,2316638,569760,0.988,0.044,-0.018,0,-0.1,0,-36,6,27.3,0.174382763,0.698080386,-0.151219214,0.677755058
926,2319201,569770,0.988,0.04,-0.014,0,-0.1,0,-36,6,27.3,0.174382763,0.698080386,-0.151219214,0.677755058
927,2323361,569770,0.985,0.036,-0.018,0.1,0,0,-35.6,6,27.3,0.174382763,0.698080386,-0.151219214,0.677755058
928,2325546,569770,0.981,0.044,-0.022,0.1,0.1,0.1,-35.6,6,27.3,0.174382763,0.698080386,-0.151219214,0.677755058
929,2327223,569770,0.985,0.04,-0.022,0,0.1,0.1,-35.6,6,27.3,0.174382763,0.698080386,-0.151219214,0.677755058
930,2329514,569780,0.981,0.04,-0.01,0,0,0,-35.6,6,27.3,0.174382763,0.698080386,-0.151219214,0.677755058
931,2331813,569780,0.981,0.033,-0.018,0,-0.1,0,-35.6,6.3,27.1,0.174382763,0.698080386,-0.151219214,0.677755058
932,2334274,569780,0.981,0.036,-0.018,0,-0.3,0,-35.6,6.3,27.1,0.174382763,0.698080386,-0.151249733,0.677755058
933,2336638,569780,0.985,0.036,-0.018,0.1,-0.2,0,-35.6,6.3,27.1,0.174352245,0.698080386,-0.151249733,0.677755058
934,2340011,569790,0.988,0.036,-0.018,0.1,-0.3,0.2,-35.6,6.3,27.1,0.174352245,0.698080386,-0.151249733,0.677755058
935,2342541,569790,0.992,0.04,-0.014,0,-0.2,0,-35.2,5.7,26.8,0.174352245,0.698080386,-0.151249733,0.677755058
936,2344359,569790,0.992,0.04,-0.014,0,-0.2,0,-35.2,5.7,26.8,0.174352245,0.698080386,-0.151249733,0.677755058
937,2346996,569790,0.992,0.04,-0.026,0.1,-0.1,0,-35.2,5.7,26.8,0.174321726,0.698080386,-0.151249733,0.677755058
938,2349560,569800,0.992,0.04,-0.018,0.1,-0.1,0,-35.2,5.7,26.8,0.174321726,0.698080386,-0.151249733,0.677755058
939,2351789,569800,0.992,0.04,-0.022,0,-0.2,0,-36.5,6,27.1,0.174321726,0.698080386,-0.151249733,0.677755058
940,2354443,569800,0.985,0.04,-0.018,0,-0.3,-0.1,-36.5,6,27.1,0.174321726,0.698110904,-0.151249733,0.677755058
941,2356917,569800,0.985,0.04,-0.026,0,-0.3,-0.2,-36.5,6,27.1,0.174321726,0.698110904,-0.151249733,0.677755058
942,2359295,569810,0.988,0.04,-0.018,0.1,-0.3,-0.1,-36.5,6,27.1,0.174321726,0.698110904,-0.151249733,0.67772454
943,2362969,569810,0.981,0.04,-0.022,0.1,-0.2,0,-35.4,6,27.3,0.174321726,0.698110904,-0.151249733,0.67772454
944,2364927,569810,0.985,0.036,-0.022,0,-0.1,0,-35.4,6,27.3,0.174321726,0.698110904,-0.151249733,0.67772454
945,2367381,569810,0.985,0.036,-0.022,0,-0.1,0,-35.4,6,27.3,0.174321726,0.698110904,-0.151249733,0.67772454
946,2369551,569820,0.985,0.04,-0.018,0,0,0,-35.4,6,27.3,0.174321726,0.698110904,-0.151249733,0.67772454
947,2371892,569820,0.988,0.04,-0.018,0,0.1,0.1,-35.1,6,27.1,0.174321726,0.698110904,-0.151249733,0.67772454
948,2374429,569820,0.988,0.04,-0.018,0,0.1,0.1,-35.1,6,27.1,0.174321726,0.698110904,-0.151249733,0.67772454
949,2376866,569820,0.988,0.036,-0.014,0,0.2,0.1,-35.1,6,27.1,0.174321726,0.698110904,-0.151249733,0.67772454
950,2380858,569830,0.988,0.036,-0.018,0,0.2,0.2,-35.1,6,27.1,0.174321726,0.698110904,-0.151249733,0.677755058
951,2383149,569830,0.988,0.04,-0.018,0,0.2,0.1,-34.9,6.4,27.2,0.174321726,0.698110904,-0.151249733,0.677755058
952,2385465,569830,0.985,0.04,-0.018,0,0.1,0.1,-34.9,6.4,27.2,0.174321726,0.698110904,-0.151249733,0.677755058
953,2387631,569830,0.985,0.04,-0.018,0,0.1,0,-34.9,6.4,27.2,0.174321726,0.698110904,-0.151249733,0.677755058
954,2389887,569840,0.985,0.04,-0.022,0.1,0,0,-34.9,6.4,27.2,0.174321726,0.698110904,-0.151249733,0.677755058
955,2392085,569840,0.985,0.04,-0.018,0,0,0,-35.4,6.1,27.2,0.174352245,0.698110904,-0.151219214,0.677755058
956,2394173,569840,0.985,0.04,-0.018,0,0,0,-35.4,6.1,27.2,0.174352245,0.698110904,-0.151219214,0.677755058
957,2396569,569840,0.985,0.036,-0.018,0,0,0,-35.4,6.1,27.2,0.174352245,0.698110904,-0.151219214,0.677755058
958,2399971,569850,0.981,0.036,-0.022,0,-0.2,0,-35.4,6.1,27.2,0.174352245,0.698110904,-0.151219214,0.677755058
959,2402188,569850,0.981,0.036,-0.022,0,-0.3,0,-36.9,6.1,27.2,0.174352245,0.698110904,-0.151219214,0.67772454
960,2404462,569850,0.985,0.04,-0.022,0,-0.4,0,-36.9,6.1,27.2,0.174352245,0.698110904,-0.151249733,0.67772454
961,2406780,569850,0.985,0.036,-0.018,0,-0.4,0,-36.9,6.1,27.2,0.174352245,0.698110904,-0.151249733,0.67772454
962,2411002,569860,0.985,0.04,-0.018,0,-0.3,0.2,-36.9,6.1,27.2,0.174321726,0.698141423,-0.151249733,0.67772454
963,2412637,569860,0.988,0.04,-0.018,0,-0.2,0.1,-34.6,6.2,27.5,0.174321726,0.698141423,-0.151249733,0.67772454
964,2414385,569860,0.996,0.04,-0.019,0.1,-0.1,0.1,-34.6,6.2,27.5,0.174321726,0.698141423,-0.151249733,0.67772454
965,2416844,569860,0.988,0.044,-0.026,0.1,0,0,-34.6,6.2,27.5,0.174321726,0.698141423,-0.151249733,0.67772454
966,2419253,569870,0.985,0.04,-0.014,0.1,0,0,-34.6,6.2,27.5,0.174321726,0.698141423,-0.151249733,0.67772454
967,2422583,569870,0.988,0.04,-0.018,0.1,0,-0.1,-34.6,6.2,27.2,0.174321726,0.698141423,-0.151249733,0.67772454
968,2424865,569870,0.985,0.04,-0.022,0.1,0,0,-34.6,6.2,27.2,0.174321726,0.698141423,-0.151249733,0.67772454
969,2427088,569870,0.981,0.04,-0.022,0.1,0,0,-34.6,6.2,27.2,0.174321726,0.698141423,-0.151249733,0.67772454
970,2429340,569880,0.981,0.04,-0.022,0.1,0,0,-34.6,6.2,27.2,0.174321726,0.698141423,-0.151249733,0.67772454
971,2431767,569880,0.981,0.036,-0.018,0,0,0,-34.7,6.2,27.4,0.174321726,0.698141423,-0.151249733,0.67772454
972,2434177,569880,0.985,0.044,-0.022,0,-0.1,0,-34.7,6.2,27.4,0.174321726,0.698141423,-0.151249733,0.677694021
973,2438365,569880,0.985,0.04,-0.018,0.1,-0.2,-0.2,-34.7,6.2,27.4,0.174321726,0.698141423,-0.151249733,0.677694021
974,2440106,569890,0.985,0.04,-0.014,0.1,-0.3,0,-34.7,6.2,27.4,0.174321726,0.698141423,-0.151219214,0.677694021
975,2441684,569890,0.988,0.036,-0.022,0,-0.2,0.1,-34.4,6,27.7,0.174352245,0.698141423,-0.151188696,0.677694021
976,2445145,569890,0.988,0.032,-0.026,0,-0.2,0.1,-34.4,6,27.7,0.174352245,0.698141423,-0.151188696,0.677694021
977,2447343,569890,0.988,0.044,-0.022,0,-0.2,0,-34.4,6,27.7,0.174352245,0.698141423,-0.151219214,0.677694021
978,2449349,569900,0.992,0.04,-0.018,0,-0.2,0,-34.4,6,27.7,0.174352245,0.698141423,-0.151219214,0.677694021
979,2451613,569900,0.985,0.04,-0.018,0,-0.2,0,-36,6,27.3,0.174352245,0.698171941,-0.151219214,0.677694021
980,2455957,569900,0.988,0.04,-0.018,0,-0.1,0,-36,6,27.3,0.174352245,0.698171941,-0.151219214,0.677694021
981,2458190,569900,0.988,0.04,-0.018,0,0,0,-36,6,27.3,0.174352245,0.698171941,-0.151219214,0.677694021
982,2460436,569910,0.988,0.04,-0.018,0,0.1,0,-36,6,27.3,0.174352245,0.698171941,-0.151219214,0.677694021
983,2462711,569910,0.985,0.044,-0.026,0,0.1,0,-35.8,6.1,27.1,0.174352245,0.698171941,-0.151219214,0.677694021
984,2464880,569910,0.985,0.04,-0.026,0,0.1,0.1,-35.8,6.1,27.1,0.174352245,0.698141423,-0.151219214,0.677694021
985,2467186,569910,0.981,0.036,-0.026,0,0.1,0.2,-35.8,6.1,27.1,0.174352245,0.698141423,-0.151219214,0.677694021
986,2469442,569920,0.981,0.036,-0.022,0,0,0.2,-35.8,6.1,27.1,0.174352245,0.698141423,-0.151219214,0.677694021
987,2471691,569920,0.985,0.04,-0.022,0,0,0,-36,6.1,27.2,0.174352245,0.698141423,-0.151219214,0.677694021
988,2475077,569920,0.981,0.036,-0.022,0,-0.1,0,-36,6.1,27.2,0.174321726,0.698141423,-0.151219214,0.677694021
989,2477239,569920,0.985,0.04,-0.018,0,-0.2,0,-36,6.1,27.2,0.174321726,0.698171941,-0.151219214,0.677694021
990,2479395,569930,0.988,0.036,-0.014,0,-0.2,0,-36,6.1,27.2,0.174321726,0.698171941,-0.151219214,0.677694021
991,2481709,569930,0.992,0.04,-0.011,0,-0.1,0,-35.8,6.2,27.5,0.174321726,0.698171941,-0.151219214,0.677694021
992,2484856,569930,0.988,0.04,-0.018,0,-0.1,0,-35.8,6.2,27.5,0.174321726,0.698171941,-0.151219214,0.677694021
993,2487175,569930,0.988,0.044,-0.018,0,0,0,-35.8,6.2,27.5,0.174321726,0.698171941,-0.151219214,0.677694021
994,2489160,569940,0.985,0.044,-0.014,0,0,0,-35.8,6.2,27.5,0.174321726,0.698171941,-0.151219214,0.677694021
995,2491789,569940,0.985,0.04,-0.018,0.1,0.2,0,-36,6,27.9,0.174382763,0.698141423,-0.151158177,0.67772454
996,2494115,569940,0.985,0.04,-0.018,0.1,0.2,0,-36,6,27.9,0.174382763,0.698110904,-0.151158177,0.67772454
997,2497425,569940,0.981,0.04,-0.022,0.1,0.2,0,-36,6,27.9,0.174382763,0.698110904,-0.151158177,0.67772454
998,2499769,569950,0.981,0.04,-0.018,0.1,0.2,0,-36,6,27.9,0.174382763,0.698110904,-0.151158177,0.67772454
999,2501899,569950,0.981,0.036,-0.022,0,0.1,0,-35.9,5.7,26.2,0.174382763,0.698110904,-0.151158177,0.67772454
1000,2504997,569950,0.981,0.036,-0.018,0,0,0,-35.9,5.7,26.2,0.174382763,0.698110904,-0.151158177,0.67772454
1001,2506719,569950,0.985,0.04,-0.018,0,0,0,-35.9,5.7,26.2,0.174382763,0.698110904,-0.151158177,0.67772454
1002,2509809,569960,0.985,0.032,-0.018,0,-0.1,0,-35.9,5.7,26.2,0.174382763,0.698110904,-0.151158177,0.67772454
1003,2513157,569960,0.985,0.044,-0.018,0,-0.2,0,-36.1,5.9,28,0.174382763,0.698110904,-0.151158177,0.67772454
1004,2515292,569960,0.992,0.04,-0.022,0,-0.2,0,-36.1,5.9,28,0.174382763,0.698141423,-0.151158177,0.67772454
1005,2517558,569960,0.992,0.036,-0.018,0,-0.2,0,-36.1,5.9,28,0.174382763,0.698141423,-0.151158177,0.67772454
1006,2519776,569970,0.992,0.036,-0.018,0,-0.1,0,-36.1,5.9,28,0.174382763,0.698141423,-0.151158177,0.67772454
1007,2522131,569970,0.988,0.04,-0.014,0,0,0,-35.6,6.3,28.2,0.174382763,0.698141423,-0.151158177,0.67772454
1008,2524257,569970,0.985,0.04,-0.018,0,0,0,-35.6,6.3,28.2,0.174382763,0.698141423,-0.151158177,0.67772454
1009,2526862,569970,0.985,0.044,-0.018,0,0,0,-35.6,6.3,28.2,0.174382763,0.698141423,-0.151158177,0.67772454
1010,2529146,569980,0.985,0.036,-0.018,0,-0.1,0,-35.6,6.3,28.2,0.174382763,0.698141423,-0.151158177,0.67772454
1011,2532250,569980,0.981,0.036,-0.018,0,-0.1,-0.1,-35.7,5.8,28.3,0.174382763,0.698141423,-0.151158177,0.677694021
1012,2534626,569980,0.977,0.036,-0.026,0,0,0,-35.7,5.8,28.3,0.174382763,0.698141423,-0.151158177,0.677694021
1013,2537962,569980,0.981,0.04,-0.018,0,0.2,0.1,-35.7,5.8,28.3,0.174382763,0.698141423,-0.151158177,0.67772454
1014,2539383,569990,0.985,0.04,-0.018,0,0.4,0.2,-35.7,5.8,28.3,0.174382763,0.698141423,-0.151158177,0.67772454
1015,2542454,569990,0.988,0.032,-0.018,0,0.1,0.1,-35.7,6.1,28.2,0.174382763,0.698141423,-0.151158177,0.67772454
1016,2544768,569990,0.988,0.032,-0.018,0,0.1,0.1,-35.7,6.1,28.2,0.174382763,0.698141423,-0.151158177,0.67772454
1017,2547336,569990,0.988,0.04,-0.026,0.1,-0.1,0,-35.7,6.1,28.2,0.174382763,0.698141423,-0.151158177,0.67772454
1018,2549440,570000,0.988,0.044,-0.022,0,-0.5,0,-35.7,6.1,28.2,0.174382763,0.698141423,-0.151158177,0.677694021
1019,2551691,570000,0.992,0.04,-0.018,0,-0.6,0,-35.7,6,25.5,0.174382763,0.698141423,-0.151158177,0.677694021
1020,2554225,570000,0.992,0.044,-0.018,0,-0.5,-0.1,-35.7,6,25.5,0.174382763,0.698171941,-0.151158177,0.677694021
1021,2557809,570000,0.992,0.036,-0.018,0,-0.3,0,-35.7,6,25.5,0.174382763,0.698171941,-0.151158177,0.677694021
1022,2559201,570010,0.985,0.04,-0.014,0,-0.1,0,-35.7,6,25.5,0.174382763,0.698171941,-0.151158177,0.677663503
1023,2562185,570010,0.985,0.04,-0.022,0,0,0,-35.1,6.1,27,0.174382763,0.698171941,-0.151158177,0.677663503
1024,2564152,570010,0.985,0.04,-0.018,0,0.1,0,-35.1,6.1,27,0.174382763,0.698171941,-0.151158177,0.677663503
1025,2566918,570010,0.981,0.036,-0.026,0,0.1,0,-35.1,6.1,27,0.174382763,0.698171941,-0.151158177,0.677694021
1026,2569161,570020,0.981,0.04,-0.018,0,0.1,0,-35.1,6.1,27,0.174382763,0.698171941,-0.151158177,0.677694021
1027,2571724,570020,0.985,0.04,-0.022,0,0.1,0,-35.5,6,26.6,0.174382763,0.698171941,-0.151158177,0.677694021
1028,2575310,570020,0.985,0.036,-0.018,0,0,0,-35.5,6,26.6,0.174382763,0.698171941,-0.151158177,0.677694021
1029,2576788,570020,0.985,0.04,-0.018,0,0,0,-35.5,6,26.6,0.174382763,0.698171941,-0.151158177,0.677694021
1030,2579329,570030,0.988,0.036,-0.018,0,0,0,-35.5,6,26.6,0.174382763,0.698171941,-0.151158177,0.677694021
1031,2581615,570030,0.985,0.04,-0.018,0,0,0,-35.7,5.7,26.1,0.174382763,0.698171941,-0.151158177,0.677694021
1032,2585905,570030,0.988,0.04,-0.022,0,-0.1,0,-35.7,5.7,26.1,0.174382763,0.698171941,-0.151158177,0.677694021
1033,2588110,570030,0.988,0.04,-0.022,0,-0.1,0,-35.7,5.7,26.1,0.174382763,0.698171941,-0.151158177,0.677663503
1034,2589663,570040,0.988,0.04,-0.018,0,-0.1,0,-35.7,5.7,26.1,0.174382763,0.698171941,-0.151158177,0.677663503
1035,2591871,570040,0.985,0.044,-0.014,0,-0.1,0,-35.5,5.9,25.5,0.174413282,0.698171941,-0.151127659,0.677663503
1036,2594384,570040,0.985,0.044,-0.022,0,-0.1,0,-35.5,5.9,25.5,0.174413282,0.698171941,-0.151127659,0.677663503
1037,2597503,570040,0.985,0.044,-0.026,0,0,0,-35.5,5.9,25.5,0.174413282,0.698171941,-0.151127659,0.677663503
1038,2599301,570050,0.985,0.04,-0.018,0,0.1,0,-35.5,5.9,25.5,0.174413282,0.698171941,-0.151127659,0.677663503
1039,2601956,570050,0.981,0.036,-0.022,0,0.1,0.1,-35.7,6,27.3,0.174413282,0.698171941,-0.151127659,0.677663503
1040,2604198,570050,0.985,0.044,-0.022,0,0,0.2,-35.7,6,27.3,0.174413282,0.698171941,-0.151127659,0.677663503
1041,2608370,570050,0.981,0.04,-0.022,0,0,0.1,-35.7,6,27.3,0.174413282,0.698171941,-0.151127659,0.677663503
1042,2610555,570060,0.981,0.04,-0.014,0,0,0,-35.7,6,27.3,0.174413282,0.698171941,-0.151127659,0.677663503
1043,2612043,570060,0.988,0.036,-0.022,0,-0.1,-0.1,-36.2,5.6,27.1,0.174413282,0.698171941,-0.151127659,0.677663503
1044,2614342,570060,0.988,0.04,-0.018,0,-0.1,-0.1,-36.2,5.6,27.1,0.174413282,0.69820246,-0.151127659,0.677663503
1045,2617676,570060,0.988,0.036,-0.022,0,-0.1,0,-36.2,5.6,27.1,0.174413282,0.69820246,-0.151127659,0.677663503
1046,2619194,570070,0.988,0.04,-0.018,0,-0.1,0,-36.2,5.6,27.1,0.174413282,0.69820246,-0.151127659,0.677663503
1047,2621857,570070,0.988,0.044,-0.018,0.1,0,0,-36,5.4,27.2,0.174413282,0.69820246,-0.151127659,0.677663503
1048,2624184,570070,0.988,0.036,-0.022,0.1,0,0,-36,5.4,27.2,0.174382763,0.69820246,-0.151127659,0.677663503
1049,2627497,570070,0.985,0.04,-0.018,0.1,0,0,-36,5.4,27.2,0.174382763,0.69820246,-0.151127659,0.677663503
1050,2629719,570080,0.985,0.036,-0.018,0,0,0,-36,5.4,27.2,0.174382763,0.69820246,-0.151127659,0.677663503
1051,2632042,570080,0.985,0.036,-0.014,0,0,0,-35.9,5.4,27,0.174382763,0.69820246,-0.151127659,0.677663503
1052,2634273,570080,0.985,0.04,-0.018,0,0,0,-35.9,5.4,27,0.174413282,0.69820246,-0.151127659,0.677663503
1053,2638382,570080,0.985,0.04,-0.022,0,0,0,-35.9,5.4,27,0.174413282,0.69820246,-0.151127659,0.677663503
1054,2639738,570090,0.985,0.036,-0.018,0,0,0,-35.9,5.4,27,0.174413282,0.69820246,-0.151127659,0.677663503
1055,2642769,570090,0.988,0.036,-0.022,0,0,0,-35.4,4.9,27.1,0.174413282,0.698171941,-0.15109714,0.677663503
1056,2644227,570090,0.988,0.036,-0.022,0,0,0,-35.4,4.9,27.1,0.174413282,0.698171941,-0.15109714,0.677663503
1057,2647271,570090,0.988,0.044,-0.022,0,0,0,-35.4,4.9,27.1,0.174413282,0.698171941,-0.15109714,0.677663503
1058,2650254,570100,0.985,0.036,-0.018,0.1,0,0,-35.4,4.9,27.1,0.174413282,0.698171941,-0.15109714,0.677663503
1059,2651796,570100,0.988,0.04,-0.014,0.1,0,0,-35.8,7.2,28.3,0.174413282,0.698171941,-0.15109714,0.677663503
1060,2654348,570100,0.988,0.04,-0.018,0.2,0,0,-35.8,7.2,28.3,0.174413282,0.69820246,-0.15109714,0.677663503
1061,2657772,570100,0.988,0.04,-0.022,0.1,-0.1,0,-35.8,7.2,28.3,0.174413282,0.69820246,-0.15109714,0.677663503
1062,2659244,570110,0.992,0.04,-0.018,0,0,0,-35.8,7.2,28.3,0.174413282,0.69820246,-0.15109714,0.677663503
1063,2662285,570110,0.992,0.04,-0.014,0,0,0,-35.7,4.7,25.8,0.174413282,0.69820246,-0.15109714,0.677663503
1064,2665285,570110,0.985,0.036,-0.014,0,0.1,0,-35.7,4.7,25.8,0.174413282,0.69820246,-0.15109714,0.677663503
1065,2666700,570110,0.981,0.036,-0.014,0,0.1,0,-35.7,4.7,25.8,0.174413282,0.698171941,-0.15109714,0.677663503
1066,2669468,570120,0.981,0.036,-0.018,0,0.1,0,-35.7,4.7,25.8,0.174413282,0.698171941,-0.15109714,0.677663503
1067,2672543,570120,0.981,0.036,-0.014,0,0,-0.1,-36,4.9,25.9,0.174413282,0.698171941,-0.15109714,0.677663503
1068,2674126,570120,0.985,0.036,-0.022,0,0,-0.1,-36,4.9,25.9,0.174413282,0.698171941,-0.15109714,0.677663503
1069,2676740,570120,0.981,0.036,-0.03,0,0,-0.1,-36,4.9,25.9,0.174413282,0.698171941,-0.15109714,0.677663503
1070,2679774,570130,0.985,0.036,-0.014,0,0,0,-36,4.9,25.9,0.174413282,0.698171941,-0.15109714,0.677663503
1071,2682792,570130,0.985,0.04,-0.022,0,-0.1,0,-35.6,4.4,25.9,0.174413282,0.69820246,-0.15109714,0.677663503
1072,2684146,570130,0.988,0.036,-0.022,0,-0.3,0,-35.6,4.4,25.9,0.174413282,0.69820246,-0.15109714,0.677663503
1073,2687087,570130,0.992,0.04,-0.018,0,-0.3,0,-35.6,4.4,25.9,0.174413282,0.69820246,-0.15109714,0.677663503
1074,2690105,570140,0.988,0.04,-0.022,0,-0.3,0,-35.6,4.4,25.9,0.174413282,0.69820246,-0.15109714,0.677663503
1075,2691744,570140,0.988,0.036,-0.018,0,-0.2,0,-35.5,5,25.9,0.174413282,0.698232978,-0.15109714,0.677632984
1076,2694150,570140,0.988,0.036,-0.018,0,-0.2,0,-35.5,5,25.9,0.174413282,0.698232978,-0.15109714,0.677632984
1077,2697626,570140,0.988,0.036,-0.022,0,-0.1,0,-35.5,5,25.9,0.174413282,0.698232978,-0.15109714,0.677632984
1078,2699218,570150,0.988,0.04,-0.022,0,0,0,-35.5,5,25.9,0.174413282,0.698232978,-0.15109714,0.677632984
1079,2701630,570150,0.981,0.036,-0.022,0,0,0,-35.9,7.1,27.2,0.174413282,0.698232978,-0.15109714,0.677632984
1080,2704597,570150,0.988,0.04,-0.018,0,0.1,0,-35.9,7.1,27.2,0.174413282,0.698232978,-0.15109714,0.677632984
1081,2706766,570150,0.985,0.04,-0.018,0,0,0,-35.9,7.1,27.2,0.174413282,0.698232978,-0.15109714,0.677632984
1082,2709878,570160,0.988,0.036,-0.022,0,0,0,-35.9,7.1,27.2,0.174413282,0.698232978,-0.15109714,0.677632984
1083,2712023,570160,0.988,0.036,-0.018,0,-0.1,0,-36,6,26.8,0.174413282,0.698232978,-0.15109714,0.677632984
1084,2714281,570160,0.985,0.04,-0.018,0,0,0,-36,6,26.8,0.174413282,0.698232978,-0.15109714,0.677632984
1085,2716745,570160,0.988,0.04,-0.014,0,0,0,-36,6,26.8,0.174413282,0.698232978,-0.15109714,0.677632984
1086,2719515,570170,0.988,0.04,-0.018,0,0.1,0,-36,6,26.8,0.174413282,0.698232978,-0.15109714,0.677632984
1087,2722649,570170,0.992,0.04,-0.014,0,0,0,-35.9,6.9,27.2,0.174413282,0.698232978,-0.15109714,0.677632984
1088,2724283,570170,0.988,0.04,-0.018,0,0,0,-35.9,6.9,27.2,0.174413282,0.698232978,-0.15109714,0.677632984
1089,2726949,570170,0.992,0.044,-0.011,0,0,0,-35.9,6.9,27.2,0.174413282,0.698232978,-0.15109714,0.677632984
1090,2730210,570180,0.985,0.04,-0.022,0,0,0,-35.9,6.9,27.2,0.174413282,0.698232978,-0.15109714,0.677632984
1091,2732411,570180,0.985,0.036,-0.018,0,0,0,-35.6,7.3,27,0.174413282,0.698232978,-0.15109714,0.677632984
1092,2734742,570180,0.985,0.044,-0.018,0,0.1,0,-35.6,7.3,27,0.174413282,0.698232978,-0.15109714,0.677632984
1093,2736935,570180,0.985,0.036,-0.018,-0.1,0.1,0,-35.6,7.3,27,0.1744438,0.698232978,-0.15109714,0.677632984
1094,2739279,570190,0.981,0.04,-0.018,-0.1,0.1,0,-35.6,7.3,27,0.1744438,0.698232978,-0.15109714,0.677632984
1095,2741902,570190,0.988,0.04,-0.022,0,0.1,0,-35.4,7,27,0.1744438,0.69820246,-0.151066622,0.677632984
1096,2745253,570190,0.981,0.036,-0.026,0,0,0,-35.4,7,27,0.1744438,0.69820246,-0.151066622,0.677632984
1097,2746899,570190,0.985,0.036,-0.022,0,0,0,-35.4,7,27,0.1744438,0.69820246,-0.151066622,0.677632984
1098,2749275,570200,0.985,0.036,-0.014,0,0,0,-35.4,7,27,0.174474319,0.69820246,-0.151066622,0.677632984
1099,2751773,570200,0.992,0.036,-0.022,0,0,0,-35.7,5.7,27.5,0.174474319,0.69820246,-0.151066622,0.677632984
