sample_index,elapsed_us,device_time_ms,acc_x_g,acc_y_g,acc_z_g,gyro_x_dps,gyro_y_dps,gyro_z_dps,mag_x_ut,mag_y_ut,mag_z_ut,quat_w,quat_x,quat_y,quat_z
0,5277,433010,0.952,0.248,0.187,-0.9,0.7,-0.4,-11.8,-34.8,6.4,0.629627369,-0.211493271,-0.59520249,-0.452223273
1,7371,433010,0.952,0.248,0.183,-0.8,0.7,-0.5,-11.8,-34.8,6.4,0.629627369,-0.211493271,-0.595171972,-0.452253792
2,9593,433010,0.948,0.244,0.187,-0.9,0.7,-0.5,-11.7,-35.4,6.6,0.629627369,-0.211493271,-0.595171972,-0.45228431
3,13855,433010,0.948,0.248,0.191,-0.9,0.7,-0.4,-11.7,-35.4,6.6,0.629627369,-0.211493271,-0.595141453,-0.45228431
4,13855,433020,0.948,0.248,0.187,-1,0.6,-0.4,-11.7,-35.4,6.6,0.629627369,-0.211493271,-0.595110935,-0.452314829
5,17581,433020,0.948,0.244,0.183,-1,0.5,-0.4,-11.7,-35.4,6.6,0.629627369,-0.211493271,-0.595110935,-0.452345347
6,19768,433020,0.952,0.244,0.187,-1,0.5,-0.5,-11.9,-35.2,6.1,0.629627369,-0.211493271,-0.595080416,-0.452375866
7,22589,433020,0.948,0.244,0.187,-1,0.5,-0.4,-11.9,-35.2,6.1,0.629627369,-0.211523789,-0.595080416,-0.452375866
8,23946,433030,0.948,0.248,0.183,-1.1,0.5,-0.2,-11.9,-35.2,6.1,0.629627369,-0.211523789,-0.595049898,-0.452406384
9,26299,433030,0.948,0.252,0.191,-1,0.6,-0.2,-11.9,-35.2,6.1,0.629627369,-0.211523789,-0.595049898,-0.452436903
10,29373,433030,0.948,0.252,0.183,-1,0.6,0,-11.9,-35,6.2,0.629627369,-0.211523789,-0.595019379,-0.452436903
11,32361,433030,0.948,0.252,0.187,-1,0.5,0,-11.9,-35,6.2,0.629627369,-0.211523789,-0.594988861,-0.452467421
12,34643,433040,0.948,0.252,0.191,-0.9,0.4,0.1,-11.9,-35,6.2,0.629627369,-0.211554308,-0.594988861,-0.452467421
13,37664,433040,0.944,0.252,0.191,-0.9,0.4,0.2,-11.9,-35,6.2,0.629657888,-0.211554308,-0.594958342,-0.45249794
14,39859,433040,0.94,0.252,0.191,-0.9,0.2,0.2,-11.8,-35.3,6.6,0.629657888,-0.211584826,-0.594958342,-0.45249794
15,41252,433040,0.944,0.264,0.187,-0.8,0.2,0.3,-11.8,-35.3,6.6,0.629657888,-0.211584826,-0.594958342,-0.45249794
16,44373,433050,0.944,0.26,0.183,-0.7,0.4,0.3,-11.8,-35.3,6.6,0.629657888,-0.211584826,-0.594927824,-0.45249794
17,47455,433050,0.94,0.268,0.195,-0.6,0.5,0.2,-11.8,-35.3,6.6,0.629657888,-0.211615345,-0.594927824,-0.452528459
18,48801,433050,0.944,0.264,0.187,-0.2,0.5,0.2,-11.5,-34.9,6.2,0.629657888,-0.211767937,-0.594988861,-0.452375866
19,52145,433050,0.944,0.264,0.187,-0.2,0.5,0.2,-11.5,-34.9,6.2,0.629657888,-0.211767937,-0.594958342,-0.452375866
20,54024,433060,0.944,0.268,0.187,0,0.5,0.2,-11.5,-34.9,6.2,0.629657888,-0.211767937,-0.594958342,-0.452375866
21,56958,433060,0.944,0.268,0.184,0,0.5,0.3,-11.5,-34.9,6.2,0.629688406,-0.211767937,-0.594958342,-0.452375866
22,60018,433060,0.94,0.264,0.187,0,0.6,0.2,-11.8,-35.1,6.3,0.629688406,-0.211767937,-0.594927824,-0.452375866
23,61407,433060,0.948,0.272,0.187,0,0.8,0.1,-11.8,-35.1,6.3,0.629688406,-0.211767937,-0.594927824,-0.452375866
24,63723,433070,0.948,0.264,0.187,0,0.9,0,-11.8,-35.1,6.3,0.629718925,-0.211767937,-0.594927824,-0.452375866
25,66907,433070,0.948,0.268,0.191,0.1,0.9,0,-11.8,-35.1,6.3,0.629718925,-0.211737419,-0.594897305,-0.452375866
26,69874,433070,0.948,0.264,0.187,0.3,0.8,-0.1,-11.3,-34.6,6.3,0.629749443,-0.211737419,-0.594897305,-0.452375866
27,72859,433070,0.952,0.264,0.187,0.3,0.8,-0.2,-11.3,-34.6,6.3,0.629749443,-0.2117069,-0.594897305,-0.452375866
28,74415,433080,0.952,0.256,0.191,0.3,0.7,-0.4,-11.3,-34.6,6.3,0.629749443,-0.2117069,-0.594897305,-0.452375866
29,76550,433080,0.956,0.26,0.195,0.3,0.6,-0.4,-11.3,-34.6,6.3,0.629749443,-0.211676382,-0.594866787,-0.452375866
30,80243,433080,0.948,0.256,0.191,0.2,0.6,-0.5,-11.2,-34.8,6.3,0.629749443,-0.211676382,-0.594866787,-0.452406384
31,82579,433080,0.956,0.252,0.191,0.1,0.6,-0.5,-11.2,-34.8,6.3,0.629779962,-0.211645863,-0.594866787,-0.452406384
32,84914,433090,0.948,0.256,0.191,0,0.5,-0.7,-11.2,-34.8,6.3,0.629779962,-0.211645863,-0.594866787,-0.452406384
33,87254,433090,0.952,0.252,0.191,-0.1,0.6,-0.8,-11.2,-34.8,6.3,0.629779962,-0.211615345,-0.594866787,-0.452436903
34,89037,433090,0.952,0.248,0.191,-0.2,0.6,-0.8,-11.8,-34.7,6.1,0.629779962,-0.211615345,-0.594866787,-0.452436903
35,92595,433090,0.952,0.248,0.187,-0.4,0.6,-0.8,-11.8,-34.7,6.1,0.629749443,-0.211584826,-0.594836268,-0.452467421
36,93968,433100,0.944,0.244,0.191,-0.6,0.5,-0.6,-11.8,-34.7,6.1,0.629749443,-0.211584826,-0.594836268,-0.45249794
37,97445,433100,0.948,0.244,0.191,-0.7,0.5,-0.5,-11.8,-34.7,6.1,0.629749443,-0.211584826,-0.59480575,-0.45249794
38,99145,433100,0.944,0.241,0.187,-0.9,0.1,0,-11.2,-34.6,6.3,0.62981048,-0.21192053,-0.59480575,-0.45228431
39,101244,433100,0.944,0.244,0.183,-0.9,0.1,0,-11.2,-34.6,6.3,0.62981048,-0.21192053,-0.59480575,-0.45228431
40,105029,433110,0.94,0.244,0.187,-1.1,0,0.3,-11.2,-34.6,6.3,0.62981048,-0.211951048,-0.59480575,-0.45228431
41,107023,433110,0.94,0.244,0.191,-1.2,-0.1,0.6,-11.2,-34.6,6.3,0.62981048,-0.211981567,-0.594775231,-0.452314829
42,108724,433110,0.94,0.252,0.187,-1.1,-0.2,1.1,-11.9,-34.8,6.4,0.62981048,-0.212012085,-0.594775231,-0.45228431
43,112749,433110,0.94,0.256,0.191,-0.9,-0.4,1.6,-11.9,-34.8,6.4,0.62981048,-0.212042604,-0.594714194,-0.45228431
44,114490,433120,0.936,0.26,0.191,-0.7,-0.4,2,-11.9,-34.8,6.4,0.629840999,-0.212103641,-0.594714194,-0.452253792
45,117309,433120,0.936,0.272,0.192,-0.5,-0.5,2.3,-11.9,-34.8,6.4,0.629840999,-0.212134159,-0.594714194,-0.452223273
46,118883,433120,0.94,0.272,0.188,-0.2,-0.5,2.5,-11.9,-35.3,6.5,0.629871517,-0.212134159,-0.594714194,-0.452192755
47,121891,433120,0.936,0.276,0.188,0,-0.4,2.7,-11.9,-35.3,6.5,0.629871517,-0.212225715,-0.594714194,-0.452162236
48,124257,433130,0.936,0.28,0.192,0.1,-0.4,2.8,-11.9,-35.3,6.5,0.629871517,-0.212256233,-0.594714194,-0.452131718
49,127629,433130,0.936,0.284,0.188,0.4,-0.4,2.8,-11.9,-35.3,6.5,0.629932554,-0.212286752,-0.594714194,-0.452070681
50,130040,433130,0.936,0.288,0.192,0.6,-0.3,2.7,-11.6,-35.1,6.6,0.629963073,-0.21231727,-0.594714194,-0.452040162
51,131556,433130,0.936,0.292,0.192,0.7,-0.3,2.7,-11.6,-35.1,6.6,0.629993591,-0.212347789,-0.594714194,-0.451979125
52,133797,433140,0.94,0.292,0.192,1,-0.3,2.6,-11.6,-35.1,6.6,0.63002411,-0.212378307,-0.594714194,-0.451918088
53,136911,433140,0.936,0.284,0.188,1.2,-0.1,2.3,-11.6,-35.1,6.6,0.63002411,-0.212378307,-0.594714194,-0.45188757
54,139072,433140,0.94,0.284,0.188,1.2,-0.1,1.9,-11.7,-35.5,6.7,0.630054628,-0.212408826,-0.594714194,-0.451826533
55,141229,433140,0.94,0.284,0.192,1.2,0,1.4,-11.7,-35.5,6.7,0.630085147,-0.212408826,-0.594714194,-0.451796014
56,144456,433150,0.944,0.276,0.195,1.2,0,1,-11.7,-35.5,6.7,0.630085147,-0.212378307,-0.594714194,-0.451765496
57,146516,433150,0.944,0.272,0.191,0.9,0.1,0.5,-11.7,-35.5,6.7,0.630115665,-0.212378307,-0.594714194,-0.451734977
58,148745,433150,0.952,0.264,0.191,0.8,0.1,-0.1,-11.5,-35.3,6.7,0.63002411,-0.212347789,-0.594866787,-0.451734977
59,151541,433150,0.952,0.26,0.183,0.8,0.1,-0.1,-11.5,-35.3,6.7,0.63002411,-0.21231727,-0.594866787,-0.451734977
60,153688,433160,0.952,0.256,0.187,0.7,0.1,-0.4,-11.5,-35.3,6.7,0.63002411,-0.21231727,-0.594866787,-0.451734977
61,156520,433160,0.956,0.256,0.183,0.5,0.1,-0.5,-11.5,-35.3,6.7,0.63002411,-0.212286752,-0.594866787,-0.451734977
62,158781,433160,0.96,0.252,0.191,0.3,0.1,-0.7,-11.8,-34.7,6.4,0.63002411,-0.212286752,-0.594866787,-0.451734977
63,163286,433160,0.956,0.24,0.191,0,0.1,-0.9,-11.8,-34.7,6.4,0.63002411,-0.212256233,-0.594897305,-0.451765496
64,165000,433170,0.96,0.244,0.187,-0.1,0.1,-1,-11.8,-34.7,6.4,0.629993591,-0.212256233,-0.594897305,-0.451765496
65,167255,433170,0.964,0.24,0.183,-0.3,0,-1.2,-11.8,-34.7,6.4,0.629993591,-0.212225715,-0.594897305,-0.451796014
66,169432,433170,0.968,0.236,0.187,-0.5,-0.1,-1.3,-11.9,-35.4,6.2,0.629963073,-0.212225715,-0.594897305,-0.451826533
67,171474,433170,0.968,0.228,0.187,-0.7,-0.3,-1.2,-11.9,-35.4,6.2,0.629963073,-0.212225715,-0.594897305,-0.451826533
68,173727,433180,0.964,0.228,0.187,-1,-0.3,-1.1,-11.9,-35.4,6.2,0.629932554,-0.212225715,-0.594897305,-0.451857051
69,176871,433180,0.964,0.225,0.187,-1.3,-0.3,-0.8,-11.9,-35.4,6.2,0.629871517,-0.212225715,-0.594897305,-0.45188757
70,179055,433180,0.964,0.225,0.183,-1.4,-0.3,-0.7,-12.2,-35.2,6.6,0.629871517,-0.212256233,-0.594897305,-0.451918088
71,181225,433180,0.971,0.228,0.183,-1.5,-0.2,-0.6,-12.2,-35.2,6.6,0.629871517,-0.212256233,-0.594866787,-0.451948607
72,185049,433190,0.968,0.225,0.183,-1.5,-0.3,-0.5,-12.2,-35.2,6.6,0.629871517,-0.212286752,-0.594866787,-0.451979125
73,187436,433190,0.96,0.221,0.179,-1.5,-0.3,-0.5,-12.2,-35.2,6.6,0.629840999,-0.21231727,-0.594866787,-0.452009644
74,189549,433190,0.964,0.228,0.187,-1.4,-0.3,-0.4,-12,-35.3,6.1,0.629840999,-0.21231727,-0.594866787,-0.452040162
75,192478,433190,0.964,0.225,0.183,-1.3,-0.5,-0.2,-12,-35.3,6.1,0.62981048,-0.212347789,-0.594836268,-0.452040162
76,194385,433200,0.96,0.229,0.183,-1.2,-0.6,0,-12,-35.3,6.1,0.62981048,-0.212378307,-0.594836268,-0.452070681
77,197478,433200,0.964,0.233,0.179,-1,-0.6,0.1,-12,-35.3,6.1,0.629779962,-0.212378307,-0.594836268,-0.452070681
78,198859,433200,0.96,0.24,0.183,-1,-0.7,0.2,-11.7,-35.6,6.4,0.629871517,-0.212958159,-0.594866787,-0.451643422
79,202223,433200,0.96,0.24,0.183,-1,-0.7,0.2,-11.7,-35.6,6.4,0.629871517,-0.212988678,-0.594866787,-0.451643422
80,204899,433210,0.964,0.24,0.183,-1.1,-0.7,0,-11.7,-35.6,6.4,0.629840999,-0.212988678,-0.594866787,-0.451643422
81,206673,433210,0.96,0.24,0.187,-1,-0.6,0,-11.7,-35.6,6.4,0.629840999,-0.213019196,-0.594866787,-0.451643422
82,210376,433210,0.96,0.248,0.191,-1,-0.6,0,-11.8,-34.5,6.6,0.62981048,-0.213049715,-0.594866787,-0.451643422
83,213548,433210,0.96,0.244,0.187,-0.9,-0.6,0.1,-11.8,-34.5,6.6,0.62981048,-0.213080233,-0.594866787,-0.451704459
84,215046,433220,0.96,0.248,0.183,-0.9,-0.6,0,-11.8,-34.5,6.6,0.62981048,-0.213080233,-0.594866787,-0.451704459
85,216520,433220,0.956,0.248,0.187,-0.7,-0.7,-0.1,-11.8,-34.5,6.6,0.629779962,-0.213110752,-0.594866787,-0.451704459
86,220255,433220,0.956,0.248,0.191,-0.5,-0.7,-0.3,-11.6,-35,6.3,0.629779962,-0.213110752,-0.594866787,-0.451704459
87,221874,433220,0.956,0.248,0.187,-0.5,-0.7,-0.4,-11.6,-35,6.3,0.629749443,-0.213110752,-0.594866787,-0.451734977
88,224777,433230,0.956,0.252,0.187,-0.4,-0.7,-0.6,-11.6,-35,6.3,0.629749443,-0.213110752,-0.594897305,-0.451734977
89,227825,433230,0.952,0.244,0.183,-0.3,-0.6,-0.8,-11.6,-35,6.3,0.629718925,-0.213110752,-0.594897305,-0.451765496
90,229488,433230,0.956,0.256,0.195,-0.2,-0.6,-1.1,-11.7,-35,6.2,0.629688406,-0.213110752,-0.594897305,-0.451765496
91,231521,433230,0.948,0.256,0.191,0,-0.5,-1.2,-11.7,-35,6.2,0.629688406,-0.213110752,-0.594927824,-0.451796014
92,233851,433240,0.952,0.256,0.191,0,-0.5,-1.1,-11.7,-35,6.2,0.629657888,-0.213110752,-0.594927824,-0.451796014
93,236891,433240,0.952,0.252,0.187,0.2,-0.4,-1,-11.7,-35,6.2,0.629627369,-0.213080233,-0.594958342,-0.451796014
94,240058,433240,0.952,0.256,0.191,0.4,-0.4,-1,-11.6,-35.4,6.4,0.629627369,-0.213080233,-0.594958342,-0.451796014
95,242212,433240,0.948,0.252,0.191,0.7,-0.3,-1.1,-11.6,-35.4,6.4,0.629627369,-0.213049715,-0.594988861,-0.451826533
96,244507,433250,0.952,0.252,0.195,0.9,-0.3,-1.2,-11.6,-35.4,6.4,0.62959685,-0.213019196,-0.594988861,-0.451826533
97,246412,433250,0.952,0.256,0.195,1.1,-0.2,-1.2,-11.6,-35.4,6.4,0.62959685,-0.212988678,-0.595019379,-0.451826533
98,250036,433250,0.952,0.252,0.187,1.4,-0.1,-1.3,-11.7,-35.5,6.1,0.629627369,-0.213202307,-0.595049898,-0.451612903
99,251866,433250,0.948,0.256,0.187,1.5,-0.1,-1.4,-11.7,-35.5,6.1,0.629627369,-0.213171789,-0.595080416,-0.451612903
100,254898,433260,0.952,0.26,0.195,1.5,-0.1,-1.4,-11.7,-35.5,6.1,0.629627369,-0.213110752,-0.595110935,-0.451612903
101,256563,433260,0.948,0.264,0.191,1.7,-0.1,-1.4,-11.7,-35.5,6.1,0.62959685,-0.213080233,-0.595110935,-0.451612903
102,259987,433260,0.952,0.252,0.195,1.9,-0.1,-1.4,-11.6,-34.4,7.1,0.62959685,-0.213049715,-0.595141453,-0.451612903
103,262930,433260,0.956,0.26,0.199,1.9,-0.2,-1.4,-11.6,-34.4,7.1,0.62959685,-0.212988678,-0.595171972,-0.451612903
104,264624,433270,0.948,0.264,0.191,1.9,-0.2,-1.6,-11.6,-34.4,7.1,0.629566332,-0.212958159,-0.59520249,-0.451612903
105,267382,433270,0.952,0.256,0.191,1.8,-0.2,-1.7,-11.6,-34.4,7.1,0.629566332,-0.212897122,-0.595233009,-0.451612903
106,269018,433270,0.952,0.256,0.183,1.8,-0.1,-1.5,-11.7,-35.2,6.1,0.629566332,-0.212866604,-0.595263527,-0.451582385
107,271891,433270,0.948,0.256,0.195,1.7,-0.1,-1.2,-11.7,-35.2,6.1,0.629566332,-0.212836085,-0.595294046,-0.451582385
108,274710,433280,0.952,0.256,0.187,1.6,-0.2,-0.9,-11.7,-35.2,6.1,0.629535813,-0.212805567,-0.595324564,-0.451582385
109,276226,433280,0.948,0.26,0.187,1.5,-0.3,-0.8,-11.7,-35.2,6.1,0.629535813,-0.212775048,-0.595355083,-0.451582385
110,279503,433280,0.948,0.252,0.195,1.3,-0.3,-0.9,-11.4,-35.6,6,0.629535813,-0.21274453,-0.595355083,-0.451551866
111,282697,433280,0.944,0.26,0.187,1.1,-0.4,-0.8,-11.4,-35.6,6,0.629535813,-0.212714011,-0.595385601,-0.451551866
112,284940,433290,0.952,0.26,0.187,0.9,-0.5,-0.8,-11.4,-35.6,6,0.629505295,-0.212714011,-0.59541612,-0.451551866
113,286968,433290,0.948,0.256,0.183,0.7,-0.6,-0.8,-11.4,-35.6,6,0.629505295,-0.212683493,-0.59541612,-0.451551866
114,289825,433290,0.952,0.256,0.187,0.4,-0.6,-0.8,-11.5,-35.4,6.1,0.629474776,-0.212683493,-0.595446638,-0.451551866
115,291645,433290,0.952,0.26,0.187,0.2,-0.6,-0.7,-11.5,-35.4,6.1,0.629474776,-0.212683493,-0.595446638,-0.451551866
116,295344,433300,0.952,0.26,0.191,0,-0.7,-0.6,-11.5,-35.4,6.1,0.629444258,-0.212652974,-0.595477157,-0.451551866
117,297369,433300,0.948,0.256,0.187,0,-0.8,-0.4,-11.5,-35.4,6.1,0.629444258,-0.212683493,-0.595477157,-0.451551866
118,298894,433300,0.952,0.256,0.187,0,-0.8,-0.4,-11.8,-35.7,6.1,0.629413739,-0.212897122,-0.595568712,-0.451368755
119,301906,433300,0.948,0.252,0.187,0,-0.8,-0.5,-11.8,-35.7,6.1,0.629413739,-0.212897122,-0.595599231,-0.451368755
120,304753,433310,0.952,0.256,0.191,0,-0.8,-0.7,-11.8,-35.7,6.1,0.629383221,-0.212897122,-0.595599231,-0.451368755
121,307760,433310,0.948,0.252,0.191,0,-0.8,-0.9,-11.8,-35.7,6.1,0.629352702,-0.212897122,-0.595629749,-0.451399274
122,309562,433310,0.948,0.252,0.187,0,-0.8,-0.9,-11.8,-34.2,7.2,0.629352702,-0.212897122,-0.595629749,-0.451399274
123,312915,433310,0.948,0.252,0.187,0,-0.8,-0.9,-11.8,-34.2,7.2,0.629322184,-0.212897122,-0.595660268,-0.451399274
124,314509,433320,0.948,0.248,0.183,0,-0.6,-0.9,-11.8,-34.2,7.2,0.629291665,-0.212897122,-0.595660268,-0.451429792
125,317393,433320,0.952,0.252,0.183,0.1,-0.5,-1.1,-11.8,-34.2,7.2,0.629291665,-0.212866604,-0.595690786,-0.451429792
126,319078,433320,0.948,0.248,0.183,0.1,-0.4,-1.2,-11.9,-36,5.5,0.629261147,-0.212866604,-0.595690786,-0.451429792
127,322537,433320,0.952,0.252,0.187,0.3,-0.4,-1.3,-11.9,-36,5.5,0.629261147,-0.212836085,-0.595721305,-0.451460311
128,323916,433330,0.948,0.248,0.179,0.5,-0.3,-1.2,-11.9,-36,5.5,0.629230628,-0.212836085,-0.595721305,-0.451460311
129,326999,433330,0.952,0.248,0.183,0.6,-0.2,-1,-11.9,-36,5.5,0.629230628,-0.212805567,-0.595751823,-0.451460311
130,330014,433330,0.952,0.248,0.191,0.7,-0.1,-0.9,-11.8,-35.8,5.2,0.629230628,-0.212775048,-0.595751823,-0.451460311
131,331394,433330,0.952,0.248,0.183,0.8,-0.1,-0.9,-11.8,-35.8,5.2,0.62920011,-0.212775048,-0.595782342,-0.451490829
132,334515,433340,0.96,0.248,0.183,0.8,0,-1,-11.8,-35.8,5.2,0.62920011,-0.21274453,-0.595782342,-0.451490829
133,336240,433340,0.952,0.248,0.191,0.9,0,-1,-11.8,-35.8,5.2,0.62920011,-0.212714011,-0.595782342,-0.451490829
134,340116,433340,0.956,0.248,0.183,0.9,0,-1,-11.2,-35.6,5.8,0.62920011,-0.212683493,-0.59581286,-0.451490829
135,342208,433340,0.956,0.244,0.183,0.9,0,-1,-11.2,-35.6,5.8,0.629169591,-0.212652974,-0.59581286,-0.451490829
136,344458,433350,0.956,0.244,0.187,1.1,0,-1,-11.2,-35.6,5.8,0.629169591,-0.212622456,-0.595843379,-0.451490829
137,346530,433350,0.956,0.248,0.183,1.1,0,-1,-11.2,-35.6,5.8,0.629169591,-0.212591937,-0.595873898,-0.451490829
138,350200,433350,0.956,0.244,0.183,1.2,0,-1,-11.9,-35.7,5.7,0.62920011,-0.212927641,-0.595934935,-0.451185644
139,352303,433350,0.956,0.244,0.183,1.2,0.2,-1,-11.9,-35.7,5.7,0.62920011,-0.212897122,-0.595934935,-0.451185644
140,354742,433360,0.956,0.248,0.187,1.2,0.3,-1.1,-11.9,-35.7,5.7,0.62920011,-0.212866604,-0.595965453,-0.451185644
141,356984,433360,0.96,0.244,0.187,1.2,0.3,-1.1,-11.9,-35.7,5.7,0.62920011,-0.212836085,-0.595965453,-0.451185644
142,358773,433360,0.956,0.244,0.179,1.4,0.3,-1.1,-11.7,-34.3,7.4,0.62920011,-0.212805567,-0.595995972,-0.451185644
143,362233,433360,0.956,0.244,0.183,1.4,0.2,-1,-11.7,-34.3,7.4,0.62920011,-0.21274453,-0.595995972,-0.451185644
144,364178,433370,0.956,0.248,0.179,1.5,0.1,-0.8,-11.7,-34.3,7.4,0.62920011,-0.212714011,-0.59602649,-0.451185644
145,366420,433370,0.952,0.248,0.183,1.5,0.1,-0.7,-11.7,-34.3,7.4,0.62920011,-0.212683493,-0.59602649,-0.451155126
146,368724,433370,0.952,0.248,0.183,1.7,0.1,-0.7,-11.4,-35.4,5.3,0.62920011,-0.212652974,-0.596057009,-0.451155126
147,373291,433370,0.952,0.248,0.187,1.8,0.1,-0.4,-11.4,-35.4,5.3,0.629230628,-0.212622456,-0.596057009,-0.451124607
148,375724,433380,0.952,0.248,0.187,1.9,0.1,-0.2,-11.4,-35.4,5.3,0.629230628,-0.212591937,-0.596087527,-0.451124607
149,377873,433380,0.952,0.248,0.187,2,0.1,-0.2,-11.4,-35.4,5.3,0.629230628,-0.212561419,-0.596118046,-0.451094089
150,380151,433380,0.948,0.252,0.183,2,0.1,-0.2,-11.9,-35.7,5.3,0.629230628,-0.2125309,-0.596118046,-0.45106357
151,382654,433380,0.956,0.252,0.183,2,0.1,-0.1,-11.9,-35.7,5.3,0.629261147,-0.212500381,-0.596148564,-0.451033052
152,384806,433390,0.952,0.256,0.187,2.1,0,0,-11.9,-35.7,5.3,0.629261147,-0.212469863,-0.596179083,-0.451002533
153,387184,433390,0.952,0.26,0.183,2.1,0,0.1,-11.9,-35.7,5.3,0.629261147,-0.212439344,-0.596179083,-0.450972015
154,388848,433390,0.948,0.26,0.187,2.1,0,0.3,-11.9,-35.2,5.4,0.629291665,-0.212408826,-0.596209601,-0.450941496
155,393135,433390,0.948,0.264,0.191,2.2,0,0.4,-11.9,-35.2,5.4,0.629291665,-0.212378307,-0.59624012,-0.450910978
156,395581,433400,0.952,0.264,0.187,2.3,0,0.4,-11.9,-35.2,5.4,0.629322184,-0.212347789,-0.59624012,-0.450880459
157,397508,433400,0.948,0.264,0.191,2.5,0,0.4,-11.9,-35.2,5.4,0.629322184,-0.21231727,-0.596270638,-0.45084994
158,399922,433400,0.948,0.268,0.187,2.5,0.1,0.6,-11.2,-35.5,5.3,0.629352702,-0.212469863,-0.596362194,-0.450666829
159,402233,433400,0.948,0.268,0.191,2.5,0.1,0.8,-11.2,-35.5,5.3,0.629352702,-0.212439344,-0.596362194,-0.450605792
160,404141,433410,0.944,0.268,0.187,2.5,0,0.9,-11.2,-35.5,5.3,0.629383221,-0.212408826,-0.596392712,-0.450575274
161,406567,433410,0.948,0.272,0.187,2.5,0,0.7,-11.2,-35.5,5.3,0.629413739,-0.212408826,-0.596423231,-0.450514237
162,408848,433410,0.944,0.272,0.191,2.6,0,0.5,-11.8,-34.3,7.3,0.629413739,-0.212378307,-0.596453749,-0.450483718
163,412642,433410,0.944,0.272,0.191,2.7,0,0.4,-11.8,-34.3,7.3,0.629444258,-0.212347789,-0.596453749,-0.450422681
164,415266,433420,0.948,0.268,0.195,2.8,0.1,0.3,-11.8,-34.3,7.3,0.629474776,-0.212286752,-0.596484268,-0.450392163
165,417895,433420,0.952,0.268,0.187,2.8,0.2,0.2,-11.8,-34.3,7.3,0.629474776,-0.212256233,-0.596514786,-0.450361644
166,419734,433420,0.952,0.268,0.187,2.8,0.2,0.2,-11.8,-35.2,5.5,0.629505295,-0.212225715,-0.596545305,-0.450331126
167,421683,433420,0.952,0.268,0.187,2.8,0.2,0.1,-11.8,-35.2,5.5,0.629505295,-0.212195196,-0.596545305,-0.450270089
168,423933,433430,0.952,0.268,0.183,2.6,0.2,0,-11.8,-35.2,5.5,0.629535813,-0.212134159,-0.596575823,-0.45023957
169,427792,433430,0.952,0.26,0.187,2.6,0.1,0,-11.8,-35.2,5.5,0.629535813,-0.212103641,-0.596606342,-0.450209052
170,429501,433430,0.956,0.26,0.187,2.4,0.1,0,-11.7,-35.6,5.2,0.629566332,-0.212073122,-0.59663686,-0.450178533
171,431920,433430,0.956,0.26,0.187,2.3,0.1,0,-11.7,-35.6,5.2,0.629566332,-0.212042604,-0.59663686,-0.450148015
172,433936,433440,0.956,0.26,0.187,2,0.1,0,-11.7,-35.6,5.2,0.629566332,-0.212012085,-0.596667379,-0.450117496
173,436712,433440,0.956,0.26,0.187,1.8,0.1,0,-11.7,-35.6,5.2,0.62959685,-0.211981567,-0.596697897,-0.450086978
174,440405,433440,0.96,0.252,0.183,1.7,0,0,-11.7,-34.9,5.9,0.62959685,-0.211951048,-0.596697897,-0.450086978
175,442463,433440,0.956,0.252,0.183,1.7,-0.2,0.1,-11.7,-34.9,5.9,0.62959685,-0.211951048,-0.596728416,-0.450056459
176,444443,433450,0.964,0.252,0.183,1.7,-0.3,0,-11.7,-34.9,5.9,0.62959685,-0.21192053,-0.596728416,-0.450025941
177,446339,433450,0.956,0.252,0.187,1.6,-0.3,0,-11.7,-34.9,5.9,0.629627369,-0.211890011,-0.596758934,-0.449995422
178,450341,433450,0.952,0.248,0.187,1.5,-0.2,0,-11.6,-35.1,5.4,0.629627369,-0.212134159,-0.59685049,-0.449751274
179,452350,433450,0.956,0.248,0.187,1.5,-0.2,0.1,-11.6,-35.1,5.4,0.629657888,-0.212134159,-0.59685049,-0.449690237
180,454347,433460,0.96,0.248,0.183,1.5,-0.3,0.3,-11.6,-35.1,5.4,0.629657888,-0.212134159,-0.596881008,-0.449690237
181,458282,433460,0.96,0.252,0.187,1.7,-0.4,0.5,-11.6,-35.1,5.4,0.629657888,-0.212134159,-0.596881008,-0.449659719
182,460991,433460,0.956,0.252,0.187,1.8,-0.6,0.5,-11.6,-34.9,7.6,0.629657888,-0.212103641,-0.596911527,-0.4496292
183,461233,433460,0.952,0.252,0.187,1.9,-0.7,0.6,-11.6,-34.9,7.6,0.629657888,-0.212103641,-0.596942045,-0.449598682
184,464707,433470,0.952,0.256,0.195,2,-0.7,0.5,-11.6,-34.9,7.6,0.629688406,-0.212073122,-0.596972564,-0.449537645
185,466860,433470,0.952,0.256,0.195,2,-0.7,0.5,-11.6,-34.9,7.6,0.629688406,-0.212073122,-0.596972564,-0.449537645
186,469062,433470,0.952,0.256,0.187,2.3,-0.5,0.5,-11.8,-35.2,5.6,0.629688406,-0.212042604,-0.597033601,-0.449476608
187,471275,433470,0.952,0.268,0.195,2.5,-0.6,0.7,-11.8,-35.2,5.6,0.629688406,-0.212042604,-0.597064119,-0.449415571
188,475163,433480,0.956,0.268,0.191,2.7,-0.6,0.8,-11.8,-35.2,5.6,0.629718925,-0.212012085,-0.597094638,-0.449385052
189,477403,433480,0.952,0.268,0.191,2.9,-0.6,0.9,-11.8,-35.2,5.6,0.629718925,-0.211981567,-0.597125156,-0.449324015
190,479953,433480,0.952,0.268,0.191,3.1,-0.6,1,-12.3,-34.9,5.8,0.629749443,-0.211951048,-0.597155675,-0.449262978
191,481798,433480,0.948,0.268,0.191,3.2,-0.7,0.9,-12.3,-34.9,5.8,0.629749443,-0.211951048,-0.597186193,-0.449201941
192,484687,433490,0.952,0.276,0.191,3.4,-0.7,0.8,-12.3,-34.9,5.8,0.629779962,-0.21192053,-0.59724723,-0.449140904
193,487788,433490,0.948,0.272,0.195,3.5,-0.6,0.9,-12.3,-34.9,5.8,0.629779962,-0.211890011,-0.597277749,-0.449079867
194,489410,433490,0.948,0.276,0.191,3.7,-0.5,0.8,-11.5,-34.6,5.7,0.62981048,-0.211828974,-0.597308267,-0.44901883
195,491618,433490,0.948,0.28,0.195,3.9,-0.4,0.9,-11.5,-34.6,5.7,0.629840999,-0.211798456,-0.597369304,-0.448957793
196,494113,433500,0.944,0.28,0.199,3.9,-0.3,0.8,-11.5,-34.6,5.7,0.629840999,-0.211767937,-0.597399823,-0.448896756
197,497770,433500,0.944,0.283,0.199,3.9,-0.3,0.7,-11.5,-34.6,5.7,0.629871517,-0.211737419,-0.597430342,-0.4488052
198,499931,433500,0.944,0.28,0.195,3.9,-0.2,0.6,-12,-35.2,5.6,0.629840999,-0.211584826,-0.597521897,-0.448835719
199,502108,433500,0.944,0.28,0.195,3.9,-0.1,0.6,-12,-35.2,5.6,0.629871517,-0.211554308,-0.597552416,-0.448774682
200,504823,433510,0.952,0.284,0.191,3.9,-0.1,0.6,-12,-35.2,5.6,0.629871517,-0.211493271,-0.597582934,-0.448713645
201,506499,433510,0.952,0.283,0.199,3.9,-0.1,0.6,-12,-35.2,5.6,0.629871517,-0.211462752,-0.597613453,-0.448652608
202,508715,433510,0.948,0.287,0.192,4,-0.1,0.5,-11.9,-35,7.4,0.629932554,-0.211401715,-0.59767449,-0.448591571
203,512679,433510,0.948,0.287,0.195,4.1,-0.1,0.6,-11.9,-35,7.4,0.629963073,-0.211371197,-0.597705008,-0.448530534
204,515514,433520,0.952,0.279,0.199,4,0,0.4,-11.9,-35,7.4,0.629993591,-0.21131016,-0.597735527,-0.448469497
205,517615,433520,0.948,0.283,0.199,3.9,0,0.3,-11.9,-35,7.4,0.629993591,-0.211249123,-0.597766045,-0.44840846
206,519169,433520,0.948,0.28,0.195,3.5,0,0,-11.5,-35,5.6,0.63002411,-0.211218604,-0.597827082,-0.448347423
207,521665,433520,0.952,0.28,0.195,3.2,0,0,-11.5,-35,5.6,0.63002411,-0.211157567,-0.597857601,-0.448316904
208,523929,433530,0.952,0.276,0.195,2.8,0,0,-11.5,-35,5.6,0.630054628,-0.211127049,-0.597888119,-0.448286386
209,528173,433530,0.952,0.276,0.195,2.5,0,-0.1,-11.5,-35,5.6,0.630054628,-0.21109653,-0.597888119,-0.448255867
210,530038,433530,0.956,0.275,0.203,2.1,0,-0.2,-11.4,-34.9,6.2,0.630054628,-0.211066012,-0.597918638,-0.448225349
211,532369,433530,0.96,0.276,0.191,1.7,0,-0.3,-11.4,-34.9,6.2,0.630054628,-0.211035493,-0.597949156,-0.44819483
212,534111,433540,0.956,0.268,0.191,1.2,0,-0.5,-11.4,-34.9,6.2,0.630054628,-0.211004975,-0.597949156,-0.44819483
213,538242,433540,0.956,0.268,0.195,0.8,0,-0.7,-11.4,-34.9,6.2,0.630054628,-0.210974456,-0.597979675,-0.44819483
214,540099,433540,0.956,0.264,0.191,0.5,0,-0.8,-11.7,-34.7,6,0.630054628,-0.210974456,-0.597979675,-0.44819483
215,542810,433540,0.956,0.264,0.195,0.3,0,-0.8,-11.7,-34.7,6,0.630054628,-0.210943937,-0.597979675,-0.44819483
216,545611,433550,0.952,0.264,0.191,0,0,-0.9,-11.7,-34.7,6,0.630054628,-0.210943937,-0.597979675,-0.448225349
217,547896,433550,0.952,0.264,0.191,-0.1,0,-1.1,-11.7,-34.7,6,0.63002411,-0.210943937,-0.597979675,-0.448225349
218,549821,433550,0.956,0.256,0.191,-0.4,-0.1,-1.2,-11.5,-34.6,6.1,0.630054628,-0.211035493,-0.598010193,-0.448164312
219,552364,433550,0.952,0.264,0.191,-0.7,0,-1.3,-11.5,-34.6,6.1,0.63002411,-0.211035493,-0.598010193,-0.44819483
220,553907,433560,0.952,0.256,0.191,-1,0,-1.2,-11.5,-34.6,6.1,0.63002411,-0.211035493,-0.597979675,-0.448225349
221,557381,433560,0.956,0.264,0.191,-1.1,0,-0.9,-11.5,-34.6,6.1,0.629993591,-0.211035493,-0.597979675,-0.448255867
222,559743,433560,0.948,0.264,0.191,-1.2,0,-0.7,-12,-35.2,7.1,0.629993591,-0.211035493,-0.597979675,-0.448286386
223,562849,433560,0.952,0.264,0.191,-1.4,0,-0.6,-12,-35.2,7.1,0.629963073,-0.211066012,-0.597979675,-0.448316904
224,564453,433570,0.944,0.268,0.191,-1.5,0,-0.6,-12,-35.2,7.1,0.629963073,-0.211066012,-0.597949156,-0.448316904
225,566487,433570,0.952,0.268,0.191,-1.5,0,-0.6,-12,-35.2,7.1,0.629932554,-0.211066012,-0.597949156,-0.448347423
226,569845,433570,0.948,0.272,0.187,-1.4,0,-0.5,-11.5,-34.8,6.3,0.629932554,-0.21109653,-0.597918638,-0.448377941
227,571356,433570,0.944,0.276,0.195,-1.3,0,-0.5,-11.5,-34.8,6.3,0.629932554,-0.21109653,-0.597918638,-0.44840846
228,575339,433580,0.94,0.28,0.196,-1.3,-0.1,-0.4,-11.5,-34.8,6.3,0.629871517,-0.211127049,-0.597918638,-0.448438978
229,577137,433580,0.944,0.276,0.195,-1.3,0,-0.5,-11.5,-34.8,6.3,0.629871517,-0.211127049,-0.597888119,-0.448469497
230,579157,433580,0.944,0.28,0.195,-1.3,0,-0.6,-11.7,-34.8,6.1,0.629871517,-0.211127049,-0.597888119,-0.448500015
231,581368,433580,0.94,0.28,0.196,-1.2,0.1,-0.8,-11.7,-34.8,6.1,0.629871517,-0.211157567,-0.597888119,-0.448530534
232,583724,433590,0.94,0.28,0.196,-1.2,0.1,-0.8,-11.7,-34.8,6.1,0.629871517,-0.211157567,-0.597888119,-0.448530534
233,587930,433590,0.94,0.28,0.196,-1.2,0.1,-0.8,-11.7,-34.8,6.1,0.629871517,-0.211157567,-0.597888119,-0.448530534
234,589854,433590,0.94,0.284,0.196,-0.8,0.4,-1.2,-11.4,-34.6,6.3,0.629840999,-0.211127049,-0.597857601,-0.448622089
235,591332,433590,0.94,0.288,0.196,-0.7,0.4,-1.4,-11.4,-34.6,6.3,0.62981048,-0.211127049,-0.597827082,-0.448652608
236,595438,433600,0.936,0.28,0.196,-0.6,0.6,-1.4,-11.4,-34.6,6.3,0.62981048,-0.21109653,-0.597827082,-0.448683126
237,598116,433600,0.936,0.291,0.204,-0.5,0.7,-1.5,-11.4,-34.6,6.3,0.62981048,-0.211066012,-0.597827082,-0.448713645
238,600280,433600,0.94,0.288,0.196,-0.3,0.9,-1.5,-11.9,-34.9,6.3,0.629749443,-0.210913419,-0.597827082,-0.448835719
239,601962,433600,0.94,0.288,0.196,-0.1,1.1,-1.7,-11.9,-34.9,6.3,0.629749443,-0.2108829,-0.597827082,-0.448866237
240,606469,433610,0.948,0.291,0.199,0.1,1.1,-1.7,-11.9,-34.9,6.3,0.629749443,-0.210852382,-0.597827082,-0.448896756
241,606469,433610,0.94,0.291,0.196,0.3,1,-1.9,-11.9,-34.9,6.3,0.629749443,-0.210821863,-0.597827082,-0.448927274
242,608994,433610,0.948,0.287,0.195,0.3,1,-2,-11.7,-35.1,6.9,0.629749443,-0.210760826,-0.597827082,-0.448957793
243,613703,433610,0.944,0.287,0.196,0.3,1,-2.2,-11.7,-35.1,6.9,0.629749443,-0.210730308,-0.597827082,-0.448988311
244,613921,433620,0.944,0.287,0.199,0.3,1,-2.3,-11.7,-35.1,6.9,0.629718925,-0.210669271,-0.597827082,-0.44901883
245,616614,433620,0.948,0.287,0.199,0.3,0.9,-2.3,-11.7,-35.1,6.9,0.629718925,-0.210638752,-0.597827082,-0.449049348
246,618890,433620,0.948,0.287,0.195,0.1,0.8,-2.3,-11.8,-34.9,6.5,0.629718925,-0.210577715,-0.597827082,-0.449079867
247,622376,433620,0.948,0.283,0.199,0,0.6,-2.4,-11.8,-34.9,6.5,0.629688406,-0.210547197,-0.597827082,-0.449110385
248,624916,433630,0.952,0.283,0.199,-0.3,0.5,-2.5,-11.8,-34.9,6.5,0.629688406,-0.210516678,-0.597827082,-0.449171422
249,627238,433630,0.948,0.284,0.195,-0.7,0.5,-2.7,-11.8,-34.9,6.5,0.629657888,-0.21048616,-0.597827082,-0.449201941
250,629004,433630,0.948,0.284,0.195,-1,0.4,-2.7,-11.7,-35.1,6.6,0.629627369,-0.210455641,-0.597827082,-0.449262978
251,631272,433630,0.948,0.28,0.191,-1.2,0.3,-2.6,-11.7,-35.1,6.6,0.62959685,-0.210425123,-0.597796564,-0.449324015
252,634709,433640,0.952,0.284,0.191,-1.5,0.1,-2.6,-11.7,-35.1,6.6,0.629566332,-0.210425123,-0.597796564,-0.449385052
253,636291,433640,0.944,0.276,0.191,-1.8,0.1,-2.6,-11.7,-35.1,6.6,0.629535813,-0.210425123,-0.597796564,-0.449446089
254,640308,433640,0.948,0.276,0.195,-2.2,0,-2.5,-11.3,-34.8,6.5,0.629505295,-0.210394604,-0.597796564,-0.449507126
255,642380,433640,0.948,0.28,0.191,-2.4,0,-2.3,-11.3,-34.8,6.5,0.629474776,-0.210425123,-0.597766045,-0.449568163
256,644557,433650,0.952,0.276,0.199,-2.6,-0.1,-2.2,-11.3,-34.8,6.5,0.629444258,-0.210425123,-0.597766045,-0.4496292
257,646278,433650,0.948,0.28,0.195,-2.9,-0.3,-2.1,-11.3,-34.8,6.5,0.629383221,-0.210425123,-0.597735527,-0.449690237
258,650453,433650,0.948,0.28,0.195,-3.2,-0.4,-2,-11.4,-35.1,6.9,0.629322184,-0.210455641,-0.597735527,-0.449751274
259,651958,433650,0.948,0.28,0.195,-3.5,-0.4,-1.9,-11.4,-35.1,6.9,0.629291665,-0.21048616,-0.597735527,-0.44984283
260,653890,433660,0.944,0.28,0.199,-3.8,-0.5,-1.9,-11.4,-35.1,6.9,0.629261147,-0.210516678,-0.597705008,-0.449903867
261,656372,433660,0.94,0.284,0.192,-4.1,-0.6,-1.8,-11.4,-35.1,6.9,0.62920011,-0.210547197,-0.59767449,-0.449995422
262,660344,433660,0.936,0.288,0.2,-4.3,-0.9,-1.6,-11.6,-35.2,6.7,0.629169591,-0.210608234,-0.59767449,-0.450056459
263,662631,433660,0.936,0.28,0.199,-4.5,-1.1,-1.6,-11.6,-35.2,6.7,0.629108554,-0.210669271,-0.597643971,-0.450148015
264,664638,433670,0.936,0.284,0.196,-4.7,-1.4,-1.5,-11.6,-35.2,6.7,0.629047517,-0.210730308,-0.597613453,-0.450209052
265,666900,433670,0.932,0.288,0.2,-4.9,-1.5,-1.3,-11.6,-35.2,6.7,0.62898648,-0.210791345,-0.597582934,-0.450300607
266,669908,433670,0.932,0.287,0.204,-5,-1.7,-1.1,-11.3,-35.4,6.9,0.628925443,-0.210852382,-0.597582934,-0.450361644
267,671352,433670,0.932,0.288,0.2,-4.9,-1.8,-1,-11.3,-35.4,6.9,0.628864406,-0.210913419,-0.597552416,-0.450422681
268,675007,433680,0.936,0.295,0.204,-4.7,-1.9,-0.9,-11.3,-35.4,6.9,0.628833888,-0.211004975,-0.597552416,-0.450514237
269,676352,433680,0.936,0.299,0.2,-4.4,-1.8,-1,-11.3,-35.4,6.9,0.628772851,-0.211066012,-0.597521897,-0.450575274
270,679645,433680,0.944,0.299,0.2,-4.1,-1.7,-1.1,-11.5,-35.1,6.4,0.628711814,-0.211127049,-0.597521897,-0.450636311
271,681925,433680,0.94,0.303,0.204,-3.9,-1.5,-1.2,-11.5,-35.1,6.4,0.628650777,-0.211157567,-0.597491379,-0.450697348
272,685453,433690,0.936,0.307,0.204,-3.6,-1.4,-1.3,-11.5,-35.1,6.4,0.628620258,-0.211218604,-0.597491379,-0.450758385
273,687375,433690,0.94,0.311,0.204,-3.4,-1.3,-1.5,-11.5,-35.1,6.4,0.628559221,-0.211279641,-0.597491379,-0.450819422
274,688847,433690,0.94,0.303,0.2,-3.2,-1.2,-1.7,-11.6,-35.2,6.6,0.628528703,-0.21131016,-0.597491379,-0.450880459
275,692796,433690,0.94,0.307,0.204,-3.2,-1,-1.9,-11.6,-35.2,6.6,0.628467666,-0.211340678,-0.59746086,-0.450941496
276,694386,433700,0.944,0.311,0.208,-3.2,-1,-2.1,-11.6,-35.2,6.6,0.628406629,-0.211340678,-0.59746086,-0.451002533
277,696705,433700,0.936,0.307,0.2,-3.4,-0.8,-2.4,-11.6,-35.2,6.6,0.62837611,-0.211371197,-0.59746086,-0.45106357
278,698817,433700,0.94,0.299,0.196,-3.9,-0.5,-3,-11.5,-35.5,6.4,0.628223518,-0.211157567,-0.59746086,-0.451338237
279,701449,433700,0.944,0.303,0.196,-3.9,-0.5,-3,-11.5,-35.5,6.4,0.628162481,-0.211157567,-0.59746086,-0.451429792
280,705875,433710,0.944,0.291,0.199,-4.3,-0.5,-3,-11.5,-35.5,6.4,0.628101444,-0.211157567,-0.597430342,-0.451521348
281,706307,433710,0.94,0.288,0.192,-4.7,-0.5,-3.2,-11.5,-35.5,6.4,0.628040407,-0.211218604,-0.597399823,-0.451643422
282,710041,433710,0.94,0.288,0.188,-5.1,-0.6,-3.3,-11.6,-35.1,6.4,0.627979369,-0.211249123,-0.597369304,-0.451734977
283,712241,433710,0.944,0.272,0.188,-5.5,-0.7,-3.5,-11.6,-35.1,6.4,0.627918332,-0.21131016,-0.597369304,-0.451857051
284,714457,433720,0.948,0.268,0.183,-5.8,-0.7,-3.6,-11.6,-35.1,6.4,0.627857295,-0.211340678,-0.597308267,-0.451979125
285,716853,433720,0.952,0.268,0.187,-6,-0.7,-3.4,-11.6,-35.1,6.4,0.62776574,-0.211371197,-0.597277749,-0.452101199
286,719642,433720,0.948,0.264,0.18,-6.3,-0.8,-3.4,-11.7,-35.8,6.5,0.627704703,-0.211432234,-0.59724723,-0.452223273
287,721829,433720,0.948,0.256,0.179,-6.6,-0.9,-3.1,-11.7,-35.8,6.5,0.627613147,-0.211493271,-0.597216712,-0.452345347
288,723950,433730,0.952,0.26,0.179,-7,-0.8,-2.9,-11.7,-35.8,6.5,0.62755211,-0.211554308,-0.597186193,-0.45249794
289,726337,433730,0.952,0.26,0.183,-7.2,-0.8,-2.6,-11.7,-35.8,6.5,0.627491073,-0.211645863,-0.597125156,-0.452620014
290,729287,433730,0.948,0.26,0.183,-7.4,-0.9,-2.4,-11.1,-35.5,6.9,0.627399518,-0.2117069,-0.597064119,-0.452742088
291,731400,433730,0.956,0.256,0.191,-7.4,-1,-2.4,-11.1,-35.5,6.9,0.627338481,-0.211798456,-0.597033601,-0.452864162
292,733885,433740,0.952,0.264,0.183,-7.5,-1.2,-2.2,-11.1,-35.5,6.9,0.627277444,-0.211890011,-0.596972564,-0.452986236
293,736616,433740,0.952,0.268,0.187,-7.7,-1.4,-2.1,-11.1,-35.5,6.9,0.627185888,-0.211981567,-0.596942045,-0.45310831
294,739915,433740,0.952,0.26,0.187,-7.8,-1.4,-1.9,-11.3,-35.6,6.5,0.627124851,-0.212073122,-0.596881008,-0.453230384
295,741958,433740,0.956,0.272,0.183,-7.8,-1.4,-1.7,-11.3,-35.6,6.5,0.627033296,-0.212134159,-0.596819971,-0.453352458
296,743734,433750,0.952,0.26,0.187,-7.9,-1.4,-1.6,-11.3,-35.6,6.5,0.626972259,-0.212256233,-0.596789453,-0.453474532
297,747632,433750,0.952,0.264,0.187,-8,-1.4,-1.6,-11.3,-35.6,6.5,0.626911222,-0.212378307,-0.596728416,-0.453596606
298,749487,433750,0.948,0.268,0.187,-7.9,-1.4,-1.6,-11.3,-35.2,6.5,0.626819666,-0.212652974,-0.596728416,-0.453566088
299,751725,433750,0.948,0.268,0.187,-7.9,-1.4,-1.6,-11.3,-35.2,6.5,0.626758629,-0.212775048,-0.596667379,-0.453688162
300,754101,433760,0.948,0.268,0.187,-7.7,-1.4,-1.6,-11.3,-35.2,6.5,0.626697592,-0.212866604,-0.59663686,-0.453779717
301,757802,433760,0.94,0.276,0.192,-7.6,-1.2,-1.7,-11.3,-35.2,6.5,0.626606037,-0.212958159,-0.596575823,-0.453901791
302,759895,433760,0.94,0.276,0.195,-7.5,-1.1,-1.6,-11.3,-35.3,5.8,0.626545,-0.213049715,-0.596545305,-0.454023865
303,762253,433760,0.944,0.272,0.191,-7.4,-0.9,-1.5,-11.3,-35.3,5.8,0.626483963,-0.213110752,-0.596484268,-0.45414594
304,764118,433770,0.936,0.284,0.192,-7.2,-0.9,-1.4,-11.3,-35.3,5.8,0.626422926,-0.213232826,-0.596423231,-0.454237495
305,766429,433770,0.94,0.28,0.192,-7.1,-0.8,-1.3,-11.3,-35.3,5.8,0.626361888,-0.213324381,-0.596362194,-0.454359569
306,768755,433770,0.936,0.284,0.192,-7.1,-0.9,-1.3,-11.3,-35.4,7,0.626300851,-0.213415937,-0.596331675,-0.454451125
307,772733,433770,0.936,0.288,0.196,-7.1,-0.9,-1.3,-11.3,-35.4,7,0.626239814,-0.213507492,-0.596270638,-0.454573199
308,774977,433780,0.94,0.295,0.192,-7.1,-0.9,-1.1,-11.3,-35.4,7,0.626178777,-0.213599048,-0.596209601,-0.454664754
309,777130,433780,0.936,0.292,0.192,-7,-0.9,-1,-11.3,-35.4,7,0.626148259,-0.213690603,-0.596179083,-0.454786828
310,779336,433780,0.936,0.296,0.184,-6.9,-0.9,-1,-11.5,-35.3,6.9,0.626087222,-0.213782159,-0.596118046,-0.454878384
311,781438,433780,0.936,0.296,0.188,-6.9,-0.8,-1,-11.5,-35.3,6.9,0.626026185,-0.213873714,-0.596057009,-0.454969939
312,783788,433790,0.932,0.292,0.188,-6.7,-0.7,-1.1,-11.5,-35.3,6.9,0.625965148,-0.213934751,-0.59602649,-0.455092013
313,787564,433790,0.932,0.292,0.188,-6.7,-0.7,-1.1,-11.5,-35.3,6.9,0.625965148,-0.213934751,-0.59602649,-0.455092013
314,789828,433790,0.936,0.292,0.184,-6.3,-0.6,-1.4,-11.4,-35,7,0.625873592,-0.214087344,-0.595904416,-0.455275124
315,792035,433790,0.944,0.295,0.184,-6.2,-0.5,-1.6,-11.4,-35,7,0.625812555,-0.2141789,-0.595873898,-0.45536668
316,794091,433800,0.94,0.292,0.192,-6,-0.6,-1.8,-11.4,-35,7,0.625751518,-0.214239937,-0.59581286,-0.455488754
317,797218,433800,0.944,0.288,0.188,-5.8,-0.6,-2.1,-11.4,-35,7,0.625690481,-0.214300974,-0.595782342,-0.455549791
318,800026,433800,0.944,0.284,0.195,-5.3,-0.7,-2.6,-11.5,-35.6,7,0.62550737,-0.214239937,-0.595904416,-0.455732902
319,801288,433800,0.944,0.284,0.195,-5.3,-0.7,-2.6,-11.5,-35.6,7,0.625446333,-0.214270455,-0.595873898,-0.455824458
320,804401,433810,0.952,0.283,0.203,-5.3,-0.7,-2.8,-11.5,-35.6,7,0.625385296,-0.214331492,-0.595843379,-0.455946532
321,807331,433810,0.952,0.276,0.199,-5.4,-0.7,-2.9,-11.5,-35.6,7,0.625324259,-0.214362011,-0.59581286,-0.456038087
322,809522,433810,0.952,0.276,0.199,-5.5,-0.7,-2.8,-11.2,-35.7,5.1,0.625263222,-0.214423048,-0.595782342,-0.456160161
323,813230,433810,0.956,0.272,0.191,-5.5,-0.7,-2.7,-11.2,-35.7,5.1,0.625202185,-0.214453566,-0.595751823,-0.456251717
324,814692,433820,0.956,0.268,0.191,-5.5,-0.8,-2.5,-11.2,-35.7,5.1,0.625141148,-0.214514603,-0.595721305,-0.456373791
325,816247,433820,0.956,0.268,0.195,-5.7,-0.8,-2.4,-11.2,-35.7,5.1,0.625049593,-0.21457564,-0.595690786,-0.456465346
326,820147,433820,0.96,0.268,0.195,-5.8,-0.9,-2.3,-11.5,-35.6,6.2,0.624988556,-0.214636677,-0.595660268,-0.456556902
327,822167,433820,0.956,0.26,0.191,-5.8,-0.9,-2.1,-11.5,-35.6,6.2,0.624927519,-0.214697714,-0.595599231,-0.456678976
328,823787,433830,0.956,0.264,0.187,-5.9,-1,-2,-11.5,-35.6,6.2,0.624866482,-0.214758751,-0.595568712,-0.456770531
329,827311,433830,0.96,0.26,0.183,-5.9,-1.1,-1.9,-11.5,-35.6,6.2,0.624805445,-0.214819788,-0.595538194,-0.456862087
330,828692,433830,0.96,0.264,0.191,-5.8,-1.1,-1.8,-11.3,-35.4,6.6,0.624744407,-0.214880825,-0.595507675,-0.456953642
331,831798,433830,0.96,0.256,0.179,-5.9,-1.1,-1.6,-11.3,-35.4,6.6,0.62468337,-0.214972381,-0.595477157,-0.457075716
332,834733,433840,0.96,0.256,0.179,-6,-1.2,-1.4,-11.3,-35.4,6.6,0.624622333,-0.215033418,-0.595446638,-0.457167272
333,836254,433840,0.96,0.256,0.179,-6.1,-1.4,-1.1,-11.3,-35.4,6.6,0.624591815,-0.215124973,-0.595385601,-0.457228309
334,840023,433840,0.964,0.264,0.183,-6.3,-1.7,-0.8,-11.2,-35.4,6.7,0.624530778,-0.215216529,-0.595355083,-0.457319864
335,841346,433840,0.956,0.264,0.179,-6.4,-1.9,-0.5,-11.2,-35.4,6.7,0.624469741,-0.215308084,-0.595324564,-0.45741142
336,845338,433850,0.96,0.268,0.183,-6.5,-2.2,-0.4,-11.2,-35.4,6.7,0.624378185,-0.215430158,-0.595294046,-0.457502976
337,847193,433850,0.956,0.264,0.179,-6.4,-2.4,-0.2,-11.2,-35.4,6.7,0.624317148,-0.215521714,-0.595263527,-0.457564013
338,849182,433850,0.952,0.268,0.179,-6.1,-2.8,0.1,-11.6,-35.5,6.7,0.624225593,-0.215857418,-0.595355083,-0.457441939
339,852394,433850,0.948,0.268,0.183,-6.1,-2.8,0.1,-11.6,-35.5,6.7,0.624164556,-0.215979492,-0.595324564,-0.457502976
340,855151,433860,0.952,0.276,0.18,-5.9,-2.9,0.4,-11.6,-35.5,6.7,0.624103519,-0.216101566,-0.595294046,-0.457564013
341,856934,433860,0.948,0.276,0.184,-5.7,-3,0.7,-11.6,-35.5,6.7,0.624042482,-0.216193121,-0.595294046,-0.45762505
342,860105,433860,0.952,0.276,0.191,-5.4,-3,0.8,-11.3,-35.7,4.5,0.623981445,-0.216315195,-0.595263527,-0.457655568
343,862347,433860,0.956,0.283,0.191,-5.2,-3,0.8,-11.3,-35.7,4.5,0.623920408,-0.216437269,-0.595263527,-0.457686087
344,864644,433870,0.948,0.284,0.191,-4.9,-3,0.6,-11.3,-35.7,4.5,0.623859371,-0.216528825,-0.595233009,-0.457747124
345,866908,433870,0.948,0.287,0.195,-4.6,-2.9,0.5,-11.3,-35.7,4.5,0.623828852,-0.216650899,-0.595233009,-0.457777642
346,868924,433870,0.952,0.291,0.188,-4.3,-2.7,0.4,-11.6,-35.4,6.5,0.623767815,-0.216742454,-0.595233009,-0.457808161
347,871312,433870,0.948,0.287,0.192,-4.1,-2.5,0.2,-11.6,-35.4,6.5,0.623706778,-0.216803491,-0.59520249,-0.457869198
348,873722,433880,0.952,0.291,0.192,-3.8,-2.4,0.1,-11.6,-35.4,6.5,0.62367626,-0.216895047,-0.59520249,-0.457899716
349,878022,433880,0.948,0.291,0.199,-3.6,-2.4,0,-11.6,-35.4,6.5,0.623615223,-0.216986602,-0.59520249,-0.457930235
350,879505,433880,0.948,0.291,0.196,-3.5,-2.2,-0.1,-11.7,-35.6,6.7,0.623554186,-0.217017121,-0.59520249,-0.457960753
351,883010,433880,0.952,0.287,0.191,-3.4,-2.1,-0.2,-11.7,-35.6,6.7,0.623523667,-0.217108676,-0.59520249,-0.457991272
352,884447,433890,0.948,0.287,0.199,-3.3,-1.9,-0.4,-11.7,-35.6,6.7,0.62346263,-0.217169713,-0.59520249,-0.458052309
353,887444,433890,0.952,0.283,0.195,-3.3,-1.9,-0.5,-11.7,-35.6,6.7,0.623432112,-0.21723075,-0.59520249,-0.458082827
354,888996,433890,0.952,0.283,0.195,-3.3,-1.9,-0.5,-11.7,-35.6,6.7,0.623432112,-0.21723075,-0.59520249,-0.458082827
355,891214,433890,0.952,0.276,0.199,-3.3,-1.9,-0.7,-11.7,-35.5,6.9,0.623340556,-0.217322306,-0.595171972,-0.458174383
356,893827,433900,0.948,0.276,0.199,-3.4,-1.9,-0.7,-11.7,-35.5,6.9,0.623279519,-0.217383343,-0.595171972,-0.45823542
357,897271,433900,0.952,0.272,0.207,-3.5,-2,-0.8,-11.7,-35.5,6.9,0.623218482,-0.21744438,-0.595171972,-0.458265938
358,899695,433900,0.952,0.272,0.207,-3.6,-2,-1.1,-11.6,-35.4,6.7,0.623218482,-0.217535936,-0.595110935,-0.458326975
359,901567,433900,0.952,0.272,0.207,-3.6,-2,-1.1,-11.6,-35.4,6.7,0.623157445,-0.217566454,-0.595110935,-0.458388012
360,903842,433910,0.948,0.268,0.207,-3.8,-2,-1.1,-11.6,-35.4,6.7,0.623096408,-0.217627491,-0.595110935,-0.458449049
361,906174,433910,0.948,0.264,0.207,-3.9,-2.2,-1,-11.6,-35.4,6.7,0.623065889,-0.217688528,-0.595110935,-0.458479568
362,908759,433910,0.952,0.26,0.207,-4.1,-2.3,-1.1,-11.5,-35.7,4.2,0.623004852,-0.217749565,-0.595110935,-0.458540605
363,913190,433910,0.952,0.264,0.211,-4.3,-2.4,-1.1,-11.5,-35.7,4.2,0.622913297,-0.217841121,-0.595080416,-0.458601642
364,915296,433920,0.948,0.252,0.207,-4.5,-2.5,-1,-11.5,-35.7,4.2,0.62285226,-0.217902158,-0.595080416,-0.458662679
365,917485,433920,0.952,0.252,0.203,-4.8,-2.6,-0.8,-11.5,-35.7,4.2,0.622791223,-0.217993713,-0.595080416,-0.458723716
366,919795,433920,0.948,0.252,0.207,-5.1,-2.7,-0.4,-11.2,-35.3,6.5,0.622730186,-0.218085269,-0.595080416,-0.458784753
367,921970,433920,0.944,0.252,0.207,-5.4,-2.7,-0.2,-11.2,-35.3,6.5,0.622669149,-0.218176824,-0.595049898,-0.45884579
368,923859,433930,0.944,0.256,0.203,-5.5,-2.9,0,-11.2,-35.3,6.5,0.622608112,-0.21826838,-0.595019379,-0.458906827
369,926278,433930,0.944,0.256,0.207,-5.7,-3,0.1,-11.2,-35.3,6.5,0.622547075,-0.218390454,-0.595019379,-0.458967864
370,930218,433930,0.948,0.256,0.207,-5.7,-3.3,0.3,-11.3,-34.9,6.3,0.622455519,-0.218512528,-0.594988861,-0.459028901
371,932286,433930,0.944,0.256,0.203,-5.8,-3.5,0.6,-11.3,-34.9,6.3,0.622394482,-0.218634602,-0.594988861,-0.45905942
372,934677,433940,0.944,0.264,0.199,-5.8,-3.7,0.9,-11.3,-34.9,6.3,0.622333445,-0.218756676,-0.594988861,-0.459120457
373,936940,433940,0.944,0.268,0.211,-5.7,-3.7,1.1,-11.3,-34.9,6.3,0.622272408,-0.21887875,-0.594958342,-0.459150975
374,938950,433940,0.948,0.264,0.199,-5.6,-3.8,1.2,-11.4,-35.1,6.4,0.622211371,-0.219031343,-0.594958342,-0.459181494
375,941244,433940,0.944,0.276,0.207,-5.5,-3.8,1.3,-11.4,-35.1,6.4,0.622150334,-0.219153417,-0.594958342,-0.459212012
376,943703,433950,0.944,0.279,0.211,-5.4,-3.9,1.3,-11.4,-35.1,6.4,0.622058779,-0.219275491,-0.594927824,-0.459273049
377,948033,433950,0.944,0.279,0.211,-5.3,-4,1.2,-11.4,-35.1,6.4,0.62202826,-0.219428083,-0.594927824,-0.459303568
378,950349,433950,0.94,0.287,0.207,-5,-4.2,0.9,-11.3,-35,6.2,0.62202826,-0.219519639,-0.594836268,-0.459364605
379,952621,433950,0.94,0.291,0.207,-5,-4.2,0.9,-11.3,-35,6.2,0.621967223,-0.219641713,-0.594836268,-0.459395123
380,954937,433960,0.936,0.287,0.203,-4.9,-4.3,0.8,-11.3,-35,6.2,0.621875668,-0.219763787,-0.594836268,-0.459425642
381,957123,433960,0.944,0.295,0.215,-4.7,-4.3,0.7,-11.3,-35,6.2,0.621814631,-0.219885861,-0.594836268,-0.45945616
382,959438,433960,0.932,0.295,0.215,-4.6,-4.4,0.4,-11.2,-35.6,4.5,0.621723075,-0.220007935,-0.594866787,-0.45945616
383,963250,433960,0.932,0.295,0.219,-4.5,-4.5,0.1,-11.2,-35.6,4.5,0.621662038,-0.22009949,-0.594866787,-0.459517197
384,965495,433970,0.936,0.291,0.215,-4.5,-4.6,-0.1,-11.2,-35.6,4.5,0.621570482,-0.220221564,-0.594897305,-0.459578234
385,967725,433970,0.928,0.295,0.212,-4.6,-4.8,-0.4,-11.2,-35.6,4.5,0.621478927,-0.22031312,-0.594927824,-0.459608753
386,969992,433970,0.932,0.291,0.219,-4.6,-5,-0.5,-11.5,-35.6,6.2,0.621387371,-0.220435194,-0.594927824,-0.459639271
387,972219,433970,0.92,0.295,0.223,-4.6,-5.3,-0.5,-11.5,-35.6,6.2,0.621295816,-0.220526749,-0.594958342,-0.459700308
388,974067,433980,0.92,0.295,0.223,-4.6,-5.3,-0.5,-11.5,-35.6,6.2,0.621295816,-0.220526749,-0.594958342,-0.459700308
389,976414,433980,0.92,0.295,0.223,-4.6,-5.8,-0.6,-11.5,-35.6,6.2,0.621082186,-0.220770898,-0.595049898,-0.459761345
390,978721,433980,0.917,0.291,0.223,-4.6,-6,-0.7,-11.1,-35.9,6.3,0.620990631,-0.220862453,-0.595080416,-0.459822382
391,981178,433980,0.913,0.291,0.224,-4.6,-6.3,-0.6,-11.1,-35.9,6.3,0.620868557,-0.220984527,-0.595110935,-0.459852901
392,985665,433990,0.913,0.291,0.227,-4.6,-6.6,-0.4,-11.1,-35.9,6.3,0.620746483,-0.221106601,-0.595171972,-0.459883419
393,987740,433990,0.905,0.295,0.228,-4.6,-6.9,-0.2,-11.1,-35.9,6.3,0.620624409,-0.221259194,-0.59520249,-0.459913938
394,989996,433990,0.909,0.291,0.224,-4.6,-7.3,-0.1,-11.3,-35.8,6.1,0.620532853,-0.221381268,-0.595263527,-0.459944456
395,992300,433990,0.909,0.295,0.224,-4.5,-7.8,-0.1,-11.3,-35.8,6.1,0.620380261,-0.221503342,-0.595324564,-0.459974975
396,994662,434000,0.909,0.291,0.224,-4.4,-8.2,-0.2,-11.3,-35.8,6.1,0.620258187,-0.221655934,-0.595385601,-0.459974975
397,996888,434000,0.909,0.295,0.224,-4.3,-8.6,-0.1,-11.3,-35.8,6.1,0.620136113,-0.221808527,-0.595477157,-0.460005493
398,998930,434000,0.913,0.299,0.228,-4.1,-9.4,0,-10.9,-35.5,6.1,0.620044557,-0.22174749,-0.59541612,-0.460188604
399,1001349,434000,0.917,0.299,0.224,-4.1,-9.4,0,-10.9,-35.5,6.1,0.619922483,-0.221900082,-0.595507675,-0.460188604
400,1005181,434010,0.909,0.299,0.228,-3.8,-9.7,0,-10.9,-35.5,6.1,0.61976989,-0.222052675,-0.595599231,-0.460188604
401,1007260,434010,0.913,0.303,0.224,-3.6,-10,0.1,-10.9,-35.5,6.1,0.619617298,-0.222205267,-0.595690786,-0.460188604
402,1009684,434010,0.913,0.303,0.228,-3.3,-10.3,0.3,-11.3,-35.8,4.4,0.619464705,-0.22235786,-0.59581286,-0.460188604
403,1011957,434010,0.92,0.307,0.224,-3.1,-10.4,0.4,-11.3,-35.8,4.4,0.619312113,-0.222510453,-0.595904416,-0.460158086
404,1014016,434020,0.917,0.315,0.228,-2.8,-10.7,0.5,-11.3,-35.8,4.4,0.619190039,-0.222663045,-0.59602649,-0.460158086
405,1017647,434020,0.92,0.315,0.228,-2.6,-11.1,0.5,-11.3,-35.8,4.4,0.619037446,-0.222846156,-0.596148564,-0.460127567
406,1019944,434020,0.924,0.323,0.22,-2.4,-11.5,0.3,-10.9,-35.4,6.3,0.618854335,-0.222998749,-0.596270638,-0.460097049
407,1022076,434020,0.928,0.323,0.228,-2.2,-11.8,0.1,-10.9,-35.4,6.3,0.618701743,-0.223120823,-0.596423231,-0.46006653
408,1024454,434030,0.928,0.323,0.22,-2,-12,-0.2,-10.9,-35.4,6.3,0.618518632,-0.223273415,-0.596545305,-0.460036012
409,1026172,434030,0.928,0.319,0.224,-1.9,-11.9,-0.5,-10.9,-35.4,6.3,0.618366039,-0.223426008,-0.596697897,-0.460005493
410,1030686,434030,0.932,0.323,0.212,-1.8,-11.9,-0.8,-10.7,-35.5,6.1,0.618152409,-0.223548082,-0.59685049,-0.459974975
411,1032847,434030,0.932,0.327,0.212,-1.9,-11.9,-1,-10.7,-35.5,6.1,0.617999817,-0.223700674,-0.597003082,-0.459974975
412,1035107,434040,0.932,0.327,0.216,-2.2,-11.9,-1.3,-10.7,-35.5,6.1,0.617816706,-0.223822748,-0.597125156,-0.459944456
413,1037398,434040,0.932,0.327,0.208,-2.5,-12.1,-1.6,-10.7,-35.5,6.1,0.617633595,-0.223944823,-0.597277749,-0.459944456
414,1039602,434040,0.932,0.331,0.204,-3,-12.2,-2.1,-11,-35.3,6.2,0.617450484,-0.224097415,-0.597430342,-0.459944456
415,1041860,434040,0.924,0.331,0.212,-3.6,-12.4,-2.3,-11,-35.3,6.2,0.617236854,-0.224219489,-0.597582934,-0.459974975
416,1043933,434050,0.928,0.331,0.212,-4.2,-12.6,-2.4,-11,-35.3,6.2,0.617023225,-0.224372082,-0.597705008,-0.460005493
417,1047455,434050,0.924,0.335,0.212,-4.8,-13,-2.5,-11,-35.3,6.2,0.616809595,-0.224555193,-0.597857601,-0.460036012
418,1049665,434050,0.924,0.335,0.212,-6,-13.9,-2.5,-10.6,-35.7,5.6,0.616534928,-0.224433119,-0.597949156,-0.460310678
419,1051945,434050,0.924,0.335,0.212,-6,-13.9,-2.5,-10.6,-35.7,5.6,0.61629078,-0.22461623,-0.598101749,-0.460371715
420,1053998,434060,0.924,0.338,0.212,-6.7,-14.4,-2.7,-10.6,-35.7,5.6,0.616046632,-0.224829859,-0.598254341,-0.460432752
421,1057901,434060,0.924,0.338,0.22,-7.2,-14.7,-2.8,-10.6,-35.7,5.6,0.615802484,-0.225043489,-0.598376415,-0.460493789
422,1060239,434060,0.924,0.338,0.22,-7.7,-15.1,-2.9,-11.1,-35.8,4.9,0.615527818,-0.225257118,-0.598529008,-0.460554827
423,1062349,434060,0.924,0.338,0.216,-8.1,-15.4,-2.9,-11.1,-35.8,4.9,0.615253151,-0.225470748,-0.598620563,-0.460615864
424,1064729,434070,0.924,0.342,0.22,-8.4,-15.7,-3.1,-11.1,-35.8,4.9,0.614978484,-0.225714896,-0.598803674,-0.460707419
425,1066495,434070,0.924,0.335,0.216,-8.5,-15.9,-3.3,-11.1,-35.8,4.9,0.614673299,-0.225928526,-0.598956267,-0.460768456
426,1070202,434070,0.924,0.338,0.224,-8.5,-16.1,-3.6,-11.3,-35.9,5.7,0.614398633,-0.226172674,-0.59910886,-0.460860012
427,1072445,434070,0.928,0.338,0.22,-8.4,-16.1,-4,-11.3,-35.9,5.7,0.614093448,-0.226386303,-0.599261452,-0.460951567
428,1074687,434080,0.924,0.338,0.22,-8.3,-16,-4.3,-11.3,-35.9,5.7,0.613818781,-0.226599933,-0.599414045,-0.461043123
429,1076556,434080,0.932,0.334,0.22,-8.2,-15.8,-4.8,-11.3,-35.9,5.7,0.613513596,-0.226783044,-0.599566637,-0.461134678
430,1080160,434080,0.928,0.334,0.216,-8.2,-15.6,-5.4,-11.3,-35.8,5.6,0.613208411,-0.226996673,-0.59971923,-0.461226234
431,1082161,434080,0.932,0.334,0.216,-8.3,-15.3,-5.8,-11.3,-35.8,5.6,0.612903226,-0.227210303,-0.599841304,-0.461348308
432,1083751,434090,0.936,0.327,0.216,-8.5,-14.9,-6.2,-11.3,-35.8,5.6,0.612598041,-0.227393414,-0.599993896,-0.461470382
433,1087458,434090,0.932,0.331,0.212,-8.7,-14.7,-6.6,-11.3,-35.8,5.6,0.612323374,-0.227546007,-0.600146489,-0.461592456
434,1089665,434090,0.94,0.331,0.208,-9.1,-14.5,-7,-10.8,-35.8,5.5,0.611987671,-0.227729118,-0.600268563,-0.461745048
435,1092050,434090,0.956,0.326,0.208,-9.3,-14.4,-7.2,-10.8,-35.8,5.5,0.611682485,-0.227912229,-0.600421155,-0.461867122
436,1093951,434100,0.944,0.323,0.208,-9.4,-14.4,-7,-10.8,-35.8,5.5,0.6113773,-0.22809534,-0.600543229,-0.462019715
437,1096290,434100,0.948,0.33,0.208,-9.2,-14.1,-6.4,-10.8,-35.8,5.5,0.611102634,-0.228278451,-0.600665304,-0.462172308
438,1099634,434100,0.936,0.334,0.212,-8.1,-13.2,-4.5,-11,-35.6,5.7,0.610827967,-0.228064821,-0.600695822,-0.462599567
439,1101204,434100,0.948,0.338,0.212,-8.1,-13.2,-4.5,-11,-35.6,5.7,0.610553301,-0.228247932,-0.600817896,-0.462691122
440,1103967,434110,0.948,0.338,0.212,-8.1,-13.2,-4.5,-11,-35.6,5.7,0.610553301,-0.228247932,-0.600817896,-0.462691122
441,1107050,434110,0.948,0.338,0.212,-8.1,-13.2,-4.5,-11,-35.6,5.7,0.610553301,-0.228247932,-0.600817896,-0.462691122
442,1109711,434110,1.061,0.337,0.174,-8.1,-11.4,-3.5,-10.8,-35.8,5.5,0.609851375,-0.228797266,-0.601123081,-0.462965789
443,1113186,434110,1.132,0.341,0.162,-8.8,-9.7,-3.9,-10.8,-35.8,5.5,0.609637745,-0.228949858,-0.601184118,-0.463087863
444,1115132,434120,1.143,0.34,0.161,-9.2,-6,-4.1,-10.8,-35.8,5.5,0.609485153,-0.229102451,-0.601184118,-0.463240455
445,1117282,434120,1.065,0.337,0.19,-8.6,0.4,-3.1,-10.8,-35.8,5.5,0.609393597,-0.229163488,-0.601092563,-0.463362529
446,1119399,434120,1.034,0.329,0.198,-6.9,10,-0.5,-10.9,-35.7,5.4,0.609485153,-0.229163488,-0.600909452,-0.46354564
447,1121906,434120,0.952,0.326,0.223,-4.7,21,3.6,-10.9,-35.7,5.4,0.609790338,-0.229041414,-0.600543229,-0.463667714
448,1124941,434130,0.854,0.315,0.248,-2.7,31.5,7.9,-10.9,-35.7,5.4,0.610248115,-0.228858303,-0.600054933,-0.46375927
449,1126321,434130,0.784,0.328,0.254,-1.7,38.6,10.6,-10.9,-35.7,5.4,0.610858486,-0.228644673,-0.599475082,-0.463820307
450,1129468,434130,0.827,0.343,0.249,-1.6,41,10.8,-11.3,-36.1,5.5,0.611499374,-0.228400525,-0.598864711,-0.463911863
451,1131356,434130,0.913,0.342,0.216,-2.8,38.3,8,-11.3,-36.1,5.5,0.612079226,-0.228156377,-0.59828486,-0.464033937
452,1134688,434140,0.85,0.351,0.249,-5.1,32.7,2.9,-11.3,-36.1,5.5,0.612506485,-0.227912229,-0.597766045,-0.464217048
453,1136712,434140,0.83,0.347,0.257,-8.3,27,-2.7,-11.3,-36.1,5.5,0.612781152,-0.227729118,-0.597338786,-0.464491714
454,1139921,434140,0.85,0.347,0.245,-11.7,22.5,-7.3,-11,-35.6,5.3,0.612933744,-0.227546007,-0.596972564,-0.464857936
455,1142014,434140,0.842,0.347,0.245,-14.8,18.9,-10.2,-11,-35.6,5.3,0.6130253,-0.227423933,-0.596606342,-0.465285195
456,1143865,434150,0.807,0.359,0.254,-16.8,14.8,-11.5,-11,-35.6,5.3,0.612994781,-0.227362896,-0.596301157,-0.465742973
457,1146797,434150,0.838,0.366,0.249,-17.9,9.5,-11.5,-11,-35.6,5.3,0.612933744,-0.227332377,-0.596057009,-0.466170232
458,1149500,434150,0.928,0.377,0.228,-17.6,-4.3,-8.8,-11.1,-36.2,5.2,0.612720115,-0.227393414,-0.595904416,-0.466597491
459,1152259,434150,0.928,0.381,0.236,-17.6,-4.3,-8.8,-11.1,-36.2,5.2,0.612475967,-0.227546007,-0.595843379,-0.466933195
460,1153662,434160,0.924,0.381,0.244,-17.4,-10.8,-7.2,-11.1,-36.2,5.2,0.612170782,-0.227820673,-0.595843379,-0.467177343
461,1156895,434160,0.936,0.385,0.24,-17.7,-14.9,-5.8,-11.1,-36.2,5.2,0.611835078,-0.228125858,-0.595873898,-0.467421491
462,1158975,434160,0.944,0.373,0.236,-18.8,-16.5,-4.9,-11,-35.7,5.5,0.611468856,-0.22849208,-0.595934935,-0.467665639
463,1162560,434160,0.928,0.377,0.228,-20.4,-16.5,-4.8,-11,-35.7,5.5,0.611102634,-0.228858303,-0.595965453,-0.467909787
464,1164948,434170,0.932,0.373,0.228,-22.2,-15.6,-5.3,-11,-35.7,5.5,0.610736412,-0.229255043,-0.595995972,-0.468184454
465,1167074,434170,0.932,0.374,0.22,-23.8,-14.7,-6.2,-11,-35.7,5.5,0.610339671,-0.229621265,-0.595965453,-0.468489639
466,1169776,434170,0.928,0.37,0.216,-24.9,-14,-7.2,-10.8,-35.9,5.4,0.609973449,-0.230018006,-0.595934935,-0.468855861
467,1171271,434170,0.92,0.37,0.217,-25.5,-13.6,-8.1,-10.8,-35.9,5.4,0.609576708,-0.230384228,-0.595904416,-0.469222083
468,1174410,434180,0.924,0.374,0.22,-25.4,-13.6,-8.7,-10.8,-35.9,5.4,0.609179968,-0.23075045,-0.595873898,-0.469618824
469,1176389,434180,0.92,0.374,0.217,-25.2,-13.7,-8.8,-10.8,-35.9,5.4,0.608783227,-0.231116672,-0.595843379,-0.469985046
470,1178681,434180,0.92,0.374,0.22,-25.2,-13.8,-8.7,-10.7,-35.7,5.2,0.608386486,-0.231482894,-0.59581286,-0.470351268
471,1181776,434180,0.913,0.378,0.221,-25.5,-13.8,-8.7,-10.7,-35.7,5.2,0.607989746,-0.231849116,-0.595782342,-0.470748009
472,1184572,434190,0.916,0.374,0.224,-26.2,-13.6,-8.7,-10.7,-35.7,5.2,0.607593005,-0.232215339,-0.595721305,-0.471114231
473,1187643,434190,0.92,0.374,0.22,-27,-13.5,-8.6,-10.7,-35.7,5.2,0.607196265,-0.232612079,-0.595660268,-0.471510971
474,1189781,434190,0.916,0.382,0.221,-27.8,-13.5,-8.4,-10.2,-36.2,4.9,0.606799524,-0.23300882,-0.595599231,-0.471938231
475,1191159,434190,0.92,0.378,0.217,-28.4,-13.6,-8.3,-10.2,-36.2,4.9,0.606372265,-0.23340556,-0.595538194,-0.472334971
476,1194291,434200,0.92,0.386,0.217,-28.9,-13.8,-8.1,-10.2,-36.2,4.9,0.605975524,-0.23383282,-0.595446638,-0.47276223
477,1197401,434200,0.928,0.385,0.224,-29.2,-13.9,-8,-10.2,-36.2,4.9,0.605548265,-0.234260079,-0.595385601,-0.473128452
478,1198887,434200,0.928,0.385,0.22,-29.8,-13.9,-8.2,-10.6,-35.9,4.8,0.605090487,-0.234473708,-0.595294046,-0.473769341
479,1201803,434200,0.928,0.385,0.22,-29.8,-13.9,-8.2,-10.6,-35.9,4.8,0.604663228,-0.234900967,-0.59520249,-0.4741966
480,1204561,434210,0.924,0.381,0.224,-30.3,-13.8,-8.4,-10.6,-35.9,4.8,0.604235969,-0.235328227,-0.595110935,-0.474623859
481,1207563,434210,0.932,0.385,0.22,-30.9,-13.6,-8.3,-10.6,-35.9,4.8,0.603839228,-0.235786004,-0.595019379,-0.475051119
482,1209327,434210,0.932,0.382,0.213,-31.5,-13.5,-8.4,-10.6,-36.3,4.7,0.603411969,-0.236213263,-0.594927824,-0.475508896
483,1212161,434210,0.936,0.385,0.213,-32,-13.3,-8.5,-10.6,-36.3,4.7,0.60298471,-0.236671041,-0.59480575,-0.475966674
484,1213689,434220,0.944,0.381,0.216,-32.2,-13.1,-8.5,-10.6,-36.3,4.7,0.602526933,-0.237128819,-0.594683676,-0.476424451
485,1216380,434220,0.944,0.385,0.216,-32.5,-13,-8.7,-10.6,-36.3,4.7,0.602130192,-0.237586596,-0.594561602,-0.476912748
486,1220035,434220,0.948,0.377,0.216,-32.8,-12.8,-8.7,-10.1,-36.4,4.5,0.601702933,-0.238013855,-0.594439528,-0.477370525
487,1221387,434220,0.948,0.378,0.208,-33.4,-12.7,-8.7,-10.1,-36.4,4.5,0.601275674,-0.238471633,-0.594317454,-0.477858821
488,1224583,434230,0.952,0.377,0.208,-33.9,-12.5,-8.6,-10.1,-36.4,4.5,0.600817896,-0.238959929,-0.594164861,-0.478347118
489,1227343,434230,0.952,0.378,0.2,-34.5,-12.5,-8.5,-10.1,-36.4,4.5,0.600390637,-0.239417707,-0.594012268,-0.478835414
490,1229538,434230,0.952,0.374,0.204,-35.1,-12.5,-8.2,-10.2,-36.1,4.3,0.599963378,-0.239906003,-0.593859676,-0.479354228
491,1232406,434230,0.96,0.37,0.208,-35.7,-12.7,-8,-10.2,-36.1,4.3,0.599536119,-0.240394299,-0.593676565,-0.479842524
492,1233795,434240,0.956,0.374,0.204,-36.2,-12.9,-7.8,-10.2,-36.1,4.3,0.599078341,-0.240913114,-0.593523972,-0.480361339
493,1236942,434240,0.96,0.378,0.196,-36.7,-13,-7.6,-10.2,-36.1,4.3,0.598620563,-0.241431928,-0.593340861,-0.480849635
494,1239013,434240,0.96,0.374,0.192,-37.1,-13,-7.4,-10.2,-36.8,3.8,0.598193304,-0.241950743,-0.59315775,-0.48136845
495,1241322,434240,0.96,0.37,0.196,-37.5,-13,-7.1,-10.2,-36.8,3.8,0.597766045,-0.242500076,-0.592974639,-0.481887265
496,1244474,434250,0.96,0.374,0.196,-38,-13.1,-6.8,-10.2,-36.8,3.8,0.597308267,-0.243018891,-0.592791528,-0.482375561
497,1246565,434250,0.96,0.37,0.196,-38.5,-13.2,-6.6,-10.2,-36.8,3.8,0.596881008,-0.243598743,-0.592577898,-0.482894375
498,1248825,434250,0.956,0.37,0.196,-39.6,-13.2,-6.6,-10.1,-36.6,4,0.59624012,-0.243751335,-0.592486343,-0.483718375
499,1251220,434250,0.96,0.37,0.196,-39.6,-13.2,-6.6,-10.1,-36.6,4,0.595782342,-0.244331187,-0.592272713,-0.484267708
500,1255810,434260,0.952,0.362,0.196,-40.2,-13.1,-6.6,-10.1,-36.6,4,0.595324564,-0.244911039,-0.592028565,-0.484786523
501,1258157,434260,0.956,0.366,0.196,-40.7,-13,-6.5,-10.1,-36.6,4,0.594866787,-0.24549089,-0.591814936,-0.485335856
502,1260033,434260,0.952,0.362,0.188,-41.3,-12.9,-6.4,-10.2,-36.5,3.9,0.594409009,-0.246070742,-0.591570788,-0.485885189
503,1262272,434260,0.952,0.358,0.188,-42,-12.9,-6.3,-10.2,-36.5,3.9,0.593951231,-0.246681112,-0.59132664,-0.486434523
504,1264195,434270,0.948,0.358,0.192,-42.5,-13,-6.3,-10.2,-36.5,3.9,0.593493454,-0.247291482,-0.591082492,-0.486983856
505,1266575,434270,0.944,0.35,0.188,-43,-13.1,-6.4,-10.2,-36.5,3.9,0.593035676,-0.247901852,-0.590807825,-0.487563707
506,1270617,434270,0.948,0.35,0.184,-43.5,-13.1,-6.3,-9.8,-36.3,4.1,0.59254738,-0.248512223,-0.590563677,-0.488143559
507,1272687,434270,0.944,0.347,0.185,-44.1,-12.9,-6.1,-9.8,-36.3,4.1,0.592089602,-0.249153111,-0.590319529,-0.488723411
508,1274582,434280,0.944,0.347,0.185,-44.7,-12.8,-6,-9.8,-36.3,4.1,0.591601306,-0.249794,-0.590014344,-0.489303262
509,1276691,434280,0.948,0.342,0.188,-45.3,-12.6,-6,-9.8,-36.3,4.1,0.591143529,-0.250434889,-0.589739677,-0.489883114
510,1278963,434280,0.94,0.339,0.184,-45.8,-12.3,-6,-10.1,-36.2,3.9,0.590655232,-0.251075777,-0.589434492,-0.490493484
511,1281626,434280,0.936,0.343,0.181,-46.2,-12.1,-5.8,-10.1,-36.2,3.9,0.590197455,-0.251716666,-0.589129307,-0.491103854
512,1283857,434290,0.936,0.331,0.184,-46.6,-11.9,-5.7,-10.1,-36.2,3.9,0.589709159,-0.252388073,-0.588824122,-0.491714225
513,1288707,434290,0.932,0.331,0.181,-47,-11.9,-5.5,-10.1,-36.2,3.9,0.589251381,-0.253028962,-0.588488418,-0.492324595
514,1289070,434290,0.936,0.327,0.18,-47.5,-11.9,-5.4,-10,-36.2,3.7,0.588763085,-0.253700369,-0.588183233,-0.492934965
515,1291404,434290,0.928,0.327,0.177,-48,-11.9,-5.2,-10,-36.2,3.7,0.588305307,-0.254371776,-0.58784753,-0.493545335
516,1295334,434300,0.925,0.327,0.181,-48.4,-11.9,-5,-10,-36.2,3.7,0.587817011,-0.255073702,-0.587481307,-0.494155705
517,1297730,434300,0.925,0.319,0.185,-48.6,-12,-4.9,-10,-36.2,3.7,0.587328715,-0.255775628,-0.587145604,-0.494796594
518,1300516,434300,0.921,0.319,0.181,-48.9,-12.2,-5.1,-9.9,-36,3.3,0.586779382,-0.256324961,-0.586870937,-0.495529038
519,1302834,434300,0.917,0.315,0.185,-48.9,-12.2,-5.1,-9.9,-36,3.3,0.586291086,-0.256996368,-0.586504715,-0.496139409
520,1305113,434310,0.921,0.315,0.181,-48.9,-12.4,-5.2,-9.9,-36,3.3,0.585802789,-0.257698294,-0.586169012,-0.496749779
521,1307302,434310,0.921,0.315,0.185,-48.9,-12.5,-5.1,-9.9,-36,3.3,0.585314493,-0.25840022,-0.585833308,-0.497390667
522,1309047,434310,0.917,0.312,0.181,-49,-12.7,-5,-9.6,-36.8,2.9,0.584826197,-0.259102145,-0.585497604,-0.498001038
523,1313118,434310,0.921,0.315,0.192,-49,-12.7,-5,-9.6,-36.8,2.9,0.584307382,-0.259804071,-0.585161901,-0.498611408
524,1314991,434320,0.917,0.315,0.189,-48.9,-12.9,-5.2,-9.6,-36.8,2.9,0.583819086,-0.260475478,-0.584826197,-0.499252297
525,1317244,434320,0.913,0.312,0.185,-48.8,-13.3,-5.1,-9.6,-36.8,2.9,0.583300272,-0.261177404,-0.584490493,-0.499862667
526,1318864,434320,0.913,0.311,0.192,-48.6,-13.7,-5.2,-9.5,-36.8,2.5,0.582811975,-0.26187933,-0.58415479,-0.500473037
527,1321237,434320,0.913,0.311,0.192,-48.6,-13.7,-5.2,-9.5,-36.8,2.5,0.582811975,-0.26187933,-0.58415479,-0.500473037
528,1324453,434330,0.917,0.307,0.192,-48.3,-13.9,-5.4,-9.5,-36.8,2.5,0.581774346,-0.263283181,-0.583513901,-0.501663259
529,1326363,434330,0.921,0.308,0.184,-48,-13.8,-5.4,-9.5,-36.8,2.5,0.581255531,-0.263985107,-0.583178198,-0.502273629
530,1329614,434330,0.928,0.311,0.188,-47.6,-13.8,-5.3,-9.5,-36.8,2.6,0.580736717,-0.264656514,-0.582873012,-0.502883999
531,1331827,434330,0.928,0.315,0.192,-47.1,-13.8,-5.3,-9.5,-36.8,2.6,0.580248421,-0.26535844,-0.582567827,-0.503463851
532,1335012,434340,0.928,0.311,0.188,-46.5,-13.9,-5.2,-9.5,-36.8,2.6,0.579729606,-0.266029847,-0.582262642,-0.504043703
533,1336524,434340,0.928,0.319,0.181,-46,-13.9,-5.1,-9.5,-36.8,2.6,0.57924131,-0.266701254,-0.581957457,-0.504593036
534,1339841,434340,0.928,0.319,0.184,-45.4,-14.1,-5.1,-9.3,-36.7,2.1,0.578722495,-0.267342143,-0.581682791,-0.505172887
535,1341379,434340,0.936,0.323,0.177,-44.8,-14.3,-5,-9.3,-36.7,2.1,0.578234199,-0.26801355,-0.581377606,-0.505722221
536,1343784,434350,0.932,0.323,0.184,-44.3,-14.4,-5,-9.3,-36.7,2.1,0.577745903,-0.268684957,-0.581102939,-0.506241035
537,1347534,434350,0.936,0.331,0.184,-43.8,-14.7,-4.9,-9.3,-36.7,2.1,0.577227088,-0.269325846,-0.580828272,-0.506790368
538,1348927,434350,0.936,0.339,0.192,-42.5,-15.5,-4.2,-9.6,-37,1.7,0.5765862,-0.269692068,-0.580706198,-0.507492294
539,1351284,434350,0.936,0.339,0.192,-42.5,-15.5,-4.2,-9.6,-37,1.7,0.576097903,-0.270332957,-0.580431532,-0.50798059
540,1354059,434360,0.94,0.339,0.192,-41.8,-15.8,-3.8,-9.6,-37,1.7,0.575609607,-0.271004364,-0.580187384,-0.508468886
541,1357407,434360,0.94,0.346,0.204,-40.9,-16,-3.4,-9.6,-37,1.7,0.575121311,-0.271645253,-0.579973754,-0.508926664
542,1359523,434360,0.944,0.35,0.22,-39.8,-16.2,-3.2,-9.6,-37,1.9,0.574633015,-0.272286142,-0.579760125,-0.509384442
543,1362670,434360,0.944,0.35,0.228,-38.5,-16.4,-2.9,-9.6,-37,1.9,0.574175237,-0.27292703,-0.579546495,-0.509811701
544,1364064,434370,0.955,0.357,0.263,-37.3,-16.3,-2.5,-9.6,-37,1.9,0.57371746,-0.2735374,-0.579363384,-0.510208441
545,1367436,434370,0.955,0.353,0.282,-35.7,-16,-2.1,-9.6,-37,1.9,0.573259682,-0.274147771,-0.579180273,-0.510605182
546,1369605,434370,0.955,0.353,0.282,-35.7,-16,-2.1,-9.6,-37,1.9,0.573259682,-0.274147771,-0.579180273,-0.510605182
547,1372658,434370,0.971,0.352,0.317,-32.3,-14,-1.7,-8.8,-36.9,1.7,0.572466201,-0.275246437,-0.578814051,-0.511307108
548,1374995,434380,1.131,0.347,0.279,-30.6,-12.1,-1.6,-8.8,-36.9,1.7,0.572099979,-0.275734733,-0.57863094,-0.511642811
549,1377307,434380,1.158,0.319,0.274,-28.7,-9.4,-1.4,-8.8,-36.9,1.7,0.571794794,-0.276192511,-0.578447829,-0.511978515
550,1379425,434380,1.119,0.304,0.287,-25.7,-5.3,-0.2,-8.9,-37,1.6,0.571581164,-0.276558733,-0.578203681,-0.512253182
551,1382509,434380,1.088,0.312,0.295,-20,0.8,3.5,-8.9,-37,1.6,0.571520127,-0.276863918,-0.577959532,-0.512466811
552,1384846,434390,1.026,0.32,0.296,-10.3,8.8,11,-8.9,-37,1.6,0.57167272,-0.277016511,-0.577654347,-0.512527848
553,1387067,434390,0.924,0.349,0.31,2.9,17.3,21.8,-8.9,-37,1.6,0.572161016,-0.277077548,-0.577349162,-0.512314219
554,1389218,434390,0.814,0.385,0.32,17.1,24.5,32.8,-9,-36.8,1.4,0.572954497,-0.276985992,-0.577043977,-0.511856441
555,1391646,434390,0.768,0.446,0.251,28.9,28.8,40.3,-9,-36.8,1.4,0.573931089,-0.276802881,-0.576769311,-0.511154515
556,1393927,434400,0.795,0.482,0.197,35.4,28.6,41.6,-9,-36.8,1.4,0.574968719,-0.276558733,-0.576555681,-0.510361034
557,1396238,434400,0.796,0.51,0.15,35.6,23.2,35.7,-9,-36.8,1.4,0.575884274,-0.276314585,-0.576433607,-0.509598071
558,1398729,434400,0.804,0.538,0.103,23.7,4.2,11.3,-8.9,-36.8,1.4,0.576128422,-0.275856807,-0.5765862,-0.509384442
559,1402501,434400,0.812,0.542,0.06,16.4,-4,-0.9,-8.9,-36.8,1.4,0.57615894,-0.275704215,-0.576830348,-0.509140294
560,1404638,434410,0.804,0.539,0.048,16.4,-4,-0.9,-8.9,-36.8,1.4,0.576189459,-0.275521104,-0.577074496,-0.508926664
561,1406936,434410,0.804,0.515,0.032,10.4,-9,-10.1,-8.9,-36.8,1.4,0.576036866,-0.275368511,-0.577379681,-0.508865627
562,1408947,434410,0.792,0.46,0.04,6.3,-11.2,-15.1,-10.1,-37.4,1.7,0.5757622,-0.275215918,-0.577654347,-0.508926664
563,1412316,434410,0.769,0.417,0.059,4.3,-10.9,-16,-10.1,-37.4,1.7,0.575457015,-0.275093844,-0.577959532,-0.508987701
564,1413893,434420,0.722,0.39,0.095,3.6,-9.7,-13.6,-10.1,-37.4,1.7,0.575182348,-0.27497177,-0.578203681,-0.509079257
565,1416312,434420,0.706,0.366,0.115,3.5,-8.7,-9.8,-10.1,-37.4,1.7,0.575029756,-0.274910733,-0.57841731,-0.509079257
566,1420219,434420,0.808,0.326,0.116,-1.2,-11.3,-7.9,-8.7,-37.1,1.7,0.574785607,-0.274941252,-0.578569903,-0.509140294
567,1422522,434420,0.858,0.286,0.123,-7.7,-14.8,-12.1,-8.7,-37.1,1.7,0.574419385,-0.275063326,-0.578753014,-0.509292886
568,1424805,434430,0.854,0.238,0.134,-16.3,-18.1,-17.7,-8.7,-37.1,1.7,0.573870052,-0.275246437,-0.578905606,-0.50962859
569,1427021,434430,0.874,0.152,0.144,-24.8,-20.4,-22.4,-8.7,-37.1,1.7,0.573229163,-0.275490585,-0.57902768,-0.510086367
570,1429014,434430,0.897,0.116,0.155,-31.4,-21.8,-24.7,-8.7,-37.2,1.8,0.572496719,-0.275826289,-0.579088717,-0.510666219
571,1431296,434430,0.913,0.076,0.17,-35.3,-23,-24.7,-8.7,-37.2,1.8,0.571703238,-0.276192511,-0.579149754,-0.511276589
572,1434469,434440,0.925,0.041,0.185,-37.1,-24.1,-22.8,-8.7,-37.2,1.8,0.570909757,-0.276650288,-0.579149754,-0.511886959
573,1436512,434440,0.956,0.004,0.219,-37.8,-25,-19.8,-8.7,-37.2,1.8,0.570146794,-0.277138585,-0.579180273,-0.512466811
574,1439968,434440,0.972,-0.018,0.223,-38.5,-25.5,-16.4,-8.6,-37,1.6,0.56941435,-0.277687918,-0.579149754,-0.513016144
575,1441395,434440,0.979,-0.026,0.234,-39.8,-25.7,-12.9,-8.6,-37,1.6,0.568712424,-0.278328806,-0.579088717,-0.51350444
576,1443819,434450,0.999,-0.035,0.234,-41.6,-25.6,-9.2,-8.6,-37,1.6,0.568010498,-0.279000214,-0.57902768,-0.513992737
577,1446965,434450,1.003,-0.023,0.23,-43.4,-25.3,-5.2,-8.6,-37,1.6,0.56736961,-0.279763176,-0.578875088,-0.514450514
578,1448958,434450,0.999,0,0.211,-44.7,-25,-1,-8.6,-37.2,1.7,0.567094943,-0.280953398,-0.578386792,-0.514664144
579,1451343,434450,0.987,0.024,0.215,-45.4,-24.8,3.2,-8.6,-37.2,1.7,0.56654561,-0.281838435,-0.578173162,-0.515030366
580,1455239,434460,0.983,0.047,0.208,-45.1,-24.8,7.2,-8.6,-37.2,1.7,0.566026795,-0.28275399,-0.577929014,-0.51536607
581,1457329,434460,0.975,0.071,0.2,-44,-24.9,10.8,-8.6,-37.2,1.7,0.565569018,-0.283730583,-0.577684866,-0.515640736
582,1458796,434460,0.968,0.091,0.193,-42,-24.9,13.8,-9.7,-37.1,1,0.565141758,-0.284707175,-0.577410199,-0.515854366
583,1463242,434460,0.948,0.135,0.17,-39.4,-24.8,15.8,-9.7,-37.1,1,0.564775536,-0.28562273,-0.57719657,-0.51597644
584,1464899,434470,0.94,0.155,0.167,-36.4,-24.4,17.1,-9.7,-37.1,1,0.564409314,-0.286599322,-0.576952422,-0.516067995
585,1467084,434470,0.936,0.163,0.159,-33.2,-23.6,17.7,-9.7,-37.1,1,0.564104129,-0.287484359,-0.576769311,-0.516129032
586,1469330,434470,0.944,0.17,0.151,-29.9,-22.7,17.8,-8.1,-36.9,0.8,0.563829463,-0.288338878,-0.576616718,-0.516159551
587,1471351,434470,0.94,0.19,0.136,-26.4,-21.7,17.3,-8.1,-36.9,0.8,0.563585314,-0.289132359,-0.576464125,-0.516129032
588,1475264,434480,0.948,0.194,0.132,-22.8,-20.9,16.8,-8.1,-36.9,0.8,0.563371685,-0.289864803,-0.57637257,-0.516067995
589,1476647,434480,0.956,0.198,0.128,-19.2,-20.3,16.4,-8.1,-36.9,0.8,0.563188574,-0.29053621,-0.576281014,-0.51597644
590,1480167,434480,0.952,0.186,0.12,-15.8,-20.2,16,-7.9,-37,1,0.563005463,-0.29114658,-0.576250496,-0.515854366
591,1482539,434480,0.956,0.179,0.108,-12.6,-20.6,15.6,-7.9,-37,1,0.56285287,-0.291756951,-0.576281014,-0.515701773
592,1484751,434490,0.964,0.167,0.096,-9.9,-21.8,14.8,-7.9,-37,1,0.562669759,-0.292306284,-0.576342051,-0.515488144
593,1486922,434490,0.972,0.159,0.084,-7.5,-23.7,13.7,-7.9,-37,1,0.562486648,-0.292825098,-0.576464125,-0.515274514
594,1488920,434490,0.984,0.144,0.072,-5.6,-26.2,12.4,-8.1,-37.1,0.6,0.562273019,-0.293343913,-0.576616718,-0.515030366
595,1491210,434490,0.984,0.124,0.06,-3.8,-29.2,11.1,-8.1,-37.1,0.6,0.561998352,-0.293862728,-0.576860866,-0.514755699
596,1494446,434500,0.984,0.12,0.06,-2.1,-32.2,10.4,-8.1,-37.1,0.6,0.561693167,-0.294381542,-0.577166051,-0.514450514
597,1496453,434500,0.988,0.104,0.063,-0.2,-35.1,10.2,-8.1,-37.1,0.6,0.561357463,-0.294900357,-0.577532273,-0.514084292
598,1499986,434500,0.992,0.104,0.063,1.8,-37.5,10.5,-8.4,-37.1,1,0.561143834,-0.296121097,-0.577990051,-0.513138218
599,1502064,434500,0.992,0.104,0.063,4.1,-39.4,10.8,-8.4,-37.1,1,0.560777612,-0.296670431,-0.578447829,-0.512680441
600,1504336,434510,0.999,0.093,0.059,6.6,-40.7,11.1,-8.4,-37.1,1,0.560441908,-0.297158727,-0.578966643,-0.512192145
601,1506364,434510,0.984,0.077,0.063,8.9,-41.5,11.2,-8.4,-37.1,1,0.560075686,-0.297677541,-0.579485458,-0.51167333
602,1509503,434510,0.988,0.061,0.071,10.9,-41.7,11.1,-10.1,-37.1,1.2,0.559770501,-0.298135319,-0.58006531,-0.511123997
603,1512621,434510,0.999,0.049,0.078,12.4,-41.3,10.5,-10.1,-37.1,1.2,0.559434797,-0.298593097,-0.580645161,-0.510574664
604,1514922,434520,1.023,0.021,0.077,13.2,-40.3,9.5,-10.1,-37.1,1.2,0.559129612,-0.298989837,-0.581194494,-0.51002533
605,1517040,434520,1.05,0.013,0.081,13.4,-38.9,8.2,-10.1,-37.1,1.2,0.558793909,-0.299356059,-0.581774346,-0.509506516
606,1519983,434520,1.078,0.017,0.08,13.1,-36.8,6.7,-8,-36.5,1.1,0.558488723,-0.299691763,-0.582323679,-0.50901822
607,1521371,434520,1.078,-0.01,0.092,11.7,-33.8,5,-8,-36.5,1.1,0.558183538,-0.299996948,-0.582842494,-0.50859096
608,1524563,434530,1.078,-0.061,0.064,9.4,-29.9,3.3,-8,-36.5,1.1,0.557908872,-0.300271615,-0.583300272,-0.508224738
609,1526593,434530,1.125,-0.069,0.043,6.7,-25.5,2.1,-8,-36.5,1.1,0.557664724,-0.300485244,-0.583666494,-0.507950072
610,1529033,434530,1.187,-0.077,0.022,4.8,-21.2,2.5,-7.8,-36.9,1.3,0.557451094,-0.300698874,-0.58394116,-0.507705924
611,1531300,434530,1.195,-0.096,0.002,4.8,-17,5.5,-7.8,-36.9,1.3,0.55732902,-0.300881985,-0.584185308,-0.507461776
612,1534480,434540,1.492,-0.006,-0.009,6.6,-11.5,11.9,-7.8,-36.9,1.3,0.557359539,-0.301095614,-0.584307382,-0.50715659
613,1536463,434540,1.328,-0.082,-0.014,8.7,-2.7,22.8,-7.8,-36.9,1.3,0.557634205,-0.301309244,-0.584307382,-0.50675985
614,1539596,434540,1.191,-0.116,-0.012,9.6,9.3,38.1,-8.3,-36.9,1.4,0.558244575,-0.301583911,-0.584032716,-0.506241035
615,1542707,434540,0.996,-0.211,-0.034,8.8,23.2,54.7,-8.3,-36.9,1.4,0.559190649,-0.301919614,-0.583483383,-0.505600146
616,1544004,434550,1.063,-0.223,-0.051,7.4,34.9,68,-8.3,-36.9,1.4,0.560441908,-0.302285836,-0.582689901,-0.504867702
617,1547354,434550,1.118,-0.255,-0.099,6.8,41.8,74.4,-8.3,-36.9,1.4,0.561815241,-0.302682577,-0.581774346,-0.504196295
618,1549453,434550,0.981,-0.371,-0.114,7.9,43.8,74.5,-8.6,-36.8,1,0.563249611,-0.303048799,-0.580828272,-0.503463851
619,1551539,434550,0.907,-0.405,-0.113,11,42.2,70.5,-8.6,-36.8,1,0.564653462,-0.303353984,-0.579973754,-0.502731407
620,1554832,434560,1.017,-0.421,-0.158,16,38.1,64.2,-8.6,-36.8,1,0.56593524,-0.303537095,-0.57924131,-0.501998962
621,1557267,434560,1.044,-0.429,-0.17,22.3,31.8,56.1,-8.6,-36.8,1,0.567094943,-0.303628651,-0.578722495,-0.501236
622,1558731,434560,1.107,-0.485,-0.195,28.9,24.1,47.9,-10.6,-36.9,1.5,0.568132572,-0.303628651,-0.57841731,-0.500442518
623,1562004,434560,1.052,-0.554,-0.234,34.5,17.1,41.9,-10.6,-36.9,1.5,0.569017609,-0.303537095,-0.578295236,-0.499588
624,1563954,434570,1.029,-0.585,-0.227,39.4,11.3,39.4,-10.6,-36.9,1.5,0.569841609,-0.303415021,-0.578325755,-0.498672445
625,1567303,434570,1.009,-0.648,-0.243,45.3,5.8,39,-10.6,-36.9,1.5,0.570665609,-0.303292947,-0.578508866,-0.497665334
626,1568803,434570,1.177,-0.645,-0.273,54,-0.8,38.9,-9.3,-36.8,1.9,0.571428571,-0.303109836,-0.578844569,-0.496475112
627,1572492,434570,1.232,-0.634,-0.27,65.6,-8.9,38.3,-9.3,-36.8,1.9,0.572161016,-0.302865688,-0.579393902,-0.495101779
628,1573887,434580,1.205,-0.642,-0.27,78.4,-17,39,-9.3,-36.8,1.9,0.57289346,-0.302560503,-0.580217902,-0.493514817
629,1576217,434580,1.209,-0.626,-0.273,89.8,-23.6,42.4,-9.3,-36.8,1.9,0.573625904,-0.302224799,-0.581194494,-0.491683706
630,1579060,434580,1.228,-0.618,-0.285,98,-28.4,47.7,-9.4,-36.8,1.7,0.574419385,-0.301919614,-0.582293161,-0.489669485
631,1582338,434580,1.224,-0.626,-0.301,102.3,-31.6,53.4,-9.4,-36.8,1.7,0.575273904,-0.301644948,-0.583422346,-0.487472152
632,1584572,434590,1.213,-0.614,-0.308,104,-33.8,58.2,-9.4,-36.8,1.7,0.576128422,-0.301461837,-0.584551531,-0.485213782
633,1587536,434590,1.201,-0.61,-0.328,104.3,-35.5,62.1,-9.4,-36.8,1.7,0.577013459,-0.301309244,-0.585711234,-0.482863857
634,1588868,434590,1.201,-0.613,-0.343,104.8,-37.3,65.9,-9.2,-35.8,2.7,0.577929014,-0.301217689,-0.586840419,-0.480422376
635,1592116,434590,1.19,-0.625,-0.371,106.2,-39.6,69.9,-9.2,-35.8,2.7,0.578844569,-0.30118717,-0.588000122,-0.477919858
636,1594826,434600,1.209,-0.624,-0.402,109.7,-42.1,74.3,-9.2,-35.8,2.7,0.579821162,-0.30118717,-0.589190344,-0.475295267
637,1596290,434600,1.221,-0.616,-0.414,115.9,-44.5,78.7,-9.2,-35.8,2.7,0.580797754,-0.30118717,-0.590411084,-0.472518082
638,1599118,434600,1.225,-0.604,-0.442,124.7,-46.2,82.6,-9.5,-36,3.3,0.58189642,-0.301156652,-0.591753899,-0.469557787
639,1602463,434600,1.229,-0.588,-0.457,135.3,-46.4,85.6,-9.5,-36,3.3,0.583056124,-0.301034577,-0.59315775,-0.46641438
640,1604624,434610,1.241,-0.561,-0.496,146.6,-45.2,87.7,-9.5,-36,3.3,0.584307382,-0.300759911,-0.594653157,-0.463118381
641,1607709,434610,1.249,-0.544,-0.527,157.8,-42.6,89.5,-9.5,-36,3.3,0.585680715,-0.300332652,-0.596179083,-0.459639271
642,1610057,434610,1.257,-0.536,-0.551,168.9,-39.2,91.4,-12,-35.9,4.1,0.587206641,-0.2997528,-0.597796564,-0.456007569
643,1612216,434610,1.261,-0.536,-0.598,180.2,-35.4,93.6,-12,-35.9,4.1,0.58885464,-0.299020356,-0.599414045,-0.452223273
644,1614553,434620,1.265,-0.524,-0.621,192.3,-31.6,96.1,-12,-35.9,4.1,0.590624714,-0.298104801,-0.601092563,-0.448255867
645,1616435,434620,1.261,-0.519,-0.637,205.6,-28.1,98.8,-12,-35.9,4.1,0.59254738,-0.297036653,-0.602801599,-0.44410535
646,1618794,434620,1.249,-0.491,-0.664,219.9,-25.4,101.4,-10.2,-34.9,5,0.594622639,-0.295754875,-0.604602191,-0.439710685
647,1621965,434620,1.261,-0.448,-0.699,234.3,-23.2,103.7,-10.2,-34.9,5,0.596819971,-0.294289987,-0.606433302,-0.435132908
648,1624110,434630,1.265,-0.428,-0.718,247.5,-21.5,105.7,-10.2,-34.9,5,0.59910886,-0.292672506,-0.608417005,-0.430341502
649,1626402,434630,1.265,-0.396,-0.729,258.5,-20,107.3,-10.2,-34.9,5,0.601489303,-0.290902432,-0.610400708,-0.425366985
650,1628721,434630,1.261,-0.361,-0.756,266.7,-18.8,108.3,-10.8,-34.6,6.2,0.603930784,-0.289010285,-0.61241493,-0.420239875
651,1631915,434630,1.273,-0.353,-0.772,272.4,-18.1,108.6,-10.8,-34.6,6.2,0.606372265,-0.2870571,-0.61445967,-0.415051729
652,1634001,434640,1.289,-0.337,-0.788,276.5,-18.1,108.3,-10.8,-34.6,6.2,0.608844264,-0.284981841,-0.616534928,-0.409802545
653,1637523,434640,1.289,-0.337,-0.796,279.7,-18.9,107.7,-10.8,-34.6,6.2,0.611285745,-0.282876064,-0.618579669,-0.404461806
654,1639951,434640,1.316,-0.313,-0.812,282.8,-20.2,107.1,-11.3,-34,8.2,0.613696707,-0.280739769,-0.620685446,-0.399090548
655,1642013,434640,1.312,-0.286,-0.803,286.5,-21.6,107,-11.3,-34,8.2,0.616077151,-0.278542436,-0.622791223,-0.393627735
656,1644106,434650,1.312,-0.286,-0.803,286.5,-21.6,107,-11.3,-34,8.2,0.616077151,-0.278542436,-0.622791223,-0.393627735
657,1646519,434650,1.32,-0.266,-0.807,294.8,-23.5,109.6,-11.3,-34,8.2,0.62080752,-0.273995178,-0.627063814,-0.382427442
658,1648720,434650,1.343,-0.224,-0.811,299,-23.7,112.3,-12,-32.9,9.4,0.623187963,-0.271675771,-0.62920011,-0.376689962
659,1651260,434650,1.351,-0.204,-0.815,303.1,-23.4,115.7,-12,-32.9,9.4,0.625598926,-0.269325846,-0.631305887,-0.37079989
660,1653788,434660,1.363,-0.177,-0.811,307.3,-22.6,119.6,-12,-32.9,9.4,0.628040407,-0.266945402,-0.633381146,-0.364787744
661,1657256,434660,1.371,-0.118,-0.818,311.7,-21.3,123.3,-12,-32.9,9.4,0.630512406,-0.26453444,-0.635425886,-0.358653523
662,1659635,434660,1.378,-0.079,-0.822,316.7,-19.7,126.3,-14.3,-32.3,11.2,0.633045442,-0.262092959,-0.637409589,-0.352397229
663,1663174,434660,1.394,-0.047,-0.829,322.2,-18.4,128.6,-14.3,-32.3,11.2,0.635608997,-0.259559923,-0.639393292,-0.34601886
664,1665629,434670,1.414,-0.008,-0.829,328.4,-17.4,130.2,-14.3,-32.3,11.2,0.63820307,-0.256935331,-0.641376995,-0.339518418
665,1667699,434670,1.464,0.065,-0.845,334.8,-17,131,-14.3,-32.3,11.2,0.640766625,-0.254249702,-0.64333018,-0.33292642
666,1669826,434670,1.492,0.1,-0.849,341.3,-17.2,130.5,-13.4,-31,12.4,0.643360698,-0.251411481,-0.645313883,-0.326181829
667,1672063,434670,1.519,0.127,-0.853,347.4,-17.6,128.7,-13.4,-31,12.4,0.645924253,-0.248481704,-0.647297586,-0.319376202
668,1674025,434680,1.542,0.194,-0.86,352.9,-18,125.6,-13.4,-31,12.4,0.648426771,-0.245399335,-0.649311808,-0.312509537
669,1676317,434680,1.558,0.213,-0.872,357.5,-17.8,121.5,-13.4,-31,12.4,0.65089877,-0.242164373,-0.651326029,-0.305642872
670,1679369,434680,1.597,0.244,-0.876,360.9,-17.3,116.7,-14.3,-29.6,14.3,0.653309732,-0.238807337,-0.653309732,-0.298745689
671,1682309,434680,1.585,0.264,-0.88,363.4,-16.3,111.9,-14.3,-29.6,14.3,0.655690176,-0.235328227,-0.655323954,-0.291879025
672,1684487,434690,1.675,0.33,-0.912,365.1,-15.2,107.9,-14.3,-29.6,14.3,0.658009583,-0.231727042,-0.657307657,-0.28501236
673,1688014,434690,1.738,0.353,-0.921,366.1,-13.7,105.8,-14.3,-29.6,14.3,0.660298471,-0.228064821,-0.659230323,-0.278176214
674,1690361,434690,1.746,0.349,-0.936,366.7,-11.5,106.7,-14.7,-28.2,15.8,0.662587359,-0.224372082,-0.661061434,-0.271279031
675,1692589,434690,1.546,0.304,-0.898,367.2,-7.6,111.1,-14.7,-28.2,15.8,0.664906766,-0.220709861,-0.66277047,-0.264320811
676,1694922,434700,1.558,0.359,-0.898,368.1,-2.1,118.4,-14.7,-28.2,15.8,0.66728721,-0.217078158,-0.664326914,-0.257271035
677,1697111,434700,1.722,0.4,-0.924,369,3.3,125.9,-14.7,-28.2,15.8,0.669789727,-0.213507492,-0.665730766,-0.250099185
678,1699123,434700,1.608,0.452,-0.851,368.6,9.1,131.8,-15.2,-26.5,17.4,0.672322764,-0.209997864,-0.666982025,-0.24283578
679,1701394,434700,1.401,0.395,-0.804,365,16.9,136,-15.2,-26.5,17.4,0.674947356,-0.206518754,-0.668019654,-0.235572375
680,1703751,434710,1.401,0.395,-0.804,365,16.9,136,-15.2,-26.5,17.4,0.674947356,-0.206518754,-0.668019654,-0.235572375
681,1707575,434710,1.401,0.395,-0.804,365,16.9,136,-15.2,-26.5,17.4,0.674947356,-0.206518754,-0.668019654,-0.235572375
682,1709880,434710,1.401,0.395,-0.804,365,16.9,136,-15.2,-26.5,17.4,0.674947356,-0.206518754,-0.668019654,-0.235572375
683,1712952,434710,1.401,0.395,-0.804,365,16.9,136,-15.2,-26.5,17.4,0.674947356,-0.206518754,-0.668019654,-0.235572375
684,1715208,434720,1.401,0.395,-0.804,365,16.9,136,-15.2,-26.5,17.4,0.674947356,-0.206518754,-0.668019654,-0.235572375
685,1717647,434720,1.487,0.46,-0.766,291.1,83.1,138.9,-16.8,-24.7,18.8,0.692129276,-0.188116092,-0.66850795,-0.196447645
686,1720070,434720,1.323,0.426,-0.74,285.5,89.4,142.1,-16.6,-23.3,19.5,0.695211646,-0.185491501,-0.667775506,-0.190496536
687,1722194,434720,1.417,0.457,-0.769,284.6,94.8,148.2,-16.6,-23.3,19.5,0.698355052,-0.182927946,-0.666920988,-0.18448439
688,1724404,434730,1.307,0.5,-0.704,288.8,100.2,156.5,-16.6,-23.3,19.5,0.701559496,-0.18039491,-0.665913877,-0.178289132
689,1726481,434730,1.362,0.563,-0.739,297.3,105.6,165,-16.6,-23.3,19.5,0.704886013,-0.177831355,-0.664754173,-0.171849727
690,1728781,434730,1.362,0.563,-0.739,297.3,105.6,165,-16.6,-23.3,19.5,0.704886013,-0.177831355,-0.664754173,-0.171849727
691,1731918,434730,1.244,0.638,-0.646,322.8,116.2,176.7,-17.1,-22,20,0.711844234,-0.172307505,-0.662190619,-0.158177435
692,1734045,434740,1.248,0.704,-0.626,337.6,121.5,178.4,-17.1,-22,20,0.715475936,-0.169164098,-0.660786767,-0.150975066
693,1736344,434740,1.126,0.822,-0.544,353.1,126.3,177.8,-17.1,-22,20,0.719138157,-0.16583758,-0.65929136,-0.143589587
694,1740465,434740,1.2,0.876,-0.541,368.2,129.2,175.3,-17.9,-19.9,20.8,0.722861415,-0.162175359,-0.657765435,-0.13595996
695,1742184,434740,1.181,0.95,-0.492,383,130.5,171.5,-17.9,-19.9,20.8,0.726554155,-0.158207953,-0.656208991,-0.128238777
696,1744590,434750,1.004,1.017,-0.391,397.7,131.5,167.5,-17.9,-19.9,20.8,0.730246895,-0.153904843,-0.654622028,-0.120334483
697,1746471,434750,0.777,1.077,-0.276,413,134.7,163.7,-17.9,-19.9,20.8,0.733939634,-0.149296548,-0.652974029,-0.112277596
698,1748797,434750,0.687,1.124,-0.196,428.2,139,159.1,-18.8,-17.7,21.3,0.737662893,-0.144383068,-0.651234474,-0.104068117
699,1751869,434750,1.066,1.152,-0.269,441.5,140.8,151.1,-18.8,-17.7,21.3,0.741355632,-0.139072848,-0.6494644,-0.0957976012
700,1754928,434760,1.249,1.223,-0.181,452.7,139.7,139.6,-18.8,-17.7,21.3,0.744987335,-0.133426923,-0.647694327,-0.0875576037
701,1757263,434760,1.097,1.22,-0.073,462.9,141.4,128.8,-18.8,-17.7,21.3,0.748527482,-0.127445296,-0.645863216,-0.0793176061
702,1759382,434760,0.999,1.169,0.013,473.2,152.7,123,-20.3,-15.5,22.2,0.752159185,-0.121189001,-0.643787957,-0.0710776086
703,1762344,434760,1.084,1.166,0.09,482.2,174.6,122.6,-20.3,-15.5,22.2,0.756035035,-0.114719077,-0.641315958,-0.0627460555
704,1764603,434770,0.872,1.099,0.281,487.1,202.9,124.2,-20.3,-15.5,22.2,0.760185553,-0.108127079,-0.638264107,-0.0543839839
705,1767998,434770,0.841,1.064,0.328,485.3,231.1,124.2,-20.3,-15.5,22.2,0.764641255,-0.101535081,-0.634693442,-0.0461134678
706,1769485,434770,0.817,1.04,0.387,475.8,255,121,-21.1,-13.3,22.3,0.769310587,-0.09500412,-0.630603961,-0.0380565813
707,1772520,434770,0.739,0.945,0.462,458.1,271.4,115,-21.1,-13.3,22.3,0.774040956,-0.0886867885,-0.62611774,-0.0303964354
708,1774953,434780,0.645,0.887,0.513,432.7,279.1,107.8,-21.1,-13.3,22.3,0.778710288,-0.0826136052,-0.621448408,-0.0231940672
709,1777096,434780,0.618,0.797,0.478,400.6,278.1,101.2,-21.1,-13.3,22.3,0.783196509,-0.0770592364,-0.616718039,-0.0165410321
710,1779402,434780,0.634,0.723,0.437,363,269.6,95.8,-21.7,-11.4,22.4,0.787438581,-0.0720542009,-0.612048708,-0.0104678488
711,1781505,434780,0.607,0.552,0.365,322.2,255.9,91.6,-21.7,-11.4,22.4,0.791344951,-0.067690054,-0.607562487,-0.00500503555
712,1783695,434790,0.631,0.451,0.289,280.7,239.1,87.6,-21.7,-11.4,22.4,0.794915616,-0.0639667959,-0.603289895,-0.000122074038
713,1786966,434790,0.678,0.369,0.193,240.4,221,83.5,-21.7,-11.4,22.4,0.798150578,-0.0608844264,-0.599322489,0.0041810358
714,1788895,434790,0.64,0.175,0.094,202.8,203.1,79,-22.7,-9.5,21.4,0.801049837,-0.0583819086,-0.595660268,0.00793481246
715,1792414,434790,0.691,0.093,0.018,169.1,185.9,73.9,-22.7,-9.5,21.4,0.80364391,-0.056428724,-0.592272713,0.0111697745
716,1793875,434800,0.824,0.123,0.027,141,168.9,67.8,-22.7,-9.5,21.4,0.805963317,-0.0549027985,-0.589190344,0.0139774773
717,1796557,434800,0.859,0.052,0.034,118.9,151.4,61.6,-22.7,-9.5,21.4,0.808038575,-0.0536515397,-0.58641316,0.0164189581
718,1799047,434800,0.812,-0.097,0.119,101.8,133.9,56.9,-23,-8.6,20.9,0.809839167,-0.0526139103,-0.58394116,0.0185552538
719,1801288,434800,0.827,-0.134,0.177,88.7,116.5,54.4,-23,-8.6,20.9,0.811395611,-0.0517899106,-0.581774346,0.0205084384
720,1805370,434810,0.901,-0.128,0.27,78.9,99.5,53.8,-23,-8.6,20.9,0.812738426,-0.0511185034,-0.579912717,0.0223395489
721,1807664,434810,0.936,-0.206,0.444,72.5,83.3,55.6,-23,-8.6,20.9,0.813837092,-0.0505691702,-0.578356273,0.0241706595
722,1809670,434810,0.881,-0.242,0.558,70,69.5,61.3,-23.5,-7.7,20.4,0.814752647,-0.0501419111,-0.577013459,0.0260628071
723,1812004,434810,0.892,-0.228,0.668,72.9,59.8,71.9,-23.5,-7.7,20.4,0.815546129,-0.049775689,-0.575823237,0.0281991028
724,1814014,434820,0.985,-0.164,0.804,83.8,54.2,85.8,-23.5,-7.7,20.4,0.816248054,-0.0494094668,-0.574694052,0.030732139
725,1816290,434820,0.827,-0.163,1.112,105.2,51.7,101.2,-23.5,-7.7,20.4,0.81694998,-0.0488296152,-0.573595386,0.03378399
726,1820258,434820,0.745,-0.164,1.27,139.4,51.2,117.5,-23.6,-7.3,20.1,0.817651906,-0.0478530229,-0.572466201,0.0375988037
727,1822526,434820,0.818,-0.101,1.426,188.3,51.8,133.1,-23.6,-7.3,20.1,0.81838435,-0.0461745048,-0.57124546,0.0422681356
728,1824767,434830,0.785,0.071,1.73,252.9,54.3,146.3,-23.6,-7.3,20.1,0.819147313,-0.043549913,-0.569872127,0.0479750969
729,1827099,434830,0.605,0.244,1.798,331.6,61.8,157.5,-23.6,-7.3,20.1,0.82003235,-0.0396435438,-0.568254646,0.0548417615
730,1829839,434830,0.472,0.529,1.792,419.8,78.1,168.7,-23.5,-6,20,0.821131016,-0.0343333232,-0.566179388,0.0629902036
731,1832038,434830,0.433,0.868,1.683,510.1,104.4,181.8,-23.5,-6,20,0.822504349,-0.0275887326,-0.563432722,0.07248146
732,1834094,434840,0.081,1.769,1.599,594.9,138.2,197,-23.5,-6,20,0.824152348,-0.0195318461,-0.559831538,0.0832239753
733,1836250,434840,-0.227,2.302,1.591,666,175.7,213.1,-23.5,-6,20,0.826105533,-0.0104983673,-0.55528428,0.095126194
734,1838706,434840,-0.372,2.897,1.581,713.1,212.7,226.9,-24,-3.7,19.8,0.828241829,-0.000823999756,-0.549851985,0.107791375
735,1842045,434840,-0.713,3.915,1.474,724.2,244.6,232.1,-24,-3.7,19.8,0.830530717,0.00888088626,-0.543626209,0.120639668
736,1845294,434850,-0.802,4.189,1.311,689.8,266.3,222.3,-24,-3.7,19.8,0.832850124,0.0180364391,-0.536973174,0.13287759
737,1846592,434850,-0.872,4.223,1.191,608.4,271.3,196.1,-24,-3.7,19.8,0.835139012,0.0260017701,-0.530289621,0.143681143
738,1849816,434850,-0.635,3.499,0.885,487.7,255.8,159.1,-24.3,-0.3,18.3,0.837244789,0.0322580645,-0.5241554,0.152348399
739,1851828,434850,-0.177,3.064,0.762,341.2,217.5,118.3,-24.3,-0.3,18.3,0.8390759,0.0364085818,-0.519089328,0.158574175
740,1855054,434860,0.092,2.446,0.616,182.8,162,76.6,-24.3,-0.3,18.3,0.840479751,0.0383312479,-0.515549181,0.162144841
741,1857136,434860,0.273,1.83,0.465,22.9,98.9,34.3,-24.3,-0.3,18.3,0.841456343,0.0379955443,-0.513687551,0.163121433
742,1859965,434860,0.732,1.141,0.261,-129.7,39.4,-6.2,-24.3,1,17.4,0.842005676,0.0355540635,-0.513412885,0.161595508
743,1862841,434860,0.858,0.858,0.165,-267.5,-9.5,-38.5,-24.3,1,17.4,0.842249825,0.0310983612,-0.514481033,0.15787225
744,1864947,434870,0.815,0.593,0.057,-384,-45.9,-55.1,-24.3,1,17.4,0.84212775,0.0247810297,-0.51658681,0.152500992
745,1866815,434870,0.789,0.414,-0.014,-476,-70.2,-52.5,-24.3,1,17.4,0.84173101,0.0169072542,-0.519425031,0.146122623
746,1869651,434870,0.583,-0.132,-0.244,-541.8,-84.3,-33.7,-24.8,0.3,17.9,0.841029084,0.00759910886,-0.522659993,0.139347514
747,1872686,434870,0.556,-0.296,-0.281,-578.2,-90.7,-8.3,-24.8,0.3,17.9,0.840052492,-0.00262459181,-0.526017029,0.132572405
748,1874288,434880,0.486,-0.409,-0.277,-582.6,-91.8,12.4,-24.8,0.3,17.9,0.83886227,-0.0131534776,-0.529343547,0.126102481
749,1877210,434880,0.333,-0.581,-0.218,-555.3,-88.9,21.6,-24.8,0.3,17.9,0.837549974,-0.0233161412,-0.532456435,0.120090335
750,1878801,434880,0.271,-0.628,-0.143,-502,-83.1,18.3,-24.7,-1.7,18,0.83620716,-0.0325022126,-0.535264138,0.114627522
751,1882798,434880,0.231,-0.629,-0.045,-432.2,-75.9,5.3,-24.7,-1.7,18,0.834986419,-0.040253914,-0.537705618,0.10974456
752,1885308,434890,0.297,-0.491,0.104,-355.7,-68.5,-14.2,-24.7,-1.7,18,0.833857234,-0.0464186529,-0.539780877,0.105349895
753,1887291,434890,0.381,-0.272,0.363,-282.2,-61.1,-36.8,-24.7,-1.7,18,0.832941679,-0.0509659108,-0.541581469,0.101413007
754,1889546,434890,0.346,-0.207,0.474,-220.4,-52.6,-58.8,-24.9,-2.2,19.1,0.832178716,-0.0541703543,-0.543076876,0.0978118229
755,1891577,434890,0.318,-0.165,0.565,-177.3,-41.7,-76.4,-24.9,-2.2,19.1,0.831629383,-0.056367687,-0.544297617,0.0943327128
756,1893892,434900,0.278,-0.126,0.649,-154.9,-28.1,-89.1,-24.9,-2.2,19.1,0.83129368,-0.0580767235,-0.54524369,0.0909146397
757,1896162,434900,0.161,-0.161,0.736,-150.6,-13,-98.5,-24.9,-2.2,19.1,0.831110569,-0.059602649,-0.545884579,0.0873744926
758,1900406,434900,0.153,-0.122,0.776,-158.7,1.6,-108.2,-24.9,-3.6,19,0.831141087,-0.0611896115,-0.546311838,0.0835291604
759,1903259,434900,0.157,-0.165,0.764,-174.2,14,-120.3,-24.9,-3.6,19,0.83129368,-0.062959685,-0.546525468,0.0791955321
760,1903700,434910,0.216,-0.228,0.719,-193.3,23.1,-135.7,-24.9,-3.6,19,0.831507309,-0.0648823511,-0.546617023,0.0744346446
761,1907706,434910,0.255,-0.298,0.647,-213.5,29.3,-153.3,-24.9,-3.6,19,0.831812494,-0.0669576098,-0.546647542,0.0690633869
762,1909829,434910,0.314,-0.334,0.594,-233.3,32.9,-171.6,-24.4,-5.2,19,0.832087161,-0.0692159795,-0.546617023,0.0630817591
763,1912154,434910,0.4,-0.354,0.554,-251.3,34.9,-189.5,-24.4,-5.2,19,0.832361827,-0.0715659047,-0.546617023,0.0566118351
764,1914180,434920,0.573,-0.445,0.452,-267.2,35.3,-205.9,-24.4,-5.2,19,0.832605976,-0.0740073855,-0.546617023,0.0496536149
765,1916396,434920,0.671,-0.484,0.387,-280.9,33.9,-219.6,-24.4,-5.2,19,0.832758568,-0.0765099033,-0.546617023,0.0422376171
766,1920277,434920,0.765,-0.512,0.31,-293.2,30,-229.5,-25.4,-6.6,18.9,0.832819605,-0.0791344951,-0.546708579,0.0345164342
767,1922727,434920,0.952,-0.498,0.264,-304,23.3,-235,-25.4,-6.6,18.9,0.83272805,-0.0818506424,-0.546922208,0.0265816218
768,1924882,434930,1.027,-0.506,0.239,-313,13,-236,-25.4,-6.6,18.9,0.832422864,-0.0847499008,-0.547257912,0.0185552538
769,1927080,434930,1.093,-0.514,0.214,-320.7,-1.1,-232.3,-25.4,-6.6,18.9,0.831873531,-0.0878017518,-0.547807245,0.0104983673
770,1928877,434930,1.148,-0.538,0.198,-327,-19.2,-224.2,-25.5,-8.5,18.9,0.831049532,-0.0910367138,-0.548661763,0.0025635548
771,1931183,434930,1.218,-0.535,0.169,-331.2,-40,-212.2,-25.5,-8.5,18.9,0.829889828,-0.0944853053,-0.549790948,-0.0051576281
772,1935881,434940,1.218,-0.539,0.2,-331.7,-61.8,-197.3,-25.5,-8.5,18.9,0.82842494,-0.0981475265,-0.551255837,-0.0125736259
773,1936183,434940,1.269,-0.555,0.203,-328,-83.4,-180.8,-25.5,-8.5,18.9,0.826624348,-0.101901303,-0.553056429,-0.0196234016
774,1940406,434940,1.422,-0.62,0.188,-320.9,-104,-164.4,-25.3,-10.7,18.5,0.824549089,-0.105746635,-0.555131687,-0.0262153996
775,1942589,434940,1.461,-0.636,0.175,-311.1,-122.1,-149.4,-25.3,-10.7,18.5,0.822260201,-0.109622486,-0.557481613,-0.0323801386
776,1944822,434950,1.445,-0.643,0.171,-298.9,-135.3,-136.8,-25.3,-10.7,18.5,0.819757683,-0.113376263,-0.560014649,-0.0381176183
777,1946963,434950,1.48,-0.671,0.147,-284.8,-142,-127.4,-25.3,-10.7,18.5,0.817194128,-0.117038484,-0.562608722,-0.043549913
778,1949077,434950,1.563,-0.734,0.11,-269.6,-142.2,-121.9,-25.2,-12.6,18.6,0.814630573,-0.120487075,-0.565202795,-0.0486770226
779,1951398,434950,1.606,-0.774,0.081,-253.7,-136.3,-120.6,-25.2,-12.6,18.6,0.812128056,-0.123630482,-0.567644276,-0.0535905026
780,1953682,434960,1.606,-0.836,0.029,-236.1,-124.8,-123.1,-25.2,-12.6,18.6,0.80977813,-0.126468703,-0.569902646,-0.0583819086
781,1956176,434960,1.446,-0.809,-0.017,-214.2,-107.6,-127.8,-25.2,-12.6,18.6,0.807672353,-0.12878811,-0.571886349,-0.0629902036
782,1960728,434960,1.305,-0.726,0.024,-185,-86.4,-131.9,-23.6,-13.8,18.6,0.80590228,-0.130527665,-0.57350383,-0.0673848689
783,1962868,434960,1.196,-0.643,0.07,-148.8,-65.3,-132.3,-23.6,-13.8,18.6,0.804437391,-0.131595813,-0.574816126,-0.0713827937
784,1965283,434970,1.133,-0.556,0.1,-109.8,-49.4,-126.7,-23.6,-13.8,18.6,0.803308206,-0.131992553,-0.575884274,-0.0748008667
785,1967324,434970,1.097,-0.364,0.15,-75.2,-42.1,-115.9,-23.6,-13.8,18.6,0.802362133,-0.131931516,-0.576830348,-0.0777001251
786,1969630,434970,1.066,-0.278,0.171,-50.4,-42.6,-103.2,-24.4,-13.8,19.2,0.801507614,-0.131595813,-0.577776421,-0.0800195318
787,1971848,434970,1.03,-0.195,0.196,-37,-47.4,-92.1,-24.4,-13.8,19.2,0.800653096,-0.131138035,-0.578814051,-0.0819727165
788,1973935,434980,0.979,-0.066,0.23,-33.5,-52.4,-83.9,-24.4,-13.8,19.2,0.799737541,-0.130771813,-0.579882199,-0.0837122715
789,1976163,434980,0.964,-0.015,0.262,-36.7,-54.8,-79,-24.4,-13.8,19.2,0.798791467,-0.130497147,-0.581011383,-0.0853907895
790,1980091,434980,0.956,0.035,0.282,-42.7,-53.7,-76.4,-24.2,-14.4,19.1,0.797845393,-0.130375072,-0.582079531,-0.087099826
791,1982408,434980,0.944,0.058,0.31,-48.8,-49.7,-75.2,-24.2,-14.4,19.1,0.796929838,-0.130375072,-0.583056124,-0.0889004181
792,1984582,434990,0.924,0.097,0.346,-53.3,-43.9,-74.3,-24.2,-14.4,19.1,0.79607532,-0.13043611,-0.58394116,-0.0907315287
793,1986932,434990,0.924,0.097,0.346,-53.3,-43.9,-74.3,-24.2,-14.4,19.1,0.79607532,-0.13043611,-0.58394116,-0.0907315287
794,1988908,434990,0.873,0.098,0.343,-57.2,-32,-69.2,-24,-14.9,19.1,0.794579913,-0.130741295,-0.585314493,-0.0944547868
795,1992779,434990,0.873,0.098,0.343,-57.2,-32,-69.2,-24,-14.9,19.1,0.794579913,-0.130741295,-0.585314493,-0.0944547868
796,1995098,435000,0.725,0.124,0.287,-57.4,-24,-59.6,-24,-14.9,19.1,0.793328654,-0.131260109,-0.586321604,-0.0979338969
797,1997327,435000,0.69,0.105,0.272,-57.7,-22.1,-54.9,-24,-14.9,19.1,0.792748802,-0.131595813,-0.586748863,-0.0995513779
798,1999584,435000,0.62,0.11,0.25,-59,-21.6,-51,-23.6,-15.4,19,0.792199469,-0.132023072,-0.587145604,-0.10113834
799,2001615,435000,0.581,0.107,0.247,-61,-21.8,-48.4,-23.6,-15.4,19,0.791619617,-0.13248085,-0.587511826,-0.102694784
800,2003870,435010,0.573,0.103,0.227,-62.9,-22.3,-47.3,-23.6,-15.4,19,0.791039766,-0.133030183,-0.587908567,-0.104251228
801,2006214,435010,0.557,0.103,0.235,-64.2,-22.5,-47.6,-23.6,-15.4,19,0.790459914,-0.133579516,-0.588274789,-0.105838191
802,2008709,435010,0.542,0.107,0.24,-64.6,-22.8,-48.8,-22,-17.1,18.7,0.789880062,-0.134098331,-0.588671529,-0.107425153
803,2013087,435010,0.526,0.115,0.26,-63.9,-22.9,-50.4,-22,-17.1,18.7,0.789269692,-0.134617145,-0.58906827,-0.109042634
804,2015403,435020,0.518,0.138,0.28,-62.4,-22.7,-52.3,-22,-17.1,18.7,0.788659322,-0.135074923,-0.589465011,-0.110690634
805,2017469,435020,0.518,0.15,0.291,-60.3,-22.1,-54.1,-22,-17.1,18.7,0.78807947,-0.135471664,-0.589831233,-0.112338633
806,2019824,435020,0.541,0.181,0.331,-58.8,-21.7,-55.9,-23.4,-16.2,18.7,0.7874691,-0.135807367,-0.590227973,-0.113986633
807,2022102,435020,0.568,0.184,0.361,-59,-21.9,-57.4,-23.4,-16.2,18.7,0.786889248,-0.136143071,-0.590655232,-0.115665151
808,2024346,435030,0.592,0.172,0.369,-61.7,-23.5,-58.6,-23.4,-16.2,18.7,0.78624836,-0.136509293,-0.591051973,-0.117404706
809,2026269,435030,0.568,0.168,0.369,-67,-26.2,-59.2,-23.4,-16.2,18.7,0.785546434,-0.136936552,-0.591509751,-0.119205298
810,2029596,435030,0.537,0.157,0.358,-73.2,-29.9,-59.7,-23.4,-17,18.7,0.784783471,-0.137516404,-0.592028565,-0.121097446
811,2031842,435030,0.545,0.176,0.342,-78.8,-34.6,-60.3,-23.4,-17,18.7,0.783928953,-0.138187811,-0.592577898,-0.123020112
812,2033912,435040,0.537,0.161,0.323,-82.2,-39.9,-61.8,-23.4,-17,18.7,0.783013398,-0.138889737,-0.593218787,-0.125034333
813,2036221,435040,0.534,0.165,0.311,-82.8,-45.3,-64.5,-23.4,-17,18.7,0.782006287,-0.139591662,-0.59398175,-0.127079073
814,2040230,435040,0.565,0.22,0.303,-80.2,-49.6,-69.4,-23.2,-17.2,18.7,0.78090762,-0.140202033,-0.59480575,-0.129123814
815,2042398,435040,0.58,0.232,0.284,-74.8,-52.6,-75.9,-23.2,-17.2,18.7,0.779778436,-0.140629292,-0.595721305,-0.131260109
816,2044725,435050,0.573,0.236,0.26,-68,-54.1,-83,-23.2,-17.2,18.7,0.778618732,-0.140842921,-0.596697897,-0.133365886
817,2046889,435050,0.616,0.28,0.209,-61.3,-54.4,-88.8,-23.2,-17.2,18.7,0.777459029,-0.140934477,-0.597705008,-0.135532701
818,2049020,435050,0.663,0.334,0.209,-55.6,-53.8,-92.6,-22.9,-17.6,18.4,0.776329844,-0.140812403,-0.598742637,-0.137638478
819,2051179,435050,0.71,0.377,0.201,-50.9,-53,-94.5,-22.9,-17.6,18.4,0.775170141,-0.140598773,-0.599780267,-0.139744255
820,2054425,435060,0.764,0.427,0.193,-48.3,-52.4,-94.6,-22.9,-17.6,18.4,0.774071474,-0.140354625,-0.600817896,-0.141819514
821,2056504,435060,0.795,0.45,0.184,-49.2,-52.3,-92.8,-22.9,-17.6,18.4,0.772942289,-0.140110477,-0.601825007,-0.143864254
822,2058793,435060,0.807,0.447,0.169,-55,-53.4,-89.7,-20.9,-19.5,18.3,0.771782586,-0.14004944,-0.602832118,-0.145939512
823,2062788,435060,0.8,0.408,0.145,-65.2,-55.7,-86.7,-20.9,-19.5,18.3,0.770561846,-0.140171514,-0.60380871,-0.148106326
824,2064978,435070,0.897,0.414,0.143,-77.8,-59.8,-85.5,-20.9,-19.5,18.3,0.76924955,-0.140537736,-0.604846339,-0.150364696
825,2067132,435070,0.96,0.425,0.15,-89.7,-65.7,-87.4,-20.9,-19.5,18.3,0.76781518,-0.141117588,-0.605914487,-0.152836695
826,2069024,435070,1.049,0.451,0.164,-99.3,-73.2,-92.3,-22.6,-19.3,19,0.766228217,-0.141788995,-0.60707419,-0.155461287
827,2072066,435070,1.206,0.485,0.174,-106.3,-81.4,-98.3,-22.6,-19.3,19,0.764488662,-0.142551958,-0.608386486,-0.15826899
828,2073857,435080,1.241,0.469,0.157,-112.3,-89.4,-103,-22.6,-19.3,19,0.762596515,-0.143375958,-0.609820856,-0.161198767
829,2077380,435080,1.26,0.453,0.137,-118.8,-96.3,-104.4,-22.6,-19.3,19,0.760582293,-0.144291513,-0.611316263,-0.164220099
830,2078853,435080,1.296,0.457,0.14,-126,-101.5,-102.2,-22,-20,18.6,0.758445997,-0.145390179,-0.612872707,-0.16727195
831,2081905,435080,1.401,0.432,0.13,-133.1,-105.1,-98,-22,-20,18.6,0.756248665,-0.146671957,-0.614429151,-0.170323801
832,2085695,435090,1.483,0.439,0.129,-139.5,-106.9,-94.8,-22,-20,18.6,0.754020814,-0.148075808,-0.615955077,-0.173436689
833,2087251,435090,1.542,0.426,0.132,-145.1,-106.9,-94.2,-22,-20,18.6,0.751731925,-0.149601733,-0.617481002,-0.176580096
834,2089135,435090,1.542,0.367,0.131,-150.2,-104.6,-95.3,-21.2,-21,18.7,0.749473556,-0.151188696,-0.618915372,-0.179815058
835,2092487,435090,1.526,0.348,0.123,-155.3,-100,-95.6,-21.2,-21,18.7,0.747215186,-0.152836695,-0.620258187,-0.183141575
836,2094108,435100,1.503,0.329,0.12,-160.9,-93.7,-93.9,-21.2,-21,18.7,0.745017853,-0.154515213,-0.621448408,-0.186559648
837,2097534,435100,1.487,0.309,0.116,-166.8,-86.7,-91,-21.2,-21,18.7,0.742912076,-0.156376843,-0.622486038,-0.189977721
838,2100289,435100,1.468,0.298,0.1,-173,-80,-88.7,-20.6,-21.9,18.4,0.740867336,-0.158330027,-0.623340556,-0.193517869
839,2102281,435100,1.444,0.279,0.093,-179.3,-74.3,-87.7,-20.6,-21.9,18.4,0.738853114,-0.160344249,-0.624103519,-0.197119053
840,2103644,435110,1.441,0.275,0.065,-185.8,-69.4,-87.6,-20.6,-21.9,18.4,0.736869411,-0.162419507,-0.624713889,-0.200811792
841,2106965,435110,1.41,0.261,0.038,-192.3,-65.3,-87.7,-20.6,-21.9,18.4,0.734916227,-0.16461684,-0.625232704,-0.204596088
842,2109043,435110,1.394,0.253,0.027,-198.4,-61.5,-87.5,-18.4,-23.8,18,0.732963042,-0.16687521,-0.625629444,-0.208502457
843,2112643,435110,1.367,0.242,0.015,-203.6,-57.7,-86.7,-18.4,-23.8,18,0.731009857,-0.169164098,-0.625934629,-0.212439344
844,2114435,435120,1.351,0.222,0.007,-207.5,-53.6,-85.2,-18.4,-23.8,18,0.72911771,-0.171605579,-0.626148259,-0.216437269
845,2116554,435120,1.285,0.184,0.004,-210.1,-49.2,-83.7,-18.4,-23.8,18,0.727256081,-0.174016541,-0.626239814,-0.220465712
846,2118733,435120,1.242,0.161,0.005,-211.2,-44.4,-82.7,-19.4,-24,17.5,0.72542497,-0.176458022,-0.626239814,-0.224494156
847,2122617,435120,1.218,0.15,0.005,-210.7,-39.7,-82.5,-19.4,-24,17.5,0.723624378,-0.178868984,-0.626148259,-0.228522599
848,2124636,435130,1.218,0.15,0.005,-210.7,-39.7,-82.5,-19.4,-24,17.5,0.723624378,-0.178868984,-0.626148259,-0.228522599
849,2128037,435130,1.218,0.15,0.005,-210.7,-39.7,-82.5,-19.4,-24,17.5,0.723624378,-0.178868984,-0.626148259,-0.228522599
850,2129709,435130,1.168,0.091,0.021,-199.7,-29.3,-87.7,-19.2,-24.7,17.1,0.718588824,-0.185491501,-0.625537889,-0.240546892
851,2131264,435130,1.164,0.076,0.013,-193.6,-27.9,-90,-19.2,-24.7,17.1,0.716940825,-0.187444685,-0.625324259,-0.244483779
852,2134176,435140,1.152,0.06,0.021,-186.8,-27.5,-91.5,-19.2,-24.7,17.1,0.715323344,-0.189275796,-0.62511063,-0.248329112
853,2137174,435140,1.164,0.067,0.032,-179.6,-27.7,-92.1,-19.2,-24.7,17.1,0.713675344,-0.190984832,-0.624958037,-0.252113407
854,2140475,435140,1.168,0.075,0.036,-172.2,-28.3,-92.1,-18.7,-25.5,16.3,0.712057863,-0.192541276,-0.624835963,-0.255775628
855,2142214,435140,1.168,0.067,0.04,-165.3,-28.7,-91.7,-18.7,-25.5,16.3,0.710470901,-0.194036683,-0.624744407,-0.259315775
856,2143715,435150,1.183,0.075,0.036,-159.5,-28.5,-90.6,-18.7,-25.5,16.3,0.708883938,-0.195410016,-0.624652852,-0.262794885
857,2146307,435150,1.179,0.063,0.036,-155.4,-27.6,-88.5,-18.7,-25.5,16.3,0.707327494,-0.196783349,-0.624561296,-0.266151921
858,2149202,435150,1.086,0.061,0.03,-153.1,-26.1,-85.6,-18.4,-26,15.9,0.705801569,-0.198126164,-0.624439222,-0.26944792
859,2152714,435150,1.054,0.053,0.019,-152.3,-23.8,-81.9,-18.4,-26,15.9,0.70433668,-0.199499496,-0.624256111,-0.272682882
860,2155005,435160,1.051,0.057,0.007,-152.4,-21.3,-77.9,-18.4,-26,15.9,0.702932829,-0.200903348,-0.624011963,-0.275856807
861,2156724,435160,1.043,0.057,0.007,-152.6,-19.2,-74.6,-18.4,-26,15.9,0.701528977,-0.202337718,-0.623706778,-0.279000214
862,2159992,435160,1.027,0.073,0.011,-152.7,-18.1,-72.5,-16.7,-28.4,14.8,0.700155644,-0.203802606,-0.623371075,-0.282113102
863,2161979,435160,1,0.074,0.004,-152.3,-17.6,-71.7,-16.7,-28.4,14.8,0.69881283,-0.205267495,-0.623035371,-0.285195471
864,2163698,435170,0.992,0.078,0,-151.8,-16.9,-71.5,-16.7,-28.4,14.8,0.697439497,-0.206701865,-0.62263863,-0.288277841
865,2167569,435170,0.98,0.082,-0.002,-151.4,-16,-71.6,-16.7,-28.4,14.8,0.696096683,-0.208136235,-0.622272408,-0.291329691
866,2169555,435170,0.965,0.098,-0.006,-151.3,-14.7,-71.7,-17.8,-27.1,15.1,0.694753868,-0.209540086,-0.621845149,-0.294412061
867,2171350,435170,0.953,0.098,-0.009,-151.6,-13.2,-71.8,-17.8,-27.1,15.1,0.693411054,-0.210943937,-0.621387371,-0.29749443
868,2174977,435180,0.937,0.09,-0.009,-152.1,-11.3,-72,-17.8,-27.1,15.1,0.692068239,-0.212347789,-0.620899075,-0.300607318
869,2176636,435180,0.933,0.091,-0.013,-153.1,-9.4,-72.2,-17.8,-27.1,15.1,0.690755943,-0.21375164,-0.620380261,-0.303720206
870,2180104,435180,0.918,0.091,-0.009,-154.3,-7.1,-72.5,-17,-27.8,14.1,0.689443648,-0.215124973,-0.619800409,-0.306863613
871,2181930,435180,0.918,0.087,-0.009,-155.2,-4.8,-72.9,-17,-27.8,14.1,0.68816187,-0.216528825,-0.61915952,-0.310037538
872,2184062,435190,0.91,0.087,-0.005,-155.8,-2.4,-73.7,-17,-27.8,14.1,0.686880093,-0.217871639,-0.618488113,-0.313241981
873,2186385,435190,0.91,0.071,0.002,-156.2,-0.3,-74.8,-17,-27.8,14.1,0.685628834,-0.219214454,-0.617786187,-0.316446425
874,2190321,435190,0.918,0.079,0.002,-156.3,1.5,-75.8,-16.9,-28.8,13.5,0.684377575,-0.220526749,-0.617023225,-0.319711905
875,2192395,435190,0.922,0.063,0.005,-156.1,3.1,-76.5,-16.9,-28.8,13.5,0.683126316,-0.221808527,-0.616260262,-0.322977386
876,2194662,435200,0.922,0.067,0.009,-155.4,4.7,-76.9,-16.9,-28.8,13.5,0.681905576,-0.223029267,-0.615466781,-0.326212348
877,2197369,435200,0.941,0.067,0.009,-154.3,5.8,-77,-16.9,-28.8,13.5,0.680654317,-0.224250008,-0.614642781,-0.329477828
878,2198690,435200,0.883,0.059,0.022,-149.9,7,-75.9,-16.3,-29.6,12.6,0.679464095,-0.225714896,-0.613910337,-0.332377087
879,2201875,435200,0.883,0.059,0.022,-149.9,7,-75.9,-16.3,-29.6,12.6,0.678243355,-0.226874599,-0.613086337,-0.335520493
880,2204645,435210,0.902,0.071,0.002,-146.6,6.5,-74.8,-16.3,-29.6,12.6,0.677053133,-0.228003784,-0.612262337,-0.338633381
881,2206126,435210,0.941,0.082,-0.002,-142.8,4.1,-73.6,-16.3,-29.6,12.6,0.675862911,-0.229102451,-0.611529893,-0.341654714
882,2208920,435210,0.98,0.098,-0.006,-138.5,-0.5,-73.1,-15.3,-31.5,11.7,0.674611652,-0.230170598,-0.610858486,-0.34458449
883,2212130,435210,1.027,0.117,-0.022,-133.7,-7.3,-73.4,-15.3,-31.5,11.7,0.673268838,-0.231208228,-0.610309153,-0.347392193
884,2214873,435220,1.144,0.135,-0.04,-128.5,-15.1,-74.3,-15.3,-31.5,11.7,0.671864986,-0.232215339,-0.60994293,-0.350077822
885,2216202,435220,1.191,0.158,-0.044,-122.7,-22.9,-75,-15.3,-31.5,11.7,0.670369579,-0.233191931,-0.609729301,-0.352732933
886,2219567,435220,1.207,0.166,-0.037,-116.3,-29.9,-75.1,-15.6,-30.6,11,0.668782617,-0.234107486,-0.609637745,-0.35523545
887,2221493,435220,1.312,0.22,-0.026,-109.4,-35.7,-74.9,-15.6,-30.6,11,0.667165136,-0.234992523,-0.609698782,-0.357585376
888,2224436,435230,1.422,0.25,-0.039,-102.8,-40.4,-75.4,-15.6,-30.6,11,0.665517136,-0.235816523,-0.609851375,-0.359843745
889,2226526,435230,1.492,0.288,-0.044,-97.6,-44.5,-77.4,-15.6,-30.6,11,0.6638081,-0.236548967,-0.61015656,-0.362041078
890,2228743,435230,1.523,0.319,-0.033,-94.4,-48.1,-80.9,-15.1,-31.2,11,0.662038026,-0.237220374,-0.610522782,-0.364238411
891,2232183,435230,1.613,0.326,-0.034,-93.6,-51.1,-84.3,-15.1,-31.2,11,0.660206915,-0.237830744,-0.610950041,-0.366435743
892,2234928,435240,1.679,0.337,-0.047,-95.5,-52.8,-86.8,-15.1,-31.2,11,0.658314768,-0.238471633,-0.6113773,-0.368663594
893,2236281,435240,1.73,0.333,-0.06,-99.7,-53,-88.6,-15.1,-31.2,11,0.656361583,-0.23914304,-0.611804559,-0.370983001
894,2239417,435240,1.797,0.304,-0.057,-105.2,-50.9,-90.2,-14.3,-31.2,10.5,0.654408399,-0.239875484,-0.612140263,-0.373424482
895,2242202,435240,1.742,0.273,-0.049,-110.7,-46,-90.9,-14.3,-31.2,10.5,0.652455214,-0.240607929,-0.612384411,-0.375957518
896,2244929,435250,1.547,0.24,-0.022,-115.5,-37.8,-89.6,-14.3,-31.2,10.5,0.650593585,-0.241370891,-0.612445448,-0.37858211
897,2246381,435250,1.429,0.214,-0.017,-119.8,-27,-85.2,-14.3,-31.2,10.5,0.648915067,-0.242164373,-0.612262337,-0.38123722
898,2248667,435250,1.39,0.16,-0.044,-124.6,-16.1,-79.2,-13.7,-32.1,10,0.647358623,-0.242988372,-0.611865596,-0.383953368
899,2251835,435250,1.351,0.137,-0.043,-129.9,-8.1,-74.1,-13.7,-32.1,10,0.645954772,-0.243903928,-0.611285745,-0.386669515
900,2255010,435260,1.305,0.122,-0.043,-135.2,-4.5,-71.2,-13.7,-32.1,10,0.64455092,-0.24488052,-0.610583819,-0.389477218
901,2256263,435260,1.266,0.103,-0.038,-139.7,-4.1,-69.7,-13.7,-32.1,10,0.643177587,-0.245979186,-0.609820856,-0.392284921
902,2259481,435260,1.195,0.099,-0.022,-142.7,-5.5,-68.3,-13.3,-33.8,9.3,0.641743217,-0.247108371,-0.609057894,-0.395123142
903,2262593,435260,1.168,0.088,-0.017,-144.3,-7.5,-66.3,-13.3,-33.8,9.3,0.640278329,-0.248268075,-0.608264412,-0.397900327
904,2264821,435270,1.133,0.08,-0.005,-144.8,-9.7,-64,-13.3,-33.8,9.3,0.63881344,-0.249549852,-0.60750145,-0.400677511
905,2266215,435270,1.074,0.1,0.034,-144.6,-11.7,-61.6,-13.3,-33.8,9.3,0.637318033,-0.250862148,-0.606738487,-0.403393658
906,2269242,435270,1.05,0.1,0.062,-143.8,-13.5,-59.3,-13.4,-33.2,8.6,0.635822626,-0.252204962,-0.605975524,-0.406048769
907,2272321,435270,1.015,0.1,0.075,-142.2,-15,-57,-13.4,-33.2,8.6,0.634327219,-0.253547777,-0.605212561,-0.408612323
908,2273853,435280,0.984,0.108,0.095,-140.1,-16.5,-54.7,-13.4,-33.2,8.6,0.632862331,-0.25492111,-0.604510636,-0.41114536
909,2277018,435280,0.945,0.116,0.119,-137.3,-18.1,-52.4,-13.4,-33.2,8.6,0.631366924,-0.256263924,-0.60380871,-0.413556322
910,2279222,435280,0.945,0.116,0.119,-137.3,-18.1,-52.4,-13.4,-33.2,8.6,0.631366924,-0.256263924,-0.60380871,-0.413556322
911,2282131,435280,0.921,0.136,0.128,-130.1,-21.4,-48.7,-13.2,-33.2,8.4,0.628437147,-0.258980071,-0.602526933,-0.418164617
912,2283677,435290,0.901,0.159,0.132,-125.2,-22.8,-47.1,-13.2,-33.2,8.4,0.627002777,-0.260292367,-0.601977599,-0.420331431
913,2286463,435290,0.882,0.175,0.133,-119.2,-23.6,-45.1,-13.2,-33.2,8.4,0.625598926,-0.261543626,-0.601458785,-0.422345653
914,2289815,435290,0.866,0.203,0.125,-112.3,-23.7,-42.8,-12.5,-33.9,7,0.624256111,-0.262733848,-0.601001007,-0.424298837
915,2292132,435290,0.855,0.215,0.122,-105.3,-23.4,-40.2,-12.5,-33.9,7,0.622974334,-0.263832514,-0.600573748,-0.426099429
916,2294338,435300,0.831,0.251,0.099,-98.8,-23,-37.3,-12.5,-33.9,7,0.621753594,-0.264900662,-0.600177007,-0.427777947
917,2296391,435300,0.827,0.267,0.084,-93.6,-22.6,-34.8,-12.5,-33.9,7,0.620563372,-0.265938292,-0.599810785,-0.429334391
918,2298704,435300,0.82,0.267,0.057,-87.4,-21.6,-31.9,-12.4,-34.4,7.1,0.619495224,-0.266914884,-0.599475082,-0.43079928
919,2301237,435300,0.82,0.267,0.057,-87.4,-21.6,-31.9,-12.4,-34.4,7.1,0.619495224,-0.266914884,-0.599475082,-0.43079928
920,2305590,435310,0.82,0.252,0.029,-86.1,-20.8,-31.7,-12.4,-34.4,7.1,0.61732841,-0.268807031,-0.598773156,-0.43366802
921,2307894,435310,0.824,0.248,0.025,-85.3,-19.5,-32.2,-12.4,-34.4,7.1,0.616260262,-0.269722587,-0.598406934,-0.43510239
922,2310087,435310,0.824,0.248,0.025,-85.3,-19.5,-32.2,-12.4,-34.4,7.1,0.616260262,-0.269722587,-0.598406934,-0.43510239
923,2312388,435310,0.847,0.213,0.008,-84.1,-15.8,-33.4,-12.2,-35.5,6.2,0.614185003,-0.271462142,-0.597643971,-0.437971129
924,2314615,435320,0.859,0.201,-0.003,-83.5,-13.4,-34.3,-12.2,-35.5,6.2,0.613177892,-0.272255623,-0.59724723,-0.439466536
925,2317115,435320,0.859,0.201,-0.003,-83.5,-13.4,-34.3,-12.2,-35.5,6.2,0.613177892,-0.272255623,-0.59724723,-0.439466536
926,2318884,435320,0.886,0.154,-0.008,-82.4,-7.4,-37.2,-11.7,-34.7,6.3,0.611255226,-0.273689993,-0.596331675,-0.442487869
927,2321238,435320,0.894,0.142,-0.008,-81.9,-4.3,-38.9,-11.7,-34.7,6.3,0.610339671,-0.274330882,-0.59581286,-0.444044313
928,2323749,435330,0.902,0.114,-0.012,-81.8,-1.4,-40.6,-11.7,-34.7,6.3,0.609454634,-0.274880215,-0.595294046,-0.445631275
929,2327526,435330,0.902,0.099,-0.012,-82.2,0.7,-41.9,-11.7,-34.7,6.3,0.608539079,-0.275429548,-0.594714194,-0.447279275
930,2329818,435330,0.902,0.099,-0.012,-82.2,0.7,-41.9,-11.7,-34.7,6.3,0.608539079,-0.275429548,-0.594714194,-0.447279275
931,2332094,435330,0.902,0.099,-0.012,-82.2,0.7,-41.9,-11.7,-34.7,6.3,0.608539079,-0.275429548,-0.594714194,-0.447279275
932,2333965,435340,0.941,0.02,-0.014,-85.9,4,-45.7,-11.8,-35.1,6.2,0.605822932,-0.276985992,-0.592913602,-0.452375866
933,2336383,435340,0.941,0.02,-0.014,-85.9,4,-45.7,-11.8,-35.1,6.2,0.605822932,-0.276985992,-0.592913602,-0.452375866
934,2340326,435340,0.976,-0.015,-0.015,-88.1,5.2,-48.5,-11.5,-35.4,5.2,0.603961303,-0.277962584,-0.591631825,-0.45597705
935,2342915,435340,0.984,-0.031,-0.012,-88.8,5.7,-49.5,-11.5,-35.4,5.2,0.60298471,-0.278420362,-0.590960417,-0.457808161
936,2343750,435350,1.004,-0.035,-0.012,-89.2,5.9,-49.7,-11.5,-35.4,5.2,0.602038636,-0.278908658,-0.59028901,-0.459639271
937,2346509,435350,1.012,-0.039,0.002,-89.8,5.6,-49,-11.5,-35.4,5.2,0.601062044,-0.279396954,-0.589617603,-0.461470382
938,2349929,435350,1.012,-0.039,0.002,-89.8,5.6,-49,-11.5,-35.4,5.2,0.601062044,-0.279396954,-0.589617603,-0.461470382
939,2352133,435350,1.012,-0.039,0.002,-89.8,5.6,-49,-11.5,-35.4,5.2,0.601062044,-0.279396954,-0.589617603,-0.461470382
940,2354074,435360,1.043,-0.051,-0.001,-95.1,1.9,-43.1,-11.2,-35.5,4.7,0.598193304,-0.281899472,-0.587511826,-0.466322825
941,2356489,435360,1.047,-0.051,0.002,-97.6,-0.2,-40.5,-11.2,-35.5,4.7,0.597186193,-0.282662435,-0.586748863,-0.468123417
942,2359710,435360,1.047,-0.04,-0.001,-99.7,-2.5,-37.6,-10.8,-36.3,4.2,0.596148564,-0.283486435,-0.586016419,-0.469862972
943,2363338,435360,1.051,-0.036,0.002,-101.2,-4.8,-34.9,-10.8,-36.3,4.2,0.595110935,-0.284432508,-0.585253456,-0.471572008
944,2365362,435370,1.058,-0.016,0.002,-101.8,-7.2,-32.1,-10.8,-36.3,4.2,0.594042787,-0.285409101,-0.584490493,-0.473250526
945,2367788,435370,1.062,-0.001,0.006,-101.5,-9.6,-29.6,-10.8,-36.3,4.2,0.592974639,-0.28644673,-0.583758049,-0.474868007
946,2369944,435370,1.066,0.006,0.014,-100.3,-11.9,-27.2,-10.3,-35.7,3.9,0.591906491,-0.287514878,-0.582995087,-0.476424451
947,2372252,435370,1.07,0.03,0.018,-98.6,-13.9,-25.2,-10.3,-35.7,3.9,0.590807825,-0.288613544,-0.582354198,-0.477919858
948,2374028,435380,1.074,0.045,0.022,-96.5,-15.7,-23.5,-10.3,-35.7,3.9,0.589800714,-0.28971221,-0.581682791,-0.479354228
949,2376464,435380,1.078,0.057,0.022,-94.2,-16.9,-21.9,-10.3,-35.7,3.9,0.588763085,-0.290841395,-0.58107242,-0.480727561
950,2378753,435380,1.082,0.065,0.03,-91.7,-17.6,-20.9,-10.5,-36.4,3.5,0.587725455,-0.291940062,-0.58046205,-0.482039857
951,2381220,435380,1.082,0.084,0.034,-88.8,-17.6,-20.5,-10.5,-36.4,3.5,0.586718345,-0.293008209,-0.579882199,-0.483321635
952,2385804,435390,1.085,0.088,0.042,-85.7,-17,-20.5,-10.5,-36.4,3.5,0.585741752,-0.29401532,-0.579332865,-0.484542375
953,2387964,435390,1.086,0.1,0.038,-82.2,-15.8,-20.3,-10.5,-36.4,3.5,0.584795679,-0.294961394,-0.578783532,-0.485763115
954,2390202,435390,1.086,0.1,0.034,-78.6,-14.3,-20.3,-10,-36.2,3,0.583880123,-0.295876949,-0.578264718,-0.486922819
955,2392381,435390,1.078,0.112,0.034,-75.1,-12.7,-20.4,-10,-36.2,3,0.582995087,-0.296700949,-0.577745903,-0.488021485
956,2393905,435400,1.078,0.108,0.034,-71.8,-11,-20.9,-10,-36.2,3,0.582201605,-0.297463912,-0.577257607,-0.489120151
957,2396309,435400,1.078,0.116,0.023,-68.9,-9.7,-21.4,-10,-36.2,3,0.581408124,-0.298196356,-0.576799829,-0.490218818
958,2400251,435400,1.07,0.116,0.031,-65,-8.3,-22.5,-9.8,-36.4,2.4,0.580614643,-0.299295022,-0.576494644,-0.490798669
959,2402465,435400,1.066,0.116,0.027,-65,-8.3,-22.5,-9.8,-36.4,2.4,0.579821162,-0.29996643,-0.576067385,-0.491866817
960,2404797,435410,1.066,0.116,0.027,-65,-8.3,-22.5,-9.8,-36.4,2.4,0.579821162,-0.29996643,-0.576067385,-0.491866817
961,2407095,435410,1.062,0.104,0.031,-62.8,-8.1,-23.3,-9.8,-36.4,2.4,0.578295236,-0.301156652,-0.575182348,-0.493942076
962,2408726,435410,1.046,0.1,0.035,-62,-8,-23.5,-9.9,-36.8,1.7,0.577532273,-0.301705985,-0.574785607,-0.494949187
963,2412951,435410,1.046,0.096,0.039,-61.3,-7.8,-23.6,-9.9,-36.8,1.7,0.576769311,-0.302285836,-0.574388867,-0.495956297
964,2414685,435420,1.043,0.092,0.043,-60.6,-7.5,-23.8,-9.9,-36.8,1.7,0.576006348,-0.30283517,-0.573992126,-0.496963408
965,2416555,435420,1.039,0.084,0.043,-59.8,-7.3,-23.8,-9.9,-36.8,1.7,0.575273904,-0.303353984,-0.573595386,-0.497970519
966,2418915,435420,1.031,0.081,0.047,-58.8,-6.9,-23.7,-9.7,-36.7,1.9,0.574541459,-0.303872799,-0.573198645,-0.49897763
967,2422966,435420,1.031,0.073,0.05,-57.6,-6.4,-23.6,-9.7,-36.7,1.9,0.573809015,-0.304361095,-0.572801904,-0.499923704
968,2425244,435430,1.031,0.069,0.054,-56.2,-6,-23.3,-9.7,-36.7,1.9,0.573107089,-0.304849391,-0.572405164,-0.500900296
969,2427384,435430,1.027,0.065,0.054,-54.6,-5.6,-22.9,-9.7,-36.7,1.9,0.572435682,-0.305307169,-0.572038942,-0.501815851
970,2429608,435430,1.027,0.065,0.062,-53,-5.6,-22.6,-9.7,-36.8,1.7,0.571764275,-0.305734428,-0.57167272,-0.502731407
971,2431503,435430,1.027,0.061,0.074,-51.4,-5.7,-22.4,-9.7,-36.8,1.7,0.571092868,-0.306161687,-0.571337016,-0.503616443
972,2433906,435440,1.027,0.061,0.074,-49.7,-5.9,-22.1,-9.7,-36.8,1.7,0.570451979,-0.306588946,-0.571001312,-0.504470962
973,2436175,435440,1.023,0.061,0.082,-48.1,-6.1,-21.5,-9.7,-36.8,1.7,0.56981109,-0.306985687,-0.570696127,-0.505294961
974,2438699,435440,1.023,0.061,0.082,-46.3,-6.3,-20.8,-9.5,-36.9,1.4,0.56920072,-0.307351909,-0.570421461,-0.506088443
975,2441943,435440,1.019,0.061,0.086,-44.6,-6.5,-19.9,-9.5,-36.9,1.4,0.56859035,-0.30774865,-0.570116276,-0.506851405
976,2445413,435450,1.015,0.068,0.094,-42.7,-6.7,-18.7,-9.5,-36.9,1.4,0.568010498,-0.308114872,-0.569872127,-0.50758385
977,2447606,435450,1.015,0.08,0.106,-40.8,-6.9,-17.4,-9.5,-36.9,1.4,0.567461165,-0.308481094,-0.569627979,-0.508255257
978,2449099,435450,1.011,0.088,0.106,-37.1,-7.2,-14.7,-9.4,-37,0.7,0.567186499,-0.30957976,-0.569292276,-0.508224738
979,2451379,435450,1.007,0.1,0.114,-37.1,-7.2,-14.7,-9.4,-37,0.7,0.566667684,-0.309945982,-0.569078646,-0.508835108
980,2453761,435460,1.007,0.107,0.118,-35.4,-7.3,-13.4,-9.4,-37,0.7,0.566179388,-0.310312204,-0.568865017,-0.509384442
981,2456219,435460,1.003,0.115,0.118,-33.7,-7.2,-12.3,-9.4,-37,0.7,0.56572161,-0.310647908,-0.568651387,-0.509903256
982,2460809,435460,1.003,0.123,0.114,-32.1,-7.1,-11.1,-9.4,-37,0.8,0.565294351,-0.310983612,-0.568468276,-0.510391552
983,2463114,435460,0.995,0.139,0.118,-30.5,-6.8,-10.1,-9.4,-37,0.8,0.56489761,-0.311319315,-0.568285165,-0.51084933
984,2465233,435470,0.991,0.139,0.126,-28.9,-6.4,-9,-9.4,-37,0.8,0.564531388,-0.3116245,-0.568102054,-0.511276589
985,2467533,435470,0.995,0.151,0.119,-27.4,-6.1,-8.1,-9.4,-37,0.8,0.564165166,-0.311929685,-0.567918943,-0.51167333
986,2469795,435470,0.991,0.162,0.127,-25.8,-5.9,-7.4,-9.4,-37,0.2,0.563829463,-0.31223487,-0.56776635,-0.51207007
987,2472001,435470,0.995,0.166,0.123,-24.4,-5.6,-6.7,-9.4,-37,0.2,0.563524277,-0.312509537,-0.567613758,-0.512405774
988,2475417,435480,0.991,0.182,0.127,-22.9,-5.5,-6,-9.4,-37,0.2,0.563219092,-0.312784204,-0.567461165,-0.512680441
989,2477532,435480,0.991,0.19,0.127,-21.6,-5.2,-5.5,-9.4,-37,0.2,0.562944426,-0.313028352,-0.567308573,-0.513016144
990,2479065,435480,0.999,0.197,0.131,-20.2,-4.8,-4.9,-9.6,-37.3,0.4,0.562700278,-0.3132725,-0.567186499,-0.513290811
991,2481400,435480,0.991,0.202,0.127,-19,-4.3,-4.4,-9.6,-37.3,0.4,0.56245613,-0.313486129,-0.567064425,-0.513565477
992,2485211,435490,0.995,0.205,0.127,-17.8,-3.8,-3.9,-9.6,-37.3,0.4,0.5622425,-0.313699759,-0.566911832,-0.513809626
993,2487526,435490,0.995,0.217,0.127,-16.7,-3.4,-3.6,-9.6,-37.3,0.4,0.562059389,-0.313913388,-0.566789758,-0.514023255
994,2489556,435490,0.995,0.217,0.127,-16.7,-3.4,-3.6,-9.6,-37.3,0.4,0.562059389,-0.313913388,-0.566789758,-0.514023255
995,2491444,435490,0.995,0.221,0.127,-14.1,-2.7,-3.1,-9.3,-37.1,0.3,0.561693167,-0.314249092,-0.566576128,-0.514450514
996,2493806,435500,0.991,0.221,0.127,-12.9,-2.4,-2.8,-9.3,-37.1,0.3,0.561540574,-0.314401685,-0.566484573,-0.514633625
997,2497654,435500,0.999,0.229,0.131,-11.7,-2.2,-2.5,-9.3,-37.1,0.3,0.5614185,-0.314554277,-0.566393017,-0.514786218
998,2500010,435500,1.003,0.233,0.131,-9.2,-1.6,-1.8,-9.2,-37.6,0.1,0.561174352,-0.315012055,-0.566576128,-0.514572588
999,2502138,435500,1.003,0.233,0.131,-8.1,-1.3,-1.5,-9.2,-37.6,0.1,0.561113315,-0.31510361,-0.566515091,-0.514664144
1000,2505191,435510,1.003,0.229,0.127,-8.1,-1.3,-1.5,-9.2,-37.6,0.1,0.56102176,-0.315195166,-0.566423536,-0.514786218
1001,2506528,435510,1.003,0.229,0.127,-8.1,-1.3,-1.5,-9.2,-37.6,0.1,0.56102176,-0.315195166,-0.566423536,-0.514786218
1002,2510022,435510,1.011,0.241,0.131,-6.1,-0.7,-1.1,-9.2,-36.9,0,0.560869167,-0.315347758,-0.56633198,-0.514969329
1003,2513380,435510,1.011,0.237,0.131,-5.4,-0.3,-0.8,-9.2,-36.9,0,0.56080813,-0.315408795,-0.566270943,-0.515060884
1004,2515555,435520,1.015,0.24,0.131,-4.8,0,-0.5,-9.2,-36.9,0,0.560777612,-0.315469832,-0.566240425,-0.515121921
1005,2517824,435520,1.011,0.244,0.131,-4.4,0.4,-0.1,-9.2,-36.9,0,0.560747093,-0.315530869,-0.566179388,-0.515182958
1006,2520035,435520,1.015,0.244,0.127,-4.2,0.7,0.2,-9.2,-37.4,-0.1,0.560716575,-0.315561388,-0.566118351,-0.515213477
1007,2522451,435520,1.011,0.241,0.127,-4.1,0.8,0.4,-9.2,-37.4,-0.1,0.560716575,-0.315622425,-0.566057314,-0.515274514
1008,2524493,435530,1.007,0.237,0.127,-4,0.9,0.7,-9.2,-37.4,-0.1,0.560716575,-0.315652944,-0.565996277,-0.515335551
1009,2526628,435530,1.011,0.237,0.127,-4.1,1,0.9,-9.2,-37.4,-0.1,0.560716575,-0.315713981,-0.56593524,-0.51536607
1010,2528924,435530,1.007,0.233,0.127,-4.3,1.2,1.1,-9.3,-37.2,0,0.560716575,-0.315775018,-0.565843684,-0.515427107
1011,2532488,435530,1.003,0.225,0.123,-4.6,1.4,1.2,-9.3,-37.2,0,0.560716575,-0.315805536,-0.565782647,-0.515488144
1012,2534868,435540,0.987,0.221,0.116,-5.1,1.7,1.1,-9.3,-37.2,0,0.560716575,-0.315866573,-0.565691092,-0.515549181
1013,2536333,435540,0.987,0.217,0.116,-5.8,1.9,1.1,-9.3,-37.2,0,0.560686056,-0.31592761,-0.565599536,-0.515610218
1014,2539617,435540,0.983,0.218,0.116,-6.5,2,1.1,-9.4,-37.3,0.1,0.560686056,-0.316019166,-0.565477462,-0.515671255
1015,2542706,435540,0.968,0.198,0.108,-7.1,2.2,1.2,-9.4,-37.3,0.1,0.560686056,-0.316080203,-0.565355388,-0.51576281
1016,2545028,435550,0.968,0.198,0.108,-7.1,2.2,1.2,-9.4,-37.3,0.1,0.560686056,-0.316080203,-0.565355388,-0.51576281
1017,2547524,435550,0.968,0.202,0.112,-7.8,2.7,1.2,-9.4,-37.3,0.1,0.560686056,-0.316232795,-0.56511124,-0.51597644
1018,2549657,435550,0.968,0.202,0.112,-7.8,2.7,1.2,-9.4,-37.3,0.1,0.560686056,-0.316232795,-0.56511124,-0.51597644
