sample_index,elapsed_us,device_time_ms,acc_x_g,acc_y_g,acc_z_g,gyro_x_dps,gyro_y_dps,gyro_z_dps,mag_x_ut,mag_y_ut,mag_z_ut,quat_w,quat_x,quat_y,quat_z
0,5620,1508100,-0.545,-0.584,0.61,0.9,3.1,-0.7,7.4,-7.8,-23.3,0.441663869,0.106753746,0.430524613,-0.779839473
1,7820,1508110,-0.545,-0.576,0.61,0.9,3.3,-0.6,7.4,-7.8,-23.3,0.441633351,0.106814783,0.430524613,-0.779839473
2,9997,1508110,-0.537,-0.584,0.61,0.9,3.6,-0.6,7.6,-7.8,-22.9,0.441572314,0.10687582,0.430555132,-0.779839473
3,12233,1508110,-0.541,-0.588,0.618,0.9,3.9,-0.5,7.6,-7.8,-22.9,0.441511277,0.106936857,0.43058565,-0.779839473
4,14446,1508110,-0.541,-0.588,0.61,0.9,4.1,-0.5,7.6,-7.8,-22.9,0.441480758,0.106997894,0.430616169,-0.779839473
5,16703,1508120,-0.541,-0.58,0.602,1,4.2,-0.4,7.6,-7.8,-22.9,0.441419721,0.10708945,0.430646687,-0.779869991
6,19752,1508120,-0.545,-0.58,0.606,1,4.3,-0.3,7.6,-7.8,-22.9,0.441389203,0.107181005,0.430646687,-0.779869991
7,22844,1508120,-0.545,-0.58,0.602,0.9,4.3,-0.3,7.6,-7.8,-22.9,0.441328166,0.107242042,0.430677206,-0.779869991
8,24299,1508120,-0.549,-0.58,0.602,1,4.5,-0.3,7.6,-7.8,-22.9,0.441267129,0.107333598,0.430707724,-0.779869991
9,26768,1508130,-0.549,-0.576,0.602,1,4.6,-0.3,7.6,-7.8,-22.9,0.44123661,0.107425153,0.430738243,-0.779869991
10,29082,1508130,-0.549,-0.576,0.602,1.1,4.6,-0.2,7.7,-8.6,-20.7,0.441175573,0.107516709,0.430768761,-0.779869991
11,32481,1508130,-0.549,-0.576,0.598,1.2,4.6,-0.2,7.7,-8.6,-20.7,0.441114536,0.107608264,0.43079928,-0.779869991
12,34155,1508130,-0.553,-0.584,0.602,1.4,4.6,-0.2,7.7,-8.6,-20.7,0.441084017,0.10769982,0.43079928,-0.779869991
13,36556,1508140,-0.553,-0.576,0.606,1.6,4.6,-0.2,7.7,-8.6,-20.7,0.44102298,0.107791375,0.430829798,-0.77990051
14,39227,1508140,-0.553,-0.584,0.602,1.7,4.6,-0.1,7.6,-8.5,-20.1,0.440961943,0.107882931,0.430829798,-0.77990051
15,41753,1508140,-0.549,-0.588,0.606,1.5,4.5,0,7.6,-8.5,-20.1,0.440931425,0.107974487,0.430860317,-0.77990051
16,45394,1508140,-0.549,-0.588,0.614,1.4,4.4,0,7.6,-8.5,-20.1,0.440870388,0.108066042,0.430890835,-0.77990051
17,46786,1508150,-0.549,-0.588,0.61,1.2,4.4,0,7.6,-8.5,-20.1,0.440839869,0.108157598,0.430890835,-0.77990051
18,49929,1508150,-0.549,-0.588,0.606,1,4.5,0,7.6,-8.4,-19.3,0.440748314,0.108188116,0.430951872,-0.77990051
19,51612,1508150,-0.553,-0.588,0.614,0.7,4.5,0.1,7.6,-8.4,-19.3,0.440717795,0.108279672,0.430982391,-0.77990051
20,54369,1508150,-0.553,-0.592,0.606,0.5,4.6,0,7.6,-8.4,-19.3,0.440656758,0.108340709,0.431012909,-0.77990051
21,57440,1508160,-0.549,-0.588,0.614,0.4,4.7,-0.1,7.6,-8.4,-19.3,0.44062624,0.108432264,0.431073946,-0.77990051
22,59124,1508160,-0.553,-0.592,0.606,0.3,4.7,-0.3,7.6,-8.5,-19.7,0.440565203,0.108493301,0.431104465,-0.779869991
23,62660,1508160,-0.553,-0.592,0.61,0.2,4.5,-0.3,7.6,-8.5,-19.7,0.440534684,0.108584857,0.431134983,-0.779869991
24,64163,1508160,-0.553,-0.592,0.614,0.2,4.4,-0.2,7.6,-8.5,-19.7,0.440473647,0.108676412,0.43119602,-0.779869991
25,67017,1508170,-0.549,-0.588,0.606,0.3,4.3,-0.1,7.6,-8.5,-19.7,0.44041261,0.108737449,0.431226539,-0.779869991
26,70102,1508170,-0.553,-0.592,0.606,0.5,4.3,-0.1,7.6,-8.5,-19.7,0.440382092,0.108829005,0.431257057,-0.779869991
27,72941,1508170,-0.553,-0.592,0.614,0.6,4.3,-0.2,7.6,-8.5,-19.7,0.440321055,0.108890042,0.431287576,-0.779869991
28,74642,1508170,-0.557,-0.592,0.61,0.7,4.3,-0.3,7.6,-8.5,-19.7,0.440290536,0.108981597,0.431318094,-0.779869991
29,77420,1508180,-0.553,-0.592,0.61,0.6,4.4,-0.5,7.6,-8.5,-19.7,0.440229499,0.109073153,0.431348613,-0.779869991
30,79137,1508180,-0.545,-0.588,0.61,0.6,4.5,-0.6,7.6,-8.5,-22.1,0.440168462,0.10913419,0.431379131,-0.779869991
31,82042,1508180,-0.549,-0.588,0.614,0.5,4.5,-0.9,7.6,-8.5,-22.1,0.440107425,0.109195227,0.43140965,-0.779869991
32,84305,1508180,-0.549,-0.588,0.614,0.6,4.5,-0.9,7.6,-8.5,-22.1,0.440046388,0.109286782,0.431470687,-0.779869991
33,87349,1508190,-0.553,-0.588,0.618,0.6,4.5,-0.9,7.6,-8.5,-22.1,0.439985351,0.109347819,0.431501205,-0.779869991
34,89036,1508190,-0.549,-0.592,0.614,0.7,4.5,-0.8,7.5,-8.7,-23.1,0.439924314,0.109439375,0.431531724,-0.779869991
35,91788,1508190,-0.545,-0.596,0.618,0.6,4.6,-0.9,7.5,-8.7,-23.1,0.439893796,0.109469893,0.431562243,-0.779869991
36,94825,1508190,-0.549,-0.592,0.614,0.6,4.6,-0.9,7.5,-8.7,-23.1,0.439832759,0.109591968,0.431592761,-0.779869991
37,97986,1508200,-0.549,-0.592,0.614,0.6,4.7,-0.9,7.5,-8.7,-23.1,0.439741203,0.109653005,0.43162328,-0.77990051
38,99497,1508200,-0.549,-0.592,0.61,0.6,4.8,-0.9,7.2,-8.6,-23.9,0.439619129,0.109561449,0.431653798,-0.779961547
39,102784,1508200,-0.545,-0.592,0.618,0.4,4.9,-0.9,7.2,-8.6,-23.9,0.439558092,0.109653005,0.431714835,-0.779961547
40,104206,1508200,-0.549,-0.588,0.61,0.2,4.9,-1.1,7.2,-8.6,-23.9,0.439497055,0.109714042,0.431745354,-0.779961547
41,107068,1508210,-0.549,-0.588,0.606,0.2,4.9,-1.1,7.2,-8.6,-23.9,0.439436018,0.109805597,0.431775872,-0.779961547
42,110132,1508210,-0.553,-0.592,0.606,0.2,4.8,-1.1,7.8,-8.3,-23.8,0.439374981,0.109866634,0.431836909,-0.779961547
43,111732,1508210,-0.553,-0.592,0.602,0.4,4.8,-1.2,7.8,-8.3,-23.8,0.439313944,0.10995819,0.431867428,-0.779961547
44,114640,1508210,-0.553,-0.592,0.61,0.5,4.8,-1.4,7.8,-8.3,-23.8,0.439222388,0.110019227,0.431928465,-0.779961547
45,117762,1508220,-0.553,-0.584,0.614,0.6,4.8,-1.4,7.8,-8.3,-23.8,0.439161351,0.110110782,0.431958983,-0.779992065
46,119269,1508220,-0.553,-0.584,0.61,0.7,4.8,-1.3,7.8,-8.3,-23.8,0.439100314,0.110171819,0.431989502,-0.779992065
47,122937,1508220,-0.553,-0.588,0.61,0.9,4.8,-1.2,7.8,-8.3,-23.8,0.439008759,0.110263375,0.43202002,-0.779992065
48,124450,1508220,-0.553,-0.588,0.61,0.9,4.9,-1.1,7.8,-8.3,-23.8,0.438947722,0.11035493,0.432050539,-0.780022584
49,127682,1508230,-0.549,-0.584,0.606,0.8,5,-1.2,7.8,-8.3,-23.8,0.438886685,0.110415967,0.432111576,-0.780022584
50,129199,1508230,-0.549,-0.588,0.61,0.7,5.1,-1.2,7.8,-8.3,-22.1,0.438795129,0.110507523,0.432111576,-0.780022584
51,132411,1508230,-0.549,-0.588,0.61,0.7,5.1,-1.1,7.8,-8.3,-22.1,0.438734092,0.110599078,0.432172613,-0.780022584
52,134665,1508230,-0.553,-0.584,0.606,0.7,5,-1.1,7.8,-8.3,-22.1,0.438673055,0.110660115,0.432203131,-0.780022584
53,136925,1508240,-0.549,-0.58,0.61,0.6,4.8,-1.1,7.8,-8.3,-22.1,0.438612018,0.110751671,0.432264168,-0.780053102
54,139475,1508240,-0.549,-0.588,0.606,0.6,4.7,-1.1,8,-8.3,-22,0.438550981,0.110812708,0.432294687,-0.780053102
55,141734,1508240,-0.549,-0.588,0.606,0.6,4.6,-1.4,8,-8.3,-22,0.438459426,0.110904263,0.432325205,-0.780053102
56,145267,1508240,-0.557,-0.584,0.61,0.8,4.8,-1.5,8,-8.3,-22,0.438398389,0.110934782,0.432355724,-0.780053102
57,147308,1508250,-0.549,-0.58,0.606,1,4.9,-1.5,8,-8.3,-22,0.438306833,0.111056856,0.432386242,-0.780083621
58,149606,1508250,-0.553,-0.588,0.61,1.1,5.1,-1.5,8.4,-8.7,-22.4,0.438215278,0.111056856,0.432416761,-0.780114139
59,151864,1508250,-0.553,-0.588,0.61,1.3,5.3,-1.5,8.4,-8.7,-22.4,0.438154241,0.111148412,0.432447279,-0.780144658
60,154263,1508250,-0.553,-0.584,0.602,1.5,5.3,-1.5,8.4,-8.7,-22.4,0.438062685,0.111239967,0.432477798,-0.780144658
61,157144,1508260,-0.549,-0.584,0.598,1.5,5.3,-1.5,8.4,-8.7,-22.4,0.437971129,0.111331523,0.432508316,-0.780175176
62,159360,1508260,-0.549,-0.58,0.606,1.6,5.3,-1.5,8.3,-8.1,-22.3,0.437910092,0.111423078,0.432538835,-0.780175176
63,162007,1508260,-0.549,-0.58,0.614,1.6,5.3,-1.6,8.3,-8.1,-22.3,0.437818537,0.111514634,0.432569353,-0.780205695
64,165242,1508260,-0.553,-0.584,0.606,1.7,5.4,-1.7,8.3,-8.1,-22.3,0.437726981,0.111606189,0.432599872,-0.780236213
65,166722,1508270,-0.549,-0.584,0.606,1.8,5.4,-1.8,8.3,-8.1,-22.3,0.437635426,0.111697745,0.432599872,-0.780236213
66,169719,1508270,-0.549,-0.58,0.602,1.8,5.5,-1.9,8.3,-8.1,-22.3,0.43754387,0.1117893,0.43263039,-0.780266732
67,172729,1508270,-0.549,-0.58,0.602,1.8,5.6,-2,8.3,-8.1,-22.3,0.437452315,0.111880856,0.432660909,-0.78029725
68,174339,1508270,-0.549,-0.584,0.606,1.8,5.7,-2.1,8.3,-8.1,-22.3,0.437360759,0.111972411,0.432691427,-0.780327769
69,177545,1508280,-0.549,-0.58,0.602,1.7,5.7,-2.2,8.3,-8.1,-22.3,0.437269204,0.112063967,0.432721946,-0.780327769
70,179234,1508280,-0.553,-0.58,0.606,1.6,5.7,-2.2,9.1,-8.1,-22.2,0.437177648,0.112155522,0.432752464,-0.780358287
71,182303,1508280,-0.553,-0.58,0.602,1.5,5.7,-2.3,9.1,-8.1,-22.2,0.437086093,0.112247078,0.432782983,-0.780388806
72,184370,1508280,-0.553,-0.584,0.602,1.3,5.7,-2.3,9.1,-8.1,-22.2,0.436964019,0.112338633,0.43284402,-0.780419324
73,187554,1508290,-0.553,-0.576,0.602,1.2,5.7,-2.3,9.1,-8.1,-22.2,0.436872463,0.11239967,0.432874538,-0.780419324
74,189194,1508290,-0.557,-0.576,0.598,1.2,5.7,-2.2,9.7,-8.4,-22.4,0.436780908,0.112521744,0.432905057,-0.780449843
75,192790,1508290,-0.557,-0.584,0.598,1.2,5.8,-2.2,9.7,-8.4,-22.4,0.436689352,0.1126133,0.432935575,-0.780449843
76,195147,1508290,-0.553,-0.58,0.598,1.2,5.9,-2.3,9.7,-8.4,-22.4,0.436597797,0.112704855,0.432996612,-0.780480361
77,197471,1508300,-0.557,-0.58,0.595,1.2,5.9,-2.4,9.7,-8.4,-22.4,0.436475723,0.112796411,0.433027131,-0.78051088
78,199340,1508300,-0.557,-0.58,0.602,1.1,5.9,-2.6,9.5,-8.6,-22.2,0.436384167,0.112887967,0.433118686,-0.78051088
79,202713,1508300,-0.557,-0.584,0.598,1,5.9,-2.6,9.5,-8.6,-22.2,0.436262093,0.112979522,0.433149205,-0.780541398
80,204313,1508300,-0.557,-0.58,0.595,0.8,5.8,-2.5,9.5,-8.6,-22.2,0.436170537,0.113071078,0.433210242,-0.780541398
81,206790,1508310,-0.557,-0.584,0.598,0.7,5.9,-2.5,9.5,-8.6,-22.2,0.436078982,0.113162633,0.433240761,-0.780571917
82,210313,1508310,-0.557,-0.58,0.602,0.6,5.9,-2.6,9.7,-8.2,-22.2,0.435956908,0.11322367,0.433301798,-0.780571917
83,211778,1508310,-0.565,-0.572,0.595,0.5,6,-2.7,9.7,-8.2,-22.2,0.435865352,0.113315226,0.433362835,-0.780602435
84,214467,1508310,-0.557,-0.576,0.602,0.4,6.1,-2.8,9.7,-8.2,-22.2,0.435743278,0.113376263,0.433423872,-0.780602435
85,217938,1508320,-0.561,-0.576,0.599,0.4,6.2,-2.8,9.7,-8.2,-22.2,0.435651723,0.113498337,0.433484909,-0.780632954
86,219571,1508320,-0.565,-0.58,0.603,0.5,6.1,-2.7,9.7,-8.2,-22.2,0.435529649,0.113559374,0.433515427,-0.780632954
87,223457,1508320,-0.565,-0.584,0.599,0.7,6,-2.7,9.7,-8.2,-22.2,0.435438093,0.113650929,0.433576464,-0.780663472
88,225766,1508320,-0.561,-0.584,0.602,0.9,5.7,-2.8,9.7,-8.2,-22.2,0.435316019,0.113742485,0.433637501,-0.780693991
89,227831,1508330,-0.565,-0.588,0.606,1,5.6,-2.9,9.7,-8.2,-22.2,0.435224464,0.113803522,0.43366802,-0.780693991
90,230096,1508330,-0.569,-0.588,0.603,1,5.6,-3,8.7,-8.8,-22,0.43510239,0.113864559,0.433698538,-0.780724509
91,232569,1508330,-0.565,-0.588,0.603,1.1,5.6,-3.1,8.7,-8.8,-22,0.435010834,0.113956114,0.433759575,-0.780755028
92,234576,1508330,-0.561,-0.588,0.599,1.2,5.6,-3.1,8.7,-8.8,-22,0.43488876,0.11404767,0.433790094,-0.780785546
93,236965,1508340,-0.561,-0.592,0.602,1.5,5.6,-3.3,8.7,-8.8,-22,0.434766686,0.114108707,0.433820612,-0.780816065
94,239201,1508340,-0.561,-0.592,0.602,1.7,5.6,-3.4,8.8,-8.7,-21.8,0.43467513,0.114200262,0.433851131,-0.780846583
95,242824,1508340,-0.561,-0.588,0.606,2.1,5.5,-3.6,8.8,-8.7,-21.8,0.434553056,0.114291818,0.433881649,-0.78090762
96,245153,1508340,-0.561,-0.596,0.599,2.3,5.5,-3.7,8.8,-8.7,-21.8,0.434430982,0.114352855,0.433912168,-0.780938139
97,247282,1508350,-0.561,-0.592,0.599,2.5,5.4,-3.7,8.8,-8.7,-21.8,0.434308908,0.114444411,0.433912168,-0.780999176
98,249519,1508350,-0.565,-0.592,0.599,2.7,5.2,-3.7,7.9,-8.3,-22.1,0.434156316,0.114505448,0.433973205,-0.781029695
99,252099,1508350,-0.565,-0.584,0.595,2.8,5.2,-3.8,7.9,-8.3,-22.1,0.434034242,0.114566485,0.433973205,-0.781090732
100,254464,1508350,-0.565,-0.58,0.599,2.9,5.1,-3.8,7.9,-8.3,-22.1,0.433912168,0.11465804,0.434003723,-0.78112125
101,256732,1508360,-0.565,-0.58,0.599,2.9,5,-3.8,7.9,-8.3,-22.1,0.433790094,0.114719077,0.434003723,-0.781182287
102,260348,1508360,-0.565,-0.576,0.595,2.9,5,-3.8,7.4,-8.6,-22.2,0.43366802,0.114810633,0.434003723,-0.781243324
103,262532,1508360,-0.561,-0.576,0.599,2.9,5,-3.8,7.4,-8.6,-22.2,0.433545946,0.114902188,0.434003723,-0.781273843
104,265687,1508360,-0.565,-0.576,0.599,2.7,5,-3.8,7.4,-8.6,-22.2,0.433423872,0.114963225,0.434034242,-0.78133488
105,267872,1508370,-0.561,-0.572,0.599,2.6,5.1,-3.7,7.4,-8.6,-22.2,0.433301798,0.115054781,0.434034242,-0.781395917
106,269453,1508370,-0.557,-0.568,0.598,2.5,5.1,-3.8,9.3,-8.6,-22.1,0.433179724,0.115115818,0.43406476,-0.781426435
107,273836,1508370,-0.557,-0.568,0.598,2.3,5.2,-3.8,9.3,-8.6,-22.1,0.433057649,0.115176855,0.43406476,-0.781487472
108,274623,1508370,-0.561,-0.568,0.595,2.1,5.4,-3.9,9.3,-8.6,-22.1,0.432935575,0.11526841,0.43406476,-0.781517991
109,276837,1508380,-0.565,-0.576,0.599,2,5.5,-4.1,9.3,-8.6,-22.1,0.432813501,0.115329447,0.434125797,-0.781579028
110,280584,1508380,-0.561,-0.576,0.591,1.8,5.5,-4.1,6,-8.7,-22,0.432691427,0.115421003,0.434156316,-0.781609546
111,283049,1508380,-0.561,-0.576,0.599,1.7,5.4,-4.1,6,-8.7,-22,0.432569353,0.11548204,0.434186834,-0.781640065
112,285124,1508380,-0.565,-0.576,0.599,1.6,5.4,-4,6,-8.7,-22,0.432447279,0.115543077,0.434217353,-0.781701102
113,286810,1508390,-0.561,-0.58,0.595,1.6,5.4,-4,6,-8.7,-22,0.432325205,0.115634632,0.434247871,-0.78173162
114,289405,1508390,-0.561,-0.576,0.599,1.6,5.4,-4,5.8,-8.4,-22.1,0.432172613,0.115695669,0.43427839,-0.781762139
115,292758,1508390,-0.561,-0.576,0.599,1.6,5.4,-4,5.8,-8.4,-22.1,0.432050539,0.115756706,0.434308908,-0.781823176
116,295080,1508390,-0.565,-0.584,0.599,1.5,5.3,-4,5.8,-8.4,-22.1,0.431928465,0.115817743,0.434369945,-0.781853694
117,298054,1508400,-0.565,-0.58,0.595,1.5,5.4,-4.1,5.8,-8.4,-22.1,0.431806391,0.115909299,0.434400464,-0.781884213
118,300254,1508400,-0.565,-0.572,0.595,1.5,5.4,-4.4,5.8,-8.3,-21.8,0.431714835,0.116031373,0.434400464,-0.781914731
119,302571,1508400,-0.565,-0.572,0.595,1.5,5.6,-4.4,5.8,-8.3,-21.8,0.431562243,0.11609241,0.434461501,-0.781975768
120,304791,1508400,-0.565,-0.576,0.595,1.4,5.7,-4.5,5.8,-8.3,-21.8,0.431440168,0.116153447,0.434492019,-0.782006287
121,306981,1508410,-0.569,-0.576,0.595,1.4,5.9,-4.6,5.8,-8.3,-21.8,0.431287576,0.116245003,0.434522538,-0.782036805
122,309285,1508410,-0.565,-0.58,0.599,1.6,5.8,-4.7,6.4,-8.1,-22.1,0.431165502,0.11630604,0.434583575,-0.782097842
123,311924,1508410,-0.565,-0.576,0.603,1.8,5.7,-4.7,6.4,-8.1,-22.1,0.431012909,0.116367077,0.434614093,-0.782128361
124,314195,1508410,-0.557,-0.584,0.602,2.1,5.7,-4.7,6.4,-8.1,-22.1,0.430890835,0.116458632,0.434644612,-0.782189398
125,317553,1508420,-0.569,-0.584,0.603,2.2,5.8,-4.7,6.4,-8.1,-22.1,0.430738243,0.116519669,0.43467513,-0.782219916
126,319365,1508420,-0.569,-0.58,0.599,2.3,6,-4.7,9.5,-9.8,-22.1,0.43058565,0.116611225,0.434705649,-0.782280953
127,322906,1508420,-0.565,-0.584,0.603,2.2,6,-4.6,9.5,-9.8,-22.1,0.430463576,0.116672262,0.434736167,-0.78234199
128,324995,1508420,-0.565,-0.584,0.606,2.2,6,-4.6,9.5,-9.8,-22.1,0.430310984,0.116763817,0.434766686,-0.782403027
129,327252,1508430,-0.565,-0.592,0.61,2.3,5.8,-4.6,9.5,-9.8,-22.1,0.430158391,0.116855373,0.434766686,-0.782433546
130,329478,1508430,-0.565,-0.592,0.606,2.4,5.8,-4.6,8.4,-6.7,-21.9,0.430036317,0.11691641,0.434797205,-0.782494583
131,333474,1508430,-0.565,-0.592,0.606,2.7,5.9,-4.6,8.4,-6.7,-21.9,0.429883724,0.117007965,0.434827723,-0.78255562
132,334173,1508430,-0.565,-0.596,0.61,2.9,6,-4.5,8.4,-6.7,-21.9,0.429731132,0.117099521,0.434827723,-0.782616657
133,337917,1508440,-0.565,-0.592,0.61,3,6.1,-4.3,8.4,-6.7,-21.9,0.429609058,0.117191076,0.434858242,-0.782647176
134,339378,1508440,-0.561,-0.6,0.606,3,6.2,-4.3,9.1,-7,-21.8,0.429456465,0.117282632,0.43488876,-0.782708213
135,341660,1508440,-0.565,-0.596,0.603,3.1,6.2,-4.3,9.1,-7,-21.8,0.429334391,0.117374187,0.43488876,-0.78276925
136,344343,1508440,-0.565,-0.592,0.599,3.3,6.2,-4.3,9.1,-7,-21.8,0.429181799,0.117465743,0.43488876,-0.782830287
137,346694,1508450,-0.569,-0.592,0.603,3.6,6.2,-4.3,9.1,-7,-21.8,0.429029206,0.117587817,0.434919279,-0.782891324
138,349973,1508450,-0.569,-0.584,0.599,3.8,6.3,-4.4,9.5,-7.2,-22.2,0.428876614,0.117648854,0.434919279,-0.782952361
139,351861,1508450,-0.565,-0.584,0.606,3.8,6.3,-4.4,9.5,-7.2,-22.2,0.428724021,0.117770928,0.434919279,-0.783013398
140,354161,1508450,-0.561,-0.588,0.606,3.9,6.3,-4.3,9.5,-7.2,-22.2,0.428571429,0.117862484,0.434949797,-0.783074435
141,356627,1508460,-0.565,-0.588,0.603,3.9,6.3,-4.3,9.5,-7.2,-22.2,0.428449355,0.117984558,0.434949797,-0.783135472
142,360157,1508460,-0.565,-0.592,0.606,3.9,6.2,-4.3,9.7,-6.8,-21.8,0.428296762,0.118076113,0.434949797,-0.783196509
143,361687,1508460,-0.565,-0.584,0.603,4,6.1,-4.4,9.7,-6.8,-21.8,0.428144169,0.118167669,0.434949797,-0.783257546
144,364525,1508460,-0.565,-0.58,0.599,3.9,6.1,-4.4,9.7,-6.8,-21.8,0.428022095,0.118259224,0.434949797,-0.783318583
145,366785,1508470,-0.565,-0.584,0.603,3.8,6.2,-4.4,9.7,-6.8,-21.8,0.427869503,0.118381298,0.434949797,-0.78337962
146,369432,1508470,-0.561,-0.58,0.602,3.6,6.3,-4.4,8.7,-8.4,-21.8,0.42771691,0.118472854,0.434949797,-0.783440657
147,373499,1508470,-0.569,-0.576,0.599,3.4,6.3,-4.4,8.7,-8.4,-21.8,0.427564318,0.118564409,0.434949797,-0.783501694
148,374295,1508470,-0.565,-0.584,0.606,3.2,6.4,-4.4,8.7,-8.4,-21.8,0.427411725,0.118655965,0.434980316,-0.783562731
149,377096,1508480,-0.561,-0.58,0.606,3.1,6.5,-4.4,8.7,-8.4,-21.8,0.427289651,0.11874752,0.435010834,-0.783623768
150,379156,1508480,-0.565,-0.576,0.603,3,6.6,-4.3,8.5,-8.9,-21.7,0.427137059,0.118869594,0.435010834,-0.783654286
151,382594,1508480,-0.565,-0.58,0.603,2.9,6.6,-4.3,8.5,-8.9,-21.7,0.426984466,0.11896115,0.435041353,-0.783715323
152,384830,1508480,-0.569,-0.58,0.603,2.8,6.5,-4.2,8.5,-8.9,-21.7,0.426831874,0.119052705,0.435071871,-0.78377636
153,387020,1508490,-0.561,-0.584,0.599,2.7,6.5,-4.2,8.5,-8.9,-21.7,0.426709799,0.11917478,0.43510239,-0.783806879
154,389237,1508490,-0.569,-0.584,0.599,2.6,6.5,-4.2,8.4,-9.4,-21.9,0.426557207,0.119235817,0.43510239,-0.783867916
155,391927,1508490,-0.569,-0.584,0.595,2.5,6.8,-4.2,8.4,-9.4,-21.9,0.426404614,0.119357891,0.435163427,-0.783898434
156,394180,1508490,-0.569,-0.584,0.599,2.5,6.9,-4.1,8.4,-9.4,-21.9,0.426252022,0.119449446,0.435193945,-0.783959471
157,397659,1508500,-0.573,-0.58,0.595,2.5,6.9,-4.1,8.4,-9.4,-21.9,0.426129948,0.11957152,0.435224464,-0.78398999
158,399320,1508500,-0.569,-0.584,0.595,2.6,6.8,-3.9,8.4,-10.8,-22.2,0.426038392,0.119724113,0.435224464,-0.784020508
159,401665,1508500,-0.569,-0.584,0.595,2.8,6.8,-3.8,8.4,-10.8,-22.2,0.4258858,0.119876705,0.435254982,-0.784051027
160,405964,1508500,-0.573,-0.584,0.595,3,6.8,-3.8,8.4,-10.8,-22.2,0.425763726,0.119968261,0.435285501,-0.784112064
161,408224,1508510,-0.577,-0.584,0.599,3.3,6.9,-3.6,8.4,-10.8,-22.2,0.425611133,0.120090335,0.435285501,-0.784142582
162,410422,1508510,-0.573,-0.584,0.591,3.5,6.9,-3.5,8.7,-11.4,-21.8,0.425489059,0.120212409,0.435316019,-0.784203619
163,412087,1508510,-0.577,-0.584,0.599,3.7,6.9,-3.5,8.7,-11.4,-21.8,0.425336467,0.120334483,0.435316019,-0.784264657
164,414398,1508510,-0.577,-0.58,0.599,3.9,6.9,-3.6,8.7,-11.4,-21.8,0.425183874,0.120456557,0.435316019,-0.784295175
165,416643,1508520,-0.573,-0.584,0.603,4.2,7,-3.6,8.7,-11.4,-21.8,0.4250618,0.120578631,0.435316019,-0.784356212
166,419735,1508520,-0.573,-0.584,0.603,4.5,7.1,-3.7,9,-6.7,-20.5,0.424909207,0.120700705,0.435316019,-0.784417249
167,422140,1508520,-0.577,-0.587,0.603,4.8,7.1,-3.7,9,-6.7,-20.5,0.424756615,0.120853298,0.435316019,-0.784478286
168,424165,1508520,-0.569,-0.592,0.603,5.2,7.1,-3.6,9,-6.7,-20.5,0.424634541,0.120975372,0.435316019,-0.784539323
169,427116,1508530,-0.569,-0.595,0.607,5.7,7.2,-3.5,9,-6.7,-20.5,0.424481948,0.121127964,0.435285501,-0.78460036
170,430146,1508530,-0.569,-0.595,0.607,6.1,7.2,-3.5,8.9,-10,-23.2,0.424298837,0.121280557,0.435254982,-0.784691916
171,431641,1508530,-0.573,-0.591,0.603,6.4,7.2,-3.6,8.9,-10,-23.2,0.424176763,0.121433149,0.435224464,-0.784752953
172,434437,1508530,-0.573,-0.591,0.603,6.6,7.1,-3.5,8.9,-10,-23.2,0.424024171,0.121585742,0.435193945,-0.784844508
173,437356,1508540,-0.573,-0.591,0.603,6.9,7.1,-3.6,8.9,-10,-23.2,0.423902097,0.121677297,0.435132908,-0.784936064
174,439131,1508540,-0.573,-0.591,0.599,7.1,7.2,-3.7,9.3,-9,-23.1,0.423749504,0.121890927,0.43510239,-0.784997101
175,442158,1508540,-0.573,-0.588,0.599,7.4,7.4,-3.8,9.3,-9,-23.1,0.423596912,0.122043519,0.435041353,-0.785088656
176,445213,1508540,-0.577,-0.587,0.603,7.6,7.5,-3.9,9.3,-9,-23.1,0.4234138,0.122165593,0.435010834,-0.785180212
177,446740,1508550,-0.577,-0.58,0.603,7.7,7.6,-3.9,9.3,-9,-23.1,0.423261208,0.122379223,0.434949797,-0.785271767
178,449690,1508550,-0.569,-0.584,0.603,7.9,7.6,-3.9,8.8,-8.2,-22.9,0.423139134,0.122592853,0.43488876,-0.785332804
179,452691,1508550,-0.569,-0.584,0.603,8,7.7,-4,8.8,-8.2,-22.9,0.422956023,0.122775964,0.434827723,-0.78542436
180,454275,1508550,-0.569,-0.584,0.599,8,7.8,-4.2,8.8,-8.2,-22.9,0.42280343,0.122928556,0.434766686,-0.785515915
181,457259,1508560,-0.569,-0.588,0.599,7.9,7.9,-4.3,8.8,-8.2,-22.9,0.422620319,0.123111667,0.434705649,-0.785637989
182,460388,1508560,-0.573,-0.584,0.599,7.7,8,-4.4,8.8,-7.7,-22.8,0.422437208,0.12326426,0.43467513,-0.785729545
183,461917,1508560,-0.569,-0.588,0.603,7.6,8.2,-4.5,8.8,-7.7,-22.8,0.422284616,0.123447371,0.434614093,-0.7858211
184,464998,1508560,-0.569,-0.588,0.603,7.3,8.5,-4.6,8.8,-7.7,-22.8,0.422101505,0.123599963,0.434583575,-0.785912656
185,466624,1508570,-0.573,-0.584,0.599,7.1,8.5,-4.8,8.8,-7.7,-22.8,0.421918394,0.123783074,0.434553056,-0.785973693
186,470211,1508570,-0.577,-0.584,0.603,7,8.5,-5.1,9.3,-8.5,-20.9,0.421735282,0.123935667,0.434522538,-0.786065249
187,473296,1508570,-0.581,-0.583,0.595,6.9,8.5,-5.2,9.3,-8.5,-20.9,0.421521653,0.12408826,0.434492019,-0.786126286
188,475464,1508570,-0.581,-0.587,0.595,6.8,8.6,-5.3,9.3,-8.5,-20.9,0.421338542,0.124271371,0.434492019,-0.78624836
189,476990,1508580,-0.581,-0.583,0.603,6.6,8.7,-5.5,9.3,-8.5,-20.9,0.421155431,0.124423963,0.434461501,-0.786339915
190,480687,1508580,-0.577,-0.584,0.595,6.5,8.9,-5.7,9.9,-8.7,-22.4,0.420941801,0.124576556,0.434461501,-0.786431471
191,482964,1508580,-0.577,-0.58,0.595,6.4,9,-6.2,9.9,-8.7,-22.4,0.420728172,0.124729148,0.434430982,-0.786523026
192,484510,1508580,-0.577,-0.587,0.587,6.3,9.1,-6.6,9.9,-8.7,-22.4,0.420514542,0.124881741,0.434430982,-0.7866451
193,486897,1508590,-0.577,-0.584,0.595,6.1,9.1,-7,9.9,-8.7,-22.4,0.420300913,0.125034333,0.434430982,-0.786736656
194,489227,1508590,-0.581,-0.587,0.595,6.1,9.1,-7.3,9.2,-8.6,-22.4,0.420056764,0.125186926,0.434430982,-0.786828211
195,492800,1508590,-0.577,-0.587,0.595,6.1,9.1,-7.6,9.2,-8.6,-22.4,0.419812616,0.125309,0.434430982,-0.786919767
196,494365,1508590,-0.577,-0.591,0.587,6.1,9,-7.9,9.2,-8.6,-22.4,0.419598987,0.125461592,0.434430982,-0.787041841
197,496699,1508600,-0.573,-0.595,0.591,6.2,9,-8.1,9.2,-8.6,-22.4,0.419354839,0.125583666,0.434430982,-0.787133396
198,499905,1508600,-0.569,-0.599,0.591,6.3,9.1,-8.4,9.8,-8.6,-22,0.419080172,0.125797296,0.434522538,-0.787194433
199,501811,1508600,-0.569,-0.599,0.587,6.6,9.2,-8.5,9.8,-8.6,-22,0.418836024,0.125949889,0.434522538,-0.787316507
200,504353,1508600,-0.569,-0.603,0.587,7.1,9.3,-8.6,9.8,-8.6,-22,0.418591876,0.126071963,0.434492019,-0.787438581
201,507761,1508610,-0.565,-0.607,0.587,7.7,9.4,-8.6,9.8,-8.6,-22,0.418317209,0.126194037,0.434492019,-0.787560656
202,510051,1508610,-0.565,-0.611,0.591,8.2,9.4,-8.8,10,-8.6,-21.6,0.418042543,0.126377148,0.434461501,-0.78768273
203,512841,1508610,-0.565,-0.611,0.603,8.6,9.5,-8.9,10,-8.6,-21.6,0.417798395,0.12652974,0.434400464,-0.787835322
204,514419,1508610,-0.569,-0.615,0.591,8.9,9.7,-9,10,-8.6,-21.6,0.417523728,0.126712851,0.434369945,-0.787957396
205,517385,1508620,-0.565,-0.619,0.599,9.1,10,-9,10,-8.6,-21.6,0.417249062,0.126865444,0.434339427,-0.788109989
206,519305,1508620,-0.569,-0.619,0.595,9.2,10.4,-9.1,9.4,-8.8,-22.7,0.416943876,0.127048555,0.43427839,-0.788262581
207,522794,1508620,-0.566,-0.623,0.599,9.7,10.7,-9.1,9.4,-8.8,-22.7,0.41666921,0.127231666,0.434247871,-0.788384655
208,524236,1508620,-0.566,-0.623,0.599,10.1,10.9,-9.3,9.4,-8.8,-22.7,0.416394543,0.127445296,0.434186834,-0.788537248
209,526759,1508630,-0.57,-0.623,0.599,10.6,10.9,-9.4,9.4,-8.8,-22.7,0.416089358,0.127628407,0.434125797,-0.78868984
210,530204,1508630,-0.566,-0.627,0.595,11.1,11,-9.6,9.2,-9,-19.8,0.415784173,0.127842036,0.43406476,-0.788872951
211,531736,1508630,-0.57,-0.623,0.595,11.6,11.2,-9.6,9.2,-9,-19.8,0.415478988,0.128025147,0.434003723,-0.789025544
212,534310,1508630,-0.57,-0.627,0.599,12.1,11.6,-9.6,9.2,-9,-19.8,0.415173803,0.128269295,0.433912168,-0.789208655
213,537267,1508640,-0.57,-0.627,0.603,12.4,11.8,-9.5,9.2,-9,-19.8,0.414868618,0.128482925,0.433851131,-0.789361248
214,539416,1508640,-0.569,-0.619,0.607,12.6,12.1,-9.5,9.6,-9.1,-19.5,0.414532914,0.128727073,0.433759575,-0.789544359
215,542512,1508640,-0.569,-0.619,0.603,12.7,12.4,-9.4,9.6,-9.1,-19.5,0.414227729,0.128971221,0.433698538,-0.78972747
216,544311,1508640,-0.565,-0.619,0.599,12.8,12.6,-9.5,9.6,-9.1,-19.5,0.413892026,0.129215369,0.433606983,-0.789880062
217,547088,1508650,-0.569,-0.619,0.595,13,12.7,-9.8,9.6,-9.1,-19.5,0.41358684,0.129459517,0.433515427,-0.790032655
218,550281,1508650,-0.565,-0.615,0.599,13.2,12.9,-10,9.7,-8.9,-19.4,0.413159581,0.129551073,0.433545946,-0.790246284
219,551914,1508650,-0.565,-0.615,0.599,13.6,13.2,-10.3,9.7,-8.9,-19.4,0.412823878,0.129825739,0.43345439,-0.790429395
220,554131,1508650,-0.569,-0.611,0.599,13.9,13.6,-10.8,9.7,-8.9,-19.4,0.412457656,0.130069887,0.433362835,-0.790612506
221,557450,1508660,-0.565,-0.615,0.599,14.2,13.9,-11.1,9.7,-8.9,-19.4,0.412091433,0.130344554,0.433271279,-0.790826136
222,559266,1508660,-0.569,-0.611,0.595,14.2,14.1,-11.4,9.8,-8.8,-19.6,0.411725211,0.130588702,0.433210242,-0.791009247
223,562688,1508660,-0.569,-0.607,0.591,14.1,14.3,-11.7,9.8,-8.8,-19.6,0.411328471,0.130863369,0.433118686,-0.791222877
224,564275,1508660,-0.569,-0.599,0.595,14,14.4,-12,9.8,-8.8,-19.6,0.410962249,0.131138035,0.433027131,-0.791405988
225,567320,1508670,-0.565,-0.6,0.599,13.9,14.6,-12.5,9.8,-8.8,-19.6,0.410565508,0.131382183,0.432966094,-0.791619617
226,569584,1508670,-0.565,-0.596,0.595,13.9,14.9,-12.9,10.1,-8.8,-23,0.410168767,0.13165685,0.432905057,-0.791833247
227,573296,1508670,-0.565,-0.6,0.595,14,15.2,-13.4,10.1,-8.8,-23,0.409741508,0.131900998,0.432813501,-0.792046876
228,575556,1508670,-0.565,-0.6,0.599,14.1,15.6,-13.8,10.1,-8.8,-23,0.409314249,0.132175665,0.432752464,-0.792260506
229,577109,1508680,-0.565,-0.603,0.603,14.2,16,-14.2,10.1,-8.8,-23,0.40888699,0.132450331,0.432691427,-0.792474136
230,580193,1508680,-0.565,-0.6,0.607,14.2,16.1,-14.6,10.5,-8.6,-21.8,0.408429212,0.132724998,0.43263039,-0.792687765
231,581748,1508680,-0.565,-0.6,0.603,14.2,16.4,-15,10.5,-8.6,-21.8,0.407971435,0.132999664,0.432599872,-0.792901395
232,584537,1508680,-0.561,-0.611,0.606,14.2,16.7,-15.5,10.5,-8.6,-21.8,0.407513657,0.133243812,0.432538835,-0.793115024
233,587704,1508690,-0.557,-0.608,0.606,14,17.1,-15.8,10.5,-8.6,-21.8,0.407025361,0.133518479,0.432477798,-0.793359172
234,590055,1508690,-0.557,-0.608,0.614,13.9,17.5,-16.3,10.4,-8.7,-22.5,0.406537065,0.133793146,0.432447279,-0.793572802
235,592227,1508690,-0.557,-0.611,0.618,13.7,17.8,-16.6,10.4,-8.7,-22.5,0.406048769,0.134067812,0.432416761,-0.793786431
236,594501,1508690,-0.553,-0.612,0.618,13.6,18,-16.9,10.4,-8.7,-22.5,0.405529954,0.134342479,0.432386242,-0.79403058
237,596812,1508700,-0.553,-0.619,0.618,13.6,18.3,-17.1,10.4,-8.7,-22.5,0.405041658,0.134617145,0.432355724,-0.794244209
238,599410,1508700,-0.545,-0.608,0.618,13.5,18.7,-17.3,10.5,-8.9,-23,0.404431288,0.134647664,0.432325205,-0.794579913
239,602676,1508700,-0.553,-0.612,0.618,13.6,19.1,-17.4,10.5,-8.9,-23,0.403912473,0.13492233,0.432294687,-0.794793542
240,604255,1508700,-0.553,-0.612,0.618,13.7,19.4,-17.6,10.5,-8.9,-23,0.40336314,0.135227515,0.432294687,-0.79503769
241,606849,1508710,-0.557,-0.611,0.61,14,19.8,-17.8,10.5,-8.9,-23,0.402813807,0.135502182,0.432264168,-0.795281838
242,609980,1508710,-0.557,-0.608,0.614,14.3,20.2,-17.9,10.3,-9,-23.1,0.402294992,0.135837886,0.432264168,-0.795495468
243,612170,1508710,-0.561,-0.607,0.61,14.8,20.4,-17.9,10.3,-9,-23.1,0.401745659,0.136143071,0.43223365,-0.795739616
244,614611,1508710,-0.557,-0.604,0.602,15.1,20.5,-17.8,10.3,-9,-23.1,0.401196326,0.136448256,0.432203131,-0.795983764
245,616902,1508720,-0.561,-0.607,0.61,15.6,20.6,-17.8,10.3,-9,-23.1,0.400646992,0.136783959,0.432172613,-0.796227912
246,619330,1508720,-0.561,-0.611,0.61,16.1,20.6,-17.8,10.4,-9,-21.1,0.400067141,0.137119663,0.432111576,-0.79647206
247,623109,1508720,-0.553,-0.612,0.606,16.7,20.6,-17.9,10.4,-9,-21.1,0.399517808,0.137455367,0.432050539,-0.796716208
248,625303,1508720,-0.546,-0.616,0.61,17.3,20.6,-18.1,10.4,-9,-21.1,0.398968474,0.13779107,0.431989502,-0.796990875
249,626781,1508730,-0.546,-0.62,0.606,17.8,20.8,-18.1,10.4,-9,-21.1,0.398388623,0.138126774,0.431928465,-0.797235023
250,629186,1508730,-0.542,-0.62,0.61,18.2,20.9,-18.1,10.9,-8.8,-21.1,0.39783929,0.138492996,0.431836909,-0.79750969
251,631965,1508730,-0.537,-0.612,0.618,18.6,21.1,-18.1,10.9,-8.8,-21.1,0.397259438,0.138859218,0.431745354,-0.797784356
252,634965,1508730,-0.542,-0.62,0.61,18.9,21.4,-18.1,10.9,-8.8,-21.1,0.396679586,0.13922544,0.431653798,-0.798059023
253,636613,1508740,-0.545,-0.608,0.61,18.9,21.6,-18,10.9,-8.8,-21.1,0.396099734,0.139591662,0.431562243,-0.798303171
254,639835,1508740,-0.545,-0.608,0.606,19,21.9,-17.8,11,-9.1,-20.8,0.395519883,0.139957884,0.431470687,-0.798577837
255,642760,1508740,-0.541,-0.604,0.61,19.2,22.2,-17.7,11,-9.1,-20.8,0.394940031,0.140354625,0.43140965,-0.798852504
256,644393,1508740,-0.541,-0.604,0.61,19.4,22.5,-17.5,11,-9.1,-20.8,0.394360179,0.140751366,0.431318094,-0.799127171
257,646705,1508750,-0.541,-0.604,0.614,19.7,22.8,-17.3,11,-9.1,-20.8,0.393780328,0.141148106,0.43119602,-0.799371319
258,650707,1508750,-0.545,-0.608,0.614,20.2,23,-17,10.9,-9.2,-21,0.393108921,0.141209143,0.431043428,-0.799798578
259,652898,1508750,-0.541,-0.604,0.606,20.5,23.1,-16.9,10.9,-9.2,-21,0.392529069,0.141636402,0.430951872,-0.800042726
260,655146,1508750,-0.541,-0.6,0.61,20.7,23.1,-17,10.9,-9.2,-21,0.391949217,0.142063662,0.430829798,-0.800317392
261,657500,1508760,-0.541,-0.6,0.606,20.9,23.2,-17.2,10.9,-9.2,-21,0.391369366,0.142490921,0.430738243,-0.800592059
262,659686,1508760,-0.541,-0.6,0.598,21.1,23.3,-17.4,11.2,-9.2,-21,0.390789514,0.14291818,0.430616169,-0.800866726
263,661894,1508760,-0.537,-0.6,0.594,21.3,23.4,-17.5,11.2,-9.2,-21,0.390179144,0.143345439,0.430494095,-0.801141392
264,664214,1508760,-0.541,-0.596,0.598,21.5,23.5,-17.5,11.2,-9.2,-21,0.389599292,0.143772698,0.430372021,-0.801416059
265,667612,1508770,-0.537,-0.6,0.602,21.6,23.7,-17.5,11.2,-9.2,-21,0.388988922,0.144199957,0.430249947,-0.801690725
266,669856,1508770,-0.541,-0.596,0.598,21.8,23.8,-17.4,9.8,-9.4,-20.6,0.388378552,0.144627216,0.430127873,-0.801995911
267,672452,1508770,-0.533,-0.592,0.606,22,23.9,-17.4,9.8,-9.4,-20.6,0.3877987,0.145084994,0.430005799,-0.802270577
268,674731,1508770,-0.545,-0.596,0.602,22.3,24.1,-17.2,9.8,-9.4,-20.6,0.38718833,0.145542772,0.429853206,-0.802545244
269,676906,1508780,-0.541,-0.604,0.598,22.6,24.2,-17.1,9.8,-9.4,-20.6,0.38657796,0.146000549,0.429731132,-0.80281991
270,679193,1508780,-0.537,-0.596,0.602,22.8,24.4,-17,13,-8.7,-20.7,0.385998108,0.146458327,0.429578539,-0.803094577
271,681684,1508780,-0.549,-0.6,0.598,23.1,24.5,-16.9,13,-8.7,-20.7,0.385387738,0.146916105,0.429425947,-0.803369243
272,685127,1508780,-0.545,-0.596,0.598,23.3,24.6,-16.8,13,-8.7,-20.7,0.384777367,0.147373882,0.429303873,-0.803674429
273,686735,1508790,-0.545,-0.592,0.602,23.6,24.6,-16.8,13,-8.7,-20.7,0.384197516,0.147862178,0.42915128,-0.803949095
274,689232,1508790,-0.545,-0.596,0.598,24.2,24.7,-16.8,13.6,-9,-20.3,0.383587146,0.148350475,0.428968169,-0.804223762
275,692565,1508790,-0.545,-0.592,0.598,24.8,24.7,-16.8,13.6,-9,-20.3,0.382976775,0.148808252,0.428785058,-0.804528947
276,694318,1508790,-0.541,-0.592,0.594,25.4,24.8,-16.7,13.6,-9,-20.3,0.382366405,0.149327067,0.428601947,-0.804834132
277,697479,1508800,-0.545,-0.584,0.598,25.9,24.7,-16.8,13.6,-9,-20.3,0.381756035,0.149815363,0.428418836,-0.805139317
278,699672,1508800,-0.537,-0.584,0.59,26.6,24.7,-16.9,13.4,-9.2,-20.3,0.381054109,0.150028993,0.428174688,-0.805536058
279,701675,1508800,-0.537,-0.584,0.59,27.2,24.7,-17.1,13.4,-9.2,-20.3,0.380413221,0.150547807,0.427961058,-0.805841243
280,704320,1508800,-0.533,-0.588,0.594,27.8,24.7,-17.6,13.4,-9.2,-20.3,0.37980285,0.151036103,0.427747429,-0.806176946
281,707684,1508810,-0.533,-0.581,0.594,28.6,24.7,-17.9,13.4,-9.2,-20.3,0.379161962,0.151554918,0.427503281,-0.80651265
282,709856,1508810,-0.533,-0.577,0.59,29.2,24.6,-18.2,13.6,-9.4,-20.3,0.378490555,0.152043214,0.427259133,-0.806848354
283,712093,1508810,-0.533,-0.577,0.594,29.8,24.7,-18.4,13.6,-9.4,-20.3,0.377849666,0.152562029,0.426984466,-0.807214576
284,714409,1508810,-0.529,-0.573,0.586,30.2,24.9,-18.6,13.6,-9.4,-20.3,0.377178259,0.153080844,0.426740318,-0.807550279
285,717100,1508820,-0.537,-0.565,0.59,30.6,25,-18.9,13.6,-9.4,-20.3,0.376506851,0.153599658,0.426465651,-0.807916501
286,719384,1508820,-0.537,-0.569,0.59,31,25.2,-19.2,11.7,-9.4,-20.1,0.375835444,0.154118473,0.426190985,-0.808282723
287,722157,1508820,-0.533,-0.565,0.582,31.2,25.5,-19.6,11.7,-9.4,-20.1,0.375164037,0.154637288,0.425916318,-0.808648946
288,724355,1508820,-0.533,-0.553,0.59,31.4,25.8,-19.9,11.7,-9.4,-20.1,0.374462111,0.155156102,0.425641652,-0.809015168
289,726703,1508830,-0.537,-0.561,0.582,31.5,26,-20.2,11.7,-9.4,-20.1,0.373760186,0.155705435,0.425366985,-0.80938139
290,729275,1508830,-0.533,-0.553,0.582,31.7,26.1,-20.5,12.6,-9.3,-19.9,0.373027741,0.15622425,0.425092318,-0.809747612
291,732055,1508830,-0.537,-0.557,0.582,31.7,26.2,-20.8,12.6,-9.3,-19.9,0.372325816,0.156743065,0.424787133,-0.810113834
292,735123,1508830,-0.541,-0.553,0.582,31.8,26.2,-21.1,12.6,-9.3,-19.9,0.371562853,0.157292398,0.424512467,-0.810510575
293,736851,1508840,-0.537,-0.553,0.582,31.8,26.2,-21.3,12.6,-9.3,-19.9,0.370860927,0.157811213,0.4242378,-0.810876797
294,739107,1508840,-0.537,-0.549,0.578,31.8,26.2,-21.5,12.6,-9.3,-19.5,0.370128483,0.158330027,0.423963134,-0.811243019
295,742664,1508840,-0.541,-0.545,0.574,31.6,26.2,-21.6,12.6,-9.3,-19.5,0.369396039,0.158848842,0.423688467,-0.81163976
296,744369,1508840,-0.537,-0.537,0.574,31.3,26.3,-21.8,12.6,-9.3,-19.5,0.368633076,0.159367656,0.4234138,-0.812005982
297,746637,1508850,-0.541,-0.537,0.571,31,26.5,-22.2,12.6,-9.3,-19.5,0.367900632,0.159886471,0.423169652,-0.812372204
298,750095,1508850,-0.54,-0.533,0.578,30.7,26.9,-22.5,12.2,-9.5,-19.4,0.367168188,0.160374767,0.422864467,-0.812799463
299,751828,1508850,-0.544,-0.533,0.575,30.3,27,-22.8,12.2,-9.5,-19.4,0.366405225,0.160893582,0.422620319,-0.813165685
300,754941,1508850,-0.544,-0.533,0.571,29.8,27.2,-23.1,12.2,-9.5,-19.4,0.365611744,0.16135136,0.422345653,-0.813531907
301,757047,1508860,-0.545,-0.537,0.578,29.3,27.3,-23.4,12.2,-9.5,-19.4,0.364848781,0.161900693,0.422162542,-0.813867611
302,760174,1508860,-0.545,-0.541,0.575,28.8,27.3,-23.7,11.1,-9.6,-19.2,0.364085818,0.162388989,0.421948912,-0.814233833
303,761775,1508860,-0.549,-0.549,0.571,28.3,27.4,-23.8,11.1,-9.6,-19.2,0.363292337,0.162877285,0.421735282,-0.814600055
304,764784,1508860,-0.549,-0.549,0.571,27.9,27.6,-24.1,11.1,-9.6,-19.2,0.362529374,0.163365581,0.421552171,-0.814935759
305,766573,1508870,-0.549,-0.553,0.567,27.4,27.8,-24.6,11.1,-9.6,-19.2,0.361735893,0.163853877,0.42136906,-0.815271462
306,770185,1508870,-0.557,-0.553,0.571,26.9,28,-25.2,14.2,-10.1,-19.4,0.360911893,0.164342174,0.421216468,-0.815637684
307,773161,1508870,-0.557,-0.553,0.559,26.4,28.1,-25.6,14.2,-10.1,-19.4,0.360118412,0.164799951,0.421063875,-0.815973388
308,775385,1508870,-0.553,-0.557,0.571,26,28.1,-26,14.2,-10.1,-19.4,0.359294412,0.165257729,0.420911283,-0.816309091
309,777693,1508880,-0.553,-0.557,0.563,25.5,28.4,-26.3,14.2,-10.1,-19.4,0.358470412,0.165746025,0.42075869,-0.816644795
310,779934,1508880,-0.553,-0.561,0.571,25.2,28.6,-26.7,11.2,-9.7,-19.1,0.357646413,0.166203803,0.420636616,-0.816980499
311,782083,1508880,-0.557,-0.56,0.567,25.1,28.7,-26.9,11.2,-9.7,-19.1,0.356822413,0.16666158,0.420514542,-0.817316202
312,784317,1508880,-0.557,-0.564,0.563,25.1,28.8,-27.1,11.2,-9.7,-19.1,0.355937376,0.167119358,0.420392468,-0.817682424
313,788378,1508890,-0.557,-0.568,0.567,25.3,28.8,-27.4,11.2,-9.7,-19.1,0.355113376,0.167577136,0.420239875,-0.818018128
314,790055,1508890,-0.557,-0.564,0.571,25.7,28.9,-27.7,11.2,-9.2,-19,0.354258858,0.168034913,0.420117801,-0.818353832
315,791767,1508890,-0.561,-0.568,0.563,26.1,28.9,-28.1,11.2,-9.2,-19,0.35340434,0.168523209,0.419965209,-0.818689535
316,795230,1508890,-0.561,-0.568,0.571,26.5,28.9,-28.4,11.2,-9.2,-19,0.352519303,0.168980987,0.419843135,-0.819055757
317,796748,1508900,-0.565,-0.568,0.575,26.9,29.1,-28.7,11.2,-9.2,-19,0.351664785,0.169438765,0.419690542,-0.819421979
318,799711,1508900,-0.565,-0.56,0.583,27.4,29.3,-28.9,11.2,-9.4,-18.8,0.350718711,0.169896542,0.419598987,-0.819757683
319,802708,1508900,-0.569,-0.556,0.587,27.9,29.6,-29.2,11.2,-9.4,-18.8,0.349833674,0.17035432,0.419415876,-0.820123905
320,804290,1508900,-0.569,-0.56,0.587,28.5,29.7,-29.4,11.2,-9.4,-18.8,0.348918119,0.170842616,0.419263283,-0.820520646
321,806848,1508910,-0.568,-0.552,0.591,28.9,29.8,-29.6,11.2,-9.4,-18.8,0.348033082,0.171330912,0.419080172,-0.820886868
322,810232,1508910,-0.572,-0.552,0.591,29.3,29.6,-29.8,12.1,-9.3,-18.8,0.347117527,0.171819208,0.418897061,-0.821283609
323,811766,1508910,-0.568,-0.548,0.591,29.7,29.5,-30.1,12.1,-9.3,-18.8,0.346171453,0.172276986,0.418683432,-0.821649831
324,814305,1508910,-0.576,-0.548,0.595,30.2,29.3,-30.4,12.1,-9.3,-18.8,0.345255898,0.172765282,0.418439283,-0.822046571
325,817755,1508920,-0.58,-0.548,0.599,30.7,29.3,-30.6,12.1,-9.3,-18.8,0.344309824,0.173253578,0.418256172,-0.822443312
326,819295,1508920,-0.584,-0.548,0.611,31.2,29.6,-30.7,14.8,-11.3,-18.8,0.34336375,0.173741874,0.418042543,-0.822870571
327,823097,1508920,-0.596,-0.552,0.607,32,29.9,-30.8,14.8,-11.3,-18.8,0.342417676,0.174230171,0.417798395,-0.823267312
328,825231,1508920,-0.604,-0.555,0.615,33,30.1,-30.8,14.8,-11.3,-18.8,0.341471603,0.174748985,0.417554247,-0.823694571
329,826723,1508930,-0.608,-0.555,0.615,34.2,30.1,-30.6,14.8,-11.3,-18.8,0.340525529,0.1752678,0.41727958,-0.82412183
330,829285,1508930,-0.616,-0.555,0.616,35.7,30,-30.4,14.2,-8.3,-18.4,0.339548936,0.175786615,0.416974395,-0.824549089
331,831596,1508930,-0.608,-0.555,0.619,37.3,29.8,-30.3,14.2,-8.3,-18.4,0.338602863,0.176335948,0.416638691,-0.825006867
332,835039,1508930,-0.6,-0.555,0.619,38.9,29.7,-30.3,14.2,-8.3,-18.4,0.33762627,0.176854762,0.416272469,-0.825464644
333,836657,1508940,-0.6,-0.552,0.611,40.4,29.4,-30.4,14.2,-8.3,-18.4,0.336649678,0.177434614,0.415875729,-0.825922422
334,840250,1508940,-0.596,-0.552,0.607,41.7,28.9,-30.6,15.2,-8.7,-18.1,0.335673086,0.177953429,0.415478988,-0.826410718
335,841725,1508940,-0.596,-0.556,0.603,42.8,28.4,-30.9,15.2,-8.7,-18.1,0.334696493,0.178502762,0.41502121,-0.826929533
336,844237,1508940,-0.589,-0.571,0.588,44,27.9,-31.2,15.2,-8.7,-18.1,0.333719901,0.179052095,0.414532914,-0.827448347
337,847713,1508950,-0.589,-0.583,0.584,45.4,27.6,-31.5,15.2,-8.7,-18.1,0.33271279,0.179601428,0.414044618,-0.827967162
338,849178,1508950,-0.585,-0.619,0.576,47.1,27.4,-31.9,15.4,-8.8,-18.3,0.331736198,0.180211798,0.413525803,-0.828516495
339,851935,1508950,-0.585,-0.619,0.576,49.1,27.2,-32.1,15.4,-8.8,-18.3,0.330729087,0.18079165,0.412945952,-0.829065828
340,854946,1508950,-0.59,-0.646,0.564,51.2,27.2,-32.3,15.4,-8.8,-18.3,0.329691458,0.181340983,0.412335582,-0.829676199
341,856666,1508960,-0.586,-0.658,0.56,53.4,27,-32.3,15.4,-8.8,-18.3,0.328653829,0.181920835,0.411694693,-0.83025605
342,859143,1508960,-0.586,-0.666,0.564,55.6,26.9,-32.2,15.8,-8.9,-18.2,0.327585681,0.182531205,0.411023286,-0.830896939
343,862564,1508960,-0.586,-0.666,0.549,57.8,26.8,-32,15.8,-8.9,-18.2,0.326548051,0.183141575,0.410290841,-0.831537828
344,864286,1508960,-0.586,-0.658,0.553,59.9,26.8,-31.7,15.8,-8.9,-18.2,0.325479904,0.183782464,0.40949736,-0.832178716
345,866601,1508970,-0.598,-0.642,0.553,61.9,26.9,-31.1,15.8,-8.9,-18.2,0.324442274,0.184423353,0.40867336,-0.832850124
346,869989,1508970,-0.597,-0.618,0.564,63.5,27,-30.6,15,-10.3,-18,0.323374126,0.18509476,0.407849361,-0.833521531
347,873042,1508970,-0.608,-0.555,0.588,64.9,27,-30.2,15,-10.3,-18,0.322336497,0.185766167,0.406994842,-0.834192938
348,874516,1508970,-0.616,-0.524,0.596,66,27,-29.9,15,-10.3,-18,0.321268349,0.186468093,0.406109806,-0.834894864
349,876733,1508980,-0.623,-0.484,0.6,66.7,26.9,-29.8,15,-10.3,-18,0.32023072,0.1871395,0.40519425,-0.835566271
350,879801,1508980,-0.642,-0.448,0.6,66.9,26.7,-29.6,15.1,-10.9,-17.6,0.319162572,0.187841426,0.404278695,-0.836268197
351,882788,1508980,-0.65,-0.405,0.604,66.4,26.4,-29.6,15.1,-10.9,-17.6,0.318124943,0.188512833,0.40336314,-0.836909085
352,884246,1508980,-0.649,-0.397,0.604,65.5,25.8,-29.6,15.1,-10.9,-17.6,0.317087313,0.18918424,0.402478103,-0.83764153
353,887318,1508990,-0.645,-0.389,0.608,63.9,25,-29.7,15.1,-10.9,-17.6,0.316049684,0.189825129,0.401623585,-0.838282418
354,889496,1508990,-0.645,-0.385,0.612,61.9,24.2,-29.6,15.5,-12.2,-17.2,0.315042573,0.190435499,0.400769066,-0.838923307
355,892476,1508990,-0.634,-0.397,0.604,59.5,23.3,-29.4,15.5,-12.2,-17.2,0.314035463,0.191015351,0.399945067,-0.839564196
356,894281,1508990,-0.63,-0.409,0.604,56.9,22.5,-29.4,15.5,-12.2,-17.2,0.313089389,0.191564684,0.399182104,-0.840174566
357,897756,1509000,-0.622,-0.417,0.607,54.1,22,-29.7,15.5,-12.2,-17.2,0.312112796,0.192083499,0.398480178,-0.840754418
358,899244,1509000,-0.614,-0.441,0.603,51.1,21.7,-30.1,15.8,-13.1,-17.2,0.311380352,0.192938017,0.397503586,-0.841273232
359,902285,1509000,-0.615,-0.457,0.607,48,21.7,-30.5,15.8,-13.1,-17.2,0.310434278,0.193395795,0.396893216,-0.841822565
360,905246,1509000,-0.611,-0.457,0.603,44.6,22,-31,15.8,-13.1,-17.2,0.309488205,0.193823054,0.396374401,-0.842310862
361,906719,1509010,-0.607,-0.461,0.607,41,22.6,-31.3,15.8,-13.1,-17.2,0.308542131,0.194250313,0.395886105,-0.842799158
362,909785,1509010,-0.606,-0.437,0.607,37.1,23.4,-31.5,15.4,-13.9,-17,0.307596057,0.194647053,0.395489364,-0.843226417
363,912812,1509010,-0.606,-0.43,0.607,33,24.3,-31.3,15.4,-13.9,-17,0.306680502,0.195043794,0.395184179,-0.843623157
364,914390,1509010,-0.614,-0.414,0.611,28.7,25.3,-30.9,15.4,-13.9,-17,0.305764946,0.195440535,0.39497055,-0.843958861
365,916705,1509020,-0.618,-0.417,0.607,24.4,26.3,-30.4,15.4,-13.9,-17,0.30487991,0.195837275,0.394817957,-0.844264046
366,919202,1509020,-0.638,-0.413,0.608,20.6,27.2,-29.7,16.1,-8.6,-15.5,0.303994873,0.196203497,0.39475692,-0.844508194
367,922697,1509020,-0.642,-0.421,0.608,17.2,28,-28.7,16.1,-8.6,-15.5,0.303140355,0.196600238,0.394726402,-0.844721824
368,924911,1509020,-0.646,-0.433,0.604,14.5,28.4,-27.5,16.1,-8.6,-15.5,0.302346873,0.196996979,0.394787439,-0.844904935
369,927183,1509030,-0.654,-0.452,0.612,12.5,28.7,-26.3,16.1,-8.6,-15.5,0.301553392,0.197363201,0.394848476,-0.845088046
370,929379,1509030,-0.67,-0.479,0.621,11.2,28.7,-25.2,16,-11.7,-17.9,0.300790429,0.197759941,0.394940031,-0.84521012
371,931687,1509030,-0.679,-0.495,0.625,10.6,28.7,-24.2,16,-11.7,-17.9,0.300057985,0.198156682,0.395001068,-0.845332194
372,934328,1509030,-0.687,-0.506,0.629,10.6,28.6,-23.6,16,-11.7,-17.9,0.299295022,0.198553423,0.395123142,-0.845454268
373,937618,1509040,-0.703,-0.526,0.633,11.1,28.6,-23.3,16,-11.7,-17.9,0.298593097,0.198950163,0.395214698,-0.845576342
374,939266,1509040,-0.711,-0.529,0.63,12.3,28.5,-23.3,16.1,-11.1,-17.7,0.297860652,0.199346904,0.395275735,-0.845728935
375,941688,1509040,-0.711,-0.537,0.622,14.1,28.4,-23.6,16.1,-11.1,-17.7,0.297128208,0.199774163,0.395306253,-0.845881527
376,945128,1509040,-0.719,-0.541,0.618,16.5,28.1,-23.9,16.1,-11.1,-17.7,0.296365246,0.200170904,0.395275735,-0.846064638
377,946678,1509050,-0.723,-0.541,0.603,19.3,27.8,-24.3,16.1,-11.1,-17.7,0.295571764,0.200598163,0.395214698,-0.846247749
378,949659,1509050,-0.723,-0.541,0.603,19.3,27.8,-24.3,16.1,-11.1,-17.7,0.295571764,0.200598163,0.395214698,-0.846247749
379,951936,1509050,-0.731,-0.541,0.591,25.5,26.6,-25.6,16.4,-10.1,-17.6,0.294045839,0.201666311,0.394878994,-0.846705527
380,955100,1509050,-0.739,-0.537,0.591,28.8,26.1,-26.3,16.4,-10.1,-17.6,0.293221839,0.202124088,0.394604328,-0.846980193
381,956640,1509060,-0.739,-0.521,0.587,32.2,25.5,-27,16.4,-10.1,-17.6,0.292336802,0.202551347,0.394299142,-0.847346416
382,959526,1509060,-0.739,-0.513,0.584,35.5,24.9,-27.3,16.8,-9.2,-17.6,0.291482284,0.203009125,0.39393292,-0.847712638
383,962626,1509060,-0.742,-0.493,0.58,38.6,24.2,-27.4,16.8,-9.2,-17.6,0.290597247,0.203466903,0.393475143,-0.848109378
384,964760,1509060,-0.746,-0.466,0.564,41.2,23.5,-27.5,16.8,-9.2,-17.6,0.289681692,0.20392468,0.392986847,-0.848536637
385,967766,1509070,-0.742,-0.446,0.568,43.1,22.8,-27.5,16.8,-9.2,-17.6,0.288796655,0.204412976,0.392468032,-0.848963897
386,970174,1509070,-0.745,-0.426,0.564,44.4,22.1,-27.5,16.8,-10.7,-15.6,0.2878811,0.204840236,0.39188818,-0.849421674
387,972313,1509070,-0.745,-0.415,0.56,45,21.6,-27.5,16.8,-10.7,-15.6,0.286996063,0.205298013,0.391338847,-0.849879452
388,974528,1509070,-0.745,-0.391,0.56,45.1,21,-27.3,16.8,-10.7,-15.6,0.286111026,0.205755791,0.390728477,-0.85033723
389,978486,1509080,-0.745,-0.379,0.564,45,20.3,-27.1,16.8,-10.7,-15.6,0.28522599,0.20618305,0.390148625,-0.850795007
390,980563,1509080,-0.745,-0.379,0.564,44.6,19.6,-26.8,17.4,-10.5,-16.7,0.284371471,0.206579791,0.389568773,-0.851252785
391,982063,1509080,-0.741,-0.375,0.564,44,18.9,-26.5,17.4,-10.5,-16.7,0.283516953,0.206976531,0.388988922,-0.851710562
392,984234,1509080,-0.749,-0.383,0.552,43.3,18.2,-26.1,17.4,-10.5,-16.7,0.282662435,0.207373272,0.38840907,-0.85216834
393,988151,1509090,-0.753,-0.387,0.564,42.4,17.5,-25.7,17.4,-10.5,-16.7,0.281838435,0.207739494,0.387859737,-0.852595599
394,989452,1509090,-0.753,-0.391,0.572,41.5,16.9,-25.3,17,-10.9,-16.6,0.281044954,0.208105716,0.387279885,-0.853022858
395,992645,1509090,-0.753,-0.387,0.58,40.5,16.3,-24.8,17,-10.9,-16.6,0.280251473,0.20844142,0.386761071,-0.853450117
396,995380,1509090,-0.756,-0.375,0.588,39.1,15.7,-24.2,17,-10.9,-16.6,0.27948851,0.208777123,0.386242256,-0.853846858
397,997029,1509100,-0.76,-0.367,0.588,37.6,15,-23.5,17,-10.9,-16.6,0.278756066,0.209082308,0.385723441,-0.854243599
398,999337,1509100,-0.756,-0.344,0.599,35.5,14.4,-22.8,17.4,-10.9,-16,0.278359325,0.209997864,0.385021516,-0.854487747
399,1001782,1509100,-0.76,-0.34,0.603,32.9,13.7,-22,17.4,-10.9,-16,0.277657399,0.21027253,0.384594256,-0.85482345
400,1005425,1509100,-0.76,-0.332,0.611,29.9,13.1,-21.2,17.4,-10.9,-16,0.277016511,0.210516678,0.384197516,-0.855128636
401,1007643,1509110,-0.755,-0.32,0.607,26.5,12.5,-20.4,17.4,-10.9,-16,0.27640614,0.210730308,0.383892331,-0.855433821
402,1009442,1509110,-0.759,-0.324,0.615,23,11.9,-19.4,17.1,-10.8,-15.8,0.275856807,0.210943937,0.383617664,-0.855677969
403,1012384,1509110,-0.759,-0.332,0.619,19.3,11.3,-18.4,17.1,-10.8,-15.8,0.275307474,0.211127049,0.383404035,-0.855891598
404,1014344,1509110,-0.764,-0.336,0.619,15.4,10.8,-17.3,17.1,-10.8,-15.8,0.274819178,0.211249123,0.383251442,-0.856074709
405,1016661,1509120,-0.768,-0.347,0.623,11.6,10.3,-16.3,17.1,-10.8,-15.8,0.274391919,0.211401715,0.383190405,-0.856227302
406,1019159,1509120,-0.776,-0.359,0.619,7.7,10,-15.2,17.6,-10.9,-16.6,0.273995178,0.211493271,0.383159886,-0.856349376
407,1023015,1509120,-0.784,-0.37,0.631,4.2,9.7,-14.1,17.6,-10.9,-16.6,0.273628956,0.211584826,0.383220923,-0.856410413
408,1025329,1509120,-0.788,-0.374,0.62,0.9,9.2,-12.9,17.6,-10.9,-16.6,0.273293252,0.211645863,0.383281961,-0.856440931
409,1027445,1509130,-0.8,-0.378,0.624,-2.2,8.7,-11.8,17.6,-10.9,-16.6,0.273018586,0.2117069,0.383465072,-0.856440931
410,1029712,1509130,-0.808,-0.393,0.608,-5.1,8.2,-10.8,17.2,-10.7,-14.5,0.272743919,0.211737419,0.383648183,-0.856440931
411,1031955,1509130,-0.812,-0.393,0.609,-7.9,7.6,-10,17.2,-10.7,-14.5,0.27253029,0.211737419,0.383892331,-0.856410413
412,1034249,1509130,-0.816,-0.397,0.597,-10.2,6.8,-9.3,17.2,-10.7,-14.5,0.272347179,0.211737419,0.384166997,-0.856349376
413,1036851,1509140,-0.82,-0.401,0.597,-12.1,6,-8.8,17.2,-10.7,-14.5,0.272194586,0.2117069,0.384472182,-0.856288339
414,1039110,1509140,-0.82,-0.417,0.589,-13.9,5.1,-8.5,17.8,-10.8,-13.7,0.272072512,0.211645863,0.384807886,-0.856196783
415,1043205,1509140,-0.828,-0.413,0.582,-15.3,4.3,-8.4,17.8,-10.8,-13.7,0.271950438,0.211554308,0.38514359,-0.856105228
416,1045470,1509140,-0.836,-0.416,0.586,-16.4,3.5,-8.3,17.8,-10.8,-13.7,0.271828364,0.211462752,0.385509812,-0.855983154
417,1047636,1509150,-0.844,-0.416,0.586,-16.9,2.7,-8.3,17.8,-10.8,-13.7,0.271736808,0.211340678,0.385906552,-0.855891598
418,1049328,1509150,-0.86,-0.4,0.579,-17,2.1,-8.3,17.8,-10.7,-14,0.271645253,0.211218604,0.386272774,-0.855769524
419,1051644,1509150,-0.876,-0.392,0.583,-16.5,1.7,-8.1,17.8,-10.7,-14,0.271553697,0.211066012,0.386638997,-0.855677969
420,1054635,1509150,-0.883,-0.376,0.583,-15.5,1.2,-7.8,17.8,-10.7,-14,0.271462142,0.210943937,0.386944182,-0.855586413
421,1056731,1509160,-0.891,-0.364,0.579,-14.3,0.5,-7.6,17.8,-10.7,-14,0.271370586,0.210791345,0.387249367,-0.855494858
422,1059793,1509160,-0.918,-0.32,0.58,-12.9,-0.6,-7.6,17.8,-10.6,-14,0.271309549,0.210638752,0.387524033,-0.855433821
423,1061838,1509160,-0.93,-0.3,0.58,-11.8,-2,-7.7,17.8,-10.6,-14,0.271217994,0.21048616,0.387768181,-0.855403302
424,1065157,1509160,-0.938,-0.284,0.588,-11.1,-3.5,-7.7,17.8,-10.6,-14,0.271156957,0.21027253,0.388012329,-0.855372784
425,1066589,1509170,-0.969,-0.244,0.593,-10.6,-4.6,-7.5,17.8,-10.6,-14,0.27109592,0.210058901,0.388195441,-0.855342265
426,1069061,1509170,-0.976,-0.232,0.597,-10.7,-5.5,-7.3,17.7,-10.9,-17,0.271065401,0.209845271,0.38840907,-0.855311747
427,1073019,1509170,-0.988,-0.22,0.601,-11.2,-6.6,-7.3,17.7,-10.9,-17,0.271034883,0.209570605,0.3886227,-0.855311747
428,1074590,1509170,-0.996,-0.204,0.593,-12.2,-7.7,-7.1,17.7,-10.9,-17,0.271034883,0.209295938,0.388836329,-0.855281228
429,1076741,1509180,-1.019,-0.18,0.606,-13.6,-8.8,-7,17.7,-10.9,-17,0.271034883,0.208990753,0.389080477,-0.85525071
430,1080481,1509180,-1.027,-0.176,0.614,-15.2,-9.9,-6.8,18.1,-10.6,-16,0.271065401,0.208655049,0.389324625,-0.855189673
431,1082736,1509180,-1.039,-0.164,0.618,-16.8,-10.9,-6.6,18.1,-10.6,-16,0.27109592,0.208319346,0.389599292,-0.855128636
432,1085004,1509180,-1.05,-0.156,0.63,-18.3,-11.8,-6.1,18.1,-10.6,-16,0.271156957,0.207922605,0.389904477,-0.855067598
433,1087999,1509190,-1.062,-0.136,0.654,-19.7,-13.1,-5.1,18.1,-10.6,-16,0.271279031,0.207525864,0.390209662,-0.855006561
434,1090247,1509190,-1.07,-0.132,0.669,-21.3,-14.2,-3.7,17.8,-10.2,-16.7,0.271431623,0.207098605,0.390545366,-0.854915006
435,1092456,1509190,-1.073,-0.12,0.681,-23.3,-15.5,-2,17.8,-10.2,-16.7,0.271614734,0.206640828,0.390911588,-0.854792932
436,1094628,1509190,-1.081,-0.112,0.693,-25.6,-16.7,0,17.8,-10.2,-16.7,0.271889401,0.20618305,0.39127781,-0.854640339
437,1096981,1509200,-1.097,-0.096,0.709,-28.4,-17.9,2,17.8,-10.2,-16.7,0.272194586,0.205694754,0.391705069,-0.854457228
438,1099252,1509200,-1.101,-0.096,0.701,-31.6,-19.2,4.4,17.7,-10.2,-17.2,0.272591327,0.205175939,0.392162847,-0.854243599
439,1101863,1509200,-1.113,-0.096,0.702,-34.8,-20.5,6.8,17.7,-10.2,-17.2,0.273049104,0.204657125,0.392651143,-0.853999451
440,1105140,1509200,-1.121,-0.103,0.698,-38,-21.9,9.3,17.7,-10.2,-17.2,0.273567919,0.204107791,0.393169958,-0.853724784
441,1106758,1509210,-1.129,-0.103,0.687,-40.8,-23.6,11.8,17.7,-10.2,-17.2,0.274178289,0.20352794,0.393749809,-0.853419599
442,1109388,1509210,-1.137,-0.115,0.687,-43.4,-25.3,14.5,17.3,-10.2,-17.5,0.274880215,0.20291757,0.394329661,-0.853053377
443,1112714,1509210,-1.145,-0.118,0.679,-45.8,-27.1,17.1,17.3,-10.2,-17.5,0.275612659,0.202276681,0.39497055,-0.852687155
444,1114658,1509210,-1.157,-0.134,0.68,-47.8,-28.8,19.7,17.3,-10.2,-17.5,0.276467177,0.201635792,0.39558092,-0.852290414
445,1116610,1509220,-1.169,-0.134,0.676,-49.2,-30.6,22.1,17.3,-10.2,-17.5,0.277352214,0.200933866,0.396221809,-0.851863155
446,1120477,1509220,-1.177,-0.145,0.68,-50,-32.6,24.8,17.3,-10.3,-16.2,0.278298288,0.200262459,0.396832179,-0.851405377
447,1122205,1509220,-1.185,-0.145,0.673,-50.4,-34.6,27.4,17.3,-10.3,-16.2,0.279335917,0.199530015,0.397442549,-0.8509476
448,1125030,1509220,-1.205,-0.145,0.657,-50.5,-36.9,29.9,17.3,-10.3,-16.2,0.280434584,0.198797571,0.398022401,-0.850489822
449,1126774,1509230,-1.201,-0.141,0.646,-50.5,-39.4,32.3,17.3,-10.3,-16.2,0.281594287,0.198034608,0.398571734,-0.850032044
450,1129063,1509230,-1.209,-0.133,0.646,-50.3,-42,34.4,17.4,-10.6,-16.6,0.282815027,0.197241127,0.399121067,-0.849574267
451,1132470,1509230,-1.213,-0.125,0.642,-50.1,-44.7,36.3,17.4,-10.6,-16.6,0.284096805,0.196447645,0.399609363,-0.849085971
452,1134049,1509230,-1.232,-0.093,0.646,-49.8,-47.2,38,17.4,-10.6,-16.6,0.285439619,0.195593127,0.400067141,-0.848628193
453,1136721,1509240,-1.24,-0.081,0.658,-49.4,-49.5,39.6,17.4,-10.6,-16.6,0.286812952,0.19470809,0.400524918,-0.848170415
454,1139206,1509240,-1.251,-0.053,0.662,-48.9,-51.9,41.1,16.8,-10.4,-16.8,0.288216803,0.193792535,0.400921659,-0.847682119
455,1142555,1509240,-1.27,0.009,0.663,-48.6,-54.2,42.7,16.8,-10.4,-16.8,0.289681692,0.192846461,0.401287881,-0.847224342
456,1144180,1509240,-1.27,0.041,0.678,-48.8,-56.7,44.3,16.8,-10.4,-16.8,0.291207617,0.191869869,0.401654103,-0.846766564
457,1148054,1509250,-1.277,0.064,0.682,-49.4,-59.4,46,16.8,-10.4,-16.8,0.29279458,0.190862758,0.401989807,-0.846278268
458,1149684,1509250,-1.292,0.128,0.682,-50.7,-62.1,47.6,16.4,-10.6,-16.9,0.294442579,0.189825129,0.40232551,-0.845789972
459,1152966,1509250,-1.3,0.14,0.686,-52.5,-64.7,49,16.4,-10.6,-16.9,0.296121097,0.188695944,0.402691733,-0.845271157
460,1154578,1509250,-1.303,0.163,0.686,-54.9,-67.2,50.6,16.4,-10.6,-16.9,0.297860652,0.187566759,0.403057955,-0.844721824
461,1157738,1509260,-1.311,0.187,0.683,-57.8,-69.5,52.1,16.4,-10.6,-16.9,0.299691763,0.186376537,0.403454695,-0.844172491
462,1159144,1509260,-1.319,0.195,0.679,-61,-71.9,53.6,16,-10.1,-17.1,0.301553392,0.185125278,0.403881954,-0.84356212
463,1161602,1509260,-1.334,0.223,0.687,-64.4,-74.2,55.2,16,-10.1,-17.1,0.303476058,0.183812983,0.404370251,-0.84295175
464,1164440,1509260,-1.342,0.231,0.687,-68.1,-76.5,56.7,16,-10.1,-17.1,0.305459761,0.18243965,0.404889065,-0.842280343
465,1166649,1509270,-1.35,0.239,0.688,-72.2,-78.6,58.2,16,-10.1,-17.1,0.30753502,0.181035798,0.405438398,-0.841547899
466,1169725,1509270,-1.37,0.247,0.688,-76.2,-80.6,59.8,13.5,-10.4,-17.4,0.309640797,0.17957091,0.406079287,-0.840784936
467,1173112,1509270,-1.381,0.255,0.684,-80.2,-82.5,61.6,13.5,-10.4,-17.4,0.311807611,0.178075503,0.406720176,-0.839991455
468,1173966,1509270,-1.397,0.252,0.681,-84.4,-84.4,63.6,13.5,-10.4,-17.4,0.314065981,0.176519059,0.407483139,-0.839136937
469,1177765,1509280,-1.401,0.248,0.677,-88.7,-86.3,65.9,13.5,-10.4,-17.4,0.316385388,0.174901578,0.408246101,-0.838221381
470,1179606,1509280,-1.425,0.249,0.674,-93,-88.3,68.5,16.8,-9.8,-18,0.318765831,0.173253578,0.409070101,-0.837244789
471,1182948,1509280,-1.433,0.245,0.67,-97.2,-90.2,71,16.8,-9.8,-18,0.321237831,0.17157506,0.409955138,-0.83620716
472,1184697,1509280,-1.441,0.245,0.663,-101.3,-92.2,73.4,16.8,-9.8,-18,0.323770867,0.169835505,0.410870693,-0.835139012
473,1187795,1509290,-1.453,0.249,0.647,-105.1,-94.4,75.6,16.8,-9.8,-18,0.326395459,0.168034913,0.411847285,-0.834009827
474,1189248,1509290,-1.481,0.246,0.632,-108.6,-96.7,77.1,16.1,-10.3,-18.1,0.329050569,0.166203803,0.412854396,-0.832819605
475,1192342,1509290,-1.485,0.238,0.625,-111.2,-98.7,77.9,16.1,-10.3,-18.1,0.331766717,0.164281137,0.413861507,-0.831629383
476,1194069,1509290,-1.493,0.219,0.621,-112.7,-100.6,78.1,16.1,-10.3,-18.1,0.334452345,0.162327952,0.414899136,-0.830378124
477,1196794,1509300,-1.51,0.199,0.614,-112.7,-102.6,78.1,16.1,-10.3,-18.1,0.33722953,0.160374767,0.415906247,-0.829157384
478,1199893,1509300,-1.535,0.133,0.587,-110.6,-104.9,78.1,15.2,-9.8,-18.5,0.339976196,0.158391064,0.416882839,-0.827936644
479,1201655,1509300,-1.559,0.094,0.569,-106.6,-107.6,78.3,15.2,-9.8,-18.5,0.34275338,0.156376843,0.417737358,-0.826746422
480,1205510,1509300,-1.58,0.055,0.546,-100.7,-110.7,78.6,15.2,-9.8,-18.5,0.345500046,0.154332102,0.418439283,-0.825617237
481,1206941,1509310,-1.617,-0.029,0.504,-93.5,-114,78.5,15.2,-9.8,-18.5,0.34827723,0.152287362,0.419019135,-0.824549089
482,1209917,1509310,-1.625,-0.061,0.473,-84.9,-117.6,77.9,14.6,-9.9,-19.2,0.351054415,0.150242622,0.419385357,-0.823572497
483,1211632,1509310,-1.642,-0.08,0.435,-75,-121.5,76.6,14.6,-9.9,-19.2,0.353770562,0.148167364,0.41953795,-0.82268746
484,1215185,1509310,-1.662,-0.083,0.392,-63.6,-125.7,74.6,14.6,-9.9,-19.2,0.356456191,0.146122623,0.419476913,-0.821924497
485,1216779,1509320,-1.662,-0.083,0.322,-50.3,-130.3,72,14.6,-9.9,-19.2,0.359111301,0.144047365,0.419110691,-0.821283609
486,1219077,1509320,-1.662,-0.08,0.298,-34.5,-135.1,69,12,-9.8,-19.5,0.361674856,0.141972106,0.418439283,-0.820886868
487,1222673,1509320,-1.655,-0.076,0.286,-16.1,-139.7,66.1,12,-9.8,-19.5,0.364207892,0.139957884,0.417432173,-0.82064272
488,1224193,1509320,-1.658,-0.06,0.29,4.8,-144,64,12,-9.8,-19.5,0.366649373,0.1380047,0.416028321,-0.820612201
489,1227440,1509330,-1.658,-0.044,0.314,26.9,-148.1,62.9,12,-9.8,-19.5,0.369029817,0.136112552,0.414166692,-0.820795312
490,1229269,1509330,-1.646,-0.033,0.341,48.9,-151.7,63.2,11.4,-10.1,-19.9,0.371379742,0.134372997,0.411877804,-0.821161534
491,1231947,1509330,-1.641,0.009,0.352,69.5,-155,64,11.4,-10.1,-19.9,0.373729667,0.132724998,0.409161657,-0.821741386
492,1234106,1509330,-1.641,0.017,0.372,88.1,-157.4,64.7,11.4,-10.1,-19.9,0.376018555,0.131199072,0.406109806,-0.822443312
493,1236758,1509340,-1.636,0.064,0.418,103.9,-158.9,64.7,11.4,-10.1,-19.9,0.378307443,0.129795221,0.40275277,-0.823267312
494,1239325,1509340,-1.643,0.108,0.45,116.1,-159.4,63.7,9.1,-10.6,-19.8,0.380504776,0.128421888,0.399182104,-0.824213385
495,1242790,1509340,-1.642,0.143,0.461,124.8,-159.2,61.5,9.1,-10.6,-19.8,0.382641072,0.12714011,0.395428327,-0.825189978
496,1244821,1509340,-1.637,0.23,0.488,130.5,-158.5,58,9.1,-10.6,-19.8,0.384685812,0.125888852,0.391582995,-0.826288644
497,1247036,1509350,-1.636,0.253,0.508,133.5,-157.6,53.5,9.1,-10.6,-19.8,0.386638997,0.124607074,0.387707144,-0.827417829
498,1249558,1509350,-1.632,0.292,0.523,134.6,-156.6,48.4,8.6,-11.2,-19.5,0.388470107,0.123325297,0.383831294,-0.828547014
499,1251754,1509350,-1.635,0.32,0.546,134.2,-155.3,42.9,8.6,-11.2,-19.5,0.390179144,0.122013001,0.379955443,-0.829737236
500,1254267,1509350,-1.638,0.371,0.582,132.7,-153.9,37.2,8.6,-11.2,-19.5,0.391766106,0.120670186,0.376140629,-0.830927458
501,1257745,1509360,-1.638,0.395,0.593,130.4,-152.6,31.5,8.6,-11.2,-19.5,0.393261513,0.119235817,0.372386853,-0.832117679
502,1260062,1509360,-1.634,0.403,0.609,127,-151.1,26.4,7,-12,-19.4,0.394634846,0.117831965,0.368694113,-0.833307901
503,1262388,1509360,-1.645,0.415,0.625,122.8,-149.4,22.4,7,-12,-19.4,0.395916623,0.11630604,0.365123447,-0.834467605
504,1265224,1509360,-1.681,0.419,0.657,117.8,-147.3,20.1,7,-12,-19.4,0.397137364,0.114841151,0.361644337,-0.835596789
505,1267510,1509370,-1.705,0.396,0.677,112.3,-144.6,19.7,7,-12,-19.4,0.398358104,0.113345744,0.358287301,-0.836664937
506,1269819,1509370,-1.733,0.377,0.693,106.8,-141.6,20.6,8.7,-12.7,-19.1,0.399578845,0.111850337,0.355052339,-0.837672048
507,1272254,1509370,-1.781,0.304,0.738,101.7,-138.7,21.8,8.7,-12.7,-19.1,0.400799585,0.11035493,0.351939451,-0.838618122
508,1274152,1509370,-1.802,0.257,0.75,97.3,-136.2,22.6,8.7,-12.7,-19.1,0.402020325,0.108890042,0.348918119,-0.83947264
509,1277741,1509380,-1.826,0.219,0.763,94.1,-134.5,22.1,8.7,-12.7,-19.1,0.403241066,0.107425153,0.345957823,-0.840327158
510,1279334,1509380,-1.843,0.176,0.771,92.1,-133.4,20.4,4.8,-12.2,-19.2,0.404400769,0.105929746,0.343028047,-0.841151158
511,1281881,1509380,-1.879,0.094,0.796,91.3,-132.9,17.5,4.8,-12.2,-19.2,0.405499435,0.104434339,0.340159307,-0.841975158
512,1284652,1509380,-1.896,0.059,0.804,91.3,-132.4,13.6,4.8,-12.2,-19.2,0.406537065,0.102908414,0.337260048,-0.842829676
513,1287050,1509390,-1.904,0.032,0.816,91.7,-131.8,8.7,4.8,-12.2,-19.2,0.40745262,0.10135197,0.334391308,-0.843714713
514,1289222,1509390,-1.908,0.008,0.836,92.5,-131.1,2.9,4,-13,-18.7,0.408246101,0.099795526,0.33149205,-0.844630268
515,1291732,1509390,-1.905,-0.018,0.863,93.7,-130.1,-3.8,4,-13,-18.7,0.408917508,0.0982085635,0.328592792,-0.845637379
516,1294231,1509390,-1.893,-0.015,0.859,95.6,-129.3,-11.5,4,-13,-18.7,0.409436323,0.0965910825,0.325724052,-0.846705527
517,1298270,1509400,-1.876,0.012,0.839,98,-128.7,-20.2,4,-13,-18.7,0.409741508,0.094943083,0.322824793,-0.847834712
518,1300473,1509400,-1.808,0.088,0.771,100.6,-128.6,-30.3,3.2,-13.1,-18.5,0.409894101,0.0932340464,0.319864498,-0.849085971
519,1302527,1509400,-1.768,0.135,0.734,103.2,-128.9,-41.7,3.2,-13.1,-18.5,0.409802545,0.0914944914,0.316873684,-0.850428785
520,1304626,1509400,-1.708,0.2,0.689,106.3,-129.6,-54.1,3.2,-13.1,-18.5,0.409466842,0.0896633808,0.313852351,-0.851893674
521,1306928,1509410,-1.651,0.266,0.656,110.5,-130.7,-66.6,3.2,-13.1,-18.5,0.408917508,0.0877712333,0.310739463,-0.853511155
522,1309201,1509410,-1.515,0.368,0.613,116.1,-131.7,-78.5,3.5,-13.9,-18.3,0.408124027,0.0858180486,0.307565538,-0.85525071
523,1311769,1509410,-1.443,0.418,0.611,122.6,-132.7,-89.7,3.5,-13.9,-18.3,0.407086398,0.0838343455,0.304269539,-0.857112339
524,1315843,1509410,-1.371,0.463,0.625,128.8,-133,-100.4,3.5,-13.9,-18.3,0.405865658,0.0818201239,0.300851466,-0.859096042
525,1318038,1509420,-1.314,0.509,0.662,133.6,-132.5,-110.8,3.5,-13.9,-18.3,0.404400769,0.0797753838,0.297341838,-0.8611713
526,1319633,1509420,-1.189,0.593,0.764,136.2,-131.1,-121.9,5.5,-16.1,-17.7,0.402722251,0.0777306436,0.293862728,-0.863338115
527,1322113,1509420,-1.132,0.643,0.829,136.5,-128.7,-133.9,5.5,-16.1,-17.7,0.400799585,0.075655385,0.290383618,-0.865596484
528,1324160,1509420,-1.068,0.693,0.893,134.4,-125.6,-147.2,5.5,-16.1,-17.7,0.398571734,0.0735190893,0.286965545,-0.867946409
529,1327865,1509430,-1.003,0.738,0.954,130.6,-121.9,-161.6,5.5,-16.1,-17.7,0.396069216,0.0713217566,0.283669546,-0.870357372
530,1329284,1509430,-0.87,0.818,1.114,125.6,-117.8,-177,4.7,-14,-17.2,0.393230995,0.0690633869,0.280556658,-0.872829371
531,1331600,1509430,-0.798,0.848,1.194,119.8,-113.7,-193,4.7,-14,-17.2,0.39005707,0.0667439802,0.277596362,-0.875362407
532,1334317,1509430,-0.726,0.87,1.267,113.4,-109.6,-209,4.7,-14,-17.2,0.38657796,0.0643635365,0.274788659,-0.877986999
533,1337778,1509440,-0.65,0.872,1.327,106.4,-105.6,-224.6,4.7,-14,-17.2,0.382732627,0.0618915372,0.272164068,-0.880642109
534,1340118,1509440,-0.511,0.85,1.413,98.3,-101.7,-240.2,6.1,-13.5,-16.7,0.37858211,0.0593279824,0.269753105,-0.883358257
535,1342644,1509440,-0.452,0.829,1.431,89,-97.6,-255.7,6.1,-13.5,-16.7,0.374126408,0.0566728721,0.267555773,-0.886104923
536,1344867,1509440,-0.397,0.78,1.442,78,-92.9,-271.8,6.1,-13.5,-16.7,0.369304483,0.0539262062,0.265633106,-0.888882107
537,1347345,1509450,-0.242,0.734,1.473,65.1,-87.3,-288.7,6.1,-13.5,-16.7,0.364116337,0.0510574664,0.263985107,-0.891659291
538,1349312,1509450,-0.155,0.736,1.49,50.8,-81.1,-306.5,6.4,-14.2,-16.4,0.358561968,0.0481276894,0.26270333,-0.894466994
539,1352924,1509450,-0.085,0.671,1.449,37.9,-76,-324.6,6.4,-14.2,-16.4,0.352610858,0.045106357,0.261696219,-0.897274697
540,1354373,1509450,0,0.586,1.4,28.7,-72.9,-342.1,6.4,-14.2,-16.4,0.346293527,0.041932432,0.260902738,-0.900112918
541,1357638,1509460,0.219,0.42,1.321,28.7,-72.9,-342.1,6.4,-14.2,-16.4,0.339945677,0.038758507,0.260078738,-0.902920621
542,1359780,1509460,0.36,0.315,1.259,22,-71.9,-376.2,7.8,-13,-16.8,0.33292642,0.0353709525,0.259437849,-0.905850398
543,1361885,1509460,0.509,0.209,1.177,22,-71.9,-376.2,7.8,-13,-16.8,0.325846126,0.0319833979,0.258735923,-0.908719138
544,1364137,1509460,0.673,0.075,1.036,26.7,-72.4,-412.3,7.8,-13,-16.8,0.318063906,0.0284127323,0.257972961,-0.911832026
545,1366630,1509470,1.035,-0.282,0.696,26.7,-72.4,-412.3,7.8,-13,-16.8,0.310251167,0.0248420667,0.257179479,-0.914853359
546,1370986,1509470,1.188,-0.581,0.563,34.9,-73.7,-429.1,8.4,-14.5,-16.6,0.302041688,0.0211798456,0.256202887,-0.917935728
547,1371454,1509470,1.449,-0.658,0.432,48.6,-76,-444.4,8.4,-14.5,-16.6,0.293527024,0.0174565874,0.25492111,-0.921140172
548,1374601,1509470,1.449,-0.658,0.432,48.6,-76,-444.4,8.4,-14.5,-16.6,0.293527024,0.0174565874,0.25492111,-0.921140172
549,1376728,1509480,2.168,-1.009,0.199,101.4,-86,-481.1,8.4,-14.5,-16.6,0.27539903,0.0100100711,0.250709555,-0.927976318
550,1379985,1509480,2.163,-1.371,-0.432,188,-102.5,-525.8,10.3,-14.8,-16.4,0.265266884,0.00619525742,0.246375927,-0.932126835
551,1382289,1509480,2.225,-2.835,-3.285,188,-102.5,-525.8,10.3,-14.8,-16.4,0.255073702,0.00234992523,0.24201178,-0.93612476
552,1384440,1509480,3.622,-8.171,0.622,250,-121.8,-540.6,10.3,-14.8,-16.4,0.244636372,-0.00155644398,0.236243782,-0.940366832
553,1386609,1509490,7.021,-8.238,-0.358,377,-163.5,-521,10.3,-14.8,-16.4,0.234778893,-0.00558488723,0.227607044,-0.945005646
554,1389118,1509490,7.959,-8.275,-2.98,619.4,-244.1,-424.1,11.8,-16.6,-15.7,0.227301859,-0.00955229347,0.213476974,-0.950071718
555,1391766,1509490,7.962,-8.27,0.46,848.9,-387.8,-236.9,11.8,-16.6,-15.7,0.224311045,-0.014496292,0.193884091,-0.954893643
556,1395096,1509490,8.128,1.515,0.653,823.6,-549.2,-26,11.8,-16.6,-15.7,0.226294748,-0.0219733268,0.173986023,-0.958128605
557,1397553,1509500,8.173,4.795,-0.17,472.2,-619.3,82.5,11.8,-16.6,-15.7,0.230567339,-0.0322580645,0.161046175,-0.959074679
558,1399485,1509500,8.216,7.35,0.52,-352.1,-179.4,-282.2,10.5,-18.5,-15.4,0.225043489,-0.0388195441,0.167302469,-0.959074679
559,1401763,1509500,7.105,7.845,2.087,-352.1,-179.4,-282.2,10.5,-18.5,-15.4,0.219458602,-0.0453199866,0.173558763,-0.958952605
560,1405448,1509500,1.786,7.965,1.112,-484.6,165,-537.8,10.5,-18.5,-15.4,0.207098605,-0.0462355419,0.183935057,-0.959746086
561,1407072,1509510,0.018,8.004,0.065,-463.9,411.1,-594.2,10.5,-18.5,-15.4,0.192480239,-0.0420850246,0.194860683,-0.960814234
562,1409244,1509510,-1.967,8.049,-0.295,-382.4,519.8,-423.6,12.4,-16.7,-16,0.18100528,-0.0346079897,0.204657125,-0.96130253
563,1411877,1509510,-5.694,8.078,-1.84,-325.2,517.1,-152.1,12.4,-16.7,-16,0.1752678,-0.025696585,0.213385418,-0.960753197
564,1415715,1509510,-6.247,6.27,-2.097,-318.6,451.6,86.3,12.4,-16.7,-16,0.174779504,-0.0170598468,0.221808527,-0.959135716
565,1417911,1509520,-6.014,3.608,-2.181,-328.4,360.4,237.3,12.4,-16.7,-16,0.177861873,-0.00961333048,0.23014008,-0.956694235
566,1419423,1509520,-4.846,1.588,-2.191,-314.2,265.4,299.4,13.6,-11.1,-14.7,0.182714316,-0.00378429518,0.237769707,-0.953947569
567,1423449,1509520,-2.497,-0.85,-2.008,-254.2,178.1,296.7,13.6,-11.1,-14.7,0.187932981,0.000396740623,0.243781854,-0.951414533
568,1425490,1509520,-0.674,-1.554,-0.586,-147.9,103.6,269.6,13.6,-11.1,-14.7,0.192968535,0.00338755455,0.247291482,-0.949491867
569,1427051,1509530,-0.506,-2.844,-1.106,-17.4,43.8,252.6,13.6,-11.1,-14.7,0.197973571,0.00558488723,0.247810297,-0.948332163
570,1429453,1509530,-1.067,-5.019,-0.495,120.8,-16.2,296.7,13.5,-14.5,-17.5,0.204168828,0.00738547929,0.245185705,-0.947691275
571,1431807,1509530,0.744,-4.544,0.728,120.8,-16.2,296.7,13.5,-14.5,-17.5,0.210364086,0.00915555284,0.242561113,-0.946989349
572,1434361,1509530,0.578,-4.312,1.024,100.7,-21.9,294.2,13.5,-14.5,-17.5,0.216528825,0.0107425153,0.240302744,-0.946134831
573,1437673,1509540,0.413,-3.804,1.391,63.1,-16.3,237.2,13.5,-14.5,-17.5,0.221503342,0.0119327372,0.238868374,-0.94534135
574,1439173,1509540,-0.148,-3.001,1.567,33.6,-3.8,147.4,13.1,-12.8,-17.4,0.224555193,0.0127872555,0.238135929,-0.944822535
575,1441860,1509540,-0.674,-1.114,1.712,21.7,9.7,65.3,13.1,-12.8,-17.4,0.225806452,0.0134281442,0.23770867,-0.944608905
576,1444874,1509540,-0.999,-0.478,1.493,27,18.6,5.7,13.1,-12.8,-17.4,0.225867489,0.0139774773,0.237250893,-0.944700461
577,1446612,1509550,-1.108,0.184,1.583,40.6,23.1,-34.3,13.1,-12.8,-17.4,0.22501297,0.014496292,0.236518448,-0.945066683
578,1450104,1509550,-1.264,0.9,2.242,37.8,38.4,-80.1,13.3,-13.2,-17.2,0.223151341,0.0150456252,0.235969115,-0.945646535
579,1451684,1509550,-1.322,0.838,1.951,37.8,38.4,-80.1,13.3,-13.2,-17.2,0.221289712,0.0156254769,0.235389264,-0.946226386
580,1455117,1509550,-1.322,0.838,1.951,37.8,38.4,-80.1,13.3,-13.2,-17.2,0.221289712,0.0156254769,0.235389264,-0.946226386
581,1457349,1509560,-1.457,-0.306,2.239,21.3,39.1,-90.1,13.3,-13.2,-17.2,0.217108676,0.0166020692,0.234900967,-0.947294534
582,1459547,1509560,-1.036,-1.51,2.016,32.1,23,-75.3,12.9,-12.5,-17.3,0.215430158,0.0168462172,0.234382153,-0.947813349
583,1461729,1509560,-1.036,-1.51,2.016,32.1,23,-75.3,12.9,-12.5,-17.3,0.215430158,0.0168462172,0.234382153,-0.947813349
584,1464846,1509560,-0.834,-2.765,1.667,59.9,-7.5,-23.6,12.9,-12.5,-17.3,0.213873714,0.0169682913,0.232154302,-0.948698386
585,1467173,1509570,-0.657,-2.955,1.276,64.5,-14.3,-2.1,12.9,-12.5,-17.3,0.213873714,0.0169377728,0.23075045,-0.949034089
586,1469747,1509570,-0.495,-2.912,0.994,62.3,-17.7,8.8,13,-14.2,-14.8,0.214087344,0.0169072542,0.229377117,-0.949308756
587,1471808,1509570,-0.453,-2.712,0.887,53.8,-19.4,7,13,-14.2,-14.8,0.214331492,0.0167851802,0.228156377,-0.949552904
588,1474149,1509570,-0.453,-2.712,0.887,53.8,-19.4,7,13,-14.2,-14.8,0.214331492,0.0167851802,0.228156377,-0.949552904
589,1476764,1509580,-0.365,-2.086,0.754,22.9,-17.6,-20.6,13,-14.2,-14.8,0.21396527,0.0162053285,0.226691488,-0.950010681
590,1479124,1509580,-0.238,-1.353,0.78,10.6,-14.4,-33.7,13.4,-14,-16,0.213324381,0.0157475509,0.226416822,-0.950193793
591,1481785,1509580,-0.161,-0.97,0.843,7,-11.9,-42.3,13.4,-14,-16,0.212500381,0.0153508103,0.226233711,-0.950468459
592,1484266,1509580,-0.083,-0.606,0.914,10.1,-11.4,-46.9,13.4,-14,-16,0.211584826,0.0149235511,0.225989563,-0.950743126
593,1486583,1509590,-0.002,-0.014,1.039,14.6,-12.2,-49.5,13.4,-14,-16,0.210608234,0.014496292,0.225653859,-0.951048311
594,1489073,1509590,0.004,0.173,1.116,16.1,-13.4,-52.2,12.9,-14.2,-15.2,0.209601123,0.0140385144,0.225257118,-0.951353496
595,1491757,1509590,0.002,0.276,1.182,14.5,-14,-55.9,12.9,-14.2,-15.2,0.208502457,0.0135196997,0.224921415,-0.951689199
596,1496063,1509590,0.023,0.291,1.244,11.8,-13.9,-59.9,12.9,-14.2,-15.2,0.207312235,0.013000885,0.22461623,-0.952024903
597,1496729,1509600,0.06,0.113,1.287,10.5,-13.4,-62.7,12.9,-14.2,-15.2,0.206060976,0.0124515519,0.224372082,-0.952360607
598,1500787,1509600,0.089,-0.032,1.267,11,-12.9,-60.9,13.5,-14,-15.2,0.204870754,0.0119327372,0.224097415,-0.95269631
599,1502716,1509600,0.107,-0.182,1.228,11,-12.9,-60.9,13.5,-14,-15.2,0.203650014,0.0114139225,0.223822748,-0.953032014
600,1504391,1509600,0.12,-0.335,1.177,9.8,-13,-56.9,13.5,-14,-15.2,0.202551347,0.0109256264,0.2235786,-0.953337199
601,1506615,1509610,0.132,-0.524,1.068,6.5,-13.2,-52.3,13.5,-14,-15.2,0.201513718,0.0104068117,0.223395489,-0.953581347
602,1509139,1509610,0.131,-0.564,1.021,2.2,-13.2,-48.4,13.5,-14.1,-14.8,0.200567644,0.00991851558,0.223273415,-0.953825495
603,1511552,1509610,0.139,-0.564,0.994,-1.7,-13.2,-45.9,13.5,-14.1,-14.8,0.199682608,0.00939970092,0.223273415,-0.954008606
604,1514952,1509610,0.176,-0.467,0.981,-4.4,-13.7,-44.8,13.5,-14.1,-14.8,0.198828089,0.00888088626,0.223303934,-0.954191717
605,1517014,1509620,0.193,-0.388,0.988,-5.5,-14.8,-44.3,13.5,-14.1,-14.8,0.197973571,0.00833155309,0.223364971,-0.95434431
606,1519240,1509620,0.215,-0.306,1.003,-5.7,-15.9,-44.2,13.8,-13.9,-16.8,0.197119053,0.00775170141,0.223426008,-0.954527421
607,1522336,1509620,0.22,-0.232,1.01,-6,-16.7,-43.8,13.8,-13.9,-16.8,0.196295053,0.00717184973,0.223487045,-0.954680013
608,1524000,1509620,0.194,-0.129,1.03,-6.7,-17.1,-43.2,13.8,-13.9,-16.8,0.195471053,0.00659199805,0.2235786,-0.954832606
609,1526587,1509630,0.158,-0.12,1.023,-7.7,-17.1,-42.4,13.8,-13.9,-16.8,0.194677572,0.00598162786,0.223670156,-0.954985199
610,1530362,1509630,0.118,-0.115,1.013,-8.5,-16.7,-41.3,13.3,-14,-14.3,0.193884091,0.00540177618,0.223761711,-0.955107273
611,1532332,1509630,0.09,-0.119,0.998,-8.9,-16.4,-39.6,13.3,-14,-14.3,0.193151646,0.0048219245,0.223853267,-0.955259865
612,1534093,1509630,0.022,-0.176,0.961,-8.8,-16,-37.4,13.3,-14,-14.3,0.192449721,0.00427259133,0.22400586,-0.955351421
613,1537787,1509640,0.001,-0.223,0.953,-8.2,-15.8,-34.8,13.3,-14,-14.3,0.191808832,0.00372325816,0.224127934,-0.955473495
614,1540109,1509640,0.004,-0.266,0.938,-7,-15.9,-32.1,13.6,-13.5,-13.9,0.191198462,0.00320444349,0.224219489,-0.95556505
615,1541904,1509640,0.016,-0.31,0.922,-5.4,-16.3,-29.8,13.6,-13.5,-13.9,0.190649129,0.00271614734,0.224250008,-0.955656606
616,1545215,1509640,0.074,-0.386,0.89,-3.3,-16.9,-27.9,13.6,-13.5,-13.9,0.190160833,0.00219733268,0.224250008,-0.95577868
617,1546962,1509650,0.093,-0.418,0.877,-0.8,-17.8,-26.5,13.6,-13.5,-13.9,0.189672536,0.00170903653,0.224188971,-0.955870235
618,1549307,1509650,0.144,-0.442,0.86,5,-19.6,-25.2,13.8,-13.5,-14.2,0.189275796,0.00119022187,0.22400586,-0.956022828
619,1552124,1509650,0.168,-0.451,0.856,5,-19.6,-25.2,13.8,-13.5,-14.2,0.188848537,0.000671407208,0.223822748,-0.956144902
620,1554428,1509650,0.184,-0.447,0.805,7.9,-20.3,-25.2,13.8,-13.5,-14.2,0.188421278,0.000152592547,0.2235786,-0.956266976
621,1556825,1509660,0.199,-0.456,0.757,10.7,-20.6,-25.2,13.8,-13.5,-14.2,0.187994018,-0.000335703604,0.223273415,-0.956450087
622,1560161,1509660,0.215,-0.46,0.765,13.5,-20.8,-25.4,13.7,-13.2,-14.3,0.187566759,-0.000823999756,0.222876675,-0.95660268
623,1561712,1509660,0.263,-0.461,0.787,16.7,-21.2,-25.6,13.7,-13.2,-14.3,0.187108982,-0.00134281442,0.222479934,-0.956785791
624,1565596,1509660,0.286,-0.462,0.779,20.9,-21.7,-25.7,13.7,-13.2,-14.3,0.186681722,-0.00183111057,0.221900082,-0.95699942
625,1567802,1509670,0.306,-0.446,0.77,25.9,-22.3,-25.9,13.7,-13.2,-14.3,0.186254463,-0.00231940672,0.221289712,-0.95721305
626,1569224,1509670,0.326,-0.443,0.766,30.8,-22.7,-25.7,13.7,-13.8,-17.2,0.185827204,-0.00277718436,0.220557268,-0.957487716
627,1572456,1509670,0.359,-0.396,0.776,35.2,-23,-25.5,13.7,-13.8,-17.2,0.185399945,-0.003234962,0.219733268,-0.957762383
628,1574732,1509670,0.375,-0.354,0.795,39.3,-23.3,-25.1,13.7,-13.8,-17.2,0.185003204,-0.00369273965,0.218817713,-0.958006531
629,1577605,1509680,0.392,-0.307,0.81,43,-23.5,-24.9,13.7,-13.8,-17.2,0.184606464,-0.00411999878,0.217810602,-0.958342235
630,1579338,1509680,0.422,-0.182,0.841,46.4,-23.5,-24.9,14.1,-13.6,-15.9,0.184179205,-0.00454725791,0.216742454,-0.95864742
631,1581618,1509680,0.443,-0.115,0.859,49.1,-23.5,-25.2,14.1,-13.6,-15.9,0.183782464,-0.00497451704,0.215613269,-0.958983123
632,1585157,1509680,0.476,-0.053,0.882,50.9,-23.2,-25.6,14.1,-13.6,-15.9,0.183355205,-0.00537125767,0.214453566,-0.959318827
633,1586727,1509690,0.492,0.001,0.881,51.3,-22.7,-26.2,14.1,-13.6,-15.9,0.182927946,-0.00576799829,0.213293863,-0.959685049
634,1590683,1509690,0.537,0.07,0.852,50.2,-21.8,-26.7,13.9,-13.9,-16.6,0.182470168,-0.0061342204,0.212134159,-0.960020753
635,1592917,1509690,0.573,0.069,0.812,47.2,-20.7,-26.6,13.9,-13.9,-16.6,0.182012391,-0.00653096103,0.211066012,-0.960325938
636,1594407,1509690,0.636,0.044,0.787,43.1,-19.4,-25.9,13.9,-13.9,-16.6,0.181554613,-0.00686666463,0.210089419,-0.960631123
637,1596939,1509700,0.726,-0.016,0.82,38.4,-18,-24.8,13.9,-13.9,-16.6,0.181127354,-0.00720236824,0.209204382,-0.960905789
638,1599170,1509700,0.804,-0.131,0.826,31.3,-14.4,-21.9,14,-13.8,-16.5,0.180364391,-0.00961333048,0.206518754,-0.961607715
639,1602635,1509700,0.859,-0.152,0.844,31.3,-14.4,-21.9,14,-13.8,-16.5,0.17996765,-0.00988799707,0.205816828,-0.961821345
640,1604229,1509700,0.922,-0.193,0.855,30.3,-11.9,-20.8,14,-13.8,-16.5,0.179601428,-0.0101321451,0.205114902,-0.962034974
641,1607025,1509710,0.961,-0.245,0.881,29.9,-9,-20.2,14,-13.8,-16.5,0.179204688,-0.0102847377,0.204443495,-0.962248604
642,1609229,1509710,0.992,-0.336,0.916,28.4,-5.8,-19.3,13.8,-13.9,-16.5,0.178838466,-0.0103762932,0.203833125,-0.962462233
643,1611731,1509710,1.007,-0.387,0.923,25.2,-2.3,-16.7,13.8,-13.9,-16.5,0.178502762,-0.0104068117,0.203283792,-0.962645344
644,1615540,1509710,1.022,-0.451,0.935,20.8,1.2,-11.7,13.8,-13.9,-16.5,0.178258614,-0.0103457747,0.202856532,-0.962767418
645,1617660,1509720,1.029,-0.514,0.939,15.1,4.8,-4.7,13.8,-13.9,-16.5,0.17813654,-0.0102237007,0.202551347,-0.962858974
646,1619366,1509720,1.027,-0.616,0.927,8.5,8.4,3.3,13.9,-13.9,-14.9,0.178167058,-0.0099795526,0.202368236,-0.962889492
647,1622700,1509720,1.014,-0.667,0.924,1.6,12.4,11.6,13.9,-13.9,-14.9,0.178350169,-0.0096743675,0.202429273,-0.962858974
648,1624319,1509720,1.014,-0.71,0.912,-4.7,16.5,19.1,13.9,-13.9,-14.9,0.178685873,-0.00924710837,0.202581866,-0.962767418
649,1626800,1509730,0.981,-0.772,0.894,-10,20.6,25.4,13.9,-13.9,-14.9,0.179143651,-0.00875881222,0.202887051,-0.962614826
650,1629194,1509730,0.969,-0.788,0.886,-13.7,24.4,30.8,13.8,-13.9,-14.8,0.179662465,-0.00814844203,0.203283792,-0.962431715
651,1632633,1509730,0.957,-0.795,0.871,-16,27.8,35.5,13.8,-13.9,-14.8,0.180272835,-0.00747703482,0.203711051,-0.962248604
652,1634198,1509730,0.933,-0.802,0.856,-16.8,30.8,40,13.8,-13.9,-14.8,0.180974761,-0.00671407208,0.204199347,-0.962004456
653,1636930,1509740,0.881,-0.821,0.838,-16.4,33.2,44.5,13.8,-13.9,-14.8,0.181768242,-0.00589007233,0.204687643,-0.961760308
654,1640354,1509740,0.857,-0.82,0.831,-15,35.4,49.1,13.3,-13.9,-15.1,0.182653279,-0.00497451704,0.205145421,-0.96151616
655,1641677,1509740,0.841,-0.82,0.816,-13,37.5,54.2,13.3,-13.9,-15.1,0.183599353,-0.00399792474,0.20557268,-0.961241493
656,1645126,1509740,0.829,-0.816,0.804,-10.5,39.4,59.9,13.3,-13.9,-15.1,0.184698019,-0.00296029542,0.20596942,-0.960936308
657,1647326,1509750,0.813,-0.812,0.789,-7.6,40.7,65.9,13.3,-13.9,-15.1,0.185888241,-0.00183111057,0.206274606,-0.960661641
658,1649394,1509750,0.809,-0.808,0.785,-0.3,41.5,76.8,13.5,-14.2,-14.9,0.187322611,-0.00061037019,0.206488235,-0.960325938
659,1652630,1509750,0.785,-0.803,0.77,-0.3,41.5,76.8,13.5,-14.2,-14.9,0.188695944,0.00057985168,0.206640828,-0.960020753
660,1654250,1509750,0.746,-0.794,0.775,3.7,41.5,81.6,13.5,-14.2,-14.9,0.190252388,0.00183111057,0.206732383,-0.959685049
661,1657264,1509760,0.738,-0.79,0.771,8,41.6,85.8,13.5,-14.2,-14.9,0.191869869,0.00311288797,0.206732383,-0.959379864
662,1659359,1509760,0.73,-0.79,0.764,12.1,41.8,89.4,13.3,-14.1,-14.6,0.193548387,0.00445570238,0.206671346,-0.95904416
663,1661609,1509760,0.726,-0.774,0.76,16.2,41.8,92.6,13.3,-14.1,-14.6,0.195287942,0.0057985168,0.206488235,-0.958708457
664,1665184,1509760,0.718,-0.766,0.768,20.3,41.3,95.5,13.3,-14.1,-14.6,0.197088534,0.00720236824,0.206213569,-0.958403272
665,1666904,1509770,0.711,-0.75,0.772,24.1,40.7,98.3,13.3,-14.1,-14.6,0.198980682,0.00860621967,0.205877865,-0.958067568
666,1669090,1509770,0.715,-0.731,0.776,27.3,40.3,101.2,11,-14.6,-14.3,0.200903348,0.0100100711,0.205450606,-0.957762383
667,1673129,1509770,0.719,-0.707,0.783,29.9,40.4,104.2,11,-14.6,-14.3,0.202887051,0.0114444411,0.204992828,-0.957426679
668,1674962,1509770,0.724,-0.656,0.795,31.8,40.8,107.3,11,-14.6,-14.3,0.204931791,0.012939848,0.204474013,-0.957060457
669,1676720,1509780,0.733,-0.629,0.802,33.2,41.3,110.1,11,-14.6,-14.3,0.207037568,0.014435255,0.20392468,-0.956694235
670,1680183,1509780,0.729,-0.605,0.806,34.2,41.7,112.8,14.5,-14.3,-14.3,0.209204382,0.0159611805,0.203344829,-0.956328013
671,1681750,1509780,0.733,-0.578,0.818,34.7,42.2,115.2,14.5,-14.3,-14.3,0.211401715,0.0175176244,0.202795495,-0.955931272
672,1684501,1509780,0.73,-0.531,0.829,34.3,42.9,117.2,14.5,-14.3,-14.3,0.213660085,0.0190435499,0.202246162,-0.955534532
673,1687613,1509790,0.73,-0.515,0.829,33.1,43.5,118.9,14.5,-14.3,-14.3,0.215918455,0.0206305124,0.201696829,-0.955107273
674,1689726,1509790,0.727,-0.499,0.841,31.1,44.4,120.4,14,-14.9,-14.2,0.218207343,0.0222785119,0.201208533,-0.954649495
675,1692004,1509790,0.715,-0.483,0.841,28.3,45.5,121.8,14,-14.9,-14.2,0.220526749,0.0238959929,0.200750755,-0.954161199
676,1694205,1509790,0.711,-0.487,0.838,24.8,46.9,123.2,14,-14.9,-14.2,0.222876675,0.0255134739,0.200415052,-0.953642384
677,1698036,1509800,0.707,-0.483,0.834,20.4,48.3,124.5,14,-14.9,-14.2,0.225257118,0.0271919919,0.200140385,-0.953123569
678,1700300,1509800,0.691,-0.486,0.823,9.8,51.3,126.7,13.5,-14.8,-14,0.227668081,0.0288094729,0.200109867,-0.952482681
679,1701751,1509800,0.679,-0.49,0.815,9.8,51.3,126.7,13.5,-14.8,-14,0.230048524,0.0305185095,0.200079348,-0.951872311
680,1704884,1509800,0.667,-0.49,0.8,3.9,53.1,127.5,13.5,-14.8,-14,0.232459487,0.0321970275,0.200201422,-0.951200903
681,1706848,1509810,0.651,-0.493,0.785,-2.2,54.9,128,13.5,-14.8,-14,0.234900967,0.033906064,0.200415052,-0.950498978
682,1709153,1509810,0.631,-0.497,0.769,-8.5,56.8,128.3,13.4,-15.2,-13.6,0.23731193,0.035584582,0.200811792,-0.949766533
683,1712268,1509810,0.595,-0.496,0.77,-14.9,58.5,128.4,13.4,-15.2,-13.6,0.239722892,0.0372936186,0.201300089,-0.948973052
684,1714350,1509810,0.568,-0.503,0.775,-21.2,60.1,128.5,13.4,-15.2,-13.6,0.242133854,0.0389721366,0.201971496,-0.948179571
685,1717612,1509820,0.532,-0.499,0.776,-27.1,61.8,128.6,13.4,-15.2,-13.6,0.244544816,0.0406811731,0.202734458,-0.947294534
686,1719732,1509820,0.496,-0.502,0.773,-32.3,63.5,128.6,10.9,-15.9,-14,0.246955779,0.0423902097,0.203619495,-0.946409497
687,1722094,1509820,0.444,-0.524,0.775,-36.7,65.2,128.6,10.9,-15.9,-14,0.249366741,0.0441297647,0.204626606,-0.945493942
688,1724974,1509820,0.412,-0.531,0.768,-40.3,66.5,128.5,10.9,-15.9,-14,0.251747185,0.0458388012,0.205694754,-0.944547868
689,1726727,1509830,0.384,-0.546,0.768,-42.9,67.6,128.3,10.9,-15.9,-14,0.254127628,0.0475783563,0.206823939,-0.943571276
690,1729638,1509830,0.332,-0.584,0.75,-44.7,68.4,128,10.9,-16,-13.9,0.256508072,0.0493179113,0.207983642,-0.942594684
691,1732577,1509830,0.312,-0.6,0.739,-45.7,68.9,127.9,10.9,-16,-13.9,0.258857997,0.0510574664,0.209173864,-0.941587573
692,1734708,1509830,0.284,-0.611,0.721,-46.4,69.2,127.7,10.9,-16,-13.9,0.261238441,0.0527665029,0.210364086,-0.940580462
693,1736605,1509840,0.264,-0.618,0.705,-46.9,69.1,127.1,10.9,-16,-13.9,0.263557848,0.0545365764,0.211584826,-0.939542833
694,1740181,1509840,0.212,-0.625,0.68,-47.5,68.9,126.2,10.4,-16.1,-14.2,0.265907773,0.056245613,0.212805567,-0.938474685
695,1742595,1509840,0.188,-0.628,0.668,-47.9,68.9,124.8,10.4,-16.1,-14.2,0.268196661,0.057985168,0.214026307,-0.937467574
696,1744750,1509840,0.152,-0.628,0.662,-47.9,68.9,123.2,10.4,-16.1,-14.2,0.270455031,0.059663686,0.215247047,-0.936429945
697,1747352,1509850,0.128,-0.623,0.666,-47.1,68.8,121.4,10.4,-16.1,-14.2,0.272652364,0.0613727226,0.216467788,-0.935392315
698,1749517,1509850,0.085,-0.618,0.675,-43.3,68.5,117.7,9.3,-16.2,-14.3,0.274788659,0.0630817591,0.217596973,-0.934415723
699,1751798,1509850,0.077,-0.618,0.675,-43.3,68.5,117.7,9.3,-16.2,-14.3,0.276924955,0.0647602771,0.218726157,-0.933378094
700,1754159,1509850,0.065,-0.614,0.687,-40.7,68.3,115.9,9.3,-16.2,-14.3,0.279030732,0.0664693136,0.219824824,-0.932401502
701,1756590,1509860,0.049,-0.61,0.699,-38.3,67.9,114.2,9.3,-16.2,-14.3,0.281075472,0.0681783502,0.220831935,-0.931424909
702,1760952,1509860,0.034,-0.617,0.735,-36.2,67.6,112.5,8.3,-16.2,-14.4,0.283089694,0.0698568682,0.221808527,-0.930448317
703,1763190,1509860,0.01,-0.616,0.751,-34.6,67.4,110.7,8.3,-16.2,-14.4,0.285073397,0.0715353862,0.222785119,-0.929471725
704,1764083,1509860,-0.001,-0.62,0.767,-33.7,67.3,109.1,8.3,-16.2,-14.4,0.286996063,0.0732444227,0.223700674,-0.928525651
705,1767595,1509870,-0.017,-0.628,0.776,-33.3,67.6,107.4,8.3,-16.2,-14.4,0.288888211,0.0749229408,0.22461623,-0.927579577
706,1769222,1509870,-0.033,-0.627,0.776,-33.4,68.1,105.6,10.5,-16.9,-14.3,0.29074984,0.0766014588,0.225562304,-0.926633503
707,1772461,1509870,-0.045,-0.623,0.761,-34.2,68.5,103.5,10.5,-16.9,-14.3,0.29258095,0.0782799768,0.226508377,-0.925687429
708,1774168,1509870,-0.056,-0.615,0.761,-36.1,68.9,101.2,10.5,-16.9,-14.3,0.294351024,0.0799584948,0.227515488,-0.924741356
709,1776928,1509880,-0.1,-0.594,0.75,-39.1,69.2,98.7,10.5,-16.9,-14.3,0.29606006,0.0815759758,0.228583636,-0.923795282
710,1780673,1509880,-0.131,-0.582,0.755,-42.7,69.5,95.8,7.1,-15.8,-14.4,0.29770806,0.0831934568,0.229712821,-0.922849208
711,1782469,1509880,-0.155,-0.565,0.759,-46.3,70.1,92.9,7.1,-15.8,-14.4,0.299295022,0.0847499008,0.230933561,-0.921872616
712,1784285,1509880,-0.183,-0.557,0.756,-49.3,70.8,89.9,7.1,-15.8,-14.4,0.300851466,0.0863063448,0.232215339,-0.920896023
713,1787535,1509890,-0.242,-0.528,0.754,-51.7,71.6,87,7.1,-15.8,-14.4,0.302346873,0.0878627888,0.233558153,-0.919919431
714,1789786,1509890,-0.265,-0.512,0.731,-53.8,72.1,84.2,7.1,-15.8,-14.4,0.303750725,0.0893887143,0.234962004,-0.918942839
715,1791989,1509890,-0.297,-0.499,0.724,-56.1,72.3,81.7,7.1,-15.8,-14.4,0.305154576,0.0908841212,0.236396374,-0.917996765
716,1794256,1509890,-0.36,-0.463,0.698,-59,72.1,79.1,7.1,-15.8,-14.4,0.306466872,0.0923490097,0.2379223,-0.917020173
717,1797214,1509900,-0.395,-0.438,0.695,-62.3,72,76.7,7.1,-15.8,-14.4,0.30774865,0.0937528611,0.239478744,-0.916013062
718,1799566,1509900,-0.467,-0.417,0.697,-67.5,71.8,71.9,7.1,-15.8,-14.4,0.308816797,0.095126194,0.241920225,-0.914883877
719,1801754,1509900,-0.467,-0.417,0.697,-67.5,71.8,71.9,7.1,-15.8,-14.4,0.310037538,0.0964690085,0.243598743,-0.913876766
720,1804236,1509900,-0.534,-0.404,0.707,-68.2,71.7,69.4,7.1,-15.8,-14.4,0.311166723,0.0978118229,0.245277261,-0.912900174
721,1807444,1509910,-0.558,-0.403,0.719,-67.4,71.3,66.9,7.1,-15.8,-14.4,0.312265389,0.0991241188,0.246986297,-0.911923582
722,1809244,1509910,-0.589,-0.402,0.724,-65.6,70.8,64.6,7.1,-15.8,-14.4,0.313303018,0.100436415,0.248634297,-0.910977508
723,1811696,1509910,-0.613,-0.398,0.724,-63.3,70.1,62.5,7.1,-15.8,-14.4,0.314310129,0.101748711,0.250221259,-0.910061953
724,1814104,1509910,-0.657,-0.412,0.733,-61.2,69.2,60.6,7.1,-15.8,-14.4,0.315286721,0.103030488,0.251777703,-0.909146397
725,1817665,1509920,-0.677,-0.412,0.742,-59.3,68.4,59,7.1,-15.8,-14.4,0.316202277,0.104312265,0.253303629,-0.908261361
726,1819788,1509920,-0.697,-0.423,0.75,-57.4,67.5,57.4,9.3,-17.4,-15,0.317087313,0.105563524,0.254768517,-0.907376324
727,1822405,1509920,-0.713,-0.431,0.766,-55,66.6,55.7,9.3,-17.4,-15,0.317941832,0.106814783,0.256202887,-0.906552324
728,1824388,1509920,-0.725,-0.462,0.798,-52,65.7,54.1,9.3,-17.4,-15,0.318765831,0.108066042,0.257545701,-0.905728324
729,1827272,1509930,-0.729,-0.462,0.818,-48.8,64.6,52.3,9.3,-17.4,-15,0.319559313,0.109286782,0.258827479,-0.904934843
730,1829558,1509930,-0.733,-0.466,0.829,-46.1,63.6,50.6,9.3,-17.4,-15,0.320322275,0.110507523,0.260078738,-0.90417188
731,1831833,1509930,-0.748,-0.453,0.845,-44.1,62.6,48.8,9.3,-17.4,-15,0.321024201,0.111697745,0.26126896,-0.903408918
732,1834121,1509930,-0.752,-0.438,0.861,-43.1,62,47.2,9.3,-17.4,-15,0.321726127,0.112887967,0.262428663,-0.902676473
733,1836774,1509940,-0.759,-0.422,0.877,-42.6,61.8,45.5,9.3,-17.4,-15,0.322367016,0.114078188,0.263588366,-0.901974548
734,1840867,1509940,-0.771,-0.418,0.889,-42.1,62.1,43.9,9.3,-17.4,-15,0.322977386,0.11526841,0.26474807,-0.901242103
735,1841542,1509940,-0.779,-0.394,0.905,-41.2,62.5,42.2,9.3,-17.4,-15,0.323557237,0.116428114,0.265907773,-0.900570696
736,1844161,1509940,-0.786,-0.386,0.913,-39.8,63,40.5,9.3,-17.4,-15,0.324076052,0.117648854,0.267036958,-0.89986877
737,1846629,1509950,-0.79,-0.378,0.92,-38.1,63.4,38.7,9.3,-17.4,-15,0.324564348,0.118839076,0.268105106,-0.899227882
738,1850659,1509950,-0.79,-0.37,0.932,-34.9,64,35.7,9.6,-14.6,-15.2,0.324991607,0.120059816,0.269173254,-0.898586993
739,1852806,1509950,-0.798,-0.37,0.932,-34.9,64,35.7,9.6,-14.6,-15.2,0.325388348,0.121280557,0.270210883,-0.897976623
740,1855092,1509950,-0.798,-0.37,0.932,-34,64.4,34.4,9.6,-14.6,-15.2,0.325785089,0.122501297,0.271248512,-0.897366253
741,1857330,1509960,-0.81,-0.373,0.929,-33.8,65,33,9.6,-14.6,-15.2,0.326120792,0.123722037,0.272286142,-0.896755882
742,1859589,1509960,-0.814,-0.373,0.921,-34.4,66,30.9,9.6,-14.6,-15.2,0.326425977,0.124942778,0.273354289,-0.896145512
743,1861855,1509960,-0.822,-0.385,0.906,-35.8,67.3,28.1,9.6,-14.6,-15.2,0.326639607,0.126194037,0.274452956,-0.895504624
744,1864063,1509960,-0.822,-0.385,0.89,-37.8,68.7,24.6,9.6,-14.6,-15.2,0.326853236,0.127414777,0.275612659,-0.89495529
745,1866570,1509970,-0.83,-0.377,0.863,-40.5,70.2,20.6,9.6,-14.6,-15.2,0.326944792,0.128604999,0.276833399,-0.89434492
746,1870881,1509970,-0.846,-0.349,0.812,-43.9,71.5,15.9,9.5,-16.1,-15.6,0.326944792,0.129795221,0.278176214,-0.893765069
747,1873045,1509970,-0.866,-0.325,0.797,-47.9,72.6,10.7,9.5,-16.1,-15.6,0.326853236,0.130924406,0.279580065,-0.893215735
748,1875387,1509970,-0.885,-0.305,0.77,-52.5,73.5,5.3,9.5,-16.1,-15.6,0.326639607,0.132023072,0.281136509,-0.892635884
749,1877533,1509980,-0.905,-0.281,0.747,-57.7,74.5,0,9.5,-16.1,-15.6,0.32636494,0.133030183,0.282784509,-0.892056032
750,1879085,1509980,-0.948,-0.241,0.713,-62.9,75.8,-4.9,10,-16.7,-15.8,0.3259682,0.134067812,0.284554582,-0.89147618
751,1881619,1509980,-0.972,-0.225,0.687,-67.8,77.2,-9.4,10,-16.7,-15.8,0.325510422,0.134983367,0.28644673,-0.890896329
752,1885135,1509980,-0.984,-0.213,0.667,-71.9,78.2,-13.3,10,-16.7,-15.8,0.324991607,0.135929441,0.288460952,-0.890316477
753,1887311,1509990,-0.995,-0.197,0.664,-75.7,78.8,-16.8,10,-16.7,-15.8,0.324381237,0.136814478,0.29053621,-0.889706107
754,1889589,1509990,-1.019,-0.188,0.641,-79.5,79.2,-20,10.1,-17.5,-15.9,0.32370983,0.137668996,0.292703024,-0.889126255
755,1891860,1509990,-1.023,-0.188,0.629,-83.3,79.3,-23.2,10.1,-17.5,-15.9,0.323007904,0.138492996,0.294930876,-0.888515885
756,1894375,1509990,-1.035,-0.188,0.626,-87.1,79.5,-26.6,10.1,-17.5,-15.9,0.322244942,0.13922544,0.297280801,-0.887905515
757,1896806,1510000,-1.059,-0.195,0.615,-90.5,79.8,-30.1,10.1,-17.5,-15.9,0.321420942,0.139957884,0.299661245,-0.887264626
758,1900732,1510000,-1.067,-0.199,0.615,-96.3,80.5,-36.5,10.5,-17.4,-16.3,0.320474868,0.140598773,0.302224799,-0.886654256
759,1903060,1510000,-1.079,-0.203,0.619,-96.3,80.5,-36.5,10.5,-17.4,-16.3,0.319528794,0.141239662,0.304757836,-0.886013367
760,1905276,1510000,-1.099,-0.202,0.62,-98.6,80.6,-39.5,10.5,-17.4,-16.3,0.318521683,0.141819514,0.307351909,-0.885372478
761,1906798,1510010,-1.146,-0.197,0.629,-100.8,80.8,-42.4,10.5,-17.4,-16.3,0.317484054,0.142399365,0.309976501,-0.884762108
762,1909073,1510010,-1.166,-0.189,0.629,-102.5,81,-44.9,10.5,-17.4,-16.3,0.316385388,0.142979217,0.31266213,-0.88412122
763,1911566,1510010,-1.19,-0.188,0.645,-103.3,81.4,-47.3,10.5,-17.4,-16.3,0.315225684,0.143498032,0.315347758,-0.883480331
764,1915322,1510010,-1.214,-0.188,0.642,-102.9,81.6,-49.5,10.5,-17.4,-16.3,0.314035463,0.144016846,0.318063906,-0.882839442
765,1917531,1510020,-1.237,-0.199,0.67,-101.1,81.5,-51.5,10.5,-17.4,-16.3,0.312784204,0.144535661,0.320719016,-0.882229072
766,1919134,1510020,-1.249,-0.206,0.674,-98,81.1,-53.4,11.9,-14.5,-18.2,0.311502426,0.145054476,0.323343608,-0.88164922
767,1922118,1510020,-1.258,-0.222,0.679,-94.3,80.5,-55,11.9,-14.5,-18.2,0.31019013,0.14557329,0.325876644,-0.881099887
768,1924010,1510020,-1.262,-0.238,0.679,-90.4,79.5,-56.5,11.9,-14.5,-18.2,0.308816797,0.146092105,0.328318125,-0.880581072
769,1926856,1510030,-1.262,-0.281,0.695,-86.9,78,-57.7,11.9,-14.5,-18.2,0.307412946,0.146580401,0.330698569,-0.880092776
770,1929155,1510030,-1.263,-0.296,0.698,-84.1,76.3,-58.6,12.1,-13.5,-18.6,0.306009095,0.147068697,0.333017975,-0.879634999
771,1931962,1510030,-1.263,-0.316,0.706,-81.5,74.7,-59.2,12.1,-13.5,-18.6,0.304605243,0.147526475,0.335276345,-0.879207739
772,1934197,1510030,-1.26,-0.359,0.718,-78.8,73.5,-59.6,12.1,-13.5,-18.6,0.303170873,0.147984252,0.337473678,-0.87878048
773,1936812,1510040,-1.248,-0.375,0.726,-75.6,72.5,-59.8,12.1,-13.5,-18.6,0.301736503,0.14844203,0.339579455,-0.87838374
774,1939131,1510040,-1.248,-0.383,0.73,-72.1,71.4,-59.8,12.9,-11.9,-18.6,0.300271615,0.148869289,0.341624195,-0.878017518
775,1942717,1510040,-1.24,-0.383,0.722,-68.6,70.3,-59.6,12.9,-11.9,-18.6,0.298837245,0.149327067,0.343607898,-0.877651296
776,1944145,1510040,-1.244,-0.383,0.718,-65.6,68.9,-59,12.9,-11.9,-18.6,0.297402875,0.149784845,0.345500046,-0.877315592
777,1947767,1510050,-1.248,-0.368,0.714,-63.2,67.6,-58.2,12.9,-11.9,-18.6,0.295968505,0.150242622,0.347331156,-0.877010407
778,1949322,1510050,-1.252,-0.352,0.706,-59.6,65.7,-56.4,13.3,-10.8,-18.5,0.294595172,0.150669881,0.349070711,-0.876705222
779,1951549,1510050,-1.255,-0.332,0.694,-59.6,65.7,-56.4,13.3,-10.8,-18.5,0.293221839,0.151127659,0.350840785,-0.876400037
780,1954587,1510050,-1.251,-0.289,0.683,-58,64.7,-55.6,13.3,-10.8,-18.5,0.291848506,0.151554918,0.352549821,-0.876094852
781,1957647,1510060,-1.25,-0.269,0.682,-56,63.9,-54.8,13.3,-10.8,-18.5,0.290505692,0.152012696,0.354197821,-0.875789666
782,1959830,1510060,-1.246,-0.246,0.686,-53.9,62.9,-54,13.3,-10.8,-18.5,0.289162877,0.152439955,0.355815302,-0.875515
783,1962172,1510060,-1.242,-0.226,0.686,-51.6,61.8,-53.1,13.3,-10.8,-18.5,0.287820063,0.152897732,0.357341227,-0.875240333
784,1964406,1510060,-1.241,-0.187,0.659,-49.6,60.4,-52,13.3,-10.8,-18.5,0.286538285,0.153324992,0.358867153,-0.874965667
785,1966937,1510070,-1.237,-0.175,0.651,-48,58.8,-50.8,13.3,-10.8,-18.5,0.285256508,0.153752251,0.360301523,-0.874721519
786,1969323,1510070,-1.229,-0.156,0.635,-47.1,57.4,-49.6,14.6,-11.7,-17.4,0.284005249,0.154148991,0.361735893,-0.874446852
787,1973313,1510070,-1.213,-0.137,0.626,-46.6,56.2,-48.5,14.6,-11.7,-17.4,0.282815027,0.154515213,0.363139744,-0.874202704
788,1973963,1510070,-1.205,-0.133,0.618,-46.2,55,-47.4,14.6,-11.7,-17.4,0.281624805,0.154942473,0.364513077,-0.873928037
789,1977089,1510080,-1.193,-0.137,0.614,-45.7,53.7,-46.6,14.6,-11.7,-17.4,0.280465102,0.155308695,0.36588641,-0.873683889
790,1979327,1510080,-1.185,-0.133,0.618,-44.9,52.4,-45.6,14.8,-11.8,-17.2,0.279305399,0.155674917,0.367198706,-0.873409223
791,1981768,1510080,-1.162,-0.15,0.629,-43.8,51.2,-44.6,14.8,-11.8,-17.2,0.278206732,0.156041139,0.368511002,-0.873165075
792,1985356,1510080,-1.154,-0.158,0.617,-42.7,50,-43.6,14.8,-11.8,-17.2,0.277108066,0.156376843,0.369762261,-0.872920927
793,1986754,1510090,-1.146,-0.17,0.621,-42.1,49,-42.6,14.8,-11.8,-17.2,0.276039918,0.156712546,0.37101352,-0.87264626
794,1990537,1510090,-1.138,-0.178,0.624,-42,48,-41.4,15,-11.2,-17.2,0.275002289,0.15704825,0.37223426,-0.872402112
795,1992099,1510090,-1.123,-0.198,0.62,-42.6,47.1,-40.3,15,-11.2,-17.2,0.273995178,0.157353435,0.373485519,-0.872127445
796,1995130,1510090,-1.107,-0.194,0.624,-43.7,46.3,-39.2,15,-11.2,-17.2,0.273049104,0.15765862,0.374736778,-0.871852779
797,1996526,1510100,-1.099,-0.202,0.62,-45.2,45.7,-38.3,15,-11.2,-17.2,0.272072512,0.157933287,0.375988037,-0.871547594
798,1999274,1510100,-1.079,-0.203,0.623,-48.8,44.9,-36.7,15.2,-10.5,-17,0.271187475,0.158207953,0.377300333,-0.87121189
799,2002309,1510100,-1.071,-0.199,0.623,-48.8,44.9,-36.7,15.2,-10.5,-17,0.270302438,0.158421583,0.378612629,-0.870876186
800,2005038,1510100,-1.067,-0.195,0.619,-50.7,44.4,-35.8,15.2,-10.5,-17,0.269417402,0.158696249,0.379985961,-0.870509964
801,2006540,1510110,-1.063,-0.191,0.615,-52.8,43.8,-34.9,15.2,-10.5,-17,0.268562883,0.158940397,0.381328776,-0.870113224
802,2009303,1510110,-1.051,-0.176,0.618,-55.2,43.4,-33.9,15.2,-10.5,-17,0.267769402,0.159154027,0.382793664,-0.869716483
803,2012315,1510110,-1.043,-0.168,0.614,-57.6,43,-33,15.2,-10.5,-17,0.266975921,0.159367656,0.384228034,-0.869289224
804,2015065,1510110,-1.039,-0.156,0.618,-60,42.7,-32,15.2,-10.5,-17,0.266212958,0.159550768,0.38575396,-0.868800928
805,2016547,1510120,-1.031,-0.16,0.625,-62.1,42.3,-31,15.2,-10.5,-17,0.265480514,0.159733879,0.387279885,-0.868312632
806,2019310,1510120,-1.007,-0.169,0.637,-63.8,41.9,-30,16.2,-9.8,-15.9,0.264778588,0.15991699,0.388836329,-0.867793817
807,2022374,1510120,-0.995,-0.181,0.64,-65,41.4,-28.9,16.2,-9.8,-15.9,0.264107181,0.160069582,0.390392773,-0.867275002
808,2023960,1510120,-0.988,-0.197,0.648,-66,40.8,-27.7,16.2,-9.8,-15.9,0.263466292,0.160222175,0.391979736,-0.866725669
809,2026808,1510130,-0.98,-0.205,0.659,-66.7,40.2,-26.4,16.2,-9.8,-15.9,0.262855922,0.160374767,0.393566698,-0.866176336
810,2030598,1510130,-0.956,-0.241,0.671,-67.6,39.7,-25.1,16.4,-9.5,-15.7,0.26227607,0.16052736,0.395153661,-0.865596484
811,2032185,1510130,-0.953,-0.256,0.671,-68.5,39.2,-23.7,16.4,-9.5,-15.7,0.261726737,0.160679952,0.396771142,-0.864986114
812,2034329,1510130,-0.945,-0.276,0.674,-69.4,38.8,-22.4,16.4,-9.5,-15.7,0.261207923,0.160802026,0.398358104,-0.864375744
813,2037605,1510140,-0.937,-0.304,0.69,-70.1,38.2,-21.2,16.4,-9.5,-15.7,0.260719626,0.160954619,0.399975585,-0.863765374
814,2039085,1510140,-0.93,-0.316,0.69,-70.4,37.9,-19.9,16.8,-9.5,-15.8,0.26023133,0.161076693,0.401593066,-0.863124485
815,2041732,1510140,-0.938,-0.331,0.69,-70.4,37.7,-18.5,16.8,-9.5,-15.8,0.25983459,0.161229286,0.403210547,-0.862483596
816,2044938,1510140,-0.922,-0.344,0.693,-69.7,37.5,-17,16.8,-9.5,-15.8,0.259407331,0.16135136,0.404766991,-0.861842708
817,2046542,1510150,-0.918,-0.359,0.693,-68.2,37.1,-15.3,16.8,-9.5,-15.8,0.259041108,0.161564989,0.406323435,-0.8611713
818,2049194,1510150,-0.918,-0.363,0.697,-63.9,35.8,-11.8,17.2,-9,-16.1,0.258735923,0.161778619,0.407788324,-0.86056093
819,2051886,1510150,-0.91,-0.367,0.693,-63.9,35.8,-11.8,17.2,-9,-16.1,0.25840022,0.161992248,0.409222694,-0.859920042
820,2054970,1510150,-0.907,-0.368,0.689,-61.4,35,-10,17.2,-9,-16.1,0.258125553,0.162205878,0.410626545,-0.859309671
821,2057648,1510160,-0.906,-0.364,0.685,-58.9,34.2,-8.3,17.2,-9,-16.1,0.257881405,0.162450026,0.411938841,-0.858699301
822,2059236,1510160,-0.906,-0.36,0.689,-56.1,33.4,-6.6,17.2,-9,-16.1,0.257637257,0.162694174,0.4131901,-0.858119449
823,2062162,1510160,-0.902,-0.36,0.681,-52.8,32.6,-4.9,17.2,-9,-16.1,0.257454146,0.162968841,0.414380322,-0.857539598
824,2065210,1510160,-0.898,-0.348,0.677,-49,31.6,-3.2,17.2,-9,-16.1,0.257271035,0.163243507,0.415509507,-0.857020783
825,2066705,1510170,-0.894,-0.34,0.673,-44.7,30.3,-1.5,17.2,-9,-16.1,0.257118442,0.163548692,0.416486099,-0.856501968
826,2069729,1510170,-0.894,-0.332,0.673,-40.2,28.9,0.1,16.9,-8.6,-18,0.256996368,0.163884396,0.417432173,-0.856044191
827,2072737,1510170,-0.882,-0.329,0.665,-35.5,27.5,1.9,16.9,-8.6,-18,0.256935331,0.164189581,0.418225654,-0.855586413
828,2074236,1510170,-0.874,-0.321,0.669,-30.8,26,3.8,16.9,-8.6,-18,0.256874294,0.164555803,0.418958098,-0.855189673
829,2076738,1510180,-0.866,-0.313,0.668,-26.1,24.6,5.6,16.9,-8.6,-18,0.256843776,0.164922025,0.41953795,-0.854853969
830,2080204,1510180,-0.862,-0.314,0.676,-21.6,23,7.4,17,-8.7,-18.9,0.256843776,0.165257729,0.420056764,-0.854518265
831,2081787,1510180,-0.854,-0.31,0.684,-17.4,21.5,9.3,17,-8.7,-18.9,0.256874294,0.165684988,0.420453505,-0.854243599
832,2084338,1510180,-0.834,-0.318,0.691,-13.4,20,11.3,17,-8.7,-18.9,0.25696585,0.166081729,0.420789209,-0.853968932
833,2086908,1510190,-0.826,-0.318,0.703,-9.7,18.6,13.3,17,-8.7,-18.9,0.257087924,0.166508988,0.421033357,-0.853755303
834,2089276,1510190,-0.815,-0.326,0.706,-6.3,17.1,15,17.1,-8.4,-19.2,0.257209998,0.166936247,0.421185949,-0.853541673
835,2092064,1510190,-0.807,-0.33,0.714,-3.2,15.8,16.8,17.1,-8.4,-19.2,0.257393109,0.167363506,0.421277505,-0.853358562
836,2094441,1510190,-0.791,-0.339,0.721,-0.7,14.6,18.4,17.1,-8.4,-19.2,0.257606738,0.167790765,0.421308023,-0.853175451
837,2096832,1510200,-0.775,-0.343,0.725,1.3,13.5,20,17.1,-8.4,-19.2,0.257850887,0.168248543,0.421277505,-0.853053377
838,2099425,1510200,-0.755,-0.347,0.724,3.6,11.2,22.7,17,-8.2,-19.1,0.258156072,0.168675802,0.421185949,-0.852900784
839,2103177,1510200,-0.755,-0.347,0.724,3.6,11.2,22.7,17,-8.2,-19.1,0.258461257,0.169103061,0.421094394,-0.85277871
840,2105506,1510200,-0.747,-0.351,0.732,4.1,10.2,23.9,17,-8.2,-19.1,0.25879696,0.169560839,0.421002838,-0.852626118
841,2107737,1510210,-0.739,-0.356,0.735,4.6,9.3,25.3,17,-8.2,-19.1,0.259163182,0.169988098,0.420880764,-0.852504044
842,2109887,1510210,-0.728,-0.368,0.739,5.4,8.5,26.7,17,-8.2,-19.1,0.259590442,0.170415357,0.420728172,-0.852351451
843,2112217,1510210,-0.708,-0.38,0.739,6.5,7.7,28.2,17,-8.2,-19.1,0.260017701,0.170873135,0.420545061,-0.852229377
844,2114249,1510210,-0.7,-0.392,0.738,7.7,6.8,29.7,17,-8.2,-19.1,0.260475478,0.171300394,0.420331431,-0.852107303
845,2117327,1510220,-0.693,-0.408,0.738,8.7,5.8,31.3,17,-8.2,-19.1,0.260963775,0.171758171,0.420087283,-0.851985229
846,2119585,1510220,-0.689,-0.42,0.742,9.6,5,32.8,17.1,-8.7,-17.7,0.261482589,0.172215949,0.419812616,-0.851863155
847,2123405,1510220,-0.669,-0.44,0.749,10.2,4.3,34.1,17.1,-8.7,-17.7,0.262062441,0.172643208,0.419507431,-0.851741081
848,2125669,1510220,-0.661,-0.456,0.753,10.9,3.7,35.3,17.1,-8.7,-17.7,0.262642293,0.173070467,0.419202246,-0.851649525
849,2127913,1510230,-0.654,-0.471,0.757,11.7,3.1,36.3,17.1,-8.7,-17.7,0.263222144,0.173558763,0.418866543,-0.851527451
850,2130065,1510230,-0.654,-0.483,0.749,12.6,2.4,37.1,16.9,-9,-17.9,0.263863033,0.174016541,0.41850032,-0.851405377
851,2132281,1510230,-0.638,-0.499,0.757,13.5,1.8,38,16.9,-9,-17.9,0.264503922,0.174474319,0.41810358,-0.851313822
852,2134512,1510230,-0.63,-0.503,0.764,14.4,1.2,38.8,16.9,-9,-17.9,0.26514481,0.174932096,0.417706839,-0.851222266
853,2136799,1510240,-0.619,-0.519,0.768,15.3,0.7,39.5,16.9,-9,-17.9,0.265816218,0.175420392,0.41727958,-0.851130711
854,2139283,1510240,-0.611,-0.531,0.768,16.2,0.4,40.1,16.8,-9.4,-17.9,0.266487625,0.17587817,0.416821802,-0.851039155
855,2141590,1510240,-0.607,-0.539,0.764,17.1,0.1,40.5,16.8,-9.4,-17.9,0.26718955,0.176335948,0.416333506,-0.8509476
856,2145159,1510240,-0.603,-0.547,0.764,17.9,0,41,16.8,-9.4,-17.9,0.267860958,0.176824244,0.41584521,-0.850886563
857,2147438,1510250,-0.603,-0.547,0.768,18.7,0,41.3,16.8,-9.4,-17.9,0.268562883,0.17731254,0.415356914,-0.850795007
858,2149621,1510250,-0.595,-0.559,0.756,20.5,0,42.2,16.5,-9.6,-17.4,0.269264809,0.177831355,0.414807581,-0.85073397
859,2151880,1510250,-0.603,-0.559,0.764,20.5,0,42.2,16.5,-9.6,-17.4,0.269966735,0.178319651,0.414258248,-0.850672933
860,2154161,1510250,-0.6,-0.571,0.764,21.7,0.1,42.5,16.5,-9.6,-17.4,0.270668661,0.178838466,0.413678396,-0.850611896
861,2156896,1510260,-0.596,-0.575,0.764,23.1,0.2,42.8,16.5,-9.6,-17.4,0.271370586,0.17935728,0.413098544,-0.850581378
862,2159165,1510260,-0.588,-0.591,0.759,24.7,0.1,43.1,16.5,-9.6,-17.4,0.272072512,0.179906613,0.412457656,-0.850550859
863,2162658,1510260,-0.588,-0.595,0.756,26.3,0,43.4,16.5,-9.6,-17.4,0.272774438,0.180455947,0.411816767,-0.850520341
864,2164159,1510260,-0.584,-0.599,0.759,28,-0.1,43.5,16.5,-9.6,-17.4,0.273476363,0.18100528,0.411114841,-0.850520341
865,2167073,1510270,-0.584,-0.603,0.755,30,-0.3,43.6,16.5,-9.6,-17.4,0.274178289,0.181585131,0.410382397,-0.850520341
866,2170186,1510270,-0.576,-0.599,0.755,32.2,-0.3,43.6,18.4,-9.8,-17.9,0.274880215,0.182134465,0.409588916,-0.850550859
867,2173006,1510270,-0.576,-0.599,0.747,34.4,-0.4,43.8,18.4,-9.8,-17.9,0.275551622,0.182744835,0.408795434,-0.850611896
868,2175287,1510270,-0.576,-0.591,0.74,36.3,-0.3,43.9,18.4,-9.8,-17.9,0.276223029,0.183355205,0.407940916,-0.850672933
869,2177562,1510280,-0.568,-0.587,0.732,38.1,-0.1,43.8,18.4,-9.8,-17.9,0.276894436,0.183965575,0.407055879,-0.85073397
870,2179804,1510280,-0.568,-0.576,0.72,39.8,0,43.5,18.5,-10,-17.6,0.277535325,0.184575945,0.406140324,-0.850825526
871,2182517,1510280,-0.564,-0.564,0.72,41.2,0,43.2,18.5,-10,-17.6,0.278176214,0.185216834,0.40519425,-0.850917081
872,2184083,1510280,-0.56,-0.556,0.712,42.6,-0.1,43,18.5,-10,-17.6,0.278786584,0.185857723,0.404217658,-0.851039155
873,2186772,1510290,-0.556,-0.533,0.7,43.6,-0.1,42.8,18.5,-10,-17.6,0.279427473,0.186498611,0.403241066,-0.851161229
874,2189754,1510290,-0.548,-0.521,0.692,44.3,-0.2,42.5,18.1,-9.9,-17.5,0.280037843,0.1871395,0.402233955,-0.851313822
875,2192779,1510290,-0.551,-0.513,0.688,44.7,-0.2,42.4,18.1,-9.9,-17.5,0.280648213,0.187780389,0.401226844,-0.851435896
876,2194260,1510290,-0.543,-0.502,0.672,44.8,-0.2,42.2,18.1,-9.9,-17.5,0.281228065,0.188421278,0.400219733,-0.85155797
877,2196573,1510300,-0.543,-0.478,0.672,44.4,-0.1,41.9,18.1,-9.9,-17.5,0.281838435,0.189062166,0.399212622,-0.851710562
878,2200396,1510300,-0.539,-0.447,0.66,42.3,0,40.8,17.9,-10.4,-17.3,0.282570879,0.189672536,0.39783929,-0.851954711
879,2201732,1510300,-0.539,-0.447,0.66,42.3,0,40.8,17.9,-10.4,-17.3,0.283150731,0.190313425,0.396893216,-0.852076785
880,2204906,1510300,-0.535,-0.439,0.656,40.6,0.3,40.2,17.9,-10.4,-17.3,0.283730583,0.190923795,0.39597766,-0.85216834
881,2207764,1510310,-0.526,-0.42,0.648,38.6,0.5,39.6,17.9,-10.4,-17.3,0.284310434,0.191503647,0.395092624,-0.852259896
882,2209392,1510310,-0.526,-0.42,0.652,36.3,0.8,39,17.9,-10.4,-17.3,0.284859767,0.192083499,0.394268624,-0.852320933
883,2212362,1510310,-0.522,-0.408,0.652,33.7,1.1,38.2,17.9,-10.4,-17.3,0.285439619,0.19266335,0.393475143,-0.85238197
884,2215345,1510310,-0.507,-0.412,0.643,31,1.6,37.5,17.9,-10.4,-17.3,0.285988952,0.193212683,0.392742698,-0.85238197
885,2216820,1510320,-0.507,-0.42,0.643,28.3,1.9,36.9,17.9,-10.4,-17.3,0.286538285,0.193731498,0.392071291,-0.852412488
886,2219970,1510320,-0.503,-0.424,0.639,25.3,2.2,36.1,15.4,-10.8,-16.7,0.287087619,0.194250313,0.391460921,-0.85238197
887,2222940,1510320,-0.499,-0.432,0.632,22.2,2.5,35.2,15.4,-10.8,-16.7,0.287575915,0.194738609,0.390911588,-0.852351451
888,2224344,1510320,-0.499,-0.44,0.624,18.8,3,34,15.4,-10.8,-16.7,0.288155766,0.195196387,0.39045381,-0.852259896
889,2227323,1510330,-0.499,-0.444,0.62,15.7,3.3,32.9,15.4,-10.8,-16.7,0.288674581,0.195623646,0.390026551,-0.852198859
890,2230351,1510330,-0.495,-0.452,0.624,12.7,3.6,31.7,14.7,-11.2,-16.6,0.289162877,0.196050905,0.389690847,-0.852076785
891,2231828,1510330,-0.499,-0.46,0.616,10,3.9,30.5,14.7,-11.2,-16.6,0.289651173,0.196447645,0.389385662,-0.851954711
892,2234902,1510330,-0.496,-0.475,0.612,7.7,4.3,29.1,14.7,-11.2,-16.6,0.29013947,0.196813868,0.389141514,-0.851832636
893,2237876,1510340,-0.5,-0.491,0.608,5.8,4.6,27.8,14.7,-11.2,-16.6,0.290597247,0.19718009,0.388958403,-0.851680044
894,2239423,1510340,-0.492,-0.499,0.612,4.3,4.8,26.6,13.5,-11.1,-16.8,0.291024506,0.197485275,0.388775292,-0.851527451
895,2242451,1510340,-0.492,-0.519,0.608,3.3,5,25.3,13.5,-11.1,-16.8,0.291451765,0.197851497,0.388653218,-0.851374859
896,2245295,1510340,-0.489,-0.527,0.608,2.6,5.2,24.1,13.5,-11.1,-16.8,0.291817988,0.198187201,0.388531144,-0.851222266
897,2246874,1510350,-0.493,-0.534,0.6,2.3,5.4,22.8,13.5,-11.1,-16.8,0.29218421,0.198461867,0.38840907,-0.851069674
898,2249882,1510350,-0.489,-0.554,0.604,2.3,5.8,20.1,12.6,-11.1,-16.8,0.292489395,0.198583941,0.388225959,-0.851008637
899,2251568,1510350,-0.485,-0.562,0.6,2.3,5.8,20.1,12.6,-11.1,-16.8,0.29279458,0.198889126,0.388134404,-0.850886563
900,2255166,1510350,-0.489,-0.57,0.6,2.7,6,18.8,12.6,-11.1,-16.8,0.293069246,0.199194311,0.388042848,-0.850764489
901,2256717,1510360,-0.489,-0.574,0.597,3.3,6,17.4,12.6,-11.1,-16.8,0.293343913,0.199438459,0.387951292,-0.850642415
902,2259767,1510360,-0.493,-0.578,0.593,4.2,6.1,15.9,17.1,-12,-16.8,0.293557543,0.199743645,0.387829218,-0.850550859
903,2262715,1510360,-0.493,-0.578,0.589,5.2,6,14.5,17.1,-12,-16.8,0.293771172,0.200018311,0.387707144,-0.850489822
904,2264244,1510360,-0.498,-0.581,0.585,6.5,6,13.1,17.1,-12,-16.8,0.293923765,0.200262459,0.38758507,-0.850428785
905,2267249,1510370,-0.49,-0.578,0.585,7.9,6.1,11.8,17.1,-12,-16.8,0.294045839,0.200537126,0.387432478,-0.850398267
906,2270160,1510370,-0.494,-0.582,0.593,9.3,6.1,10.7,13.8,-10.6,-16.9,0.294167913,0.200811792,0.387249367,-0.850367748
907,2273176,1510370,-0.49,-0.582,0.585,10.8,6.2,9.6,13.8,-10.6,-16.9,0.294259468,0.201086459,0.387035737,-0.850367748
908,2274730,1510370,-0.49,-0.582,0.593,12.1,6.4,8.6,13.8,-10.6,-16.9,0.294289987,0.201330607,0.386822108,-0.850398267
909,2277791,1510380,-0.497,-0.577,0.589,13.2,6.4,7.5,13.8,-10.6,-16.9,0.294320505,0.201605274,0.38657796,-0.850428785
910,2279252,1510380,-0.493,-0.566,0.577,14,6.4,6.5,14.2,-10.9,-16.6,0.294320505,0.20187994,0.386333811,-0.850489822
911,2282251,1510380,-0.497,-0.558,0.573,14.5,6.3,5.4,14.2,-10.9,-16.6,0.294320505,0.202124088,0.386059145,-0.850550859
912,2285229,1510380,-0.497,-0.55,0.573,14.8,6.3,4.3,14.2,-10.9,-16.6,0.294289987,0.202368236,0.385814997,-0.850611896
913,2286778,1510390,-0.501,-0.546,0.573,14.9,6.2,3.3,14.2,-10.9,-16.6,0.29422895,0.202612384,0.385570849,-0.850672933
914,2289599,1510390,-0.505,-0.526,0.566,14.7,6.1,2.4,15.4,-10.7,-16.7,0.294137394,0.202856532,0.385326701,-0.850764489
915,2292709,1510390,-0.509,-0.518,0.562,14.4,6.1,1.6,15.4,-10.7,-16.7,0.294076357,0.203070162,0.385082553,-0.850856044
916,2294134,1510390,-0.504,-0.507,0.562,13.8,6.1,0.9,15.4,-10.7,-16.7,0.293954283,0.203283792,0.384868923,-0.850917081
917,2297216,1510400,-0.504,-0.503,0.554,13.1,6.1,0.2,15.4,-10.7,-16.7,0.293862728,0.203497421,0.384655293,-0.851008637
918,2300363,1510400,-0.504,-0.495,0.554,11,5.8,-0.6,16.3,-10.8,-16.7,0.293649098,0.203497421,0.384624775,-0.851100192
919,2301654,1510400,-0.5,-0.479,0.55,11,5.8,-0.6,16.3,-10.8,-16.7,0.293557543,0.203680532,0.384472182,-0.851161229
920,2304416,1510400,-0.504,-0.487,0.546,9.5,5.6,-0.9,16.3,-10.8,-16.7,0.293435469,0.203833125,0.38431959,-0.851222266
921,2307619,1510410,-0.504,-0.475,0.55,7.8,5.5,-1.4,16.3,-10.8,-16.7,0.293343913,0.203985717,0.384228034,-0.851283303
922,2309754,1510410,-0.512,-0.479,0.554,6,5.5,-1.8,15.9,-12.6,-16.7,0.293221839,0.204107791,0.384136479,-0.851313822
923,2312025,1510410,-0.512,-0.479,0.546,4,5.7,-2.3,15.9,-12.6,-16.7,0.293099765,0.204229865,0.384136479,-0.85134434
924,2314360,1510410,-0.516,-0.479,0.55,1.9,5.7,-2.6,15.9,-12.6,-16.7,0.293008209,0.204321421,0.384136479,-0.85134434
925,2316588,1510420,-0.52,-0.479,0.554,-0.3,5.9,-2.8,15.9,-12.6,-16.7,0.292916654,0.204382458,0.384197516,-0.85134434
926,2319545,1510420,-0.524,-0.479,0.55,-2.6,5.9,-2.9,16.1,-9.9,-16.5,0.292825098,0.204474013,0.384289071,-0.851313822
927,2322461,1510420,-0.528,-0.479,0.558,-5,6,-2.9,16.1,-9.9,-16.5,0.292733543,0.204535051,0.384441664,-0.851252785
928,2324178,1510420,-0.528,-0.483,0.554,-7.3,6,-3.1,16.1,-9.9,-16.5,0.292641987,0.204565569,0.384624775,-0.851191748
929,2328002,1510430,-0.54,-0.482,0.559,-9.6,6,-3.2,16.1,-9.9,-16.5,0.29258095,0.204596088,0.384868923,-0.851100192
930,2330048,1510430,-0.536,-0.478,0.558,-11.7,6,-3.4,16.2,-10.1,-16.7,0.292519913,0.204596088,0.38514359,-0.851008637
931,2331799,1510430,-0.54,-0.478,0.563,-13.8,5.9,-3.6,16.2,-10.1,-16.7,0.292458876,0.204596088,0.385448775,-0.850886563
932,2335318,1510430,-0.544,-0.482,0.551,-15.9,5.6,-3.7,16.2,-10.1,-16.7,0.292428358,0.204565569,0.385784478,-0.85073397
933,2336900,1510440,-0.552,-0.486,0.563,-18.1,5.5,-3.7,16.2,-10.1,-16.7,0.292397839,0.204504532,0.386181219,-0.850581378
934,2339082,1510440,-0.552,-0.482,0.559,-20.2,5.5,-3.7,16,-9.9,-16.7,0.292367321,0.204443495,0.386608478,-0.850428785
935,2341688,1510440,-0.556,-0.482,0.555,-22.1,5.4,-3.9,16,-9.9,-16.7,0.292336802,0.204382458,0.387066256,-0.850215155
936,2345147,1510440,-0.564,-0.482,0.551,-23.6,5.3,-3.9,16,-9.9,-16.7,0.292336802,0.204290902,0.387554552,-0.850032044
937,2347308,1510450,-0.568,-0.486,0.548,-24.9,5.1,-3.9,16,-9.9,-16.7,0.292336802,0.204199347,0.388073366,-0.849818415
938,2349492,1510450,-0.568,-0.486,0.548,-24.9,5.1,-3.9,16,-9.9,-16.7,0.292336802,0.204199347,0.388073366,-0.849818415
939,2351788,1510450,-0.584,-0.489,0.56,-26.8,4.2,-3.9,16,-10,-16.8,0.292458876,0.204290902,0.389141514,-0.849269082
940,2354154,1510450,-0.587,-0.481,0.556,-27.4,3.8,-3.9,16,-10,-16.8,0.292489395,0.20413831,0.389690847,-0.849024934
941,2356643,1510460,-0.595,-0.485,0.56,-27.8,3.5,-3.9,16,-10,-16.8,0.292489395,0.204016236,0.390270699,-0.848811304
942,2360799,1510460,-0.595,-0.485,0.552,-28,3.2,-4,15.9,-10.4,-16.9,0.292519913,0.203863643,0.390820032,-0.848567156
943,2362971,1510460,-0.603,-0.489,0.556,-28,2.8,-4,15.9,-10.4,-16.9,0.292550432,0.203680532,0.391369366,-0.848353526
944,2365464,1510460,-0.607,-0.492,0.557,-27.9,2.3,-4,15.9,-10.4,-16.9,0.29258095,0.20352794,0.391918699,-0.848139897
945,2367268,1510470,-0.603,-0.489,0.564,-27.7,1.6,-4.1,15.9,-10.4,-16.9,0.292611469,0.203344829,0.392468032,-0.847895749
946,2369248,1510470,-0.607,-0.492,0.564,-27.5,1,-4.2,15.8,-12.3,-16.8,0.292641987,0.203131199,0.392986847,-0.847682119
947,2373084,1510470,-0.615,-0.496,0.568,-27.2,0.3,-4.3,15.8,-12.3,-16.8,0.292672506,0.202948088,0.39353618,-0.847499008
948,2374972,1510470,-0.619,-0.496,0.576,-26.6,-0.1,-4.3,15.8,-12.3,-16.8,0.292703024,0.202734458,0.394024476,-0.847285379
949,2377107,1510480,-0.619,-0.5,0.576,-26,-0.6,-4.5,15.8,-12.3,-16.8,0.292764061,0.202520829,0.394543291,-0.847102268
950,2379394,1510480,-0.619,-0.5,0.58,-25.4,-1.1,-4.6,15.6,-13.1,-17.1,0.29279458,0.202276681,0.395001068,-0.846919156
951,2381710,1510480,-0.623,-0.5,0.592,-24.7,-1.8,-4.8,15.6,-13.1,-17.1,0.292825098,0.202063051,0.395489364,-0.846736045
952,2384258,1510480,-0.623,-0.504,0.592,-23.9,-2.4,-4.9,15.6,-13.1,-17.1,0.292855617,0.201818903,0.395947142,-0.846583453
953,2388463,1510490,-0.627,-0.504,0.588,-23,-3.2,-5,15.6,-13.1,-17.1,0.292886135,0.201574755,0.396343883,-0.84643086
954,2390847,1510490,-0.631,-0.504,0.592,-21.9,-3.9,-5,15.8,-13.1,-17.3,0.292947172,0.201300089,0.396771142,-0.846278268
955,2392933,1510490,-0.639,-0.507,0.6,-20.9,-4.5,-4.9,15.8,-13.1,-17.3,0.292977691,0.20105594,0.397137364,-0.846156194
956,2395212,1510490,-0.635,-0.508,0.6,-19.9,-5.1,-4.8,15.8,-13.1,-17.3,0.293008209,0.200781274,0.397503586,-0.84603412
957,2397500,1510500,-0.639,-0.511,0.604,-18.7,-5.7,-5,15.8,-13.1,-17.3,0.293069246,0.200506607,0.39783929,-0.845912046
958,2399719,1510500,-0.643,-0.515,0.612,-15.8,-7,-5.2,15.8,-13.1,-17.3,0.293252358,0.200537126,0.397961364,-0.845789972
959,2402042,1510500,-0.643,-0.519,0.616,-15.8,-7,-5.2,15.8,-13.1,-17.3,0.293282876,0.200262459,0.39823603,-0.845698416
960,2404164,1510500,-0.643,-0.519,0.616,-14.3,-7.6,-5.1,15.8,-13.1,-17.3,0.293313395,0.199987793,0.398480178,-0.845637379
961,2406849,1510510,-0.647,-0.519,0.616,-12.8,-8.3,-4.8,15.8,-13.1,-17.3,0.293343913,0.199713126,0.398693808,-0.845606861
962,2410959,1510510,-0.643,-0.515,0.624,-11.6,-8.8,-4.6,16,-9,-15.6,0.29340495,0.199438459,0.398876919,-0.845576342
963,2413214,1510510,-0.647,-0.515,0.624,-10.5,-9.4,-4.6,16,-9,-15.6,0.293435469,0.199163793,0.399029511,-0.845545824
964,2415505,1510510,-0.639,-0.519,0.632,-9.7,-10,-4.8,16,-9,-15.6,0.293435469,0.198858608,0.399151585,-0.845545824
965,2417725,1510520,-0.639,-0.515,0.639,-8.8,-10.7,-4.9,16,-9,-15.6,0.293527024,0.198553423,0.399273659,-0.845545824
966,2419902,1510520,-0.635,-0.523,0.651,-7.8,-11.3,-4.8,16.3,-11.1,-19.2,0.293557543,0.198278756,0.399365215,-0.845545824
967,2422283,1510520,-0.635,-0.527,0.647,-6.5,-11.8,-4.5,16.3,-11.1,-19.2,0.29361858,0.197973571,0.399426252,-0.845576342
968,2424766,1510520,-0.631,-0.523,0.651,-5.2,-12.4,-3.9,16.3,-11.1,-19.2,0.293679617,0.197668386,0.399456771,-0.845606861
969,2426888,1510530,-0.627,-0.531,0.651,-4.2,-12.8,-3.1,16.3,-11.1,-19.2,0.293740654,0.197363201,0.399487289,-0.845667898
970,2429261,1510530,-0.631,-0.527,0.651,-3.6,-13.2,-2.5,16.6,-10.4,-19.3,0.293832209,0.197088534,0.399456771,-0.845698416
971,2432574,1510530,-0.635,-0.531,0.651,-3.5,-13.6,-2,16.6,-10.4,-19.3,0.293923765,0.196783349,0.399456771,-0.845728935
972,2434258,1510530,-0.635,-0.527,0.659,-3.5,-13.9,-1.5,16.6,-10.4,-19.3,0.29401532,0.196508683,0.399426252,-0.845759453
973,2437879,1510540,-0.635,-0.519,0.655,-3.5,-14.2,-1.2,16.6,-10.4,-19.3,0.294137394,0.196203497,0.399426252,-0.84582049
974,2439303,1510540,-0.639,-0.511,0.663,-3.6,-14.3,-0.9,16.1,-9.4,-19.2,0.294259468,0.195898312,0.399395734,-0.845851009
975,2442312,1510540,-0.631,-0.519,0.667,-3.8,-14.5,-0.6,16.1,-9.4,-19.2,0.294412061,0.195593127,0.399365215,-0.845881527
976,2445316,1510540,-0.631,-0.511,0.667,-3.9,-14.6,-0.1,16.1,-9.4,-19.2,0.294534135,0.195318461,0.399365215,-0.845912046
977,2446897,1510550,-0.631,-0.511,0.674,-4.2,-14.7,0.3,16.1,-9.4,-19.2,0.294686728,0.195013276,0.399334696,-0.845942564
978,2449268,1510550,-0.631,-0.511,0.674,-4.2,-14.7,0.3,16.1,-9.4,-19.2,0.294686728,0.195013276,0.399334696,-0.845942564
979,2451778,1510550,-0.627,-0.515,0.686,-5,-14.8,1.6,16.1,-8.8,-19.2,0.295388653,0.194830164,0.398785363,-0.846003601
980,2455264,1510550,-0.623,-0.519,0.694,-5.4,-14.8,2.3,16.1,-8.8,-19.2,0.295571764,0.194524979,0.398785363,-0.846003601
981,2457095,1510560,-0.615,-0.527,0.697,-5.9,-14.8,3.1,16.1,-8.8,-19.2,0.295785394,0.194250313,0.398785363,-0.846003601
982,2459469,1510560,-0.611,-0.531,0.701,-6.6,-14.9,3.8,15.5,-10.5,-17.2,0.295999023,0.193945128,0.398785363,-0.845973083
983,2461652,1510560,-0.611,-0.539,0.701,-7.4,-14.8,4.6,15.5,-10.5,-17.2,0.29627369,0.193670461,0.398815882,-0.845942564
984,2465278,1510560,-0.615,-0.547,0.705,-8.3,-14.5,5.1,15.5,-10.5,-17.2,0.296517838,0.193395795,0.3988464,-0.845881527
985,2467278,1510570,-0.619,-0.547,0.705,-9.2,-14.2,5.8,15.5,-10.5,-17.2,0.296792505,0.193121128,0.398907437,-0.845851009
986,2469523,1510570,-0.615,-0.551,0.713,-10,-14,6.5,15.8,-10.3,-17.8,0.297067171,0.192846461,0.398968474,-0.845759453
987,2472187,1510570,-0.616,-0.555,0.709,-10.7,-13.9,7.2,15.8,-10.3,-17.8,0.297341838,0.192602313,0.39906003,-0.845698416
988,2474185,1510570,-0.616,-0.555,0.705,-11.1,-13.9,7.9,15.8,-10.3,-17.8,0.297677541,0.192327647,0.399121067,-0.845606861
989,2476897,1510580,-0.62,-0.559,0.713,-11.5,-13.8,8.8,15.8,-10.3,-17.8,0.298013245,0.192083499,0.399212622,-0.845484787
990,2480126,1510580,-0.624,-0.559,0.706,-11.7,-13.7,9.6,15.5,-10.5,-17.4,0.298379467,0.191839351,0.399304178,-0.845393231
991,2482667,1510580,-0.62,-0.563,0.706,-11.9,-13.6,10.3,15.5,-10.5,-17.4,0.298715171,0.191595202,0.399395734,-0.845271157
992,2484721,1510580,-0.616,-0.571,0.705,-11.9,-13.5,11.1,15.5,-10.5,-17.4,0.299111911,0.191351054,0.399487289,-0.845149083
993,2486821,1510590,-0.612,-0.567,0.709,-12,-13.3,11.7,15.5,-10.5,-17.4,0.299478133,0.191137425,0.399578845,-0.845027009
994,2489312,1510590,-0.616,-0.567,0.705,-11.9,-13.1,12.4,15.4,-10.4,-17,0.299874874,0.190923795,0.399639882,-0.844904935
995,2491735,1510590,-0.616,-0.579,0.709,-11.6,-12.8,13,15.4,-10.4,-17,0.300271615,0.190740684,0.399731437,-0.844721824
996,2495298,1510590,-0.616,-0.579,0.705,-11.3,-12.6,13.8,15.4,-10.4,-17,0.300698874,0.190557573,0.399792474,-0.844630268
997,2497639,1510600,-0.612,-0.583,0.705,-10.8,-12.4,14.6,15.4,-10.4,-17,0.301126133,0.190374462,0.399853511,-0.844477676
998,2500035,1510600,-0.62,-0.586,0.706,-10.1,-12.4,15.5,15.3,-10.5,-16,0.301553392,0.19022187,0.39988403,-0.844355602
999,2501771,1510600,-0.62,-0.586,0.702,-9,-12.3,16.3,15.3,-10.5,-16,0.30201117,0.190069277,0.399914548,-0.844203009
1000,2504259,1510600,-0.624,-0.578,0.702,-7.9,-12.3,17,15.3,-10.5,-16,0.302438429,0.189947203,0.399914548,-0.844080935
1001,2506728,1510610,-0.628,-0.57,0.698,-6.9,-12.1,17.6,15.3,-10.5,-16,0.302926725,0.189825129,0.39988403,-0.843958861
1002,2509507,1510610,-0.628,-0.559,0.69,-6.1,-12,17.8,15.2,-10.6,-19.4,0.303384503,0.189672536,0.399853511,-0.843836787
1003,2511935,1510610,-0.631,-0.555,0.698,-5.7,-11.7,17.6,15.2,-10.6,-19.4,0.303811762,0.189611499,0.399792474,-0.843714713
1004,2514826,1510610,-0.627,-0.539,0.69,-5.5,-11.3,17.3,15.2,-10.6,-19.4,0.304269539,0.189519944,0.399761956,-0.843592639
1005,2517047,1510620,-0.615,-0.531,0.69,-5.2,-11,17.2,15.2,-10.6,-19.4,0.304696799,0.189428388,0.399700919,-0.843470565
1006,2520071,1510620,-0.615,-0.531,0.686,-4.7,-10.9,17.2,15.6,-10.4,-16.5,0.305124058,0.189336833,0.399639882,-0.843379009
1007,2522252,1510620,-0.603,-0.54,0.693,-4.3,-10.7,17.3,15.6,-10.4,-16.5,0.305551317,0.189275796,0.399578845,-0.843256935
1008,2524456,1510620,-0.603,-0.54,0.689,-3.8,-10.6,17.6,15.6,-10.4,-16.5,0.306009095,0.189214759,0.399517808,-0.84316538
1009,2526979,1510630,-0.604,-0.551,0.689,-3.1,-10.5,17.9,15.6,-10.4,-16.5,0.306436354,0.189153722,0.399426252,-0.843043306
1010,2529395,1510630,-0.6,-0.551,0.682,-2.5,-10.3,18.1,15.2,-10.6,-16.5,0.306863613,0.189092685,0.399334696,-0.84295175
1011,2531680,1510630,-0.6,-0.563,0.682,-2.1,-10,18.4,15.2,-10.6,-16.5,0.307290872,0.189062166,0.399212622,-0.842860195
